TimeStamp(s),FrameCounter,AccX,AccY,AccZ,GyrX,GyrY,GyrZ,EulerX,EulerY,EulerZ
0.01,1,-0.045,-1.006,0.08900000000000001,0.572958,-0.1718874,-0.22918320000000006,98.07322086,-1.49542038,7.1848933200000005
0.02,2,-0.045,-1.001,0.09,0.6302538000000001,-0.3437748,-0.11459160000000003,98.07895044,-1.49542038,7.1848933200000005
0.03,3,-0.047,-0.998,0.09,0.9167328,-0.286479,0.0,98.09040960000002,-1.4896908000000002,7.17916374
0.04,4,-0.047,-0.997,0.08800000000000001,1.2032118,-0.3437748,0.057295800000000015,98.10186876,-1.4896908000000002,7.17916374
0.05,5,-0.05,-0.997,0.08900000000000001,1.432395,-0.286479,0.11459160000000003,97.99300674,-1.53552744,7.1906228999999975
0.060000000000000005,6,-0.05,-0.998,0.08900000000000001,1.432395,-0.22918320000000006,0.1718874,98.01019548,-1.53552744,7.1906228999999975
0.06999999999999999,7,-0.05,-0.999,0.08800000000000001,1.5469866,-0.057295800000000015,0.11459160000000003,98.02738422000002,-1.53552744,7.1906228999999975
0.08,8,-0.051,-1.001,0.08800000000000001,1.6615782,0.11459160000000003,0.1718874,98.04457296,-1.53552744,7.1906228999999975
0.09,9,-0.051,-1.001,0.086,1.7188740000000002,0.3437748,0.11459160000000003,98.0617617,-1.5412570200000002,7.1906228999999975
0.09999999999999999,10,-0.052000000000000005,-1.002,0.087,1.7761698,0.3437748,0.0,97.96435884,-1.5756344999999998,7.213541219999999
0.11,11,-0.052000000000000005,-1.003,0.08800000000000001,1.8907613999999997,0.4010706,-0.1718874,97.98154758,-1.5756344999999998,7.2192707999999985
0.12,12,-0.051,-1.005,0.08800000000000001,1.8334656000000005,0.4010706,-0.22918320000000006,97.99873632,-1.56990492,7.225000379999999
0.13,13,-0.049,-1.007,0.08900000000000001,1.8334656000000005,0.3437748,-0.11459160000000003,98.02165464,-1.56990492,7.225000379999999
0.14,14,-0.047,-1.01,0.091,1.8334656000000005,0.0,0.0,98.03884338,-1.56990492,7.225000379999999
0.15000000000000002,15,-0.045,-1.01,0.092,1.6042823999999998,-0.11459160000000003,0.1718874,97.93571094,-1.59282324,7.242189120000001
0.16,16,-0.046,-1.01,0.094,1.3750992,-0.11459160000000003,0.1718874,97.9471701,-1.59855282,7.242189120000001
0.17,17,-0.048,-1.009,0.094,1.2605076000000002,0.11459160000000003,0.1718874,97.96435884,-1.59855282,7.242189120000001
0.18000000000000002,18,-0.047,-1.009,0.094,0.9167328,0.4583664000000001,0.22918320000000006,97.97008842,-1.6042824000000002,7.2479187
0.19,19,-0.049,-1.009,0.095,0.8594370000000001,0.6302538000000001,0.22918320000000006,97.98154758,-1.6042824000000002,7.25364828
0.2,20,-0.05,-1.008,0.096,0.8021411999999999,0.4010706,0.1718874,97.82111934,-1.6558486199999998,7.282296179999999
0.21000000000000002,21,-0.049,-1.008,0.096,0.7448454000000001,0.22918320000000006,0.057295800000000015,97.8325785,-1.6558486199999998,7.282296179999999
0.22,22,-0.047,-1.007,0.097,0.5156622000000001,0.286479,0.0,97.83830808,-1.6558486199999998,7.288025760000001
0.23,23,-0.048,-1.007,0.095,0.286479,0.0,-0.11459160000000003,97.83830808,-1.6558486199999998,7.288025760000001
0.24000000000000002,24,-0.049,-1.008,0.097,0.1718874,0.0,0.0,97.84403766,-1.6558486199999998,7.288025760000001
0.25,25,-0.049,-1.005,0.099,0.11459160000000003,0.0,-0.11459160000000003,97.40286,-1.79908812,7.35105114
0.26,26,-0.05,-1.003,0.099,0.057295800000000015,-0.057295800000000015,-0.22918320000000006,97.40286,-1.7933585399999998,7.35105114
0.27,27,-0.049,-1.002,0.098,-0.11459160000000003,-0.11459160000000003,-0.22918320000000006,97.40286,-1.7933585399999998,7.35105114
0.28,28,-0.05,-1.0,0.1,-0.4010706,0.0,-0.22918320000000006,97.39713042,-1.78762896,7.35105114
0.29000000000000004,29,-0.048,-1.001,0.101,-0.5156622000000001,0.11459160000000003,-0.1718874,97.39140084,-1.78762896,7.35105114
0.3,30,-0.047,-1.001,0.099,-0.572958,0.1718874,-0.1718874,97.22524302,-1.82773602,7.37396946
0.31,31,-0.047,-1.002,0.098,-0.4583664000000001,0.3437748,0.0,97.21951344,-1.82773602,7.37969904
0.32,32,-0.046,-1.004,0.095,-0.3437748,0.1718874,0.11459160000000003,97.21378386,-1.82773602,7.37969904
0.33,33,-0.046,-1.006,0.095,-0.22918320000000006,0.1718874,0.286479,97.21378386,-1.8334656000000003,7.37969904
0.34,34,-0.048,-1.007,0.094,-0.11459160000000003,0.11459160000000003,0.4583664000000001,97.20805428,-1.8334656000000003,7.385428619999999
0.35000000000000003,35,-0.05,-1.004,0.093,-0.057295800000000015,0.0,0.4583664000000001,96.97887108,-1.90795014,7.41407652
0.36000000000000004,36,-0.049,-1.004,0.093,-0.057295800000000015,-0.057295800000000015,0.3437748,96.97887108,-1.90795014,7.41407652
0.37,37,-0.05,-1.005,0.094,-0.11459160000000003,0.0,0.1718874,96.97887108,-1.91367972,7.41407652
0.38,38,-0.047,-1.005,0.093,-0.11459160000000003,-0.11459160000000003,0.1718874,96.97887108,-1.91367972,7.408346939999999
0.39,39,-0.045,-1.006,0.094,-0.3437748,-0.286479,0.1718874,96.9731415,-1.91367972,7.408346939999999
0.4,40,-0.045,-1.007,0.094,-0.5156622000000001,-0.3437748,0.1718874,96.83563158,-1.93659804,7.4198061
0.41000000000000003,41,-0.046,-1.006,0.091,-0.7448454000000001,-0.4583664000000001,0.22918320000000006,96.829902,-1.93659804,7.41407652
0.42000000000000004,42,-0.049,-1.007,0.09,-0.8021411999999999,-0.572958,0.3437748,96.81844284,-1.94232762,7.408346939999999
0.43,43,-0.05,-1.007,0.091,-0.9740286,-0.572958,0.4010706,96.80698368,-1.94232762,7.4026173600000025
0.44,44,-0.05,-1.009,0.092,-1.145916,-0.286479,0.4010706,96.79552452,-1.9480572000000005,7.39688778
0.45,45,-0.051,-1.011,0.08900000000000001,-1.432395,0.0,0.572958,96.70958082,-1.97097552,7.408346939999999
0.46,46,-0.05,-1.009,0.08900000000000001,-1.5469866,0.3437748,0.6875496,96.69239208,-1.98243468,7.408346939999999
0.47000000000000003,47,-0.049,-1.007,0.09,-1.6615782,0.3437748,0.7448454000000001,96.67520334,-1.98816426,7.41407652
0.48000000000000004,48,-0.049,-1.006,0.08900000000000001,-1.7761698,0.5156622000000001,0.7448454000000001,96.65228502,-1.99962342,7.4198061
0.49,49,-0.05,-1.006,0.08900000000000001,-1.8907613999999997,0.4010706,0.6302538000000001,96.63509628,-2.005353,7.4198061
0.5,50,-0.051,-1.007,0.08900000000000001,-2.0053530000000004,0.286479,0.6302538000000001,96.56061174,-2.02827132,7.431265259999999
0.51,51,-0.053,-1.006,0.08900000000000001,-2.1199446,0.0,0.4583664000000001,96.53769342,-2.0340008999999997,7.431265259999999
0.52,52,-0.052000000000000005,-1.006,0.087,-2.2345362,0.22918320000000006,0.3437748,96.5147751,-2.0340008999999997,7.431265259999999
0.53,53,-0.052000000000000005,-1.005,0.085,-2.2345362,0.286479,0.5156622000000001,96.49185678,-2.03973048,7.431265259999999
0.54,54,-0.052000000000000005,-1.003,0.085,-2.1772404,0.11459160000000003,0.4583664000000001,96.46893846,-2.04546006,7.431265259999999
0.55,55,-0.052000000000000005,-1.004,0.085,-2.0626488000000003,-0.11459160000000003,0.4010706,96.38872434,-2.06837838,7.43699484
0.56,56,-0.05,-1.005,0.08900000000000001,-2.2345362,-0.11459160000000003,0.4583664000000001,96.36580602,-2.07410796,7.43699484
0.5700000000000001,57,-0.048,-1.003,0.09,-2.3491278,0.0,0.6302538000000001,96.3428877,-2.07983754,7.43699484
0.5800000000000001,58,-0.046,-1.003,0.084,-2.4637194,-0.1718874,0.9740286,96.31996938,-2.0912967,7.431265259999999
0.59,59,-0.046,-1.004,0.084,-2.291832,-0.5156622000000001,1.2605076000000002,96.29705106,-2.10275586,7.42553568
0.6,60,-0.048,-1.005,0.08800000000000001,-2.1772404,-0.4583664000000001,1.145916,96.23402568,-2.1199446,7.42553568
0.61,61,-0.051,-1.005,0.08800000000000001,-2.2345362,-0.057295800000000015,0.9740286,96.21110736,-2.13140376,7.4198061
0.62,62,-0.052000000000000005,-1.007,0.085,-2.291832,0.1718874,0.9167328,96.18818904,-2.13713334,7.4198061
0.63,63,-0.055,-1.008,0.086,-2.6356068,-0.057295800000000015,0.8021411999999999,96.16527072,-2.1485925000000003,7.4198061
0.64,64,-0.058,-1.009,0.08800000000000001,-2.578311,-0.4010706,0.572958,96.13662282,-2.15432208,7.41407652
0.65,65,-0.057,-1.008,0.08900000000000001,-2.86479,-0.4010706,0.3437748,96.07359744,-2.1657812400000003,7.41407652
0.66,66,-0.054000000000000006,-1.008,0.085,-3.151269,-0.11459160000000003,0.286479,96.03921996,-2.17151082,7.41407652
0.67,67,-0.053,-1.008,0.08199999999999999,-3.2085648,0.1718874,0.3437748,96.00484248,-2.17151082,7.41407652
0.68,68,-0.054000000000000006,-1.005,0.079,-3.0366774,0.286479,0.4583664000000001,95.97619458,-2.1772404,7.41407652
0.6900000000000001,69,-0.054000000000000006,-1.002,0.078,-2.8074942000000003,0.4010706,0.6302538000000001,95.94754668,-2.18869956,7.4198061
0.7000000000000001,70,-0.053,-0.998,0.078,-2.4064236,0.6875496,0.8021411999999999,95.8845213,-2.2058883,7.431265259999999
0.7100000000000001,71,-0.057,-0.997,0.078,-2.2345362,0.6875496,0.9167328,95.86160298,-2.21734746,7.43699484
0.72,72,-0.061,-0.994,0.079,-2.0626488000000003,0.7448454000000001,0.9167328,95.83868466,-2.22880662,7.4427244199999985
0.73,73,-0.06,-0.996,0.08,-1.8907613999999997,0.9740286,0.8021411999999999,95.81576634,-2.2345362,7.448453999999999
0.74,74,-0.057,-1.001,0.075,-2.0626488000000003,1.2032118,0.7448454000000001,95.7985776,-2.24599536,7.459913160000001
0.75,75,-0.059,-1.001,0.07400000000000001,-2.1199446,1.2032118,0.7448454000000001,95.73555222,-2.26891368,7.477101899999999
0.76,76,-0.06,-1.0,0.07200000000000001,-2.1772404,1.2032118,0.8594370000000001,95.7126339,-2.28037284,7.4885610599999985
0.77,77,-0.061,-0.999,0.069,-2.1199446,1.2032118,0.6875496,95.68971558,-2.28610242,7.500020219999999
0.78,78,-0.066,-0.998,0.07200000000000001,-1.7761698,1.0313244,0.5156622000000001,95.67252684,-2.2918320000000003,7.51147938
0.79,79,-0.06,-1.003,0.073,-1.3750992,1.145916,0.3437748,95.6553381,-2.29756158,7.51720896
0.8,80,-0.059,-1.01,0.067,-1.432395,1.2605076000000002,0.572958,95.58658314,-2.3204799,7.54012728
0.81,81,-0.059,-1.012,0.069,-1.7761698,0.9740286,0.8594370000000001,95.5693944,-2.33193906,7.545856859999999
0.8200000000000001,82,-0.061,-1.007,0.071,-2.0053530000000004,0.9167328,0.8594370000000001,95.54647608,-2.34339822,7.55731602
0.8300000000000001,83,-0.062,-1.002,0.071,-2.1199446,0.9740286,0.7448454000000001,95.52355776,-2.3491277999999998,7.5630456000000015
0.8400000000000001,84,-0.061,-1.005,0.068,-2.1199446,1.145916,0.6875496,95.50636902,-2.36058696,7.574504760000001
0.85,85,-0.07,-1.006,0.067,-2.1772404,0.9740286,0.6302538000000001,95.43761406,-2.38923486,7.5916935
0.86,86,-0.066,-1.009,0.066,-2.0626488000000003,0.8021411999999999,0.6302538000000001,95.41469573999998,-2.40069402,7.59742308
0.87,87,-0.062,-1.012,0.067,-2.0053530000000004,0.8594370000000001,0.572958,95.39750699999999,-2.4064236,7.603152659999999
0.88,88,-0.063,-1.012,0.068,-2.2345362,0.9167328,0.572958,95.37458868,-2.41215318,7.61461182
0.89,89,-0.067,-1.008,0.07,-2.5210152000000003,0.8594370000000001,0.4583664000000001,95.34594078,-2.41788276,7.620341400000001
0.9,90,-0.066,-1.004,0.066,-2.7501984,0.9167328,0.3437748,95.27145624,-2.44080108,7.63753014
0.91,91,-0.064,-1.008,0.064,-2.86479,1.0886202,0.22918320000000006,95.24280834,-2.44653066,7.64325972
0.92,92,-0.064,-1.012,0.063,-2.9220857999999996,1.0886202,0.286479,95.21416044,-2.44653066,7.65471888
0.93,93,-0.062,-1.012,0.064,-3.151269,0.9167328,0.3437748,95.17978295999998,-2.45226024,7.66617804
0.9400000000000001,94,-0.061,-1.008,0.064,-3.2658606,0.7448454000000001,0.286479,95.14540548,-2.45798982,7.6719076200000025
0.9500000000000001,95,-0.061,-1.006,0.062,-3.4377480000000005,0.6302538000000001,0.22918320000000006,95.07092094,-2.47517856,7.68336678
0.9600000000000001,96,-0.062,-1.007,0.062,-3.666931200000001,0.7448454000000001,0.286479,95.03081388,-2.47517856,7.6890963600000015
0.97,97,-0.063,-1.006,0.064,-3.666931200000001,0.8021411999999999,0.3437748,94.9964364,-2.48090814,7.6948259399999985
0.98,98,-0.063,-1.006,0.063,-3.6096354,1.0313244,0.4010706,94.95632934,-2.48663772,7.7062851
0.99,99,-0.063,-1.005,0.064,-3.6096354,1.145916,0.4583664000000001,94.92195186,-2.4923673,7.717744259999999
1.0,100,-0.065,-1.004,0.063,-3.724227,1.2032118,0.5156622000000001,94.8531969,-2.51528562,7.7349330000000025
1.01,101,-0.064,-1.004,0.065,-3.7815227999999994,1.3750992,0.4010706,94.81308984,-2.5210152000000003,7.746392160000001
1.02,102,-0.064,-1.005,0.065,-3.8388186,1.432395,0.4010706,94.77298278,-2.52674478,7.75785132
1.03,103,-0.063,-1.007,0.064,-3.8961144,1.4896908000000002,0.4010706,94.73287572,-2.53247436,7.7750400599999985
1.04,104,-0.064,-1.009,0.064,-4.010706000000001,1.6042823999999998,0.4583664000000001,94.69276866,-2.53820394,7.78649922
1.05,105,-0.065,-1.009,0.064,-4.0680017999999984,1.5469866,0.4010706,94.6240137,-2.55539268,7.80368796
1.06,106,-0.064,-1.008,0.063,-4.1825934,1.5469866,0.22918320000000006,94.57817706,-2.5611222600000003,7.820876699999999
1.07,107,-0.064,-1.008,0.063,-4.1252976000000015,1.4896908000000002,0.1718874,94.53807,-2.5611222600000003,7.8323358600000015
1.08,108,-0.064,-1.009,0.067,-4.4117766,1.7188740000000002,0.1718874,94.49223336,-2.56685184,7.8495246
1.09,109,-0.062,-1.009,0.064,-4.583664,2.0053530000000004,0.22918320000000006,94.44639672,-2.57258142,7.87244292
1.1,110,-0.061,-1.008,0.062,-4.8128472,2.0053530000000004,0.286479,94.37764176,-2.58404058,7.889631660000001
1.11,111,-0.061,-1.008,0.063,-4.9274388,2.1199446,0.4583664000000001,94.32607554,-2.58977016,7.91254998
1.12,112,-0.063,-1.008,0.062,-5.0993262,2.4064236,0.6875496,94.26877974,-2.6012293200000003,7.9354682999999975
1.1300000000000001,113,-0.065,-1.008,0.059,-5.3285094000000015,2.6929026,0.7448454000000001,94.21721352,-2.61268848,7.9583866200000015
1.1400000000000001,114,-0.065,-1.008,0.058,-5.6149884000000005,2.9793816000000004,0.7448454000000001,94.15418814,-2.62414764,7.987034519999999
1.1500000000000001,115,-0.066,-1.006,0.058,-5.7868758000000025,3.3804522000000006,0.6875496,94.0797036,-2.6413363800000003,8.021412
1.1600000000000001,116,-0.07,-1.006,0.057,-5.72958,3.7815227999999994,0.7448454000000001,94.0224078,-2.65279554,8.05578948
1.17,117,-0.063,-1.008,0.055,-5.72958,4.2398892,0.6875496,93.95938242,-2.6642547000000003,8.10162612
1.18,118,-0.061,-1.011,0.048,-6.0733548,4.4690724,0.6875496,93.89635704,-2.67571386,8.14173318
1.19,119,-0.062,-1.01,0.047,-6.2452422,4.2398892,0.8021411999999999,93.82760208,-2.68717302,8.18184024
1.2,120,-0.065,-1.005,0.049,-6.4744254,4.0680017999999984,0.6302538000000001,93.74738796,-2.70436176,8.2219473
1.21,121,-0.07400000000000001,-1.001,0.054000000000000006,-6.6463128000000005,4.5263682,0.4010706,93.67863300000002,-2.71582092,8.26778394
1.22,122,-0.07200000000000001,-0.999,0.054000000000000006,-6.760904399999999,5.2139178,0.22918320000000006,93.60414846,-2.7215505,8.319350159999999
1.23,123,-0.061,-1.007,0.048,-7.0473834,5.958763200000001,0.11459160000000003,93.52966392,-2.72728008,8.376645960000001
1.24,124,-0.059,-1.012,0.041,-7.161975,5.844171599999999,0.3437748,93.45517938,-2.73873924,8.43394176
1.25,125,-0.059,-1.012,0.038,-7.161975,5.5003968,0.572958,93.3635061,-2.7501984,8.49123756
1.26,126,-0.064,-1.004,0.037000000000000005,-7.161975,5.3285094000000015,0.6875496,93.28902156,-2.76738714,8.542803780000002
1.27,127,-0.071,-0.997,0.034,-6.8182002000000015,4.8701430000000006,0.7448454000000001,93.21453702,-2.7788463,8.58864042
1.28,128,-0.071,-0.999,0.034,-6.1879464,4.9274388,0.6302538000000001,93.15151164,-2.79030546,8.634477059999998
1.29,129,-0.064,-1.007,0.035,-6.0733548,5.5576926,0.572958,93.08275668,-2.79603504,8.691772859999999
1.3,130,-0.061,-1.01,0.03,-5.958763200000001,5.6149884000000005,0.8021411999999999,93.00827214,-2.81322378,8.74333908
1.31,131,-0.064,-1.009,0.025,-6.016058999999999,5.2139178,0.8021411999999999,92.93951718,-2.82468294,8.794905300000002
1.32,132,-0.068,-1.005,0.028,-6.0733548,4.7555514,0.572958,92.8764918,-2.8361421,8.84074194
1.33,133,-0.077,-1.001,0.033,-5.844171599999999,4.1825934,0.3437748,92.81346642,-2.84187168,8.880849000000003
1.34,134,-0.069,-1.009,0.03,-5.5576926,3.8961144,0.0,92.75617062,-2.84760126,8.92095606
1.35,135,-0.068,-1.021,0.027000000000000003,-5.958763200000001,4.0680017999999984,0.11459160000000003,92.6759565,-2.85906042,8.96106312
1.36,136,-0.065,-1.017,0.024,-6.2452422,3.9534102,0.286479,92.61293112,-2.86479,9.001170179999997
1.37,137,-0.068,-1.01,0.021,-6.417129599999999,3.8961144,0.3437748,92.54417616,-2.87051958,9.04127724
1.3800000000000001,138,-0.071,-1.001,0.017,-6.3598338,3.8388186,0.286479,92.4754212,-2.87624916,9.07565472
1.3900000000000001,139,-0.075,-1.0,0.012,-6.1879464,3.724227,0.1718874,92.40666624,-2.88197874,9.1100322
1.4000000000000001,140,-0.084,-0.995,0.013,-5.9014674000000005,3.4377480000000005,0.0,92.32645212,-2.89916748,9.15013926
1.4100000000000001,141,-0.079,-0.994,0.017,-5.5576926,3.4950437999999995,0.0,92.26915632,-2.90489706,9.18451674
1.42,142,-0.077,-0.999,0.015,-5.3285094000000015,3.666931200000001,0.0,92.21186052,-2.90489706,9.21889422
1.43,143,-0.069,-0.999,0.013,-5.3285094000000015,3.8388186,0.11459160000000003,92.15456472,-2.91062664,9.25900128
1.44,144,-0.069,-1.003,0.008,-5.3285094000000015,3.7815227999999994,0.286479,92.09726892,-2.91635622,9.29337876
1.45,145,-0.07200000000000001,-1.003,0.006999999999999999,-5.2712136,3.6096354,0.3437748,92.0170548,-2.92781538,9.33348582
1.46,146,-0.08,-1.004,0.006,-5.2139178,3.4377480000000005,0.1718874,91.959759,-2.93354496,9.36213372
1.47,147,-0.085,-1.003,0.006,-5.0993262,3.2085648,0.0,91.90819278,-2.93354496,9.396511199999999
1.48,148,-0.077,-1.012,0.009000000000000001,-4.9274388,3.724227,-0.057295800000000015,91.85662656,-2.93927454,9.43088868
1.49,149,-0.069,-1.016,0.006,-5.042030400000002,4.0680017999999984,0.0,91.79933076,-2.93927454,9.47099574
1.5,150,-0.073,-1.01,0.003,-5.443101,3.8961144,0.286479,91.71911664,-2.9507337,9.5111028
1.51,151,-0.078,-1.002,0.004,-5.6722842,3.9534102,0.22918320000000006,91.66182084,-2.9564632800000004,9.55120986
1.52,152,-0.078,-0.998,0.006,-5.7868758000000025,4.6982556,0.057295800000000015,91.59879546,-2.96219286,9.5970465
1.53,153,-0.07200000000000001,-1.008,0.002,-5.5576926,5.5003968,0.0,91.54149966,-2.96792244,9.64861272
1.54,154,-0.071,-1.017,-0.004,-5.958763200000001,5.6149884000000005,0.3437748,91.4727447,-2.9736520200000003,9.70590852
1.55,155,-0.073,-1.017,-0.006,-6.1879464,5.0993262,0.6875496,91.39253058,-2.99084076,9.75747474
1.56,156,-0.083,-1.01,-0.004,-6.3598338,4.4117766,0.4010706,91.32377562,-2.9965703400000003,9.80331138
1.57,157,-0.079,-1.002,-0.003,-6.417129599999999,4.5263682,-0.11459160000000003,91.25502066,-2.9965703400000003,9.84341844
1.58,158,-0.066,-1.016,-0.006,-6.417129599999999,5.0993262,-0.286479,91.1862657,-2.9965703400000003,9.89498466
1.59,159,-0.064,-1.024,-0.011,-6.6463128000000005,4.9847345999999995,-0.11459160000000003,91.11178116,-3.00229992,9.94655088
1.6,160,-0.065,-1.017,-0.012,-6.990087599999999,4.5263682,0.11459160000000003,91.02010788,-3.0080295,9.99238752
1.61,161,-0.078,-1.002,-0.011,-7.2192707999999985,4.297185,-0.057295800000000015,90.94562334,-3.0080295,10.03249458
1.62,162,-0.08,-0.992,-0.011,-7.2192707999999985,4.1252976000000015,-0.5156622000000001,90.8711388,-3.0080295,10.07260164
1.6300000000000001,163,-0.069,-0.999,-0.012,-6.990087599999999,4.4690724,-0.6875496,90.79665426,-3.00229992,10.11843828
1.6400000000000001,164,-0.066,-1.01,-0.015,-7.0473834,4.297185,-0.4010706,90.72216972,-3.00229992,10.15854534
1.6500000000000001,165,-0.065,-1.009,-0.016,-7.2192707999999985,4.0680017999999984,-0.1718874,90.62476686,-3.00229992,10.1986524
1.6600000000000001,166,-0.067,-0.998,-0.018000000000000002,-7.333862400000001,3.8961144,-0.22918320000000006,90.55028232,-3.00229992,10.23875946
1.6700000000000002,167,-0.077,-0.99,-0.018000000000000002,-7.2192707999999985,3.5523396000000003,-0.7448454000000001,90.4700682,-2.9965703400000003,10.27313694
1.68,168,-0.07400000000000001,-0.994,-0.017,-6.875496000000001,3.6096354,-0.9167328,90.40131324,-2.99084076,10.30751442
1.69,169,-0.066,-1.007,-0.019,-6.8182002000000015,3.8961144,-1.0313244,90.3268287,-2.9793816000000004,10.34762148
1.7,170,-0.062,-1.016,-0.021,-6.9327918,3.8388186,-0.6875496,90.23515542,-2.9793816000000004,10.38772854
1.71,171,-0.063,-1.011,-0.023,-7.2765666,3.666931200000001,-0.4583664000000001,90.16067088,-2.9736520200000003,10.42210602
1.72,172,-0.065,-1.002,-0.024,-7.5630456000000015,3.3804522000000006,-0.4583664000000001,90.08045676,-2.9736520200000003,10.456483500000001
1.73,173,-0.07400000000000001,-0.996,-0.021,-7.7922288,3.3231564,-0.8021411999999999,90.00024264,-2.96792244,10.4851314
1.74,174,-0.07200000000000001,-1.003,-0.02,-7.8495246,3.5523396000000003,-0.9740286,89.91429894,-2.9564632800000004,10.52523846
1.75,175,-0.077,-1.012,-0.02,-8.021412000000002,3.724227,-0.9167328,89.81689608,-2.9564632800000004,10.55961594
1.76,176,-0.069,-1.013,-0.02,-8.021412000000002,3.8961144,-0.7448454000000001,89.73668196000001,-2.9507337,10.599723
1.77,177,-0.066,-1.017,-0.022,-8.307891,4.1252976000000015,-0.572958,89.65073826,-2.94500412,10.63983006
1.78,178,-0.065,-1.014,-0.027000000000000003,-8.880849000000003,4.297185,-0.4583664000000001,89.55333540000002,-2.94500412,10.679937120000002
1.79,179,-0.066,-1.013,-0.03,-9.1100322,4.010706000000001,-0.572958,89.46166212,-2.93927454,10.72004418
1.8,180,-0.077,-1.007,-0.028,-9.3965112,3.724227,-0.8594370000000001,89.34707052,-2.93927454,10.75442166
1.81,181,-0.078,-1.005,-0.027000000000000003,-9.3965112,3.8388186,-1.0886202,89.24966766,-2.93354496,10.79452872
1.82,182,-0.071,-1.011,-0.028,-9.6256944,4.0680017999999984,-1.145916,89.1522648,-2.9220858,10.83463578
1.83,183,-0.063,-1.016,-0.031,-9.969469199999999,4.297185,-0.8594370000000001,89.04340278,-2.91635622,10.87474284
1.84,184,-0.06,-1.017,-0.033,-10.3705398,4.1825934,-0.4583664000000001,88.93454076,-2.91062664,10.914849900000002
1.85,185,-0.061,-1.011,-0.036000000000000004,-10.886202,4.010706000000001,-0.4583664000000001,88.81421958,-2.91062664,10.95495696
1.86,186,-0.069,-1.004,-0.037000000000000005,-11.2872726,3.666931200000001,-0.6302538000000001,88.69389840000002,-2.90489706,10.98933444
1.87,187,-0.083,-1.0,-0.038,-11.516455800000001,3.4377480000000005,-0.9167328,88.57357721999998,-2.8934379,11.02371192
1.8800000000000001,188,-0.078,-1.005,-0.038,-11.6310474,3.8961144,-1.0313244,88.45325604000001,-2.88770832,11.0580894
1.8900000000000001,189,-0.067,-1.018,-0.037000000000000005,-12.032117999999999,4.8701430000000006,-0.8594370000000001,88.32720528,-2.87624916,11.109655620000002
1.9000000000000001,190,-0.062,-1.025,-0.041,-12.891555,5.2139178,-0.4583664000000001,88.18396578000002,-2.87624916,11.16122184
1.9100000000000001,191,-0.065,-1.02,-0.047,-13.8655836,5.3858052,-0.286479,88.04072628,-2.87051958,11.21278806
1.9200000000000002,192,-0.077,-1.009,-0.048,-14.5531332,5.443101,-0.6302538000000001,87.8917572,-2.86479,11.26435428
1.93,193,-0.08,-1.0,-0.047,-14.7250206,5.6722842,-0.9740286,87.73705853999998,-2.85906042,11.3159205
1.94,194,-0.075,-1.008,-0.045,-14.9542038,6.417129599999999,-1.2605076000000002,87.58235988,-2.84760126,11.37894588
1.95,195,-0.068,-1.019,-0.044,-15.5844576,7.3911582,-0.9740286,87.41620206,-2.8361421,11.45343042
1.96,196,-0.068,-1.03,-0.049,-16.558486199999994,7.7922288,-0.3437748,87.23858508000002,-2.8361421,11.52791496
1.97,197,-0.075,-1.024,-0.05,-17.7044022,7.3911582,0.0,87.05523852,-2.8361421,11.59666992
1.98,198,-0.085,-1.008,-0.048,-18.334656,7.161975,-0.11459160000000003,86.86616238,-2.83041252,11.66542488
1.99,199,-0.081,-1.008,-0.048,-18.6784308,7.9641161999999985,-0.5156622000000001,86.67135666,-2.82468294,11.745639
2.0,200,-0.078,-1.018,-0.044,-19.0795014,9.224623800000002,-0.6302538000000001,86.47082136,-2.82468294,11.831582699999998
2.01,201,-0.075,-1.032,-0.046,-19.5378678,10.1986524,-0.4583664000000001,86.26455648,-2.81322378,11.92898556
2.02,202,-0.08,-1.036,-0.05,-20.6837838,10.7716104,0.0,86.05256202000002,-2.81322378,12.03784758
2.03,203,-0.071,-1.026,-0.049,-21.772404,11.4018642,0.0,85.82337881999999,-2.8074942000000003,12.1467096
2.04,204,-0.075,-1.018,-0.05,-22.631841,11.688343199999998,-0.22918320000000006,85.58273646,-2.80176462,12.261301200000002
2.05,205,-0.07400000000000001,-1.016,-0.056,-23.376686399999997,11.9748222,-0.4010706,85.3420941,-2.79603504,12.3758928
2.0599999999999996,206,-0.07,-1.022,-0.059,-24.2934192,12.5477802,-0.6875496,85.08426299999998,-2.78457588,12.49621398
2.07,207,-0.068,-1.024,-0.065,-25.6685184,13.5791046,-0.7448454000000001,84.81497274,-2.77311672,12.62799432
2.0799999999999996,208,-0.068,-1.019,-0.077,-26.69984280000001,14.0947668,-0.5156622000000001,84.5399529,-2.76165756,12.765504240000002
2.09,209,-0.065,-1.015,-0.081,-27.215505,14.32395,-0.3437748,84.25347389999997,-2.7501984,12.903014159999998
2.0999999999999996,210,-0.066,-1.003,-0.086,-28.0176462,14.32395,-0.22918320000000006,83.95553574,-2.73873924,13.04052408
2.11,211,-0.064,-0.995,-0.09,-28.762491600000004,14.381245800000002,-0.4010706,83.65759758,-2.72728008,13.178034
2.1199999999999997,212,-0.064,-0.995,-0.09,-29.335449600000004,14.8396122,-0.6302538000000001,83.34820026,-2.71009134,13.321273499999998
2.13,213,-0.073,-0.998,-0.099,-30.252182399999995,15.183387000000002,-0.8594370000000001,83.03307336,-2.6929026,13.47024258
2.1399999999999997,214,-0.078,-0.998,-0.102,-31.111619399999995,15.527161800000002,-1.0313244,82.7064873,-2.6699842800000004,13.61921166
2.15,215,-0.08199999999999999,-1.002,-0.105,-31.971056400000002,16.4438946,-1.2032118,82.37417166,-2.64706596,13.77391032
2.1599999999999997,216,-0.081,-1.005,-0.114,-32.6013102,17.0741484,-1.0313244,82.03612644,-2.62414764,13.93433856
2.17,217,-0.081,-1.008,-0.114,-33.1742682,17.4179232,-1.0313244,81.68662206,-2.59549974,14.10049638
2.1799999999999997,218,-0.081,-1.01,-0.121,-33.9764094,18.1054728,-1.2605076000000002,81.3313881,-2.5611222600000003,14.27811336
2.19,219,-0.078,-1.01,-0.124,-34.8358464,18.5638392,-1.2605076000000002,80.97042456,-2.53247436,14.45573034
2.1999999999999997,220,-0.079,-1.009,-0.127,-35.809875,19.0222056,-1.432395,80.59227228,-2.49809688,14.63334732
2.21,221,-0.08,-1.007,-0.135,-36.8411994,19.308684600000007,-1.432395,80.20839042,-2.4637194,14.81669388
2.2199999999999998,222,-0.084,-1.006,-0.141,-37.8725238,19.595163600000006,-1.4896908000000002,79.81304940000003,-2.42361234,15.00577002
2.23,223,-0.084,-1.005,-0.14800000000000002,-39.19032720000001,20.511896399999998,-1.3750992,79.40624921999998,-2.38350528,15.19484616
2.2399999999999998,224,-0.087,-1.005,-0.15,-40.164355799999996,21.2567418,-1.3178034,78.98798988,-2.3376686399999995,15.40111104
2.25,225,-0.087,-1.008,-0.155,-41.539455,22.058883,-1.2032118,78.55827138,-2.29756158,15.60737592
2.26,226,-0.08800000000000001,-1.004,-0.16,-42.91455420000001,22.5172494,-1.145916,78.11136413999998,-2.25172494,15.81937038
2.27,227,-0.087,-1.006,-0.166,-44.2896534,23.2620948,-1.2605076000000002,77.64726816,-2.20015872,16.042824
2.28,228,-0.087,-1.004,-0.16699999999999998,-45.779344200000004,24.2361234,-1.432395,77.17171302,-2.1485925000000003,16.26627762
2.29,229,-0.087,-1.002,-0.177,-47.3836266,25.2674478,-1.6042823999999998,76.67896913999998,-2.08556712,16.50691998
2.3,230,-0.087,-0.996,-0.182,-49.1025006,26.2414764,-1.8907613999999997,76.16903651999998,-2.02254174,16.753291920000002
2.31,231,-0.085,-0.989,-0.188,-51.5089242,27.501984000000004,-2.291832,75.63045600000002,-1.9480572000000005,17.00539344
2.32,232,-0.08,-0.985,-0.188,-53.285094,28.762491600000004,-2.578311,75.08041632,-1.8621135,17.2746837
2.3299999999999996,233,-0.077,-0.985,-0.196,-55.40503860000001,29.507337,-2.7501984,74.50172874,-1.77044022,17.54397396
2.34,234,-0.075,-0.983,-0.204,-57.63957480000001,30.194886600000004,-2.7501984,73.90585242,-1.6787669399999998,17.818993799999994
2.3499999999999996,235,-0.07400000000000001,-0.982,-0.213,-59.64492779999999,31.22621100000001,-2.8074942000000003,73.29278736,-1.5813640800000002,18.1054728
2.36,236,-0.07200000000000001,-0.987,-0.209,-62.3951262,31.5699858,-3.0366774,72.64534482,-1.4782316400000002,18.3919518
2.3699999999999997,237,-0.073,-0.979,-0.207,-64.3431834,31.3980984,-3.3231564,71.98071354,-1.36364004,18.6784308
2.38,238,-0.077,-0.976,-0.21600000000000005,-66.5777196,32.257535399999995,-3.724227,71.29316394,-1.24904844,18.9649098
2.3899999999999997,239,-0.075,-0.979,-0.231,-70.30194660000001,34.5493674,-4.1825934,70.57123686,-1.11153852,19.27430712
2.4,240,-0.068,-0.982,-0.244,-72.88025760000002,36.4401288,-4.7555514,69.82639146,-0.96829902,19.595163600000006
2.4099999999999997,241,-0.068,-0.979,-0.254,-75.2866812,37.2995658,-5.443101,69.04716858,-0.8021412000000001,19.91602008
2.42,242,-0.065,-0.973,-0.261,-77.5785132,37.8725238,-6.417129599999999,68.25075696,-0.62452422,20.24260614
2.4299999999999997,243,-0.058,-0.97,-0.256,-79.75575359999998,37.8725238,-7.5630456000000015,67.43715660000001,-0.43544808,20.55773304
2.44,244,-0.06,-0.964,-0.255,-81.9902898,37.41415739999999,-8.7662574,66.59490833999999,-0.22918320000000003,20.86140078
2.4499999999999997,245,-0.07200000000000001,-0.951,-0.268,-84.91237559999998,38.7892566,-9.969469199999999,65.72974176,-0.00572958,21.170798100000006
2.46,246,-0.083,-0.934,-0.284,-87.37609499999998,42.7426668,-11.4018642,64.84165686,0.24637194,21.50884332
2.4699999999999998,247,-0.08800000000000001,-0.927,-0.297,-90.5846598,49.1597964,-13.2353298,63.9134649,0.55576926,21.8869956
2.48,248,-0.084,-0.917,-0.293,-93.3348582,54.54560160000001,-15.3552744,62.96808420000001,0.90527364,22.29952536
2.4899999999999998,249,-0.065,-0.898,-0.293,-95.397507,58.49901179999999,-17.18874,61.99978518,1.30061466,22.73497344
2.5,250,-0.061,-0.903,-0.294,-96.3142398,62.16594300000001,-18.1054728,61.03148616,1.7188740000000002,23.19333984
2.51,251,-0.071,-0.9,-0.309,-99.63739620000001,66.9214944,-19.8243468,60.02308008,2.18869956,23.67462456
2.52,252,-0.059,-0.8809999999999999,-0.326,-101.7573408,73.052145,-21.4286292,59.00321484,2.71009134,24.19601634
2.53,253,-0.042,-0.87,-0.341,-103.3043274,79.29738719999997,-22.631841,57.97189044,3.27731976,24.7517856
2.54,254,-0.016,-0.863,-0.374,-105.7680468,86.0009958,-24.7517856,56.92337730000001,3.91330314,25.34766192
2.55,255,0.005,-0.861,-0.399,-106.91396280000001,94.13699940000001,-26.41336380000001,55.88059374000001,4.60658232,25.98937488
2.56,256,0.0,-0.8440000000000001,-0.399,-107.143146,94.7672532,-27.1582092,54.83208060000001,5.3285094000000015,26.61962868
2.57,257,-0.004,-0.823,-0.409,-106.283709,93.7932246,-27.6738714,53.8007562,6.05616606,27.221234580000004
2.5799999999999996,258,0.006999999999999999,-0.8109999999999999,-0.428,-106.5128922,93.4494498,-28.304125199999998,52.76943180000001,6.8010114600000025,27.81138132
2.59,259,0.039,-0.804,-0.446,-107.5442166,91.8451674,-28.5906042,51.7381074,7.545856859999999,28.37288016
2.5999999999999996,260,0.061,-0.787,-0.47,-108.05987879999999,87.8917572,-28.6479,50.70105342,8.2792431,28.888542359999995
2.61,261,0.076,-0.767,-0.49,-107.4869208,81.5892192,-28.2468294,49.66972902000001,8.97825186,29.34117918
2.6199999999999997,262,0.098,-0.758,-0.505,-105.5388636,74.771019,-28.0176462,48.64986378,9.64288314,29.7365202
2.63,263,0.109,-0.775,-0.518,-103.5908064,68.01011460000001,-28.074942,47.64718728,10.27313694,30.06310626
2.6399999999999997,264,0.1,-0.7709999999999999,-0.513,-102.3302988,60.44706899999999,-28.1322378,46.64451078000001,10.8575541,30.32666694000001
2.65,265,0.08800000000000001,-0.77,-0.5329999999999999,-100.2103542,54.43101,-27.7311672,45.6647526,11.4018642,30.5386614
2.6599999999999997,266,0.076,-0.77,-0.5379999999999999,-99.1790298,52.0245864,-27.6165756,44.690724,11.934715140000002,30.72200796000001
2.67,267,0.08,-0.755,-0.508,-97.2309726,48.70143,-26.69984280000001,43.72815455999999,12.438918179999998,30.87670662
2.6799999999999997,268,0.083,-0.7390000000000001,-0.512,-94.1942952,43.9458786,-24.7517856,42.79423302,12.903014159999998,31.00275738
2.69,269,0.067,-0.726,-0.54,-91.67328,38.7319608,-22.345362,41.883229799999995,13.321273499999998,31.10588982
2.6999999999999997,270,0.047,-0.718,-0.584,-90.06899759999997,39.47680620000001,-20.8556712,40.98941532,13.7223441,31.22048142
2.71,271,0.039,-0.708,-0.598,-88.8657858,45.0344988,-21.3140376,40.11851916,14.17498092,31.36372092
2.7199999999999998,272,0.056,-0.715,-0.58,-86.5739538,48.4722468,-21.4286292,39.27054132,14.66199522,31.51841958
2.73,273,0.075,-0.7190000000000001,-0.5770000000000001,-86.05829159999998,50.1911208,-19.595163600000006,38.43402264,15.149009520000002,31.69603656
2.7399999999999998,274,0.103,-0.696,-0.607,-85.25615040000002,48.3003594,-16.615782,37.6146927,15.60737592,31.87938312
2.75,275,0.093,-0.677,-0.652,-82.79243100000002,45.0917946,-13.2926256,36.81828108000001,16.01990568,32.057000099999996
2.76,276,0.095,-0.67,-0.6920000000000001,-80.21412,46.696077,-11.229976800000001,36.05624694,16.438165020000003,32.26326498
2.77,277,0.099,-0.667,-0.723,-77.92228800000002,50.0765292,-10.3705398,35.3228607,16.87934268,32.4867186
2.78,278,0.084,-0.688,-0.7020000000000001,-73.5678072,50.420304,-8.4224826,34.64104068,17.32052034,32.72736096
2.79,279,0.06,-0.759,-0.675,-68.6976642,48.8733174,-4.583664,34.01078688,17.72732052,32.98519206
2.8,280,0.059,-0.742,-0.6890000000000001,-69.61439700000001,46.4668938,-2.1772404,33.39199224,18.09401364,33.24875274
2.81,281,0.047,-0.747,-0.708,-66.86419860000001,45.72204840000001,0.22918320000000006,32.79038634,18.45497718,33.52377258
2.82,282,0.032,-0.797,-0.7120000000000001,-65.4318036,47.841993,4.1252976000000015,32.22315792,18.81021114,33.838899479999995
2.8299999999999996,283,0.028,-0.813,-0.7090000000000001,-66.11935319999999,52.425657,6.016058999999999,31.66165908,19.20555216,34.19413344
2.84,284,0.024,-0.794,-0.733,-70.4165382,57.811462199999994,6.760904399999999,31.06578276,19.64100024,34.58374488
2.8499999999999996,285,0.04,-0.753,-0.765,-73.1667366,62.2805346,7.161975,30.46417686,20.09936664,35.0077338
2.86,286,0.06,-0.7290000000000001,-0.777,-73.5678072,65.3745078,8.307891,29.86257096,20.597840100000006,35.44318188
2.8699999999999997,287,0.071,-0.74,-0.7929999999999999,-74.3699484,67.83822719999999,11.1153852,29.26669464,21.10777272,35.91873702
2.88,288,0.119,-0.753,-0.812,-77.46392159999998,69.0987348,15.5844576,28.66508874,21.61197576,36.4401288
2.8899999999999997,289,0.149,-0.764,-0.853,-79.9849368,67.66633979999999,20.168121600000006,28.0462941,22.08180132,36.99016848
2.9,290,0.168,-0.764,-0.925,-83.19350159999998,61.1919144,23.777757,27.41031072,22.48287192,37.54020816
2.9099999999999997,291,0.234,-0.75,-1.011,-88.06364459999998,49.7900502,25.9549974,26.70557238,22.78081008,38.0444112
2.92,292,0.27,-0.705,-1.0,-90.813843,34.091001,24.923673,25.93780866,22.95842706,38.46267054
2.9299999999999997,293,0.285,-0.66,-1.006,-93.2202666,23.4339822,21.6578124,25.11847872,23.05582992,38.7892566
2.94,294,0.335,-0.598,-1.023,-97.7466348,13.750992000000002,18.7357266,24.22466424,23.090207400000004,39.04135812
2.9499999999999997,295,0.4370000000000001,-0.594,-0.976,-100.9551996,0.6302538000000001,16.8449652,23.27355396,23.00999328,39.21324552
2.96,296,0.506,-0.66,-0.906,-104.7940182,-9.740286,14.610429000000002,22.25368872,22.85529462,39.32210754000001
2.9699999999999998,297,0.522,-0.722,-0.83,-110.9246688,-15.870936600000002,13.6364004,21.15933894,22.64330016,39.3908625
2.98,298,0.476,-0.7090000000000001,-0.7859999999999999,-120.0919968,-18.5065434,15.0114996,19.97331588,22.4026578,39.47680620000001
2.9899999999999998,299,0.387,-0.625,-0.7979999999999999,-130.29064920000002,-24.2361234,16.386598799999998,18.68416038,22.10471964000001,39.55129074
3.0,300,0.304,-0.508,-0.8540000000000001,-137.16614520000002,-30.7678446,15.126091199999998,17.32052034,21.75521526,39.60858654
3.01,301,0.264,-0.38,-0.846,-139.45797720000002,-36.4974246,9.568398599999998,15.90531408,21.36560382,39.591397799999996
3.02,302,0.206,-0.28300000000000003,-0.742,-137.16614520000002,-43.3729206,-0.8594370000000001,14.467189499999998,20.93588532,39.45388788
3.03,303,0.165,-0.246,-0.623,-135.73375019999997,-44.51883660000001,-10.4851314,13.01760576,20.51762598,39.23043426
3.04,304,0.146,-0.237,-0.536,-136.4212998,-39.9924684,-15.6417534,11.545103700000002,20.15093286,38.97260316
3.05,305,0.129,-0.257,-0.416,-137.6818074,-35.809875,-17.761698000000006,10.07260164,19.81861722,38.72050164
3.06,306,0.086,-0.293,-0.331,-139.45797720000002,-30.7678446,-17.9335854,8.58291084,19.53213822,38.47985928
3.07,307,0.073,-0.329,-0.218,-139.9736394,-24.7517856,-18.334656,7.0874904600000015,19.29722544,38.25640566
3.08,308,0.044,-0.305,-0.165,-138.082878,-17.4179232,-17.8189938,5.62644756,19.13106762,38.05587036
3.09,309,-0.042,-0.211,-0.175,-134.98890480000003,5.1566220000000005,-15.6417534,4.20551172,19.17690426,37.90690128
3.0999999999999996,310,-0.25,-0.197,-0.207,-128.1707046,50.5921914,-8.193299399999999,2.8934379,19.6524594,37.87825338
3.11,311,-0.562,-0.158,-0.187,-112.299768,117.5136858,4.1252976000000015,1.78762896,20.7983754,38.015763299999996
3.1199999999999997,312,-0.835,-0.02,-0.281,-88.12094040000002,154.0111104,18.6784308,0.97975818,22.30525494,38.30797188
3.13,313,-0.949,0.207,-0.141,-74.9429064,165.4129746,26.356068,0.33804522,23.92672608,38.66320584
3.1399999999999997,314,-0.608,0.5329999999999999,-0.122,-66.9214944,167.4183276,18.2200644,-0.25210152,25.57111554,38.92103694
3.15,315,-0.1,0.6559999999999999,-0.079,-60.332477399999995,170.2258218,3.0939732,-0.87662574,27.2441529,38.9897919
3.1599999999999997,316,0.18,0.511,0.057,-59.4730404,171.8301042,-5.1566220000000005,-1.52406828,28.934379,38.94968484
3.17,317,0.227,0.31,0.062,-55.3477428,166.38700319999995,-5.5576926,-2.13713334,30.57303888,38.88092988
3.1799999999999997,318,0.401,0.151,0.057,-52.48295279999999,167.07455280000005,0.6302538000000001,-2.70436176,32.217428340000005,38.86374114
3.19,319,0.63,0.162,-0.028,-45.72204840000001,182.4298272,9.8548776,-3.151269,34.02224604,38.93822568
3.1999999999999997,320,0.7959999999999999,0.276,-0.122,-31.6845774,196.4672982,17.9908812,-3.42628884,35.98749198,39.08146518
3.21,321,0.995,0.474,-0.298,-16.157415599999997,207.1816128,27.444688199999998,-3.46066632,38.0444112,39.33929628
3.2199999999999998,322,1.205,0.7,-0.496,1.0313244,197.097552,36.2109456,-3.2314831199999987,40.01538672,39.72890772
3.23,323,1.41,0.873,-0.672,13.6364004,160.2563526,43.4302164,-2.7788463,41.61966912000001,40.23884034
3.2399999999999998,324,1.4380000000000002,1.041,-0.787,39.9924684,115.5083328,54.20182679999999,-1.91367972,42.78850344,40.94357868
3.25,325,1.203,1.015,-0.606,68.2392978,87.37609499999998,64.28588760000001,-0.64744254,43.67658834,41.80301568
3.26,326,0.807,0.687,-0.465,93.2775624,97.8612264,70.24465079999999,0.97975818,44.650616940000006,42.81142176
3.27,327,0.391,0.269,-0.45,103.3043274,139.0569066,74.2553568,2.8361421,46.0085274,43.96879692
3.28,328,0.073,0.053,-0.402,110.0652318,168.9080184,73.51051140000001,4.86441342,47.63572812,45.25222284
3.29,329,-0.08900000000000001,-0.09,-0.305,108.2317662,186.9561954,64.9161414,6.9327918,49.41189792,46.57002624
3.3,330,-0.247,-0.13699999999999998,-0.236,107.0858502,196.6391856,53.0559108,9.00689976,51.25682267999999,47.88782964
3.31,331,-0.327,-0.037000000000000005,-0.07,113.0446134,217.2083778,39.9924684,11.18414016,53.30228274000001,49.22855136
3.32,332,-0.34,0.199,0.087,107.5442166,271.69668360000003,17.18874,13.372839720000002,55.88632332,50.62083930000001
3.33,333,0.262,0.728,0.257,97.689339,351.9108036,-24.5798982,15.452677260000002,59.30688258,51.96156102
3.34,334,1.892,1.352,-0.333,59.7022236,391.043835,-129.0874374,15.83655912,63.35769564,51.77821446
3.3499999999999996,335,2.795,2.659,-0.6829999999999999,9.6829902,339.2484318,-255.252789,12.52486188,67.21370298,48.08836494000001
3.36,336,3.996,2.346,-2.629,49.90464179999999,229.5269748,-318.2208732,6.09054354,69.96963095999999,40.69147716
3.3699999999999997,337,3.994,0.598,0.332,144.671895,111.84140159999998,-254.9090142,0.6073354799999999,71.24159771999999,33.34042602
3.38,338,3.269,0.093,1.186,124.7329566,237.204612,-170.2258218,-3.48358464,73.5678072,27.74835594
3.3899999999999997,339,2.603,1.027,-1.108,61.87946400000001,158.93854919999995,-142.09358400000005,-8.325079740000001,75.0002022,22.09326048
3.4,340,2.364,1.208,-0.586,149.4274464,91.7878716,-132.353298,-12.36443364,75.67629264,16.36941006
3.4099999999999997,341,2.467,0.7879999999999999,-0.041,168.10587719999995,110.40900659999998,-112.299768,-16.071471900000002,76.48989300000002,10.80598788
3.42,342,2.511,0.88,0.424,69.21332640000001,124.5610692,-87.0323202,-20.488978080000006,77.40662579999999,5.56915176
3.4299999999999997,343,2.248,0.716,0.509,55.6342218,108.3463578,-61.9940556,-24.36790374,78.1801191,1.03705398
3.44,344,2.152,0.506,0.344,17.8762896,108.8047242,-41.6540466,-28.28120688000001,78.97653072,-3.11689152
3.4499999999999997,345,2.24,0.375,0.454,5.72958,119.97740520000002,-22.1161788,-32.32629036,79.91045226,-7.2765666
3.46,346,2.085,0.191,0.359,-4.0680017999999984,98.835255,-7.6203414,-35.82133416,80.68967513999998,-10.76588082
3.4699999999999998,347,1.649,0.051,0.332,-0.22918320000000006,72.479187,4.6982556,-38.2162986,81.30274019999997,-13.178034
3.48,348,1.067,0.116,0.217,-4.6409598,60.2178858,12.261301199999998,-40.08414168,81.85277988,-15.011499600000002
3.4899999999999998,349,0.769,0.113,0.111,-10.026765,47.8992888,18.5638392,-41.32173096,82.33979418,-16.15168602
3.5,350,0.5539999999999999,0.042,0.096,-8.651665800000002,45.83664,24.7517856,-42.29575956,82.85545637999998,-17.039770920000002
3.51,351,0.299,0.225,0.217,-16.386598799999998,48.1857678,22.4026578,-43.70523624,83.36538900000002,-18.28308978
3.52,352,0.363,0.302,0.275,-14.7250206,51.68081160000001,15.2979786,-46.0085274,83.84094414,-20.44314144
3.53,353,0.415,0.301,0.215,-14.32395,55.290447,14.32395,-48.99936816,84.32795844,-23.29647228
3.54,354,0.359,0.265,0.162,-14.037471,60.332477399999995,17.475219,-52.7407839,84.84935021999998,-26.9003781
3.55,355,0.398,0.37,0.126,-8.250595200000001,62.3951262,16.673077799999998,-57.74843682000001,85.33636451999998,-31.839276060000003
3.56,356,0.528,0.363,0.14,3.4377480000000005,61.592985,16.8449652,-63.40926186,85.8004605,-37.54020816
3.57,357,0.634,0.35600000000000004,0.078,5.844171599999999,59.64492779999999,15.2406828,-70.16443668000001,86.18434235999996,-44.35840836
3.58,358,0.727,0.391,0.092,4.9847345999999995,54.25912260000001,13.178034,-77.53267656,86.47655094000002,-51.78967362
3.59,359,0.8909999999999999,0.365,0.141,11.0580894,51.4516284,15.985528200000001,-85.49106318,86.72292288,-59.86838142000001
3.5999999999999996,360,0.981,0.37,0.17600000000000002,16.673077799999998,51.7954032,21.3713334,-94.81881942,86.92345818,-69.37375464
3.61,361,1.077,0.35100000000000003,0.213,17.475219,53.285094,27.215505,-105.61334814,87.11253432000002,-80.35162992
3.6199999999999997,362,1.112,0.262,0.195,17.475219,48.0711762,34.091001,-117.10688562,87.26723297999996,-92.03424354
3.63,363,1.187,0.259,0.166,12.0894138,45.0344988,36.03905820000001,-129.21348816,87.33025836,-104.26689684
3.6399999999999997,364,1.238,0.214,0.097,10.7716104,36.6120162,36.03905820000001,-140.20855218,87.33598794000002,-115.38228204000002
3.65,365,1.224,0.068,0.14400000000000002,15.183387000000002,30.7678446,40.90920120000001,-151.10621334,87.31306962,-126.44037144
3.6599999999999997,366,1.278,0.041,0.163,8.7662574,25.2674478,41.3102718,-161.20746288,87.25577381999999,-136.63902384
3.67,367,1.26,0.029,0.155,5.2139178,17.18874,43.831287,-170.81596854,87.19274844,-146.31055488
3.6799999999999997,368,1.211,0.018000000000000002,0.14,3.151269,10.1413566,47.0398518,179.58222594,87.12972306,-155.95343802
3.69,369,1.183,0.006,0.07400000000000001,0.6302538000000001,4.297185,49.5035712,169.99090902,87.04377936,-165.56194368
3.6999999999999997,370,1.151,-0.028,0.076,1.2032118,-0.4010706,47.3836266,161.31632489999996,86.92918776,-174.2651757
3.71,371,1.127,-0.029,0.104,4.010706000000001,-2.9793816000000004,39.7059894,154.46947680000005,86.80886658,178.83165096
3.7199999999999998,372,1.12,-0.025,0.129,9.224623800000002,-3.9534102,31.4553942,149.3987985,86.70000456,173.65784022
3.73,373,1.078,-0.003,0.112,11.917526400000002,-5.9014674000000005,25.6685184,145.34225586,86.60833127999999,169.46951724000004
3.7399999999999998,374,1.036,0.006,0.092,14.266654199999998,-5.3285094000000015,21.485925,142.13369106,86.52811716,166.11198336
3.75,375,0.996,0.031,0.076,15.126091199999998,-1.3750992,18.334656,140.11687890000002,86.43071429999998,163.93474296
3.76,376,0.986,0.036000000000000004,0.055,17.246035799999998,2.4064236,17.475219,138.48394860000002,86.29893396,162.12419568
3.77,377,0.946,0.012,0.044,18.2773602,6.016058999999999,17.6471064,137.31511428000002,86.13850572,160.76628522
3.78,378,0.933,0.004,0.05,15.870936600000002,11.229976800000001,17.3606274,136.74215628,85.93797042,160.03289898
3.79,379,0.9,-0.01,0.033,14.7823164,14.7823164,16.558486199999994,136.61037593999998,85.7145168,159.74641997999996
3.8,380,0.924,-0.012,0.052000000000000005,16.386598799999998,15.0114996,16.272007199999994,136.63902384,85.49679276,159.61463964
3.81,381,0.929,-0.004,0.08,17.303331600000003,13.6936962,17.475219,136.39838148,85.27906872,159.19638030000004
3.82,382,0.963,-0.01,0.09,17.0168526,13.521808800000002,19.1367972,136.03741794,85.04415594,158.65779978
3.83,383,0.989,-0.032,0.095,14.7250206,12.032117999999999,20.2827132,135.48164868,84.82070232,157.95879101999995
3.84,384,1.011,-0.052000000000000005,0.102,11.8602306,10.5424272,19.2513888,134.92014984,84.60870786,157.27124142
3.8499999999999996,385,1.003,-0.062,0.094,10.026765,7.161975,17.761698000000006,134.28416646,84.43109088,156.5321256
3.86,386,1.01,-0.069,0.086,8.7089616,2.0053530000000004,15.3552744,133.45337736000002,84.30504012,155.60393364
3.8699999999999997,387,1.018,-0.075,0.097,5.9014674000000005,-1.145916,13.6936962,132.51372624,84.21909642,154.60125714
3.88,388,1.02,-0.084,0.081,1.4896908000000002,-3.2658606,12.032117999999999,131.51104974,84.15034145999998,153.57566232
3.8899999999999997,389,1.018,-0.096,0.068,-2.578311,-4.583664,9.3965112,130.55993945999998,84.11023440000002,152.64174078
3.9,390,1.009,-0.087,0.058,-6.990087599999999,-5.2712136,6.130650599999999,129.67185456,84.10450482,151.82241084
3.9099999999999997,391,0.999,-0.075,0.045,-9.740286,-5.3858052,2.5210152000000003,129.01295285999998,84.12169356000003,151.26091200000005
3.92,392,0.987,-0.067,0.036000000000000004,-11.4018642,-4.6982556,0.057295800000000015,128.52593856,84.15034145999998,150.8884893
3.9299999999999997,393,0.981,-0.058,0.03,-12.605076,-3.3231564,-1.7188740000000002,128.23945956,84.18471894,150.72806106
3.94,394,0.971,-0.046,0.016,-12.891555,-0.9167328,-3.151269,128.21081166,84.21909642,150.83119349999996
3.9499999999999997,395,0.964,-0.036000000000000004,0.006,-12.2040054,2.9220857999999996,-4.583664,128.50302024,84.26493306,151.25518242
3.96,396,0.963,-0.034,0.006,-11.229976800000001,7.333862400000001,-5.7868758000000025,129.28797269999998,84.25920348,152.15472648
3.9699999999999998,397,0.962,-0.023,0.02,-10.4278356,11.45916,-7.161975,130.4625366,84.24201474,153.44961156
3.98,398,0.968,-0.017,0.028,-9.3392154,15.2406828,-7.9641161999999985,131.96368656,84.1961781,155.05389396
3.9899999999999998,399,0.973,-0.011,0.036000000000000004,-8.307891,18.162768600000003,-8.3651868,133.67683098,84.13315272,156.86444124
4.0,400,0.973,-0.012,0.042,-7.5630456000000015,20.511896399999998,-8.193299399999999,135.55040364,84.05866818,158.8239576
4.01,401,0.969,-0.008,0.047,-7.0473834,22.4026578,-7.7922288,137.41824672,83.94980616,160.77774438
4.02,402,0.972,-0.006,0.053,-6.4744254,23.7204612,-7.161975,139.25171232,83.81802582,162.69715368
4.03,403,0.98,-0.006,0.065,-5.958763200000001,24.5226024,-6.302537999999998,140.99350464,83.66905674,164.50770096
4.04,404,0.989,-0.009000000000000001,0.078,-5.2139178,24.8090814,-5.7868758000000025,142.63789409999995,83.5086285,166.22084538
4.05,405,0.999,-0.01,0.099,-4.583664,25.0382646,-5.6149884000000005,144.30520188,83.34247067999998,167.95117854
4.06,406,1.005,-0.009000000000000001,0.11,-3.8961144,25.2674478,-5.5576926,145.80635184,83.16485370000002,169.50389472
4.07,407,1.009,-0.006999999999999999,0.121,-3.3231564,25.553926800000006,-5.443101,147.23301726,82.98150714,170.98212636
4.08,408,1.019,-0.006,0.131,-2.86479,25.1528562,-4.8701430000000006,148.53936149999996,82.79243100000002,172.33430724
4.09,409,1.019,-0.001,0.141,-2.2345362,24.2934192,-4.3544808,149.71965498,82.60908443999998,173.5489782
4.1,410,1.016,0.0,0.147,-1.3178034,23.6631654,-3.4377480000000005,150.93432594,82.42573788,174.78656748
4.109999999999999,411,1.016,0.001,0.154,-0.6302538000000001,22.91832,-2.3491278,151.84532915999995,82.23093216,175.71475944
4.12,412,1.02,-0.003,0.166,0.0,21.1421502,-1.6042823999999998,152.61309288,82.05331518,176.49398232
4.13,413,1.028,-0.003,0.18,0.572958,17.6471064,-1.2032118,153.23188752000004,81.89861652,177.11277696
4.14,414,1.028,-0.003,0.18,1.3178034,13.6936962,-0.8021411999999999,153.69598349999995,81.77829534,177.57114336
4.1499999999999995,415,1.02,-0.002,0.18,1.9480572,11.4018642,-0.4583664000000001,154.36061478,81.68089248,178.21858590000005
4.16,416,1.019,-0.008,0.181,2.1199446,10.599723,-0.22918320000000006,154.68720084,81.58348962,178.52798321999995
4.17,417,1.018,-0.008,0.184,2.1199446,9.167328,0.0,154.95649110000005,81.5032755,178.78008474
4.18,418,1.025,0.0,0.196,2.7501984,6.8182002000000015,0.11459160000000003,155.1570264,81.44025012,178.95197214
4.1899999999999995,419,1.034,0.0,0.201,4.7555514,4.4690724,0.7448454000000001,155.27734758,81.39441348,179.02645668
4.2,420,1.041,-0.015,0.195,5.0993262,1.3750992,1.432395,155.66122944,81.37149516,179.35877232
4.21,421,1.039,-0.015,0.187,3.5523396000000003,-0.6875496,1.6042823999999998,155.5867449,81.37149516,179.24418071999997
4.22,422,1.032,-0.009000000000000001,0.17800000000000002,2.8074942000000003,-2.5210152000000003,1.7188740000000002,155.44923498,81.38295432,179.0780229
4.2299999999999995,423,1.024,-0.006,0.172,2.9220857999999996,-4.010706000000001,2.4064236,155.23724052,81.41160221999998,178.83165096
4.24,424,1.013,-0.009000000000000001,0.16399999999999998,2.6929026,-4.8701430000000006,2.9793816000000004,154.95649110000005,81.44025012,178.52225364
4.25,425,1.008,-0.012,0.159,2.291832,-5.7868758000000025,3.2085648,154.89919530000003,81.49181634,178.43058036
4.26,426,1.008,-0.016,0.159,1.8907613999999997,-6.703608600000001,3.0939732,154.54969092000005,81.53765297999998,178.05815766
4.27,427,1.01,-0.019,0.161,1.2032118,-8.193299399999999,2.86479,154.16580906,81.60067836,177.65708706
4.28,428,1.006,-0.019,0.155,0.11459160000000003,-9.740286,2.578311,153.74182014,81.68089248,177.22163898000005
4.29,429,1.0,-0.019,0.14300000000000002,-0.4583664000000001,-10.7716104,2.2345362,153.28918332,81.76683618000001,176.77473174000005
4.3,430,0.999,-0.021,0.133,-0.9167328,-10.8289062,1.8907613999999997,153.02562264,81.86996862,176.51117105999995
4.31,431,0.999,-0.021,0.126,-1.3750992,-10.313244,1.5469866,152.60163372,81.95591232000002,176.09864130000003
4.32,432,0.997,-0.021,0.121,-1.432395,-9.969469199999999,0.9740286,152.21775186,82.04185602,175.72048902
4.33,433,0.992,-0.019,0.117,-1.145916,-9.9121734,0.572958,151.85105874,82.12779972,175.36525506
4.34,434,0.992,-0.02,0.116,-0.9740286,-9.740286,0.286479,151.50728394,82.21374342,175.02148026
4.35,435,0.993,-0.016,0.118,-0.7448454000000001,-9.453807000000001,-0.057295800000000015,151.46144729999997,82.32260544,174.98137319999995
4.36,436,0.994,-0.02,0.12,-0.4010706,-8.880849000000003,-0.286479,151.17496830000005,82.40281956,174.6948942
4.37,437,0.994,-0.02,0.119,-0.5156622000000001,-8.8235532,-0.572958,150.90567804,82.48303368,174.43133352
4.38,438,0.998,-0.02,0.121,-1.145916,-8.7662574,-0.7448454000000001,150.64211736,82.5632478,174.16777284
4.39,439,1.001,-0.02,0.118,-1.3750992,-8.193299399999999,-0.8021411999999999,150.39001584,82.64346192,173.93286006
4.3999999999999995,440,0.998,-0.019,0.111,-1.3750992,-6.9327918,-0.9740286,150.4587708,82.74086478000002,174.0073446
4.41,441,0.994,-0.016,0.105,-1.0886202,-5.6722842,-1.2032118,150.32126088,82.79243100000002,173.88129383999996
4.42,442,0.991,-0.012,0.099,-0.4010706,-4.4690724,-1.0313244,150.22385802000005,82.83826764,173.78962056
4.43,443,0.991,-0.013,0.1,0.3437748,-3.3231564,-0.8594370000000001,150.16656222,82.87264512,173.72659518
4.4399999999999995,444,0.995,-0.014,0.104,0.8021411999999999,-2.3491278,-0.7448454000000001,150.13791432,82.89556344,173.68648811999995
4.45,445,0.997,-0.015,0.109,1.2605076000000002,-1.6615782,-0.8021411999999999,150.87130056,82.98723672,174.40841519999995
4.46,446,0.999,-0.014,0.11,1.2605076000000002,-1.3178034,-0.8021411999999999,150.89421887999995,83.00442546000002,174.41987436
4.47,447,0.999,-0.014,0.111,1.4896908000000002,-0.7448454000000001,-0.7448454000000001,150.94005552000004,83.01588462000002,174.44852226
4.4799999999999995,448,1.0,-0.014,0.113,1.7188740000000002,-0.4010706,-0.6302538000000001,150.99162174,83.0216142,174.48289974
4.49,449,1.0,-0.014,0.113,1.7761698,-0.057295800000000015,-0.4583664000000001,151.04318796,83.02734378,174.51154763999997
4.5,450,1.001,-0.015,0.113,1.6615782,0.4010706,-0.4010706,152.13180816,83.11328748,175.58870868000002
4.51,451,0.998,-0.015,0.111,1.3178034,0.6875496,-0.4010706,152.20629269999995,83.1075579,175.64600448
4.52,452,0.996,-0.014,0.11,0.9740286,0.8021411999999999,-0.22918320000000006,152.2635885,83.10182832,175.6975707
4.53,453,0.994,-0.014,0.108,0.8594370000000001,0.8021411999999999,-0.22918320000000006,152.32661388,83.09609874,175.74913692
4.54,454,0.995,-0.013,0.108,0.9740286,0.9167328,-0.1718874,152.38390968000004,83.09036916,175.79497356
4.55,455,0.996,-0.014,0.111,1.0886202,1.2032118,-0.057295800000000015,153.51263694,83.16485370000002,176.91224166
4.56,456,0.997,-0.013,0.113,0.9740286,1.5469866,-0.11459160000000003,153.58712148,83.15339454,176.98099661999996
4.57,457,1.0,-0.014,0.118,0.9167328,1.7761698,0.11459160000000003,153.65014686,83.1362058,177.03256284
4.58,458,1.004,-0.014,0.119,0.9167328,2.0626488000000003,0.286479,153.70744266000003,83.11328748,177.08412906
4.59,459,1.005,-0.016,0.119,0.6875496,2.4064236,0.4583664000000001,153.76473846,83.09036916,177.1299657
4.6,460,1.003,-0.015,0.118,0.286479,2.578311,0.572958,154.53823176,83.11901706,177.89772942
4.61,461,0.999,-0.013,0.114,0.286479,2.8074942000000003,0.6302538000000001,154.5840684,83.09036916,177.94356606
4.62,462,0.997,-0.013,0.111,0.4583664000000001,2.7501984,0.8021411999999999,154.62417546,83.06172126,177.97794354
4.63,463,0.995,-0.012,0.115,0.9167328,2.86479,1.145916,154.6413642,83.03307336,177.98367312
4.64,464,0.994,-0.015,0.115,1.5469866,3.2658606,1.2032118,154.6700121,82.99296629999998,178.00086186
4.6499999999999995,465,0.992,-0.017,0.112,1.7188740000000002,3.9534102,1.2032118,155.04243480000005,82.98150714,178.35609582
4.66,466,0.99,-0.015,0.109,1.9480572,4.6409598,1.2032118,155.12264892000005,82.9356705,178.41339162
4.67,467,0.99,-0.016,0.112,2.3491278,5.2139178,1.3178034,155.21432219999997,82.88410428,178.48787615999996
4.68,468,0.996,-0.019,0.12,2.4637194,5.6722842,1.4896908000000002,155.31172506,82.82680848,178.55663112
4.6899999999999995,469,1.001,-0.022,0.127,2.4637194,5.6149884000000005,1.6042823999999998,155.39193917999995,82.76378309999998,178.61392691999995
4.7,470,1.001,-0.024,0.131,2.2345362,5.72958,1.5469866,155.70706607999998,82.71794646,178.9061355
4.71,471,0.997,-0.025,0.131,1.4896908000000002,5.7868758000000025,1.3750992,155.79300977999995,82.66065066,178.98062004000005
4.72,472,0.997,-0.024,0.128,1.0886202,5.6149884000000005,1.2032118,155.89041264,82.60335486,179.06656374
4.7299999999999995,473,0.997,-0.021,0.123,1.145916,5.5576926,0.8594370000000001,155.99927466,82.54605906,179.1639666
4.74,474,0.998,-0.02,0.123,1.3178034,5.958763200000001,0.6875496,156.13678458,82.48876326,179.29001736
4.75,475,0.998,-0.02,0.123,1.3750992,6.589017,0.6302538000000001,156.51493686,82.4486562,179.65671048000004
4.76,476,0.999,-0.02,0.127,1.2605076000000002,6.760904399999999,0.5156622000000001,156.68109468,82.37990124000002,179.81140914
4.77,477,1.001,-0.018000000000000002,0.132,1.432395,6.990087599999999,0.5156622000000001,156.8472525,82.31687586000002,179.96610780000003
4.78,478,1.0,-0.019,0.132,1.7188740000000002,7.0473834,0.5156622000000001,157.0191399,82.2481209,-179.87443452
4.79,479,1.002,-0.02,0.135,1.6615782,7.161975,0.4010706,157.19675688,82.17936594,-179.71400627999995
4.8,480,1.004,-0.02,0.14,1.6615782,7.161975,0.4583664000000001,157.60355706,82.12207014,-179.32439484
4.81,481,1.004,-0.02,0.14300000000000002,1.7761698,6.990087599999999,0.3437748,157.77544446,82.05904475999998,-179.1639666
4.82,482,1.003,-0.021,0.145,1.7188740000000002,6.703608600000001,0.286479,157.9358727,81.9902898,-179.01499752
4.83,483,1.002,-0.021,0.147,1.6042823999999998,6.130650599999999,0.3437748,158.0791122,81.93299400000002,-178.88894676
4.84,484,1.002,-0.022,0.147,1.5469866,5.72958,0.4010706,158.20516296,81.88142778,-178.77435516
4.85,485,1.001,-0.022,0.147,1.5469866,5.7868758000000025,0.5156622000000001,158.57758566,81.83559113999998,-178.41912119999995
4.86,486,0.999,-0.021,0.146,1.6042823999999998,5.6149884000000005,0.4583664000000001,158.69217726,81.78402492,-178.32171834000005
4.87,487,0.996,-0.021,0.147,1.7761698,5.2712136,0.572958,158.79530970000005,81.73245870000002,-178.23577464
4.88,488,0.997,-0.021,0.147,1.9480572,4.6982556,0.6302538000000001,158.8812534,81.68662206,-178.16701968
4.89,489,0.997,-0.021,0.147,2.0626488000000003,4.297185,0.572958,158.9671971,81.64078542,-178.1039943
4.8999999999999995,490,0.999,-0.022,0.146,2.3491278,3.9534102,0.4583664000000001,159.33389022,81.62359668,-177.7602195
4.91,491,0.995,-0.021,0.145,2.86479,3.7815227999999994,0.3437748,159.4255635,81.58348962,-177.69719412
4.92,492,0.993,-0.02,0.14400000000000002,3.0939732,3.9534102,0.3437748,159.52296636,81.54911214,-177.62843916
4.93,493,0.996,-0.022,0.149,2.9793816000000004,3.8388186,0.4010706,159.60891006,81.50900508000002,-177.57114336
4.9399999999999995,494,1.0,-0.025,0.156,2.9793816000000004,3.2658606,0.5156622000000001,159.67766502,81.47462759999998,-177.53676588000005
4.95,495,1.005,-0.026,0.161,2.8074942000000003,2.6356068,0.4583664000000001,160.05581730000003,81.45743886,-177.18153192
4.96,496,1.008,-0.029,0.166,2.5210152000000003,2.0053530000000004,0.3437748,160.10165394,81.43452054,-177.16434318
4.97,497,1.01,-0.028,0.166,1.7761698,1.8334656000000005,0.0,160.15894974,81.4173318,-177.12423612
4.9799999999999995,498,1.006,-0.024,0.16,1.3750992,1.5469866,-0.1718874,160.21624554,81.40014306,-177.08412906
4.99,499,0.999,-0.022,0.155,1.432395,1.0886202,-0.057295800000000015,160.25635259999999,81.39441348,-177.05548116
5.0,500,0.99,-0.021,0.147,1.4896908000000002,0.9167328,0.057295800000000015,160.88660639999995,81.43452054,-176.44241609999997
5.01,501,0.986,-0.019,0.141,1.7761698,0.9167328,0.286479,160.90379514,81.42306138000002,-176.44241609999997
5.02,502,0.987,-0.019,0.14,2.3491278,1.3178034,0.5156622000000001,160.92098388,81.41160221999998,-176.44814567999995
5.03,503,0.991,-0.02,0.14300000000000002,2.7501984,2.0626488000000003,0.9740286,160.93244304,81.3886839,-176.46533442
5.04,504,0.997,-0.022,0.14800000000000002,2.9220857999999996,2.578311,1.0886202,160.9439022,81.360036,-176.48252316
5.05,505,1.0,-0.025,0.154,3.0366774,2.8074942000000003,1.0886202,161.17881498,81.33711767999998,-176.28771744
5.06,506,0.999,-0.027000000000000003,0.157,2.9793816000000004,2.578311,0.9167328,161.2017333,81.30846978000002,-176.28771744
5.07,507,0.998,-0.029,0.159,2.6929026,2.291832,0.8021411999999999,161.22465161999997,81.28555146,-176.29344701999997
5.08,508,0.995,-0.026,0.154,2.291832,2.291832,0.7448454000000001,161.24756994,81.26263314,-176.29917659999995
5.09,509,0.992,-0.026,0.153,2.1199446,2.5210152000000003,0.7448454000000001,161.27048826,81.23398524000002,-176.29344701999997
5.1,510,0.992,-0.024,0.151,2.1199446,2.3491278,0.7448454000000001,161.56842642,81.23398524000002,-176.01842718
5.11,511,0.997,-0.024,0.154,2.4637194,2.0053530000000004,0.6875496,161.59134474,81.21106692,-176.02415676
5.12,512,0.998,-0.026,0.157,2.6356068,1.6042823999999998,0.6302538000000001,161.60853348,81.19387818,-176.02988634
5.13,513,0.999,-0.028,0.159,2.4637194,1.4896908000000002,0.572958,161.62572222,81.17668943999998,-176.03561592
5.14,514,1.0,-0.027000000000000003,0.159,2.1772404,1.432395,0.572958,161.64291096,81.1595007,-176.04707507999996
5.1499999999999995,515,0.997,-0.027000000000000003,0.161,1.9480572,0.9740286,0.4010706,162.08981819999997,81.16523028,-175.61735658
5.16,516,0.996,-0.026,0.16399999999999998,1.9480572,0.3437748,0.3437748,162.09554778,81.1595007,-175.62881574
5.17,517,0.998,-0.028,0.163,1.8334656000000005,-0.1718874,0.1718874,162.10127736,81.16523028,-175.64600448
5.18,518,1.001,-0.028,0.163,1.5469866,-0.6875496,0.057295800000000015,162.10127736,81.17095986,-175.66319321999995
5.1899999999999995,519,1.003,-0.028,0.161,1.4896908000000002,-1.0886202,-0.1718874,162.10700694,81.18241902,-175.66892280000005
5.2,520,1.0,-0.029,0.162,1.3178034,-1.4896908000000002,-0.4010706,162.47942964,81.20533734,-175.31941842
5.21,521,0.999,-0.029,0.162,0.9740286,-2.0626488000000003,-0.6302538000000001,162.4908888,81.22825566,-175.31368884
5.22,522,0.998,-0.027000000000000003,0.161,0.5156622000000001,-2.5210152000000003,-0.6875496,162.49661838,81.25690356,-175.31368884
5.2299999999999995,523,0.995,-0.027000000000000003,0.159,0.286479,-2.86479,-0.7448454000000001,162.49661838,81.28555146,-175.31941842
5.24,524,0.99,-0.025,0.157,0.11459160000000003,-3.0366774,-0.6875496,162.4908888,81.31419936,-175.32514799999996
5.25,525,0.989,-0.026,0.154,-0.057295800000000015,-2.9220857999999996,-0.4010706,162.84612276,81.36576558,-174.97564362
5.26,526,0.988,-0.026,0.149,-0.5156622000000001,-2.3491278,-0.11459160000000003,162.8060157,81.3886839,-175.01002110000005
5.27,527,0.99,-0.026,0.14800000000000002,-0.7448454000000001,-2.1199446,0.0,162.76017905999996,81.41160221999998,-175.05012816
5.28,528,0.992,-0.025,0.15,-0.9740286,-2.3491278,0.0,162.70288326,81.43452054,-175.09596480000005
5.29,529,0.993,-0.026,0.151,-0.8594370000000001,-2.3491278,0.1718874,162.63985788,81.45170928,-175.14753102
5.3,530,0.99,-0.027000000000000003,0.145,-0.6302538000000001,-1.7188740000000002,0.1718874,163.10395386,81.53192340000003,-174.68343504
5.31,531,0.989,-0.026,0.141,-0.572958,-0.7448454000000001,-0.057295800000000015,163.08676512,81.53765297999998,-174.6948942
5.32,532,0.988,-0.026,0.14,-0.4010706,-0.057295800000000015,-0.11459160000000003,163.08676512,81.53765297999998,-174.68916462
5.33,533,0.991,-0.028,0.145,-0.1718874,0.0,-0.1718874,163.09822428,81.54338256,-174.67770546
5.34,534,0.996,-0.03,0.151,-0.22918320000000006,0.0,-0.286479,163.12114259999996,81.54338256,-174.65478714
5.35,535,0.999,-0.027000000000000003,0.152,0.11459160000000003,-0.11459160000000003,-0.4583664000000001,164.11808951999996,81.58348962,-173.66356979999995
5.36,536,0.997,-0.03,0.155,0.22918320000000006,0.0,-0.6302538000000001,164.16392616000005,81.58348962,-173.61773316
5.37,537,0.995,-0.03,0.152,0.0,0.057295800000000015,-0.7448454000000001,164.2097628,81.58348962,-173.56616694
5.38,538,0.993,-0.028,0.147,-0.286479,0.3437748,-0.9167328,164.27278818,81.58348962,-173.50314156
5.39,539,0.991,-0.026,0.142,-0.1718874,0.7448454000000001,-1.0313244,164.35873188,81.57776004,-173.41719786
5.3999999999999995,540,0.991,-0.025,0.14300000000000002,0.22918320000000006,1.2605076000000002,-1.145916,164.78845038,81.60067836,-172.99320894
5.41,541,0.993,-0.025,0.145,0.6302538000000001,1.7761698,-1.2605076000000002,164.90304197999995,81.5892192,-172.87861733999995
5.42,542,0.994,-0.024,0.15,0.8594370000000001,2.2345362,-1.2605076000000002,165.02909274,81.57203046,-172.75829616
5.43,543,0.996,-0.023,0.152,0.8594370000000001,2.1772404,-1.145916,165.14941392,81.55484172,-172.64943413999995
5.4399999999999995,544,0.996,-0.025,0.155,0.8594370000000001,2.0053530000000004,-0.9740286,165.25254636,81.53765297999998,-172.55203128
5.45,545,0.996,-0.025,0.155,0.9167328,1.9480572,-0.8594370000000001,165.64215780000004,81.53192340000003,-172.173879
5.46,546,0.997,-0.024,0.157,0.8594370000000001,2.0626488000000003,-0.6875496,165.72810149999995,81.50900508000002,-172.09366488
5.47,547,0.999,-0.024,0.157,0.9740286,2.291832,-0.572958,165.80831562,81.49181634,-172.02490992
5.4799999999999995,548,1.0,-0.026,0.158,0.8594370000000001,2.6356068,-0.4010706,165.88280016000004,81.46316844,-171.95615496
5.49,549,1.0,-0.026,0.16,0.8594370000000001,2.5210152000000003,-0.3437748,165.95155512,81.44025012,-171.89885915999997
5.5,550,1.0,-0.025,0.162,0.7448454000000001,2.2345362,-0.4010706,166.29532992,81.42306138000002,-171.56081394
5.51,551,1.001,-0.027000000000000003,0.162,0.572958,1.7761698,-0.4010706,166.35262572,81.40587264,-171.50924772000005
5.52,552,1.0,-0.026,0.16399999999999998,0.4010706,1.2032118,-0.4583664000000001,166.40992152,81.39441348,-171.4576815
5.53,553,1.0,-0.026,0.16399999999999998,0.3437748,0.7448454000000001,-0.5156622000000001,166.45575816000004,81.3886839,-171.41184486000003
5.54,554,1.002,-0.027000000000000003,0.161,0.22918320000000006,0.1718874,-0.6875496,166.50732438,81.3886839,-171.36600822
5.55,555,1.001,-0.027000000000000003,0.162,0.4583664000000001,-0.22918320000000006,-0.8021411999999999,166.99433868,81.39441348,-170.8847235
5.56,556,1.0,-0.025,0.163,0.5156622000000001,-0.4583664000000001,-0.8594370000000001,167.0459049,81.40014306,-170.83315728
5.57,557,1.0,-0.027000000000000003,0.162,0.5156622000000001,-0.6302538000000001,-0.7448454000000001,167.09747112,81.41160221999998,-170.79305022
5.58,558,1.0,-0.027000000000000003,0.161,0.286479,-0.9740286,-0.7448454000000001,167.13757818,81.4173318,-170.75294316
5.59,559,1.0,-0.027000000000000003,0.161,0.286479,-1.4896908000000002,-0.8594370000000001,167.17195566,81.43452054,-170.71856568
5.6,560,0.999,-0.026,0.162,0.286479,-1.9480572,-0.9740286,167.42405718,81.45743886,-170.47219374000005
5.61,561,0.999,-0.027000000000000003,0.162,0.286479,-2.5210152000000003,-1.0313244,167.46416424,81.48608676,-170.43781626
5.62,562,0.999,-0.027000000000000003,0.161,0.0,-2.9793816000000004,-1.0886202,167.50427130000003,81.51473466,-170.39770919999995
5.63,563,1.001,-0.028,0.159,-0.22918320000000006,-3.151269,-1.145916,167.53864878,81.54911214,-170.35760213999995
5.64,564,1.001,-0.026,0.159,-0.4010706,-3.3804522000000006,-1.2032118,167.57302626,81.58348962,-170.32322466
5.6499999999999995,565,1.001,-0.025,0.157,-0.572958,-3.5523396000000003,-1.3178034,167.74491366,81.62359668,-170.14560768
5.66,566,0.999,-0.024,0.154,-0.5156622000000001,-3.724227,-1.2605076000000002,167.77929114,81.66370374,-170.10550062
5.67,567,0.996,-0.023,0.15,-0.6302538000000001,-3.666931200000001,-1.2605076000000002,167.81366862,81.7038108,-170.06539356
5.68,568,0.995,-0.022,0.14800000000000002,-0.4583664000000001,-3.4950437999999995,-1.145916,167.84231652,81.73818828,-170.03101608
5.6899999999999995,569,0.994,-0.024,0.145,-0.3437748,-3.0939732,-1.0886202,167.876694,81.77256575999998,-169.99090902
5.7,570,0.996,-0.024,0.146,-0.22918320000000006,-2.8074942000000003,-0.9740286,168.0772293,81.81840240000002,-169.78464414
5.71,571,0.996,-0.025,0.149,-0.286479,-2.6929026,-1.0313244,168.11733636,81.8470503,-169.74453708
5.72,572,0.998,-0.024,0.152,-0.1718874,-2.6929026,-1.0313244,168.15171384,81.8756982,-169.7101596
5.7299999999999995,573,0.999,-0.025,0.151,-0.4583664000000001,-2.6929026,-1.0886202,168.18609132,81.90434609999998,-169.66432296
5.74,574,0.998,-0.024,0.149,-0.6302538000000001,-2.8074942000000003,-1.145916,168.22619838,81.93299400000002,-169.62421590000002
5.75,575,0.997,-0.023,0.147,-0.7448454000000001,-2.6356068,-1.0886202,168.42673368,81.96737148,-169.41795101999998
5.76,576,0.997,-0.024,0.146,-0.7448454000000001,-2.5210152000000003,-1.0313244,168.46111116,81.99601937999998,-169.37211438
5.77,577,0.998,-0.023,0.14300000000000002,-0.8021411999999999,-2.1772404,-0.9167328,168.48975906,82.0189377,-169.33773689999995
5.78,578,0.994,-0.02,0.141,-0.572958,-1.8907613999999997,-0.9167328,168.52986612,82.03612644,-169.29190026
5.79,579,0.991,-0.021,0.139,-0.4010706,-1.6042823999999998,-0.8021411999999999,168.5642436,82.05904475999998,-169.25179319999995
5.8,580,0.992,-0.022,0.139,-0.22918320000000006,-1.4896908000000002,-0.6875496,168.89082966,82.09915182,-168.92520714
5.81,581,0.995,-0.022,0.141,-0.11459160000000003,-1.2032118,-0.572958,168.91374798,82.11061098,-168.89655924000004
5.82,582,0.997,-0.023,0.14400000000000002,-0.11459160000000003,-0.8594370000000001,-0.6302538000000001,168.94812545999997,82.12207014,-168.86218176
5.83,583,0.997,-0.024,0.145,-0.1718874,-0.8594370000000001,-0.6302538000000001,168.98250294,82.13352929999998,-168.8220747
5.84,584,0.996,-0.023,0.145,-0.4583664000000001,-0.9167328,-0.6875496,169.01688041999995,82.14498846000002,-168.78196764
5.85,585,0.997,-0.022,0.142,-0.4010706,-0.8021411999999999,-0.6302538000000001,169.40076228,82.17363636,-168.39808578
5.86,586,0.997,-0.023,0.142,-0.4010706,-0.5156622000000001,-0.7448454000000001,169.44659892,82.17936594,-168.35224914
5.87,587,0.996,-0.023,0.141,-0.286479,-0.1718874,-0.6302538000000001,169.48670597999995,82.18509551999998,-168.30641250000005
5.88,588,0.995,-0.022,0.142,-0.1718874,0.0,-0.6875496,169.53254262,82.18509551999998,-168.25484627999995
5.89,589,0.996,-0.022,0.14400000000000002,-0.22918320000000006,0.1718874,-0.6875496,169.58410884,82.18509551999998,-168.20328006
5.8999999999999995,590,0.995,-0.022,0.14400000000000002,-0.11459160000000003,0.1718874,-0.6875496,170.08258229999996,82.20801384,-167.70480659999996
5.91,591,0.996,-0.022,0.14300000000000002,-0.057295800000000015,0.22918320000000006,-0.6302538000000001,170.13414852,82.20801384,-167.65324038
5.92,592,0.997,-0.022,0.14300000000000002,-0.057295800000000015,0.22918320000000006,-0.6302538000000001,170.18571474,82.20801384,-167.60167416
5.93,593,0.999,-0.024,0.145,-0.057295800000000015,0.286479,-0.572958,170.23155137999996,82.20801384,-167.55010794
5.9399999999999995,594,0.997,-0.023,0.14400000000000002,-0.057295800000000015,0.22918320000000006,-0.6302538000000001,170.2831176,82.20228426,-167.49854172
5.95,595,0.998,-0.021,0.14400000000000002,0.057295800000000015,0.0,-0.6875496,170.78159105999995,82.219473,-167.00006825999995
5.96,596,1.0,-0.023,0.147,0.22918320000000006,0.11459160000000003,-0.572958,170.8274277,82.219473,-166.9599612
5.97,597,1.0,-0.023,0.147,0.3437748,0.286479,-0.5156622000000001,170.87326434,82.21374342,-166.91412456
5.9799999999999995,598,1.0,-0.023,0.146,0.3437748,0.572958,-0.6302538000000001,170.93056013999995,82.21374342,-166.86255834000005
5.99,599,0.997,-0.023,0.145,0.4010706,0.572958,-0.6875496,170.98785594,82.20801384,-166.80526254
6.0,600,0.997,-0.025,0.145,0.4010706,0.4583664000000001,-0.6875496,171.24568704,82.20801384,-166.55316102
6.01,601,0.998,-0.025,0.146,0.286479,0.11459160000000003,-0.8021411999999999,171.30871242,82.20801384,-166.49013564
6.02,602,1.0,-0.024,0.149,0.5156622000000001,0.0,-0.7448454000000001,171.3717378,82.21374342,-166.43283984
6.03,603,0.999,-0.027000000000000003,0.153,0.572958,-0.1718874,-0.8594370000000001,171.44049276,82.21374342,-166.37554404
6.04,604,0.997,-0.027000000000000003,0.153,0.057295800000000015,-0.4010706,-1.0313244,171.5149773,82.219473,-166.3010595
6.05,605,0.997,-0.026,0.147,-0.4583664000000001,-0.6875496,-1.2605076000000002,171.6868647,82.23093216,-166.12344252
6.06,606,0.997,-0.021,0.141,-0.5156622000000001,-0.9740286,-1.3178034,171.76707882,82.24239132,-166.03176924000005
6.07,607,0.997,-0.018000000000000002,0.141,-0.11459160000000003,-0.9740286,-1.2032118,171.84729294,82.25385048,-165.95155512
6.08,608,0.998,-0.019,0.14300000000000002,0.4583664000000001,-0.8021411999999999,-1.2032118,171.93896622,82.25958005999998,-165.86561142
6.09,609,0.999,-0.02,0.14400000000000002,0.6302538000000001,-0.8021411999999999,-1.0313244,172.01918034,82.27103922,-165.79112688
6.1,610,0.999,-0.019,0.145,0.6302538000000001,-0.7448454000000001,-0.9740286,172.28274102,82.28249838,-165.53902536
6.11,611,1.0,-0.019,0.146,0.572958,-0.8594370000000001,-0.7448454000000001,172.33430724,82.28822796,-165.48745914
6.12,612,1.0,-0.02,0.145,0.4583664000000001,-0.9740286,-0.5156622000000001,172.3744143,82.29968712,-165.45308166
6.13,613,0.999,-0.02,0.146,0.572958,-0.9740286,-0.4583664000000001,172.40879178,82.31114628,-165.42443376
6.14,614,1.001,-0.021,0.14400000000000002,0.5156622000000001,-1.0313244,-0.3437748,172.43171009999998,82.32260544,-165.40724502
6.15,615,1.0,-0.022,0.146,0.4583664000000001,-1.0886202,-0.4010706,172.60932708,82.32833502,-165.23535762
6.16,616,1.001,-0.021,0.146,0.286479,-0.9740286,-0.3437748,172.63797498,82.33979418,-165.21243930000003
6.17,617,1.0,-0.022,0.146,0.1718874,-1.0313244,-0.3437748,172.65516372,82.35125334,-165.19525056
6.18,618,1.003,-0.021,0.147,0.0,-1.4896908000000002,-0.286479,172.67235246,82.36844208,-165.17806181999995
6.1899999999999995,619,1.003,-0.02,0.14400000000000002,-0.057295800000000015,-1.9480572,-0.22918320000000006,172.67235246,82.38563081999997,-165.17806181999995
6.2,620,0.996,-0.022,0.136,0.11459160000000003,-2.3491278,-0.057295800000000015,172.71245951999995,82.42573788,-165.14368434
6.21,621,0.989,-0.024,0.132,0.3437748,-2.4064236,-0.1718874,172.71245951999995,82.4486562,-165.14368434
6.22,622,0.989,-0.023,0.132,0.4010706,-1.7188740000000002,-0.3437748,172.72964826,82.46584494,-165.13222518
6.2299999999999995,623,0.991,-0.021,0.132,0.4010706,-1.0886202,-0.3437748,172.75256658,82.4773041,-165.10930686
6.24,624,0.993,-0.02,0.13699999999999998,0.4583664000000001,-0.572958,-0.22918320000000006,172.7754849,82.48303368,-165.09211812
6.25,625,0.995,-0.02,0.141,0.6302538000000001,-0.22918320000000006,-0.1718874,173.19947382,82.49449283999998,-164.67958836
6.26,626,0.998,-0.02,0.14400000000000002,0.6875496,-0.11459160000000003,0.0,173.20520340000004,82.49449283999998,-164.67958836
6.27,627,1.003,-0.021,0.142,0.572958,0.22918320000000006,0.1718874,173.20520340000004,82.49449283999998,-164.69104752
6.28,628,1.005,-0.023,0.133,0.6302538000000001,0.572958,0.286479,173.19374424,82.48876326,-164.70823625999995
6.29,629,0.997,-0.021,0.128,1.145916,1.3178034,0.11459160000000003,173.20520340000004,82.4773041,-164.70823625999995
6.3,630,0.991,-0.021,0.122,1.7188740000000002,2.6929026,-0.11459160000000003,173.27395836,82.47157452,-164.65667004
6.31,631,0.991,-0.019,0.123,2.291832,3.7815227999999994,-0.057295800000000015,173.33125416,82.43146746,-164.62229256
6.32,632,0.991,-0.018000000000000002,0.124,2.7501984,4.6982556,0.0,173.39427954,82.38563081999997,-164.5821855
6.33,633,0.992,-0.02,0.131,3.2658606,5.3285094000000015,0.1718874,173.45157534,82.33406459999998,-164.55926718
6.34,634,0.991,-0.021,0.138,3.2085648,5.7868758000000025,0.4010706,173.4916824,82.2767688,-164.5535376
6.35,635,0.993,-0.023,0.14400000000000002,2.5210152000000003,6.016058999999999,0.6875496,173.51460072,82.21374342,-164.5535376
6.36,636,0.996,-0.027000000000000003,0.14800000000000002,1.7761698,5.7868758000000025,0.8594370000000001,173.50314156,82.15644762000002,-164.5821855
6.37,637,0.999,-0.028,0.151,1.145916,5.3285094000000015,0.7448454000000001,173.4916824,82.1048814,-164.60510382
6.38,638,0.996,-0.027000000000000003,0.153,0.6302538000000001,4.8701430000000006,0.6875496,173.48022324,82.05331518,-164.62229256
6.39,639,0.992,-0.027000000000000003,0.157,-0.057295800000000015,5.0993262,0.6302538000000001,173.4630345,82.00174896,-164.6394813
6.4,640,0.994,-0.027000000000000003,0.161,-0.8021411999999999,4.9274388,0.572958,173.45157534,81.94445316,-164.64521088
6.41,641,0.999,-0.027000000000000003,0.162,-1.6615782,3.9534102,0.6302538000000001,173.41146827999995,81.90434609999998,-164.66812919999995
6.42,642,1.002,-0.028,0.163,-2.3491278,2.5210152000000003,0.5156622000000001,173.36563164,81.88142778,-164.68531793999998
6.43,643,1.003,-0.026,0.161,-2.8074942000000003,1.3178034,0.4010706,173.31406542,81.86423904,-164.70823625999995
6.4399999999999995,644,1.004,-0.027000000000000003,0.157,-2.9793816000000004,1.2605076000000002,0.572958,173.24531045999996,81.85277988,-164.74834332
6.45,645,1.0,-0.026,0.14400000000000002,-3.151269,1.7188740000000002,0.6875496,173.19374424,81.8470503,-164.77126163999995
6.46,646,0.993,-0.024,0.138,-2.7501984,2.4637194,0.6302538000000001,173.13071886,81.82413198,-164.79990954
6.47,647,0.984,-0.024,0.13699999999999998,-1.7761698,3.2658606,0.4010706,173.10207096,81.7897545,-164.8113687
6.4799999999999995,648,0.982,-0.023,0.142,-0.9167328,3.4950437999999995,0.286479,173.0906118,81.75537702,-164.8113687
6.49,649,0.988,-0.025,0.145,-0.5156622000000001,3.8961144,0.286479,173.0906118,81.71526996,-164.80563912
6.5,650,0.992,-0.028,0.14800000000000002,-0.8021411999999999,4.297185,0.4583664000000001,173.07342306,81.68089248,-164.81709827999995
6.51,651,0.992,-0.027000000000000003,0.146,-0.8594370000000001,4.9274388,0.4583664000000001,173.05623432,81.62932626,-164.82282786000005
6.52,652,0.995,-0.028,0.14,-0.057295800000000015,5.5576926,0.4010706,173.0619639,81.57203046,-164.81709827999995
6.53,653,0.987,-0.03,0.123,0.7448454000000001,6.9327918,0.11459160000000003,173.10780054,81.50900508000002,-164.77699122
6.54,654,0.98,-0.031,0.099,2.578311,10.026765,-0.9167328,173.25676962,81.40587264,-164.65094046
6.55,655,0.964,-0.028,0.071,5.042030400000002,14.667724800000002,-2.7501984,173.56616694,81.28555146,-164.39310935999995
6.56,656,0.94,-0.019,0.07,7.6203414,19.767051,-4.583664,174.04172208,81.09647532,-163.98630917999995
6.57,657,0.932,-0.017,0.108,9.224623800000002,23.777757,-5.6722842,174.59749133999995,80.86156254,-163.51075404
6.58,658,0.958,-0.02,0.153,8.651665800000002,24.923673,-5.9014674000000005,175.14180144000005,80.62092018,-163.04665806
6.59,659,0.993,-0.016,0.188,6.4744254,23.14750320000001,-4.8128472,175.56579036,80.39746656,-162.67996494000005
