TimeStamp(s),FrameCounter,AccX,AccY,AccZ,GyrX,GyrY,GyrZ,EulerX,EulerY,EulerZ
0.01,1,-0.035,-1.01,0.053,0.0,0.0,-0.1718874,91.4727447,-1.67303736,-0.91100322
0.02,2,-0.036000000000000004,-1.011,0.057,0.11459160000000004,-0.40107059999999994,-0.4583664000000001,91.4727447,-1.6673077799999998,-0.9167328
0.03,3,-0.036000000000000004,-1.012,0.057,0.057295800000000015,-0.5156622000000001,-0.5156622000000001,91.47847428,-1.6615782,-0.92246238
0.04,4,-0.037000000000000005,-1.01,0.055999999999999994,0.0,-0.572958,-0.5156622000000001,91.47847428,-1.6558486199999998,-0.92819196
0.05,5,-0.036000000000000004,-1.0070000000000001,0.055999999999999994,0.057295800000000015,-0.6302538000000001,-0.5156622000000001,91.48993344,-1.6558486199999998,-0.93965112
0.060000000000000005,6,-0.034,-1.006,0.057,0.0,-0.8594370000000001,-0.572958,91.48993344,-1.65011904,-0.9453807
0.06999999999999999,7,-0.032,-1.005,0.057,-0.2291832000000001,-0.9740286,-0.572958,91.48993344,-1.64438946,-0.95683986
0.08,8,-0.035,-1.005,0.055999999999999994,-0.40107059999999994,-0.9167328000000001,-0.5156622000000001,91.48420386,-1.6386598799999998,-0.96829902
0.09,9,-0.036000000000000004,-1.005,0.055999999999999994,-0.40107059999999994,-0.6875496,-0.5156622000000001,91.47847428,-1.6272007199999998,-0.9740286
0.09999999999999999,10,-0.038,-1.003,0.055,-0.40107059999999994,-0.5156622000000001,-0.3437748,91.48993344,-1.6386598799999998,-0.98548776
0.11,11,-0.037000000000000005,-1.002,0.055999999999999994,-0.286479,-0.4583664000000001,-0.40107059999999994,91.48420386,-1.6329303,-0.9912173399999998
0.12,12,-0.034,-1.001,0.055,-0.11459160000000004,-0.8594370000000001,-0.4583664000000001,91.48420386,-1.6272007199999998,-1.0026765
0.13,13,-0.033,-1.002,0.055,0.0,-1.2032118,-0.6302538000000001,91.48420386,-1.62147114,-1.01413566
0.14,14,-0.035,-1.005,0.055999999999999994,0.0,-1.3750992,-0.6875496,91.48420386,-1.61001198,-1.0255948199999998
0.15000000000000002,15,-0.036000000000000004,-1.008,0.057999999999999996,0.057295800000000015,-1.3178034,-0.6302538000000001,91.5013926,-1.61001198,-1.04278356
0.16,16,-0.038,-1.01,0.059000000000000004,0.0,-1.0886202,-0.6302538000000001,91.5013926,-1.6042824000000002,-1.05424272
0.17,17,-0.037000000000000005,-1.012,0.059000000000000004,-0.1718874,-0.9167328000000001,-0.7448454000000001,91.49566302,-1.59282324,-1.06570188
0.18000000000000002,18,-0.035,-1.012,0.059000000000000004,-0.2291832000000001,-0.9740286,-0.8594370000000001,91.49566302,-1.5870936600000003,-1.07143146
0.19,19,-0.035,-1.012,0.057,-0.40107059999999994,-1.0886202,-0.9740286,91.48993344,-1.5756344999999998,-1.08289062
0.2,20,-0.034,-1.01,0.054000000000000006,-0.4583664000000001,-1.2605076000000002,-0.9167328000000001,91.49566302,-1.56417534,-1.10007936
0.21000000000000002,21,-0.034,-1.0070000000000001,0.05,-0.6302538000000001,-0.9740286,-0.9167328000000001,91.48993344,-1.55844576,-1.10580894
0.22,22,-0.034,-1.006,0.046,-0.6875496,-0.8021411999999999,-0.6875496,91.47847428,-1.5469866,-1.1172681
0.23,23,-0.032,-1.005,0.042,-0.5156622000000001,-0.6875496,-0.572958,91.47847428,-1.5412570200000002,-1.12299768
0.24000000000000002,24,-0.031,-1.003,0.039,-0.3437748,-0.6875496,-0.4583664000000001,91.4727447,-1.53552744,-1.12872726
0.25,25,-0.027999999999999997,-1.004,0.034,-0.1718874,-0.8594370000000001,-0.3437748,91.4440968,-1.52406828,-1.13445684
0.26,26,-0.027999999999999997,-1.006,0.031,0.11459160000000004,-1.432395,-0.40107059999999994,91.4440968,-1.5183387000000002,-1.1459160000000002
0.27,27,-0.027999999999999997,-1.006,0.027999999999999997,0.4583664000000001,-1.8334656000000005,-0.5156622000000001,91.44982638,-1.51260912,-1.16310474
0.28,28,-0.032,-1.005,0.031,0.7448454000000001,-2.1199446,-0.6875496,91.46128554,-1.50687954,-1.18602306
0.29000000000000004,29,-0.033,-1.002,0.032,1.0886202,-2.4637194,-0.8594370000000001,91.4727447,-1.49542038,-1.20894138
0.3,30,-0.034,-1.004,0.033,1.3178034,-2.5783110000000002,-0.7448454000000001,91.47847428,-1.4896908000000002,-1.23758928
0.31,31,-0.037000000000000005,-1.008,0.034,1.3750992,-2.3491277999999998,-0.8021411999999999,91.49566302,-1.4782316400000002,-1.2605076000000002
0.32,32,-0.04,-1.016,0.034,1.432395,-1.6615782,-1.0886202,91.50712218,-1.46677248,-1.27769634
0.33,33,-0.037000000000000005,-1.02,0.027999999999999997,1.4896908000000002,-1.0886202,-1.0313244000000001,91.52431092,-1.45531332,-1.2891555
0.34,34,-0.032,-1.012,0.021,1.4896908000000002,-0.6302538000000001,-0.572958,91.54149966,-1.44958374,-1.29488508
0.35000000000000003,35,-0.027999999999999997,-0.9990000000000001,0.017,1.6042823999999998,-0.7448454000000001,0.0,91.52431092,-1.44958374,-1.29488508
0.36000000000000004,36,-0.022000000000000002,-0.9840000000000001,0.011000000000000001,2.0053530000000004,-0.8594370000000001,0.40107059999999994,91.54149966,-1.44958374,-1.30634424
0.37,37,-0.012,-0.9740000000000001,0.008,3.1512689999999997,-2.2345362,0.6302538000000001,91.57587714,-1.45531332,-1.32926256
0.38,38,-0.008,-0.975,0.008,4.3544808,-4.0680017999999984,0.9167328000000001,91.62171378,-1.4610428999999998,-1.36936962
0.39,39,-0.012,-0.982,0.013000000000000001,5.443101,-5.7868758000000025,1.2605076000000002,91.67900958,-1.47250206,-1.42666542
0.4,40,-0.022000000000000002,-0.995,0.016,6.2452422,-6.2452422,1.432395,91.73630538,-1.48396122,-1.48396122
0.41000000000000003,41,-0.031,-1.001,0.013000000000000001,6.875496000000001,-5.5576926,1.5469866,91.81078992,-1.49542038,-1.5412570200000002
0.42000000000000004,42,-0.039,-1.003,0.003,7.333862400000001,-4.6982555999999995,1.4896908000000002,91.88527446,-1.50687954,-1.5870936600000003
0.43,43,-0.042,-1.001,-0.01,7.8495246,-4.2398892,1.2032118,91.97121816,-1.51260912,-1.6272007199999998
0.44,44,-0.044000000000000004,-0.997,-0.026000000000000002,8.479778399999999,-4.1252976000000015,0.8594370000000001,92.05716186,-1.5183387000000002,-1.6673077799999998
0.45,45,-0.042,-0.997,-0.038,9.5111028,-4.2398892,0.4583664000000001,92.13737598,-1.52406828,-1.71314442
0.46,46,-0.040999999999999995,-0.996,-0.045,10.313244000000001,-4.1252976000000015,0.286479,92.24050842,-1.52406828,-1.75325148
0.47000000000000003,47,-0.038,-1.001,-0.048,10.886202,-3.5523396000000003,0.0,92.35510002,-1.5183387000000002,-1.78762896
0.48000000000000004,48,-0.027000000000000003,-1.0070000000000001,-0.053,11.2299768,-2.86479,-0.11459160000000004,92.46969162,-1.5183387000000002,-1.81054728
0.49,49,-0.016,-1.011,-0.064,11.5737516,-2.5783110000000002,0.0,92.5900128,-1.51260912,-1.83919518
0.5,50,-0.017,-1.015,-0.076,11.8602306,-3.2085647999999996,0.1718874,92.68168608,-1.50687954,-1.86784308
0.51,51,-0.021,-1.01,-0.08199999999999999,11.917526400000002,-4.1252976000000015,0.11459160000000004,92.80200726,-1.50687954,-1.90795014
0.52,52,-0.022000000000000002,-1.0090000000000001,-0.083,11.688343199999998,-4.8128472,-0.4583664000000001,92.92232844,-1.49542038,-1.95378678
0.53,53,-0.012,-1.013,-0.08199999999999999,11.5164558,-5.7868758000000025,-1.7188740000000002,93.04264962,-1.47250206,-2.005353
0.54,54,-0.001,-1.023,-0.075,11.2299768,-7.2192707999999985,-2.6929026,93.15724122,-1.43812458,-2.07410796
0.55,55,0.003,-1.041,-0.069,9.7975818,-8.307891,-2.8074942000000003,93.24318492,-1.39801752,-2.1485925000000003
0.56,56,0.004,-1.058,-0.073,6.875496000000001,-8.59437,-2.291832,93.31193988,-1.36936962,-2.2345362
0.5700000000000001,57,0.003,-1.0759999999999998,-0.077,3.6669312000000014,-8.9381448,-1.4896908000000002,93.35204694,-1.3464512999999998,-2.3204799
0.5800000000000001,58,-0.003,-1.088,-0.079,0.0,-9.682990199999999,-0.6302538000000001,93.35777652,-1.32926256,-2.41788276
0.59,59,-0.018000000000000002,-1.082,-0.08199999999999999,-3.6096353999999997,-10.886202,-0.8594370000000001,93.32339904,-1.31207382,-2.5210152000000003
0.6,60,-0.032,-1.055,-0.07,-5.3858052,-12.032118,-2.291832,93.25464408,-1.28342592,-2.6413363800000003
0.61,61,-0.055999999999999994,-1.005,-0.037000000000000005,-6.8182002000000015,-12.1467096,-4.8128472,93.18588912,-1.22613012,-2.76165756
0.62,62,-0.07400000000000001,-0.9640000000000001,-0.005,-8.021412000000002,-9.682990199999999,-7.6203414,93.11140458,-1.14018642,-2.85333084
0.63,63,-0.053,-0.945,0.013999999999999999,-10.5424272,-4.9847346,-9.1100322,93.00254256,-1.04851314,-2.89916748
0.64,64,-0.033,-0.9279999999999999,0.04,-16.7303736,0.1718874,-10.5424272,92.83065516000002,-0.9453807,-2.8934379
0.65,65,-0.021,-0.904,0.036000000000000004,-22.1161788,4.0680017999999984,-11.3445684,92.60720154,-0.83651868,-2.84760126
0.66,66,-0.019,-0.907,0.013999999999999999,-23.2620948,4.6982555999999995,-9.682990199999999,92.36655918,-0.7448454000000001,-2.80176462
0.67,67,-0.006999999999999999,-0.955,0.068,-28.132237800000002,3.2085647999999996,-6.875496000000001,92.08008018,-0.68182002,-2.76738714
0.68,68,-0.016,-0.983,0.2,-37.3568616,-0.057295800000000015,-5.2712136,91.70192790000002,-0.6302538000000001,-2.77311672
0.6900000000000001,69,-0.008,-1.0390000000000001,0.187,-41.7113424,-2.4064236,-6.589017,91.27793898,-0.56722842,-2.80176462
0.7000000000000001,70,0.001,-1.114,0.08199999999999999,-48.414951,4.6409598,-7.9641161999999985,90.78519509999998,-0.49274388,-2.75592798
0.7100000000000001,71,0.013000000000000001,-1.2109999999999999,0.024,-52.6548402,12.3758928,-9.9121734,90.24661458,-0.4010706000000001,-2.6413363800000003
0.72,72,0.02,-1.268,0.035,-58.327124399999995,15.4125702,-11.5737516,89.65073826,-0.29793816,-2.4923672999999997
0.73,73,0.008,-1.207,0.08,-67.9528188,16.272007199999994,-11.5737516,88.95745908,-0.18907614,-2.3376686399999995
0.74,74,0.011000000000000001,-1.087,0.09699999999999999,-77.46392159999998,17.8762896,-9.167328,88.16677704,-0.10886202,-2.17151082
0.75,75,-0.003,-0.997,0.085,-86.97502440000002,19.2513888,-6.7609043999999985,87.28442172,-0.04583664,-1.99389384
0.76,76,-0.015,-0.938,0.059000000000000004,-93.5067456,17.0741484,-4.1252976000000015,86.33331144,-0.00572958,-1.83919518
0.77,77,-0.038,-0.983,-0.001,-98.09040959999999,10.026765,-2.6356068,85.33636451999998,0.01145916,-1.75325148
0.78,78,-0.051,-1.047,-0.043,-99.3509172,4.7555514,-2.5783110000000002,84.32795844,0.028647900000000007,-1.7188740000000002
0.79,79,-0.059000000000000004,-1.1,-0.051,-98.548776,-0.5156622000000001,-2.5210152000000003,83.33101152,0.04583664,-1.73606274
0.8,80,-0.052000000000000005,-1.101,-0.062,-98.94984659999999,-4.6409598,-4.2398892,82.32833502,0.07448454,-1.79908812
0.81,81,-0.049,-1.061,-0.086,-99.5801004,-4.7555514,-7.9641161999999985,81.31419936,0.13750992,-1.86784308
0.8200000000000001,82,-0.040999999999999995,-0.998,-0.067,-99.5228046,-2.7501984,-11.401864199999999,80.30579328,0.23491278,-1.92513888
0.8300000000000001,83,-0.015,-0.9420000000000001,-0.075,-99.0071424,-0.1718874,-14.381245800000002,79.30311678,0.36669312,-1.9595163600000003
0.8400000000000001,84,0.01,-0.9009999999999999,-0.11199999999999999,-96.829902,3.3231564,-17.4179232,78.31762902,0.53285094,-1.97097552
0.85,85,0.023,-0.907,-0.122,-91.95975899999999,6.703608600000001,-18.621135,77.38370748,0.7161975,-1.95378678
0.86,86,0.023,-0.935,-0.13699999999999998,-88.2928278,6.875496000000001,-16.902261,76.48416342,0.8823553199999999,-1.93086846
0.87,87,0.005,-0.9470000000000001,-0.152,-85.7145168,3.7815228,-13.3499214,75.61326726,1.01413566,-1.93086846
0.88,88,-0.022000000000000002,-0.941,-0.191,-83.4226848,-2.6929026,-10.599723,74.76528942,1.10007936,-1.99389384
0.89,89,-0.034,-0.9079999999999999,-0.217,-81.2454444,-8.8235532,-10.026765,73.94022989999998,1.16310474,-2.11421502
0.9,90,-0.031,-0.8690000000000001,-0.23399999999999999,-79.1254998,-14.037471,-12.4331886,73.1380887,1.23758928,-2.2918320000000003
0.91,91,-0.019,-0.8059999999999999,-0.212,-74.48454,-18.3919518,-17.9908812,72.37605456,1.35218088,-2.5210152000000003
0.92,92,0.043,-0.76,-0.16699999999999998,-67.036086,-18.1054728,-23.835052800000003,71.69423454,1.5183387000000002,-2.77311672
0.93,93,0.08,-0.7829999999999999,-0.158,-63.5410422,-14.9542038,-27.788463,71.04106241999997,1.73033316,-3.0080294999999997
0.9400000000000001,94,0.066,-0.825,-0.14,-66.6350154,-11.8602306,-27.6738714,70.35924240000001,1.9480572000000005,-3.214294380000001
0.9500000000000001,95,0.026000000000000002,-0.8590000000000001,-0.113,-72.65107440000001,-7.448453999999999,-24.809081399999997,69.62585616,2.1485925000000003,-3.37472262
0.9600000000000001,96,-0.025,-0.873,-0.155,-77.75040059999998,-3.4950437999999995,-19.652459399999998,68.82944454,2.30902074,-3.48358464
0.97,97,-0.059000000000000004,-0.853,-0.21,-80.7297822,-3.5523396000000003,-14.610429000000002,68.0101146,2.42361234,-3.57525792
0.98,98,-0.079,-0.821,-0.24600000000000002,-79.5838662,-7.906820400000001,-10.4851314,67.19651424,2.48090814,-3.6955791
0.99,99,-0.067,-0.7859999999999999,-0.27399999999999997,-78.2660628,-10.7716104,-7.734933000000002,66.39437303999999,2.50382646,-3.83308902
1.0,100,-0.035,-0.741,-0.3,-75.51586440000001,-10.7716104,-7.161975,65.62660932,2.5210152000000003,-3.9648693599999993
1.01,101,0.018000000000000002,-0.731,-0.295,-68.9268474,-11.0580894,-7.5630456000000015,64.92187098,2.53820394,-4.102379279999999
1.02,102,0.069,-0.741,-0.29600000000000004,-63.6556338,-11.3445684,-8.7089616,64.26869886,2.5611222600000003,-4.24561878
1.03,103,0.091,-0.765,-0.3,-59.0719698,-11.2299768,-9.6256944,63.66709296000001,2.59549974,-4.39458786
1.04,104,0.083,-0.7879999999999999,-0.293,-56.2071798,-10.886202,-9.5111028,63.08840538,2.62414764,-4.53782736
1.05,105,0.063,-0.8029999999999999,-0.305,-55.576926,-8.7662574,-8.4224826,62.52117696000001,2.65852512,-4.65814854
1.06,106,0.036000000000000004,-0.7859999999999999,-0.324,-54.94667220000001,-6.1879464,-6.990087599999999,61.95967812,2.68717302,-4.749821819999998
1.07,107,0.005,-0.7609999999999999,-0.33299999999999996,-52.54024860000001,-3.8961144,-5.72958,61.42682718,2.71009134,-4.812847199999998
1.08,108,-0.025,-0.757,-0.342,-49.4462754,-1.6042823999999998,-4.9274388,60.92262414,2.73873924,-4.85295426
1.09,109,-0.031,-0.752,-0.34700000000000003,-46.5241896,2.3491277999999998,-3.7242269999999995,60.44706899999999,2.7788463,-4.85295426
1.1,110,-0.01,-0.7440000000000001,-0.36200000000000004,-45.1490904,6.417129599999999,-2.86479,59.99443218,2.82468294,-4.81857678
1.11,111,0.022000000000000002,-0.7390000000000001,-0.401,-43.1437374,8.4224826,-2.0626488000000003,59.5589841,2.87624916,-4.7555514
1.12,112,0.048,-0.7559999999999999,-0.431,-39.5913978,7.5630456000000015,-0.6302538000000001,59.15791349999999,2.91635622,-4.6982556
1.1300000000000001,113,0.061,-0.774,-0.429,-35.809875,5.6149884000000005,0.9740286,58.796949960000006,2.92781538,-4.64668938
1.1400000000000001,114,0.069,-0.772,-0.434,-33.116972399999995,4.7555514,2.4064236,58.45890474,2.92781538,-4.59512316
1.1500000000000001,115,0.069,-0.758,-0.43799999999999994,-30.595957199999997,5.443101,2.9793816000000004,58.14950742,2.92781538,-4.53209778
1.1600000000000001,116,0.066,-0.7440000000000001,-0.45899999999999996,-28.074942,5.958763200000001,3.0366774,57.86875799999999,2.92781538,-4.46334282
1.17,117,0.064,-0.731,-0.48100000000000004,-24.4653066,6.130650599999999,3.380452200000001,57.62238606,2.92781538,-4.39458786
1.18,118,0.064,-0.718,-0.48200000000000004,-19.9389384,6.8182002000000015,3.7242269999999995,57.42185076000001,2.92781538,-4.3201033199999985
1.19,119,0.066,-0.7190000000000001,-0.493,-16.157415599999997,8.193299399999999,3.7815228,57.26142252,2.93354496,-4.22843004
1.2,120,0.07,-0.723,-0.51,-12.5477802,8.9954406,4.0680017999999984,57.12964218,2.9507337000000002,-4.1310271799999985
1.21,121,0.078,-0.73,-0.529,-8.7662574,7.8495246,4.9274388,57.04369848,2.94500412,-4.0393539
1.22,122,0.094,-0.75,-0.5579999999999999,-4.6982555999999995,3.9534102,6.5317212,56.99786184000001,2.91062664,-3.97059894
1.23,123,0.105,-0.7659999999999999,-0.545,-0.8594370000000001,-2.0626488000000003,8.8235532,56.99213225999999,2.82468294,-3.94195104
1.24,124,0.121,-0.7709999999999999,-0.534,3.2658606,-7.906820400000001,10.886202,57.02650974,2.6929026,-3.94768062
1.25,125,0.11,-0.77,-0.535,8.021412000000002,-12.4331886,11.5164558,57.10099428,2.54393352,-3.98778768
1.26,126,0.081,-0.7659999999999999,-0.528,12.1467096,-13.521808800000002,10.7716104,57.22704503999999,2.38350528,-4.04508348
1.27,127,0.055999999999999994,-0.759,-0.509,16.042824000000003,-10.084060800000001,8.7662574,57.38747328,2.2631841,-4.0794609600000005
1.28,128,0.04,-0.7759999999999999,-0.521,19.8816426,-2.9220858,7.161975,57.59373816,2.18869956,-4.0680017999999984
1.29,129,0.019,-0.7879999999999999,-0.5479999999999999,21.7151082,1.9480572,7.2765666,57.81719178,2.14286292,-4.010706
1.3,130,0.0,-0.782,-0.528,24.8663772,4.2398892,7.2765666,58.06356372000001,2.10275586,-3.93622146
1.31,131,-0.006999999999999999,-0.7859999999999999,-0.524,27.215505,5.844171599999999,6.8182002000000015,58.34431314,2.07410796,-3.85027776
1.32,132,-0.002,-0.7829999999999999,-0.512,29.5646328,6.0733548,5.6149884000000005,58.64225129999999,2.0626488000000003,-3.76433406
1.33,133,-0.009000000000000001,-0.778,-0.5,32.544014399999995,5.72958,4.2398892,58.97456694,2.05691922,-3.68984952
1.34,134,-0.016,-0.7759999999999999,-0.475,34.8358464,7.1046792000000005,2.4637194,59.33553048,2.07410796,-3.61536498
1.35,135,-0.011000000000000001,-0.772,-0.47100000000000003,36.096354,8.8235532,0.7448454000000001,59.69649402,2.10848544,-3.5351508600000003
1.36,136,-0.003,-0.775,-0.456,38.38818600000001,9.740286,-0.6875496,60.09183504,2.1657812400000003,-3.4492071599999994
1.37,137,0.009000000000000001,-0.779,-0.456,40.1643558,10.1986524,-1.9480572,60.49863522,2.24026578,-3.3689930400000003
1.3800000000000001,138,0.013999999999999999,-0.782,-0.44799999999999995,42.456187799999995,9.224623800000002,-3.2658606,60.9340833,2.3147503200000004,-3.30023808
1.3900000000000001,139,0.019,-0.7879999999999999,-0.4370000000000001,44.748019799999994,8.136003599999999,-4.1252976000000015,61.38672012000001,2.39496444,-3.2486718599999995
1.4000000000000001,140,0.033,-0.794,-0.41600000000000004,47.211739200000004,6.703608600000001,-3.6096353999999997,61.86800484000001,2.45798982,-3.20283522
1.4100000000000001,141,0.052000000000000005,-0.8059999999999999,-0.382,51.1651494,4.8128472,-1.7188740000000002,62.38939661999999,2.50382646,-3.1627281600000003
1.42,142,0.075,-0.809,-0.3720000000000001,53.5142772,2.6929026,0.572958,62.93370672,2.51528562,-3.13408026
1.43,143,0.115,-0.82,-0.354,55.86340500000001,-0.6875496,3.2085647999999996,63.50093514,2.4923672999999997,-3.1226211000000004
1.44,144,0.14800000000000002,-0.8079999999999999,-0.349,57.63957480000001,-3.7242269999999995,6.1879464,64.0853523,2.42934192,-3.1226211000000004
1.45,145,0.162,-0.794,-0.325,59.30115299999999,-6.0160589999999985,8.307891,64.69268778,2.34339822,-3.13408026
1.46,146,0.14800000000000002,-0.7879999999999999,-0.29,60.8481396,-8.078707799999998,9.682990199999999,65.30575284,2.22880662,-3.1627281600000003
1.47,147,0.114,-0.787,-0.267,62.10864720000001,-9.8548776,10.313244000000001,65.93600663999999,2.10848544,-3.2085648000000004
1.48,148,0.068,-0.774,-0.263,62.6243094,-11.1153852,10.7143146,66.57199002,1.9767051,-3.2658606
1.49,149,0.038,-0.7659999999999999,-0.26,64.28588760000001,-11.9748222,11.2299768,67.22516214,1.83919518,-3.3231564
1.5,150,0.017,-0.763,-0.259,66.23394479999999,-11.172680999999999,11.688343199999998,67.90125258,1.6959556799999995,-3.380452200000001
1.51,151,0.013000000000000001,-0.762,-0.26,68.2392978,-9.568398599999998,12.1467096,68.59453176,1.55844576,-3.42055926
1.52,152,0.02,-0.77,-0.255,71.39056679999999,-9.0527364,13.2353298,69.31645884000001,1.41520626,-3.4492071599999994
1.53,153,0.031,-0.769,-0.244,74.42724419999998,-9.740286,13.6936962,70.07276340000001,1.26623718,-3.48931422
1.54,154,0.032,-0.7659999999999999,-0.21,77.34933000000002,-11.2299768,12.261301199999998,70.85771586000001,1.12299768,-3.54661002
1.55,155,0.018000000000000002,-0.759,-0.184,79.81304940000003,-11.745639,9.7975818,71.67131622000002,1.00840608,-3.62109456
1.56,156,0.023,-0.8290000000000001,-0.223,83.0216142,-9.682990199999999,7.8495246,72.51356448,0.9167328,-3.68411994
1.57,157,0.043,-0.997,-0.299,88.69389840000002,-4.9847346,7.734933000000002,73.41883812,0.83651868,-3.70130868
1.58,158,0.049,-1.165,-0.302,95.8558734,-2.9220858,8.078707799999998,74.39286672,0.76203414,-3.70130868
1.59,159,0.045,-1.3530000000000002,-0.276,104.22106020000001,-5.2712136,9.453807,75.44710943999998,0.6703608600000001,-3.71849742
1.6,160,0.032,-1.5419999999999998,-0.22899999999999998,108.40365359999998,-8.479778399999999,10.886202,76.55291838000002,0.56149884,-3.76433406
1.61,161,0.027999999999999997,-1.6780000000000002,-0.20199999999999999,108.51824520000001,-10.599723,11.0580894,77.65299774,0.44117766,-3.83308902
1.62,162,0.024,-1.806,-0.209,105.8826384,-11.0007936,9.568398599999998,78.73015878,0.3437748,-3.90757356
1.6300000000000001,163,0.003,-1.925,-0.185,101.35627020000001,-9.8548776,7.333862400000001,79.76148318,0.26356068,-3.9820581
1.6400000000000001,164,-0.026000000000000002,-2.01,-0.155,96.6580146,-9.0527364,4.3544808,80.74124136,0.21772404,-4.05654264
1.6500000000000001,165,-0.03,-1.976,-0.11599999999999999,88.63660259999996,-7.734933000000002,0.8594370000000001,81.64078542,0.20626488,-4.11956802
1.6600000000000001,166,-0.02,-1.861,-0.07,82.21947300000002,-6.0160589999999985,-2.0626488000000003,82.4773041,0.22918320000000006,-4.17686382
1.6700000000000002,167,0.009000000000000001,-1.7069999999999999,-0.047,76.37530140000001,-4.010706000000001,-3.1512689999999997,83.25079740000002,0.26356068,-4.211241299999998
1.68,168,0.049,-1.5619999999999998,-0.028999999999999998,72.3645954,-2.4637194,-2.291832,83.98991322,0.29220857999999994,-4.22843004
1.69,169,0.068,-1.486,-0.008,69.32791800000001,-1.9480572,-1.2605076000000002,84.69465156,0.30939732,-4.24561878
1.7,170,0.055,-1.415,0.008,65.54639519999999,-2.1772404,-1.0313244000000001,85.35928284,0.32658606,-4.25707794
1.71,171,0.034,-1.318,0.022000000000000002,61.4210976,-2.4064236,-2.1772404,85.98380705999998,0.35523396,-4.27999626
1.72,172,0.028999999999999998,-1.161,0.032,57.63957480000001,-2.5210152000000003,-3.9534102,86.56822422,0.39534102,-4.297185000000002
1.73,173,0.036000000000000004,-1.0170000000000001,0.036000000000000004,54.0299394,-3.4377480000000005,-4.8128472,87.1182639,0.44690724,-4.3315624800000005
1.74,174,0.04,-0.898,0.036000000000000004,51.9672906,-4.9847346,-5.1566220000000005,87.64538526,0.5042030399999999,-4.37739912
1.75,175,0.047,-0.8190000000000001,0.045,51.0505578,-6.589017,-5.042030400000002,88.16677704,0.56149884,-4.43469492
1.76,176,0.033,-0.7709999999999999,0.046,50.706783,-8.880849000000003,-4.3544808,88.68243924,0.6073354799999999,-4.5206386200000015
1.77,177,-0.001,-0.741,0.051,50.8786704,-12.1467096,-3.380452200000001,89.19810143999999,0.64744254,-4.63523022
1.78,178,-0.026000000000000002,-0.721,0.062,51.7381074,-14.896907999999998,-2.291832,89.72522280000004,0.67609044,-4.77846972
1.79,179,-0.034,-0.708,0.073,52.998615,-16.2147114,-1.3750992,90.26380332,0.69900876,-4.93316838
1.8,180,-0.039,-0.705,0.081,54.6028974,-16.673077799999998,-0.7448454000000001,90.81957258,0.7161975,-5.0935966200000005
1.81,181,-0.055999999999999994,-0.715,0.079,56.66554620000001,-16.8449652,0.11459160000000004,91.39826016,0.72765666,-5.24829528
1.82,182,-0.073,-0.73,0.084,58.0406454,-15.4125702,1.3750992,91.98267732,0.72765666,-5.3972643599999985
1.83,183,-0.096,-0.75,0.091,58.9000824,-14.7823164,3.0939732,92.58428322,0.7104679199999999,-5.5405038599999985
1.84,184,-0.128,-0.7809999999999999,0.10300000000000001,58.0979412,-18.048177,5.844171599999999,93.17442996,0.6703608600000001,-5.71239126
1.85,185,-0.134,-0.8079999999999999,0.125,57.00932099999999,-22.2880662,9.224623800000002,93.75884712,0.59587632,-5.93584488
1.86,186,-0.102,-0.836,0.192,59.1865614,-21.7151082,11.2299768,94.36045302,0.5099326200000001,-6.147839339999999
1.87,187,-0.08199999999999999,-0.86,0.179,58.44171600000001,-21.829699800000004,12.891555,94.95632934,0.40680018,-6.3655633799999976
1.8800000000000001,188,-0.079,-0.917,0.172,57.9833496,-14.438541599999999,12.891555,95.5407465,0.29793816,-6.51453246
1.8900000000000001,189,-0.063,-1.002,0.122,57.58227899999999,1.0886202,12.4331886,96.12516366,0.17761697999999998,-6.5088028799999975
1.9000000000000001,190,-0.06,-1.078,0.099,56.5509546,9.7975818,12.7196676,96.69812166,0.04010706,-6.4228591800000014
1.9100000000000001,191,-0.06,-1.153,0.08800000000000001,54.717489,16.558486199999994,12.605075999999999,97.25389092,-0.09740286,-6.26816052
1.9200000000000002,192,-0.061,-1.19,0.11699999999999999,54.43101,19.8816426,11.45916,97.79820102,-0.24064236,-6.08481396
1.93,193,-0.034,-1.189,0.14400000000000002,54.8320806,22.1734746,9.9694692,98.35397028,-0.3724227000000001,-5.8728194999999985
1.94,194,0.006,-1.1420000000000001,0.14800000000000002,55.4623344,23.0902074,9.568398599999998,98.90973954,-0.4984734599999999,-5.65509546
1.95,195,0.03,-1.091,0.16699999999999998,57.35309579999999,20.912967000000002,10.4278356,99.48842712,-0.63598338,-5.46028974
1.96,196,0.044000000000000004,-1.064,0.196,59.874111,19.136797199999997,12.7196676,100.09003302,-0.79641162,-5.28840234
1.97,197,0.065,-1.0659999999999998,0.221,62.0513514,16.4438946,14.4958374,100.72028682,-0.96829902,-5.15089242
1.98,198,0.076,-1.065,0.244,62.0513514,14.266654199999998,15.011499599999999,101.34481104,-1.14018642,-5.03057124
1.99,199,0.065,-1.054,0.257,60.2178858,11.688343199999998,14.896907999999998,101.95214652,-1.30634424,-4.93889796
2.0,200,0.047,-1.037,0.27,58.0979412,9.6256944,13.6936962,102.54229326,-1.45531332,-4.8701430000000006
2.01,201,0.044000000000000004,-1.0090000000000001,0.28800000000000003,57.58227899999999,8.59437,11.45916,103.12098084000002,-1.5870936600000003,-4.80711762
2.02,202,0.046,-0.988,0.311,56.4936588,5.72958,9.453807,103.69393884,-1.6902260999999998,-4.76701056
2.03,203,0.027999999999999997,-0.978,0.32,55.1758554,-0.1718874,7.734933000000002,104.25543768,-1.75898106,-4.77846972
2.04,204,0.032,-0.973,0.341,55.977996600000004,-3.6096353999999997,6.130650599999999,104.82266610000002,-1.8048177,-4.81857678
2.05,205,0.052000000000000005,-0.975,0.381,55.576926,-3.5523396000000003,5.3285094000000015,105.40135368,-1.83919518,-4.8586838399999985
2.0599999999999996,206,0.043,-0.965,0.39,53.0559108,-2.9220858,5.72958,105.9399342,-1.87930224,-4.898790900000002
2.07,207,0.02,-0.945,0.391,52.2537696,-0.40107059999999994,6.5317212,106.47278514,-1.94232762,-4.91025006
2.0799999999999996,208,0.005,-0.9359999999999999,0.396,51.4516284,2.0626488000000003,6.875496000000001,106.99417692,-2.01108258,-4.90452048
2.09,209,-0.019,-0.9309999999999999,0.391,50.82137460000001,2.291832,6.8182002000000015,107.50983912,-2.07983754,-4.898790900000002
2.0999999999999996,210,-0.052000000000000005,-0.93,0.402,52.3110654,2.9220858,7.2192707999999985,108.04269006,-2.16005166,-4.88733174
2.11,211,-0.043,-0.927,0.414,53.39968560000001,4.583664,7.906820400000001,108.58700016,-2.24599536,-4.8586838399999985
2.1199999999999997,212,-0.037000000000000005,-0.9109999999999999,0.4370000000000001,53.571573,4.583664,8.021412000000002,109.12558068,-2.33193906,-4.83576552
2.13,213,-0.049,-0.895,0.449,53.628868800000006,4.8128472,8.479778399999999,109.66989078,-2.42934192,-4.812847199999998
2.1399999999999997,214,-0.061,-0.889,0.456,53.11320660000001,4.4690724,8.7089616,110.2084713,-2.52674478,-4.79565846
2.15,215,-0.068,-0.887,0.45899999999999996,52.2537696,4.583664,8.250595200000001,110.74705182,-2.61841806,-4.77274014
2.1599999999999997,216,-0.064,-0.889,0.47,52.7694318,6.1879464,7.8495246,111.27990276,-2.71582092,-4.73836266
2.17,217,-0.062,-0.887,0.47600000000000003,53.39968560000001,9.2819196,7.161975,111.81848327999998,-2.81322378,-4.675337279999999
2.1799999999999997,218,-0.067,-0.899,0.479,54.0299394,13.521808800000002,6.0160589999999985,112.3570638,-2.9220857999999996,-4.56647526
2.19,219,-0.075,-0.914,0.47200000000000003,53.39968560000001,14.896907999999998,4.6409598,112.88991474,-3.02521824,-4.4404245000000016
2.1999999999999997,220,-0.111,-0.917,0.461,53.11320660000001,9.5111028,4.9274388,113.42849526,-3.11116194,-4.37166954
2.21,221,-0.09300000000000001,-0.9059999999999999,0.496,55.2331512,4.8128472,5.2139178,113.9899941,-3.1799169000000003,-4.34302164
2.2199999999999998,222,-0.057,-0.903,0.508,55.11855960000001,3.3231564,4.2398892,114.54576336,-3.2314831199999987,-4.3201033199999985
2.23,223,-0.051,-0.889,0.519,54.20182679999999,4.6409598,3.6669312000000014,115.09580304,-3.28304934,-4.28572584
2.2399999999999998,224,-0.052000000000000005,-0.892,0.519,53.9726436,7.333862400000001,3.0939732,115.64011314,-3.34034514,-4.22843004
2.25,225,-0.07200000000000001,-0.9309999999999999,0.523,53.628868800000006,8.3651868,2.0053530000000004,116.17869366,-3.39764094,-4.1539455
2.26,226,-0.109,-1.036,0.522,51.0505578,6.0733548,1.7761698000000001,116.69435586,-3.4377480000000005,-4.102379279999999
2.27,227,-0.129,-1.079,0.535,47.269035,2.291832,2.291832,117.16991100000001,-3.47212548,-4.08519054
2.28,228,-0.11900000000000001,-1.053,0.565,43.77399120000001,1.4896908000000002,1.7188740000000002,117.61681824,-3.4950437999999995,-4.07373138
2.29,229,-0.087,-1.015,0.58,37.299565799999996,2.5210152000000003,0.0,117.99497052,-3.50650296,-4.05081306
2.3,230,-0.086,-0.948,0.584,33.403451399999994,3.3231564,-0.1718874,118.33874532,-3.51796212,-4.01643558
2.31,231,-0.08800000000000001,-0.895,0.5579999999999999,31.6845774,2.7501984,-0.40107059999999994,118.65387222,-3.52942128,-3.98778768
2.32,232,-0.10300000000000001,-0.868,0.557,32.4867186,0.0,-0.8021411999999999,118.98618786,-3.5236917,-3.97632852
2.3299999999999996,233,-0.114,-0.8590000000000001,0.57,33.403451399999994,-3.0366774,-1.7761698000000001,119.32423308,-3.48931422,-3.98778768
2.34,234,-0.125,-0.873,0.604,34.3201842,-5.3285094000000015,-2.7501984,119.67373746,-3.4377480000000005,-4.01643558
2.3499999999999996,235,-0.141,-0.8859999999999999,0.632,32.085648000000006,-4.297185,-4.297185,120.01178268,-3.38618178,-4.03362432
2.36,236,-0.146,-0.86,0.653,29.793815999999996,-1.2032118,-5.1566220000000005,120.31545042,-3.33461556,-4.010706
2.3699999999999997,237,-0.13,-0.833,0.6509999999999999,25.84040580000001,2.9793816000000004,-4.6982555999999995,120.57328152,-3.3116972399999995,-3.95913978
2.38,238,-0.121,-0.821,0.621,23.204798999999998,5.0993262,-4.583664,120.8081943,-3.30023808,-3.89038482
2.3899999999999997,239,-0.11900000000000001,-0.8059999999999999,0.597,21.7151082,4.5263682,-4.583664,121.02018876,-3.28304934,-3.82735944
2.4,240,-0.111,-0.789,0.5770000000000001,22.2307704,1.6615782,-3.9534102,121.25510154,-3.27159018,-3.79298196
2.4099999999999997,241,-0.11599999999999999,-0.828,0.57,23.9496444,-2.8074942000000003,-3.5523396000000003,121.50147348,-3.2257535399999995,-3.79298196
2.42,242,-0.126,-0.8440000000000001,0.563,24.5798982,-8.4224826,-2.6929026,121.753575,-3.1512689999999997,-3.84454818
2.4299999999999997,243,-0.11599999999999999,-0.86,0.5870000000000001,25.7258142,-12.891555,-1.6615782,122.02286526,-3.07105488,-3.94195104
2.44,244,-0.094,-0.8640000000000001,0.615,25.382039399999996,-13.8655836,-1.5469866,122.28642594,-2.9793816000000004,-4.0393539
2.4499999999999997,245,-0.079,-0.8420000000000001,0.633,23.204798999999998,-11.5737516,-2.6356068,122.53852746,-2.8934379,-4.11956802
2.46,246,-0.083,-0.8079999999999999,0.635,22.1734746,-8.078707799999998,-2.86479,122.76771066,-2.82468294,-4.17113424
2.4699999999999998,247,-0.081,-0.789,0.636,21.7151082,-5.958763200000001,-1.6615782,122.99116428,-2.7788463,-4.20551172
2.48,248,-0.054000000000000006,-0.774,0.628,20.8556712,-4.1252976000000015,-0.11459160000000004,123.20888832,-2.75592798,-4.23415962
2.4899999999999998,249,-0.028999999999999998,-0.746,0.618,21.199446,-1.8907614,0.3437748,123.42088278,-2.74446882,-4.25134836
2.5,250,-0.013000000000000001,-0.7509999999999999,0.608,23.204798999999998,-0.6302538000000001,0.6875496,123.67298429999998,-2.73873924,-4.25707794
2.51,251,0.009000000000000001,-0.862,0.614,25.382039399999996,-1.0886202,1.4896908000000002,123.9308154,-2.74446882,-4.2685371
2.52,252,0.012,-0.8959999999999999,0.637,23.14750320000001,-2.2345362,1.145916,124.17145776,-2.73873924,-4.29145542
2.53,253,0.023,-0.8690000000000001,0.662,21.0848544,-3.0939732,1.3750992,124.38345222,-2.73300966,-4.3201033199999985
2.54,254,0.013999999999999999,-0.81,0.6729999999999999,19.308684600000007,-4.0680017999999984,1.4896908000000002,124.58398752,-2.7215505,-4.36021038
2.55,255,0.01,-0.7829999999999999,0.684,19.0222056,-5.5003968,1.6042823999999998,124.80171156,-2.68717302,-4.40604702
2.56,256,-0.005,-0.79,0.6859999999999999,18.277360199999997,-6.5317212,1.3750992,124.9907877,-2.6642547000000003,-4.4690724
2.57,257,-0.013999999999999999,-0.8220000000000001,0.688,16.1001198,-8.078707799999998,0.8021411999999999,125.16267509999999,-2.61841806,-4.53209778
2.5799999999999996,258,-0.022000000000000002,-0.8420000000000001,0.685,13.8655836,-9.2819196,0.3437748,125.3059146,-2.56685184,-4.60658232
2.59,259,-0.017,-0.835,0.6859999999999999,11.745639,-10.3705398,0.1718874,125.43196536,-2.50955604,-4.68679644
2.5999999999999996,260,-0.039,-0.7859999999999999,0.679,9.9694692,-10.4278356,-0.572958,125.55801612,-2.44080108,-4.76701056
2.61,261,-0.043,-0.778,0.677,9.453807,-8.7089616,-1.3750992,125.65541898,-2.37204612,-4.83003594
2.6199999999999997,262,-0.046,-0.774,0.664,9.568398599999998,-6.3025379999999975,-1.6615782,125.75855142,-2.3204799,-4.86441342
2.63,263,-0.046,-0.7959999999999999,0.648,9.2819196,-3.8961144,-1.4896908000000002,125.85595428000002,-2.28610242,-4.88733174
2.6399999999999997,264,-0.043,-0.8059999999999999,0.632,8.9381448,-1.9480572,-1.8334656000000005,125.94762756,-2.25745452,-4.893061319999998
2.65,265,-0.039,-0.821,0.618,8.59437,-0.7448454000000001,-2.0626488000000003,126.03357126,-2.2345362,-4.88160216
2.6599999999999997,266,-0.034,-0.8190000000000001,0.606,8.307891,0.0,-2.2345362,126.11378538,-2.21734746,-4.8701430000000006
2.67,267,-0.032,-0.82,0.593,8.250595200000001,0.4583664000000001,-2.0626488000000003,126.19972908,-2.2058883,-4.85295426
2.6799999999999997,268,-0.031,-0.8290000000000001,0.585,8.021412000000002,0.6302538000000001,-1.8907614,126.2799432,-2.19442914,-4.83003594
2.69,269,-0.027999999999999997,-0.8190000000000001,0.5770000000000001,7.8495246,0.572958,-2.0626488000000003,126.36015731999998,-2.1772404,-4.812847199999998
2.6999999999999997,270,-0.027000000000000003,-0.825,0.574,8.250595200000001,0.1718874,-2.3491277999999998,126.41745312,-2.15432208,-4.79565846
2.71,271,-0.023,-0.84,0.578,8.136003599999999,-0.2291832000000001,-2.291832,126.49766723999998,-2.13140376,-4.77846972
2.7199999999999998,272,-0.021,-0.789,0.5710000000000001,7.3911582,-0.572958,-2.1199446,126.57215178,-2.11421502,-4.77274014
2.73,273,-0.021,-0.797,0.57,8.479778399999999,-1.2605076000000002,-1.8907614,126.65809548,-2.0912967,-4.76701056
2.7399999999999998,274,-0.028999999999999998,-0.8320000000000001,0.573,8.250595200000001,-2.0626488000000003,-1.8907614,126.74403918,-2.0626488000000003,-4.77274014
2.75,275,-0.040999999999999995,-0.857,0.579,7.3911582,-2.8074942000000003,-1.7761698000000001,126.78987582,-2.02827132,-4.784199299999999
2.76,276,-0.043,-0.843,0.5870000000000001,6.130650599999999,-2.9793816000000004,-1.0886202,126.8529012,-2.005353,-4.79565846
2.77,277,-0.04,-0.7959999999999999,0.593,5.1566220000000005,-2.8074942000000003,-1.0313244000000001,126.910197,-1.9767051,-4.812847199999998
2.78,278,-0.038,-0.8109999999999999,0.603,5.5576926,-2.8074942000000003,-1.0313244000000001,126.9674928,-1.95378678,-4.82430636
2.79,279,-0.045,-0.82,0.611,4.6409598,-2.8074942000000003,-0.6302538000000001,127.01332943999998,-1.93086846,-4.8414951
2.8,280,-0.051,-0.8190000000000001,0.617,4.1252976000000015,-2.4637194,-0.286479,127.04197734,-1.9194093000000003,-4.86441342
2.81,281,-0.053,-0.826,0.621,3.5523396000000003,-2.1199446,0.057295800000000015,127.07635481999998,-1.90795014,-4.88160216
2.82,282,-0.049,-0.8170000000000001,0.623,2.8074942000000003,-1.8334656000000005,0.40107059999999994,127.11073229999998,-1.90222056,-4.893061319999998
2.8299999999999996,283,-0.042,-0.805,0.625,2.291832,-1.6615782,0.6302538000000001,127.13365062,-1.89649098,-4.91025006
2.84,284,-0.032,-0.7979999999999999,0.628,2.4064236,-1.6615782,0.9167328000000001,127.15656894,-1.8907614,-4.93316838
2.8499999999999996,285,-0.027999999999999997,-0.7929999999999999,0.63,2.4637194,-1.7761698000000001,0.9740286,127.17948726,-1.87930224,-4.94462754
2.86,286,-0.026000000000000002,-0.7979999999999999,0.635,2.1199446,-2.2345362,0.9740286,127.20240558,-1.87357266,-4.97327544
2.8699999999999997,287,-0.033,-0.799,0.638,2.291832,-2.86479,1.145916,127.2253239,-1.8621134999999998,-5.0019233399999985
2.88,288,-0.036000000000000004,-0.773,0.638,1.3750992,-3.1512689999999997,1.2605076000000002,127.24251264,-1.85638392,-5.03057124
2.8899999999999997,289,-0.042,-0.7979999999999999,0.644,1.7188740000000002,-3.0939732,1.0313244000000001,127.26543096,-1.84492476,-5.05921914
2.9,290,-0.040999999999999995,-0.7909999999999999,0.643,1.3178034,-2.5783110000000002,0.9740286,127.29407885999998,-1.83919518,-5.08786704
2.9099999999999997,291,-0.040999999999999995,-0.7829999999999999,0.6459999999999999,0.7448454000000001,-2.1199446,0.7448454000000001,127.30553802,-1.8334656000000005,-5.11078536
2.92,292,-0.036000000000000004,-0.7879999999999999,0.648,0.9740286,-1.7761698000000001,0.4583664000000001,127.31699718,-1.82200644,-5.127974099999999
2.9299999999999997,293,-0.031,-0.7829999999999999,0.649,0.9167328000000001,-1.5469866,0.3437748,127.32272676,-1.81627686,-5.14516284
2.94,294,-0.027000000000000003,-0.777,0.6509999999999999,0.6302538000000001,-1.432395,0.1718874,127.33418592,-1.81054728,-5.1566220000000005
2.9499999999999997,295,-0.025,-0.769,0.6509999999999999,0.8021411999999999,-1.2032118,0.11459160000000004,127.38002256,-1.7761698000000001,-5.16235158
2.96,296,-0.026000000000000002,-0.7909999999999999,0.654,0.9740286,-1.145916,0.0,127.39148172,-1.77044022,-5.16808116
2.9699999999999998,297,-0.027000000000000003,-0.787,0.653,0.7448454000000001,-1.0313244000000001,-0.057295800000000015,127.3972113,-1.76471064,-5.17954032
2.98,298,-0.026000000000000002,-0.775,0.6509999999999999,0.572958,-0.8594370000000001,-0.11459160000000004,127.40294088,-1.75898106,-5.1852699
2.9899999999999998,299,-0.026000000000000002,-0.78,0.652,0.5156622000000001,-0.572958,-0.1718874,127.40867045999998,-1.75325148,-5.1852699
3.0,300,-0.026000000000000002,-0.78,0.649,0.572958,-0.3437748,-0.11459160000000004,127.58055786,-1.67303736,-5.17954032
3.01,301,-0.026000000000000002,-0.779,0.645,0.572958,-0.2291832000000001,-0.057295800000000015,127.58628744,-1.67303736,-5.1852699
3.02,302,-0.027000000000000003,-0.7809999999999999,0.645,0.6302538000000001,-0.572958,-0.057295800000000015,127.59201702,-1.6673077799999998,-5.1852699
3.03,303,-0.031,-0.785,0.6459999999999999,0.8021411999999999,-1.0886202,0.0,127.60347618,-1.6615782,-5.19672906
3.04,304,-0.035,-0.785,0.65,0.6875496,-1.145916,-0.057295800000000015,127.60920575999998,-1.65011904,-5.2024586400000015
3.05,305,-0.036000000000000004,-0.79,0.6509999999999999,0.572958,-0.6875496,-0.057295800000000015,127.74671568,-1.65011904,-5.21964738
3.06,306,-0.034,-0.7909999999999999,0.649,0.0,0.11459160000000004,-0.057295800000000015,127.74671568,-1.65011904,-5.2139178
3.07,307,-0.03,-0.789,0.6409999999999999,-0.286479,0.4583664000000001,-0.1718874,127.7409861,-1.65011904,-5.20818822
3.08,308,-0.027000000000000003,-0.7909999999999999,0.635,-0.057295800000000015,0.0,-0.2291832000000001,127.7409861,-1.65011904,-5.20818822
3.09,309,-0.027999999999999997,-0.79,0.631,-0.057295800000000015,-0.8021411999999999,-0.1718874,127.7409861,-1.64438946,-5.2139178
3.0999999999999996,310,-0.031,-0.79,0.631,-0.057295800000000015,-1.145916,0.0,127.73525652,-1.6272007199999998,-5.21964738
3.11,311,-0.033,-0.7929999999999999,0.631,-0.057295800000000015,-0.9740286,0.057295800000000015,127.73525652,-1.62147114,-5.231106540000001
3.1199999999999997,312,-0.035,-0.794,0.632,-0.11459160000000004,-0.3437748,0.11459160000000004,127.72952694,-1.62147114,-5.231106540000001
3.13,313,-0.035,-0.792,0.63,-0.1718874,0.057295800000000015,0.057295800000000015,127.72952694,-1.62147114,-5.231106540000001
3.1399999999999997,314,-0.035,-0.7879999999999999,0.629,-0.2291832000000001,0.4583664000000001,0.057295800000000015,127.72952694,-1.6272007199999998,-5.231106540000001
3.15,315,-0.034,-0.789,0.627,-0.11459160000000004,0.7448454000000001,0.057295800000000015,127.70087904,-1.6272007199999998,-5.21964738
3.1599999999999997,316,-0.034,-0.792,0.628,0.1718874,0.8594370000000001,0.057295800000000015,127.70087904,-1.6329303,-5.2139178
3.17,317,-0.034,-0.7909999999999999,0.628,0.286479,0.8021411999999999,0.057295800000000015,127.70660862,-1.6386598799999998,-5.20818822
3.1799999999999997,318,-0.033,-0.7909999999999999,0.629,0.572958,0.8021411999999999,0.11459160000000004,127.7123382,-1.64438946,-5.2024586400000015
3.19,319,-0.032,-0.79,0.631,0.7448454000000001,0.9740286,0.286479,127.71806778,-1.65011904,-5.19672906
3.1999999999999997,320,-0.03,-0.792,0.632,0.8594370000000001,1.2032118,0.1718874,127.72952694,-1.65011904,-5.1852699
3.21,321,-0.026000000000000002,-0.792,0.633,0.9167328000000001,1.2605076000000002,0.1718874,127.7409861,-1.6558486199999998,-5.17954032
3.2199999999999998,322,-0.026000000000000002,-0.789,0.635,0.8594370000000001,1.3750992,0.057295800000000015,127.74671568,-1.6673077799999998,-5.16808116
3.23,323,-0.025,-0.79,0.639,0.9167328000000001,1.3750992,0.0,127.75817484,-1.6787669399999998,-5.1566220000000005
3.2399999999999998,324,-0.025,-0.789,0.6409999999999999,1.0313244000000001,1.4896908000000002,0.11459160000000004,127.76963400000001,-1.6844965200000002,-5.14516284
3.25,325,-0.023,-0.79,0.642,0.9167328000000001,1.3750992,0.057295800000000015,127.79255231999998,-1.67303736,-5.13370368
3.26,326,-0.024,-0.7879999999999999,0.643,0.8594370000000001,1.145916,0.0,127.80401148,-1.6787669399999998,-5.1222445200000015
3.27,327,-0.026000000000000002,-0.785,0.645,0.7448454000000001,1.0886202,0.057295800000000015,127.80974106,-1.6844965200000002,-5.11651494
3.28,328,-0.027000000000000003,-0.785,0.647,0.7448454000000001,1.2032118,0.0,127.81547064,-1.6959556799999995,-5.10505578
3.29,329,-0.03,-0.787,0.648,0.6875496,1.6042823999999998,0.057295800000000015,127.8269298,-1.7074148399999998,-5.0935966200000005
3.3,330,-0.032,-0.7859999999999999,0.65,0.40107059999999994,2.1199446,0.057295800000000015,127.8555777,-1.71314442,-5.07640788
3.31,331,-0.03,-0.784,0.649,0.2291832000000001,2.291832,0.0,127.86130727999998,-1.7246035799999997,-5.05921914
3.32,332,-0.027999999999999997,-0.784,0.65,0.2291832000000001,1.9480572,-0.057295800000000015,127.86130727999998,-1.73606274,-5.042030400000002
3.33,333,-0.027000000000000003,-0.784,0.647,0.11459160000000004,1.145916,-0.057295800000000015,127.86130727999998,-1.74179232,-5.03630082
3.34,334,-0.027000000000000003,-0.784,0.6459999999999999,0.0,0.8021411999999999,-0.057295800000000015,127.86130727999998,-1.7475218999999995,-5.02484166
3.3499999999999996,335,-0.027999999999999997,-0.784,0.645,0.0,0.7448454000000001,0.0,127.91860308,-1.71314442,-5.0133825000000005
3.36,336,-0.028999999999999998,-0.785,0.6459999999999999,0.0,1.0313244000000001,-0.057295800000000015,127.91860308,-1.7188740000000002,-5.00765292
3.3699999999999997,337,-0.031,-0.785,0.644,-0.057295800000000015,1.2032118,-0.057295800000000015,127.9128735,-1.7246035799999997,-4.99619376
3.38,338,-0.031,-0.7859999999999999,0.642,-0.057295800000000015,1.2605076000000002,0.0,127.9128735,-1.73033316,-4.9847345999999995
3.3899999999999997,339,-0.031,-0.7859999999999999,0.64,-0.057295800000000015,1.2032118,0.0,127.9128735,-1.74179232,-4.97900502
3.4,340,-0.032,-0.787,0.639,-0.057295800000000015,1.0886202,-0.11459160000000004,127.92433266,-1.73033316,-4.96754586
3.4099999999999997,341,-0.031,-0.787,0.637,-0.11459160000000004,1.145916,0.0,127.91860308,-1.74179232,-4.9560867
3.42,342,-0.033,-0.787,0.639,0.057295800000000015,1.145916,-0.057295800000000015,127.91860308,-1.7475218999999995,-4.95035712
3.4299999999999997,343,-0.033,-0.7879999999999999,0.637,0.11459160000000004,0.9740286,-0.057295800000000015,127.91860308,-1.75325148,-4.93889796
3.44,344,-0.034,-0.7879999999999999,0.637,0.11459160000000004,0.9167328000000001,-0.057295800000000015,127.92433266,-1.75898106,-4.93316838
3.4499999999999997,345,-0.035,-0.789,0.637,0.1718874,0.9167328000000001,-0.11459160000000004,127.93006224,-1.75325148,-4.9217092199999986
3.46,346,-0.034,-0.789,0.636,0.1718874,0.9740286,0.0,127.93579182,-1.75898106,-4.91597964
3.4699999999999998,347,-0.034,-0.789,0.638,0.11459160000000004,0.9740286,0.0,127.93579182,-1.77044022,-4.91025006
3.48,348,-0.033,-0.79,0.638,0.11459160000000004,0.8594370000000001,0.0,127.93579182,-1.77044022,-4.898790900000002
3.4899999999999998,349,-0.033,-0.7879999999999999,0.637,0.11459160000000004,0.8594370000000001,0.0,127.93579182,-1.7761698000000001,-4.893061319999998
3.5,350,-0.031,-0.789,0.634,0.2291832000000001,0.572958,0.057295800000000015,127.93579182,-1.75898106,-4.88733174
3.51,351,-0.032,-0.789,0.634,0.40107059999999994,0.2291832000000001,0.057295800000000015,127.94152139999998,-1.75898106,-4.88733174
3.52,352,-0.033,-0.789,0.633,0.40107059999999994,-0.057295800000000015,0.11459160000000004,127.94152139999998,-1.75898106,-4.88733174
3.53,353,-0.034,-0.789,0.634,0.5156622000000001,-0.286479,0.11459160000000004,127.94725098,-1.75898106,-4.88733174
3.54,354,-0.036000000000000004,-0.789,0.635,0.5156622000000001,-0.286479,0.1718874,127.95298056,-1.75898106,-4.893061319999998
3.55,355,-0.036000000000000004,-0.7879999999999999,0.637,0.572958,-0.11459160000000004,0.1718874,127.9701693,-1.75325148,-4.893061319999998
3.56,356,-0.034,-0.7879999999999999,0.638,0.4583664000000001,-0.11459160000000004,0.2291832000000001,127.97589888,-1.75325148,-4.898790900000002
3.57,357,-0.032,-0.7879999999999999,0.639,0.2291832000000001,-0.286479,0.286479,127.97589888,-1.75325148,-4.90452048
3.58,358,-0.028999999999999998,-0.7859999999999999,0.639,0.1718874,-0.4583664000000001,0.40107059999999994,127.98162846,-1.75898106,-4.91025006
3.59,359,-0.026000000000000002,-0.787,0.637,0.057295800000000015,-0.4583664000000001,0.4583664000000001,127.98162846,-1.75898106,-4.91597964
3.5999999999999996,360,-0.028999999999999998,-0.7859999999999999,0.636,0.1718874,-0.5156622000000001,0.572958,127.99308761999998,-1.74179232,-4.9217092199999986
3.61,361,-0.03,-0.787,0.64,0.4583664000000001,-0.6302538000000001,0.5156622000000001,127.9988172,-1.74179232,-4.9274388
3.6199999999999997,362,-0.031,-0.787,0.643,0.3437748,-0.572958,0.572958,128.00454678,-1.74179232,-4.93889796
3.63,363,-0.03,-0.787,0.645,0.1718874,-0.40107059999999994,0.4583664000000001,128.00454678,-1.74179232,-4.94462754
3.6399999999999997,364,-0.027000000000000003,-0.7859999999999999,0.6409999999999999,0.286479,-0.1718874,0.6302538000000001,128.01027635999998,-1.7475218999999995,-4.95035712
3.65,365,-0.024,-0.7859999999999999,0.637,0.2291832000000001,-0.1718874,0.572958,128.01600594,-1.71314442,-4.94462754
3.6599999999999997,366,-0.025,-0.787,0.639,0.11459160000000004,-0.6875496,0.5156622000000001,128.01600594,-1.71314442,-4.9560867
3.67,367,-0.03,-0.787,0.642,0.1718874,-1.0313244000000001,0.572958,128.02173552000002,-1.71314442,-4.96754586
3.6799999999999997,368,-0.035,-0.789,0.644,0.1718874,-0.8594370000000001,0.7448454000000001,128.02173552000002,-1.71314442,-4.97900502
3.69,369,-0.036000000000000004,-0.79,0.645,0.0,-0.3437748,0.8021411999999999,128.02173552000002,-1.7188740000000002,-4.9847345999999995
3.6999999999999997,370,-0.034,-0.7879999999999999,0.645,-0.286479,-0.1718874,0.7448454000000001,128.04465384,-1.7074148399999998,-4.99046418
3.71,371,-0.03,-0.785,0.643,-0.11459160000000004,-0.572958,0.6875496,128.04465384,-1.7074148399999998,-5.0019233399999985
3.7199999999999998,372,-0.027999999999999997,-0.7859999999999999,0.639,0.0,-1.0886202,0.8021411999999999,128.04465384,-1.7074148399999998,-5.0133825000000005
3.73,373,-0.028999999999999998,-0.7859999999999999,0.64,-0.11459160000000004,-1.6042823999999998,0.8021411999999999,128.04465384,-1.70168526,-5.03057124
3.7399999999999998,374,-0.031,-0.7859999999999999,0.638,-0.057295800000000015,-1.8334656000000005,0.8594370000000001,128.04465384,-1.6959556799999995,-5.05348956
3.75,375,-0.033,-0.7859999999999999,0.639,0.0,-1.432395,0.8594370000000001,128.05038342,-1.6902260999999998,-5.06494872
3.76,376,-0.034,-0.787,0.64,0.0,-1.0313244000000001,0.9167328000000001,128.05038342,-1.6902260999999998,-5.08213746
3.77,377,-0.034,-0.7879999999999999,0.639,-0.057295800000000015,-0.6875496,0.9740286,128.05038342,-1.6959556799999995,-5.0935966200000005
3.78,378,-0.036000000000000004,-0.784,0.64,-0.11459160000000004,-0.6302538000000001,1.0886202,128.05038342,-1.70168526,-5.10505578
3.79,379,-0.04,-0.7859999999999999,0.638,-0.1718874,-1.0886202,1.3178034,128.05038342,-1.70168526,-5.1222445200000015
3.8,380,-0.042,-0.7879999999999999,0.637,-0.40107059999999994,-1.7188740000000002,1.432395,128.04465384,-1.7074148399999998,-5.14516284
3.81,381,-0.038,-0.789,0.638,-0.5156622000000001,-1.9480572,1.3750992,128.03892426,-1.7074148399999998,-5.16808116
3.82,382,-0.033,-0.789,0.639,-0.6302538000000001,-1.4896908000000002,1.0886202,128.03319468,-1.7074148399999998,-5.1852699
3.83,383,-0.03,-0.787,0.638,-0.572958,-0.6875496,0.9740286,128.02746509999997,-1.7074148399999998,-5.19672906
3.84,384,-0.031,-0.7879999999999999,0.638,-0.572958,-0.11459160000000004,0.9167328000000001,128.02173552000002,-1.71314442,-5.2024586400000015
3.8499999999999996,385,-0.031,-0.787,0.64,-0.572958,0.1718874,0.9167328000000001,128.02173552000002,-1.71314442,-5.20818822
3.86,386,-0.027000000000000003,-0.787,0.639,-0.6875496,0.0,0.9740286,128.01600594,-1.7246035799999997,-5.2139178
3.8699999999999997,387,-0.019,-0.787,0.6409999999999999,-1.3178034,0.286479,0.9167328000000001,127.9988172,-1.73033316,-5.21964738
3.88,388,-0.015,-0.795,0.638,-2.291832,1.145916,0.7448454000000001,127.97589888,-1.7475218999999995,-5.2139178
3.8899999999999997,389,-0.019,-0.7959999999999999,0.632,-3.0366774,1.6615782,0.8594370000000001,127.94725098,-1.76471064,-5.20818822
3.9,390,-0.03,-0.792,0.63,-3.0939732,1.5469866,1.0886202,127.90714392,-1.7761698000000001,-5.2024586400000015
3.9099999999999997,391,-0.036000000000000004,-0.7909999999999999,0.631,-2.4637194,1.432395,1.145916,127.88422560000001,-1.79908812,-5.19672906
3.92,392,-0.038,-0.7909999999999999,0.63,-2.0053530000000004,1.432395,1.2032118,127.86130727999998,-1.81627686,-5.19672906
3.9299999999999997,393,-0.034,-0.7909999999999999,0.634,-2.1199446,1.4896908000000002,1.2605076000000002,127.83838896,-1.8334656000000005,-5.19099948
3.94,394,-0.03,-0.792,0.639,-2.1199446,1.4896908000000002,1.2032118,127.82120022,-1.85638392,-5.1852699
3.9499999999999997,395,-0.031,-0.79,0.647,-2.1199446,1.5469866,1.2032118,127.80974106,-1.86784308,-5.1852699
3.96,396,-0.032,-0.7909999999999999,0.6459999999999999,-2.6929026,1.432395,1.2032118,127.78109316,-1.88503182,-5.17954032
3.9699999999999998,397,-0.032,-0.7929999999999999,0.63,-3.6096353999999997,1.4896908000000002,1.432395,127.7409861,-1.90795014,-5.17954032
3.98,398,-0.03,-0.795,0.622,-4.0680017999999984,1.6615782,1.6042823999999998,127.70087904,-1.93086846,-5.17381074
3.9899999999999998,399,-0.027000000000000003,-0.7959999999999999,0.628,-4.0680017999999984,2.0626488000000003,1.6042823999999998,127.66077198,-1.9595163600000003,-5.16808116
4.0,400,-0.025,-0.795,0.635,-4.1825934,2.291832,1.4896908000000002,127.62066492,-1.9767051,-5.16235158
4.01,401,-0.026000000000000002,-0.792,0.637,-4.4117766,2.291832,1.432395,127.57482828,-1.99962342,-5.15089242
4.02,402,-0.028999999999999998,-0.79,0.634,-4.5263682,1.5469866,1.2032118,127.52326206,-2.02254174,-5.14516284
4.03,403,-0.034,-0.7879999999999999,0.624,-4.297185,0.8021411999999999,1.0313244000000001,127.483155,-2.0340009,-5.15089242
4.04,404,-0.04,-0.7929999999999999,0.625,-3.7815228,0.9740286,0.9167328000000001,127.44304794,-2.05118964,-5.14516284
4.05,405,-0.038,-0.8,0.631,-3.4377480000000005,2.1772404,0.8594370000000001,127.40867045999998,-2.0626488000000003,-5.13370368
4.06,406,-0.035,-0.8029999999999999,0.631,-3.6096353999999997,3.9534102,0.6875496,127.36856340000001,-2.09702628,-5.11078536
4.07,407,-0.033,-0.8009999999999999,0.63,-4.2398892,5.443101,0.7448454000000001,127.32272676,-2.13713334,-5.0706783
4.08,408,-0.033,-0.7979999999999999,0.629,-4.6409598,5.6149884000000005,0.9167328000000001,127.27116054,-2.1772404,-5.03630082
4.09,409,-0.028999999999999998,-0.795,0.621,-4.8701430000000006,4.583664,1.3750992,127.21959432,-2.21734746,-5.00765292
4.1,410,-0.027999999999999997,-0.7909999999999999,0.615,-5.2139178,2.5210152000000003,1.7188740000000002,127.1680281,-2.24026578,-5.0019233399999985
4.109999999999999,411,-0.04,-0.795,0.613,-5.3285094000000015,0.3437748,1.6042823999999998,127.11073229999998,-2.25172494,-5.00765292
4.12,412,-0.044000000000000004,-0.805,0.611,-5.9014674000000005,0.6875496,1.2605076000000002,127.0534365,-2.26891368,-5.00765292
4.13,413,-0.038,-0.815,0.613,-6.875496000000001,3.6096353999999997,1.6042823999999998,126.97895196,-2.30329116,-4.99046418
4.14,414,-0.042,-0.815,0.622,-7.9641161999999985,6.0160589999999985,2.1772404,126.89873784,-2.36058696,-4.96181628
4.1499999999999995,415,-0.052000000000000005,-0.804,0.617,-9.1100322,6.875496000000001,2.4064236,126.80133498,-2.42361234,-4.9217092199999986
4.16,416,-0.040999999999999995,-0.799,0.603,-9.8548776,7.5057497999999985,2.5783110000000002,126.69820253999998,-2.48663772,-4.88160216
4.17,417,-0.026000000000000002,-0.81,0.5920000000000001,-11.2872726,6.7609043999999985,3.4377480000000005,126.57788136,-2.55539268,-4.85295426
4.18,418,-0.028999999999999998,-0.812,0.57,-12.834259199999998,3.9534102,4.5263682,126.45183059999998,-2.61841806,-4.84722468
4.1899999999999995,419,-0.022000000000000002,-0.8170000000000001,0.5870000000000001,-13.8655836,1.4896908000000002,4.5263682,126.30859110000002,-2.6642547000000003,-4.86441342
4.2,420,-0.024,-0.828,0.573,-15.928232399999999,-0.9740286,4.583664,126.1367037,-2.6929026,-4.90452048
4.21,421,-0.049,-0.836,0.5720000000000001,-17.475219,-2.4064236,4.1252976000000015,125.9648163,-2.71009134,-4.95035712
4.22,422,-0.066,-0.8320000000000001,0.601,-17.6471064,0.2291832000000001,1.8334656000000005,125.78719932,-2.72728008,-4.96181628
4.2299999999999995,423,-0.054000000000000006,-0.812,0.603,-17.5325148,5.2712136,-0.572958,125.60385276,-2.7501984,-4.91597964
4.24,424,-0.033,-0.7959999999999999,0.603,-16.501190400000002,7.8495246,-0.6875496,125.43196536,-2.79603504,-4.85295426
4.25,425,-0.027000000000000003,-0.8029999999999999,0.601,-14.667724800000002,8.59437,0.0,125.27726670000001,-2.8361421,-4.784199299999999
4.26,426,-0.027999999999999997,-0.8220000000000001,0.602,-14.32395,6.8182002000000015,0.572958,125.12829761999998,-2.88197874,-4.73836266
4.27,427,-0.033,-0.84,0.604,-16.1001198,4.4117766,1.432395,124.9621398,-2.9220857999999996,-4.71544434
4.28,428,-0.026000000000000002,-0.85,0.61,-17.7044022,0.9167328000000001,1.2605076000000002,124.78452282,-2.93927454,-4.71544434
4.29,429,-0.027999999999999997,-0.8440000000000001,0.625,-19.308684600000007,-2.4637194,0.3437748,124.58971709999999,-2.92781538,-4.73836266
4.3,430,-0.043,-0.8340000000000001,0.654,-20.3973048,-4.1825934,0.11459160000000004,124.39491137999998,-2.90489706,-4.77846972
4.31,431,-0.067,-0.8390000000000001,0.688,-21.027558600000006,-4.3544808,-0.11459160000000004,124.18291692,-2.87624916,-4.812847199999998
4.32,432,-0.09,-0.84,0.7040000000000001,-21.944291399999997,-4.1825934,-0.11459160000000004,123.96519288,-2.85333084,-4.85295426
4.33,433,-0.10300000000000001,-0.8340000000000001,0.69,-23.0902074,-2.9793816000000004,0.3437748,123.7302801,-2.8361421,-4.88160216
4.34,434,-0.091,-0.841,0.669,-23.5485738,-0.057295800000000015,0.9167328000000001,123.48963774,-2.84187168,-4.88733174
4.35,435,-0.063,-0.858,0.63,-23.5485738,2.0626488000000003,1.6042823999999998,123.25472496,-2.87051958,-4.88733174
4.36,436,-0.054000000000000006,-0.868,0.624,-23.0329116,2.2345362,2.5783110000000002,123.01981218,-2.90489706,-4.88160216
4.37,437,-0.055999999999999994,-0.882,0.6509999999999999,-22.2307704,2.9220858,2.5783110000000002,122.79635856,-2.93927454,-4.87587258
4.38,438,-0.052000000000000005,-0.889,0.67,-23.2620948,4.0680017999999984,2.2345362,122.5557162,-2.98511118,-4.8586838399999985
4.39,439,-0.057999999999999996,-0.871,0.669,-25.0955604,3.3231564,2.1772404,122.30361468,-3.01948866,-4.84722468
4.3999999999999995,440,-0.052000000000000005,-0.853,0.682,-25.9549974,2.6929026,1.6615782,122.05151315999998,-3.04813656,-4.83576552
4.41,441,-0.055,-0.851,0.674,-27.272800800000002,2.4064236,1.2605076000000002,121.77076374,-3.07105488,-4.83003594
4.42,442,-0.079,-0.836,0.6659999999999999,-28.1895336,2.86479,0.3437748,121.48428474,-3.0939732,-4.812847199999998
4.43,443,-0.083,-0.847,0.655,-28.762491600000004,5.3285094000000015,-0.8594370000000001,121.19207616,-3.11116194,-4.76701056
4.4399999999999995,444,-0.073,-0.873,0.653,-29.5646328,7.0473834,-1.5469866,120.88267884,-3.13408026,-4.703985179999999
4.45,445,-0.062,-0.897,0.6579999999999999,-30.997027799999998,6.589017,-1.2605076000000002,120.57328152,-3.1627281600000003,-4.64668938
4.46,446,-0.061,-0.903,0.665,-32.658606,6.0733548,-0.7448454000000001,120.24096588,-3.18564648,-4.59512316
4.47,447,-0.06,-0.899,0.6629999999999999,-35.0650296,6.8182002000000015,-1.3750992,119.88000234,-3.2085648000000004,-4.53782736
4.4799999999999995,448,-0.073,-0.889,0.63,-38.10170700000001,7.161975,-2.1772404,119.4903909,-3.2314831199999987,-4.4690724
4.49,449,-0.068,-0.8640000000000001,0.599,-40.7373138,7.6776372,-2.9220858,119.07213156,-3.24294228,-4.39458786
4.5,450,-0.051,-0.8420000000000001,0.5660000000000001,-42.742666799999995,7.7922288,-3.1512689999999997,118.63668348,-3.25440144,-4.3201033199999985
4.51,451,-0.046,-0.861,0.542,-43.77399120000001,6.1879464,-2.6929026,118.18977624,-3.26013102,-4.25707794
4.52,452,-0.038,-0.887,0.529,-44.8053156,5.958763200000001,-1.7761698000000001,117.72568026000002,-3.27731976,-4.20551172
4.53,453,-0.036000000000000004,-0.912,0.502,-46.123119,5.5003968,-1.3178034,117.2558547,-3.2945085,-4.15967508
4.54,454,-0.04,-0.9229999999999999,0.495,-47.211739200000004,5.1566220000000005,-1.5469866,116.77456998,-3.3059676599999994,-4.11383844
4.55,455,-0.026000000000000002,-0.9079999999999999,0.488,-47.9565846,5.2139178,-1.7188740000000002,116.28755568,-3.3116972399999995,-4.06227222
4.56,456,-0.03,-0.89,0.486,-48.3576552,4.583664,-2.4064236,115.78908222,-3.3116972399999995,-4.022165159999999
4.57,457,-0.046,-0.885,0.473,-48.8733174,4.6409598,-3.1512689999999997,115.29060876,-3.3059676599999994,-3.97059894
4.58,458,-0.045,-0.9209999999999999,0.457,-48.3576552,5.9014674000000005,-3.4950437999999995,114.79786488,-3.30023808,-3.91330314
4.59,459,-0.044000000000000004,-0.97,0.445,-50.420303999999994,4.9847346,-3.2085647999999996,114.28220268,-3.2945085,-3.86173692
4.6,460,-0.051,-0.986,0.433,-52.5975444,2.86479,-2.86479,113.74362216,-3.27731976,-3.82735944
4.61,461,-0.055999999999999994,-0.9890000000000001,0.428,-53.7434604,2.4064236,-2.6929026,113.19358248,-3.2658606,-3.80444112
4.62,462,-0.051,-0.983,0.42200000000000004,-55.00396800000001,3.5523396000000003,-2.7501984,112.63208364,-3.26013102,-3.77006364
4.63,463,-0.054000000000000006,-0.9790000000000001,0.41200000000000003,-55.92070079999999,4.297185,-2.8074942000000003,112.06485522,-3.2486718599999995,-3.7242269999999995
4.64,464,-0.057,-0.982,0.415,-56.72284200000001,4.9274388,-2.8074942000000003,111.48616764,-3.2486718599999995,-3.67839036
4.6499999999999995,465,-0.062,-0.987,0.40700000000000003,-58.67089920000001,5.9014674000000005,-2.7501984,110.88456174,-3.24294228,-3.62109456
4.66,466,-0.07,-0.985,0.39299999999999996,-59.874111,5.844171599999999,-3.0366774,110.27149668,-3.24294228,-3.56379876
4.67,467,-0.081,-0.98,0.389,-60.6189564,5.2139178,-3.380452200000001,109.65270204,-3.2314831199999987,-3.5122325400000003
4.68,468,-0.08199999999999999,-0.975,0.385,-61.87946400000001,6.703608600000001,-3.7815228,109.02244824,-3.22002396,-3.4492071599999994
4.6899999999999995,469,-0.078,-0.973,0.38,-63.02538000000001,8.5370742,-4.297185,108.3750057,-3.214294380000001,-3.36326346
4.7,470,-0.08900000000000001,-0.976,0.379,-64.457775,10.1986524,-4.4117766,107.716104,-3.2085648000000004,-3.26013102
4.71,471,-0.092,-0.982,0.3670000000000001,-65.89017,11.917526400000002,-4.583664,107.04001356,-3.20283522,-3.14553942
4.72,472,-0.09699999999999999,-0.993,0.35200000000000004,-67.1506776,12.6623718,-4.8128472,106.34673438,-3.20283522,-3.01948866
4.7299999999999995,473,-0.105,-1.0,0.33799999999999997,-68.8695516,12.318597,-4.9847346,105.64199604,-3.1913760600000005,-2.89916748
4.74,474,-0.09300000000000001,-1.005,0.33399999999999996,-69.8435802,13.178034,-5.2139178,104.92006896,-3.18564648,-2.76738714
4.75,475,-0.08,-1.001,0.325,-71.1040878,14.209358400000001,-5.443101,104.1924123,-3.1741873200000006,-2.62987722
4.76,476,-0.078,-0.9890000000000001,0.319,-72.65107440000001,15.068795399999999,-5.2139178,103.44756690000001,-3.16845774,-2.48090814
4.77,477,-0.07,-0.981,0.301,-73.79699040000001,16.501190400000002,-5.2712136,102.68553276,-3.1627281600000003,-2.3204799
4.78,478,-0.067,-0.978,0.29600000000000004,-75.05749800000002,16.959556799999998,-5.3858052,101.91203946,-3.15699858,-2.15432208
4.79,479,-0.066,-0.977,0.294,-76.2607098,16.959556799999998,-5.2139178,101.127087,-3.14553942,-1.99389384
4.8,480,-0.055999999999999994,-0.971,0.28800000000000003,-77.1201468,15.5844576,-4.7555514,100.33640496,-3.13408026,-1.84492476
4.81,481,-0.055999999999999994,-0.9640000000000001,0.292,-77.1201468,14.9542038,-4.583664,99.54572292,-3.12835068,-1.6959556799999995
4.82,482,-0.045,-0.9620000000000001,0.28300000000000003,-77.52121740000003,15.527161800000002,-4.6409598,98.7493113,-3.11116194,-1.5469866
4.83,483,-0.035,-0.972,0.266,-78.09417540000003,15.4125702,-5.042030400000002,97.9471701,-3.0939732,-1.4037471000000001
4.84,484,-0.037000000000000005,-0.985,0.251,-79.29738719999997,15.756345,-5.6149884000000005,97.12784016,-3.07105488,-1.24904844
4.85,485,-0.040999999999999995,-0.991,0.231,-79.5838662,14.8396122,-6.3025379999999975,96.3142398,-3.03094782,-1.10580894
4.86,486,-0.051,-1.012,0.217,-79.5838662,14.32395,-6.9327918,95.50063944,-2.99084076,-0.96829902
4.87,487,-0.046,-1.012,0.204,-80.04223259999998,14.381245800000002,-7.448453999999999,94.67557992,-2.93354496,-0.8307891
4.88,488,-0.035,-0.996,0.2,-79.87034519999997,14.266654199999998,-8.021412000000002,93.85624998,-2.87624916,-0.69327918
4.89,489,-0.027999999999999997,-1.003,0.203,-79.641162,13.980175199999998,-8.7662574,93.04264962,-2.8074942000000003,-0.55576926
4.8999999999999995,490,-0.028999999999999998,-0.99,0.20600000000000002,-80.5578948,14.1520626,-9.453807,92.22331968,-2.72728008,-0.42398892
4.91,491,-0.026000000000000002,-1.0,0.182,-81.932994,14.896907999999998,-9.740286,91.38107142,-2.64706596,-0.28074942
4.92,492,-0.023,-1.001,0.124,-84.3394176,15.5844576,-10.026765,90.51590484,-2.5611222600000003,-0.13750992
4.93,493,-0.019,-0.9990000000000001,0.08800000000000001,-84.68319240000002,13.8655836,-10.1413566,89.65073826,-2.46944898,-0.00572958
4.9399999999999995,494,-0.026000000000000002,-0.9890000000000001,0.08,-82.4486562,11.2872726,-10.5424272,88.80848999999998,-2.37204612,0.0859437
4.95,495,-0.025,-1.024,0.115,-81.64651500000002,9.7975818,-10.599723,87.9777009,-2.2746432600000004,0.1718874
4.96,496,-0.033,-1.004,0.177,-83.93834700000002,9.568398599999998,-11.5164558,87.12399348,-2.1657812400000003,0.25210152
4.97,497,-0.03,-1.026,0.198,-88.0063488,9.3392154,-11.45916,86.22444942,-2.05691922,0.33231564
4.9799999999999995,498,-0.003,-1.031,0.07400000000000001,-91.6159842,7.1046792000000005,-11.0007936,85.29052787999998,-1.95378678,0.38388186
4.99,499,0.01,-1.0590000000000002,0.02,-95.2256196,1.3750992,-10.3705398,84.32795844,-1.85638392,0.37815228
5.0,500,-0.024,-1.075,0.005,-91.0430262,-4.010706000000001,-10.3705398,83.41122564,-1.76471064,0.32085648
5.01,501,-0.035,-1.113,-0.022000000000000002,-89.03767320000001,0.1718874,-10.943497800000001,82.50595200000002,-1.6673077799999998,0.29793816
5.02,502,-0.019,-1.1079999999999999,-0.006,-89.7825186,4.8701430000000006,-11.2872726,81.59494878,-1.55844576,0.32085648
5.03,503,0.012,-1.102,0.021,-88.23553199999998,8.3651868,-10.026765,80.69540472,-1.4610428999999998,0.38388186
5.04,504,0.022000000000000002,-1.147,-0.027000000000000003,-90.813843,10.657018800000001,-8.250595200000001,79.76721276,-1.36936962,0.46409598
5.05,505,0.02,-1.16,-0.109,-96.3142398,12.032118,-6.6463128000000005,78.78745458,-1.29488508,0.56149884
5.06,506,-0.016,-1.177,-0.128,-96.4861272,8.7089616,-6.9327918,77.8076964,-1.22040054,0.61879464
5.07,507,-0.057,-1.178,-0.17600000000000002,-97.40286,7.9641161999999985,-9.167328,76.81647905999998,-1.12872726,0.6703608600000001
5.08,508,-0.048,-1.18,-0.20800000000000002,-98.09040959999999,12.0894138,-11.688343199999998,75.81953214,-1.0026765,0.75057498
5.09,509,-0.021,-1.17,-0.248,-98.4914802,14.896907999999998,-13.5791046,74.81112606,-0.8479778399999999,0.8537074199999999
5.1,510,0.012,-1.157,-0.298,-98.262297,17.6471064,-14.896907999999998,73.81417914,-0.6703608600000001,0.9740286
5.11,511,0.033,-1.149,-0.33899999999999997,-96.19964820000001,17.761698000000006,-14.8396122,72.82869138,-0.49274388,1.09434978
5.12,512,0.063,-1.113,-0.375,-93.0483792,15.011499599999999,-12.5477802,71.88331068,-0.3437748,1.19175264
5.13,513,0.099,-1.072,-0.40700000000000003,-87.49068659999998,8.880849000000003,-7.6203414,70.99522578,-0.25783110000000004,1.24331886
5.14,514,0.11,-1.0390000000000001,-0.41600000000000004,-80.67248640000003,1.145916,-2.6356068,70.17589584,-0.23491278,1.23758928
5.1499999999999995,515,0.11599999999999999,-1.001,-0.397,-75.8023434,-4.6409598,-0.3437748,69.40240254,-0.25210152,1.18602306
5.16,516,0.10300000000000001,-0.988,-0.419,-68.01011460000001,-8.7662574,-1.4896908000000002,68.71485294,-0.27501984,1.09434978
5.17,517,0.08199999999999999,-1.021,-0.425,-61.8221682,-7.906820400000001,-3.8961144,68.09032872,-0.26929026,1.0026765
5.18,518,0.045,-1.06,-0.43799999999999994,-57.00932099999999,-5.3858052,-4.9847346,67.51164114,-0.25210152,0.92819196
5.1899999999999995,519,0.011000000000000001,-1.08,-0.45399999999999996,-52.998615,-1.7761698000000001,-4.1252976000000015,66.97306062,-0.22345362,0.89381448
5.2,520,-0.006,-1.071,-0.473,-50.24841660000001,0.0,-1.8907614,66.45739842,-0.21199446,0.8823553199999999
5.21,521,-0.016,-1.04,-0.485,-46.409597999999995,-1.2032118,0.5156622000000001,65.98757286,-0.22918320000000006,0.87089616
5.22,522,-0.011000000000000001,-1.02,-0.495,-41.9978214,-2.5783110000000002,1.8334656000000005,65.56358394,-0.26356068,0.8479778399999999
5.2299999999999995,523,0.013000000000000001,-1.0070000000000001,-0.508,-39.018439799999996,-3.7815228,1.9480572,65.16824292,-0.29793816,0.8193299399999999
5.24,524,0.035,-0.991,-0.48700000000000004,-34.4347758,-6.130650599999999,1.9480572,64.81873854,-0.3437748,0.76776372
5.25,525,0.047,-0.9690000000000001,-0.499,-30.366774000000003,-6.703608600000001,2.3491277999999998,64.50361164,-0.38961144,0.7161975
5.26,526,0.031,-0.965,-0.474,-25.78311,-7.6776372,3.3231564,64.24578054,-0.4526368200000001,0.6589017
5.27,527,0.022000000000000002,-0.9640000000000001,-0.465,-23.14750320000001,-8.4224826,4.5263682,64.01086776000001,-0.53285094,0.6016058999999999
5.28,528,0.006999999999999999,-0.958,-0.48100000000000004,-20.7410796,-8.3651868,5.72958,63.7988733,-0.61879464,0.55003968
5.29,529,0.002,-0.95,-0.47600000000000003,-17.4179232,-7.2192707999999985,7.0473834,63.626985899999994,-0.7161975,0.5156622000000001
5.3,530,-0.013000000000000001,-0.941,-0.48100000000000004,-15.297978599999999,-5.3858052,7.3911582,63.46082808,-0.8078707799999998,0.4984734599999999
5.31,531,-0.02,-0.915,-0.508,-14.209358400000001,-3.2085647999999996,7.0473834,63.317588580000006,-0.8823553199999999,0.4984734599999999
5.32,532,-0.017,-0.883,-0.503,-11.3445684,-2.5210152000000003,6.0160589999999985,63.20299698,-0.95111028,0.5042030399999999
5.33,533,-0.018000000000000002,-0.853,-0.506,-9.740286,-2.7501984,4.9847346,63.10559412,-1.00840608,0.4984734599999999
5.34,534,-0.032,-0.818,-0.506,-7.734933000000002,-3.2085647999999996,3.5523396000000003,63.02538000000001,-1.05424272,0.4870143000000001
5.35,535,-0.032,-0.8009999999999999,-0.49,-4.4690724,-3.2658606,2.5783110000000002,62.92797714000001,-1.09434978,0.46982556
5.36,536,-0.017,-0.8079999999999999,-0.488,-2.1772404,-2.9793816000000004,2.1772404,62.910788399999994,-1.12872726,0.4526368200000001
5.37,537,0.003,-0.812,-0.473,-0.1718874,-3.0939732,2.2345362,62.90505882,-1.16310474,0.4297185000000001
5.38,538,0.023,-0.8079999999999999,-0.467,2.291832,-2.9793816000000004,2.5210152000000003,62.93370672,-1.19748222,0.41825934
5.39,539,0.027999999999999997,-0.795,-0.48100000000000004,4.4690724,-3.0939732,2.9793816000000004,62.97954336,-1.23758928,0.4010706000000001
5.3999999999999995,540,0.016,-0.8059999999999999,-0.456,8.479778399999999,-3.4950437999999995,3.8388186,63.04256874,-1.27196676,0.38961144
5.41,541,0.005,-0.8220000000000001,-0.47,10.7716104,-3.380452200000001,4.6409598,63.15716034,-1.32926256,0.38388186
5.42,542,-0.006,-0.841,-0.466,13.464512999999998,-3.2085647999999996,5.1566220000000005,63.29467026,-1.38655836,0.37815228
5.43,543,-0.026000000000000002,-0.853,-0.47100000000000003,16.1001198,-3.3231564,5.1566220000000005,63.4550985,-1.44385416,0.3724227000000001
5.4399999999999995,544,-0.039,-0.853,-0.45899999999999996,19.652459399999998,-3.2085647999999996,4.9274388,63.6556338,-1.50114996,0.36669312
5.45,545,-0.039,-0.85,-0.456,23.0329116,-2.9220858,4.5263682,63.87908742,-1.5527161800000002,0.36096354
5.46,546,-0.037000000000000005,-0.863,-0.45,26.8717302,-2.5210152000000003,4.2398892,64.15410726,-1.59855282,0.35523396
5.47,547,-0.021,-0.883,-0.423,29.507337,-1.2032118,4.3544808,64.45204542,-1.6386598799999998,0.36669312
5.4799999999999995,548,-0.009000000000000001,-0.9009999999999999,-0.418,32.372127,-0.572958,4.9847346,64.78436106000001,-1.6787669399999998,0.38388186
5.49,549,-0.008,-0.9079999999999999,-0.414,33.9764094,-0.9740286,5.6149884000000005,65.12813586000001,-1.73033316,0.4010706000000001
5.5,550,-0.015,-0.903,-0.39399999999999996,35.9817624,-0.9167328000000001,5.9014674000000005,65.4890994,-1.78189938,0.41825934
5.51,551,-0.023,-0.899,-0.37,37.7006364,0.2291832000000001,6.3025379999999975,65.87298125999999,-1.8334656000000005,0.4526368200000001
5.52,552,-0.027000000000000003,-0.888,-0.374,38.5600734,1.145916,6.589017,66.2625927,-1.88503182,0.49274388
5.53,553,-0.027999999999999997,-0.871,-0.361,40.2216516,2.2345362,6.417129599999999,66.66939288,-1.93086846,0.53858052
5.54,554,-0.02,-0.858,-0.336,42.742666799999995,4.2398892,6.2452422,67.10484096,-1.96524594,0.6073354799999999
5.55,555,-0.012,-0.8420000000000001,-0.314,44.2896534,6.4744254,6.2452422,67.54601862,-1.99389384,0.69327918
5.56,556,-0.009000000000000001,-0.828,-0.305,46.0658232,8.307891,6.2452422,68.0101146,-2.01681216,0.79641162
5.57,557,-0.004,-0.82,-0.287,47.841993,8.880849000000003,6.0733548,68.49139932,-2.03973048,0.90527364
5.58,558,-0.001,-0.818,-0.28800000000000003,49.274388,9.740286,6.3598338,68.98987278000001,-2.05691922,1.0255948199999998
5.59,559,-0.006,-0.8170000000000001,-0.273,51.0505578,10.4851314,7.161975,69.4998054,-2.08556712,1.15164558
5.6,560,-0.011000000000000001,-0.8059999999999999,-0.27399999999999997,53.1705024,10.599723,8.078707799999998,70.03265634,-2.1199446,1.28342592
5.61,561,-0.012,-0.795,-0.254,55.1758554,10.5424272,8.7089616,70.58842560000002,-2.16005166,1.41520626
5.62,562,-0.009000000000000001,-0.787,-0.24600000000000002,57.123912600000004,10.2559482,8.9954406,71.1613836,-2.21161788,1.5469866
5.63,563,-0.006999999999999999,-0.7829999999999999,-0.249,58.2698286,9.0527364,9.224623800000002,71.74580076,-2.2631841,1.6673077799999998
5.64,564,-0.013999999999999999,-0.7709999999999999,-0.217,59.8168152,6.2452422,8.9381448,72.34740666,-2.32620948,1.75898106
5.6499999999999995,565,-0.018000000000000002,-0.773,-0.19399999999999998,61.020027,7.0473834,8.479778399999999,72.9662013,-2.3777757,1.85638392
5.66,566,-0.026000000000000002,-0.775,-0.18899999999999997,62.16594300000001,8.3651868,8.136003599999999,73.59072552,-2.42934192,1.96524594
5.67,567,-0.02,-0.789,-0.2,63.5410422,10.1413566,7.6776372,74.23243848,-2.46944898,2.0912967
5.68,568,-0.021,-0.802,-0.195,65.030733,11.688343199999998,7.2765666,74.88561059999998,-2.50382646,2.22880662
5.6899999999999995,569,-0.017,-0.8190000000000001,-0.188,66.11935319999999,13.407217200000002,6.703608600000001,75.54451230000002,-2.53247436,2.3777757
5.7,570,-0.015,-0.8290000000000001,-0.184,67.0933818,13.8655836,6.8182002000000015,76.22060274,-2.5611222600000003,2.53820394
5.71,571,-0.018000000000000002,-0.836,-0.171,66.749607,12.1467096,7.5630456000000015,76.88523402000001,-2.6012293200000003,2.67571386
5.72,572,-0.018000000000000002,-0.843,-0.162,65.54639519999999,9.8548776,8.479778399999999,77.54413572000001,-2.65852512,2.80176462
5.7299999999999995,573,-0.009000000000000001,-0.8440000000000001,-0.162,63.5410422,10.4278356,8.5370742,78.18584868,-2.71582092,2.9220857999999996
5.74,574,0.0,-0.848,-0.171,61.994055599999996,10.4851314,8.136003599999999,78.80464332,-2.76738714,3.04813656
5.75,575,-0.006,-0.8270000000000001,-0.17600000000000002,61.24921020000001,9.1100322,8.136003599999999,79.41770838,-2.82468294,3.15699858
5.76,576,-0.002,-0.833,-0.155,61.1346186,8.021412000000002,8.4224826,80.03077343999998,-2.88770832,3.26013102
5.77,577,-0.001,-0.858,-0.127,60.16059,7.734933000000002,8.307891,80.63810892000002,-2.9564632800000004,3.3518043
5.78,578,-0.003,-0.87,-0.105,57.4676874,8.9381448,7.906820400000001,81.21679650000002,-3.0137590800000003,3.46066632
5.79,579,-0.004,-0.885,-0.13699999999999998,54.43101,8.59437,7.1046792000000005,81.76110659999998,-3.07105488,3.56379876
5.8,580,-0.005,-0.863,-0.154,53.0559108,7.2765666,5.72958,82.28822796,-3.11116194,3.644012880000001
5.81,581,-0.017,-0.8740000000000001,-0.152,53.628868800000006,5.844171599999999,4.9847346,82.82680848,-3.14553942,3.71849742
5.82,582,-0.033,-0.871,-0.133,53.34238979999999,4.6982555999999995,4.2398892,83.36538900000002,-3.1799169000000003,3.77579322
5.83,583,-0.043,-0.8759999999999999,-0.126,53.39968560000001,4.1825934,3.2085647999999996,83.90396952,-3.20283522,3.82162986
5.84,584,-0.054000000000000006,-0.882,-0.11800000000000001,51.6235158,4.6982555999999995,1.6615782,84.42536129999998,-3.214294380000001,3.87892566
5.85,585,-0.055999999999999994,-0.879,-0.11699999999999999,49.560867,6.4744254,-0.40107059999999994,84.91810518,-3.19710564,3.94768062
5.86,586,-0.061,-0.8740000000000001,-0.11900000000000001,49.560867,8.078707799999998,-2.0626488000000003,85.41657864,-3.16845774,4.02789474
5.87,587,-0.047,-0.8490000000000001,-0.114,50.5348956,8.136003599999999,-3.3231564,85.92078168,-3.12835068,4.11383844
5.88,588,-0.049,-0.863,-0.09300000000000001,50.993262,7.3911582,-4.0680017999999984,86.43644388,-3.0825140400000004,4.1883229800000015
5.89,589,-0.055,-0.878,-0.07400000000000001,50.0765292,8.880849000000003,-4.1825934,86.93491734,-3.03094782,4.27999626
5.8999999999999995,590,-0.059000000000000004,-0.895,-0.067,47.841993,11.3445684,-4.2398892,87.41047248,-2.98511118,4.40031744
5.91,591,-0.057999999999999996,-0.905,-0.071,45.2063862,13.980175199999998,-4.1825934,87.85737972,-2.93927454,4.53782736
5.92,592,-0.047,-0.9109999999999999,-0.079,43.258328999999996,17.0741484,-3.5523396000000003,88.28709822,-2.89916748,4.71544434
5.93,593,-0.040999999999999995,-0.922,-0.071,41.76863820000001,19.7097552,-2.1199446,88.69962798,-2.87051958,4.91025006
5.9399999999999995,594,-0.023,-0.919,-0.075,39.018439799999996,21.142150199999996,-0.6875496,89.08350984,-2.86479,5.127974099999999
5.95,595,-0.008,-0.934,-0.079,37.0703826,19.7097552,0.3437748,89.43301421999998,-2.85906042,5.3285094000000015
5.96,596,-0.012,-0.9640000000000001,-0.062,34.4920716,17.246035799999998,1.3750992,89.77105944,-2.87624916,5.5003968
5.97,597,-0.012,-1.006,-0.039,31.1689152,16.615782,2.4064236,90.08045676,-2.89916748,5.66655462
5.9799999999999995,598,0.006999999999999999,-1.056,-0.042,26.7571386,16.329303,4.5263682,90.33828786,-2.9507337000000002,5.83271244
5.99,599,0.016,-1.089,-0.045,22.517249399999997,12.776963400000001,7.5057497999999985,90.56174148,-3.02521824,5.96449278
6.0,600,0.015,-1.102,-0.039,18.506543399999998,7.3911582,10.313244000000001,90.73362888,-3.11689152,6.03897732
6.01,601,0.008,-1.097,-0.039,15.3552744,1.145916,12.0894138,90.88832754,-3.2372127,6.05043648
6.02,602,-0.002,-1.087,-0.044000000000000004,12.776963400000001,-5.443101,12.4904844,91.02010788,-3.35753388,5.9931406800000016
6.03,603,-0.03,-1.089,-0.038,11.0580894,-10.828906199999999,12.7196676,91.14042906,-3.47785506,5.88427866
6.04,604,-0.044000000000000004,-1.087,-0.02,9.2819196,-14.896907999999998,13.0634424,91.24929108,-3.60390582,5.735309579999999
6.05,605,-0.052000000000000005,-1.068,-0.009000000000000001,8.136003599999999,-17.8762896,12.9488508,91.33523478,-3.71849742,5.5576926
6.06,606,-0.062,-1.035,0.032,9.453807,-19.2513888,12.032118,91.44982638,-3.82735944,5.3628868800000005
6.07,607,-0.067,-1.011,0.046,10.1986524,-18.162768600000003,10.599723,91.57014756,-3.9247623,5.17954032
6.08,608,-0.081,-0.997,0.043,10.313244000000001,-18.449247600000003,10.026765,91.69046874,-4.010706,4.99619376
6.09,609,-0.114,-0.9990000000000001,0.051,6.5317212,-18.162768600000003,9.740286,91.77068286,-4.0966497,4.812847199999998
6.1,610,-0.14800000000000002,-0.997,0.061,1.7761698000000001,-16.386598799999998,9.5111028,91.81078992,-4.20551172,4.64668938
6.11,611,-0.185,-0.981,0.067,-1.145916,-14.209358400000001,9.2819196,91.81078992,-4.29145542,4.50344988
6.12,612,-0.201,-0.98,0.035,-2.5783110000000002,-11.8602306,8.880849000000003,91.79360118,-4.37166954,4.3831287
6.13,613,-0.21100000000000002,-0.9670000000000001,0.003,-3.2658606,-12.3758928,8.9381448,91.77068286,-4.45188366,4.25707794
6.14,614,-0.226,-0.946,0.0,-1.2032118,-13.980175199999998,9.3392154,91.77068286,-4.53782736,4.11383844
6.15,615,-0.222,-0.925,-0.002,0.11459160000000004,-12.776963400000001,9.2819196,91.77068286,-4.66387812,3.9820581
6.16,616,-0.19899999999999998,-0.894,0.0,1.2032118,-10.313244000000001,7.6203414,91.79360118,-4.73263308,3.873196080000002
6.17,617,-0.182,-0.866,-0.001,3.6096353999999997,-10.084060800000001,5.958763200000001,91.83943782,-4.78992888,3.77579322
6.18,618,-0.174,-0.8590000000000001,0.013000000000000001,6.3025379999999975,-10.828906199999999,3.4950437999999995,91.91392236,-4.812847199999998,3.666931200000001
6.1899999999999995,619,-0.17,-0.875,0.03,7.5057497999999985,-9.453807,-0.286479,91.99986606,-4.80711762,3.56952834
6.2,620,-0.168,-0.893,0.038,8.193299399999999,-7.2765666,-4.2398892,92.08580976,-4.784199299999999,3.50077338
6.21,621,-0.14400000000000002,-0.93,0.035,7.1046792000000005,-5.72958,-6.1879464,92.16602387999998,-4.72117392,3.4492071599999994
6.22,622,-0.10099999999999999,-0.97,0.023,5.3858052,-4.297185,-7.3911582,92.22331968,-4.6409598,3.4091001000000003
6.2299999999999995,623,-0.048,-1.01,0.01,3.8388186,-2.6929026,-9.167328,92.26342674,-4.549286520000001,3.38618178
6.24,624,-0.004,-1.05,-0.001,3.2085647999999996,-2.1199446,-10.7716104,92.29780422000002,-4.4404245000000016,3.3689930400000003
6.25,625,0.026000000000000002,-1.073,0.004,4.297185,-3.0939732,-11.917526400000002,92.3321817,-4.28572584,3.34607472
6.26,626,0.038,-1.072,0.033,6.9327918,-4.3544808,-12.834259199999998,92.40666624,-4.1539455,3.3116972399999995
6.27,627,0.022000000000000002,-1.06,0.068,8.8235532,-5.5576926,-13.407217200000002,92.49833952,-4.01643558,3.26013102
6.28,628,-0.018000000000000002,-1.047,0.08199999999999999,9.2819196,-7.3911582,-13.0061466,92.59574238000002,-3.87892566,3.19710564
6.29,629,-0.073,-1.043,0.078,7.6776372,-9.568398599999998,-10.886202,92.68168608,-3.76433406,3.1054323600000004
6.3,630,-0.11699999999999999,-1.042,0.066,5.3858052,-11.5737516,-7.6203414,92.74471146,-3.6955791,2.9965703400000003
6.31,631,-0.146,-1.04,0.06,3.6669312000000014,-12.318597,-4.3544808,92.7905481,-3.644012880000001,2.87624916
6.32,632,-0.158,-1.035,0.061,3.4950437999999995,-11.172680999999999,-1.7761698000000001,92.83638474,-3.61536498,2.76738714
6.33,633,-0.157,-1.034,0.055,4.2398892,-9.453807,-0.2291832000000001,92.88795096,-3.6096354,2.67571386
6.34,634,-0.15,-1.033,0.049,4.6982555999999995,-7.3911582,0.5156622000000001,92.93951718,-3.60390582,2.6012293200000003
6.35,635,-0.14300000000000002,-1.0270000000000001,0.051,4.1252976000000015,-5.2712136,0.6875496,92.96816508,-3.67266078,2.54393352
6.36,636,-0.136,-1.018,0.055,1.2605076000000002,-1.7188740000000002,0.057295800000000015,92.97962424,-3.67266078,2.52674478
6.37,637,-0.11599999999999999,-1.0170000000000001,0.049,-2.0053530000000004,1.8907614,-1.2032118,92.9624355,-3.66120162,2.54393352
6.38,638,-0.09300000000000001,-1.016,0.039,-4.583664,3.8961144,-2.4637194,92.91086928,-3.6382833,2.58404058
6.39,639,-0.067,-1.018,0.03,-6.2452422,4.1252976000000015,-3.1512689999999997,92.84211432,-3.6096354,2.62987722
6.4,640,-0.039,-1.018,0.025,-7.1046792000000005,3.2085647999999996,-3.2658606,92.74471146,-3.56379876,2.6642547000000003
6.41,641,-0.021,-1.008,0.027000000000000003,-6.875496000000001,1.7188740000000002,-3.6096353999999997,92.67022692,-3.52942128,2.68144344
6.42,642,-0.011000000000000001,-1.005,0.044000000000000004,-6.130650599999999,-0.286479,-4.0680017999999984,92.60720154,-3.48931422,2.68144344
6.43,643,-0.017,-1.002,0.052000000000000005,-5.0993262,-2.6929026,-4.0680017999999984,92.56136490000002,-3.4492071599999994,2.65279554
6.4399999999999995,644,-0.031,-1.002,0.055,-3.8388186,-4.7555514,-4.1252976000000015,92.52125784,-3.40337052,2.6069589
6.45,645,-0.045,-1.006,0.057999999999999996,-3.2085647999999996,-5.042030400000002,-4.010706000000001,92.49260994,-3.3518043,2.5611222600000003
6.46,646,-0.057,-1.0170000000000001,0.062,-2.4637194,-3.8961144,-4.4117766,92.46969162,-3.3059676599999994,2.5210152000000003
6.47,647,-0.065,-1.024,0.061,-2.5783110000000002,-1.4896908000000002,-5.042030400000002,92.44104372,-3.25440144,2.50955604
6.4799999999999995,648,-0.065,-1.024,0.055,-3.6096353999999997,1.2032118,-5.2712136,92.40666624,-3.20283522,2.52674478
6.49,649,-0.055,-1.0190000000000001,0.053,-4.4690724,3.5523396000000003,-5.2139178,92.35510002,-3.1512689999999997,2.5611222600000003
6.5,650,-0.038,-1.012,0.049,-5.042030400000002,5.042030400000002,-5.1566220000000005,92.29207464,-3.0939732,2.61268848
6.51,651,-0.018000000000000002,-1.004,0.044000000000000004,-5.5003968,5.72958,-5.2139178,92.23477884,-3.04813656,2.67571386
6.52,652,-0.005,-0.998,0.04,-5.72958,5.3285094000000015,-4.9274388,92.17175346,-3.00229992,2.72728008
6.53,653,-0.003,-0.998,0.043,-5.9014674000000005,3.9534102,-4.3544808,92.10872808,-2.96219286,2.76738714
6.54,654,-0.002,-0.995,0.057,-5.9014674000000005,2.0626488000000003,-3.4377480000000005,92.0457027,-2.92781538,2.79030546
6.55,655,-0.002,-0.995,0.068,-5.72958,0.5156622000000001,-2.8074942000000003,91.99986606,-2.85333084,2.80176462
6.56,656,0.001,-1.006,0.068,-5.9014674000000005,0.40107059999999994,-2.8074942000000003,91.93684068,-2.82468294,2.80176462
6.57,657,-0.002,-1.02,0.064,-5.958763200000001,1.0886202,-3.3231564,91.87381529999999,-2.79603504,2.81322378
6.58,658,-0.012,-1.0270000000000001,0.061,-5.2139178,2.291832,-3.4950437999999995,91.82224908,-2.76165756,2.8361421
6.59,659,-0.027000000000000003,-1.0190000000000001,0.059000000000000004,-4.5263682,3.2658606,-2.9793816000000004,91.77068286,-2.73300966,2.87051958
6.6,660,-0.033,-1.0070000000000001,0.061,-3.6096353999999997,4.2398892,-2.5210152000000003,91.74203496,-2.69863218,2.91635622
6.61,661,-0.033,-0.996,0.057,-2.9793816000000004,5.042030400000002,-2.5783110000000002,91.70765748,-2.67571386,2.96792244
6.62,662,-0.027999999999999997,-0.991,0.05,-2.86479,5.443101,-2.6929026,91.67328,-2.65279554,3.01948866
6.63,663,-0.023,-0.99,0.042,-2.86479,5.3858052,-2.8074942000000003,91.63890252,-2.62987722,3.07678446
6.64,664,-0.023,-0.995,0.034,-2.291832,5.042030400000002,-2.6929026,91.6159842,-2.6012293200000003,3.1226211000000004
6.65,665,-0.021,-1.001,0.032,-1.2032118,5.042030400000002,-2.1199446,91.58160672,-2.5611222600000003,3.1799169000000003
6.66,666,-0.02,-1.005,0.03,-0.057295800000000015,5.2139178,-1.432395,91.57587714,-2.54393352,3.2314831199999987
6.67,667,-0.025,-1.004,0.034,0.6875496,5.3858052,-1.2605076000000002,91.58160672,-2.53820394,3.28304934
6.68,668,-0.03,-0.997,0.037000000000000005,1.432395,6.130650599999999,-0.9740286,91.59306588,-2.53247436,3.34607472
6.6899999999999995,669,-0.034,-0.992,0.039,1.9480572,6.990087599999999,-0.6875496,91.61025462,-2.52674478,3.4148296799999995
6.7,670,-0.035,-0.9890000000000001,0.040999999999999995,2.4637194,7.448453999999999,-0.286479,91.62171378,-2.5210152000000003,3.48931422
6.71,671,-0.033,-0.986,0.040999999999999995,2.9793816000000004,7.6776372,0.286479,91.65036168,-2.52674478,3.56952834
6.72,672,-0.03,-0.983,0.038,3.4950437999999995,7.3911582,0.8594370000000001,91.67900958,-2.53820394,3.6382833
6.7299999999999995,673,-0.031,-0.988,0.037000000000000005,3.8388186,6.5317212,1.145916,91.71338706000002,-2.55539268,3.70703826
6.74,674,-0.036000000000000004,-0.993,0.036000000000000004,4.1825934,5.72958,0.9167328000000001,91.75349412,-2.56685184,3.76433406
6.75,675,-0.036000000000000004,-0.997,0.039,5.0993262,5.72958,0.2291832000000001,91.79933076,-2.5611222600000003,3.82162986
6.76,676,-0.031,-0.997,0.044000000000000004,6.589017,6.703608600000001,-0.40107059999999994,91.86235614,-2.5611222600000003,3.89038482
6.77,677,-0.025,-0.996,0.049,7.3911582,7.1046792000000005,-0.4583664000000001,91.9311111,-2.5611222600000003,3.95913978
6.78,678,-0.021,-0.996,0.054000000000000006,7.6776372,6.703608600000001,-0.2291832000000001,92.00559564,-2.5611222600000003,4.02789474
6.79,679,-0.016,-0.997,0.061,7.448453999999999,6.130650599999999,-0.057295800000000015,92.08008018,-2.5611222600000003,4.09092012
6.8,680,-0.013999999999999999,-1.002,0.068,6.990087599999999,5.6149884000000005,0.0,92.15456472,-2.54393352,4.14821592
6.81,681,-0.015,-1.0090000000000001,0.07,6.4744254,5.3285094000000015,0.3437748,92.2175901,-2.55539268,4.19978214
6.82,682,-0.016,-1.012,0.066,6.2452422,5.042030400000002,0.7448454000000001,92.2748859,-2.5611222600000003,4.25134836
6.83,683,-0.016,-1.013,0.066,6.0733548,4.6409598,0.8021411999999999,92.33791128,-2.57258142,4.297185000000002
6.84,684,-0.017,-1.0090000000000001,0.063,5.844171599999999,3.9534102,0.8594370000000001,92.39520708,-2.58404058,4.33729206
6.85,685,-0.019,-1.0090000000000001,0.064,5.5576926,3.1512689999999997,0.8021411999999999,92.4467733,-2.57258142,4.37166954
6.86,686,-0.025,-1.012,0.065,5.443101,2.3491277999999998,0.6875496,92.5040691,-2.578311,4.39458786
6.87,687,-0.028999999999999998,-1.016,0.066,5.3285094000000015,1.8334656000000005,0.5156622000000001,92.55563532,-2.58977016,4.4117766000000005
6.88,688,-0.028999999999999998,-1.014,0.067,5.3285094000000015,1.7761698000000001,0.40107059999999994,92.60720154,-2.58977016,4.42896534
6.89,689,-0.026000000000000002,-1.01,0.068,5.1566220000000005,1.8334656000000005,0.11459160000000004,92.65876776,-2.59549974,4.45188366
6.9,690,-0.022000000000000002,-1.004,0.068,4.8128472,1.6615782,-0.057295800000000015,92.71033398,-2.5611222600000003,4.4690724
6.91,691,-0.018000000000000002,-1.003,0.066,4.297185,1.6615782,-0.286479,92.75044104,-2.5611222600000003,4.48626114
6.92,692,-0.012,-1.005,0.063,4.010706000000001,1.4896908000000002,-0.11459160000000004,92.7905481,-2.5611222600000003,4.50344988
6.93,693,-0.006999999999999999,-1.008,0.06,3.9534102,0.9740286,0.0,92.83065516000002,-2.5611222600000003,4.51490904
6.9399999999999995,694,-0.006999999999999999,-1.0070000000000001,0.057999999999999996,3.8388186,0.2291832000000001,0.057295800000000015,92.87076222,-2.5611222600000003,4.51490904
6.95,695,-0.005,-1.006,0.057,3.7242269999999995,-0.572958,0.057295800000000015,92.88795096,-2.49809688,4.51490904
6.96,696,-0.006,-1.006,0.057,3.6669312000000014,-1.2605076000000002,0.0,92.92232844,-2.49809688,4.50344988
6.97,697,-0.006999999999999999,-1.0090000000000001,0.057,3.6096353999999997,-2.0626488000000003,-0.286479,92.9624355,-2.4923672999999997,4.48053156
6.9799999999999995,698,-0.011000000000000001,-1.0090000000000001,0.062,3.2085647999999996,-2.9793816000000004,-0.8021411999999999,92.99681298,-2.48090814,4.45188366
6.99,699,-0.012,-1.003,0.065,2.6929026,-4.010706000000001,-1.145916,93.02546088,-2.4637194,4.41750618
7.0,700,-0.022000000000000002,-1.0,0.064,2.1772404,-5.6149884000000005,-1.432395,93.0483792,-2.42934192,4.36021038
7.01,701,-0.023,-1.0,0.065,1.7761698000000001,-6.130650599999999,-1.7761698000000001,93.06556794,-2.4064236,4.30291458
7.02,702,-0.026000000000000002,-1.001,0.065,1.3750992,-6.417129599999999,-1.8907614,93.08275668,-2.38350528,4.2398892
7.03,703,-0.028999999999999998,-1.002,0.065,1.0886202,-6.1879464,-1.7188740000000002,93.09994542,-2.36058696,4.1825934
7.04,704,-0.03,-1.003,0.068,1.2032118,-5.6722842,-1.5469866,93.11713416,-2.3376686399999995,4.1252976000000015
7.05,705,-0.025,-1.008,0.069,1.3750992,-5.2139178,-1.432395,93.12859332,-2.30329116,4.07373138
7.06,706,-0.023,-1.013,0.071,1.6042823999999998,-5.0993262,-1.4896908000000002,93.14578206000002,-2.28037284,4.02789474
7.07,707,-0.024,-1.015,0.071,1.9480572,-5.042030400000002,-1.2032118,93.16870038,-2.2631841,3.97632852
7.08,708,-0.024,-1.014,0.069,2.1772404,-4.6982555999999995,-0.9740286,93.1916187,-2.25172494,3.93049188
7.09,709,-0.026000000000000002,-1.012,0.07,2.1772404,-4.2398892,-0.8021411999999999,93.2202666,-2.24026578,3.89038482
7.1,710,-0.027999999999999997,-1.0090000000000001,0.07200000000000001,1.8907614,-3.7815228,-0.8594370000000001,93.23172576,-2.21161788,3.85600734
7.11,711,-0.028999999999999998,-1.0070000000000001,0.07200000000000001,1.6615782,-3.380452200000001,-0.8021411999999999,93.24891449999998,-2.20015872,3.82162986
7.12,712,-0.027000000000000003,-1.0070000000000001,0.073,1.4896908000000002,-2.5783110000000002,-0.9167328000000001,93.26610324,-2.18869956,3.79871154
7.13,713,-0.023,-1.01,0.073,1.432395,-2.0626488000000003,-1.0313244000000001,93.28329198,-2.1772404,3.77579322
7.14,714,-0.022000000000000002,-1.015,0.075,1.6042823999999998,-2.3491277999999998,-1.0886202,93.30048072,-2.16005166,3.752874900000001
7.15,715,-0.023,-1.018,0.075,1.9480572,-2.6356068,-0.8594370000000001,93.31193988,-2.12567418,3.7299565800000014
7.16,716,-0.025,-1.012,0.07200000000000001,2.3491277999999998,-2.86479,-0.5156622000000001,93.34058778,-2.1199446,3.70130868
7.17,717,-0.024,-1.0090000000000001,0.071,2.5210152000000003,-2.86479,-0.1718874,93.3635061,-2.11421502,3.67266078
7.18,718,-0.024,-1.002,0.071,2.5210152000000003,-2.7501984,0.057295800000000015,93.392154,-2.10848544,3.64974246
7.1899999999999995,719,-0.027000000000000003,-1.0,0.073,2.4064236,-2.4637194,0.1718874,93.42080190000001,-2.10848544,3.62682414
7.2,720,-0.028999999999999998,-1.002,0.07400000000000001,2.3491277999999998,-2.0053530000000004,0.057295800000000015,93.43226106,-2.0912967,3.60390582
7.21,721,-0.032,-1.004,0.076,1.8907614,-1.432395,-0.1718874,93.45517938,-2.08556712,3.59244666
7.22,722,-0.033,-1.008,0.076,1.5469866,-1.2032118,-0.286479,93.47236812,-2.07983754,3.5809875
7.2299999999999995,723,-0.033,-1.01,0.07400000000000001,1.3750992,-1.3178034,-0.1718874,93.48382728,-2.07983754,3.56952834
7.24,724,-0.033,-1.01,0.071,1.3178034,-1.432395,-0.1718874,93.50101602,-2.07410796,3.5523396000000003
7.25,725,-0.031,-1.006,0.071,1.432395,-1.3178034,-0.1718874,93.48382728,-2.05118964,3.54088044
7.26,726,-0.03,-1.006,0.071,1.5469866,-0.9740286,0.0,93.50101602,-2.04546006,3.5351508600000003
7.27,727,-0.03,-1.005,0.071,1.6615782,-0.6302538000000001,0.0,93.51820476,-2.04546006,3.5236917
7.28,728,-0.03,-1.004,0.07,1.6042823999999998,-0.2291832000000001,0.0,93.53539350000001,-2.04546006,3.5236917
7.29,729,-0.03,-1.003,0.07,1.5469866,0.11459160000000004,0.0,93.55258224,-2.04546006,3.5236917
7.3,730,-0.03,-1.003,0.07,1.5469866,0.6302538000000001,0.0,93.52393434,-2.02254174,3.5351508600000003
7.31,731,-0.03,-1.004,0.07200000000000001,1.432395,0.8021411999999999,0.0,93.54112308,-2.02254174,3.54088044
7.32,732,-0.027000000000000003,-1.0090000000000001,0.07400000000000001,1.2605076000000002,1.0886202,0.0,93.55258224,-2.02254174,3.5523396000000003
7.33,733,-0.026000000000000002,-1.011,0.077,1.0886202,1.3178034,0.1718874,93.56404139999998,-2.02827132,3.56379876
