TimeStamp(s),FrameCounter,AccX,AccY,AccZ,GyrX,GyrY,GyrZ,EulerX,EulerY,EulerZ
0.01,1,0.017,-0.983,0.262,-0.8594370000000001,5.2139178,-1.2605076000000002,95.42615490000001,0.12605075999999998,-22.9756158
0.02,2,0.026000000000000002,-0.972,0.292,-0.6875496,5.443101,-1.7761698000000001,95.42042532,0.13750992,-22.92404958
0.03,3,0.035,-0.971,0.28800000000000003,-0.1718874,4.0680017999999984,-2.0626488000000003,95.42042532,0.15469866,-22.87821294
0.04,4,0.031,-0.9740000000000001,0.299,0.0,3.0366774,-2.0053530000000004,95.42042532,0.1718874,-22.84956504
0.05,5,0.027999999999999997,-0.971,0.311,-0.1718874,2.86479,-1.6042823999999998,95.58658314,0.21199446,-22.84383546
0.060000000000000005,6,0.028999999999999998,-0.965,0.311,0.057295800000000015,2.9220858,-1.432395,95.58658314,0.21772404,-22.80945798
0.06999999999999999,7,0.018000000000000002,-0.968,0.305,-0.1718874,2.291832,-0.8021411999999999,95.58658314,0.22345362,-22.78653966
0.08,8,0.017,-0.97,0.304,-0.2291832000000001,0.5156622000000001,-0.11459160000000004,95.58085356,0.22918320000000006,-22.78081008
0.09,9,0.03,-0.9670000000000001,0.301,-0.3437748,-0.6875496,0.0,95.58085356,0.22918320000000006,-22.792269240000003
0.09999999999999999,10,0.04,-0.966,0.301,-0.6302538000000001,-1.9480572,0.0,95.78711844,0.28074942,-22.84383546
0.11,11,0.042,-0.966,0.303,-0.9167328000000001,-3.8961144,0.2291832000000001,95.78138886,0.28647900000000004,-22.87821294
0.12,12,0.027000000000000003,-0.965,0.311,-1.2032118,-5.6722842,0.40107059999999994,95.7699297,0.28647900000000004,-22.93550874
0.13,13,0.017,-0.958,0.317,-1.3750992,-6.3598338,0.5156622000000001,95.75274096,0.29220857999999994,-22.99853412
0.14,14,0.013999999999999999,-0.95,0.316,-1.2605076000000002,-6.1879464,0.5156622000000001,95.7412818,0.29220857999999994,-23.0615595
0.15000000000000002,15,0.016,-0.951,0.312,-0.9740286,-5.3858052,0.5156622000000001,95.87306214,0.30939732,-23.13031446
0.16,16,0.015,-0.956,0.314,-0.572958,-4.1825934,0.3437748,95.86733256,0.30939732,-23.17042152
0.17,17,0.002,-0.958,0.317,-0.2291832000000001,-3.8388186,0.0,95.86160298,0.31512690000000004,-23.21052858
0.18000000000000002,18,0.004,-0.9570000000000001,0.32799999999999996,-0.40107059999999994,-2.8074942000000003,-0.572958,95.86160298,0.32658606,-23.23917648
0.19,19,0.009000000000000001,-0.95,0.33,-0.286479,-1.432395,-1.3178034,95.8558734,0.33804522,-23.25063564
0.2,20,0.01,-0.9440000000000001,0.325,-0.057295800000000015,-0.11459160000000004,-2.1772404,96.1423524,0.3724227000000001,-23.27355396
0.21000000000000002,21,0.011000000000000001,-0.9440000000000001,0.316,0.286479,0.6302538000000001,-3.0366774,96.1423524,0.40680018,-23.26782438
0.22,22,0.006999999999999999,-0.953,0.313,0.6875496,1.0313244000000001,-3.7242269999999995,96.14808198,0.44117766,-23.25063564
0.23,23,0.0,-0.96,0.312,1.0886202,2.3491277999999998,-4.3544808,96.15954114000002,0.48128472,-23.22198774
0.24000000000000002,24,0.004,-0.965,0.322,1.145916,4.2398892,-5.0993262,96.1710003,0.52712136,-23.176151100000002
0.25,25,0.016,-0.9690000000000001,0.337,0.5156622000000001,6.7609043999999985,-5.844171599999999,96.23975526,0.5786875800000001,-23.10739614
0.26,26,0.028999999999999998,-0.963,0.33299999999999996,0.2291832000000001,9.224623800000002,-6.6463128000000005,96.23975526,0.63598338,-23.00999328
0.27,27,0.039,-0.953,0.322,0.2291832000000001,10.7716104,-8.021412000000002,96.24548484,0.69900876,-22.89540168
0.28,28,0.036000000000000004,-0.95,0.312,0.572958,12.3758928,-9.7975818,96.25121442,0.7792228800000001,-22.76362134
0.29000000000000004,29,0.026000000000000002,-0.955,0.312,0.9740286,13.3499214,-11.0007936,96.26267357999998,0.87089616,-22.62038184
0.3,30,0.009000000000000001,-0.978,0.326,1.0886202,15.126091199999998,-12.2040054,96.30278064,0.96829902,-22.459953600000002
0.31,31,-0.02,-0.99,0.326,-0.286479,19.365980399999998,-12.7196676,96.29705106,1.06570188,-22.25368872
0.32,32,-0.044000000000000004,-0.9690000000000001,0.321,-0.8594370000000001,24.923673,-12.3758928,96.29132148,1.1573751600000002,-21.99585762
0.33,33,-0.013999999999999999,-0.9440000000000001,0.32299999999999995,0.572958,28.1895336,-12.3758928,96.29705106,1.24331886,-21.70937862000001
0.34,34,0.032,-0.9390000000000001,0.32,2.0626488000000003,29.621928600000004,-12.5477802,96.32569896,1.32353298,-21.40571088
0.35000000000000003,35,0.068,-0.955,0.315,2.4064236,30.3094782,-12.4904844,96.37153559999999,1.41520626,-21.09631356
0.36000000000000004,36,0.07400000000000001,-0.9640000000000001,0.306,1.8907614,29.621928600000004,-12.4904844,96.39445392000002,1.49542038,-20.78691624
0.37,37,0.085,-0.961,0.29600000000000004,2.0053530000000004,28.074942,-12.3758928,96.41737224,1.5813640800000002,-20.50043724
0.38,38,0.083,-0.956,0.298,2.3491277999999998,24.809081399999997,-12.0894138,96.44602014,1.6673077799999998,-20.24260614
0.39,39,0.094,-0.955,0.309,2.4064236,21.829699800000004,-12.0894138,96.47466804,1.75325148,-20.01342294
0.4,40,0.102,-0.9520000000000001,0.299,2.6356068,17.8762896,-12.834259199999998,96.52623426,1.86784308,-19.83007638
0.41000000000000003,41,0.102,-0.958,0.28300000000000003,2.6356068,13.464512999999998,-14.0947668,96.55488216,1.98816426,-19.6811073
0.42000000000000004,42,0.1,-0.9590000000000001,0.278,2.5783110000000002,10.4278356,-15.928232399999999,96.58353006,2.13140376,-19.56078612
0.43,43,0.107,-0.961,0.285,2.6356068,8.59437,-17.589810600000003,96.61790754,2.2918320000000003,-19.4519241
0.44,44,0.096,-0.953,0.273,2.6356068,6.417129599999999,-19.0222056,96.64655544,2.47517856,-19.3659804
0.45,45,0.071,-0.943,0.272,3.7815228,3.380452200000001,-20.6837838,96.70958082,2.67571386,-19.31441418
0.46,46,0.053,-0.945,0.263,4.6409598,0.4583664000000001,-22.5745452,96.75541746,2.89916748,-19.280036700000004
0.47000000000000003,47,0.053,-0.9540000000000001,0.259,5.0993262,-2.0053530000000004,-25.0382646,96.80698368,3.1512689999999997,-19.268577540000006
0.48000000000000004,48,0.078,-0.963,0.24600000000000002,6.0733548,-6.3598338,-27.100913399999996,96.87000906,3.42628884,-19.29722544
0.49,49,0.121,-0.9620000000000001,0.218,6.1879464,-13.3499214,-28.132237800000002,96.92730486,3.7242269999999995,-19.3946283
0.5,50,0.152,-0.9540000000000001,0.22699999999999998,7.906820400000001,-23.204798999999998,-28.934378999999996,97.00751898,4.05081306,-19.58943402
0.51,51,0.155,-0.9520000000000001,0.264,10.1986524,-32.544014399999995,-30.7105488,97.09346268,4.40031744,-19.86445386
0.52,52,0.142,-0.9540000000000001,0.301,12.0894138,-36.8411994,-33.116972399999995,97.19659512,4.784199299999999,-20.18531034
0.53,53,0.096,-0.958,0.326,13.178034,-39.19032720000001,-34.7785506,97.30545714,5.1852699,-20.52335556
0.54,54,0.034,-0.9640000000000001,0.34,12.6623718,-39.1330314,-35.4088044,97.40286,5.59779966,-20.86140078
0.55,55,-0.003,-0.963,0.332,11.5737516,-38.67466500000001,-35.3515086,97.50026286,5.99887026,-21.18798684
0.56,56,-0.018000000000000002,-0.965,0.325,10.886202,-37.872523799999996,-35.3515086,97.58620656,6.40567044,-21.5145729
0.5700000000000001,57,-0.008,-0.9690000000000001,0.34700000000000003,11.2872726,-36.38283300000001,-36.669312,97.66642068,6.82392978,-21.81824064
0.5800000000000001,58,0.028999999999999998,-0.977,0.359,10.943497800000001,-34.4347758,-38.3308902,97.7466348,7.259377859999999,-22.10471964000001
0.59,59,0.066,-0.987,0.36,9.453807,-33.231564,-39.3622146,97.81538976,7.70055552,-22.3740099
0.6,60,0.086,-0.988,0.363,8.7662574,-34.60666320000001,-39.534102000000004,97.87841514,8.14173318,-22.6604889
0.61,61,0.11599999999999999,-0.993,0.361,8.193299399999999,-34.0337052,-39.7632852,97.92425178,8.58864042,-22.93550874
0.62,62,0.14,-0.983,0.3670000000000001,7.906820400000001,-35.122325399999994,-39.8778768,97.96435884,9.04127724,-23.227717320000004
0.63,63,0.14,-0.9690000000000001,0.3720000000000001,7.5630456000000015,-37.7006364,-40.2216516,97.99300674,9.49964364,-23.54284422
0.64,64,0.132,-0.9540000000000001,0.3720000000000001,6.9327918,-39.9924684,-40.1643558,98.01592506,9.95801004,-23.88088944
0.65,65,0.142,-0.9440000000000001,0.401,7.2192707999999985,-39.7059894,-40.393539000000004,98.04457296,10.42210602,-24.21320508
0.66,66,0.151,-0.937,0.39399999999999996,6.990087599999999,-39.9351726,-39.7059894,98.0617617,10.88047242,-24.5512503
0.67,67,0.141,-0.94,0.37799999999999995,5.9014674000000005,-40.2216516,-38.159002799999996,98.05603212,11.32165008,-24.88929552
0.68,68,0.14300000000000002,-0.9309999999999999,0.36,5.443101,-40.8519054,-37.24227,98.05030254,11.75709816,-25.24452948
0.6900000000000001,69,0.174,-0.922,0.37,5.7868758000000025,-45.2063862,-36.4401288,98.02738422000002,12.19254624,-25.639870499999997
0.7000000000000001,70,0.198,-0.917,0.389,6.7609043999999985,-49.5035712,-36.096354,98.02165464,12.62799432,-26.08104816
0.7100000000000001,71,0.215,-0.91,0.40299999999999997,7.734933000000002,-53.22779820000001,-36.669312,97.99873632,13.07490156,-26.5566033
0.72,72,0.24,-0.9159999999999999,0.414,8.651665800000002,-57.00932099999999,-37.6433406,97.975818,13.53899754,-27.072265500000004
0.73,73,0.22699999999999998,-0.9109999999999999,0.409,8.3651868,-59.874111,-37.3568616,97.94144052,14.008823099999995,-27.62230518
0.74,74,0.212,-0.8959999999999999,0.418,9.453807,-61.7075766,-37.1276784,97.90133346,14.47291908,-28.1895336
0.75,75,0.225,-0.883,0.45299999999999996,9.682990199999999,-61.4783934,-38.159002799999996,97.87841514,14.94847422,-28.74530286
0.76,76,0.247,-0.8859999999999999,0.46399999999999997,8.8235532,-57.4103916,-39.3622146,97.83830808,15.42975894,-29.27242422
0.77,77,0.265,-0.904,0.4370000000000001,6.5317212,-55.576926,-41.19568020000001,97.7752827,15.9282324,-29.77662726
0.78,78,0.273,-0.9229999999999999,0.41200000000000003,3.8961144,-58.6136034,-43.258328999999996,97.67787984,16.4438946,-30.3094782
0.79,79,0.319,-0.9420000000000001,0.406,2.5210152000000003,-62.45242200000001,-45.9512316,97.5460995,16.999663860000002,-30.87670662
0.8,80,0.348,-0.958,0.406,1.2032118,-64.744254,-48.2430636,97.39713042,17.57262186,-31.47258294
0.81,81,0.332,-0.9740000000000001,0.41200000000000003,0.11459160000000004,-64.97343719999999,-50.24841660000001,97.22524302,18.16849818,-32.068459260000004
0.8200000000000001,82,0.302,-0.981,0.424,-0.9167328000000001,-64.4004792,-52.3683612,97.03616688,18.78156324,-32.66433558
0.8300000000000001,83,0.282,-0.983,0.42200000000000004,-2.5210152000000003,-64.0567044,-54.3164184,96.81844284,19.41181704,-33.260211899999995
0.8400000000000001,84,0.268,-0.97,0.408,-4.1252976000000015,-63.311859,-55.80610920000001,96.58925964,20.05353,-33.84462906
0.85,85,0.285,-0.9640000000000001,0.395,-5.9014674000000005,-63.08267579999999,-57.00932099999999,96.33715812,20.69524296,-34.4347758
0.86,86,0.306,-0.932,0.369,-7.6203414,-64.17129600000001,-58.15523699999999,96.05067912,21.359874240000003,-35.03638170000001
0.87,87,0.341,-0.883,0.344,-7.6776372,-64.22859179999999,-60.38977320000001,95.75274096,22.03596468,-35.64944676000001
0.88,88,0.386,-0.8590000000000001,0.33,-6.3025379999999975,-64.4004792,-62.3951262,95.46626196,22.73497344,-36.26251182
0.89,89,0.4320000000000001,-0.843,0.33799999999999997,-5.3858052,-66.69231119999999,-63.6556338,95.16259422,23.439711780000003,-36.90995436
0.9,90,0.462,-0.847,0.35700000000000004,-5.2139178,-69.8435802,-64.8015498,94.8531969,24.16163886,-37.59750396
0.91,91,0.489,-0.857,0.361,-6.0160589999999985,-70.87490460000002,-66.3485364,94.50369252,24.8950251,-38.302242299999996
0.92,92,0.484,-0.856,0.34700000000000003,-7.2192707999999985,-70.87490460000002,-66.9787902,94.1369994,25.62841134,-39.0184398
0.93,93,0.473,-0.8490000000000001,0.336,-7.1046792000000005,-68.6976642,-67.5517482,93.7645767,26.36179758,-39.71744856
0.9400000000000001,94,0.479,-0.836,0.317,-6.875496000000001,-67.1506776,-68.8122558,93.392154,27.10664298,-40.40499816
0.9500000000000001,95,0.474,-0.792,0.28300000000000003,-5.1566220000000005,-66.11935319999999,-71.04679200000002,93.03692004,27.86867712,-41.09254776
0.9600000000000001,96,0.45899999999999996,-0.787,0.248,-0.9167328000000001,-64.4004792,-74.771019,92.71606355999998,28.65935916,-41.76863820000001
0.97,97,0.413,-0.8009999999999999,0.217,2.1772404,-63.5410422,-78.49524600000002,92.41812540000001,29.48441868,-42.44472864
0.98,98,0.401,-0.797,0.20600000000000002,3.5523396000000003,-61.7075766,-82.62054359999998,92.13164640000001,30.34385568,-43.10363034
0.99,99,0.42100000000000004,-0.777,0.18,4.0680017999999984,-58.2698286,-87.37609499999998,91.85662656,31.24912932,-43.73388414
1.0,100,0.44,-0.7559999999999999,0.177,3.7242269999999995,-54.14453099999999,-92.1889422,91.59306588,32.19451002,-44.32403088
1.01,101,0.45,-0.7340000000000001,0.193,2.3491277999999998,-49.7900502,-97.91852220000001,91.32377562,33.19145694,-44.87407056
1.02,102,0.425,-0.711,0.19399999999999998,0.4583664000000001,-45.2063862,-102.273003,91.04875578,34.228510920000005,-45.38400318
1.03,103,0.41100000000000003,-0.6940000000000001,0.184,-1.2605076000000002,-39.018439799999996,-106.5128922,90.78519509999998,35.29994238,-45.83091042
1.04,104,0.408,-0.6829999999999999,0.142,-2.7501984,-30.4813656,-111.5549226,90.5560119,36.42294006,-46.18041480000001
1.05,105,0.39399999999999996,-0.682,0.205,-2.4064236,-23.892348600000002,-114.8207832,90.37266534,37.56312648,-46.45543464000001
1.06,106,0.47700000000000004,-0.677,0.195,-1.6615782,-16.042824000000003,-113.9613462,90.23515542,38.70331289999999,-46.64451078000001
1.07,107,0.5579999999999999,-0.735,0.215,2.9220858,-6.4744254,-112.3570638,90.21796668,39.820581,-46.71899532
1.08,108,0.5760000000000001,-0.82,0.162,3.380452200000001,0.0,-110.867373,90.25807374,40.92066036,-46.70753616
1.09,109,0.584,-0.8740000000000001,0.084,0.0,1.6615782,-110.17982340000002,90.28099206,42.01501014,-46.67315868000001
1.1,110,0.623,-0.853,0.024,-3.2085647999999996,-1.0313244000000001,-110.4663024,90.24088499999999,43.10935992,-46.67888826
1.11,111,0.7290000000000001,-0.7240000000000001,-0.012,-6.0160589999999985,-6.3598338,-110.12252759999998,90.12056382,44.20370970000001,-46.75910238
1.12,112,0.853,-0.603,0.05,-3.7242269999999995,-10.5424272,-109.2630906,89.98305390000002,45.2923299,-46.90234188
1.1300000000000001,113,0.9079999999999999,-0.547,0.073,-1.145916,-8.9954406,-107.8306956,89.87992145999998,46.36376136,-47.02839264
1.1400000000000001,114,0.8809999999999999,-0.55,0.08199999999999999,-0.1718874,-5.6722842,-104.1637644,89.81689608,47.40081534,-47.10860676
1.1500000000000001,115,0.79,-0.614,0.031,-2.6356068,-4.6409598,-97.91852220000001,89.73668196000001,48.37484394,-47.1830913
1.1600000000000001,116,0.639,-0.667,-0.073,-7.2192707999999985,-4.5263682,-94.0224078,89.60490161999998,49.30876548,-47.25757584
1.17,117,0.45799999999999996,-0.648,-0.059000000000000004,-8.880849000000003,2.5783110000000002,-96.8871978,89.53614666000001,50.27133492,-47.22319836000001
1.18,118,0.355,-0.561,-0.004,-9.224623800000002,18.334656,-103.36162320000001,89.65646783999998,51.29120016,-46.948178520000006
1.19,119,0.3720000000000001,-0.45,0.011000000000000001,-9.740286,35.2942128,-109.89334440000002,89.98878348,52.37409078,-46.3809501
1.2,120,0.509,-0.4270000000000001,0.016,-11.0007936,48.414951,-110.9819646,90.51590484,53.456981400000004,-45.5788089
1.21,121,0.693,-0.45399999999999996,0.035,-11.802934800000001,51.56622,-106.3983006,91.10605158,54.49403537999999,-44.68499442
1.22,122,0.885,-0.521,0.038,-13.6936962,46.5814854,-100.26765,91.65609126,55.4623344,-43.83701658
1.23,123,1.0090000000000001,-0.535,0.02,-15.813640800000002,35.122325399999994,-96.4288314,92.0457027,56.39625594,-43.16092614
1.24,124,1.022,-0.561,0.037000000000000005,-12.2040054,24.1215318,-96.37153559999999,92.33791128,57.33590706,-42.6567231
1.25,125,0.95,-0.544,0.095,-10.2559482,19.136797199999997,-99.1790298,92.60720154,58.30993566,-42.21554544
1.26,126,0.868,-0.516,0.10099999999999999,-9.740286,17.8762896,-102.273003,92.8764918,59.30688258,-41.77436778
1.27,127,0.8290000000000001,-0.445,0.10300000000000001,-10.4851314,14.7250206,-101.7573408,93.11140458,60.303829500000006,-41.37902676
1.28,128,0.816,-0.389,0.14400000000000002,-8.021412000000002,15.870936600000002,-100.09576259999999,93.40934274,61.28358768,-40.9378491
1.29,129,0.813,-0.35100000000000003,0.14800000000000002,-7.0473834,22.4026578,-99.0644382,93.86197956,62.24615712000001,-40.33624320000001
1.3,130,0.813,-0.32799999999999996,0.129,-5.443101,25.210151999999997,-96.7726062,94.42920798000002,63.18007865999999,-39.63150486
1.31,131,0.8140000000000001,-0.308,0.094,-3.0366774,22.86102420000001,-94.99643640000001,95.01362514,64.09681146,-38.94968484
1.32,132,0.833,-0.301,0.121,-1.7761698000000001,21.027558600000006,-94.36618259999999,95.60950146,65.00781468,-38.26213524
1.33,133,0.852,-0.295,0.161,-0.4583664000000001,21.485925,-95.56939440000001,96.28559190000001,65.9188179,-37.51156026
1.34,134,0.8290000000000001,-0.28800000000000003,0.20600000000000002,-0.057295800000000015,22.86102420000001,-97.2882684,97.05335562,66.84700986,-36.66358242
1.35,135,0.8109999999999999,-0.263,0.231,-0.8021411999999999,27.6165756,-98.4341844,98.01592506,67.77520182,-35.60933970000001
1.36,136,0.813,-0.24100000000000002,0.196,-1.3750992,32.7159018,-99.7519878,99.17330022000002,68.69766419999999,-34.343102519999995
1.37,137,0.7609999999999999,-0.196,0.196,-2.6356068,33.74722620000001,-102.50218620000001,100.46245572,69.63158574,-32.92789626
1.3800000000000001,138,0.727,-0.109,0.18899999999999997,-2.4637194,35.0077338,-106.45559640000002,101.94068736,70.59415518,-31.32361386
1.3900000000000001,139,0.716,-0.057,0.17800000000000002,-0.7448454000000001,37.7006364,-109.2057948,103.68820926,71.55672462,-29.45577078
1.4000000000000001,140,0.705,0.002,0.18100000000000002,2.6929026,40.90920120000001,-110.23711920000001,105.7966947,72.5078349,-27.26707122
1.4100000000000001,141,0.664,0.009000000000000001,0.249,4.1252976000000015,45.1490904,-113.1019092,108.30052116000002,73.44175643999998,-24.68303064
1.42,142,0.6829999999999999,0.052000000000000005,0.31,3.7242269999999995,52.425657,-117.68557320000001,111.38876478,74.34703008,-21.50311374
1.43,143,0.843,0.16899999999999998,0.256,4.583664,59.1292656,-122.0973498,115.14736926,75.21792624,-17.64137682
1.44,144,0.983,0.324,0.225,8.4224826,61.07732280000001,-125.3632104,119.53622754,76.03152659999998,-13.18949316
1.45,145,1.095,0.35700000000000004,0.212,14.8396122,56.78013780000001,-126.96749280000002,124.42928886,76.79929032,-8.307891
1.46,146,1.349,0.315,0.24100000000000002,21.5432208,46.638781200000004,-125.82157679999999,129.54007422,77.50402865999997,-3.27731976
1.47,147,1.472,0.326,0.28300000000000003,28.877083199999998,29.392745399999995,-119.4044472,134.52480882,78.18584868,1.5183387000000002
1.48,148,1.942,0.272,0.638,38.445481799999996,19.652459399999998,-104.851314,139.30900812,78.74734751999998,6.00459984
1.49,149,2.0180000000000002,0.187,1.03,36.1536498,34.4347758,-80.61519059999998,143.9270496,78.97080113999998,10.34762148
1.5,150,1.963,0.1,1.214,23.14750320000001,67.322565,-55.2331512,148.29298956,78.70724046000002,14.564592359999995
1.51,151,1.817,-0.081,1.1159999999999999,7.161975,90.6419556,-31.111619399999995,151.73646714,78.07125708,18.019529100000003
1.52,152,1.525,-0.204,0.8290000000000001,-7.7922288,98.94984659999999,-13.750992000000002,154.11997242,77.25192713999998,20.55773304
1.53,153,1.205,-0.265,0.6609999999999999,-20.168121600000006,95.34021120000001,-5.3858052,155.70706607999998,76.40967888,22.40838738
1.54,154,0.915,-0.245,0.369,-29.163562199999998,86.7458412,-4.9847346,156.86444124,75.63618558,23.9209965
1.55,155,0.773,-0.131,0.183,-33.231564,77.80769640000003,-12.605075999999999,157.98743892,74.97155430000002,25.4393352
1.56,156,0.655,0.011000000000000001,0.135,-24.4653066,59.30115299999999,-17.18874,159.03595206,74.48454000000002,26.79724566
1.57,157,0.5429999999999999,0.11800000000000001,0.255,-9.6256944,42.91455420000001,-19.2513888,160.05581730000003,74.15222436,27.960350399999996
1.58,158,0.48200000000000004,0.17300000000000001,0.364,-2.9220858,32.4294228,-22.4026578,161.09860086,73.92304116,29.08334808
1.59,159,0.38299999999999995,0.203,0.44,-0.6302538000000001,26.929026,-25.84040580000001,162.19868022,73.74542418,30.234993660000004
1.6,160,0.41700000000000004,0.243,0.455,3.5523396000000003,26.9863218,-28.3041252,163.48783572,73.55634804,31.52987874
1.61,161,0.609,0.191,0.465,4.5263682,29.2781538,-26.069589,164.6108334,73.34435358,32.658606000000006
1.62,162,0.855,0.13,0.542,-1.0886202,31.111619399999995,-23.4339822,165.57340284,73.10371122000002,33.684200819999994
1.6300000000000001,163,0.9570000000000001,0.131,0.631,-8.078707799999998,30.8251404,-23.892348600000002,166.45575816000004,72.86306886,34.692606899999994
1.6400000000000001,164,1.0270000000000001,0.168,0.657,-13.3499214,32.544014399999995,-23.3766864,167.24644019999997,72.59950818,35.67236508
1.6500000000000001,165,1.097,0.203,0.6609999999999999,-11.8602306,32.658606,-18.162768600000003,167.91107148,72.31302918,36.4974246
1.6600000000000001,166,1.123,0.132,0.752,-7.333862400000001,31.51269000000001,-10.4278356,168.31787165999995,72.02655018,37.00735722
1.6700000000000002,167,1.1340000000000001,0.057999999999999996,0.738,-8.021412000000002,31.79916900000001,0.0,168.39808578,71.71715286,37.17924462
1.68,168,1.1159999999999999,0.059000000000000004,0.677,-6.2452422,27.788463,7.906820400000001,168.24338712000005,71.43640344,37.08757134
1.69,169,1.036,0.08900000000000001,0.68,-6.0733548,24.350715,9.167328,168.03712223999997,71.17857234,36.93860226
1.7,170,0.968,0.09699999999999999,0.622,-3.7242269999999995,21.314037600000002,8.250595200000001,167.97409686,70.92647081999998,36.898495200000006
1.71,171,0.937,0.135,0.589,-2.4637194,18.9649098,6.6463128000000005,167.85950526,70.72593552,36.80109234
1.72,172,0.925,0.145,0.565,0.2291832000000001,16.157415599999997,5.3285094000000015,167.79075029999996,70.5597777,36.73806696
1.73,173,0.895,0.14300000000000002,0.5539999999999999,1.3750992,10.4851314,5.0993262,167.72199533999995,70.44518609999999,36.64639368
1.74,174,0.888,0.1,0.54,3.7242269999999995,3.7242269999999995,6.6463128000000005,167.59594458,70.39361987999997,36.47450628
1.75,175,0.86,0.048,0.519,4.2398892,-3.8961144,10.1986524,167.45270508,70.37070156,36.25678224
1.76,176,0.846,-0.006,0.515,4.1252976000000015,-13.178034,11.802934800000001,167.1032007,70.473834,35.8385229
1.77,177,0.866,-0.027999999999999997,0.546,1.9480572,-17.5325148,11.2872726,166.71931883999997,70.61707349999998,35.408804399999994
1.78,178,0.894,-0.011000000000000001,0.5479999999999999,-0.5156622000000001,-19.2513888,10.2559482,166.32397782,70.78323132,34.984815479999995
1.79,179,0.8859999999999999,0.009000000000000001,0.5670000000000001,-2.1772404,-19.0222056,9.453807,165.92290722,70.94365956,34.58374488
1.8,180,0.8759999999999999,0.015,0.56,-4.0680017999999984,-16.7303736,9.224623800000002,165.61350990000003,71.04106241999997,34.28580672
1.81,181,0.89,0.02,0.555,-5.6722842,-14.0947668,9.682990199999999,165.18952098,71.15565402,33.89619528
1.82,182,0.899,0.019,0.527,-5.9014674000000005,-13.980175199999998,11.2872726,164.71969542,71.25878646,33.4607472
1.83,183,0.894,-0.006999999999999999,0.499,-7.9641161999999985,-15.297978599999999,12.5477802,164.17538532,71.37337806000002,32.968003319999994
1.84,184,0.865,-0.022000000000000002,0.503,-8.5370742,-19.2513888,12.032118,163.60242732,71.52807672,32.45234112
1.85,185,0.868,-0.02,0.479,-6.589017,-24.5798982,11.802934800000001,163.06384680000005,71.70569370000003,31.94813808
1.86,186,0.893,-0.017,0.47700000000000004,-4.1825934,-30.252182399999995,12.032118,162.42786342,71.95779522,31.31788428
1.87,187,0.922,-0.01,0.526,-0.9740286,-32.658606,12.3758928,161.78042088,72.23281506,30.64179384
1.8800000000000001,188,0.941,-0.01,0.56,2.1199446,-30.7105488,12.834259199999998,161.1444375,72.48491658,29.94851466
1.8900000000000001,189,0.9490000000000001,-0.013999999999999999,0.568,2.5210152000000003,-28.7051958,14.266654199999998,160.47407664,72.7083702,29.21512842000001
1.9000000000000001,190,0.953,-0.019,0.545,2.1199446,-27.960350399999996,16.042824000000003,159.79798620000003,72.89171676,28.4760126
1.9100000000000001,191,0.934,-0.01,0.54,1.432395,-26.69984280000001,17.4179232,159.00730416,73.0807929,27.62803476
1.9200000000000002,192,0.9309999999999999,-0.015,0.529,1.6615782,-24.1215318,17.8189938,158.21662212,73.24122114,26.780056920000003
1.93,193,0.925,-0.018000000000000002,0.494,2.4064236,-24.064236,17.9908812,157.41448092000005,73.40164938000002,25.90916076
1.94,194,0.919,-0.011000000000000001,0.461,2.86479,-25.3247436,18.7357266,156.5607735,73.56207762,24.98669838
1.95,195,0.892,-0.015,0.408,3.1512689999999997,-28.533308399999996,19.5378678,155.68987734,73.73396502,24.02985852
1.96,196,0.899,-0.013000000000000001,0.395,4.5263682,-35.5806918,19.5378678,154.65282336,73.97460738,22.89540168
1.97,197,0.934,-0.005,0.465,5.844171599999999,-37.9871154,19.5378678,153.55847358,74.23243848,21.69791946
1.98,198,0.941,-0.008,0.503,6.8182002000000015,-38.731960799999996,19.2513888,152.44120548,74.49026957999997,20.454600600000006
1.99,199,0.929,-0.032,0.486,5.6149884000000005,-40.393539000000004,17.761698000000006,151.28955990000003,74.76528942,19.194093
2.0,200,0.953,-0.043,0.46399999999999997,3.7242269999999995,-40.8519054,16.386598799999998,150.18375096,75.0288501,17.99661078
2.01,201,0.973,-0.035,0.48,3.1512689999999997,-40.2216516,15.9855282,148.98053915999995,75.29814036,16.71318486
2.02,202,0.9520000000000001,-0.023,0.475,1.432395,-38.67466500000001,15.756345,147.74867946,75.54451230000002,15.42402936
2.03,203,0.9329999999999999,-0.023,0.435,-0.11459160000000004,-36.1536498,15.928232399999999,146.5053606,75.76796592000002,14.13487386
2.04,204,0.917,-0.032,0.414,-1.145916,-34.7212548,16.959556799999998,145.21047552,75.96277164,12.8056113
2.05,205,0.895,-0.049,0.396,-2.5783110000000002,-32.7159018,17.7044022,143.97861582000004,76.11747030000002,11.55656286
2.0599999999999996,206,0.8859999999999999,-0.053,0.369,-4.8128472,-29.507337,17.8189938,142.67227158,76.24925064,10.25021862
2.07,207,0.8809999999999999,-0.06,0.34299999999999997,-5.9014674000000005,-26.4706596,18.162768600000003,141.38884566,76.34665349999999,8.98971102
2.0799999999999996,208,0.887,-0.063,0.327,-6.8182002000000015,-22.517249399999997,17.4179232,140.2028226,76.41540846000002,7.838065440000001
2.09,209,0.9,-0.065,0.321,-6.2452422,-18.048177,16.4438946,139.15430945999998,76.44978594,6.82392978
2.0999999999999996,210,0.8859999999999999,-0.07400000000000001,0.313,-6.5317212,-13.8655836,15.3552744,138.36935699999998,76.44405636,6.0733548000000015
2.11,211,0.882,-0.084,0.306,-7.0473834,-11.5164558,14.209358400000001,137.55002706,76.43832678,5.30559108
2.1199999999999997,212,0.888,-0.085,0.293,-7.8495246,-10.657018800000001,13.0634424,136.78226334,76.4325972,4.59512316
2.13,213,0.905,-0.092,0.273,-8.136003599999999,-9.9694692,11.917526400000002,136.06606584000002,76.42113803999997,3.94195104
2.1399999999999997,214,0.9209999999999999,-0.094,0.266,-7.9641161999999985,-8.9954406,9.568398599999998,135.4472712,76.42113803999997,3.38618178
2.15,215,0.9109999999999999,-0.11,0.263,-7.8495246,-10.1413566,7.2765666,134.97171606,76.43832678,2.96792244
2.1599999999999997,216,0.9359999999999999,-0.114,0.254,-8.5370742,-11.745639,5.5003968,134.38729890000002,76.48416342,2.45798982
2.17,217,0.9279999999999999,-0.114,0.264,-8.250595200000001,-13.407217200000002,4.3544808,133.79142258,76.54718879999999,1.92513888
2.1799999999999997,218,0.904,-0.115,0.256,-8.078707799999998,-14.7823164,2.86479,133.1840871,76.6331325,1.38655836
2.19,219,0.8809999999999999,-0.129,0.26899999999999996,-6.5317212,-14.266654199999998,1.8907614,132.63977699999998,76.71334662,0.8880849000000001
2.1999999999999997,220,0.868,-0.138,0.28600000000000003,-6.130650599999999,-12.032118,1.3750992,132.34183883999998,76.76491284,0.63598338
2.21,221,0.871,-0.142,0.301,-6.3598338,-9.3392154,0.9740286,131.95795698,76.82220864,0.30939732
2.2199999999999998,222,0.8740000000000001,-0.145,0.28800000000000003,-7.1046792000000005,-7.8495246,0.3437748,131.63137092,76.86804528,0.04583664
2.23,223,0.8859999999999999,-0.149,0.273,-7.7922288,-7.9641161999999985,-0.40107059999999994,131.31051444,76.92534108,-0.19480572
2.2399999999999998,224,0.9,-0.139,0.289,-7.448453999999999,-8.9954406,-1.8907614,131.00111712,77.00555519999998,-0.43544808
2.25,225,0.9309999999999999,-0.125,0.337,-4.6982555999999995,-9.396511199999999,-3.3231564,131.0641425,77.05712142,-0.3437748
2.26,226,0.966,-0.111,0.345,-3.5523396000000003,-7.9641161999999985,-4.9274388,130.90944384,77.14879470000002,-0.46409598
2.27,227,0.9570000000000001,-0.09,0.32799999999999996,-3.4950437999999995,-7.906820400000001,-6.6463128000000005,130.81204098,77.25192713999998,-0.53285094
2.28,228,0.929,-0.069,0.324,-2.0053530000000004,-11.2299768,-7.906820400000001,130.65161274,77.38370748,-0.6703608600000001
2.29,229,0.9279999999999999,-0.066,0.35100000000000003,0.9740286,-13.120738199999998,-8.307891,130.47399575999998,77.53840613999998,-0.86516658
2.3,230,0.94,-0.08800000000000001,0.387,2.1772404,-11.2872726,-7.6203414,130.71463812,77.63007941999999,-0.66463128
2.31,231,0.948,-0.107,0.373,-0.4583664000000001,-8.021412000000002,-6.2452422,130.62869442,77.73321186000003,-0.75057498
2.32,232,0.925,-0.10400000000000001,0.33899999999999997,-2.0626488000000003,-6.130650599999999,-4.9274388,130.5484803,77.81342598,-0.8136003599999999
2.3299999999999996,233,0.9129999999999999,-0.102,0.344,-1.7188740000000002,-6.0160589999999985,-4.010706000000001,130.44534786,77.88218094,-0.89954406
2.34,234,0.9279999999999999,-0.094,0.363,-1.2032118,-5.042030400000002,-3.3231564,130.35940416,77.93947674,-0.9740286
2.3499999999999996,235,0.9420000000000001,-0.086,0.36,-0.6875496,-3.4950437999999995,-2.8074942000000003,131.36208066,77.90509926,0.0
2.36,236,0.946,-0.08800000000000001,0.34700000000000003,-0.5156622000000001,-2.1199446,-2.7501984,131.36781023999998,77.93947674,0.00572958
2.3699999999999997,237,0.948,-0.084,0.33,-0.1718874,-1.7188740000000002,-2.86479,131.39645814,77.97385421999998,0.03437748
2.38,238,0.9470000000000001,-0.07400000000000001,0.341,0.7448454000000001,-2.0053530000000004,-3.380452200000001,131.44229478,78.01396128,0.07448454
2.3899999999999997,239,0.9590000000000001,-0.062,0.353,1.9480572,-1.6615782,-4.4117766,131.54542722,78.05406833999999,0.15469866
2.4,240,0.9620000000000001,-0.061,0.336,2.4637194,-0.9740286,-5.958763200000001,132.35329800000002,78.07698666,0.9167328
2.4099999999999997,241,0.961,-0.067,0.325,2.3491277999999998,-1.145916,-7.0473834,132.56529246,78.13428246,1.10580894
2.42,242,0.9540000000000001,-0.07200000000000001,0.318,1.7188740000000002,-1.3750992,-7.6776372,132.7830165,78.20303742,1.31207382
2.4299999999999997,243,0.965,-0.085,0.312,1.4896908000000002,-2.2345362,-7.7922288,132.97782222,78.27752196,1.49542038
2.44,244,0.9590000000000001,-0.09300000000000001,0.314,1.432395,-3.0939732,-7.5057497999999985,133.13252088,78.35200649999999,1.6386598799999998
2.4499999999999997,245,0.946,-0.095,0.304,0.9167328000000001,-3.9534102,-7.333862400000001,133.6424535,78.39784313999998,2.13140376
2.46,246,0.9329999999999999,-0.084,0.29600000000000004,0.7448454000000001,-5.1566220000000005,-7.6776372,133.73985636,78.48951642,2.21734746
2.4699999999999998,247,0.94,-0.067,0.307,1.2605076000000002,-5.958763200000001,-8.5370742,133.83725922000002,78.59264886000003,2.30902074
2.48,248,0.946,-0.057,0.306,1.5469866,-7.1046792000000005,-9.167328,133.9289325,78.70724046000002,2.38350528
2.4899999999999998,249,0.9470000000000001,-0.05,0.305,1.6042823999999998,-8.479778399999999,-9.6256944,133.98622830000002,78.8390208,2.42361234
2.5,250,0.958,-0.047,0.312,1.8907614,-9.453807,-9.7975818,134.3300031,78.95934198,2.73300966
2.51,251,0.9620000000000001,-0.044000000000000004,0.314,2.0053530000000004,-9.5111028,-9.682990199999999,134.36438058000002,79.0968519,2.74446882
2.52,252,0.9540000000000001,-0.04,0.312,1.7188740000000002,-9.1100322,-9.2819196,134.39302848,79.22863224,2.76165756
2.53,253,0.941,-0.038,0.308,1.7188740000000002,-9.167328,-8.3651868,134.39302848,79.354683,2.73873924
2.54,254,0.9179999999999999,-0.03,0.307,2.0626488000000003,-10.026765,-7.333862400000001,134.31854394,79.47500418000001,2.6413363800000003
2.55,255,0.917,-0.024,0.314,2.6929026,-9.7975818,-6.5317212,134.66231874,79.57240704,2.93927454
2.56,256,0.929,-0.026000000000000002,0.318,2.1772404,-7.734933000000002,-5.72958,134.62221168,79.66980989999998,2.87051958
2.57,257,0.946,-0.027000000000000003,0.321,1.3750992,-6.0733548,-4.9274388,134.59929336,79.74429444,2.83041252
2.5799999999999996,258,0.958,-0.023,0.32,1.145916,-5.0993262,-4.0680017999999984,134.57064545999998,79.81304940000003,2.79603504
2.59,259,0.9620000000000001,-0.019,0.32,1.145916,-4.4117766,-3.380452200000001,134.54772714,79.86461562,2.76165756
2.5999999999999996,260,0.9640000000000001,-0.017,0.319,1.0886202,-3.4377480000000005,-2.7501984,135.7051023,79.86461562,3.86173692
2.61,261,0.968,-0.019,0.313,0.9167328000000001,-2.1772404,-2.1772404,135.72229104,79.89899310000001,3.8674665
2.6199999999999997,262,0.97,-0.024,0.306,0.9740286,-1.3750992,-1.432395,135.73947977999998,79.91618184000002,3.87892566
2.63,263,0.972,-0.034,0.302,1.0313244000000001,-0.8021411999999999,-0.5156622000000001,135.74520936,79.92764100000002,3.8674665
2.6399999999999997,264,0.9690000000000001,-0.044000000000000004,0.302,1.145916,-0.6875496,0.6875496,135.69937272,79.92764100000002,3.810170700000002
2.65,265,0.961,-0.051,0.297,0.8594370000000001,-1.0313244000000001,1.4896908000000002,137.32657344,79.81304940000003,5.38007562
2.6599999999999997,266,0.9620000000000001,-0.048,0.301,0.8594370000000001,-1.145916,2.0053530000000004,137.21198184,79.80731982,5.25402486
2.67,267,0.971,-0.042,0.311,1.3178034,-0.9167328000000001,2.291832,137.09739024,79.79586065999997,5.1222445200000015
2.6799999999999997,268,0.9890000000000001,-0.033,0.315,1.4896908000000002,-0.9167328000000001,1.9480572,136.99998738000002,79.79013108000002,5.00765292
2.69,269,1.0,-0.021,0.315,1.2032118,-1.2032118,1.0886202,136.91977326,79.79013108000002,4.91597964
2.6999999999999997,270,0.991,-0.019,0.316,1.3750992,-1.8334656000000005,0.1718874,138.63291768000002,79.70991696000002,6.5546395199999985
2.71,271,0.966,-0.035,0.317,1.432395,-2.2345362,-0.286479,138.58708104,79.72710570000002,6.48588456
2.7199999999999998,272,0.9440000000000001,-0.049,0.319,1.5469866,-2.1772404,-0.4583664000000001,138.5412444,79.75002402,6.428588760000001
2.73,273,0.943,-0.059000000000000004,0.314,1.2605076000000002,-1.4896908000000002,-0.40107059999999994,138.52405566,79.76148318,6.39421128
2.7399999999999998,274,0.9470000000000001,-0.061,0.313,0.7448454000000001,-0.40107059999999994,-0.40107059999999994,138.53551481999997,79.76721276,6.39994086
2.75,275,0.953,-0.062,0.311,0.286479,0.5156622000000001,-0.2291832000000001,143.56608606,79.24009140000003,11.31019092
2.76,276,0.9640000000000001,-0.06,0.312,-0.2291832000000001,1.4896908000000002,0.057295800000000015,143.60619312,79.22863224,11.35602756
2.77,277,0.963,-0.054000000000000006,0.311,-0.8021411999999999,2.4637194,0.286479,143.65775934,79.20571392,11.41905294
2.78,278,0.9570000000000001,-0.046,0.308,-1.3178034,2.6929026,0.2291832000000001,143.71505513999998,79.18279559999998,11.4878079
2.79,279,0.9570000000000001,-0.04,0.3,-1.6042823999999998,2.6356068,-0.286479,143.78381009999995,79.15987728,11.579481179999998
2.8,280,0.9620000000000001,-0.040999999999999995,0.297,-1.432395,2.0626488000000003,-0.5156622000000001,145.0729656,79.0395561,12.839988780000002
2.81,281,0.968,-0.043,0.302,-1.2605076000000002,2.1199446,-0.6302538000000001,145.14745014,79.02809694,12.925932479999995
2.82,282,0.968,-0.045,0.305,-1.3750992,2.4064236,-0.6302538000000001,145.22766426,79.01090819999997,13.02333534
2.8299999999999996,283,0.963,-0.047,0.309,-1.3750992,2.291832,-0.40107059999999994,145.29641922000005,78.99371946,13.10354946
2.84,284,0.961,-0.048,0.314,-1.3750992,1.8907614,-0.2291832000000001,145.34225586,78.98226030000002,13.16657484
2.8499999999999996,285,0.963,-0.047,0.317,-1.432395,1.7188740000000002,-0.286479,146.66005926,78.81610248000001,14.46145992
2.86,286,0.963,-0.048,0.316,-1.3750992,1.7761698000000001,-0.3437748,146.7058959,78.80464332,14.5244853
2.8699999999999997,287,0.9590000000000001,-0.047,0.315,-1.145916,2.1772404,-0.2291832000000001,146.7631917,78.78745458,14.593240260000002
2.88,288,0.958,-0.049,0.319,-0.8594370000000001,2.7501984,-0.11459160000000004,146.83194666,78.76453626,14.67345438
2.8899999999999997,289,0.9540000000000001,-0.045,0.321,-0.7448454000000001,3.4377480000000005,0.0,146.91216078,78.73588836,14.76512766
2.9,290,0.953,-0.043,0.321,-0.8594370000000001,3.9534102,0.11459160000000004,147.88618938,78.59264886000003,15.721967520000002
2.9099999999999997,291,0.953,-0.043,0.32,-0.7448454000000001,4.1825934,0.2291832000000001,147.97213308,78.55827138,15.813640799999998
2.92,292,0.955,-0.04,0.317,-0.6302538000000001,4.0680017999999984,0.11459160000000004,148.05807678000005,78.51816432000003,15.91104366
2.9299999999999997,293,0.953,-0.04,0.32,-0.4583664000000001,4.1252976000000015,0.057295800000000015,148.14975006,78.48378684000002,16.0141761
2.94,294,0.9540000000000001,-0.040999999999999995,0.324,-0.5156622000000001,4.3544808,0.0,148.24715292,78.44367978,16.117308540000003
2.9499999999999997,295,0.955,-0.043,0.325,-0.3437748,4.297185,0.057295800000000015,149.23837026,78.28898111999997,17.085607560000003
2.96,296,0.956,-0.046,0.327,-0.2291832000000001,3.7815228,0.1718874,149.31285480000003,78.25460364,17.16582168
2.9699999999999998,297,0.9620000000000001,-0.045,0.327,0.0,3.2085647999999996,0.2291832000000001,149.38160976,78.22595574,17.23457664
2.98,298,0.963,-0.047,0.33,0.286479,2.9220858,0.4583664000000001,149.43317598,78.19730784,17.280413279999998
2.9899999999999998,299,0.961,-0.044000000000000004,0.335,0.286479,2.6929026,0.6875496,149.46755346,78.17438952,17.31479076
3.0,300,0.9570000000000001,-0.044000000000000004,0.336,0.057295800000000015,2.8074942000000003,0.6302538000000001,150.61346945999995,77.9795838,18.42632928
3.01,301,0.9570000000000001,-0.045,0.33299999999999996,0.0,2.6356068,0.572958,150.64784694,77.9509359,18.46070676
3.02,302,0.9620000000000001,-0.044000000000000004,0.335,-0.4583664000000001,2.4064236,0.286479,150.68222441999995,77.92801758,18.50081382
3.03,303,0.965,-0.045,0.33799999999999997,-0.3437748,2.0626488000000003,0.0,150.72233148,77.91082884,18.54092088
3.04,304,0.9670000000000001,-0.046,0.341,-0.7448454000000001,1.8907614,-0.1718874,150.76243854,77.8936401,18.5924871
3.05,305,0.9690000000000001,-0.045,0.33899999999999997,-1.0313244000000001,1.7188740000000002,-0.5156622000000001,151.81668126,77.7217527,19.6238115
3.06,306,0.9690000000000001,-0.045,0.33899999999999997,-1.0313244000000001,1.3750992,-0.6302538000000001,151.85678832000005,77.71602312,19.67537772
3.07,307,0.965,-0.043,0.337,-1.145916,0.8594370000000001,-0.6875496,151.8911658,77.71029354,19.72694394
3.08,308,0.9620000000000001,-0.045,0.335,-1.0886202,0.4583664000000001,-0.6875496,151.91981370000005,77.71029354,19.76132142
3.09,309,0.96,-0.046,0.33,-0.9740286,0.2291832000000001,-0.5156622000000001,151.93700244,77.71029354,19.78996932
3.0999999999999996,310,0.955,-0.047,0.32899999999999996,-0.7448454000000001,-0.057295800000000015,-0.40107059999999994,154.07986536,77.34933000000002,21.86407728
3.11,311,0.9490000000000001,-0.046,0.326,-0.572958,-0.3437748,-0.4583664000000001,154.08559494000005,77.34933000000002,21.87553644
3.1199999999999997,312,0.948,-0.045,0.327,-0.2291832000000001,-0.6875496,-0.6875496,154.09705409999995,77.36078916,21.89272518000001
3.13,313,0.95,-0.046,0.327,-0.1718874,-0.9167328000000001,-0.8594370000000001,154.11424284,77.37224832,21.90991392
3.1399999999999997,314,0.9520000000000001,-0.044000000000000004,0.325,-0.11459160000000004,-0.9167328000000001,-0.9167328000000001,154.13716116,77.38943706,21.93283224
3.15,315,0.953,-0.045,0.326,-0.11459160000000004,-0.8594370000000001,-0.9740286,155.45496456,77.16598344,23.19906942
3.1599999999999997,316,0.9540000000000001,-0.044000000000000004,0.324,-0.11459160000000004,-0.8021411999999999,-0.9167328000000001,155.47788287999995,77.17744259999998,23.22198774
3.17,317,0.956,-0.042,0.325,-0.3437748,-0.8594370000000001,-0.8594370000000001,155.49507162,77.18890176,23.24490606
3.1799999999999997,318,0.9540000000000001,-0.04,0.325,-0.4583664000000001,-0.8594370000000001,-0.8021411999999999,155.50653078,77.20036092000002,23.2620948
3.19,319,0.953,-0.038,0.326,-0.4583664000000001,-0.6875496,-0.6302538000000001,155.51798994,77.21182008000002,23.27928354
3.1999999999999997,320,0.9540000000000001,-0.038,0.325,-0.40107059999999994,-0.6302538000000001,-0.4583664000000001,157.16810898,76.93107066,24.84918846
3.21,321,0.955,-0.039,0.32799999999999996,-0.5156622000000001,-0.2291832000000001,-0.3437748,157.17383855999995,76.93680024,24.85491804
3.2199999999999998,322,0.9570000000000001,-0.039,0.327,-0.8021411999999999,-0.1718874,-0.2291832000000001,157.16810898,76.93680024,24.8663772
3.23,323,0.9540000000000001,-0.04,0.326,-1.0886202,0.0,0.0,157.16237940000005,76.93680024,24.8663772
3.2399999999999998,324,0.953,-0.038,0.319,-1.0886202,0.2291832000000001,0.11459160000000004,157.15092024,76.93680024,24.8663772
3.25,325,0.95,-0.038,0.319,-0.7448454000000001,0.057295800000000015,0.2291832000000001,159.04168164,76.58156627999998,26.659735739999995
3.26,326,0.948,-0.038,0.321,-0.5156622000000001,0.057295800000000015,0.286479,159.02449289999996,76.58156627999998,26.64827658
3.27,327,0.9490000000000001,-0.036000000000000004,0.321,-0.40107059999999994,0.11459160000000004,0.286479,159.01303374,76.57583670000002,26.63681742
3.28,328,0.948,-0.039,0.324,-0.11459160000000004,0.1718874,0.3437748,159.00157458,76.57583670000002,26.62535826
3.29,329,0.9520000000000001,-0.042,0.327,-0.3437748,0.6302538000000001,0.40107059999999994,158.99011542,76.56437754,26.61962868
3.3,330,0.956,-0.040999999999999995,0.326,-0.8021411999999999,0.6875496,0.3437748,159.9412257,76.35238308000002,27.5306319
3.31,331,0.958,-0.042,0.324,-0.9167328000000001,0.572958,0.286479,159.92976654,76.34665349999999,27.52490232
3.32,332,0.958,-0.040999999999999995,0.326,-1.145916,0.7448454000000001,0.4583664000000001,159.90684821999997,76.33519434,27.51917274
3.33,333,0.9570000000000001,-0.042,0.331,-1.2032118,0.572958,0.40107059999999994,159.8839299,76.32946476,27.50771358
3.34,334,0.958,-0.046,0.33299999999999996,-1.3750992,0.5156622000000001,0.3437748,159.86674116,76.32373518,27.501984000000004
3.3499999999999996,335,0.958,-0.046,0.33399999999999996,-1.6615782,0.572958,0.286479,160.49126538000004,76.14611819999998,28.12650822
3.36,336,0.956,-0.045,0.335,-2.1199446,0.7448454000000001,0.3437748,160.46834706,76.13465904,28.120778640000005
3.3699999999999997,337,0.9570000000000001,-0.044000000000000004,0.332,-2.0053530000000004,0.572958,0.11459160000000004,160.44542874,76.12892946000002,28.120778640000005
3.38,338,0.958,-0.045,0.33399999999999996,-1.4896908000000002,0.5156622000000001,0.057295800000000015,160.43396958,76.12319987999999,28.12650822
3.3899999999999997,339,0.956,-0.046,0.33299999999999996,-1.3750992,0.5156622000000001,0.0,160.42251042,76.12319987999999,28.1322378
3.4,340,0.955,-0.044000000000000004,0.33299999999999996,-1.2605076000000002,0.2291832000000001,0.0,161.55123768,75.83672088,29.220858000000003
3.4099999999999997,341,0.953,-0.043,0.332,-1.2605076000000002,0.1718874,0.0,161.53977852,75.8309913,29.220858000000003
3.42,342,0.953,-0.043,0.32899999999999996,-1.2605076000000002,0.1718874,0.0,161.52831936,75.8309913,29.22658758
3.4299999999999997,343,0.9520000000000001,-0.042,0.327,-1.2605076000000002,0.057295800000000015,-0.057295800000000015,161.52258978,75.8309913,29.23231716
3.44,344,0.95,-0.04,0.33,-1.145916,0.0,0.0,161.50540103999995,75.8309913,29.22658758
3.4499999999999997,345,0.9520000000000001,-0.04,0.327,-1.0886202,-0.057295800000000015,-0.057295800000000015,162.59402124000005,75.56743062000002,30.263641560000003
3.46,346,0.953,-0.040999999999999995,0.32799999999999996,-0.9167328000000001,-0.286479,0.0,162.58256208,75.57316019999998,30.25791198
3.4699999999999998,347,0.951,-0.04,0.32899999999999996,-0.7448454000000001,-0.286479,0.0,162.57110292,75.57316019999998,30.252182399999995
3.48,348,0.951,-0.04,0.32799999999999996,-0.572958,-0.40107059999999994,0.0,162.55964376,75.57888978000003,30.24645282
3.4899999999999998,349,0.953,-0.04,0.331,-0.40107059999999994,-0.4583664000000001,0.057295800000000015,162.54245501999995,75.58461936,30.24072324
3.5,350,0.9540000000000001,-0.040999999999999995,0.32799999999999996,-0.1718874,-0.3437748,0.286479,163.99203876,75.21792624,31.592904120000004
3.51,351,0.9540000000000001,-0.04,0.32799999999999996,-0.057295800000000015,-0.40107059999999994,0.40107059999999994,163.96912043999995,75.21792624,31.5699858
3.52,352,0.955,-0.039,0.332,0.057295800000000015,-0.4583664000000001,0.5156622000000001,163.94620212,75.22365582,31.54706748000001
3.53,353,0.97,-0.037000000000000005,0.335,0.3437748,-0.1718874,0.6875496,163.92328379999995,75.22365582,31.51841958
3.54,354,0.983,-0.039,0.331,0.3437748,0.2291832000000001,1.145916,163.88890632,75.21792624,31.47831252
3.55,355,0.995,-0.032,0.33399999999999996,0.057295800000000015,1.145916,1.8334656000000005,164.11235994,75.14917127999998,31.66738866
3.56,356,1.002,-0.028999999999999998,0.336,0.0,2.1772404,2.9793816000000004,164.02641624,75.12052338000002,31.57571538
3.57,357,1.008,-0.032,0.32899999999999996,-0.572958,2.9793816000000004,4.0680017999999984,163.90036548,75.08041632,31.44966462
3.58,358,1.003,-0.031,0.336,-1.432395,4.1825934,4.6982555999999995,163.7513964,75.0288501,31.31788428
3.59,359,0.97,-0.028999999999999998,0.325,-1.6042823999999998,5.5003968,5.844171599999999,163.579509,74.96009513999998,31.15172646000001
3.5999999999999996,360,0.9079999999999999,-0.031,0.3,-1.145916,8.5370742,7.6203414,163.43053992,74.84550354000002,31.00848696
3.61,361,0.884,-0.039,0.298,-1.2605076000000002,13.2353298,8.9381448,163.23000462,74.69653446000002,30.81368124
3.6199999999999997,362,0.894,-0.048,0.3,-2.3491277999999998,17.475219,10.943497800000001,162.98936225999995,74.49599916000003,30.59022762
3.63,363,0.902,-0.049,0.304,-4.010706000000001,19.767051000000002,11.5737516,162.73726073999995,74.27827512,30.37250358
3.6399999999999997,364,0.899,-0.055,0.314,-4.9847346,20.8556712,11.0580894,162.50807754,74.04336234,30.194886600000004
3.65,365,0.907,-0.054000000000000006,0.322,-6.1879464,21.600516600000002,10.5424272,162.32473098,73.80271998,30.06310626
3.6599999999999997,366,0.9229999999999999,-0.05,0.32899999999999996,-7.8495246,19.767051000000002,9.7975818,162.10700694,73.58499594,29.92559634
3.67,367,0.927,-0.044000000000000004,0.315,-9.8548776,16.2147114,9.568398599999998,161.84917584,73.40164938000002,29.75943852
3.6799999999999997,368,0.919,-0.043,0.294,-11.1153852,10.599723,10.1413566,161.51113062,73.26986904,29.53025532
3.69,369,0.917,-0.062,0.311,-9.9121734,5.72958,9.5111028,161.16162624,73.18965492,29.27242422
3.6999999999999997,370,0.945,-0.091,0.35200000000000004,-8.7089616,1.8907614,7.5630456000000015,160.88087682,73.12662954,29.07188892
3.71,371,0.9570000000000001,-0.10400000000000001,0.35200000000000004,-10.313244000000001,-1.2605076000000002,5.0993262,160.6001274,73.12089996,28.89427194
3.7199999999999998,372,0.9540000000000001,-0.09,0.358,-11.5737516,-5.958763200000001,2.3491277999999998,160.34802588,73.17246618,28.75103244
3.73,373,0.9520000000000001,-0.078,0.364,-12.3758928,-8.078707799999998,0.0,160.13603142000005,73.24695072,28.65935916
3.7399999999999998,374,0.96,-0.08199999999999999,0.35600000000000004,-14.0947668,-9.224623800000002,-0.9167328000000001,159.92403696,73.33862400000002,28.58487462
3.75,375,0.958,-0.079,0.337,-16.042824000000003,-12.1467096,-0.9167328000000001,159.6833946,73.4532156,28.49893092000001
3.76,376,0.96,-0.076,0.335,-16.8449652,-16.386598799999998,-0.5156622000000001,159.35107896,73.60791426,28.32704352
3.77,377,0.961,-0.09699999999999999,0.358,-17.131444199999994,-18.8503182,-0.286479,158.97292668,73.78553124,28.10931948
3.78,378,0.955,-0.11599999999999999,0.345,-21.2567418,-22.1161788,-0.6302538000000001,158.51456028,73.9975257,27.857217960000003
3.79,379,0.941,-0.10400000000000001,0.345,-24.064236,-27.7311672,-1.2605076000000002,157.97597976,74.26108638000002,27.54209106
3.8,380,0.929,-0.062,0.345,-23.0902074,-31.455394199999997,-1.6615782,157.42594007999998,74.55329496,27.20977542
3.81,381,0.922,-0.054000000000000006,0.35600000000000004,-19.4232762,-32.7731976,-1.7188740000000002,156.85298208,74.86269228,26.82016398
3.82,382,0.9059999999999999,-0.08199999999999999,0.36,-18.6784308,-31.111619399999995,-1.2032118,156.2742945,75.15490086000001,26.41336380000001
3.83,383,0.9009999999999999,-0.098,0.376,-20.1108258,-30.65325300000001,0.6875496,155.59820406,75.43565028,25.92061992
3.84,384,0.9209999999999999,-0.092,0.386,-19.8816426,-29.621928600000004,3.5523396000000003,154.81898118,75.69348138000002,25.31901402
3.8499999999999996,385,0.966,-0.092,0.359,-18.162768600000003,-27.215505,5.2139178,154.04548788,75.90547584,24.70021938
3.86,386,0.9640000000000001,-0.08800000000000001,0.33799999999999997,-17.4179232,-25.496631,6.1879464,153.21469878,76.11174072,24.02985852
3.8699999999999997,387,0.935,-0.11199999999999999,0.365,-16.386598799999998,-22.7464326,6.7609043999999985,152.40109841999995,76.28362812,23.35949766
3.88,388,0.929,-0.14300000000000002,0.359,-19.4232762,-18.7357266,8.880849000000003,151.53593184000005,76.40967888,22.66621848
3.8899999999999997,389,0.9470000000000001,-0.136,0.35,-21.772404,-14.209358400000001,11.6310474,150.61346945999995,76.47843384000002,21.944291399999997
3.9,390,0.9490000000000001,-0.147,0.36,-25.210151999999997,-10.943497800000001,12.834259199999998,149.69100708000005,76.50135216,21.26247138
3.9099999999999997,391,0.9570000000000001,-0.166,0.336,-29.1062664,-4.297185,14.9542038,148.76281511999997,76.46124510000001,20.60929926
3.92,392,0.9490000000000001,-0.166,0.363,-31.6845774,4.4117766,19.480572,147.82889358,76.32373518,19.98477504
3.9299999999999997,393,0.986,-0.162,0.35200000000000004,-33.5753388,13.5791046,22.4026578,146.98664532,76.09455198,19.46911284
3.94,394,1.008,-0.141,0.309,-32.7159018,22.86102420000001,26.0122932,146.24752949999996,75.76223634,19.0508535
3.9499999999999997,395,1.016,-0.12,0.33799999999999997,-35.236917,31.79916900000001,30.5386614,145.56570947999995,75.32105868,18.72426744
3.96,396,1.011,-0.10400000000000001,0.34600000000000003,-38.5027776,38.5027776,35.695283399999994,144.83805282,74.80539647999998,18.38049264
3.9699999999999998,397,1.048,-0.083,0.318,-42.456187799999995,45.9512316,40.5081306,144.11612573999997,74.198061,18.0768249
3.98,398,1.085,-0.08900000000000001,0.32,-40.90920120000001,51.1651494,44.0031744,143.44576488,73.52770014000002,17.824723380000005
3.9899999999999998,399,1.046,-0.125,0.336,-41.252976000000004,50.5921914,44.690723999999996,142.78113359999998,72.85160970000003,17.57262186
4.0,400,1.03,-0.14300000000000002,0.38799999999999996,-43.1437374,51.33703679999999,43.0864416,142.19671644,72.18124884,17.42365278
4.01,401,1.045,-0.171,0.382,-43.65939960000001,53.1705024,43.3729206,141.64667676000005,71.49942881999998,17.32052034
4.02,402,1.04,-0.18100000000000002,0.361,-44.2896534,51.7954032,44.4615408,141.06798917999996,70.81187922000002,17.18301042
4.03,403,1.04,-0.17800000000000002,0.335,-43.831286999999996,47.498218200000004,44.8053156,140.4320058,70.16443668000001,16.99393428
4.04,404,1.0190000000000001,-0.19699999999999998,0.337,-44.117765999999996,40.5081306,45.550160999999996,139.69288998,69.56283078,16.68453696
4.05,405,1.018,-0.218,0.371,-45.2063862,36.554720399999994,45.550160999999996,138.91939668,68.98987278000001,16.34649174
4.06,406,1.0170000000000001,-0.237,0.418,-45.7793442,34.1482968,46.3523022,138.10579632,68.42837394,15.97979862
4.07,407,1.033,-0.255,0.4270000000000001,-46.982556,32.31483119999999,48.3576552,137.24062973999997,67.86114552,15.561539280000002
4.08,408,1.0659999999999998,-0.251,0.408,-50.9359662,32.372127,50.82137460000001,136.32389694,67.28245794,15.13755036
4.09,409,1.071,-0.25,0.33,-49.2170922,30.882436199999997,53.39968560000001,135.3899754,66.68658162,14.667724799999998
4.1,410,1.006,-0.267,0.33399999999999996,-48.185767799999994,24.350715,54.25912260000001,134.39875806,66.13654194,14.11768512
4.109999999999999,411,0.958,-0.26,0.391,-46.696077,20.2827132,52.712136,133.40754072,65.61515016,13.55618628
4.12,412,0.978,-0.272,0.40700000000000003,-46.3523022,18.3919518,51.68081160000001,132.43924169999997,65.1166767,13.011876179999998
4.13,413,0.937,-0.261,0.39899999999999997,-48.4722468,16.2147114,51.33703679999999,131.45375394,64.62393282000001,12.4618365
4.14,414,0.879,-0.264,0.3720000000000001,-48.185767799999994,16.4438946,51.56622,130.49691407999998,64.13118893999999,11.946174300000001
4.1499999999999995,415,0.8640000000000001,-0.264,0.36,-46.8106686,14.9542038,54.54560160000001,129.52861506,63.62125632,11.396134620000002
4.16,416,0.912,-0.302,0.40299999999999997,-42.8572584,10.599723,58.0406454,128.5144794,63.10559412,10.74869208
4.17,417,0.93,-0.28800000000000003,0.409,-41.9405256,8.250595200000001,58.327124399999995,127.50607332,62.59566150000001,10.08979038
4.18,418,0.9079999999999999,-0.295,0.377,-41.3102718,2.3491277999999998,55.86340500000001,126.46901934,62.14302468,9.3965112
4.1899999999999995,419,0.907,-0.312,0.355,-41.0237928,-2.1199446,51.9672906,125.43769494,61.73622450000001,8.69750244
4.2,420,0.915,-0.322,0.384,-39.304918799999996,-8.193299399999999,49.274388,124.40637054,61.38672012000001,7.96984578
4.21,421,0.865,-0.3720000000000001,0.44299999999999995,-37.757932200000006,-11.688343199999998,48.5868384,123.35212782,61.05440448,7.20208206
4.22,422,0.8540000000000001,-0.371,0.426,-37.013086799999996,-8.479778399999999,49.7327544,122.36091048,60.68198178,6.497343719999999
4.2299999999999995,423,0.892,-0.36200000000000004,0.391,-35.46610020000001,-5.958763200000001,49.7900502,121.44417768,60.29809991999999,5.849901179999999
4.24,424,0.919,-0.335,0.39299999999999996,-33.116972399999995,-8.651665800000002,47.326330799999994,120.5503632,59.94286595999999,5.20818822
4.25,425,0.9209999999999999,-0.4,0.39899999999999997,-32.142943800000005,-15.2406828,47.211739200000004,119.61071208,59.6162799,4.48626114
4.26,426,0.919,-0.415,0.4270000000000001,-32.945085,-22.1734746,46.2377106,118.56792851999998,59.32407132,3.66120162
4.27,427,0.914,-0.406,0.44,-32.4867186,-25.4393352,44.748019799999994,117.51941537999998,59.06051064,2.81322378
4.28,428,0.932,-0.39399999999999996,0.428,-31.627281600000003,-28.2468294,44.2896534,116.4537135,58.80267954,1.94232762
4.29,429,0.946,-0.40700000000000003,0.4270000000000001,-31.913760600000003,-31.2835068,43.602103799999995,115.3650933,58.55057802,1.04278356
4.3,430,0.9329999999999999,-0.449,0.392,-32.658606,-38.90384820000001,42.7999626,114.1905294,58.33858356,0.04010706
4.31,431,0.899,-0.47100000000000003,0.382,-33.5753388,-46.409597999999995,41.252976000000004,112.91283306,58.155237,-1.06570188
4.32,432,0.889,-0.45,0.40299999999999997,-31.741873200000004,-47.7274014,40.966497,111.64659588,57.97189044,-2.18296998
4.33,433,0.9009999999999999,-0.44799999999999995,0.379,-29.9084076,-44.2323576,40.966497,110.4663024,57.75989598,-3.2257535399999995
4.34,434,0.898,-0.474,0.34700000000000003,-29.507337,-44.9199072,40.680018,109.2917385,57.54217193999999,-4.2685371
4.35,435,0.9059999999999999,-0.46799999999999997,0.33299999999999996,-29.8511118,-46.1804148,40.5081306,108.12863376,57.31871832,-5.30559108
4.36,436,0.885,-0.465,0.312,-29.507337,-48.185767799999994,40.680018,106.9426107,57.08953512000001,-6.37129296
4.37,437,0.86,-0.44299999999999995,0.28300000000000003,-30.022999199999997,-52.6548402,40.4508348,105.69929184,56.86035191999999,-7.49429064
4.38,438,0.937,-0.428,0.23399999999999999,-29.2781538,-59.1865614,40.33624320000001,104.39294759999999,56.64262788,-8.714691179999999
4.39,439,0.9790000000000001,-0.44299999999999995,0.256,-30.252182399999995,-65.2026204,42.1697088,102.99493008,56.40198552,-10.03249458
4.3999999999999995,440,0.9790000000000001,-0.46,0.281,-29.793815999999996,-67.5517482,44.117765999999996,101.59691256,56.138424840000006,-11.3732163
4.41,441,0.934,-0.507,0.203,-33.5753388,-68.2965936,46.00852740000001,100.1530584,55.83475709999999,-12.7196676
4.42,442,0.8759999999999999,-0.521,0.149,-36.32553720000001,-71.1040878,46.925260200000004,98.6633676,55.50817104,-14.08330764
4.43,443,0.8109999999999999,-0.49,0.17,-36.03905820000001,-70.6457214,46.696077,97.20805428,55.16439624,-15.418299779999998
4.4399999999999995,444,0.7759999999999999,-0.473,0.19699999999999998,-34.7212548,-67.49445240000001,46.7533728,95.83868466,54.79197354,-16.6730778
4.45,445,0.7979999999999999,-0.491,0.22,-30.93973200000001,-64.22859179999999,48.128472,94.5953658,54.39090294,-17.83618254
4.46,446,0.836,-0.557,0.175,-30.7678446,-63.712929599999995,50.706783,93.3635061,53.94972528000001,-18.97636896
4.47,447,0.853,-0.609,0.121,-32.372127,-67.49445240000001,54.43101,92.09726892,53.456981400000004,-20.15093286
4.4799999999999995,448,0.8170000000000001,-0.621,0.092,-35.46610020000001,-72.192708,57.1812084,90.76800636,52.92413046,-21.37706298
4.49,449,0.7829999999999999,-0.599,0.159,-37.81522800000001,-70.35924240000001,57.92605379999999,89.47312128,52.3683612,-22.53443814
4.5,450,0.725,-0.564,0.136,-36.8411994,-65.3745078,58.327124399999995,88.29855738,51.78967362,-23.57149212
4.51,451,0.6859999999999999,-0.5579999999999999,0.055999999999999994,-36.4974246,-62.3951262,59.1292656,87.18128928,51.1937973,-24.53406156
4.52,452,0.664,-0.544,0.044000000000000004,-36.096354,-64.8588456,59.24385720000001,86.06975076,50.58073224,-25.50236058
4.53,453,0.693,-0.568,0.10099999999999999,-33.8618178,-58.5563076,57.58227899999999,85.08426299999998,49.97912634000001,-26.350338420000003
4.54,454,0.7040000000000001,-0.607,0.091,-33.116972399999995,-51.0505578,58.327124399999995,84.22482600000002,49.36606128,-27.05507676
4.55,455,0.69,-0.625,0.075,-31.054323600000004,-49.2170922,60.10329419999999,83.43414396,48.73007790000001,-27.69678972
4.56,456,0.696,-0.614,0.11900000000000001,-26.8717302,-47.0971476,61.020027,82.72367604,48.08263536,-28.286936460000003
4.57,457,0.696,-0.608,0.11800000000000001,-24.9809688,-42.112413000000004,60.9054354,82.1048814,47.43519282,-28.791139500000003
4.58,458,0.762,-0.593,0.062,-24.4080108,-38.2162986,59.30115299999999,81.54338256,46.8106686,-29.22658758
4.59,459,0.79,-0.5760000000000001,0.042,-21.886995600000002,-37.872523799999996,57.86875799999999,81.02199078,46.19187396,-29.64484692000001
4.6,460,0.799,-0.606,0.044000000000000004,-19.5378678,-38.5027776,57.696870600000004,80.54070606,45.584538480000006,-30.06310626
4.61,461,0.813,-0.629,0.02,-17.9335854,-38.90384820000001,58.327124399999995,80.07661008,44.95428468,-30.46990644
4.62,462,0.792,-0.6629999999999999,0.006999999999999999,-16.2147114,-40.6227222,58.9573782,79.62397326,44.318301299999995,-30.88816578
4.63,463,0.778,-0.675,-0.005,-14.896907999999998,-41.539455,59.30115299999999,79.18852518,43.67085876,-31.30642512
4.64,464,0.787,-0.669,-0.036000000000000004,-12.6623718,-42.2270046,60.38977320000001,78.781725,43.01195706,-31.718954879999995
4.6499999999999995,465,0.755,-0.6679999999999999,-0.066,-10.4278356,-44.4615408,61.30650600000001,78.39784313999998,42.34732578,-32.14867338
4.66,466,0.7290000000000001,-0.6779999999999999,-0.083,-9.682990199999999,-46.638781200000004,61.764872399999994,78.00823170000002,41.66550576,-32.59558062
4.67,467,0.7170000000000001,-0.6659999999999999,-0.083,-9.1100322,-47.67010560000001,62.7961968,77.62434984000002,40.966497,-33.04248786
4.68,468,0.7190000000000001,-0.6509999999999999,-0.076,-7.6203414,-48.9306132,63.3691548,77.26338630000002,40.25602908,-33.4893951
4.6899999999999995,469,0.65,-0.684,-0.08800000000000001,-5.958763200000001,-50.3630082,62.910788399999994,76.9196115,39.55129074,-33.9477615
4.7,470,0.635,-0.715,-0.099,-6.0733548,-48.3576552,63.25456320000001,76.59875502,38.84082282,-34.36602084
4.71,471,0.598,-0.7140000000000001,-0.09,-6.875496000000001,-47.326330799999994,65.14532460000001,76.29508728,38.11316616000001,-34.76136186
4.72,472,0.5760000000000001,-0.695,-0.08199999999999999,-7.8495246,-43.544808,66.176649,76.01433786,37.3855095,-35.09940708000001
4.7299999999999995,473,0.5539999999999999,-0.687,-0.092,-8.250595200000001,-40.6227222,67.43715660000001,75.76223634,36.64639368,-35.38588608
4.74,474,0.525,-0.7240000000000001,-0.08900000000000001,-6.8182002000000015,-35.5806918,69.15603060000001,75.56743062000002,35.90154828,-35.60933970000001
4.75,475,0.517,-0.773,-0.11900000000000001,-7.2765666,-32.31483119999999,70.18735500000001,75.40700238,35.1509733,-35.77549752
4.76,476,0.527,-0.7909999999999999,-0.147,-7.3911582,-31.9710564,71.33327100000002,75.24084456,34.39466874,-35.93592576
4.77,477,0.5760000000000001,-0.805,-0.162,-6.703608600000001,-30.7678446,72.0208206,75.10333464,33.6326346,-36.07343568
4.78,478,0.598,-0.825,-0.188,-6.417129599999999,-31.627281600000003,72.479187,74.96582472,32.86487088,-36.21667518
4.79,479,0.565,-0.846,-0.185,-5.958763200000001,-34.5493674,72.5937786,74.81685564,32.085648,-36.394292160000006
4.8,480,0.498,-0.86,-0.184,-6.0733548,-37.299565799999996,71.9635248,74.65642740000001,31.30642512,-36.59482746
4.81,481,0.439,-0.867,-0.195,-6.3598338,-36.4401288,70.9894962,74.49599916000003,30.5386614,-36.7839036
4.82,482,0.40700000000000003,-0.855,-0.177,-6.7609043999999985,-33.4607472,69.8435802,74.35275966,29.78808642,-36.94433184
4.83,483,0.39799999999999996,-0.841,-0.179,-5.958763200000001,-31.455394199999997,68.52577679999999,74.23243848,29.06042976,-37.08184176
4.84,484,0.43799999999999994,-0.8220000000000001,-0.17800000000000002,-5.2139178,-32.7731976,67.83822719999999,74.1121173,28.32704352,-37.23081084
4.85,485,0.48100000000000004,-0.7909999999999999,-0.182,-3.9534102,-36.2682414,66.80690279999999,73.98606654,27.60511644,-37.42561656
4.86,486,0.48100000000000004,-0.754,-0.209,-1.9480572,-38.0444112,65.89017,73.87720451999998,26.88318936,-37.63188144
4.87,487,0.40700000000000003,-0.748,-0.18899999999999997,1.432395,-38.159002799999996,64.3431834,73.80271998,26.17272144,-37.84387589999999
4.88,488,0.35200000000000004,-0.769,-0.172,5.72958,-33.9191136,62.8534926,73.79699040000001,25.49090142,-38.0157633
4.89,489,0.304,-0.805,-0.188,7.8495246,-29.9084076,62.5097178,73.82563830000002,24.82054056,-38.14181406
4.8999999999999995,490,0.266,-0.833,-0.19,8.8235532,-27.100913399999996,62.7961968,73.88293409999999,24.14445012,-38.22775776
4.91,491,0.26,-0.8320000000000001,-0.163,11.0007936,-22.058882999999998,62.6243094,73.98606654,23.491278,-38.27359439999999
4.92,492,0.276,-0.833,-0.17600000000000002,12.834259199999998,-16.2147114,62.22323879999999,74.12357646,22.8610242,-38.25640566
4.93,493,0.276,-0.83,-0.16899999999999998,14.037471,-13.8655836,62.0513514,74.2840047,22.23649998,-38.2162986
4.9399999999999995,494,0.276,-0.826,-0.18100000000000002,15.068795399999999,-12.9488508,61.4210976,74.4558921,21.61770534,-38.17619154000001
4.95,495,0.282,-0.831,-0.172,16.558486199999994,-11.745639,59.8168152,74.64496824,21.01609944,-38.12462532
4.96,496,0.266,-0.847,-0.16399999999999998,17.7044022,-9.396511199999999,57.754166399999995,74.85123311999997,20.44314144,-38.06159994
4.97,497,0.261,-0.866,-0.166,17.475219,-6.0160589999999985,55.3477428,75.06322758,19.89883134,-37.96992666
4.9799999999999995,498,0.263,-0.8809999999999999,-0.183,16.558486199999994,-5.958763200000001,53.858052,75.2580333,19.3659804,-37.88398296
4.99,499,0.267,-0.893,-0.187,16.7876694,-7.6776372,52.6548402,75.45283902,18.844588620000003,-37.82095758
5.0,500,0.257,-0.914,-0.183,17.761698000000006,-7.448453999999999,50.8786704,75.6591039,18.334656000000006,-37.757932200000006
5.01,501,0.247,-0.948,-0.174,18.6784308,-3.4950437999999995,47.9565846,75.87682794,17.870560020000006,-37.67198850000001
5.02,502,0.223,-0.98,-0.16699999999999998,17.6471064,1.432395,44.6334282,76.09455198,17.4465711,-37.54593774
5.03,503,0.192,-0.99,-0.166,16.615782,7.3911582,41.883229799999995,76.31800559999998,17.056959659999997,-37.36259118
5.04,504,0.183,-0.986,-0.149,15.9855282,13.980175199999998,40.10706,76.54718879999999,16.701725699999994,-37.12194882
5.05,505,0.204,-0.988,-0.132,15.5844576,19.9962342,39.0757356,76.79356074,16.3579509,-36.82401066
5.06,506,0.24,-0.992,-0.133,15.011499599999999,22.7464326,38.90384820000001,77.0342031,16.02563526,-36.4974246
5.07,507,0.267,-0.987,-0.126,15.297978599999999,21.944291399999997,39.47680620000001,77.27484546000002,15.68759004,-36.18802728
5.08,508,0.292,-0.981,-0.132,16.959556799999998,20.7410796,40.2789474,77.52694698,15.33808566,-35.88435954
5.09,509,0.301,-0.9840000000000001,-0.13,18.6784308,19.365980399999998,40.5654264,77.78477808,14.9828517,-35.60361012
5.1,510,0.292,-0.9690000000000001,-0.099,19.5378678,17.3606274,40.2789474,78.05979792000002,14.62761774,-35.34004944
5.11,511,0.28600000000000003,-0.935,-0.081,19.308684600000007,17.4179232,39.8778768,78.31762902,14.272383780000002,-35.076488760000004
5.12,512,0.284,-0.894,-0.096,18.277360199999997,19.8816426,40.5654264,78.57546012,13.91714982,-34.79573934
5.13,513,0.268,-0.8540000000000001,-0.11900000000000001,18.907614,18.334656,42.91455420000001,78.82756164,13.52753838,-34.52644908
5.14,514,0.2,-0.828,-0.11,22.9756158,9.224623800000002,46.0658232,79.10258148,13.09781988,-34.343102519999995
5.1499999999999995,515,0.149,-0.853,-0.053,29.392745399999995,5.042030400000002,45.4928652,79.4406267,12.6623718,-34.19413344
5.16,516,0.159,-0.9209999999999999,-0.002,32.8877892,8.136003599999999,39.7059894,79.80731982,12.2899491,-34.03943478
5.17,517,0.179,-0.971,0.018000000000000002,33.116972399999995,11.5737516,32.4294228,80.17974252,11.99201094,-33.8618178
5.18,518,0.184,-0.9940000000000001,0.001,32.142943800000005,13.750992000000002,27.6165756,80.54643564,11.73990942,-33.67274166
5.1899999999999995,519,0.18600000000000005,-1.0170000000000001,-0.01,31.2835068,15.870936600000002,26.069589,80.90166959999998,11.51072622,-33.472206359999994
5.2,520,0.18600000000000005,-1.034,-0.024,29.67922440000001,17.8762896,27.3873924,81.25690356,11.26435428,-33.24302315999999
5.21,521,0.183,-1.032,-0.018000000000000002,27.559279800000002,18.334656,29.335449600000004,81.57776004,11.0007936,-33.01383996
5.22,522,0.18899999999999997,-1.005,-0.012,26.5279554,18.277360199999997,30.8251404,81.88715736,10.72004418,-32.784656760000004
5.2299999999999995,523,0.217,-0.987,-0.009000000000000001,25.7258142,17.475219,31.5699858,82.19082510000001,10.43356518,-32.56120314
5.24,524,0.23399999999999999,-0.97,0.0,25.6112226,15.2406828,31.856464799999998,82.48303368,10.13562702,-32.36639742
5.25,525,0.239,-0.9570000000000001,-0.006,26.241476399999996,13.521808800000002,31.5699858,82.79243100000002,9.84914802,-32.18878044
5.26,526,0.231,-0.955,0.012,28.418716800000002,10.657018800000001,31.6845774,83.10182832,9.55120986,-32.03981136
5.27,527,0.209,-0.956,0.009000000000000001,30.997027799999998,9.6256944,32.7159018,83.43987354000002,9.24181254,-31.902301439999995
5.28,528,0.196,-0.9640000000000001,0.009000000000000001,32.257535399999995,9.5111028,34.0337052,83.78937792,8.91522648,-31.770521100000003
5.29,529,0.17,-0.9570000000000001,0.015,33.2888598,11.5164558,34.8358464,84.15034145999998,8.58291084,-31.61582244
5.3,530,0.13,-0.9490000000000001,0.021,34.3201842,14.7823164,35.9244666,84.52849374,8.23913604,-31.426746299999998
5.31,531,0.087,-0.9570000000000001,0.044000000000000004,35.4088044,17.3606274,35.9244666,84.91810518,7.89536124,-31.21475184
5.32,532,0.057999999999999996,-0.958,0.048,35.8671708,19.9389384,34.950438,85.3134462,7.56877518,-30.985568640000004
5.33,533,0.057999999999999996,-0.963,0.055999999999999994,36.2682414,21.772404,33.518043,85.70878722,7.2479187000000005,-30.7391967
5.34,534,0.073,-0.9440000000000001,0.092,37.0703826,23.663165399999997,31.856464799999998,86.11558740000002,6.94425096,-30.475636020000003
5.35,535,0.076,-0.8759999999999999,0.142,37.41415739999999,25.4393352,29.392745399999995,86.53957632,6.66350154,-30.194886600000004
5.36,536,0.073,-0.851,0.11900000000000001,36.955791,30.4813656,27.501984000000004,86.94637650000001,6.40567044,-29.874030120000004
5.37,537,0.135,-0.935,0.067,33.518043,37.872523799999996,27.960350399999996,87.33025836,6.13638018,-29.4786891
5.38,538,0.179,-0.971,0.061,33.116972399999995,39.3622146,29.1062664,87.70268106,5.85563076,-29.07188892
5.39,539,0.15,-0.981,0.045,32.7731976,35.5806918,29.5646328,88.06937418,5.56915176,-28.7051958
5.3999999999999995,540,0.10099999999999999,-0.97,0.085,36.38283300000001,29.621928600000004,29.1062664,88.47044478000002,5.2826727600000005,-28.395798480000003
5.41,541,0.08199999999999999,-1.012,0.125,41.3675676,26.4706596,28.0176462,88.91162244,5.00765292,-28.120778640000005
5.42,542,0.086,-1.085,0.129,41.825934000000004,25.496631,27.043617600000005,89.35852968,4.73836266,-27.862947540000004
5.43,543,0.084,-1.117,0.145,40.1643558,23.3766864,26.8717302,89.7825186,4.4690724,-27.62230518
5.4399999999999995,544,0.073,-1.145,0.163,37.9871154,20.3973048,27.1582092,90.17785962,4.19978214,-27.4160403
5.45,545,0.051,-1.159,0.172,35.3515086,17.18874,27.559279800000002,90.56174148,3.9190327200000006,-27.2441529
5.46,546,0.022000000000000002,-1.1640000000000001,0.185,32.0283522,14.7823164,27.3873924,90.89405712,3.644012880000001,-27.09518382
5.47,547,-0.003,-1.161,0.19399999999999998,27.215505,14.1520626,26.8717302,91.17480654,3.37472262,-26.9576739
5.4799999999999995,548,-0.025,-1.157,0.187,22.2880662,14.8396122,26.642546999999997,91.40971932,3.0997027800000003,-26.8144344
5.49,549,-0.040999999999999995,-1.124,0.184,18.162768600000003,16.8449652,26.9863218,91.59879546,2.82468294,-26.65400616
5.5,550,-0.054000000000000006,-1.099,0.201,16.8449652,19.2513888,27.4446882,91.79360118,2.53247436,-26.45920044
5.51,551,-0.065,-1.081,0.20199999999999999,15.2406828,22.1161788,27.6165756,91.95402942,2.24599536,-26.24720598
5.52,552,-0.078,-1.062,0.18899999999999997,12.891555,23.204798999999998,27.7311672,92.09153934,1.9595163600000003,-26.02948194
5.53,553,-0.073,-1.04,0.179,12.032118,22.4026578,27.788463,92.2175901,1.6673077799999998,-25.81748748
5.54,554,-0.07200000000000001,-1.013,0.184,11.401864199999999,21.142150199999996,27.8457588,92.33791128,1.38082878,-25.61695218
5.55,555,-0.08,-0.996,0.191,12.7196676,20.340009,27.960350399999996,92.48115077999998,1.07716104,-25.42214646
5.56,556,-0.071,-0.977,0.19699999999999998,13.5791046,20.912967000000002,27.903054600000004,92.62439028,0.7849524600000001,-25.227340739999995
5.57,557,-0.059000000000000004,-0.965,0.18600000000000005,13.8082878,21.944291399999997,28.0176462,92.7619002,0.49274388,-25.02107586
5.58,558,-0.052000000000000005,-0.96,0.187,14.381245800000002,22.0015872,28.074942,92.91086928,0.20053530000000008,-24.81481098
5.59,559,-0.051,-0.951,0.19899999999999998,14.7823164,21.600516600000002,27.6165756,93.05410878,-0.0859437,-24.61427568
5.6,560,-0.065,-0.94,0.205,15.297978599999999,20.5118964,26.814434400000003,93.22599618,-0.3724227000000001,-24.41946996
5.61,561,-0.057999999999999996,-0.934,0.19899999999999998,14.9542038,19.365980399999998,26.0122932,93.37496526,-0.64744254,-24.24185298
5.62,562,-0.040999999999999995,-0.932,0.20600000000000002,14.5531332,18.2200644,25.210151999999997,93.51820476,-0.91100322,-24.07569516
5.63,563,-0.015,-0.935,0.217,14.896907999999998,17.9335854,24.2361234,93.66144426,-1.1688343199999998,-23.91526692
5.64,564,-0.01,-0.9440000000000001,0.21899999999999997,14.8396122,17.303331600000003,23.663165399999997,93.81041334,-1.41520626,-23.760568260000003
5.6499999999999995,565,-0.021,-0.95,0.223,14.8396122,15.5844576,22.86102420000001,93.97657116,-1.6558486199999998,-23.62305834
5.66,566,-0.03,-0.968,0.21100000000000002,15.068795399999999,13.5791046,21.600516600000002,94.11981066,-1.88503182,-23.50273716
5.67,567,-0.04,-0.991,0.20800000000000002,14.9542038,11.2872726,20.454600600000006,94.26877974,-2.09702628,-23.4053343
5.68,568,-0.05,-1.012,0.215,14.7250206,10.084060800000001,19.4232762,94.41774882,-2.29756158,-23.3193906
5.6899999999999995,569,-0.052000000000000005,-1.037,0.20199999999999999,13.9228794,10.2559482,18.5638392,94.54952916,-2.4923672999999997,-23.227717320000004
5.7,570,-0.062,-1.052,0.196,12.1467096,10.5424272,17.5325148,94.68703908,-2.67571386,-23.13604404
5.71,571,-0.054000000000000006,-1.048,0.19699999999999998,11.5164558,10.943497800000001,16.042824000000003,94.7959011,-2.84760126,-23.04437076
5.72,572,-0.047,-1.052,0.214,11.688343199999998,11.401864199999999,14.5531332,94.9104927,-3.00229992,-22.94123832
5.7299999999999995,573,-0.046,-1.051,0.218,10.7143146,11.401864199999999,13.9228794,95.01362514,-3.1512689999999997,-22.83810588
5.74,574,-0.053,-1.046,0.203,9.6256944,10.7143146,14.0947668,95.10529842,-3.3059676599999994,-22.7464326
5.75,575,-0.067,-1.033,0.191,9.167328,9.9694692,14.037471,95.20843086,-3.45493674,-22.654759320000004
5.76,576,-0.081,-1.022,0.205,9.0527364,9.9694692,13.2926256,95.29437456,-3.59817624,-22.56881562
5.77,577,-0.08,-1.0170000000000001,0.214,7.6203414,11.3445684,12.4331886,95.36312952,-3.73568616,-22.47141276
5.78,578,-0.079,-1.008,0.225,6.6463128000000005,13.2926256,11.688343199999998,95.42042532,-3.8674665,-22.35109158
5.79,579,-0.086,-0.998,0.239,6.130650599999999,14.7250206,11.2872726,95.47199154,-3.99351726,-22.21358166
5.8,580,-0.102,-0.993,0.254,5.443101,15.183387000000002,11.688343199999998,95.55220566,-4.13675676,-22.07034216
5.81,581,-0.106,-0.987,0.262,4.0680017999999984,16.8449652,12.0894138,95.58085356,-4.27426668,-21.915643499999998
5.82,582,-0.096,-0.981,0.264,2.291832,18.8503182,12.2040054,95.58658314,-4.42323576,-21.743756100000002
5.83,583,-0.075,-0.977,0.263,1.432395,20.5118964,12.7196676,95.58658314,-4.57220484,-21.55467996
5.84,584,-0.06,-0.99,0.253,0.6302538000000001,21.2567418,13.8082878,95.57512398,-4.73263308,-21.359874240000003
5.85,585,-0.05,-1.012,0.24100000000000002,-1.6042823999999998,19.480572,14.4958374,95.56366482,-4.88733174,-21.19371642
5.86,586,-0.027999999999999997,-1.006,0.223,-3.6669312000000014,16.959556799999998,15.011499599999999,95.51209860000002,-5.05921914,-21.03901776
5.87,587,-0.013000000000000001,-0.985,0.19699999999999998,-2.5210152000000003,13.0634424,15.068795399999999,95.47199154,-5.22537696,-20.924426160000003
5.88,588,-0.023,-0.9690000000000001,0.191,-0.11459160000000004,6.130650599999999,14.4958374,95.46626196,-5.37434604,-20.87858952
5.89,589,-0.043,-0.961,0.213,1.432395,0.2291832000000001,14.381245800000002,95.4834507,-5.51758554,-20.89004868
5.8999999999999995,590,-0.068,-0.943,0.247,2.5210152000000003,-2.2345362,14.0947668,95.57512398,-5.64936588,-20.93588532
5.91,591,-0.10300000000000001,-0.9359999999999999,0.266,3.7815228,-2.6929026,13.6936962,95.61523104,-5.781146219999999,-20.97599238
5.92,592,-0.129,-0.9470000000000001,0.266,5.1566220000000005,-2.0626488000000003,13.8655836,95.67252684,-5.9129265600000025,-21.01036986
5.93,593,-0.13699999999999998,-0.972,0.261,5.6722842,-0.9740286,14.266654199999998,95.73555222,-6.05616606,-21.03328818
5.9399999999999995,594,-0.14300000000000002,-0.996,0.26,5.844171599999999,-0.1718874,14.209358400000001,95.79284802,-6.19367598,-21.05047692
5.95,595,-0.147,-1.006,0.24600000000000002,5.042030400000002,-0.40107059999999994,13.464512999999998,95.89598046,-6.33691548,-21.06193608
5.96,596,-0.14300000000000002,-1.011,0.22699999999999998,4.2398892,-1.6615782,11.9748222,95.9418171,-6.451507079999999,-21.09058398
5.97,597,-0.136,-1.012,0.22399999999999998,3.1512689999999997,-3.2658606,9.396511199999999,95.98192416,-6.543180359999999,-21.136420620000006
5.9799999999999995,598,-0.14400000000000002,-1.008,0.23399999999999999,1.3750992,-4.8128472,6.130650599999999,95.9991129,-6.5947465800000025,-21.18798684
5.99,599,-0.16399999999999998,-0.995,0.248,-1.2605076000000002,-6.3025379999999975,2.6356068,95.9991129,-6.6176648999999985,-21.2567418
6.0,600,-0.188,-0.977,0.255,-4.297185,-7.5057497999999985,0.0,96.03921996,-6.65204238,-21.30830802
6.01,601,-0.205,-0.9590000000000001,0.261,-6.1879464,-7.9641161999999985,-2.0626488000000003,95.98765374,-6.6176648999999985,-21.38279256
6.02,602,-0.212,-0.948,0.266,-7.5630456000000015,-7.8495246,-3.8388186,95.91889878,-6.5718282599999975,-21.4572771
6.03,603,-0.212,-0.9520000000000001,0.254,-7.6776372,-6.417129599999999,-5.1566220000000005,95.85014382,-6.51453246,-21.52030248
6.04,604,-0.205,-0.9670000000000001,0.23399999999999999,-7.3911582,-5.042030400000002,-5.6722842,95.77565928,-6.451507079999999,-21.56040954
6.05,605,-0.191,-0.977,0.228,-6.703608600000001,-3.6669312000000014,-6.130650599999999,95.7699297,-6.4228591800000014,-21.57759828
6.06,606,-0.174,-0.98,0.225,-5.6722842,-2.6356068,-6.8182002000000015,95.7126339,-6.348374640000001,-21.59478702
6.07,607,-0.16399999999999998,-0.9890000000000001,0.22,-4.6409598,-2.1199446,-7.6776372,95.66679726,-6.2738901,-21.60624618
6.08,608,-0.152,-0.997,0.212,-4.3544808,-1.6615782,-8.136003599999999,95.62096062,-6.1879464,-21.61770534
6.09,609,-0.142,-0.998,0.21100000000000002,-4.9274388,-0.6302538000000001,-8.479778399999999,95.57512398,-6.1077322800000005,-21.61770534
6.1,610,-0.133,-0.991,0.222,-6.130650599999999,0.572958,-8.8235532,95.56366482,-6.0275181600000005,-21.600516600000002
6.11,611,-0.122,-0.976,0.22399999999999998,-7.6203414,1.8334656000000005,-9.2819196,95.4834507,-5.94157446,-21.571868700000003
6.12,612,-0.107,-0.968,0.21100000000000002,-8.8235532,3.0366774,-9.5111028,95.38604784,-5.849901179999999,-21.53749122
6.13,613,-0.091,-0.966,0.205,-9.1100322,3.380452200000001,-10.084060800000001,95.28864498,-5.75249832,-21.49165458
6.14,614,-0.08,-0.9670000000000001,0.2,-9.396511199999999,2.0626488000000003,-10.657018800000001,95.19124212,-5.64936588,-21.46300668
6.15,615,-0.07,-0.97,0.201,-9.3392154,0.057295800000000015,-11.2872726,95.12821674,-5.5290447,-21.46300668
6.16,616,-0.063,-0.976,0.204,-9.740286,-1.145916,-11.688343199999998,95.03081388,-5.40872352,-21.46873626
6.17,617,-0.067,-0.9790000000000001,0.204,-9.8548776,-2.2345362,-11.6310474,94.93341102,-5.29413192,-21.48019542
6.18,618,-0.07200000000000001,-0.9790000000000001,0.214,-8.9954406,-3.2658606,-11.6310474,94.84173774,-5.17381074,-21.50311374
6.1899999999999995,619,-0.07400000000000001,-0.985,0.228,-8.250595200000001,-4.010706000000001,-11.745639,94.76152362,-5.05348956,-21.53176164
6.2,620,-0.077,-0.988,0.242,-7.734933000000002,-3.7815228,-11.8602306,94.73860529999999,-4.9274388,-21.571868700000003
6.21,621,-0.077,-0.995,0.24100000000000002,-7.3911582,-2.6356068,-11.6310474,94.66412076,-4.812847199999998,-21.58905744
6.22,622,-0.078,-1.006,0.22899999999999998,-7.161975,-1.7761698000000001,-11.2299768,94.58963622,-4.6982556,-21.59478702
6.2299999999999995,623,-0.077,-1.01,0.221,-7.5057497999999985,-1.0886202,-10.886202,94.51515168,-4.58939358,-21.600516600000002
6.24,624,-0.068,-1.0090000000000001,0.215,-8.4224826,-0.9167328000000001,-10.7716104,94.42920798000002,-4.48053156,-21.600516600000002
6.25,625,-0.062,-0.998,0.20800000000000002,-9.0527364,-1.4896908000000002,-10.599723,94.37764176,-4.36593996,-21.61770534
6.26,626,-0.057999999999999996,-0.988,0.205,-8.8235532,-2.6356068,-10.313244000000001,94.29169806,-4.26280752,-21.63489408
6.27,627,-0.054000000000000006,-0.981,0.209,-8.9381448,-4.1252976000000015,-10.2559482,94.20002478,-4.15967508,-21.66927156
6.28,628,-0.05,-0.9670000000000001,0.21100000000000002,-8.5370742,-5.042030400000002,-10.313244000000001,94.11981066,-4.05081306,-21.7151082
6.29,629,-0.053,-0.966,0.204,-8.078707799999998,-5.5576926,-10.313244000000001,94.03959654,-3.94195104,-21.76094484
6.3,630,-0.062,-0.971,0.19699999999999998,-7.6776372,-6.1879464,-9.9694692,94.00521906,-3.8388186000000006,-21.81824064
6.31,631,-0.067,-0.975,0.198,-7.2192707999999985,-6.8182002000000015,-9.740286,93.9364641,-3.73568616,-21.88126602
6.32,632,-0.065,-0.972,0.203,-7.1046792000000005,-7.1046792000000005,-9.8548776,93.86770914,-3.63255372,-21.944291399999997
6.33,633,-0.061,-0.968,0.21100000000000002,-6.589017,-6.990087599999999,-9.682990199999999,93.80468376,-3.52942128,-22.007316780000004
6.34,634,-0.057999999999999996,-0.971,0.214,-6.130650599999999,-7.161975,-9.3392154,93.74738796,-3.42628884,-22.07607174
6.35,635,-0.053,-0.976,0.21100000000000002,-6.130650599999999,-7.1046792000000005,-8.7662574,93.7359288,-3.32888598,-22.14482670000001
6.36,636,-0.054000000000000006,-0.98,0.2,-6.1879464,-6.417129599999999,-8.193299399999999,93.67863300000002,-3.24294228,-22.2021225
6.37,637,-0.054000000000000006,-0.985,0.19699999999999998,-5.6149884000000005,-6.1879464,-7.6203414,93.62706678,-3.1627281600000003,-22.259418300000004
6.38,638,-0.053,-0.9840000000000001,0.198,-4.7555514,-6.703608600000001,-7.3911582,93.58123014,-3.0825140400000004,-22.32244368
6.39,639,-0.055,-0.986,0.192,-4.583664,-7.2192707999999985,-7.5057497999999985,93.54112308,-3.00229992,-22.38546906
6.4,640,-0.061,-0.991,0.18600000000000005,-4.5263682,-7.1046792000000005,-7.906820400000001,93.54112308,-2.9220857999999996,-22.45422402
6.41,641,-0.067,-0.993,0.18100000000000002,-4.3544808,-6.3598338,-8.078707799999998,93.50101602,-2.8361421,-22.51151982
6.42,642,-0.069,-0.992,0.179,-3.7815228,-5.72958,-8.193299399999999,93.46663854,-2.7501984,-22.56308604
6.43,643,-0.063,-0.9890000000000001,0.185,-2.86479,-5.2712136,-8.3651868,93.43799064,-2.6642547000000003,-22.60892268
6.4399999999999995,644,-0.057,-0.9840000000000001,0.18600000000000005,-2.1199446,-4.9847346,-8.4224826,93.42080190000001,-2.57258142,-22.654759320000004
6.45,645,-0.055999999999999994,-0.9840000000000001,0.192,-1.2605076000000002,-4.5263682,-8.3651868,93.4780977,-2.4923672999999997,-22.6891368
6.46,646,-0.055,-0.985,0.195,-1.0886202,-3.8961144,-8.250595200000001,93.46663854,-2.4064236,-22.72351428
6.47,647,-0.053,-0.985,0.185,-1.2032118,-3.1512689999999997,-8.078707799999998,93.45517938,-2.32620948,-22.75216218
6.4799999999999995,648,-0.048,-0.992,0.184,-1.2605076000000002,-2.0626488000000003,-7.906820400000001,93.44372022,-2.24599536,-22.76935092
6.49,649,-0.044000000000000004,-0.991,0.184,-1.6042823999999998,-1.6042823999999998,-7.7922288,93.43226106,-2.1657812400000003,-22.78081008
6.5,650,-0.042,-0.9840000000000001,0.18,-1.6042823999999998,-1.2605076000000002,-7.6203414,93.49528644,-2.0912967,-22.78653966
6.51,651,-0.039,-0.983,0.18100000000000002,-1.3750992,-0.8021411999999999,-7.6203414,93.4780977,-2.01108258,-22.792269240000003
6.52,652,-0.039,-0.981,0.183,-1.0313244000000001,-0.8021411999999999,-7.734933000000002,93.47236812,-1.93659804,-22.792269240000003
6.53,653,-0.038,-0.9790000000000001,0.18600000000000005,-0.6302538000000001,-0.40107059999999994,-7.8495246,93.46090896,-1.85638392,-22.792269240000003
6.54,654,-0.035,-0.981,0.184,-0.3437748,0.057295800000000015,-8.021412000000002,93.46090896,-1.7761698000000001,-22.78653966
6.55,655,-0.033,-0.986,0.187,-0.3437748,0.5156622000000001,-7.9641161999999985,93.55258224,-1.6959556799999995,-22.775080499999998
6.56,656,-0.032,-0.987,0.187,-0.40107059999999994,1.3178034,-7.8495246,93.54685266,-1.62147114,-22.75789176
6.57,657,-0.025,-0.985,0.182,-0.2291832000000001,1.8334656000000005,-7.6203414,93.54112308,-1.5469866,-22.73497344
6.58,658,-0.021,-0.983,0.185,0.057295800000000015,1.7188740000000002,-7.333862400000001,93.54112308,-1.47250206,-22.71205512
6.59,659,-0.018000000000000002,-0.985,0.183,0.572958,1.5469866,-6.7609043999999985,93.54685266,-1.40947668,-22.69486638
6.6,660,-0.013000000000000001,-0.99,0.188,0.8021411999999999,1.2605076000000002,-6.417129599999999,93.66144426,-1.32926256,-22.6891368
6.61,661,-0.009000000000000001,-0.992,0.193,1.0313244000000001,0.8021411999999999,-6.0160589999999985,93.67290342,-1.26623718,-22.67767764
6.62,662,-0.002,-0.998,0.196,1.0886202,0.286479,-5.6149884000000005,93.68436258,-1.21467096,-22.66621848
6.63,663,0.001,-1.0070000000000001,0.198,0.7448454000000001,-0.286479,-5.0993262,93.69009216,-1.16310474,-22.66621848
6.64,664,0.002,-1.006,0.2,0.3437748,-1.7761698000000001,-4.8701430000000006,93.69582174,-1.11153852,-22.68340722
6.65,665,0.0,-0.998,0.204,0.3437748,-2.8074942000000003,-4.6982555999999995,93.8218725,-1.03705398,-22.72351428
6.66,666,-0.001,-0.9940000000000001,0.198,0.057295800000000015,-3.380452200000001,-4.4117766,93.8218725,-0.9912173399999998,-22.75216218
6.67,667,-0.005,-0.992,0.195,0.057295800000000015,-3.6669312000000014,-4.010706000000001,93.8218725,-0.9453807,-22.78653966
6.68,668,-0.006,-0.9890000000000001,0.193,0.3437748,-4.010706000000001,-3.6669312000000014,93.82760208,-0.90527364,-22.82091714
6.6899999999999995,669,-0.008,-0.983,0.198,0.9740286,-4.5263682,-3.6096353999999997,93.83906124,-0.86516658,-22.866753780000003
6.7,670,-0.011000000000000001,-0.977,0.20800000000000002,1.8907614,-4.9274388,-3.6669312000000014,93.95365284,-0.8193299399999999,-22.91259042
6.71,671,-0.013000000000000001,-0.977,0.209,2.3491277999999998,-5.2139178,-3.6669312000000014,93.98230074,-0.7734933,-22.96415664
6.72,672,-0.013000000000000001,-0.982,0.212,2.6929026,-5.0993262,-3.4377480000000005,94.01094864,-0.73338624,-23.00999328
6.7299999999999995,673,-0.015,-0.987,0.213,2.7501984,-4.7555514,-3.380452200000001,94.03959654,-0.69900876,-23.05582992
6.74,674,-0.013000000000000001,-0.99,0.209,2.4064236,-4.5263682,-3.1512689999999997,94.06251486,-0.6589017,-23.09593698
6.75,675,-0.013000000000000001,-0.99,0.21,1.8334656000000005,-4.2398892,-3.0366774,94.1942952,-0.62452422,-23.13604404
6.76,676,-0.013000000000000001,-0.987,0.214,1.5469866,-3.8961144,-2.86479,94.21148394,-0.59014674,-23.17042152
6.77,677,-0.013999999999999999,-0.986,0.217,1.2605076000000002,-3.5523396000000003,-2.6929026,94.22867268000002,-0.56149884,-23.204798999999998
6.78,678,-0.016,-0.986,0.21600000000000005,1.0886202,-3.1512689999999997,-2.5783110000000002,94.24013184,-0.53285094,-23.2334469
6.79,679,-0.015,-0.9890000000000001,0.215,0.9167328000000001,-2.4064236,-2.1772404,94.24586142,-0.5099326200000001,-23.25636522
6.8,680,-0.013999999999999999,-0.996,0.213,0.5156622000000001,-1.6615782,-1.8334656000000005,94.52661084,-0.4870143000000001,-23.2620948
6.81,681,-0.015,-0.997,0.213,0.286479,-1.145916,-1.4896908000000002,94.52661084,-0.46982556,-23.27355396
