TimeStamp(s),FrameCounter,AccX,AccY,AccZ,GyrX,GyrY,GyrZ,EulerX,EulerY,EulerZ
0.01,1,-0.006,-1.0190000000000001,0.081,2.6929026,0.3437748,-1.5469866,92.6186607,1.50687954,-11.40759378
0.02,2,-0.005,-1.016,0.084,2.6929026,0.572958,-1.7188740000000002,92.64730859999999,1.52406828,-11.401864199999999
0.03,3,-0.002,-1.011,0.08900000000000001,2.9793816000000004,0.6302538000000001,-2.0626488000000003,92.6759565,1.5412570200000002,-11.396134620000002
0.04,4,0.001,-1.0070000000000001,0.096,3.2085647999999996,0.5156622000000001,-2.291832,92.71033398,1.56417534,-11.38467546
0.05,5,0.006999999999999999,-1.004,0.09699999999999999,2.9793816000000004,0.286479,-2.4064236,92.73898188,1.5870936600000003,-11.38467546
0.060000000000000005,6,0.006,-1.004,0.094,2.5210152000000003,0.057295800000000015,-2.4637194,92.80200726,1.5870936600000003,-11.3732163
0.06999999999999999,7,0.006,-1.006,0.096,2.1199446,0.0,-2.4064236,92.82492558,1.6157415599999996,-11.3732163
0.08,8,0.009000000000000001,-1.006,0.094,1.6615782,0.1718874,-2.2345362,92.84211432,1.6329303,-11.36748672
0.09,9,0.009000000000000001,-1.004,0.091,1.3178034,0.3437748,-2.0053530000000004,92.85357348,1.6558486199999998,-11.36748672
0.09999999999999999,10,0.006999999999999999,-1.0,0.091,1.432395,0.2291832000000001,-1.7761698000000001,92.86503264,1.67303736,-11.36175714
0.11,11,0.001,-0.998,0.091,1.6042823999999998,-0.2291832000000001,-1.6615782,92.92232844,1.64438946,-11.35029798
0.12,12,-0.002,-0.995,0.095,1.9480572,-0.572958,-1.8907614,92.94524676,1.6615782,-11.35602756
0.13,13,0.0,-0.995,0.098,2.291832,-0.4583664000000001,-2.0626488000000003,92.96816508,1.6844965200000002,-11.36175714
0.14,14,0.0,-0.9990000000000001,0.09699999999999999,2.4064236,-0.4583664000000001,-2.0053530000000004,92.9910834,1.7074148399999998,-11.36175714
0.15000000000000002,15,0.0,-1.002,0.098,2.1199446,-0.4583664000000001,-1.8334656000000005,93.01400172,1.7246035799999997,-11.36748672
0.16,16,-0.001,-1.003,0.096,1.8907614,-0.286479,-1.8907614,93.07129752,1.70168526,-11.35602756
0.17,17,0.0,-1.003,0.098,1.8907614,-0.2291832000000001,-1.9480572,93.08848626,1.7188740000000002,-11.35602756
0.18000000000000002,18,-0.001,-1.003,0.1,1.8334656000000005,-0.057295800000000015,-1.7761698000000001,93.105675,1.73606274,-11.35602756
0.19,19,-0.004,-1.005,0.099,1.7761698000000001,-0.057295800000000015,-1.7761698000000001,93.12859332,1.75898106,-11.35602756
0.2,20,-0.002,-1.008,0.10300000000000001,1.7761698000000001,-0.11459160000000004,-1.6042823999999998,93.14578206000002,1.77044022,-11.35602756
0.21000000000000002,21,0.005,-1.0090000000000001,0.106,1.6042823999999998,-0.057295800000000015,-1.3178034,93.22599618,1.74179232,-11.35029798
0.22,22,0.006,-1.011,0.102,1.3750992,-0.40107059999999994,-1.0313244000000001,93.24318492,1.75325148,-11.35602756
0.23,23,0.005,-1.012,0.10099999999999999,0.9740286,-0.8594370000000001,-0.9167328000000001,93.24891449999998,1.76471064,-11.36175714
0.24000000000000002,24,0.004,-1.012,0.099,0.7448454000000001,-1.0886202,-0.8594370000000001,93.26037366,1.7761698000000001,-11.3732163
0.25,25,0.0,-1.01,0.10099999999999999,0.6302538000000001,-0.9167328000000001,-0.9167328000000001,93.26610324,1.78762896,-11.37894588
0.26,26,-0.001,-1.0090000000000001,0.10300000000000001,0.572958,-0.4583664000000001,-1.0313244000000001,93.35204694,1.70168526,-11.36175714
0.27,27,-0.003,-1.0090000000000001,0.105,0.5156622000000001,0.0,-0.9740286,93.35777652,1.7074148399999998,-11.36175714
0.28,28,-0.005,-1.01,0.109,0.40107059999999994,0.2291832000000001,-0.8021411999999999,93.3635061,1.7188740000000002,-11.35602756
0.29000000000000004,29,-0.004,-1.011,0.10800000000000001,0.0,0.11459160000000004,-0.7448454000000001,93.3635061,1.7246035799999997,-11.35602756
0.3,30,-0.003,-1.01,0.10400000000000001,-0.40107059999999994,0.11459160000000004,-0.8594370000000001,93.35777652,1.73606274,-11.35602756
0.31,31,-0.003,-1.0090000000000001,0.10099999999999999,-0.6302538000000001,-0.11459160000000004,-0.8594370000000001,93.42080190000001,1.6386598799999998,-11.327379660000002
0.32,32,-0.004,-1.01,0.10300000000000001,-0.572958,-0.40107059999999994,-0.9740286,93.41507232,1.65011904,-11.33310924
0.33,33,-0.002,-1.0070000000000001,0.109,-0.8021411999999999,-0.40107059999999994,-1.0886202,93.40361316,1.6615782,-11.33310924
0.34,34,0.0,-1.005,0.10800000000000001,-1.0313244000000001,-0.40107059999999994,-1.0313244000000001,93.392154,1.67303736,-11.33883882
0.35000000000000003,35,0.001,-1.002,0.10400000000000001,-1.2605076000000002,-0.1718874,-0.8594370000000001,93.38069484,1.6844965200000002,-11.33883882
0.36000000000000004,36,0.002,-1.001,0.10300000000000001,-1.2032118,-0.11459160000000004,-0.8021411999999999,93.43799064,1.62147114,-11.327379660000002
0.37,37,0.001,-1.002,0.106,-1.0886202,-0.1718874,-0.8021411999999999,93.42653148,1.6329303,-11.327379660000002
0.38,38,0.0,-1.002,0.105,-1.145916,-0.3437748,-0.7448454000000001,93.40934274,1.6386598799999998,-11.33310924
0.39,39,-0.001,-1.006,0.106,-1.2032118,-0.1718874,-0.5156622000000001,93.39788358,1.64438946,-11.33310924
0.4,40,-0.001,-1.0070000000000001,0.10400000000000001,-1.3750992,-0.057295800000000015,-0.40107059999999994,93.38642442,1.65011904,-11.33310924
0.41000000000000003,41,0.0,-1.0090000000000001,0.102,-1.6042823999999998,-0.11459160000000004,-0.40107059999999994,93.42653148,1.5813640800000002,-11.3159205
0.42000000000000004,42,-0.004,-1.008,0.10300000000000001,-1.8907614,-0.2291832000000001,-0.5156622000000001,93.40934274,1.5870936600000003,-11.32165008
0.43,43,-0.002,-1.005,0.10099999999999999,-1.9480572,-0.286479,-0.572958,93.392154,1.59282324,-11.327379660000002
0.44,44,0.0,-1.004,0.10300000000000001,-1.8907614,-0.40107059999999994,-0.6875496,93.36923568,1.6042824000000002,-11.327379660000002
0.45,45,0.0,-1.006,0.1,-2.1772404,-0.5156622000000001,-0.6875496,93.34631736,1.61001198,-11.33310924
0.46,46,0.0,-1.0070000000000001,0.098,-2.3491277999999998,-0.286479,-0.572958,93.35204694,1.5813640800000002,-11.327379660000002
0.47000000000000003,47,0.004,-1.0090000000000001,0.096,-2.6929026,-0.40107059999999994,-0.40107059999999994,93.32912862,1.5813640800000002,-11.33310924
0.48000000000000004,48,0.002,-1.0090000000000001,0.095,-2.86479,-0.6875496,-0.4583664000000001,93.29475114,1.5870936600000003,-11.33883882
0.49,49,0.0,-1.0090000000000001,0.09300000000000001,-3.0366774,-0.9167328000000001,-0.5156622000000001,93.26610324,1.59282324,-11.35029798
0.5,50,-0.001,-1.0090000000000001,0.09300000000000001,-3.0366774,-0.8594370000000001,-0.6302538000000001,93.23745534,1.6042824000000002,-11.35602756
0.51,51,-0.002,-1.0070000000000001,0.09300000000000001,-3.0366774,-0.6302538000000001,-0.7448454000000001,93.2202666,1.56990492,-11.35029798
0.52,52,-0.002,-1.008,0.091,-3.0366774,-0.4583664000000001,-0.8021411999999999,93.1916187,1.5813640800000002,-11.35602756
0.53,53,0.0,-1.0090000000000001,0.092,-3.2085647999999996,-0.286479,-0.6875496,93.15724122,1.5870936600000003,-11.36175714
0.54,54,0.002,-1.0070000000000001,0.094,-3.7242269999999995,-0.1718874,-0.7448454000000001,93.11713416,1.59282324,-11.36175714
0.55,55,0.002,-1.0070000000000001,0.091,-4.4117766,0.0,-0.9167328000000001,93.0770271,1.6042824000000002,-11.36175714
0.56,56,0.001,-1.008,0.091,-5.0993262,0.11459160000000004,-0.9740286,93.03692004,1.59282324,-11.35602756
0.5700000000000001,57,-0.001,-1.01,0.086,-5.6722842,0.3437748,-1.0886202,92.97962424,1.6042824000000002,-11.35029798
0.5800000000000001,58,-0.003,-1.0090000000000001,0.083,-6.0160589999999985,0.11459160000000004,-1.145916,92.92232844,1.61001198,-11.35029798
0.59,59,-0.005,-1.011,0.084,-5.9014674000000005,-0.40107059999999994,-1.3178034,92.85930306,1.6272007199999998,-11.35602756
0.6,60,-0.006,-1.011,0.086,-6.130650599999999,-0.7448454000000001,-1.7761698000000001,92.79627768,1.64438946,-11.36175714
0.61,61,-0.006,-1.008,0.087,-6.3598338,-1.2032118,-1.8907614,92.74471146,1.64438946,-11.36748672
0.62,62,-0.006,-1.0070000000000001,0.08800000000000001,-6.2452422,-1.4896908000000002,-1.8907614,92.68168608,1.6615782,-11.38467546
0.63,63,-0.004,-1.011,0.09300000000000001,-6.8182002000000015,-0.9167328000000001,-1.9480572,92.61293112,1.6787669399999998,-11.39040504
0.64,64,0.0,-1.015,0.092,-8.078707799999998,0.0,-2.2345362,92.52698742,1.70168526,-11.39040504
0.65,65,0.0,-1.0190000000000001,0.08800000000000001,-9.0527364,0.8594370000000001,-2.1772404,92.43531414,1.7246035799999997,-11.38467546
0.66,66,0.004,-1.0270000000000001,0.086,-10.2559482,1.7761698000000001,-2.0053530000000004,92.33791128,1.73606274,-11.36175714
0.67,67,0.006,-1.031,0.081,-11.0580894,2.291832,-1.7761698000000001,92.22904926,1.7475218999999995,-11.33883882
0.68,68,0.006999999999999999,-1.033,0.08,-11.802934800000001,1.9480572,-1.7761698000000001,92.10872808,1.76471064,-11.32165008
0.6900000000000001,69,0.015,-1.026,0.07200000000000001,-12.4904844,1.3178034,-2.1199446,91.98267732,1.78189938,-11.31019092
0.7000000000000001,70,0.019,-1.023,0.068,-12.605075999999999,0.0,-2.4064236,91.85089698,1.8048177,-11.31019092
0.7100000000000001,71,0.02,-1.024,0.061,-12.834259199999998,-1.4896908000000002,-2.5210152000000003,91.72484622,1.82773602,-11.327379660000002
0.72,72,0.013999999999999999,-1.025,0.057999999999999996,-12.9488508,-2.8074942000000003,-3.0366774,91.59306588,1.8621134999999998,-11.35602756
0.73,73,0.012,-1.0270000000000001,0.057999999999999996,-13.407217200000002,-3.6096353999999997,-3.7242269999999995,91.45555596,1.90222056,-11.39040504
0.74,74,0.008,-1.0270000000000001,0.057999999999999996,-13.750992000000002,-4.1252976000000015,-4.2398892,91.31231646,1.94232762,-11.4305121
0.75,75,-0.003,-1.0270000000000001,0.068,-13.8655836,-4.8128472,-4.4690724,91.17480654,1.98816426,-11.48207832
0.76,76,-0.006999999999999999,-1.025,0.079,-14.266654199999998,-5.443101,-4.4690724,91.03729662,2.02254174,-11.53364454
0.77,77,-0.008,-1.032,0.09,-15.9855282,-6.130650599999999,-4.8128472,90.8711388,2.07410796,-11.59666992
0.78,78,-0.006,-1.04,0.095,-18.6784308,-5.7868758000000025,-4.583664,90.68206266,2.1199446,-11.65396572
0.79,79,0.001,-1.0290000000000001,0.09300000000000001,-20.7410796,-4.8701430000000006,-4.4117766,90.4700682,2.1657812400000003,-11.70553194
0.8,80,0.008,-1.026,0.077,-21.772404,-3.6669312000000014,-4.1252976000000015,90.24661458,2.2058883,-11.745639
0.81,81,0.008,-1.036,0.079,-22.4026578,-3.2658606,-3.8961144,90.02889053999998,2.24026578,-11.78001648
0.8200000000000001,82,0.005,-1.041,0.087,-23.605869600000002,-3.4950437999999995,-3.7815228,89.78824818,2.2746432600000004,-11.81439396
0.8300000000000001,83,0.005,-1.046,0.083,-24.809081399999997,-3.380452200000001,-3.6669312000000014,89.53614666000001,2.30902074,-11.85450102
0.8400000000000001,84,0.018000000000000002,-1.05,0.069,-26.4706596,-2.6929026,-3.7242269999999995,89.2668564,2.3491278,-11.88314892
0.85,85,0.031,-1.051,0.057999999999999996,-26.9863218,-1.8334656000000005,-3.4377480000000005,88.99183656,2.3777757,-11.90606724
0.86,86,0.028999999999999998,-1.043,0.07,-27.559279800000002,-3.3231564,-3.4950437999999995,88.7225463,2.41215318,-11.946174300000001
0.87,87,0.018000000000000002,-1.023,0.07400000000000001,-28.2468294,-4.9274388,-4.3544808,88.43606729999998,2.45226024,-11.99774052
0.88,88,0.003,-1.012,0.067,-29.621928600000004,-5.5576926,-5.844171599999999,88.13239956,2.50955604,-12.05503632
0.89,89,0.001,-1.025,0.069,-30.5386614,-4.6409598,-7.0473834,87.82300224,2.57258142,-12.10660254
0.9,90,0.0,-1.035,0.066,-31.5699858,-3.4950437999999995,-7.333862400000001,87.49641618000004,2.6413363800000003,-12.15243918
0.91,91,-0.001,-1.036,0.065,-32.658606,-2.2345362,-6.9327918,87.18128928,2.70436176,-12.18108708
0.92,92,-0.011000000000000001,-1.03,0.077,-33.231564,-2.0053530000000004,-6.589017,86.84324405999998,2.76165756,-12.2040054
0.93,93,-0.02,-1.028,0.084,-34.091001,-2.0053530000000004,-6.4744254,86.49373968,2.82468294,-12.2326533
0.9400000000000001,94,-0.021,-1.0390000000000001,0.073,-35.236917,-0.6875496,-6.7609043999999985,86.13850572,2.88770832,-12.24984204
0.9500000000000001,95,-0.02,-1.067,0.05,-37.6433406,0.7448454000000001,-6.4744254,85.75462386000002,2.9507337000000002,-12.24984204
0.9600000000000001,96,-0.013999999999999999,-1.062,0.043,-40.1643558,1.7761698000000001,-6.1879464,85.35928284,3.00229992,-12.23838288
0.97,97,-0.012,-1.054,0.038,-40.90920120000001,2.1199446,-6.1879464,84.94675308000002,3.05959572,-12.226923719999998
0.98,98,-0.003,-1.0590000000000002,0.027999999999999997,-42.7999626,2.4064236,-6.130650599999999,84.51130500000002,3.11689152,-12.21546456
0.99,99,0.0,-1.04,0.012,-44.2323576,2.3491277999999998,-6.6463128000000005,84.06439776,3.1799169000000003,-12.2040054
1.0,100,-0.005,-1.0590000000000002,0.0,-45.034498799999994,2.8074942000000003,-7.1046792000000005,83.60603136,3.2486718599999995,-12.186816659999998
1.01,101,-0.013000000000000001,-1.043,0.005,-46.982556,2.5210152000000003,-6.990087599999999,83.14193537999998,3.3116972399999995,-12.1753575
1.02,102,-0.016,-1.041,0.003,-47.0398518,1.6042823999999998,-6.130650599999999,82.66638024,3.3689930400000003,-12.16962792
1.03,103,-0.013000000000000001,-1.043,0.002,-48.9306132,0.8594370000000001,-5.6722842,82.16790678,3.42055926,-12.1753575
1.04,104,0.002,-1.034,0.003,-50.76407879999999,0.0,-5.7868758000000025,81.65224458,3.47212548,-12.186816659999998
1.05,105,0.011000000000000001,-1.038,-0.019,-52.82672760000001,-1.2605076000000002,-5.6149884000000005,81.11366405999998,3.51796212,-12.21546456
1.06,106,0.013000000000000001,-1.046,-0.027999999999999997,-55.11855960000001,-3.9534102,-6.0160589999999985,80.56362438,3.56379876,-12.26703078
1.07,107,0.015,-1.055,-0.027999999999999997,-57.2958,-7.7922288,-6.9327918,79.97347764,3.61536498,-12.35870406
1.08,108,0.006,-1.065,-0.054000000000000006,-60.8481396,-7.161975,-8.193299399999999,79.34895342,3.67839036,-12.45037734
1.09,109,0.013000000000000001,-1.054,-0.07,-64.3431834,-2.9793816000000004,-8.880849000000003,78.6957813,3.75860448,-12.50194356
1.1,110,0.028999999999999998,-1.051,-0.08,-65.8328742,-2.4064236,-9.224623800000002,78.02542044,3.83308902,-12.55350978
1.11,111,0.05,-1.0590000000000002,-0.077,-68.52577679999999,-5.1566220000000005,-9.224623800000002,77.33214126,3.90757356,-12.62799432
1.12,112,0.040999999999999995,-1.068,-0.098,-70.18735500000001,-9.167328,-9.1100322,76.61594376000002,3.97059894,-12.7483155
1.1300000000000001,113,0.03,-1.073,-0.12,-72.479187,-12.318597,-8.9381448,75.87109836,4.022165159999999,-12.891555
1.1400000000000001,114,0.039,-1.078,-0.15,-73.51051140000001,-16.7876694,-8.307891,75.1147938,4.05654264,-13.086360719999998
1.1500000000000001,115,0.013000000000000001,-1.12,-0.18600000000000005,-74.1407652,-18.7357266,-7.9641161999999985,74.34703008,4.08519054,-13.2926256
1.1600000000000001,116,0.001,-1.103,-0.207,-77.34933000000002,-14.381245800000002,-8.59437,73.55634804,4.11956802,-13.45878342
1.17,117,0.006999999999999999,-1.109,-0.248,-78.95361240000003,-8.250595200000001,-9.6256944,72.74847725999999,4.17686382,-13.57337502
1.18,118,0.031,-1.133,-0.22699999999999998,-79.81304940000003,-3.7815228,-10.599723,71.92914732,4.26280752,-13.64785956
1.19,119,0.069,-1.082,-0.263,-85.1988546,0.9740286,-11.9748222,71.06398074,4.36593996,-13.68223704
1.2,120,0.076,-1.1,-0.337,-86.63124959999998,5.6149884000000005,-10.828906199999999,70.18735500000001,4.4748019800000005,-13.67077788
1.21,121,0.053,-1.062,-0.381,-88.0063488,6.4744254,-9.3392154,69.29354052,4.57220484,-13.64785956
1.22,122,0.019,-1.035,-0.406,-85.084263,6.8182002000000015,-8.136003599999999,68.42837394,4.66387812,-13.61921166
1.23,123,-0.004,-1.014,-0.45799999999999996,-79.4119788,7.0473834,-7.8495246,67.62623274,4.749821819999998,-13.59056376
1.24,124,-0.001,-1.016,-0.513,-76.77637200000002,10.313244000000001,-8.5370742,66.84700986,4.85295426,-13.53326796
1.25,125,0.017,-1.042,-0.5539999999999999,-73.052145,12.4904844,-7.906820400000001,66.11362362,4.96754586,-13.45305384
1.26,126,0.048,-1.015,-0.647,-67.9528188,9.167328,-8.136003599999999,65.40888528,5.06494872,-13.4072172
1.27,127,0.081,-0.9790000000000001,-0.6920000000000001,-55.6342218,-0.2291832000000001,-8.880849000000003,64.84165686,5.13370368,-13.447324259999998
1.28,128,0.12,-0.943,-0.65,-43.48751220000001,-8.136003599999999,-10.886202,64.38902004,5.19672906,-13.57337502
1.29,129,0.141,-0.9259999999999999,-0.612,-35.2942128,-9.167328,-12.776963400000001,64.02232692,5.2712136,-13.71088494
1.3,130,0.134,-0.937,-0.593,-30.194886600000004,-6.703608600000001,-12.3758928,63.70147044,5.35142772,-13.83120612
1.31,131,0.129,-0.965,-0.5710000000000001,-28.934378999999996,-1.8907614,-9.3392154,63.39207312,5.42591226,-13.88850192
1.32,132,0.129,-0.992,-0.578,-28.9916748,2.4064236,-4.6982555999999995,63.09413496000001,5.4717489000000015,-13.88850192
1.33,133,0.134,-0.9940000000000001,-0.584,-28.0176462,3.6669312000000014,-0.5156622000000001,62.81338553999999,5.48893764,-13.85985402
1.34,134,0.141,-0.966,-0.579,-25.0955604,2.6356068,2.0626488000000003,62.56128402,5.47747848,-13.83120612
1.35,135,0.14400000000000002,-0.9209999999999999,-0.56,-21.944291399999997,0.9740286,3.6096353999999997,62.33783040000001,5.44883058,-13.8082878
1.36,136,0.142,-0.903,-0.531,-19.5378678,0.286479,4.3544808,62.12583594,5.42018268,-13.78536948
1.37,137,0.136,-0.898,-0.517,-18.3919518,0.9740286,4.6409598,61.9367598,5.38007562,-13.75672158
1.3800000000000001,138,0.128,-0.895,-0.511,-17.589810600000003,2.4064236,4.8128472,61.764872399999994,5.3456981400000005,-13.71088494
1.3900000000000001,139,0.11900000000000001,-0.882,-0.527,-16.902261,3.5523396000000003,5.042030400000002,61.59871458,5.31705024,-13.659318719999998
1.4000000000000001,140,0.09699999999999999,-0.858,-0.527,-14.7250206,3.8388186,5.2712136,61.44974549999999,5.28840234,-13.60202292
1.4100000000000001,141,0.08199999999999999,-0.825,-0.524,-11.9748222,3.1512689999999997,5.6149884000000005,61.30077642,5.24829528,-13.53899754
1.42,142,0.086,-0.804,-0.506,-9.1100322,2.7501984,5.7868758000000025,61.21483271999999,5.20818822,-13.487431320000002
1.43,143,0.09300000000000001,-0.79,-0.486,-6.703608600000001,2.4064236,6.2452422,61.14607776,5.16235158,-13.4358651
1.44,144,0.094,-0.7879999999999999,-0.489,-5.042030400000002,2.3491277999999998,7.0473834,61.10024112,5.11078536,-13.38429888
1.45,145,0.10099999999999999,-0.79,-0.48100000000000004,-3.6669312000000014,2.86479,8.136003599999999,61.07159322,5.05348956,-13.31554392
1.46,146,0.08800000000000001,-0.784,-0.47600000000000003,-2.1199446,2.6356068,8.7089616,61.02575657999999,4.99046418,-13.246788959999998
1.47,147,0.06,-0.767,-0.469,0.11459160000000004,2.86479,8.9381448,61.03148616,4.9274388,-13.178034
1.48,148,0.035,-0.757,-0.47600000000000003,2.0626488000000003,4.1252976000000015,8.9381448,61.06013406,4.86441342,-13.09781988
1.49,149,0.019,-0.762,-0.488,3.5523396000000003,6.130650599999999,8.479778399999999,61.10024112,4.81857678,-13.0061466
1.5,150,0.016,-0.7759999999999999,-0.484,4.6409598,8.307891,8.021412000000002,61.15753692,4.78992888,-12.891555
1.51,151,0.025,-0.7959999999999999,-0.511,4.4690724,9.7975818,7.6776372,61.18045524,4.749821819999998,-12.75977466
1.52,152,0.04,-0.7979999999999999,-0.519,5.958763200000001,9.740286,7.2765666,61.24921019999999,4.73263308,-12.6337239
1.53,153,0.044000000000000004,-0.789,-0.503,8.59437,9.224623800000002,6.875496000000001,61.34661306,4.71544434,-12.5191323
1.54,154,0.045,-0.7979999999999999,-0.502,11.0007936,8.880849000000003,6.8182002000000015,61.46693424,4.6982556,-12.41027028
1.55,155,0.054000000000000006,-0.826,-0.506,12.4331886,8.651665800000002,7.448453999999999,61.59871458,4.6696076999999985,-12.295678679999998
1.56,156,0.057999999999999996,-0.841,-0.503,13.120738199999998,6.7609043999999985,8.3651868,61.72476534,4.62377106,-12.19254624
1.57,157,0.06,-0.8490000000000001,-0.47100000000000003,13.980175199999998,3.3231564,8.651665800000002,61.86800484000001,4.56647526,-12.118061700000002
1.58,158,0.059000000000000004,-0.853,-0.466,14.037471,1.2032118,8.3651868,62.01697392,4.4977203,-12.07222506
1.59,159,0.062,-0.872,-0.484,13.464512999999998,1.145916,8.021412000000002,62.16021342000001,4.43469492,-12.02065884
1.6,160,0.068,-0.884,-0.493,12.776963400000001,0.9740286,7.9641161999999985,62.29199376,4.37166954,-11.9748222
1.61,161,0.07400000000000001,-0.8859999999999999,-0.473,12.0894138,-0.1718874,7.6203414,62.41231494,4.30291458,-11.94044472
1.62,162,0.068,-0.862,-0.451,11.45916,-3.2085647999999996,7.333862400000001,62.52690654000001,4.22843004,-11.934715140000002
1.6300000000000001,163,0.064,-0.841,-0.48100000000000004,10.7143146,-4.4117766,7.0473834,62.63576856,4.14821592,-11.94044472
1.6400000000000001,164,0.057999999999999996,-0.8340000000000001,-0.48,11.2872726,-5.3858052,6.5317212,62.75036016,4.0680017999999984,-11.95763346
1.6500000000000001,165,0.036000000000000004,-0.835,-0.488,12.1467096,-5.6722842,5.9014674000000005,62.87641092,3.99351726,-11.98055178
1.6600000000000001,166,0.032,-0.836,-0.529,11.5164558,-4.4117766,5.6722842,62.939436300000004,3.91330314,-11.98055178
1.6700000000000002,167,0.027000000000000003,-0.825,-0.55,12.1467096,-4.2398892,5.6722842,63.06548706,3.84454818,-11.99201094
1.68,168,0.02,-0.795,-0.508,14.438541599999999,-4.8128472,5.2139178,63.20872656,3.77579322,-12.01492926
1.69,169,0.021,-0.763,-0.473,16.7303736,-5.3285094000000015,4.1825934,63.38061395999999,3.71849742,-12.04357716
1.7,170,0.024,-0.743,-0.456,18.793022399999998,-4.8128472,3.2085647999999996,63.56969010000001,3.67266078,-12.06649548
1.71,171,0.038,-0.736,-0.4370000000000001,20.168121600000006,-3.2658606,2.2345362,63.75303666000001,3.6382833,-12.08368422
1.72,172,0.047,-0.736,-0.415,21.027558600000006,-2.1199446,1.6615782,63.965031120000006,3.62109456,-12.09514338
1.73,173,0.055999999999999994,-0.73,-0.446,20.05353,-2.7501984,2.5210152000000003,64.171296,3.58671708,-12.10660254
1.74,174,0.042,-0.7290000000000001,-0.5,20.8556712,-5.2139178,3.6096353999999997,64.38329046,3.5351508600000003,-12.135250439999998
1.75,175,0.035,-0.721,-0.534,23.663165399999997,-8.078707799999998,3.1512689999999997,64.61820324,3.47785506,-12.19254624
1.76,176,0.025,-0.6920000000000001,-0.555,30.65325300000001,-10.943497800000001,1.2032118,64.88749349999999,3.42055926,-12.278489939999998
1.77,177,0.019,-0.6509999999999999,-0.58,44.9199072,-17.475219,0.057295800000000015,65.33440074,3.35753388,-12.4331886
1.78,178,0.087,-0.621,-0.513,62.5670136,-22.803728399999997,-0.286479,65.96465454,3.28304934,-12.63945348
1.79,179,0.146,-0.619,-0.434,74.7137232,-19.5378678,-0.3437748,66.71522952000001,3.22002396,-12.81707046
1.8,180,0.15,-0.638,-0.389,80.95896540000003,-14.266654199999998,1.145916,67.52882988,3.16845774,-12.93739164
1.81,181,0.114,-0.637,-0.32299999999999995,82.90702259999998,-8.9954406,3.1512689999999997,68.36534856,3.1226211000000004,-13.00041702
1.82,182,0.073,-0.616,-0.281,84.3394176,-2.3491277999999998,4.583664,69.22478556000002,3.0825140400000004,-13.00041702
1.83,183,0.0,-0.596,-0.252,87.7198698,2.5783110000000002,4.3544808,70.11287046,3.05959572,-12.95458038
1.84,184,-0.07200000000000001,-0.573,-0.19899999999999998,93.1629708,4.9274388,3.6096353999999997,71.06398074,3.04813656,-12.88582542
1.85,185,-0.052000000000000005,-0.575,-0.08800000000000001,96.829902,8.078707799999998,3.380452200000001,72.0494685,3.05386614,-12.79415214
1.86,186,-0.03,-0.605,0.013999999999999999,94.7099574,9.7975818,2.9793816000000004,73.02922668,3.05959572,-12.68529012
1.87,187,-0.048,-0.616,0.040999999999999995,87.31879920000002,10.3705398,1.7188740000000002,73.91731158,3.07678446,-12.57069852
1.8800000000000001,188,-0.006999999999999999,-0.573,0.035,73.911582,16.1001198,-0.9740286,74.67934572,3.13408026,-12.41027028
1.8900000000000001,189,0.01,-0.536,0.024,61.020027,15.870936600000002,-2.8074942000000003,75.30386994,3.20283522,-12.261301200000002
1.9000000000000001,190,-0.008,-0.45799999999999996,0.085,51.7954032,11.917526400000002,-4.7555514,75.8309913,3.28304934,-12.15243918
1.9100000000000001,191,-0.024,-0.364,0.131,45.550160999999996,10.599723,-7.734933000000002,76.31227602,3.380452200000001,-12.06649548
1.9200000000000002,192,-0.008,-0.315,0.069,37.41415739999999,13.464512999999998,-10.599723,76.69615788,3.5122325400000003,-11.95763346
1.93,193,0.013000000000000001,-0.311,0.024,25.8977016,14.1520626,-13.6936962,76.96544814,3.67839036,-11.84877144
1.94,194,0.023,-0.32899999999999996,0.10300000000000001,15.756345,7.906820400000001,-17.9908812,77.12587638,3.8674665,-11.80866438
1.95,195,0.068,-0.36200000000000004,-0.055999999999999994,3.6669312000000014,3.0366774,-21.0848544,77.16025386,4.0794609600000005,-11.82585312
1.96,196,0.109,-0.40399999999999997,-0.272,-7.3911582,0.9167328000000001,-22.2880662,77.05712142,4.30291458,-11.860230599999998
1.97,197,0.109,-0.491,-0.48,-10.943497800000001,0.2291832000000001,-22.517249399999997,76.94252982,4.5206386200000015,-11.91179682
1.98,198,0.077,-0.591,-0.522,-10.5424272,-2.3491277999999998,-22.5745452,76.82793822,4.73263308,-11.98628136
1.99,199,0.003,-0.603,-0.344,-5.3858052,-9.568398599999998,-22.5745452,76.75918326,4.93316838,-12.12952086
2.0,200,-0.064,-0.529,-0.2,4.5263682,-9.396511199999999,-21.7151082,76.79356074,5.127974099999999,-12.26703078
2.01,201,-0.10300000000000001,-0.473,-0.32899999999999996,11.401864199999999,-10.1413566,-18.506543399999998,76.87377486,5.2712136,-12.39881112
2.02,202,-0.098,-0.38799999999999996,-0.29600000000000004,16.157415599999997,-16.902261,-16.2147114,77.02274394,5.3972643599999985,-12.59934642
2.03,203,0.10800000000000001,-0.3670000000000001,-0.14800000000000002,19.7097552,-10.5424272,-16.558486199999994,77.20609049999999,5.53477428,-12.73685634
2.04,204,0.151,-0.361,-0.17800000000000002,16.1001198,-11.1153852,-15.6990492,77.36078916,5.66655462,-12.88009584
2.05,205,0.17300000000000001,-0.3720000000000001,-0.314,15.297978599999999,-8.307891,-13.2353298,77.50402865999997,5.7868758,-12.98895786
2.0599999999999996,206,0.22699999999999998,-0.40399999999999997,-0.325,19.308684600000007,-14.610429000000002,-9.7975818,77.66445689999998,5.8728194999999985,-13.1493861
2.07,207,0.24600000000000002,-0.47700000000000004,-0.29600000000000004,28.9916748,-28.7051958,-5.6722842,77.93374716000002,5.87854908,-13.44159468
2.0799999999999996,208,0.222,-0.511,-0.223,40.5654264,-40.33624320000001,-1.3178034,78.31189943999998,5.82125328,-13.83120612
2.09,209,0.166,-0.507,-0.064,54.4883058,-44.8053156,1.6615782,78.82756164,5.735309579999999,-14.266654199999998
2.0999999999999996,210,0.099,-0.494,0.005,63.02538000000001,-40.1643558,3.1512689999999997,79.43489712,5.64936588,-14.64480648
2.11,211,0.036000000000000004,-0.469,-0.037000000000000005,66.69231119999999,-31.79916900000001,5.3858052,80.08806924,5.5519630200000005,-14.94274464
2.1199999999999997,212,-0.008,-0.46799999999999997,-0.157,73.85428619999998,-19.652459399999998,8.307891,80.82145548,5.45456016,-15.11463204
2.13,213,-0.042,-0.589,-0.24100000000000002,88.2928278,-12.4904844,8.307891,81.70954037999998,5.3628868800000005,-15.21776448
2.1399999999999997,214,-0.067,-0.9309999999999999,-0.242,110.81007720000001,-8.7089616,5.844171599999999,82.83253806,5.30559108,-15.28651944
2.15,215,-0.057999999999999996,-1.6740000000000002,-0.15,142.26547140000002,-4.010706000000001,4.8128472,84.27639222,5.2712136,-15.303708179999996
2.1599999999999997,216,-0.028999999999999998,-3.135,-0.239,174.40841519999995,7.906820400000001,3.9534102,86.05256202000002,5.24829528,-15.20057574
2.17,217,-0.004,-3.9810000000000003,-0.304,156.64671719999996,15.297978599999999,3.0366774,87.65684442,5.23683612,-15.028688340000002
2.1799999999999997,218,0.105,-3.8289999999999997,-0.021,145.53133200000005,12.3758928,4.3544808,89.14653522,5.2024586400000015,-14.89117842
2.19,219,0.33799999999999997,-3.1689999999999996,0.031,149.7139254,10.1413566,7.906820400000001,90.6706035,5.13370368,-14.770857239999998
2.1999999999999997,220,0.35200000000000004,-3.0,0.278,154.81325159999997,0.4583664000000001,-3.5523396000000003,92.246238,5.1852699,-14.74793892
2.21,221,0.284,-2.445,0.503,139.6298646,-7.9641161999999985,-1.6615782,93.66144426,5.21964738,-14.810964300000002
2.2199999999999998,222,0.125,-1.902,0.654,128.7436626,-15.2406828,9.7975818,94.95632934,5.14516284,-14.954203799999998
2.23,223,0.113,-1.646,0.6920000000000001,110.867373,-13.2353298,13.8082878,96.07359744,5.03057124,-15.08598414
2.2399999999999998,224,0.135,-1.521,0.627,89.03767320000001,-4.6982555999999995,9.6256944,96.9731415,4.95035712,-15.131820780000002
2.25,225,0.045,-1.4669999999999999,0.42100000000000004,68.01011460000001,-0.8594370000000001,7.1046792000000005,97.6606911,4.88733174,-15.13755036
2.26,226,-0.073,-1.505,0.336,49.847346,-3.1512689999999997,0.8021411999999999,98.17062372,4.88160216,-15.166198259999998
2.27,227,-0.032,-1.229,0.28800000000000003,27.3300966,-2.291832,-4.9847346,98.44564356,4.93316838,-15.17765742
2.28,228,0.069,-0.759,0.213,13.521808800000002,1.2032118,-2.86479,98.58315348,4.96181628,-15.16046868
2.29,229,0.10099999999999999,-0.36,0.187,14.896907999999998,0.0,3.2658606,98.73785214,4.9274388,-15.16046868
2.3,230,0.077,-0.11,0.16699999999999998,22.4599536,-1.5469866,10.5424272,98.96130576,4.83003594,-15.18911658
2.31,231,0.0,-0.032,0.122,32.0283522,-2.4064236,14.667724800000002,99.29935098,4.68679644,-15.23495322
2.32,232,-0.06,-0.113,0.078,42.1697088,-1.8907614,14.438541599999999,99.7233399,4.549286520000001,-15.2693307
2.3299999999999996,233,-0.085,-0.29100000000000004,0.055,50.9359662,-1.6042823999999998,12.032118,100.2390021,4.4404245000000016,-15.303708179999996
2.34,234,-0.083,-0.44799999999999995,0.066,57.52498320000001,-1.6615782,10.313244000000001,100.82341926,4.34875122,-15.326626499999998
2.3499999999999996,235,-0.055,-0.545,0.10300000000000001,61.9367598,-0.7448454000000001,9.167328,101.44794348,4.26280752,-15.34381524
2.36,236,-0.023,-0.537,0.124,63.4264506,-0.11459160000000004,8.250595200000001,102.08965644,4.1825934,-15.355274400000004
2.3699999999999997,237,0.001,-0.47100000000000003,0.147,66.463128,-1.432395,8.136003599999999,102.76574688,4.10810886,-15.37819272
2.38,238,0.028999999999999998,-0.451,0.188,72.65107440000001,-1.7761698000000001,8.021412000000002,103.49913312,4.0393539,-15.40684062
2.3899999999999997,239,0.032,-0.498,0.214,77.2920342,-0.2291832000000001,8.078707799999998,104.28408558,3.9648693599999993,-15.418299779999998
2.4,240,0.024,-0.584,0.243,81.7611066,3.3231564,8.021412000000002,105.11487468,3.88465524,-15.39538146
2.4099999999999997,241,0.025,-0.69,0.321,85.42803780000001,7.1046792000000005,7.5057497999999985,105.99723,3.79298196,-15.33808566
2.42,242,0.036000000000000004,-0.7979999999999999,0.38299999999999995,85.54262940000002,7.906820400000001,6.130650599999999,106.86812616,3.71276784,-15.2693307
2.4299999999999997,243,0.064,-0.903,0.418,86.80313699999998,5.6722842,4.4690724,107.75048148,3.65547204,-15.21776448
2.44,244,0.09,-0.9890000000000001,0.445,89.03767320000001,1.8334656000000005,1.6615782,108.65575511999998,3.6382833,-15.18911658
2.4499999999999997,245,0.10800000000000001,-1.08,0.47600000000000003,89.49603959999996,-2.9793816000000004,-0.8021411999999999,109.56675834,3.66120162,-15.206305319999998
2.46,246,0.10800000000000001,-1.157,0.508,90.35547659999999,-6.1879464,-2.3491277999999998,110.48349114,3.70703826,-15.240682800000002
2.4699999999999998,247,0.122,-1.205,0.561,92.4754212,-7.5057497999999985,-3.8388186,111.42314226,3.77579322,-15.28651944
2.48,248,0.109,-1.235,0.618,92.64730859999999,-10.2559482,-5.042030400000002,112.3570638,3.8674665,-15.34381524
2.4899999999999998,249,0.069,-1.286,0.6629999999999999,94.0224078,-14.9542038,-5.1566220000000005,113.30817408,3.97632852,-15.44694768
2.5,250,0.013000000000000001,-1.445,0.7290000000000001,95.2256196,-17.131444199999994,-3.380452200000001,114.27074352,4.08519054,-15.57299844
2.51,251,-0.040999999999999995,-1.558,0.8170000000000001,88.12094040000002,-14.4958374,-5.1566220000000005,115.15882842,4.19405256,-15.6704013
2.52,252,-0.066,-1.588,0.8340000000000001,73.45321560000002,-7.1046792000000005,-8.651665800000002,115.90367382,4.30864416,-15.68759004
2.53,253,-0.067,-1.305,0.815,59.24385720000001,-1.5469866,-12.2040054,116.51100929999998,4.42323576,-15.63602382
2.54,254,-0.047,-0.975,0.7859999999999999,47.211739200000004,2.86479,-12.5477802,116.99229402,4.5206386200000015,-15.55008012
2.55,255,0.027999999999999997,-0.7959999999999999,0.7290000000000001,41.19568020000001,6.2452422,-10.1413566,117.42201252,4.5836640000000015,-15.441218099999999
2.56,256,0.031,-0.73,0.664,39.4195104,8.078707799999998,-8.250595200000001,117.8574606,4.612311900000001,-15.326626499999998
2.57,257,0.035,-0.759,0.597,41.76863820000001,9.9694692,-6.417129599999999,118.29290868,4.6180414800000005,-15.206305319999998
2.5799999999999996,258,0.04,-0.809,0.531,44.748019799999994,9.6256944,-5.1566220000000005,118.75700466,4.6180414800000005,-15.091713719999998
2.59,259,0.033,-0.8909999999999999,0.486,45.4928652,8.479778399999999,-4.3544808,119.22110064,4.612311900000001,-14.99431086
2.5999999999999996,260,0.016,-0.884,0.469,41.4248634,6.3025379999999975,-4.2398892,119.65081914,4.6180414800000005,-14.914096740000002
2.61,261,0.002,-0.836,0.465,38.27359439999999,4.4690724,-4.1252976000000015,120.04043058,4.6180414800000005,-14.845341780000002
2.6199999999999997,262,-0.011000000000000001,-0.785,0.467,36.8411994,2.8074942000000003,-3.380452200000001,120.41858286,4.63523022,-14.799505140000004
2.63,263,-0.04,-0.755,0.46799999999999997,36.554720399999994,0.40107059999999994,-2.6929026,120.79100556,4.65814854,-14.77658682
2.6399999999999997,264,-0.059000000000000004,-0.732,0.503,35.695283399999994,-0.40107059999999994,-2.5210152000000003,121.15196909999999,4.68106686,-14.75939808
2.65,265,-0.046,-0.6990000000000001,0.573,36.2682414,2.1199446,-3.7242269999999995,121.52439180000002,4.6982556,-14.71929102
2.6599999999999997,266,-0.02,-0.7040000000000001,0.608,37.299565799999996,9.0527364,-5.443101,121.93119198,4.68679644,-14.60469942
2.67,267,-0.004,-0.83,0.611,36.38283300000001,14.7250206,-5.958763200000001,122.30934426000002,4.65241896,-14.450000759999998
2.6799999999999997,268,0.034,-1.02,0.6609999999999999,31.6845774,17.246035799999998,-4.9847346,122.64165990000002,4.6008527400000006,-14.272383780000002
2.69,269,0.096,-1.085,0.733,23.5485738,15.2406828,-4.4117766,122.89376142,4.549286520000001,-14.123414699999998
2.6999999999999997,270,0.14800000000000002,-0.89,0.767,14.9542038,11.8602306,-3.8961144,123.05418966,4.5206386200000015,-14.003093519999998
2.71,271,0.172,-0.789,0.805,13.9228794,6.9327918,-3.8961144,123.27191370000001,4.53782736,-13.93433856
2.7199999999999998,272,0.139,-0.802,0.841,14.5531332,2.3491277999999998,-4.297185,123.42661236,4.56074568,-13.88850192
2.73,273,0.099,-0.8390000000000001,0.87,10.2559482,-0.1718874,-4.0680017999999984,123.52974479999999,4.59512316,-13.871313179999998
2.7399999999999998,274,0.075,-0.86,0.8690000000000001,5.958763200000001,-0.572958,-4.5263682,123.59277018,4.63523022,-13.84839486
2.75,275,0.07400000000000001,-0.807,0.833,2.291832,-0.2291832000000001,-4.1825934,123.62141808,4.6696076999999985,-13.82547654
2.76,276,0.076,-0.8059999999999999,0.785,2.5210152000000003,-0.8021411999999999,-3.2658606,123.69590262,4.6982556,-13.81401738
2.77,277,0.065,-0.826,0.748,0.6302538000000001,-2.2345362,-3.380452200000001,123.7016322,4.73836266,-13.81401738
2.78,278,0.054000000000000006,-0.831,0.711,0.7448454000000001,-3.0939732,-3.2085647999999996,123.70736178,4.784199299999999,-13.82547654
2.79,279,0.043,-0.8109999999999999,0.674,-0.6302538000000001,-3.0366774,-3.380452200000001,123.7016322,4.83003594,-13.83120612
2.8,280,0.035,-0.809,0.632,-1.0313244000000001,-2.7501984,-3.4377480000000005,123.69017304000002,4.87587258,-13.83120612
2.81,281,0.033,-0.81,0.5870000000000001,-0.3437748,-2.6929026,-3.4950437999999995,123.69590262,4.85295426,-13.81401738
2.82,282,0.019,-0.809,0.542,0.1718874,-2.7501984,-3.5523396000000003,123.69590262,4.898790900000002,-13.81974696
2.8299999999999996,283,0.006999999999999999,-0.8540000000000001,0.501,1.3178034,-2.4064236,-3.5523396000000003,123.71309136,4.94462754,-13.81974696
2.84,284,0.003,-0.843,0.473,1.5469866,-2.5210152000000003,-3.4377480000000005,123.72455052,4.9847345999999995,-13.81974696
2.8499999999999996,285,0.006999999999999999,-0.848,0.457,2.5210152000000003,-3.380452200000001,-2.86479,123.75319842,5.03057124,-13.83120612
2.86,286,0.013999999999999999,-0.8859999999999999,0.46,3.2658606,-4.9274388,-1.8907614,123.67298429999998,5.02484166,-13.83120612
2.8699999999999997,287,0.036000000000000004,-0.917,0.473,2.7501984,-6.3598338,-0.9167328000000001,123.7016322,5.06494872,-13.87704276
2.88,288,0.054000000000000006,-0.8759999999999999,0.49,1.3750992,-7.2192707999999985,-0.3437748,123.70736178,5.11078536,-13.93433856
2.8899999999999997,289,0.061,-0.813,0.513,1.2605076000000002,-8.4224826,0.5156622000000001,123.71882094,5.1566220000000005,-14.008823099999995
2.9,290,0.059000000000000004,-0.7979999999999999,0.5329999999999999,1.7761698000000001,-9.1100322,1.5469866,123.7302801,5.19672906,-14.08903722
2.9099999999999997,291,0.055,-0.812,0.547,0.7448454000000001,-8.4224826,1.7761698000000001,123.71882094,5.2024586400000015,-14.15779218
2.92,292,0.046,-0.836,0.546,-0.9740286,-7.333862400000001,1.7761698000000001,123.7016322,5.231106540000001,-14.22654714
2.9299999999999997,293,0.036000000000000004,-0.8370000000000001,0.532,-2.86479,-7.8495246,2.1772404,123.66725472,5.25402486,-14.306761259999998
2.94,294,0.039,-0.84,0.52,-4.010706000000001,-8.021412000000002,2.5210152000000003,123.6156885,5.2826727600000005,-14.38697538
2.9499999999999997,295,0.055999999999999994,-0.867,0.524,-4.2398892,-7.734933000000002,2.6929026,123.56985186,5.2998615,-14.467189499999998
2.96,296,0.067,-0.8859999999999999,0.523,-4.9847346,-7.5630456000000015,2.8074942000000003,123.472449,5.311320660000002,-14.53594446
2.9699999999999998,297,0.067,-0.875,0.524,-5.443101,-6.990087599999999,2.6356068,123.40942362,5.3285094000000015,-14.610429000000002
2.98,298,0.052000000000000005,-0.87,0.535,-5.3858052,-6.9327918,2.5210152000000003,123.35212782,5.3456981400000005,-14.67918396
2.9899999999999998,299,0.035,-0.852,0.535,-5.958763200000001,-6.0733548,2.291832,123.28337286,5.3628868800000005,-14.74220934
3.0,300,0.044000000000000004,-0.85,0.5660000000000001,-6.5317212,-1.8907614,1.9480572,123.21461789999998,5.3571573,-14.770857239999998
3.01,301,0.067,-0.857,0.598,-8.59437,3.0939732,1.8334656000000005,123.14013336,5.31705024,-14.7536685
3.02,302,0.07400000000000001,-0.865,0.597,-10.943497800000001,6.9327918,2.2345362,123.03127134,5.25975444,-14.71356144
3.03,303,0.071,-0.8540000000000001,0.583,-12.776963400000001,7.448453999999999,2.9793816000000004,122.90522058000002,5.19099948,-14.667724799999998
3.04,304,0.07,-0.838,0.575,-12.7196676,5.3285094000000015,3.3231564,122.77344024,5.13370368,-14.64480648
3.05,305,0.066,-0.846,0.573,-12.1467096,2.291832,3.2658606,122.65311906,5.0935966200000005,-14.64480648
3.06,306,0.062,-0.8590000000000001,0.5820000000000001,-12.834259199999998,0.5156622000000001,3.1512689999999997,122.53279788,5.04775998,-14.656265639999996
3.07,307,0.061,-0.851,0.589,-13.0061466,0.1718874,2.3491277999999998,122.39528796,5.03057124,-14.667724799999998
3.08,308,0.05,-0.846,0.568,-13.464512999999998,-0.057295800000000015,0.8021411999999999,122.25777804000002,5.02484166,-14.67918396
3.09,309,0.042,-0.851,0.5579999999999999,-13.2353298,0.057295800000000015,0.4583664000000001,122.1259977,5.01911208,-14.67918396
3.0999999999999996,310,0.039,-0.856,0.556,-12.776963400000001,0.0,0.7448454000000001,121.99421736000002,5.0133825000000005,-14.684913540000002
3.11,311,0.043,-0.865,0.5579999999999999,-12.6623718,-0.3437748,1.2605076000000002,121.86243702,4.97900502,-14.69064312
3.1199999999999997,312,0.047,-0.868,0.563,-13.2926256,-1.7188740000000002,1.4896908000000002,121.72492710000002,4.97900502,-14.71356144
3.13,313,0.055,-0.8590000000000001,0.57,-13.464512999999998,-3.4377480000000005,1.6042823999999998,121.58741718000002,4.97900502,-14.7536685
3.1399999999999997,314,0.067,-0.8420000000000001,0.5770000000000001,-12.834259199999998,-3.7242269999999995,1.145916,121.45563684,4.99046418,-14.79377556
3.15,315,0.073,-0.8320000000000001,0.581,-11.2872726,-3.6096353999999997,0.5156622000000001,121.33531566,5.00765292,-14.82815304
3.1599999999999997,316,0.063,-0.83,0.585,-9.224623800000002,-3.2658606,0.11459160000000004,121.27801986,5.00765292,-14.85680094
3.17,317,0.05,-0.8320000000000001,0.583,-8.078707799999998,-2.9220858,0.2291832000000001,121.19780574,5.01911208,-14.88544884
3.1799999999999997,318,0.036000000000000004,-0.83,0.5760000000000001,-7.0473834,-3.0366774,0.40107059999999994,121.1233212,5.03057124,-14.914096740000002
3.19,319,0.033,-0.8270000000000001,0.5720000000000001,-6.0733548,-2.291832,0.3437748,121.05456624,5.042030400000002,-14.937015060000002
3.1999999999999997,320,0.034,-0.8220000000000001,0.5720000000000001,-5.042030400000002,-1.0886202,0.11459160000000004,121.00300002,5.04775998,-14.94847422
3.21,321,0.036000000000000004,-0.821,0.5670000000000001,-4.0680017999999984,0.057295800000000015,-0.057295800000000015,121.05456624,4.96181628,-14.937015060000002
3.2199999999999998,322,0.037000000000000005,-0.8240000000000001,0.564,-3.4377480000000005,0.9740286,-0.40107059999999994,121.02018876,4.96181628,-14.9255559
3.23,323,0.032,-0.828,0.564,-3.1512689999999997,1.3178034,-0.8594370000000001,120.98581128,4.96181628,-14.90836716
3.2399999999999998,324,0.027999999999999997,-0.833,0.557,-2.9220858,1.145916,-1.145916,120.95716338,4.96754586,-14.89117842
3.25,325,0.02,-0.8340000000000001,0.5589999999999999,-2.6356068,1.145916,-1.3178034,120.93424506,4.97327544,-14.879719259999998
3.26,326,0.021,-0.835,0.563,-2.5210152000000003,1.7188740000000002,-1.6042823999999998,120.96289296,4.898790900000002,-14.8396122
3.27,327,0.028999999999999998,-0.8420000000000001,0.5589999999999999,-2.4637194,2.7501984,-1.6042823999999998,120.93997464000002,4.893061319999998,-14.80523472
3.28,328,0.036000000000000004,-0.85,0.5479999999999999,-2.3491277999999998,3.6096353999999997,-1.5469866,120.91705632,4.88733174,-14.770857239999998
3.29,329,0.042,-0.855,0.542,-2.0626488000000003,3.8388186,-1.3750992,120.89986758,4.88160216,-14.73075018
3.3,330,0.040999999999999995,-0.857,0.535,-1.7188740000000002,3.3231564,-1.145916,120.88267884,4.8701430000000006,-14.696372699999998
3.31,331,0.04,-0.862,0.5329999999999999,-1.8334656000000005,2.2345362,-1.0313244000000001,120.85976052,4.80138804,-14.65053606
3.32,332,0.038,-0.867,0.534,-2.291832,0.6875496,-1.0886202,120.84257178,4.80711762,-14.6390769
3.33,333,0.037000000000000005,-0.8740000000000001,0.537,-3.0939732,-0.286479,-1.145916,120.8081943,4.81857678,-14.6390769
3.34,334,0.039,-0.8740000000000001,0.536,-3.9534102,-0.5156622000000001,-1.145916,120.76808724,4.83003594,-14.63334732
3.3499999999999996,335,0.046,-0.867,0.531,-4.6982555999999995,-0.3437748,-1.2605076000000002,120.7222506,4.8414951,-14.63334732
3.36,336,0.049,-0.862,0.524,-4.9274388,-0.4583664000000001,-1.4896908000000002,120.65922522,4.82430636,-14.61615858
3.3699999999999997,337,0.048,-0.872,0.52,-5.2712136,-0.4583664000000001,-1.432395,120.607659,4.83576552,-14.61615858
3.38,338,0.044000000000000004,-0.879,0.516,-6.1879464,0.0,-1.145916,120.54463362,4.84722468,-14.610429000000002
3.3899999999999997,339,0.042,-0.875,0.507,-6.8182002000000015,0.572958,-1.145916,120.47587866,4.85295426,-14.59896984
3.4,340,0.042,-0.872,0.501,-6.417129599999999,1.0313244000000001,-0.9740286,120.4071237,4.8586838399999985,-14.58751068
3.4099999999999997,341,0.047,-0.872,0.501,-6.130650599999999,1.145916,-0.7448454000000001,120.31545042,4.82430636,-14.558862779999998
3.42,342,0.049,-0.872,0.498,-6.0160589999999985,1.0313244000000001,-0.40107059999999994,120.25815462,4.81857678,-14.54740362
3.4299999999999997,343,0.049,-0.87,0.491,-5.7868758000000025,0.5156622000000001,-0.2291832000000001,120.20085881999998,4.81857678,-14.541674039999998
3.44,344,0.048,-0.87,0.491,-5.5576926,0.057295800000000015,-0.572958,120.14356302000002,4.82430636,-14.541674039999998
3.4499999999999997,345,0.048,-0.868,0.495,-5.3858052,-0.057295800000000015,-1.145916,120.08626722,4.83576552,-14.53594446
3.46,346,0.048,-0.8690000000000001,0.499,-5.443101,0.11459160000000004,-1.6042823999999998,120.01751226,4.81857678,-14.518755719999998
3.4699999999999998,347,0.049,-0.867,0.504,-5.443101,0.7448454000000001,-1.9480572,119.96021646,4.83003594,-14.501566980000002
3.48,348,0.048,-0.866,0.504,-5.5576926,1.432395,-1.8907614,119.90292066,4.83576552,-14.47864866
3.4899999999999998,349,0.048,-0.863,0.4970000000000001,-5.443101,1.5469866,-1.7188740000000002,119.85135444,4.84722468,-14.45573034
3.5,350,0.05,-0.86,0.502,-5.1566220000000005,1.0313244000000001,-1.5469866,119.79978821999998,4.85295426,-14.444271179999998
3.51,351,0.052000000000000005,-0.8640000000000001,0.503,-4.8701430000000006,0.3437748,-1.0886202,119.73676284,4.82430636,-14.42135286
3.52,352,0.051,-0.868,0.51,-4.8701430000000006,-0.8594370000000001,-0.6875496,119.68519662,4.83576552,-14.427082439999998
3.53,353,0.044000000000000004,-0.875,0.513,-5.958763200000001,-2.8074942000000003,-0.8021411999999999,119.62790082,4.8586838399999985,-14.450000759999998
3.54,354,0.042,-0.875,0.504,-6.589017,-4.3544808,-1.0313244000000001,119.55341628,4.88733174,-14.47864866
3.55,355,0.042,-0.875,0.51,-6.3598338,-4.6409598,-1.3178034,119.4903909,4.9217092199999986,-14.51302614
3.56,356,0.040999999999999995,-0.882,0.508,-6.1879464,-4.6982555999999995,-1.0313244000000001,119.41590635999998,4.9274388,-14.541674039999998
3.57,357,0.036000000000000004,-0.8859999999999999,0.514,-5.844171599999999,-4.010706000000001,-0.8594370000000001,119.35288097999998,4.9560867,-14.57032194
3.58,358,0.039,-0.89,0.521,-6.589017,-2.0626488000000003,-1.145916,119.28985559999998,4.97327544,-14.58751068
3.59,359,0.054000000000000006,-0.889,0.517,-7.7922288,-0.11459160000000004,-0.9740286,119.20964148,4.9847345999999995,-14.581781099999999
3.5999999999999996,360,0.06,-0.889,0.524,-8.5370742,-0.057295800000000015,-0.1718874,119.12369778,4.9847345999999995,-14.581781099999999
3.61,361,0.052000000000000005,-0.8859999999999999,0.512,-9.8548776,-2.291832,0.9740286,119.01483575999998,4.97327544,-14.60469942
3.6199999999999997,362,0.055999999999999994,-0.88,0.513,-10.084060800000001,-4.7555514,1.2032118,118.91170332000002,4.9847345999999995,-14.65053606
3.63,363,0.063,-0.879,0.524,-10.3705398,-5.6149884000000005,0.40107059999999994,118.8028413,5.00765292,-14.70210228
3.6399999999999997,364,0.06,-0.883,0.517,-10.886202,-5.844171599999999,-0.286479,118.6882497,5.042030400000002,-14.7536685
3.65,365,0.046,-0.885,0.509,-10.657018800000001,-5.042030400000002,-0.4583664000000001,118.57365810000002,5.0706783,-14.799505140000004
3.6599999999999997,366,0.037000000000000005,-0.8909999999999999,0.519,-10.943497800000001,-3.4950437999999995,-0.572958,118.47052566,5.06494872,-14.82242346
3.67,367,0.043,-0.8959999999999999,0.528,-11.745639,-1.8334656000000005,-0.6302538000000001,118.35020448,5.08213746,-14.83388262
3.6799999999999997,368,0.045,-0.897,0.522,-12.4904844,-1.5469866,-0.5156622000000001,118.22415372,5.0935966200000005,-14.845341780000002
3.69,369,0.044000000000000004,-0.894,0.521,-13.0061466,-1.7188740000000002,-0.3437748,118.09237338,5.10505578,-14.862530519999998
3.6999999999999997,370,0.052000000000000005,-0.884,0.524,-13.407217200000002,-1.145916,-0.286479,117.95486346,5.11078536,-14.87398968
3.71,371,0.064,-0.875,0.518,-13.750992000000002,-0.6302538000000001,-0.7448454000000001,117.82881270000001,5.11078536,-14.87398968
3.7199999999999998,372,0.057999999999999996,-0.879,0.509,-13.521808800000002,-0.11459160000000004,-1.2605076000000002,117.69130278,5.1222445200000015,-14.87398968
3.73,373,0.047,-0.883,0.505,-13.2353298,-0.8594370000000001,-1.3178034,117.55952244,5.13943326,-14.879719259999998
3.7399999999999998,374,0.044000000000000004,-0.89,0.507,-13.0061466,-1.6615782,-1.3750992,117.42201252,5.1566220000000005,-14.88544884
3.75,375,0.043,-0.89,0.508,-13.0061466,-2.0053530000000004,-1.3750992,117.29023218,5.17954032,-14.90263758
3.76,376,0.042,-0.8809999999999999,0.507,-13.2926256,-2.6929026,-1.3178034,117.16991100000001,5.1852699,-14.914096740000002
3.77,377,0.040999999999999995,-0.8759999999999999,0.508,-12.834259199999998,-2.6929026,-1.2032118,117.03813066,5.20818822,-14.937015060000002
3.78,378,0.039,-0.877,0.516,-12.3758928,-2.86479,-1.2032118,116.9120799,5.231106540000001,-14.95993338
3.79,379,0.040999999999999995,-0.884,0.52,-12.9488508,-2.5783110000000002,-1.3750992,116.78029956,5.25402486,-14.97712212
3.8,380,0.035,-0.893,0.514,-13.8082878,-1.5469866,-0.9740286,116.63706006,5.2712136,-14.98858128
3.81,381,0.036000000000000004,-0.9,0.515,-14.381245800000002,0.3437748,-0.9167328000000001,116.51100929999998,5.25402486,-14.97712212
3.82,382,0.04,-0.9079999999999999,0.506,-15.4125702,1.6042823999999998,-0.9740286,116.35631064,5.25402486,-14.95993338
3.83,383,0.036000000000000004,-0.915,0.499,-16.272007199999994,1.8334656000000005,-0.6302538000000001,116.19015282,5.25402486,-14.94274464
3.84,384,0.04,-0.9079999999999999,0.488,-16.8449652,0.8021411999999999,-0.11459160000000004,116.01826542,5.24829528,-14.937015060000002
3.8499999999999996,385,0.047,-0.907,0.49,-16.4438946,-0.057295800000000015,0.2291832000000001,115.85210759999998,5.24829528,-14.94274464
3.86,386,0.054000000000000006,-0.902,0.488,-16.329303,-0.6302538000000001,0.40107059999999994,115.69740894000002,5.231106540000001,-14.94847422
3.8699999999999997,387,0.052000000000000005,-0.9059999999999999,0.485,-16.4438946,-0.8594370000000001,0.6875496,115.53125112,5.231106540000001,-14.96566296
3.88,388,0.047,-0.9179999999999999,0.485,-16.7876694,0.2291832000000001,0.5156622000000001,115.35936372,5.22537696,-14.96566296
3.8899999999999997,389,0.048,-0.929,0.48,-17.4179232,1.5469866,0.286479,115.18174674000002,5.2139178,-14.954203799999998
3.9,390,0.042,-0.935,0.473,-18.907614,1.9480572,0.6875496,114.9926706,5.19672906,-14.94274464
3.9099999999999997,391,0.037000000000000005,-0.927,0.46,-20.2254174,2.4064236,0.7448454000000001,114.78640572,5.16235158,-14.9255559
3.92,392,0.035,-0.917,0.451,-20.5118964,1.145916,0.9740286,114.58014084,5.14516284,-14.919826320000002
3.9299999999999997,393,0.032,-0.9159999999999999,0.455,-19.8243468,1.3750992,1.2032118,114.37960554,5.127974099999999,-14.914096740000002
3.94,394,0.034,-0.9279999999999999,0.45,-19.9962342,2.5210152000000003,1.0886202,114.17907024000002,5.10505578,-14.90263758
3.9499999999999997,395,0.037000000000000005,-0.938,0.445,-20.2827132,4.2398892,1.3178034,113.97280536,5.07640788,-14.868260099999999
3.96,396,0.040999999999999995,-0.945,0.441,-20.7410796,6.3598338,1.8907614,113.76654048,5.01911208,-14.82242346
3.9699999999999998,397,0.048,-0.94,0.4320000000000001,-21.371333399999997,7.0473834,2.6356068,113.55454602,4.96754586,-14.770857239999998
3.98,398,0.064,-0.94,0.4320000000000001,-20.912967000000002,8.021412000000002,3.380452200000001,113.34255156,4.898790900000002,-14.71356144
3.9899999999999998,399,0.07,-0.94,0.41700000000000004,-22.058882999999998,7.3911582,3.9534102,113.12482752,4.83003594,-14.667724799999998
4.0,400,0.071,-0.93,0.418,-21.886995600000002,6.589017,4.5263682,112.90137390000001,4.76128098,-14.62761774
4.01,401,0.075,-0.919,0.428,-21.485925,6.1879464,4.6982555999999995,112.69510902,4.69252602,-14.593240260000002
4.02,402,0.071,-0.9229999999999999,0.424,-22.4026578,4.010706000000001,4.6409598,112.46592582,4.63523022,-14.581781099999999
4.03,403,0.061,-0.9259999999999999,0.424,-21.657812399999997,2.5783110000000002,4.8128472,112.24820178,4.57793442,-14.576051520000002
4.04,404,0.07400000000000001,-0.935,0.429,-21.142150199999996,3.9534102,4.3544808,112.03047774,4.5206386200000015,-14.558862779999998
4.05,405,0.08199999999999999,-0.9440000000000001,0.42100000000000004,-22.631841,4.583664,3.8961144,111.80129454,4.4690724,-14.53594446
4.06,406,0.075,-0.9520000000000001,0.40299999999999997,-23.777757,4.010706000000001,4.3544808,111.56638176,4.4117766000000005,-14.518755719999998
4.07,407,0.077,-0.938,0.402,-24.2934192,2.6356068,4.3544808,111.32000982,4.36021038,-14.51302614
4.08,408,0.081,-0.924,0.4,-24.637194,-0.3437748,3.9534102,111.06790829999998,4.325832900000001,-14.53594446
4.09,409,0.075,-0.912,0.4,-23.835052800000003,-4.0680017999999984,3.6096353999999997,110.82153635999998,4.30864416,-14.58751068
4.1,410,0.071,-0.914,0.413,-23.0329116,-5.3858052,3.0366774,110.580894,4.297185000000002,-14.65053606
4.109999999999999,411,0.063,-0.9279999999999999,0.40700000000000003,-24.0069402,-4.1825934,1.8907614,110.34598122,4.29145542,-14.70210228
4.12,412,0.033,-0.9420000000000001,0.402,-25.4393352,-3.7242269999999995,1.0886202,110.08242054,4.29145542,-14.74220934
4.13,413,0.003,-0.9440000000000001,0.395,-26.7571386,-3.6669312000000014,0.6302538000000001,109.8074007,4.297185000000002,-14.7823164
4.14,414,-0.006999999999999999,-0.9359999999999999,0.395,-26.4706596,-2.86479,0.0,109.53811044,4.30864416,-14.81669388
4.1499999999999995,415,0.003,-0.929,0.39,-25.8977016,-1.2032118,-0.6875496,109.27454976,4.3201033199999985,-14.82815304
4.16,416,0.011000000000000001,-0.929,0.379,-24.9809688,1.0886202,-1.0886202,109.02817782,4.30291458,-14.810964300000002
4.17,417,0.009000000000000001,-0.945,0.365,-24.5798982,1.5469866,-0.6875496,108.78180588,4.30291458,-14.799505140000004
4.18,418,-0.004,-0.96,0.358,-25.210151999999997,0.6875496,0.0,108.52397478,4.297185000000002,-14.799505140000004
4.1899999999999995,419,-0.004,-0.956,0.365,-24.8663772,1.145916,0.6302538000000001,108.27187325999998,4.28572584,-14.79377556
4.2,420,0.026000000000000002,-0.953,0.368,-24.350715,2.6929026,0.9167328000000001,108.02550132,4.2685371,-14.770857239999998
4.21,421,0.032,-0.946,0.349,-25.2674478,2.5210152000000003,1.2605076000000002,107.77912938,4.23415962,-14.7536685
4.22,422,0.023,-0.937,0.33299999999999996,-24.809081399999997,3.2085647999999996,1.7188740000000002,107.52702786,4.20551172,-14.73075018
4.2299999999999995,423,0.017,-0.9390000000000001,0.312,-24.1788276,3.3231564,2.1772404,107.28065592,4.17686382,-14.71356144
4.24,424,0.011000000000000001,-0.948,0.308,-23.7204612,2.0626488000000003,2.6929026,107.04001356,4.14248634,-14.70210228
4.25,425,0.009000000000000001,-0.9540000000000001,0.307,-22.86102420000001,1.4896908000000002,3.3231564,106.81083036,4.102379279999999,-14.70210228
4.26,426,0.004,-0.948,0.308,-21.772404,1.145916,3.7815228,106.59310632,4.0393539,-14.696372699999998
4.27,427,0.003,-0.95,0.322,-20.7983754,0.5156622000000001,3.380452200000001,106.38111186,4.00497642,-14.707831860000002
4.28,428,0.01,-0.95,0.33299999999999996,-21.4286292,1.6615782,2.7501984,106.16338782,3.97632852,-14.70210228
4.29,429,0.021,-0.945,0.317,-22.4599536,4.9274388,2.5210152000000003,105.93420462000002,3.93622146,-14.66199522
4.3,430,0.033,-0.9420000000000001,0.287,-22.517249399999997,6.417129599999999,2.7501984,105.710751,3.88465524,-14.61615858
4.31,431,0.036000000000000004,-0.9520000000000001,0.26899999999999996,-21.5432208,5.7868758000000025,3.380452200000001,105.48729738000002,3.82735944,-14.57032194
4.32,432,0.037000000000000005,-0.966,0.262,-20.5691922,4.7555514,4.297185,105.2810325,3.77579322,-14.53594446
4.33,433,0.039,-0.977,0.265,-19.9389384,3.3231564,4.9847346,105.07476762,3.71276784,-14.518755719999998
4.34,434,0.035,-0.976,0.265,-19.5378678,2.0626488000000003,5.5003968,104.87996189999998,3.65547204,-14.518755719999998
4.35,435,0.035,-0.968,0.261,-19.194093,0.9740286,5.2712136,104.68515618,3.59817624,-14.5244853
4.36,436,0.04,-0.965,0.251,-19.136797199999997,1.145916,4.6409598,104.4788913,3.54661002,-14.5244853
4.37,437,0.036000000000000004,-0.9690000000000001,0.24600000000000002,-19.480572,1.3178034,4.1252976000000015,104.28408558,3.50077338,-14.5244853
4.38,438,0.021,-0.9740000000000001,0.23600000000000002,-19.136797199999997,0.6875496,4.1252976000000015,104.08927986,3.46066632,-14.53021488
4.39,439,0.015,-0.977,0.235,-18.449247600000003,0.5156622000000001,4.010706000000001,103.90020372,3.4148296799999995,-14.53594446
4.3999999999999995,440,0.017,-0.981,0.23399999999999999,-18.3919518,0.0,4.1252976000000015,103.71112758,3.37472262,-14.5531332
4.41,441,0.021,-0.975,0.239,-17.7044022,-0.4583664000000001,4.583664,103.52778102,3.3231564,-14.564592359999995
4.42,442,0.028999999999999998,-0.9740000000000001,0.242,-17.18874,-0.057295800000000015,4.583664,103.35016404,3.27731976,-14.576051520000002
4.43,443,0.034,-0.98,0.239,-17.246035799999998,0.7448454000000001,4.4117766,103.17254706,3.2314831199999987,-14.581781099999999
4.4399999999999995,444,0.036000000000000004,-0.986,0.231,-18.1054728,1.432395,4.297185,102.9892005,3.18564648,-14.581781099999999
4.45,445,0.028999999999999998,-0.992,0.21600000000000005,-18.506543399999998,1.5469866,4.4690724,102.80585394,3.13408026,-14.576051520000002
4.46,446,0.013999999999999999,-0.9840000000000001,0.213,-18.793022399999998,0.11459160000000004,4.3544808,102.59958906,3.07678446,-14.581781099999999
4.47,447,0.013999999999999999,-0.968,0.215,-17.475219,-0.2291832000000001,4.0680017999999984,102.42197208,3.0366774000000003,-14.59896984
4.4799999999999995,448,0.027999999999999997,-0.956,0.217,-16.2147114,0.5156622000000001,3.4950437999999995,102.25581426,3.00229992,-14.59896984
4.49,449,0.033,-0.9620000000000001,0.213,-15.756345,0.572958,3.1512689999999997,102.09538602,2.96792244,-14.60469942
4.5,450,0.019,-0.97,0.20199999999999999,-15.2406828,-0.8021411999999999,3.380452200000001,101.94068736,2.93354496,-14.62188816
4.51,451,0.011000000000000001,-0.973,0.21100000000000002,-13.6936962,-2.1772404,3.380452200000001,101.79744786,2.88770832,-14.64480648
4.52,452,0.01,-0.9740000000000001,0.22399999999999998,-13.2926256,-2.9220858,2.7501984,101.65993794,2.87051958,-14.684913540000002
4.53,453,0.009000000000000001,-0.97,0.243,-12.834259199999998,-2.86479,2.0626488000000003,101.52815759999999,2.85333084,-14.71929102
4.54,454,0.009000000000000001,-0.97,0.255,-13.6936962,-1.4896908000000002,1.6615782,101.39064768,2.84187168,-14.73647976
4.55,455,0.01,-0.971,0.239,-15.297978599999999,0.057295800000000015,1.5469866,101.23594902,2.82468294,-14.74220934
4.56,456,0.003,-0.98,0.223,-16.615782,-0.572958,1.4896908000000002,101.06406162,2.79030546,-14.74793892
4.57,457,-0.005,-0.986,0.21,-16.673077799999998,-1.3750992,1.3178034,100.8979038,2.7788463,-14.76512766
4.58,458,-0.008,-0.997,0.215,-16.2147114,-1.2605076000000002,0.6875496,100.73174598,2.77311672,-14.7823164
4.59,459,-0.017,-1.001,0.213,-16.558486199999994,-2.291832,0.572958,100.55985858,2.77311672,-14.80523472
4.6,460,-0.03,-0.9940000000000001,0.212,-16.1001198,-3.2085647999999996,0.3437748,100.39370076,2.77311672,-14.8396122
4.61,461,-0.033,-0.99,0.214,-15.5844576,-2.4637194,-0.3437748,100.24473168,2.74446882,-14.85680094
4.62,462,-0.033,-0.9890000000000001,0.214,-15.4125702,-1.6615782,-0.9167328000000001,100.09003302,2.75592798,-14.87398968
4.63,463,-0.035,-0.987,0.207,-15.126091199999998,-1.7761698000000001,-0.8594370000000001,99.93533436,2.76738714,-14.89117842
4.64,464,-0.028999999999999998,-0.986,0.20199999999999999,-14.5531332,-1.7188740000000002,-0.9167328000000001,99.78636528,2.7788463,-14.914096740000002
4.6499999999999995,465,-0.023,-0.9840000000000001,0.20199999999999999,-13.5791046,-1.6042823999999998,-0.8021411999999999,99.64885536,2.78457588,-14.9255559
4.66,466,-0.02,-0.987,0.198,-13.120738199999998,-1.3750992,-0.286479,99.51707502,2.7501984,-14.93128548
4.67,467,-0.023,-0.991,0.2,-13.0634424,-0.9167328000000001,0.4583664000000001,99.38529468,2.7501984,-14.94274464
4.68,468,-0.02,-0.991,0.20600000000000002,-13.521808800000002,-0.057295800000000015,0.8021411999999999,99.24778476,2.73873924,-14.94847422
4.6899999999999995,469,-0.018000000000000002,-1.0,0.204,-14.438541599999999,0.572958,1.3178034,99.09881568,2.7215505,-14.94847422
4.7,470,-0.011000000000000001,-0.997,0.19399999999999998,-15.126091199999998,0.6302538000000001,1.7761698000000001,98.94984659999999,2.70436176,-14.94274464
4.71,471,-0.005,-0.992,0.18,-15.183387000000002,0.1718874,1.8907614,98.79514794,2.65852512,-14.94274464
4.72,472,-0.006,-0.996,0.168,-14.8396122,0.057295800000000015,1.9480572,98.64044928,2.6356068,-14.94847422
4.7299999999999995,473,-0.005,-1.0,0.17,-14.667724800000002,0.6302538000000001,1.9480572,98.4914802,2.61841806,-14.94274464
4.74,474,-0.006999999999999999,-1.002,0.19699999999999998,-14.8396122,1.2605076000000002,2.0053530000000004,98.34251112,2.59549974,-14.937015060000002
4.75,475,0.008,-0.992,0.21,-16.4438946,3.8961144,2.5210152000000003,98.17635329999999,2.5611222600000003,-14.90263758
4.76,476,0.027999999999999997,-0.982,0.183,-16.4438946,4.7555514,3.380452200000001,98.01592506,2.51528562,-14.862530519999998
4.77,477,0.035,-0.98,0.149,-15.756345,2.7501984,4.2398892,97.85549682,2.46944898,-14.845341780000002
4.78,478,0.037000000000000005,-0.9890000000000001,0.147,-14.8396122,0.7448454000000001,4.5263682,97.70079816,2.42361234,-14.845341780000002
4.79,479,0.027999999999999997,-0.998,0.14800000000000002,-14.32395,0.057295800000000015,4.4117766,97.55755866,2.3777757,-14.85107136
4.8,480,0.017,-1.0,0.134,-14.266654199999998,0.0,4.1825934,97.41431916,2.33193906,-14.862530519999998
4.81,481,0.006,-0.996,0.122,-13.8655836,-0.1718874,3.8388186,97.25389092,2.28037284,-14.862530519999998
4.82,482,0.004,-0.9940000000000001,0.11599999999999999,-13.178034,-0.057295800000000015,3.2658606,97.12211058,2.24599536,-14.868260099999999
4.83,483,0.01,-0.9890000000000001,0.106,-12.318597,0.11459160000000004,2.6356068,96.99605982,2.21734746,-14.87398968
4.84,484,0.017,-0.98,0.105,-11.172680999999999,0.0,2.1772404,96.88146822,2.19442914,-14.87398968
4.85,485,0.023,-0.973,0.10400000000000001,-10.084060800000001,-0.2291832000000001,1.6042823999999998,96.77833578,2.18296998,-14.879719259999998
4.86,486,0.028999999999999998,-0.97,0.10800000000000001,-9.1100322,-0.6875496,1.3178034,96.66947376,2.1657812400000003,-14.88544884
4.87,487,0.027000000000000003,-0.966,0.11,-8.078707799999998,-2.2345362,1.2605076000000002,96.58353006,2.15432208,-14.914096740000002
4.88,488,0.018000000000000002,-0.9690000000000001,0.11199999999999999,-7.6203414,-4.2398892,1.2605076000000002,96.50904552,2.1485925000000003,-14.954203799999998
4.89,489,0.013000000000000001,-0.968,0.11,-6.990087599999999,-5.6149884000000005,1.145916,96.43456098,2.14286292,-15.011499600000002
4.8999999999999995,490,0.009000000000000001,-0.9670000000000001,0.106,-6.3598338,-5.72958,0.8594370000000001,96.36580602,2.14286292,-15.074524979999998
4.91,491,-0.005,-0.9740000000000001,0.09300000000000001,-5.7868758000000025,-5.5003968,0.9167328000000001,96.27413274,2.10848544,-15.11463204
4.92,492,-0.013000000000000001,-0.981,0.08800000000000001,-5.042030400000002,-4.6409598,0.8021411999999999,96.22256652,2.10848544,-15.16046868
4.93,493,-0.021,-0.9840000000000001,0.087,-4.2398892,-4.5263682,0.572958,96.17672988,2.10848544,-15.206305319999998
4.9399999999999995,494,-0.028999999999999998,-0.9840000000000001,0.087,-3.1512689999999997,-4.7555514,0.0,96.1423524,2.11421502,-15.25214196
4.95,495,-0.026000000000000002,-0.986,0.095,-1.9480572,-4.1825934,-0.3437748,96.12516366,2.1199446,-15.2979786
4.96,496,-0.026000000000000002,-0.9890000000000001,0.107,-1.145916,-3.7242269999999995,-0.3437748,96.0850566,2.01681216,-15.2979786
4.97,497,-0.026000000000000002,-0.988,0.11800000000000001,-0.40107059999999994,-4.0680017999999984,-0.2291832000000001,96.07932702,2.02827132,-15.33808566
4.9799999999999995,498,-0.023,-0.99,0.127,-0.286479,-4.4117766,-0.286479,96.07359744,2.0340009,-15.3839223
4.99,499,-0.025,-0.993,0.126,-1.2605076000000002,-5.2139178,-0.286479,96.06213828,2.04546006,-15.435488519999998
5.0,500,-0.028999999999999998,-1.0,0.12,-1.6615782,-5.3858052,-0.2291832000000001,96.03921996,2.05691922,-15.48705474
5.01,501,-0.027999999999999997,-1.004,0.11199999999999999,-2.0053530000000004,-4.7555514,-0.286479,95.9991129,1.98816426,-15.509973059999998
5.02,502,-0.028999999999999998,-1.005,0.111,-1.6042823999999998,-4.0680017999999984,-0.286479,95.98192416,1.99389384,-15.55008012
5.03,503,-0.03,-1.006,0.114,-1.2605076000000002,-3.380452200000001,-0.286479,95.970465,1.99962342,-15.584457600000002
5.04,504,-0.032,-1.005,0.121,-0.8594370000000001,-3.1512689999999997,-0.3437748,95.95900584,2.01108258,-15.61883508
5.05,505,-0.031,-1.001,0.126,-0.4583664000000001,-3.2085647999999996,-0.4583664000000001,95.95327626,2.01681216,-15.647482979999998
5.06,506,-0.032,-1.001,0.128,-0.286479,-3.4377480000000005,-0.7448454000000001,95.95327626,1.91367972,-15.65894214
5.07,507,-0.028999999999999998,-1.005,0.138,-0.11459160000000004,-4.0680017999999984,-1.3750992,95.95327626,1.93086846,-15.69331962
5.08,508,-0.022000000000000002,-1.003,0.145,-0.2291832000000001,-3.8388186,-1.7188740000000002,95.94754668,1.95378678,-15.73342668
5.09,509,-0.019,-1.002,0.14,-0.5156622000000001,-2.86479,-1.6615782,95.9418171,1.97097552,-15.756345000000001
5.1,510,-0.013999999999999999,-1.003,0.134,-0.9740286,-1.6615782,-1.3750992,95.93035794,1.98816426,-15.77353374
5.11,511,-0.015,-1.003,0.13699999999999998,-1.0886202,-0.8594370000000001,-1.2605076000000002,95.95327626,1.87357266,-15.762074579999998
5.12,512,-0.013999999999999999,-1.002,0.136,-1.2605076000000002,-0.057295800000000015,-1.145916,95.9418171,1.88503182,-15.762074579999998
5.13,513,-0.013000000000000001,-1.003,0.131,-1.7761698000000001,0.5156622000000001,-1.145916,95.92462836,1.89649098,-15.756345000000001
5.14,514,-0.015,-1.0070000000000001,0.128,-2.3491277999999998,0.9740286,-1.2032118,95.90171004,1.90795014,-15.74488584
5.1499999999999995,515,-0.02,-1.004,0.128,-2.6929026,1.432395,-1.3750992,95.87306214,1.9194093000000003,-15.727697099999999
5.16,516,-0.015,-0.996,0.129,-2.5210152000000003,1.7188740000000002,-1.8334656000000005,95.8558734,1.87357266,-15.6990492
5.17,517,-0.013999999999999999,-0.9890000000000001,0.126,-1.8907614,1.6042823999999998,-2.291832,95.83868466,1.89649098,-15.68186046
5.18,518,-0.015,-0.9890000000000001,0.122,-1.145916,0.9740286,-2.5210152000000003,95.8272255,1.9194093000000003,-15.6704013
5.1899999999999995,519,-0.013000000000000001,-0.993,0.124,-0.40107059999999994,1.0886202,-2.7501984,95.82149592,1.94232762,-15.65321256
5.2,520,-0.012,-0.995,0.121,0.057295800000000015,1.6042823999999998,-2.86479,95.82149592,1.97097552,-15.63602382
5.21,521,-0.012,-1.001,0.11900000000000001,0.11459160000000004,2.1199446,-2.6356068,95.81576634,1.9194093000000003,-15.59591676
5.22,522,-0.01,-1.002,0.11800000000000001,-0.1718874,2.8074942000000003,-2.3491277999999998,95.81576634,1.94232762,-15.561539280000002
5.2299999999999995,523,-0.006999999999999999,-0.9990000000000001,0.12300000000000001,-0.4583664000000001,2.86479,-2.0626488000000003,95.81003676,1.9595163600000003,-15.53289138
5.24,524,-0.008,-0.992,0.126,-0.572958,2.6356068,-1.8907614,95.80430718,1.97097552,-15.50424348
5.25,525,-0.006999999999999999,-0.992,0.129,-0.5156622000000001,2.7501984,-1.8907614,95.7985776,1.98816426,-15.47559558
5.26,526,-0.006,-0.998,0.128,-0.8594370000000001,3.1512689999999997,-1.9480572,95.79284802,1.95378678,-15.42975894
5.27,527,-0.006999999999999999,-1.002,0.12,-1.3750992,3.9534102,-1.7761698000000001,95.77565928,1.96524594,-15.38965188
5.28,528,-0.003,-1.0070000000000001,0.109,-1.2032118,4.8701430000000006,-1.7761698000000001,95.76420011999998,1.9767051,-15.34381524
5.29,529,-0.001,-1.01,0.107,-0.9740286,5.5576926,-1.8334656000000005,95.75847054,1.98816426,-15.28651944
5.3,530,0.002,-1.006,0.109,-0.6875496,5.443101,-1.7761698000000001,95.75274096,1.99962342,-15.22922364
5.31,531,0.008,-0.9940000000000001,0.114,0.057295800000000015,4.6982555999999995,-1.3178034,95.74701138,1.9767051,-15.17192784
5.32,532,0.012,-0.9890000000000001,0.114,0.8021411999999999,3.8388186,-1.0313244000000001,95.75847054,1.98243468,-15.13755036
5.33,533,0.013999999999999999,-0.99,0.11199999999999999,1.0313244000000001,2.9793816000000004,-0.8594370000000001,95.7699297,1.98816426,-15.10317288
5.34,534,0.01,-0.996,0.113,1.3178034,2.3491277999999998,-0.7448454000000001,95.78138886,1.99389384,-15.08025456
5.35,535,0.01,-1.0,0.11800000000000001,1.2605076000000002,2.5210152000000003,-0.6302538000000001,95.79284802,1.99389384,-15.05733624
5.36,536,0.016,-1.003,0.12,1.0313244000000001,3.0366774,-0.4583664000000001,95.7985776,1.97097552,-15.01722918
5.37,537,0.02,-1.004,0.11599999999999999,0.9167328000000001,3.2658606,-0.3437748,95.81003676,1.97097552,-14.9828517
5.38,538,0.024,-1.0070000000000001,0.11699999999999999,1.0886202,3.0366774,-0.40107059999999994,95.82149592,1.97097552,-14.954203799999998
5.39,539,0.025,-1.003,0.11800000000000001,1.432395,2.0626488000000003,-0.3437748,95.83868466,1.97097552,-14.93128548
5.3999999999999995,540,0.023,-0.997,0.12300000000000001,1.8907614,0.9167328000000001,-0.2291832000000001,95.8558734,1.9767051,-14.9255559
5.41,541,0.021,-0.995,0.127,1.9480572,0.2291832000000001,-0.3437748,95.89025088,1.95378678,-14.919826320000002
5.42,542,0.022000000000000002,-0.996,0.127,1.7188740000000002,0.0,-0.286479,95.90743962,1.9595163600000003,-14.919826320000002
5.43,543,0.025,-0.9990000000000001,0.124,1.6615782,0.1718874,0.057295800000000015,95.92462836,1.9595163600000003,-14.914096740000002
5.4399999999999995,544,0.021,-0.9990000000000001,0.11900000000000001,1.5469866,0.11459160000000004,0.2291832000000001,95.9418171,1.95378678,-14.914096740000002
5.45,545,0.011000000000000001,-0.997,0.11800000000000001,1.9480572,-0.1718874,0.40107059999999994,95.95900584,1.95378678,-14.919826320000002
5.46,546,0.002,-0.997,0.11900000000000001,2.6929026,-0.6302538000000001,0.40107059999999994,95.97619458,1.89649098,-14.90836716
5.47,547,-0.006,-0.996,0.12300000000000001,3.4950437999999995,-1.145916,0.1718874,96.01630164,1.8907614,-14.919826320000002
5.4799999999999995,548,-0.01,-0.995,0.132,3.8961144,-1.145916,-0.11459160000000004,96.0564087,1.89649098,-14.93128548
5.49,549,-0.006,-0.993,0.133,3.8961144,-0.7448454000000001,-0.40107059999999994,96.09078618,1.90222056,-14.937015060000002
5.5,550,-0.005,-0.995,0.128,3.5523396000000003,-0.6302538000000001,-0.4583664000000001,96.13089324,1.90795014,-14.94274464
5.51,551,-0.009000000000000001,-1.0,0.128,3.2085647999999996,-0.9740286,-0.286479,96.15954114000002,1.84492476,-14.937015060000002
5.52,552,-0.012,-1.003,0.126,2.8074942000000003,-1.432395,-0.3437748,96.18818904,1.85065434,-14.954203799999998
5.53,553,-0.013000000000000001,-1.006,0.126,2.4064236,-1.4896908000000002,-0.4583664000000001,96.21110736,1.85638392,-14.96566296
5.54,554,-0.012,-1.0070000000000001,0.126,2.4064236,-1.5469866,-0.5156622000000001,96.23402568,1.86784308,-14.9828517
5.55,555,-0.01,-1.0090000000000001,0.128,2.291832,-1.3178034,-0.5156622000000001,96.25694399999999,1.87357266,-14.99431086
5.56,556,-0.006999999999999999,-1.0090000000000001,0.127,2.2345362,-0.9740286,-0.3437748,96.27413274,1.79908812,-14.9828517
5.57,557,-0.004,-1.006,0.134,2.5210152000000003,-0.8594370000000001,-0.057295800000000015,96.29705106,1.8048177,-14.99431086
5.58,558,-0.003,-1.003,0.13699999999999998,2.8074942000000003,-0.6875496,0.3437748,96.32569896,1.79908812,-15.000040439999998
5.59,559,-0.005,-1.004,0.142,2.9220858,-0.6302538000000001,0.9167328000000001,96.36007644,1.7933585399999998,-15.00577002
5.6,560,-0.005,-1.006,0.145,2.6929026,-0.4583664000000001,1.432395,96.38299476,1.7761698000000001,-15.011499600000002
5.61,561,-0.006,-1.006,0.14300000000000002,2.1772404,-0.2291832000000001,1.7188740000000002,96.42310182,1.6959556799999995,-15.011499600000002
5.62,562,-0.005,-1.005,0.14,1.7188740000000002,-0.1718874,1.8907614,96.44029056,1.6787669399999998,-15.011499600000002
5.63,563,-0.006,-1.008,0.135,1.145916,0.0,1.8334656000000005,96.45174972,1.6615782,-15.01722918
5.64,564,-0.006999999999999999,-1.01,0.136,0.9167328000000001,0.0,1.7761698000000001,96.46320888,1.6386598799999998,-15.01722918
5.6499999999999995,565,-0.008,-1.0090000000000001,0.138,0.4583664000000001,0.0,1.432395,96.46893846,1.6272007199999998,-15.01722918
5.66,566,-0.006999999999999999,-1.004,0.14,0.3437748,-0.2291832000000001,1.0313244000000001,96.49185678,1.4782316400000002,-15.000040439999998
5.67,567,-0.003,-0.997,0.14300000000000002,0.572958,-0.8021411999999999,0.7448454000000001,96.49758636,1.47250206,-15.011499600000002
5.68,568,-0.004,-0.9940000000000001,0.152,1.145916,-1.432395,0.4583664000000001,96.50904552,1.47250206,-15.02295876
5.6899999999999995,569,-0.003,-0.995,0.155,1.145916,-1.8334656000000005,0.286479,96.52050468,1.46677248,-15.0401475
5.7,570,-0.001,-0.996,0.147,0.7448454000000001,-1.6615782,0.2291832000000001,96.52623426,1.46677248,-15.05733624
5.71,571,-0.002,-1.0,0.135,0.2291832000000001,-1.2032118,0.5156622000000001,96.50331594,1.36936962,-15.04587708
5.72,572,-0.006999999999999999,-1.003,0.127,0.11459160000000004,-0.8021411999999999,0.9167328000000001,96.50904552,1.3579104599999998,-15.05160666
5.7299999999999995,573,-0.012,-0.9990000000000001,0.125,0.5156622000000001,-0.6875496,1.2032118,96.50904552,1.35218088,-15.06306582
5.74,574,-0.015,-0.993,0.126,1.3750992,-0.6875496,1.432395,96.52623426,1.3349921400000002,-15.0687954
5.75,575,-0.015,-0.991,0.133,2.4064236,-0.6302538000000001,1.2605076000000002,96.54915258,1.32353298,-15.08025456
5.76,576,-0.011000000000000001,-0.991,0.136,3.0366774,-0.286479,0.9167328000000001,96.58353006,1.27196676,-15.074524979999998
5.77,577,-0.011000000000000001,-0.9940000000000001,0.138,3.380452200000001,-0.286479,0.8021411999999999,96.61790754,1.2605076000000002,-15.074524979999998
5.78,578,-0.011000000000000001,-0.996,0.14,3.380452200000001,-0.11459160000000004,0.8594370000000001,96.65228502,1.25477802,-15.08025456
5.79,579,-0.009000000000000001,-0.9990000000000001,0.13699999999999998,2.9793816000000004,0.40107059999999994,0.8021411999999999,96.68093292,1.24331886,-15.074524979999998
5.8,580,-0.009000000000000001,-1.002,0.132,2.291832,0.9740286,0.9167328000000001,96.70385124,1.2318597,-15.0687954
5.81,581,-0.009000000000000001,-1.003,0.125,1.8907614,1.3178034,1.0886202,96.69812166,1.1745639,-15.03441792
5.82,582,-0.01,-1.0,0.12300000000000001,1.7188740000000002,0.8021411999999999,1.145916,96.7153104,1.16310474,-15.028688340000002
5.83,583,-0.012,-0.995,0.124,1.8907614,0.11459160000000004,0.9167328000000001,96.73249914,1.15164558,-15.028688340000002
5.84,584,-0.015,-0.992,0.128,2.1772404,-0.6875496,0.5156622000000001,96.75541746,1.1459160000000002,-15.03441792
5.85,585,-0.016,-0.991,0.131,2.5783110000000002,-1.2032118,0.0,96.78406536,1.15164558,-15.04587708
5.86,586,-0.013000000000000001,-0.992,0.134,2.8074942000000003,-1.432395,-0.40107059999999994,96.8012541,1.11153852,-15.04587708
5.87,587,-0.013000000000000001,-0.997,0.134,2.8074942000000003,-1.2032118,-0.8594370000000001,96.829902,1.12299768,-15.05733624
5.88,588,-0.013000000000000001,-0.9990000000000001,0.135,2.6356068,-0.8021411999999999,-0.9740286,96.8585499,1.13445684,-15.06306582
5.89,589,-0.013999999999999999,-1.0,0.135,2.4064236,-0.40107059999999994,-0.9740286,96.88146822,1.1459160000000002,-15.0687954
5.8999999999999995,590,-0.015,-1.001,0.134,2.1772404,-0.286479,-1.0886202,96.90438654,1.1573751600000002,-15.0687954
5.91,591,-0.018000000000000002,-1.001,0.131,2.0626488000000003,-0.4583664000000001,-1.0313244000000001,96.90438654,1.10007936,-15.05160666
5.92,592,-0.018000000000000002,-1.001,0.135,2.1199446,-0.572958,-1.2605076000000002,96.92730486,1.1172681,-15.05733624
5.93,593,-0.017,-1.001,0.13699999999999998,2.1199446,-0.6302538000000001,-1.3178034,96.95022318,1.12872726,-15.05733624
5.94,594,-0.017,-1.001,0.14,1.9480572,-0.1718874,-1.3750992,96.9731415,1.1459160000000002,-15.05733624
