TimeStamp(s),FrameCounter,AccX,AccY,AccZ,GyrX,GyrY,GyrZ,EulerX,EulerY,EulerZ
0.01,1,-0.040999999999999995,-1.015,0.071,-4.010706000000001,1.145916,-0.11459160000000004,92.89941012,-0.9740286,22.459953600000002
0.02,2,-0.042,-1.012,0.063,-4.4690724,1.7188740000000002,0.057295800000000015,92.84211432,-0.9969469199999998,22.47714234
0.03,3,-0.043,-1.0090000000000001,0.059000000000000004,-4.5263682,1.9480572,0.11459160000000004,92.79627768,-1.0026765,22.49433108
0.04,4,-0.043,-1.0090000000000001,0.057,-4.1252976000000015,2.0053530000000004,0.057295800000000015,92.75044104,-1.0026765,22.517249399999997
0.05,5,-0.04,-1.01,0.055,-3.8388186,2.1199446,0.0,92.71033398,-1.0026765,22.53443814
0.060000000000000005,6,-0.037000000000000005,-1.0090000000000001,0.053,-3.6096353999999997,2.0626488000000003,-0.11459160000000004,92.6759565,-1.0026765,22.55735646
0.06999999999999999,7,-0.035,-1.0070000000000001,0.052000000000000005,-3.3231564,1.8907614,-0.1718874,92.6186607,-1.01413566,22.58027478
0.08,8,-0.03,-1.005,0.053,-3.0366774,1.4896908000000002,-0.11459160000000004,92.5900128,-1.01413566,22.59173394
0.09,9,-0.028999999999999998,-1.002,0.054000000000000006,-2.9220858,0.9740286,-0.057295800000000015,92.56136490000002,-1.01413566,22.603193100000002
0.09999999999999999,10,-0.028999999999999998,-1.001,0.055,-2.8074942000000003,0.6302538000000001,0.11459160000000004,92.532717,-1.01986524,22.60892268
0.11,11,-0.028999999999999998,-0.9990000000000001,0.053,-2.6356068,0.3437748,0.3437748,92.5040691,-1.01986524,22.61465226
0.12,12,-0.03,-1.001,0.052000000000000005,-2.5210152000000003,0.057295800000000015,0.4583664000000001,92.45250288,-1.04278356,22.62038184
0.13,13,-0.028999999999999998,-1.003,0.053,-2.4637194,-0.2291832000000001,0.5156622000000001,92.42958456,-1.04851314,22.61465226
0.14,14,-0.027999999999999997,-1.003,0.055,-2.1772404,-0.572958,0.5156622000000001,92.40666624,-1.05424272,22.60892268
0.15000000000000002,15,-0.028999999999999998,-1.004,0.06,-2.1199446,-0.8021411999999999,0.572958,92.38374792,-1.0599723,22.603193100000002
0.16,16,-0.03,-1.005,0.062,-2.0053530000000004,-0.8021411999999999,0.8021411999999999,92.36655918,-1.06570188,22.59173394
0.17,17,-0.034,-1.005,0.065,-2.1199446,-0.6302538000000001,0.8021411999999999,92.34937044,-1.09434978,22.58027478
0.18000000000000002,18,-0.038,-1.003,0.066,-2.3491277999999998,-0.572958,0.7448454000000001,92.32072254,-1.10580894,22.5745452
0.19,19,-0.036000000000000004,-1.003,0.062,-2.6929026,-0.3437748,0.5156622000000001,92.29780422000002,-1.11153852,22.56881562
0.2,20,-0.035,-1.003,0.059000000000000004,-2.6356068,-0.4583664000000001,0.40107059999999994,92.26915632,-1.11153852,22.56308604
0.21000000000000002,21,-0.033,-1.001,0.059000000000000004,-2.4064236,-0.7448454000000001,0.2291832000000001,92.246238,-1.1172681,22.55735646
0.22,22,-0.033,-1.002,0.06,-2.2345362,-0.8021411999999999,0.0,92.2175901,-1.12872726,22.5458973
0.23,23,-0.031,-1.001,0.057999999999999996,-2.2345362,-0.8594370000000001,-0.11459160000000004,92.19467178,-1.12872726,22.54016772
0.24000000000000002,24,-0.03,-1.002,0.055999999999999994,-1.8907614,-1.3178034,-0.286479,92.17748304,-1.12299768,22.52297898
0.25,25,-0.031,-1.003,0.055999999999999994,-1.5469866,-1.7761698000000001,-0.3437748,92.1602943,-1.1172681,22.50579024
0.26,26,-0.03,-1.001,0.057,-1.3750992,-1.8334656000000005,-0.2291832000000001,92.14883514,-1.1172681,22.4886015
0.27,27,-0.027999999999999997,-1.001,0.055,-0.9167328000000001,-2.0053530000000004,-0.1718874,92.12591682,-1.1172681,22.47141276
0.28,28,-0.028999999999999998,-1.0,0.054000000000000006,-0.4583664000000001,-2.3491277999999998,-0.286479,92.12591682,-1.1172681,22.44849444
0.29000000000000004,29,-0.028999999999999998,-1.004,0.052000000000000005,-0.1718874,-2.7501984,-0.3437748,92.12591682,-1.11153852,22.41984654
0.3,30,-0.027999999999999997,-1.004,0.048,0.0,-3.4950437999999995,-0.5156622000000001,92.12591682,-1.10007936,22.38546906
0.31,31,-0.024,-1.004,0.053,0.40107059999999994,-4.6409598,-0.572958,92.13164640000001,-1.09434978,22.33963242
0.32,32,-0.026000000000000002,-1.001,0.055999999999999994,1.2032118,-5.7868758000000025,-0.6302538000000001,92.14310556,-1.0886202,22.28233662
0.33,33,-0.031,-0.998,0.063,2.291832,-6.5317212,-0.6302538000000001,92.17175346,-1.07716104,22.219311240000003
0.34,34,-0.04,-0.993,0.07,3.4377480000000005,-6.8182002000000015,-0.7448454000000001,92.20613094,-1.0599723,22.15055628
0.35000000000000003,35,-0.051,-0.988,0.07400000000000001,4.1252976000000015,-6.703608600000001,-1.2032118,92.25196758,-1.04278356,22.0875309
0.36000000000000004,36,-0.059000000000000004,-0.9890000000000001,0.081,3.9534102,-6.3025379999999975,-1.3750992,92.29207464,-1.0255948199999998,22.02450552
0.37,37,-0.062,-0.9940000000000001,0.084,3.0366774,-5.2139178,-1.432395,92.34364086,-1.03705398,21.96720972
0.38,38,-0.057999999999999996,-0.996,0.08199999999999999,2.291832,-4.1825934,-1.6042823999999998,92.36655918,-1.01413566,21.92710266
0.39,39,-0.048,-0.998,0.083,2.0053530000000004,-3.380452200000001,-1.7761698000000001,92.3894775,-0.9969469199999998,21.89272518000001
0.4,40,-0.040999999999999995,-0.9990000000000001,0.084,2.2345362,-2.5783110000000002,-2.0053530000000004,92.41239582,-0.9740286,21.86980686
0.41000000000000003,41,-0.036000000000000004,-1.004,0.08800000000000001,2.4064236,-1.9480572,-2.2345362,92.43531414,-0.95111028,21.85261812
0.42000000000000004,42,-0.036000000000000004,-1.008,0.091,2.6929026,-1.6615782,-2.3491277999999998,92.49260994,-0.93965112,21.82397022
0.43,43,-0.037000000000000005,-1.013,0.091,2.5783110000000002,-1.432395,-2.5210152000000003,92.51552826,-0.91100322,21.81251106
0.44,44,-0.037000000000000005,-1.018,0.08800000000000001,2.0053530000000004,-1.2605076000000002,-2.4064236,92.53844658,-0.8880849000000001,21.801051899999997
0.45,45,-0.037000000000000005,-1.018,0.084,1.5469866,-1.3750992,-2.3491277999999998,92.55563532,-0.8594370000000001,21.78959274
0.46,46,-0.035,-1.014,0.08,1.2605076000000002,-1.3750992,-2.3491277999999998,92.56709448,-0.83651868,21.77813358
0.47000000000000003,47,-0.032,-1.011,0.073,1.2605076000000002,-1.7188740000000002,-2.291832,92.58428322,-0.8250595199999999,21.75521526
0.48000000000000004,48,-0.028999999999999998,-1.012,0.066,1.2032118,-2.1772404,-2.1772404,92.60147196,-0.8021412000000001,21.73802652
0.49,49,-0.027999999999999997,-1.015,0.063,0.7448454000000001,-2.4064236,-2.0053530000000004,92.60720154,-0.7792228800000001,21.7151082
0.5,50,-0.026000000000000002,-1.016,0.061,0.286479,-2.1772404,-1.5469866,92.61293112,-0.76203414,21.69218988
0.51,51,-0.025,-1.011,0.057999999999999996,0.1718874,-2.2345362,-1.2032118,92.61293112,-0.75057498,21.66927156
0.52,52,-0.027000000000000003,-1.005,0.055999999999999994,0.11459160000000004,-2.6356068,-1.0313244000000001,92.60147196,-0.75057498,21.64635324
0.53,53,-0.027999999999999997,-1.001,0.057,0.3437748,-2.9220858,-0.9740286,92.60147196,-0.7391158200000001,21.61770534
0.54,54,-0.03,-1.0,0.055999999999999994,0.5156622000000001,-2.8074942000000003,-1.0886202,92.61293112,-0.72765666,21.59478702
0.55,55,-0.03,-0.9990000000000001,0.055999999999999994,0.8594370000000001,-2.5783110000000002,-1.145916,92.6186607,-0.7104679199999999,21.56613912
0.56,56,-0.031,-1.0,0.057,1.2032118,-2.291832,-1.145916,92.63584944,-0.69900876,21.5432208
0.5700000000000001,57,-0.033,-1.004,0.059000000000000004,1.3178034,-1.8907614,-1.0886202,92.63584944,-0.7104679199999999,21.52603206
0.5800000000000001,58,-0.035,-1.001,0.061,1.4896908000000002,-1.6615782,-1.0313244000000001,92.65303818,-0.69900876,21.5145729
0.59,59,-0.038,-0.9990000000000001,0.066,1.6615782,-1.3750992,-1.0886202,92.67022692,-0.6875496,21.49738416
0.6,60,-0.039,-0.997,0.068,1.7188740000000002,-0.9167328000000001,-0.9740286,92.68741566,-0.67609044,21.49165458
0.61,61,-0.039,-0.998,0.068,1.4896908000000002,-0.572958,-0.9740286,92.69887482,-0.66463128,21.485925
0.62,62,-0.037000000000000005,-1.0,0.064,1.4896908000000002,-0.3437748,-0.9167328000000001,92.69887482,-0.69900876,21.485925
0.63,63,-0.035,-1.004,0.06,1.6615782,-0.2291832000000001,-0.9167328000000001,92.71606355999998,-0.6875496,21.48019542
0.64,64,-0.033,-1.008,0.059000000000000004,1.6042823999999998,0.057295800000000015,-0.9167328000000001,92.7332523,-0.68182002,21.485925
0.65,65,-0.033,-1.008,0.057999999999999996,1.6042823999999998,0.2291832000000001,-1.0313244000000001,92.75044104,-0.6703608600000001,21.485925
0.66,66,-0.03,-1.0090000000000001,0.06,1.432395,0.286479,-1.145916,92.7619002,-0.6589017,21.49165458
0.67,67,-0.028999999999999998,-1.01,0.057999999999999996,1.0886202,0.286479,-1.2605076000000002,92.73898188,-0.67609044,21.50311374
0.68,68,-0.028999999999999998,-1.011,0.054000000000000006,0.7448454000000001,0.3437748,-1.3750992,92.75044104,-0.6589017,21.50884332
0.6900000000000001,69,-0.03,-1.01,0.049,0.4583664000000001,0.4583664000000001,-1.3178034,92.75617062,-0.64744254,21.5145729
0.7000000000000001,70,-0.032,-1.0090000000000001,0.047,0.40107059999999994,0.40107059999999994,-1.2605076000000002,92.75617062,-0.63598338,21.5145729
0.7100000000000001,71,-0.032,-1.01,0.043,0.2291832000000001,0.572958,-1.3750992,92.7619002,-0.62452422,21.52603206
0.72,72,-0.028999999999999998,-1.01,0.038,0.2291832000000001,0.6875496,-1.3178034,92.68168608,-0.64171296,21.55467996
0.73,73,-0.027000000000000003,-1.0090000000000001,0.034,0.40107059999999994,0.7448454000000001,-1.3750992,92.68741566,-0.62452422,21.56613912
0.74,74,-0.025,-1.0090000000000001,0.032,0.40107059999999994,0.6875496,-1.432395,92.68741566,-0.61306506,21.571868700000003
0.75,75,-0.026000000000000002,-1.0090000000000001,0.027999999999999997,0.4583664000000001,0.1718874,-1.3750992,92.69314524,-0.59587632,21.571868700000003
0.76,76,-0.027000000000000003,-1.0070000000000001,0.027000000000000003,0.4583664000000001,-0.2291832000000001,-1.2032118,92.69887482,-0.5844171599999999,21.571868700000003
0.77,77,-0.027999999999999997,-1.004,0.025,0.5156622000000001,-0.40107059999999994,-1.145916,92.57855364,-0.61879464,21.60624618
0.78,78,-0.031,-1.001,0.021,0.8594370000000001,-0.286479,-1.2032118,92.5900128,-0.6073354799999999,21.600516600000002
0.79,79,-0.032,-1.004,0.017,1.145916,0.0,-1.3178034,92.60147196,-0.59014674,21.600516600000002
0.8,80,-0.033,-1.004,0.013999999999999999,1.432395,0.0,-1.5469866,92.6186607,-0.5786875800000001,21.60624618
0.81,81,-0.034,-1.006,0.013999999999999999,1.7761698000000001,0.1718874,-1.8907614,92.63584944,-0.55576926,21.60624618
0.8200000000000001,82,-0.034,-1.004,0.013000000000000001,2.1772404,0.7448454000000001,-2.5210152000000003,92.60720154,-0.55003968,21.6291645
0.8300000000000001,83,-0.031,-1.003,0.015,2.4637194,0.9740286,-3.2085647999999996,92.63011986,-0.52139178,21.64062366
0.8400000000000001,84,-0.033,-1.001,0.015,2.2345362,0.6875496,-3.5523396000000003,92.65303818,-0.4870143000000001,21.65208282
0.85,85,-0.035,-1.004,0.012,2.5210152000000003,0.40107059999999994,-3.6096353999999997,92.6759565,-0.44690724,21.6578124
0.86,86,-0.034,-1.01,0.009000000000000001,2.5783110000000002,1.2605076000000002,-3.8388186,92.70460440000001,-0.41252976,21.67500114
0.87,87,-0.031,-1.012,0.009000000000000001,2.2345362,2.1199446,-4.010706000000001,92.68741566,-0.38388186,21.70937862000001
0.88,88,-0.031,-1.012,0.011000000000000001,2.1199446,2.6356068,-4.297185,92.70460440000001,-0.3437748,21.73802652
0.89,89,-0.035,-1.015,0.019,1.7188740000000002,3.3231564,-4.6982555999999995,92.72179314,-0.29793816,21.772404
0.9,90,-0.037000000000000005,-1.014,0.027000000000000003,0.6302538000000001,4.9274388,-5.3285094000000015,92.72752272,-0.25210152,21.82397022
0.91,91,-0.033,-1.0090000000000001,0.022000000000000002,0.0,6.3025379999999975,-6.0160589999999985,92.72752272,-0.19480572,21.89272518000001
0.92,92,-0.023,-1.005,0.016,-0.286479,6.2452422,-6.5317212,92.69887482,-0.14323950000000002,21.96148014
0.93,93,-0.016,-1.002,0.017,0.2291832000000001,5.6149884000000005,-7.0473834,92.69887482,-0.07448454,22.02450552
0.9400000000000001,94,-0.013000000000000001,-1.005,0.025,0.40107059999999994,5.6149884000000005,-7.333862400000001,92.70460440000001,-0.00572958,22.08180132
0.9500000000000001,95,-0.01,-1.0090000000000001,0.034,-0.40107059999999994,6.5317212,-7.6203414,92.69887482,0.057295800000000015,22.15055628
0.9600000000000001,96,-0.012,-1.004,0.032,-1.432395,7.5630456000000015,-7.6203414,92.68168608,0.13178034,22.2307704
0.97,97,-0.01,-0.9940000000000001,0.026000000000000002,-2.0626488000000003,8.651665800000002,-7.5057497999999985,92.64730859999999,0.19480572,22.32244368
0.98,98,-0.006,-0.9840000000000001,0.02,-2.4637194,9.6256944,-7.2765666,92.6186607,0.25783110000000004,22.41984654
0.99,99,-0.001,-0.983,0.015,-2.0053530000000004,10.5424272,-7.0473834,92.59574238000002,0.32085648,22.52870856
1.0,100,0.002,-0.981,0.012,-1.7188740000000002,11.3445684,-6.6463128000000005,92.57855364,0.38388186,22.64330016
1.01,101,0.006,-0.981,0.024,-1.5469866,12.2040054,-6.417129599999999,92.56136490000002,0.43544808,22.76362134
1.02,102,0.015,-0.982,0.027000000000000003,-2.0626488000000003,13.3499214,-6.2452422,92.52698742,0.49274388,22.90686084
1.03,103,0.013999999999999999,-0.986,0.026000000000000002,-2.5783110000000002,14.037471,-5.844171599999999,92.5040691,0.53858052,23.04437076
1.04,104,0.013999999999999999,-0.9840000000000001,0.023,-3.7815228,14.266654199999998,-5.844171599999999,92.46396204,0.59014674,23.18761026
1.05,105,0.016,-0.993,0.011000000000000001,-4.6982555999999995,14.1520626,-5.9014674000000005,92.41239582,0.63598338,23.33084976
1.06,106,0.015,-1.004,0.013999999999999999,-5.958763200000001,14.381245800000002,-6.1879464,92.35510002,0.6875496,23.474089260000003
1.07,107,0.011000000000000001,-1.0090000000000001,0.02,-8.59437,15.6417534,-6.703608600000001,92.25769716,0.7448454000000001,23.634517499999998
1.08,108,0.013999999999999999,-1.0170000000000001,0.016,-11.401864199999999,17.3606274,-6.9327918,92.14310556,0.8021412000000001,23.8064049
1.09,109,0.02,-1.0170000000000001,0.03,-14.0947668,17.761698000000006,-7.0473834,91.99986606,0.8594370000000001,23.98402188
1.1,110,0.025,-1.006,0.048,-16.272007199999994,16.959556799999998,-7.0473834,91.83370824,0.9167328,24.1501797
1.11,111,0.028999999999999998,-1.001,0.048,-17.761698000000006,16.157415599999997,-7.5057497999999985,91.65036168,0.98548776,24.310607940000004
1.12,112,0.035,-1.0070000000000001,0.054000000000000006,-20.05353,16.272007199999994,-8.7089616,91.44982638,1.0599723,24.47676576
1.1300000000000001,113,0.046,-1.022,0.051,-22.517249399999997,16.1001198,-10.4851314,91.22637276,1.1573751600000002,24.631464420000004
1.1400000000000001,114,0.047,-1.052,0.027999999999999997,-25.9549974,15.126091199999998,-12.032118,90.96281208,1.26623718,24.7804335
1.1500000000000001,115,0.047,-1.071,0.019,-30.4813656,13.407217200000002,-12.834259199999998,90.65341476,1.38655836,24.91221384
1.1600000000000001,116,0.057,-1.077,0.019,-36.38283300000001,12.318597,-13.9228794,90.28672164,1.5183387000000002,25.03253502
1.17,117,0.066,-1.052,0.024,-41.3675676,11.3445684,-14.8396122,89.8684623,1.6615782,25.14139704
1.18,118,0.073,-1.02,0.028999999999999998,-46.2377106,8.8235532,-15.2406828,89.39863674,1.81054728,25.22161116
1.19,119,0.066,-1.0,0.018000000000000002,-49.847346,7.333862400000001,-15.297978599999999,88.89443370000002,1.95378678,25.29036612
1.2,120,0.057999999999999996,-1.001,0.009000000000000001,-54.43101,6.9327918,-15.4125702,88.33866443999996,2.10275586,25.34766192
1.21,121,0.053,-1.01,0.013999999999999999,-59.874111,6.2452422,-15.6417534,87.73132896,2.25745452,25.39922814
1.22,122,0.039,-1.012,-0.002,-65.317212,5.5576926,-16.2147114,87.07242726,2.41215318,25.4393352
1.23,123,0.028999999999999998,-1.011,-0.006999999999999999,-71.21867940000001,4.7555514,-16.673077799999998,86.35050018,2.57258142,25.4679831
1.24,124,0.019,-0.9990000000000001,-0.02,-75.5731602,2.9793816000000004,-17.9335854,85.58273646,2.74446882,25.47944226
1.25,125,0.016,-0.983,-0.032,-77.6931048,3.7815228,-19.194093,84.79205442,2.92781538,25.49090142
1.26,126,0.012,-0.976,-0.033,-78.49524600000002,5.844171599999999,-20.5691922,83.9956428,3.12835068,25.5252789
1.27,127,0.027000000000000003,-1.006,-0.039,-79.1254998,10.943497800000001,-22.631841,83.19923118,3.3518043,25.59976344
1.28,128,0.035,-1.014,-0.06,-81.18814859999998,14.610429000000002,-23.491278,82.37990124000002,3.59244666,25.70289588
1.29,129,0.040999999999999995,-0.9990000000000001,-0.098,-81.932994,16.501190400000002,-22.91832,81.55484172,3.82735944,25.82894664
1.3,130,0.044000000000000004,-0.985,-0.12,-81.53192340000003,15.126091199999998,-21.0848544,80.7297822,4.04508348,25.93780866
1.31,131,0.045,-0.977,-0.136,-80.67248640000003,8.9954406,-18.8503182,79.91618184000002,4.23415962,25.98937488
1.32,132,0.042,-0.978,-0.172,-80.7297822,2.3491277999999998,-17.6471064,79.09112232,4.40031744,25.97218614
1.33,133,0.044000000000000004,-0.975,-0.207,-81.2454444,-3.3231564,-18.621135,78.26033322,4.57220484,25.891972020000004
1.34,134,0.048,-0.955,-0.21899999999999997,-80.2714158,-7.333862400000001,-21.142150199999996,77.43527370000002,4.7555514,25.77165084
1.35,135,0.046,-0.9309999999999999,-0.228,-78.38065440000003,-9.6256944,-23.2620948,76.62740292000002,4.95035712,25.61695218
1.36,136,0.042,-0.903,-0.231,-77.17744259999998,-12.1467096,-24.637194,75.8309913,5.1566220000000005,25.43360562
1.37,137,0.057999999999999996,-0.8859999999999999,-0.218,-74.2553568,-13.178034,-25.9549974,75.057498,5.36861646,25.23307032
1.3800000000000001,138,0.075,-0.879,-0.195,-71.33327100000002,-15.068795399999999,-26.642546999999997,74.31838218,5.58061092,25.01534628
1.3900000000000001,139,0.061,-0.87,-0.171,-66.463128,-17.131444199999994,-27.272800800000002,73.61937342,5.79260538,24.768974340000003
1.4000000000000001,140,0.02,-0.8740000000000001,-0.179,-62.16594300000001,-18.6784308,-27.272800800000002,72.96047172,5.99887026,24.50541366
1.4100000000000001,141,-0.001,-0.89,-0.195,-59.93140680000001,-21.0848544,-26.241476399999996,72.32448833999999,6.18221682,24.21893466
1.42,142,0.0,-0.894,-0.207,-58.2698286,-21.199446,-25.2674478,71.71142327999998,6.348374640000001,23.932455659999995
1.43,143,0.004,-0.895,-0.23,-57.92605379999999,-19.2513888,-24.1215318,71.09262864,6.51453246,23.66889498
1.44,144,0.011000000000000001,-0.883,-0.278,-57.06661679999999,-19.2513888,-23.0329116,70.48529316,6.66350154,23.4053343
1.45,145,0.062,-0.8640000000000001,-0.275,-54.08723520000001,-21.657812399999997,-22.0015872,69.90660558,6.8010114600000025,23.12458488
1.46,146,0.102,-0.858,-0.27899999999999997,-52.19647379999999,-24.350715,-20.340009,69.34510673999999,6.9041438999999984,22.82091714
1.47,147,0.122,-0.8690000000000001,-0.301,-48.8733174,-27.100913399999996,-18.6784308,68.8122558,6.98435802,22.49433108
1.48,148,0.11800000000000001,-0.8690000000000001,-0.316,-46.5241896,-30.3094782,-17.4179232,68.30232318,7.03592424,22.14482670000001
1.49,149,0.099,-0.8490000000000001,-0.298,-44.9199072,-34.3201842,-16.2147114,67.80384971999999,7.06457214,21.75521526
1.5,150,0.09300000000000001,-0.8220000000000001,-0.255,-43.9458786,-35.6379876,-14.8396122,67.31110584,7.0703017200000025,21.36560382
1.51,151,0.084,-0.804,-0.28300000000000003,-45.4355694,-34.0337052,-13.636400400000001,66.80690279999999,7.0703017200000025,20.99318112
1.52,152,0.084,-0.795,-0.314,-46.5814854,-32.2002396,-12.0894138,66.29697017999999,7.05311298,20.64367674
1.53,153,0.085,-0.795,-0.313,-46.0658232,-30.93973200000001,-9.740286,65.79276714,7.018735500000001,20.31709068
1.54,154,0.083,-0.7979999999999999,-0.34,-45.034498799999994,-28.9916748,-7.161975,65.30575284,6.96716928,20.01915252
1.55,155,0.065,-0.7879999999999999,-0.355,-42.2270046,-30.4813656,-4.1825934,64.84165686,6.8812255800000015,19.71548478
1.56,156,0.045,-0.763,-0.336,-37.013086799999996,-32.4294228,-1.8334656000000005,64.43485668000001,6.7609043999999985,19.41181704
1.57,157,0.036000000000000004,-0.732,-0.303,-34.2055926,-31.1689152,-0.5156622000000001,64.06243398,6.63485364,19.12533804
1.58,158,0.05,-0.695,-0.281,-32.830493399999995,-24.8663772,-0.2291832000000001,63.70147044,6.5317212,18.89615484
1.59,159,0.071,-0.667,-0.312,-32.085648000000006,-17.246035799999998,-0.11459160000000004,63.36342522,6.45723666,18.7357266
1.6,160,0.078,-0.669,-0.359,-28.9916748,-11.6310474,0.8594370000000001,63.05975748,6.39421128,18.63259416
1.61,161,0.062,-0.691,-0.3720000000000001,-25.382039399999996,-9.8548776,3.1512689999999997,62.79046722,6.31972674,18.55810962
1.62,162,0.025,-0.7190000000000001,-0.379,-21.600516600000002,-10.886202,6.130650599999999,62.56128402,6.2051351399999986,18.48362508
1.6300000000000001,163,0.006,-0.73,-0.375,-20.1108258,-12.1467096,8.651665800000002,62.35501913999999,6.0733548000000015,18.41487012
1.6400000000000001,164,0.003,-0.72,-0.376,-18.3919518,-12.6623718,10.2559482,62.16021342000001,5.930115299999999,18.34611516
1.6500000000000001,165,-0.002,-0.708,-0.381,-16.386598799999998,-11.917526400000002,11.1153852,61.98832602,5.77541664,18.29454894
1.6600000000000001,166,0.0,-0.688,-0.348,-14.5531332,-7.1046792000000005,10.7716104,61.84508652000001,5.64936588,18.2773602
1.6700000000000002,167,0.02,-0.662,-0.35700000000000004,-12.6623718,0.1718874,9.224623800000002,61.71330618,5.5576926,18.32319684
1.68,168,0.039,-0.6409999999999999,-0.371,-7.7922288,5.6722842,7.448453999999999,61.63882163999999,5.51758554,18.409140540000006
1.69,169,0.061,-0.632,-0.37,-4.010706000000001,11.6310474,6.0733548,61.61017374000001,5.51758554,18.54092088
1.7,170,0.055,-0.64,-0.402,1.8907614,16.7303736,5.958763200000001,61.64455122,5.5405038599999985,18.71853786
1.71,171,0.036000000000000004,-0.655,-0.41600000000000004,7.5057497999999985,17.303331600000003,7.161975,61.73622450000001,5.5519630200000005,18.907614000000002
1.72,172,0.036000000000000004,-0.675,-0.41600000000000004,12.4331886,17.303331600000003,8.651665800000002,61.86800484000001,5.5519630200000005,19.10241972
1.73,173,0.03,-0.6920000000000001,-0.423,16.501190400000002,15.469866,10.1986524,62.05708098,5.5290447,19.28576628
1.74,174,0.031,-0.708,-0.426,20.454600600000006,13.2926256,11.0007936,62.27480502,5.4946672199999975,19.45765368
1.75,175,0.062,-0.7120000000000001,-0.381,25.382039399999996,12.3758928,10.5424272,62.54982486,5.46028974,19.61808192
1.76,176,0.1,-0.7120000000000001,-0.3720000000000001,30.4240698,12.261301199999998,9.9694692,62.87068134,5.42591226,19.77851016
1.77,177,0.11599999999999999,-0.713,-0.35,34.262888399999994,10.1413566,10.084060800000001,63.23164488,5.39153478,19.91602008
1.78,178,0.09699999999999999,-0.711,-0.313,40.10706,7.9641161999999985,11.688343199999998,63.64990422,5.32277982,20.04207084
1.79,179,0.064,-0.706,-0.28600000000000003,44.2896534,9.0527364,13.2353298,64.10827062,5.24829528,20.18531034
1.8,180,0.039,-0.705,-0.3,47.8992888,11.1153852,14.037471,64.61247366,5.17381074,20.35146816
1.81,181,0.027000000000000003,-0.735,-0.33399999999999996,51.1651494,11.8602306,14.8396122,65.14532460000001,5.0935966200000005,20.52908514
1.82,182,0.023,-0.7859999999999999,-0.33,55.2331512,11.1153852,15.756345,65.71828260000001,4.99619376,20.69524296
1.83,183,0.025,-0.82,-0.33899999999999997,57.58227899999999,9.740286,16.558486199999994,66.31415892,4.88733174,20.8556712
1.84,184,0.040999999999999995,-0.838,-0.342,60.275181599999996,8.136003599999999,16.501190400000002,66.93868314,4.77274014,21.00464028
1.85,185,0.071,-0.856,-0.387,62.7961968,6.9327918,16.2147114,67.58612568,4.65814854,21.13069104
1.86,186,0.10300000000000001,-0.8740000000000001,-0.381,67.2079734,5.042030400000002,15.870936600000002,68.27940486,4.53782736,21.245282640000006
1.87,187,0.126,-0.892,-0.353,70.6457214,3.5523396000000003,16.042824000000003,69.00133194,4.4117766000000005,21.3426855
1.8800000000000001,188,0.135,-0.887,-0.336,72.5364828,2.6356068,15.870936600000002,69.74617734,4.27999626,21.4286292
1.8900000000000001,189,0.11800000000000001,-0.8690000000000001,-0.315,74.9429064,1.2605076000000002,14.438541599999999,70.50821148,4.15967508,21.49738416
1.9000000000000001,190,0.09300000000000001,-0.88,-0.316,76.77637200000002,0.0,13.0634424,71.29316394,4.04508348,21.5432208
1.9100000000000001,191,0.067,-0.912,-0.311,78.03687959999998,-0.6302538000000001,12.032118,72.08957556,3.93622146,21.58332786
1.9200000000000002,192,0.055999999999999994,-0.9440000000000001,-0.313,78.2660628,-1.145916,11.2872726,72.88025760000002,3.83308902,21.61197576
1.93,193,0.046,-0.971,-0.312,78.49524600000002,-1.7188740000000002,10.084060800000001,73.6823988,3.74141574,21.6291645
1.94,194,0.047,-0.993,-0.304,79.4119788,-2.1199446,7.906820400000001,74.48454000000002,3.67266078,21.64062366
1.95,195,0.053,-0.986,-0.27699999999999997,80.61519059999998,-1.432395,6.3598338,75.30386994,3.61536498,21.64635324
1.96,196,0.057999999999999996,-0.973,-0.262,82.33406459999998,-0.6302538000000001,5.3858052,76.14038862,3.56952834,21.66354198
1.97,197,0.055999999999999994,-0.9570000000000001,-0.24600000000000002,84.56860079999998,-1.0886202,5.6722842,76.99982562,3.5236917,21.67500114
1.98,198,0.053,-0.9420000000000001,-0.23399999999999999,87.54798240000002,-2.4637194,6.8182002000000015,77.88791051999998,3.46066632,21.66927156
1.99,199,0.064,-0.953,-0.23199999999999998,91.0430262,-2.6929026,7.5057497999999985,78.8103729,3.3919113599999995,21.66927156
2.0,200,0.065,-1.003,-0.187,96.37153559999999,-2.9220858,7.333862400000001,79.79013108000002,3.3231564,21.66354198
2.01,201,0.05,-1.075,-0.115,102.55948199999999,-4.010706000000001,7.7922288,80.83291464,3.25440144,21.64635324
2.02,202,0.052000000000000005,-1.197,-0.10300000000000001,108.0598788,-4.6409598,10.1413566,81.92726442,3.15699858,21.62343492
2.03,203,0.054000000000000006,-1.344,-0.102,110.00793600000002,-5.3285094000000015,12.4331886,83.04453251999998,3.0366774000000003,21.600516600000002
2.04,204,0.047,-1.505,-0.076,111.2684436,-7.3911582,13.0634424,84.17325978,2.91062664,21.55467996
2.05,205,0.045,-1.6340000000000001,-0.044000000000000004,111.2684436,-8.59437,11.9748222,85.30198704,2.80176462,21.49165458
2.0599999999999996,206,0.061,-1.725,-0.011000000000000001,109.0339074,-8.479778399999999,8.8235532,86.40779597999996,2.71582092,21.42289962
2.07,207,0.087,-1.757,0.039,106.5128922,-7.8495246,4.9274388,87.48495702,2.67571386,21.359874240000003
2.0799999999999996,208,0.094,-1.7730000000000001,0.086,103.705398,-7.333862400000001,2.4637194,88.53919973999999,2.65852512,21.30257844
2.09,209,0.105,-1.766,0.11599999999999999,100.1530584,-7.333862400000001,2.4064236,89.55333540000002,2.64706596,21.23955306
2.0999999999999996,210,0.115,-1.694,0.14400000000000002,94.251591,-8.7089616,6.1879464,90.50444568,2.59549974,21.16506852
2.11,211,0.114,-1.65,0.18100000000000002,90.4127724,-10.886202,9.3392154,91.42117848,2.50955604,21.06193608
2.1199999999999997,212,0.08,-1.5659999999999998,0.20800000000000002,84.96967140000002,-13.636400400000001,10.1413566,92.28061548,2.42361234,20.93588532
2.13,213,0.071,-1.456,0.22899999999999998,78.95361240000003,-15.068795399999999,8.8235532,93.08275668,2.35485738,20.79264582
2.1399999999999997,214,0.08199999999999999,-1.3459999999999999,0.243,72.76566600000002,-14.7823164,6.589017,93.81614292,2.30902074,20.64940632
2.15,215,0.085,-1.245,0.24,65.89017,-13.6936962,4.9847346,94.48077420000001,2.2746432600000004,20.51762598
2.1599999999999997,216,0.068,-1.15,0.23600000000000002,60.8481396,-13.120738199999998,4.3544808,95.09383926,2.25172494,20.39157522
2.17,217,0.032,-1.055,0.20800000000000002,56.72284200000001,-12.834259199999998,4.4117766,95.67825642,2.22880662,20.26552446
2.1799999999999997,218,0.027999999999999997,-0.9790000000000001,0.204,53.7434604,-10.886202,3.6669312000000014,96.21683694,2.2058883,20.16239202
2.19,219,0.042,-0.92,0.20199999999999999,50.82137460000001,-7.448453999999999,3.380452200000001,96.73249914,2.18869956,20.09363706
2.1999999999999997,220,0.046,-0.8759999999999999,0.193,47.7274014,-4.9847346,3.6669312000000014,97.21951344,2.16005166,20.04207084
2.21,221,0.03,-0.84,0.168,45.550160999999996,-4.4117766,4.2398892,97.67787984,2.13140376,20.00196378
2.2199999999999998,222,0.02,-0.82,0.155,46.2377106,-5.5003968,4.9847346,98.1477054,2.0912967,19.94466798
2.23,223,0.016,-0.8029999999999999,0.157,48.4722468,-6.875496000000001,5.443101,98.64044928,2.05118964,19.87591302
2.2399999999999998,224,0.013999999999999999,-0.79,0.161,50.8786704,-8.3651868,5.443101,99.15611148,2.01681216,19.78996932
2.25,225,0.01,-0.769,0.172,52.48295279999999,-8.9381448,5.3858052,99.68896242,1.98816426,19.704025620000003
2.26,226,0.01,-0.752,0.185,55.6915176,-8.651665800000002,5.5003968,100.25046126,1.95378678,19.61808192
2.27,227,0.012,-0.737,0.213,58.9573782,-9.2819196,5.6722842,100.85206716,1.9194093000000003,19.52067906
2.28,228,0.01,-0.737,0.233,62.3378304,-9.453807,5.958763200000001,101.48232096,1.88503182,19.4232762
2.29,229,0.009000000000000001,-0.738,0.254,66.23394479999999,-8.021412000000002,6.2452422,102.15268182,1.84492476,19.34306208
2.3,230,0.009000000000000001,-0.779,0.28600000000000003,69.21332640000001,-4.5263682,6.3598338,102.85742016000002,1.79908812,19.29722544
2.31,231,0.01,-0.8270000000000001,0.302,70.8176088,-1.145916,6.2452422,103.57361766,1.7475218999999995,19.280036700000004
2.32,232,-0.003,-0.8640000000000001,0.315,72.4218912,-0.7448454000000001,6.7609043999999985,104.31846306,1.6844965200000002,19.26284796
2.3299999999999996,233,-0.018000000000000002,-0.905,0.36,74.42724419999998,-1.145916,7.6776372,105.07476762,1.6157415599999996,19.23992964
2.34,234,-0.011000000000000001,-0.9440000000000001,0.408,76.1461182,-1.8334656000000005,7.1046792000000005,105.84826092,1.55844576,19.21701132
2.3499999999999996,235,-0.002,-0.9740000000000001,0.446,75.916935,-3.2085647999999996,6.1879464,106.61602464,1.50687954,19.17690426
2.36,236,-0.005,-1.002,0.47100000000000003,74.65642740000001,-3.8961144,6.0160589999999985,107.37232920000001,1.46677248,19.13106762
2.3699999999999997,237,-0.02,-1.021,0.47700000000000004,72.70837019999998,-3.6096353999999997,5.6149884000000005,108.12290418,1.42666542,19.09096056
2.38,238,-0.027999999999999997,-1.0390000000000001,0.499,71.90622900000002,-1.0886202,4.297185,108.85056084,1.39228794,19.07377182
2.3899999999999997,239,-0.048,-1.047,0.502,70.0154676,1.8907614,2.7501984,109.56102876,1.36364004,19.09096056
2.4,240,-0.067,-1.058,0.494,67.9528188,4.1825934,1.3178034,110.24857836,1.3349921400000002,19.1367972
2.4099999999999997,241,-0.075,-1.068,0.505,66.4058322,4.7555514,0.4583664000000001,110.9246688,1.3178034,19.18836342
2.42,242,-0.066,-1.062,0.511,64.6869582,6.2452422,-0.057295800000000015,111.58930008,1.2891555,19.2513888
2.4299999999999997,243,-0.06,-1.057,0.508,62.8534926,6.589017,-0.286479,112.22528346,1.26623718,19.32014376
2.44,244,-0.065,-1.041,0.508,61.191914399999995,7.3911582,-0.4583664000000001,112.84980768,1.24331886,19.40035788
2.4499999999999997,245,-0.068,-1.025,0.508,59.64492779999999,8.8235532,-1.3750992,113.45714316,1.22040054,19.492031160000003
2.46,246,-0.065,-1.004,0.507,57.86875799999999,10.1413566,-2.6929026,114.04156032,1.2032117999999998,19.60089318
2.4699999999999998,247,-0.057,-0.987,0.4970000000000001,56.149884,11.917526400000002,-3.8388186,114.61451832,1.18602306,19.72694394
2.48,248,-0.063,-0.975,0.494,53.9726436,12.4331886,-4.3544808,115.164558,1.1688343199999998,19.86445386
2.4899999999999998,249,-0.065,-0.95,0.473,51.852699,12.261301199999998,-4.6409598,115.69167936,1.1573751600000002,20.00196378
2.5,250,-0.057999999999999996,-0.919,0.462,50.82137460000001,11.5164558,-5.3858052,116.20734156,1.15164558,20.13374412
2.51,251,-0.040999999999999995,-0.897,0.474,50.6494872,12.891555,-6.130650599999999,116.72300376,1.15164558,20.2827132
2.52,252,-0.042,-0.865,0.475,49.274388,12.605075999999999,-6.3598338,117.22720679999999,1.14018642,20.4259527
2.53,253,-0.055999999999999994,-0.867,0.493,48.8733174,12.4904844,-6.3025379999999975,117.72568026000002,1.13445684,20.5691922
2.54,254,-0.049,-0.8759999999999999,0.502,47.4409224,13.8655836,-5.72958,118.20696498,1.1172681,20.72389086
2.55,255,-0.035,-0.892,0.503,46.3523022,13.464512999999998,-4.010706000000001,118.68252011999998,1.0886202,20.86140078
2.56,256,-0.048,-0.919,0.498,46.1804148,11.0007936,-2.291832,119.15234567999998,1.05424272,20.97599238
2.57,257,-0.049,-0.972,0.526,46.5814854,10.1413566,-1.8907614,119.61644166,1.01413566,21.07339524
2.5799999999999996,258,-0.023,-1.012,0.562,45.3782736,13.6936962,-1.2032118,120.08053764,0.95683986,21.20517558
2.59,259,-0.012,-1.004,0.594,42.398892,15.5844576,-0.9167328000000001,120.51025614,0.8823553199999999,21.34841508
2.5999999999999996,260,-0.006999999999999999,-0.932,0.607,38.731960799999996,17.0168526,-1.0886202,120.90559716,0.8021412000000001,21.49738416
2.61,261,0.025,-0.8490000000000001,0.601,37.9298196,18.1054728,-1.5469866,121.28947902,0.7161975,21.66354198
2.6199999999999997,262,0.035,-0.833,0.62,38.0444112,17.5325148,-2.1772404,121.68482004,0.64744254,21.82397022
2.63,263,0.024,-0.853,0.639,37.3568616,15.6990492,-2.9220858,122.06297232,0.5844171599999999,21.9729393
2.6399999999999997,264,0.02,-0.851,0.623,36.7839036,12.2040054,-2.8074942000000003,122.43539502,0.53858052,22.09899006
2.65,265,0.019,-0.8390000000000001,0.636,36.38283300000001,9.2819196,-2.4637194,122.80781772,0.5099326200000001,22.19066334
2.6599999999999997,266,0.008,-0.8340000000000001,0.639,33.002380800000005,6.875496000000001,-2.1199446,123.14013336,0.4870143000000001,22.26514788
2.67,267,-0.004,-0.816,0.636,31.340802600000004,6.875496000000001,-2.0053530000000004,123.472449,0.46409598,22.33390284
2.6799999999999997,268,-0.001,-0.804,0.631,29.793815999999996,8.880849000000003,-1.8907614,123.77611674,0.4297185000000001,22.41984654
2.69,269,0.0,-0.792,0.62,28.0176462,11.8602306,-2.5783110000000002,124.05686616,0.38388186,22.53443814
2.6999999999999997,270,0.0,-0.7929999999999999,0.619,27.1582092,14.438541599999999,-3.6669312000000014,124.33188599999998,0.33231564,22.67194806
2.71,271,0.004,-0.8009999999999999,0.621,26.9863218,16.7303736,-4.8701430000000006,124.60690584,0.27501984,22.83810588
2.7199999999999998,272,0.01,-0.809,0.635,27.272800800000002,17.7044022,-5.844171599999999,124.88765526,0.21772404,23.015722860000004
2.73,273,0.023,-0.836,0.659,27.3873924,17.0741484,-5.72958,125.16267509999999,0.16615782,23.18761026
2.7399999999999998,274,0.044000000000000004,-0.885,0.711,26.9863218,14.266654199999998,-4.583664,125.43769494,0.12032118,23.33084976
2.75,275,0.062,-0.8740000000000001,0.747,24.0069402,11.688343199999998,-3.0939732,125.6783373,0.07448454,23.44544136
2.76,276,0.05,-0.8079999999999999,0.7709999999999999,20.912967000000002,8.307891,-2.0053530000000004,125.89033176,0.04010706,23.52565548
2.77,277,0.021,-0.769,0.7959999999999999,18.6784308,4.3544808,-1.6042823999999998,126.12524454,0.028647900000000007,23.56003296
2.78,278,-0.009000000000000001,-0.7809999999999999,0.805,16.157415599999997,1.0886202,-1.145916,126.29140236,0.03437748,23.57722170000001
2.79,279,-0.027999999999999997,-0.805,0.804,13.0061466,-1.0313244000000001,-1.0313244000000001,126.4231827,0.04583664,23.57722170000001
2.8,280,-0.022000000000000002,-0.8109999999999999,0.789,9.3392154,-2.7501984,-0.40107059999999994,126.51485598,0.06875496,23.56003296
2.81,281,-0.005,-0.787,0.7709999999999999,6.7609043999999985,-4.4690724,0.0,126.58934052,0.09740286,23.52565548
2.82,282,-0.005,-0.7759999999999999,0.745,5.6149884000000005,-7.2192707999999985,0.5156622000000001,126.70393212000002,0.13178034,23.45690052
2.8299999999999996,283,-0.018000000000000002,-0.76,0.7140000000000001,4.297185,-9.6256944,1.0313244000000001,126.74403918,0.18334656,23.376686399999997
2.84,284,-0.031,-0.737,0.6990000000000001,3.8388186,-12.0894138,1.6042823999999998,126.78414624,0.24637194,23.27355396
2.8499999999999996,285,-0.03,-0.746,0.695,5.443101,-12.032118,1.9480572,126.84144204000002,0.30366774,23.16469194
2.86,286,-0.022000000000000002,-0.752,0.679,6.990087599999999,-9.740286,1.6042823999999998,126.91592658,0.34950438,23.08447782
2.8699999999999997,287,-0.021,-0.745,0.649,7.5630456000000015,-7.6203414,1.3750992,127.01332943999998,0.3724227000000001,23.00999328
2.88,288,-0.027000000000000003,-0.757,0.619,8.193299399999999,-6.0160589999999985,1.7188740000000002,127.09927314,0.39534102,22.95269748
2.8899999999999997,289,-0.026000000000000002,-0.7809999999999999,0.593,9.0527364,-4.6982555999999995,2.0626488000000003,127.19094642,0.40680018,22.90686084
2.9,290,-0.008,-0.8170000000000001,0.581,10.5424272,-3.2658606,2.6929026,127.29980844,0.40680018,22.866753780000003
2.9099999999999997,291,0.003,-0.833,0.5720000000000001,10.657018800000001,-3.4377480000000005,3.2658606,127.40867045999998,0.4010706000000001,22.82091714
2.92,292,0.011000000000000001,-0.863,0.57,10.886202,-4.1825934,3.9534102,127.47742542,0.4010706000000001,22.775080499999998
2.9299999999999997,293,0.015,-0.8490000000000001,0.573,8.8235532,-4.8701430000000006,4.583664,127.5690987,0.39534102,22.71205512
2.94,294,0.011000000000000001,-0.867,0.588,7.1046792000000005,-5.6722842,4.7555514,127.64358324,0.39534102,22.63757058
2.9499999999999997,295,0.0,-0.8490000000000001,0.606,4.3544808,-6.0733548,4.1825934,127.68941988000002,0.4010706000000001,22.56881562
2.96,296,-0.008,-0.78,0.614,2.291832,-5.3858052,3.3231564,127.7123382,0.40680018,22.50579024
2.9699999999999998,297,-0.012,-0.7490000000000001,0.607,1.7761698000000001,-3.9534102,2.5210152000000003,127.73525652,0.4010706000000001,22.45422402
2.98,298,-0.012,-0.7909999999999999,0.594,1.7761698000000001,-2.86479,1.8334656000000005,127.75244526000002,0.4010706000000001,22.42557612
2.9899999999999998,299,-0.016,-0.833,0.586,0.7448454000000001,-3.380452200000001,1.3750992,127.76390442,0.41252976,22.39119864
3.0,300,-0.017,-0.846,0.584,-0.1718874,-4.1825934,0.9167328000000001,127.76390442,0.4297185000000001,22.35109158
3.01,301,-0.02,-0.853,0.5920000000000001,-0.286479,-4.583664,0.6875496,127.75817484,0.4526368200000001,22.31098452
3.02,302,-0.025,-0.8390000000000001,0.606,-0.572958,-4.4117766,0.4583664000000001,127.68941988000002,0.43544808,22.28233662
3.03,303,-0.028999999999999998,-0.833,0.615,-0.40107059999999994,-3.7242269999999995,0.286479,127.68941988000002,0.4526368200000001,22.25368872
3.04,304,-0.036000000000000004,-0.835,0.621,-0.3437748,-2.7501984,0.3437748,127.6836903,0.46982556,22.2307704
3.05,305,-0.037000000000000005,-0.831,0.619,-0.9167328000000001,-1.3750992,0.7448454000000001,127.67223114,0.46982556,22.21358166
3.06,306,-0.038,-0.812,0.615,-2.0053530000000004,0.5156622000000001,1.2605076000000002,127.65504240000001,0.4583664000000001,22.20785208
3.07,307,-0.036000000000000004,-0.807,0.608,-2.4064236,1.3178034,1.4896908000000002,127.58628744,0.38388186,22.21358166
3.08,308,-0.035,-0.8,0.599,-2.3491277999999998,1.3178034,1.5469866,127.56336912,0.36096354,22.21358166
3.09,309,-0.031,-0.7979999999999999,0.598,-2.0626488000000003,0.8594370000000001,1.3178034,127.54045079999999,0.34950438,22.21358166
3.0999999999999996,310,-0.027999999999999997,-0.794,0.6,-1.8907614,0.6875496,1.0313244000000001,127.52326206,0.33231564,22.20785208
3.11,311,-0.023,-0.79,0.608,-1.7188740000000002,0.9740286,0.8021411999999999,127.50607332,0.32085648,22.21358166
3.1199999999999997,312,-0.022000000000000002,-0.785,0.613,-1.5469866,0.8594370000000001,0.6302538000000001,127.47742542,0.25210152,22.21358166
3.13,313,-0.022000000000000002,-0.782,0.618,-1.2605076000000002,0.7448454000000001,0.5156622000000001,127.46023668,0.24064236,22.21358166
3.1399999999999997,314,-0.024,-0.785,0.619,-0.9740286,0.572958,0.3437748,127.4545071,0.23491278,22.21358166
3.15,315,-0.025,-0.785,0.616,-0.572958,0.4583664000000001,0.11459160000000004,127.44877752,0.22918320000000006,22.219311240000003
3.1599999999999997,316,-0.024,-0.785,0.616,-0.2291832000000001,0.7448454000000001,-0.11459160000000004,127.44304794,0.22918320000000006,22.22504082
3.17,317,-0.024,-0.789,0.616,0.4583664000000001,1.3178034,-0.3437748,127.4258592,0.16042824,22.23649998
3.1799999999999997,318,-0.024,-0.792,0.617,1.2605076000000002,1.4896908000000002,-0.5156622000000001,127.43731836,0.15469866,22.25368872
3.19,319,-0.025,-0.7909999999999999,0.621,2.2345362,1.3750992,-0.6875496,127.46023668,0.14896908,22.26514788
3.1999999999999997,320,-0.024,-0.7879999999999999,0.625,2.9793816000000004,1.2032118,-0.8021411999999999,127.49461416,0.14896908,22.28233662
3.21,321,-0.023,-0.79,0.632,3.6096353999999997,1.0886202,-0.9167328000000001,127.52899164,0.14896908,22.29379578
3.2199999999999998,322,-0.022000000000000002,-0.7909999999999999,0.638,3.8388186,1.3178034,-1.2032118,127.58055786,0.13178034,22.31098452
3.23,323,-0.021,-0.787,0.639,3.9534102,1.6042823999999998,-1.2605076000000002,127.62066492,0.13178034,22.32817326
3.2399999999999998,324,-0.021,-0.7909999999999999,0.639,4.0680017999999984,1.9480572,-1.145916,127.66077198,0.12605075999999998,22.35109158
3.25,325,-0.021,-0.7959999999999999,0.638,4.010706000000001,2.0626488000000003,-0.9740286,127.70087904,0.12032118,22.3740099
3.26,326,-0.018000000000000002,-0.7909999999999999,0.637,3.7815228,2.1772404,-0.8594370000000001,127.7409861,0.11459160000000003,22.39692822
3.27,327,-0.012,-0.789,0.635,3.7242269999999995,2.5210152000000003,-0.6302538000000001,127.78109316,0.09740286,22.41984654
3.28,328,-0.008,-0.787,0.634,3.7242269999999995,2.7501984,-0.5156622000000001,127.82120022,0.0859437,22.44276486
3.29,329,-0.006999999999999999,-0.785,0.633,3.8961144,2.4637194,-0.40107059999999994,127.8555777,0.07448454,22.46568318
3.3,330,-0.005,-0.79,0.637,4.1252976000000015,1.7761698000000001,-0.286479,127.90141434,0.06302537999999999,22.48287192
3.31,331,-0.004,-0.7909999999999999,0.644,3.7815228,1.3750992,-0.3437748,127.94152139999998,0.057295800000000015,22.50006066
3.32,332,-0.004,-0.7879999999999999,0.65,3.380452200000001,1.2605076000000002,-0.40107059999999994,127.99308761999998,0.057295800000000015,22.50579024
3.33,333,-0.005,-0.7809999999999999,0.649,2.86479,1.2605076000000002,-0.572958,128.02173552000002,0.05156622,22.517249399999997
3.34,334,-0.005,-0.7879999999999999,0.648,2.9220858,0.9740286,-0.6875496,128.05611299999998,0.05156622,22.53443814
3.3499999999999996,335,-0.004,-0.7929999999999999,0.645,2.6356068,0.572958,-0.6875496,128.07903131999998,0.05156622,22.54016772
3.36,336,-0.004,-0.775,0.643,2.291832,0.5156622000000001,-0.6302538000000001,128.10194964,0.057295800000000015,22.55162688
3.3699999999999997,337,-0.003,-0.7440000000000001,0.6409999999999999,2.3491277999999998,1.145916,-0.286479,128.18216376,0.05156622,22.5458973
3.38,338,-0.008,-0.767,0.638,3.2085647999999996,2.1199446,-0.1718874,128.21081166,0.04010706,22.56308604
3.3899999999999997,339,-0.021,-0.847,0.635,3.0939732,3.2085647999999996,-1.3750992,128.24518914,0.028647900000000007,22.59746352
3.4,340,-0.033,-0.83,0.634,1.0886202,3.8961144,-2.9793816000000004,128.2566483,0.028647900000000007,22.64902974
3.4099999999999997,341,-0.043,-0.7709999999999999,0.634,1.0886202,4.2398892,-3.4950437999999995,128.26810746,0.028647900000000007,22.70059596
3.42,342,-0.045,-0.752,0.638,2.6356068,4.4117766,-3.380452200000001,128.30248494,0.00572958,22.75216218
3.4299999999999997,343,-0.031,-0.769,0.647,4.0680017999999984,4.9274388,-3.4950437999999995,128.34832158,0.0,22.80945798
3.44,344,-0.013000000000000001,-0.77,0.6509999999999999,4.1825934,5.5003968,-3.4377480000000005,128.38842864,0.0,22.87248336
3.4499999999999997,345,0.002,-0.767,0.6459999999999999,4.010706000000001,5.3858052,-2.9793816000000004,128.4285357,-0.01145916,22.93550874
3.46,346,0.001,-0.777,0.648,3.7242269999999995,4.583664,-2.4064236,128.46291318,-0.02291832,22.98707496
3.4699999999999998,347,-0.013999999999999999,-0.782,0.653,2.9793816000000004,3.6669312000000014,-1.9480572,128.53166814,-0.05156622,23.015722860000004
3.48,348,-0.034,-0.8140000000000001,0.662,3.3231564,2.9793816000000004,-1.9480572,128.56604562,-0.057295800000000015,23.05010034
3.4899999999999998,349,-0.047,-0.784,0.6679999999999999,0.8594370000000001,2.8074942000000003,-1.7188740000000002,128.57177520000002,-0.057295800000000015,23.08447782
3.5,350,-0.046,-0.785,0.6829999999999999,1.7188740000000002,3.4950437999999995,-1.5469866,128.58896394,-0.06875496,23.1188553
3.51,351,-0.035,-0.758,0.685,1.6042823999999998,4.0680017999999984,-1.0886202,128.60615268,-0.0859437,23.15896236
3.52,352,-0.022000000000000002,-0.78,0.688,1.4896908000000002,3.6096353999999997,-0.572958,128.68063722,-0.12032118,23.17042152
3.53,353,-0.015,-0.792,0.69,1.0313244000000001,3.0366774,-0.1718874,128.69209638,-0.13750992,23.19906942
3.54,354,-0.011000000000000001,-0.779,0.684,0.1718874,2.7501984,0.057295800000000015,128.69209638,-0.16042824,23.21625816
3.55,355,-0.011000000000000001,-0.78,0.679,-0.286479,2.4064236,0.1718874,128.6863668,-0.17761697999999998,23.2334469
3.56,356,-0.015,-0.78,0.672,-0.40107059999999994,2.2345362,0.2291832000000001,128.6863668,-0.18907614,23.25063564
3.57,357,-0.016,-0.774,0.6679999999999999,-0.9740286,2.2345362,0.2291832000000001,128.70928511999998,-0.22345362,23.25636522
3.58,358,-0.017,-0.7759999999999999,0.662,-1.0313244000000001,2.2345362,0.057295800000000015,128.69782596,-0.23491278,23.27355396
3.59,359,-0.016,-0.774,0.652,-1.0886202,1.7761698000000001,-0.11459160000000004,128.6863668,-0.24637194,23.28501312
3.5999999999999996,360,-0.02,-0.77,0.644,-0.9740286,1.432395,-0.4583664000000001,128.67490764,-0.25210152,23.30220186
3.61,361,-0.022000000000000002,-0.785,0.638,-0.4583664000000001,1.3750992,-0.9167328000000001,128.66917806,-0.25783110000000004,23.3193906
3.6199999999999997,362,-0.028999999999999998,-0.7879999999999999,0.634,-0.572958,1.5469866,-1.3750992,128.64053016,-0.29220857999999994,23.34230892
3.63,363,-0.032,-0.7809999999999999,0.631,-0.5156622000000001,1.8907614,-1.7761698000000001,128.629071,-0.29220857999999994,23.36522724000001
3.6399999999999997,364,-0.032,-0.7759999999999999,0.628,-0.11459160000000004,2.3491277999999998,-1.8907614,128.629071,-0.29220857999999994,23.39387514
3.65,365,-0.028999999999999998,-0.785,0.625,0.3437748,2.4064236,-1.8907614,128.63480058,-0.29220857999999994,23.42825262
3.6599999999999997,366,-0.023,-0.784,0.624,0.40107059999999994,2.291832,-1.8334656000000005,128.63480058,-0.29220857999999994,23.45690052
3.67,367,-0.019,-0.779,0.626,0.8021411999999999,2.0053530000000004,-1.7761698000000001,128.629071,-0.30939732,23.48554842
3.6799999999999997,368,-0.02,-0.7809999999999999,0.629,1.3750992,1.7761698000000001,-1.6615782,128.64053016,-0.30366774,23.50846674
3.69,369,-0.022000000000000002,-0.784,0.633,1.6615782,1.7188740000000002,-1.6042823999999998,128.6577189,-0.30366774,23.53138506
3.6999999999999997,370,-0.025,-0.7859999999999999,0.635,1.7188740000000002,1.3750992,-1.6042823999999998,128.67490764,-0.30366774,23.55430338
3.71,371,-0.024,-0.787,0.639,1.432395,1.3750992,-1.6042823999999998,128.6863668,-0.29793816,23.57722170000001
3.7199999999999998,372,-0.026000000000000002,-0.784,0.6459999999999999,1.3178034,1.4896908000000002,-1.6615782,128.70355554,-0.31512690000000004,23.59441044
3.73,373,-0.024,-0.787,0.6459999999999999,1.6042823999999998,1.4896908000000002,-1.6615782,128.7150147,-0.31512690000000004,23.61732876
3.7399999999999998,374,-0.021,-0.79,0.647,1.3178034,1.432395,-1.7761698000000001,128.73220343999998,-0.30939732,23.64024708
3.75,375,-0.021,-0.7879999999999999,0.6509999999999999,0.9740286,1.3178034,-1.6615782,128.73793302,-0.30366774,23.663165399999997
3.76,376,-0.02,-0.787,0.653,0.9740286,1.0886202,-1.6042823999999998,128.74939218,-0.29793816,23.68035414
3.77,377,-0.018000000000000002,-0.785,0.655,0.8021411999999999,0.8594370000000001,-1.3178034,128.76658092,-0.30939732,23.6918133
3.78,378,-0.017,-0.785,0.655,0.7448454000000001,0.6302538000000001,-1.2605076000000002,128.7723105,-0.30366774,23.70327246
3.79,379,-0.016,-0.7809999999999999,0.655,0.40107059999999994,0.6302538000000001,-0.9740286,128.77804008,-0.29793816,23.71473162
3.8,380,-0.016,-0.778,0.655,0.286479,0.572958,-0.9167328000000001,128.78376966000002,-0.29793816,23.72619078
3.81,381,-0.017,-0.778,0.6559999999999999,0.286479,0.4583664000000001,-0.8594370000000001,128.78376966000002,-0.29220857999999994,23.73764994
3.82,382,-0.017,-0.777,0.655,0.286479,0.3437748,-0.8021411999999999,128.82387672,-0.32085648,23.73192036
3.83,383,-0.021,-0.777,0.654,0.286479,0.11459160000000004,-0.7448454000000001,128.8296063,-0.31512690000000004,23.73764994
3.84,384,-0.018000000000000002,-0.778,0.654,0.2291832000000001,-0.1718874,-0.6302538000000001,128.8296063,-0.30939732,23.73764994
3.8499999999999996,385,-0.018000000000000002,-0.7759999999999999,0.655,0.1718874,-0.2291832000000001,-0.572958,128.83533588,-0.29793816,23.74337952
3.86,386,-0.015,-0.777,0.655,0.2291832000000001,-0.286479,-0.4583664000000001,128.83533588,-0.29220857999999994,23.74337952
3.8699999999999997,387,-0.015,-0.777,0.653,0.3437748,-0.40107059999999994,-0.40107059999999994,128.86971336000002,-0.30939732,23.73192036
3.88,388,-0.015,-0.778,0.652,0.4583664000000001,-0.3437748,-0.286479,128.87544294,-0.30366774,23.73192036
3.8899999999999997,389,-0.016,-0.779,0.653,0.5156622000000001,-0.3437748,-0.3437748,128.88117252,-0.29793816,23.73192036
3.9,390,-0.015,-0.779,0.652,0.5156622000000001,-0.2291832000000001,-0.286479,128.8869021,-0.29220857999999994,23.73192036
3.9099999999999997,391,-0.013999999999999999,-0.779,0.65,0.4583664000000001,-0.1718874,-0.1718874,128.89263168,-0.29220857999999994,23.73192036
3.92,392,-0.013999999999999999,-0.779,0.65,0.572958,-0.286479,-0.11459160000000004,128.89836126,-0.29793816,23.72619078
3.9299999999999997,393,-0.01,-0.7809999999999999,0.647,0.6875496,-0.3437748,-0.1718874,128.90409084,-0.29220857999999994,23.72619078
3.94,394,-0.008,-0.7829999999999999,0.647,0.6875496,-0.6302538000000001,-0.1718874,128.91555,-0.28647900000000004,23.72619078
3.9499999999999997,395,-0.01,-0.784,0.648,0.5156622000000001,-0.8021411999999999,-0.2291832000000001,128.92127958,-0.28074942,23.720461199999995
3.96,396,-0.01,-0.784,0.648,0.5156622000000001,-1.0886202,-0.3437748,128.92700915999998,-0.26929026,23.71473162
3.9699999999999998,397,-0.012,-0.782,0.647,0.572958,-1.3178034,-0.3437748,128.92127958,-0.26929026,23.70900204
3.98,398,-0.018000000000000002,-0.782,0.6459999999999999,0.572958,-1.3750992,-0.4583664000000001,128.92700915999998,-0.25783110000000004,23.70327246
3.9899999999999998,399,-0.024,-0.784,0.649,0.5156622000000001,-1.2605076000000002,-0.4583664000000001,128.93273874,-0.24637194,23.6918133
4.0,400,-0.027999999999999997,-0.784,0.65,0.3437748,-0.572958,-0.40107059999999994,128.93273874,-0.24064236,23.6918133
4.01,401,-0.028999999999999998,-0.78,0.647,0.286479,-0.11459160000000004,-0.286479,128.93846832000003,-0.23491278,23.6918133
4.02,402,-0.027000000000000003,-0.778,0.643,0.5156622000000001,0.0,-0.286479,128.91555,-0.33231564,23.6918133
4.03,403,-0.027000000000000003,-0.7809999999999999,0.644,0.5156622000000001,0.0,-0.286479,128.92127958,-0.33231564,23.69754288
4.04,404,-0.025,-0.782,0.649,0.6302538000000001,-0.057295800000000015,-0.1718874,128.92700915999998,-0.32658606,23.69754288
4.05,405,-0.024,-0.782,0.652,0.6875496,-0.057295800000000015,-0.11459160000000004,128.93846832000003,-0.32658606,23.69754288
4.06,406,-0.021,-0.7829999999999999,0.655,0.6875496,0.286479,0.057295800000000015,128.9441979,-0.33231564,23.69754288
4.07,407,-0.017,-0.7809999999999999,0.6559999999999999,0.5156622000000001,0.4583664000000001,0.3437748,128.96138664,-0.36096354,23.69754288
4.08,408,-0.015,-0.779,0.655,0.3437748,0.1718874,0.286479,128.96711622,-0.36669312,23.6918133
4.09,409,-0.013000000000000001,-0.779,0.657,0.40107059999999994,0.0,0.2291832000000001,128.96711622,-0.36669312,23.6918133
4.1,410,-0.013999999999999999,-0.778,0.659,0.3437748,0.0,0.1718874,128.97284580000002,-0.36669312,23.6918133
4.109999999999999,411,-0.012,-0.778,0.6609999999999999,0.057295800000000015,0.286479,0.286479,128.97284580000002,-0.3724227000000001,23.6918133
4.12,412,-0.011000000000000001,-0.777,0.657,-0.057295800000000015,0.572958,0.40107059999999994,129.0014937,-0.3724227000000001,23.68608372000001
4.13,413,-0.009000000000000001,-0.777,0.654,0.0,0.6875496,0.5156622000000001,129.0014937,-0.38388186,23.68608372000001
4.14,414,-0.009000000000000001,-0.778,0.652,0.0,0.6302538000000001,0.572958,129.0014937,-0.38961144,23.6918133
4.1499999999999995,415,-0.01,-0.777,0.652,0.11459160000000004,0.572958,0.5156622000000001,129.0014937,-0.4010706000000001,23.6918133
4.16,416,-0.013000000000000001,-0.778,0.6559999999999999,0.057295800000000015,0.6875496,0.40107059999999994,129.0014937,-0.40680018,23.6918133
4.17,417,-0.015,-0.778,0.6559999999999999,0.0,1.0886202,0.3437748,129.00722328,-0.41825934,23.69754288
4.18,418,-0.013999999999999999,-0.779,0.6559999999999999,-0.2291832000000001,1.6042823999999998,0.286479,129.00722328,-0.43544808,23.70900204
4.1899999999999995,419,-0.013000000000000001,-0.779,0.653,-0.3437748,1.7188740000000002,0.1718874,129.0014937,-0.44690724,23.720461199999995
4.2,420,-0.013999999999999999,-0.779,0.65,-0.2291832000000001,1.3750992,0.1718874,129.0014937,-0.4583664000000001,23.72619078
4.21,421,-0.016,-0.7809999999999999,0.647,-0.2291832000000001,0.8594370000000001,0.057295800000000015,128.99576412,-0.46409598,23.73192036
4.22,422,-0.018000000000000002,-0.782,0.647,-0.2291832000000001,0.4583664000000001,0.0,128.95565706,-0.5042030399999999,23.74337952
4.2299999999999995,423,-0.018000000000000002,-0.784,0.649,-0.3437748,0.572958,-0.057295800000000015,128.94992748,-0.5099326200000001,23.749109100000002
4.24,424,-0.02,-0.7829999999999999,0.648,-0.40107059999999994,0.572958,-0.057295800000000015,128.94992748,-0.5099326200000001,23.75483868
4.25,425,-0.019,-0.782,0.6459999999999999,-0.40107059999999994,0.40107059999999994,0.0,128.9441979,-0.5156622000000001,23.75483868
4.26,426,-0.02,-0.7829999999999999,0.644,-0.3437748,0.11459160000000004,0.0,128.93846832000003,-0.5156622000000001,23.760568260000003
4.27,427,-0.021,-0.78,0.645,-0.286479,0.0,-0.11459160000000004,128.92127958,-0.5844171599999999,23.760568260000003
4.28,428,-0.024,-0.779,0.6459999999999999,-0.286479,0.0,-0.286479,128.91555,-0.5786875800000001,23.760568260000003
4.29,429,-0.026000000000000002,-0.7809999999999999,0.647,-0.1718874,0.11459160000000004,-0.1718874,128.91555,-0.5786875800000001,23.76629784
4.3,430,-0.028999999999999998,-0.782,0.647,-0.1718874,0.3437748,-0.11459160000000004,128.90982042,-0.5786875800000001,23.76629784
4.31,431,-0.027000000000000003,-0.7809999999999999,0.647,-0.1718874,0.6302538000000001,-0.11459160000000004,128.90982042,-0.5844171599999999,23.77202742
4.32,432,-0.025,-0.779,0.648,-0.2291832000000001,0.6875496,-0.1718874,128.90982042,-0.62452422,23.777757
4.33,433,-0.023,-0.779,0.649,-0.3437748,0.4583664000000001,-0.286479,128.90409084,-0.62452422,23.78348658
4.34,434,-0.024,-0.78,0.648,-0.286479,0.057295800000000015,-0.4583664000000001,128.89836126,-0.62452422,23.78348658
4.35,435,-0.023,-0.78,0.65,-0.286479,0.057295800000000015,-0.5156622000000001,128.89836126,-0.61879464,23.78921616
4.36,436,-0.022000000000000002,-0.78,0.65,-0.11459160000000004,0.11459160000000004,-0.40107059999999994,128.89263168,-0.61879464,23.79494574
4.37,437,-0.021,-0.78,0.6509999999999999,-0.11459160000000004,0.2291832000000001,-0.4583664000000001,128.90982042,-0.64744254,23.78921616
4.38,438,-0.02,-0.78,0.65,-0.057295800000000015,0.3437748,-0.5156622000000001,128.90982042,-0.64744254,23.79494574
4.39,439,-0.02,-0.777,0.65,0.0,0.11459160000000004,-0.5156622000000001,128.90982042,-0.64171296,23.80067532
4.3999999999999995,440,-0.02,-0.779,0.6509999999999999,0.0,0.0,-0.5156622000000001,128.90982042,-0.64171296,23.8064049
4.41,441,-0.018000000000000002,-0.78,0.653,0.11459160000000004,0.0,-0.5156622000000001,128.90982042,-0.63598338,23.8064049
4.42,442,-0.017,-0.7809999999999999,0.653,0.057295800000000015,0.057295800000000015,-0.4583664000000001,128.92700915999998,-0.6302538000000001,23.8064049
4.43,443,-0.016,-0.779,0.654,0.0,0.1718874,-0.40107059999999994,128.92700915999998,-0.6302538000000001,23.81213448
4.4399999999999995,444,-0.016,-0.7809999999999999,0.653,0.0,0.1718874,-0.286479,128.92700915999998,-0.6302538000000001,23.81213448
4.45,445,-0.016,-0.7809999999999999,0.653,-0.057295800000000015,0.2291832000000001,-0.286479,128.92127958,-0.62452422,23.81786406
4.46,446,-0.015,-0.78,0.65,-0.2291832000000001,0.1718874,-0.286479,128.92127958,-0.62452422,23.82359364
4.47,447,-0.016,-0.78,0.65,-0.2291832000000001,0.057295800000000015,-0.2291832000000001,128.91555,-0.61306506,23.82359364
4.4799999999999995,448,-0.015,-0.7809999999999999,0.647,-0.1718874,0.0,-0.286479,128.90982042,-0.6073354799999999,23.82932322
4.49,449,-0.016,-0.782,0.648,-0.1718874,-0.1718874,-0.2291832000000001,128.90982042,-0.6073354799999999,23.82932322
4.5,450,-0.017,-0.7809999999999999,0.648,-0.11459160000000004,-0.2291832000000001,-0.1718874,128.90982042,-0.6016058999999999,23.82932322
4.51,451,-0.016,-0.7809999999999999,0.649,-0.1718874,-0.2291832000000001,-0.11459160000000004,128.90409084,-0.6016058999999999,23.82932322
4.52,452,-0.015,-0.7809999999999999,0.649,-0.1718874,-0.057295800000000015,-0.1718874,128.89836126,-0.59014674,23.82932322
4.53,453,-0.013999999999999999,-0.782,0.647,-0.40107059999999994,0.0,-0.11459160000000004,128.89263168,-0.5844171599999999,23.82932322
4.54,454,-0.013000000000000001,-0.7809999999999999,0.645,-0.4583664000000001,0.0,-0.11459160000000004,128.8869021,-0.5844171599999999,23.82932322
4.55,455,-0.012,-0.782,0.648,-0.40107059999999994,0.0,-0.1718874,128.8869021,-0.5844171599999999,23.82932322
4.56,456,-0.012,-0.782,0.6459999999999999,-0.40107059999999994,-0.057295800000000015,-0.1718874,128.88117252,-0.5786875800000001,23.82932322
4.57,457,-0.013000000000000001,-0.7809999999999999,0.647,-0.1718874,-0.286479,-0.2291832000000001,128.85825419999998,-0.56722842,23.835052800000003
4.58,458,-0.016,-0.7809999999999999,0.648,0.0,-0.5156622000000001,-0.286479,128.85825419999998,-0.56149884,23.835052800000003
4.59,459,-0.019,-0.78,0.649,0.11459160000000004,-0.572958,-0.286479,128.86398377999998,-0.55576926,23.82932322
4.6,460,-0.021,-0.78,0.649,0.2291832000000001,-0.572958,-0.1718874,128.86398377999998,-0.55003968,23.82932322
4.61,461,-0.024,-0.779,0.6509999999999999,0.3437748,-0.4583664000000001,-0.057295800000000015,128.86971336000002,-0.5443101,23.82359364
4.62,462,-0.024,-0.7809999999999999,0.6509999999999999,0.2291832000000001,-0.1718874,-0.057295800000000015,128.88117252,-0.59587632,23.81786406
4.63,463,-0.021,-0.7809999999999999,0.653,0.11459160000000004,0.11459160000000004,-0.057295800000000015,128.88117252,-0.59587632,23.81786406
4.64,464,-0.021,-0.7809999999999999,0.6509999999999999,0.11459160000000004,0.2291832000000001,0.0,128.88117252,-0.6016058999999999,23.82359364
4.6499999999999995,465,-0.016,-0.782,0.6509999999999999,0.11459160000000004,0.3437748,0.057295800000000015,128.88117252,-0.6016058999999999,23.82359364
4.66,466,-0.017,-0.7809999999999999,0.652,-0.057295800000000015,0.4583664000000001,0.057295800000000015,128.88117252,-0.6073354799999999,23.82932322
4.67,467,-0.02,-0.78,0.654,-0.11459160000000004,0.6302538000000001,0.0,128.90409084,-0.62452422,23.82359364
4.68,468,-0.016,-0.779,0.652,-0.057295800000000015,0.8594370000000001,0.0,128.90409084,-0.6302538000000001,23.82932322
4.6899999999999995,469,-0.018000000000000002,-0.78,0.65,-0.11459160000000004,1.0313244000000001,0.0,128.89836126,-0.63598338,23.84078238
4.7,470,-0.018000000000000002,-0.7809999999999999,0.649,-0.2291832000000001,1.0886202,0.057295800000000015,128.89836126,-0.64171296,23.84651196
4.71,471,-0.019,-0.782,0.6509999999999999,-0.286479,1.0886202,0.0,128.89263168,-0.65317212,23.85797112
4.72,472,-0.017,-0.779,0.655,-0.5156622000000001,1.2605076000000002,0.0,128.89836126,-0.65317212,23.86370070000001
4.7299999999999995,473,-0.013000000000000001,-0.78,0.652,-0.40107059999999994,1.7188740000000002,0.11459160000000004,128.89263168,-0.66463128,23.87515986
4.74,474,-0.013999999999999999,-0.782,0.647,-0.5156622000000001,2.0626488000000003,0.11459160000000004,128.8869021,-0.68182002,23.88661902
4.75,475,-0.012,-0.782,0.648,-0.6875496,2.1199446,0.057295800000000015,128.88117252,-0.69327918,23.90380776
4.76,476,-0.011000000000000001,-0.782,0.652,-0.6875496,1.8907614,0.057295800000000015,128.87544294,-0.7104679199999999,23.9209965
4.77,477,-0.006,-0.784,0.66,-0.8594370000000001,2.7501984,-0.057295800000000015,128.86971336000002,-0.7161975,23.93818524
4.78,478,-0.003,-0.789,0.6629999999999999,-2.0626488000000003,4.0680017999999984,-0.1718874,128.84679504000002,-0.7391158200000001,23.97256272000001
4.79,479,-0.005,-0.789,0.664,-3.8388186,5.3858052,0.0,128.80668798000002,-0.7734933,24.01266978
4.8,480,-0.013000000000000001,-0.79,0.654,-5.958763200000001,6.130650599999999,0.4583664000000001,128.7436626,-0.8193299399999999,24.05277684
4.81,481,-0.027000000000000003,-0.794,0.647,-8.4224826,5.72958,0.9167328000000001,128.6577189,-0.8594370000000001,24.08715432
4.82,482,-0.026000000000000002,-0.8,0.632,-11.0580894,4.583664,1.2605076000000002,128.53739772,-0.89954406,24.11580222
4.83,483,-0.013999999999999999,-0.799,0.624,-11.9748222,4.3544808,1.145916,128.41134696,-0.93965112,24.13872054
4.84,484,-0.011000000000000001,-0.7979999999999999,0.611,-12.0894138,3.7242269999999995,0.8021411999999999,128.29102577999998,-0.96829902,24.16163886
4.85,485,-0.016,-0.7979999999999999,0.611,-11.802934800000001,3.0939732,0.7448454000000001,128.1707046,-0.9912173399999998,24.1788276
4.86,486,-0.022000000000000002,-0.7979999999999999,0.617,-12.032118,3.0939732,0.9740286,128.04465384,-1.01986524,24.19601634
4.87,487,-0.033,-0.7979999999999999,0.615,-12.3758928,3.0939732,1.0313244000000001,127.9128735,-1.05424272,24.21320508
4.88,488,-0.036000000000000004,-0.8029999999999999,0.623,-12.891555,3.4377480000000005,1.0886202,127.78109316,-1.08289062,24.23039382
4.89,489,-0.022000000000000002,-0.8029999999999999,0.624,-13.3499214,4.583664,0.9740286,127.64358324,-1.1172681,24.25904172
4.8999999999999995,490,-0.017,-0.8059999999999999,0.627,-13.8655836,5.2139178,1.2032118,127.50607332,-1.16310474,24.28768962
4.91,491,-0.025,-0.812,0.621,-14.7250206,4.1825934,1.5469866,127.35137466,-1.2032117999999998,24.310607940000004
4.92,492,-0.027000000000000003,-0.8079999999999999,0.623,-15.469866,3.4377480000000005,1.6042823999999998,127.19094642,-1.2318597,24.3220671
4.93,493,-0.019,-0.8009999999999999,0.619,-15.469866,3.1512689999999997,1.6615782,127.03624776,-1.26623718,24.33352626
4.9399999999999995,494,-0.015,-0.8029999999999999,0.625,-14.667724800000002,2.86479,2.0626488000000003,126.88727868,-1.30061466,24.34498542
4.95,495,-0.018000000000000002,-0.8029999999999999,0.624,-13.6936962,1.0313244000000001,2.4064236,126.74403918,-1.32926256,24.33352626
4.96,496,-0.013999999999999999,-0.8079999999999999,0.634,-13.5791046,-0.6875496,2.4064236,126.60652926,-1.34072172,24.310607940000004
4.97,497,-0.018000000000000002,-0.813,0.63,-14.32395,-1.7761698000000001,2.291832,126.46328976,-1.3464512999999998,24.28196004
4.9799999999999995,498,-0.026000000000000002,-0.821,0.653,-15.297978599999999,-1.432395,2.1772404,126.30859110000002,-1.3579104599999998,24.25904172
4.99,499,-0.012,-0.828,0.6459999999999999,-18.6784308,1.0886202,1.5469866,126.11951496,-1.3750992,24.25331214
5.0,500,-0.001,-0.8240000000000001,0.637,-22.1161788,1.4896908000000002,2.2345362,125.89606134,-1.4037471000000001,24.24758256
5.01,501,-0.023,-0.8140000000000001,0.618,-24.4080108,-1.9480572,3.6096353999999997,125.6496894,-1.4209358399999998,24.2074755
5.02,502,-0.024,-0.8240000000000001,0.602,-26.1841806,-5.844171599999999,4.0680017999999984,125.38612872000002,-1.41520626,24.13299096
5.03,503,-0.006,-0.852,0.599,-28.81978740000001,-8.651665800000002,4.0680017999999984,125.09392014,-1.39801752,24.04131768
5.04,504,-0.009000000000000001,-0.8759999999999999,0.599,-31.79916900000001,-10.313244000000001,4.3544808,124.77879323999998,-1.3750992,23.92672608
5.05,505,-0.026000000000000002,-0.8859999999999999,0.609,-33.6326346,-12.9488508,4.5263682,124.44074802,-1.3349921400000002,23.79494574
5.06,506,-0.026000000000000002,-0.894,0.584,-34.8931422,-11.8602306,4.3544808,124.09124364000002,-1.30061466,23.66889498
5.07,507,-0.032,-0.899,0.5589999999999999,-34.4347758,-10.599723,5.6722842,123.74173926,-1.2891555,23.548573800000003
5.08,508,-0.048,-0.899,0.5760000000000001,-32.4867186,-10.5424272,7.161975,123.4151532,-1.2891555,23.41679346
5.09,509,-0.040999999999999995,-0.893,0.598,-28.81978740000001,-8.136003599999999,7.9641161999999985,123.1286742,-1.30634424,23.30220186
5.1,510,-0.052000000000000005,-0.899,0.629,-25.84040580000001,-5.6149884000000005,8.078707799999998,122.86511352,-1.3464512999999998,23.21052858
5.11,511,-0.06,-0.888,0.644,-26.5852512,-1.8907614,6.6463128000000005,122.59582326,-1.38655836,23.153232780000003
5.12,512,-0.055,-0.877,0.638,-28.533308399999996,1.7188740000000002,4.6982555999999995,122.31507384,-1.43812458,23.14177362
5.13,513,-0.035,-0.8809999999999999,0.615,-29.736520199999998,2.4064236,3.1512689999999997,122.0114061,-1.4782316400000002,23.13604404
5.14,514,-0.026000000000000002,-0.888,0.612,-29.9657034,-1.0313244000000001,2.0626488000000003,121.70773836,-1.4896908000000002,23.11312572
5.1499999999999995,515,-0.032,-0.889,0.61,-30.3094782,-2.86479,1.4896908000000002,121.39834104,-1.4896908000000002,23.07874824
5.16,516,-0.018000000000000002,-0.887,0.607,-30.882436199999997,-1.8334656000000005,1.432395,121.08894372,-1.4896908000000002,23.05010034
5.17,517,-0.013999999999999999,-0.857,0.604,-33.3461556,-1.0313244000000001,2.1199446,120.75662808,-1.50114996,23.02145244
5.18,518,-0.034,-0.802,0.58,-33.6899304,-2.1199446,1.3750992,120.41858286,-1.50687954,22.99280454
5.1899999999999995,519,-0.046,-0.773,0.602,-31.5699858,-2.86479,0.11459160000000004,120.09772638,-1.4896908000000002,22.96415664
5.2,520,-0.031,-0.782,0.591,-32.2002396,-1.5469866,-1.0313244000000001,119.77114032,-1.47250206,22.95269748
5.21,521,-0.031,-0.787,0.565,-32.6013102,-1.5469866,-0.6875496,119.43882468,-1.4610428999999998,22.93550874
5.22,522,-0.035,-0.809,0.556,-32.658606,-0.7448454000000001,-0.6302538000000001,119.1179682,-1.44958374,22.92977916
5.2299999999999995,523,-0.01,-0.8370000000000001,0.512,-33.4607472,-0.057295800000000015,-1.0886202,118.77992298,-1.44385416,22.92977916
5.24,524,-0.018000000000000002,-0.857,0.511,-32.830493399999995,-2.9793816000000004,-1.0313244000000001,118.44760734,-1.41520626,22.90113126
5.25,525,-0.045,-0.87,0.517,-31.913760600000003,-4.6409598,-1.3178034,118.12102128,-1.38082878,22.866753780000003
5.26,526,-0.051,-0.862,0.526,-30.882436199999997,-6.2452422,-1.3750992,117.81162396,-1.34072172,22.81518756
5.27,527,-0.044000000000000004,-0.8540000000000001,0.547,-30.7678446,-5.5576926,-1.3178034,117.50795622,-1.30061466,22.76362134
5.28,528,-0.011000000000000001,-0.865,0.545,-31.1689152,1.0313244000000001,-1.2605076000000002,117.19282932000002,-1.29488508,22.775080499999998
5.29,529,-0.006,-0.8909999999999999,0.52,-31.79916900000001,4.297185,-0.8021411999999999,116.87197283999998,-1.31207382,22.80945798
5.3,530,-0.023,-0.9109999999999999,0.4920000000000001,-32.4294228,3.3231564,0.1718874,116.5396572,-1.32926256,22.83810588
5.31,531,-0.033,-0.9209999999999999,0.465,-31.455394199999997,-1.2032118,1.4896908000000002,116.21880072,-1.3349921400000002,22.81518756
5.32,532,-0.033,-0.935,0.484,-29.9657034,-3.4950437999999995,2.2345362,115.92086256,-1.34072172,22.76935092
5.33,533,-0.033,-0.953,0.489,-30.8251404,-0.6875496,1.3750992,115.60573566,-1.35218088,22.75216218
5.34,534,-0.03,-0.966,0.488,-32.372127,2.4064236,0.11459160000000004,115.2791496,-1.36364004,22.76935092
5.35,535,-0.037000000000000005,-0.96,0.47,-35.0077338,3.7815228,-0.4583664000000001,114.91818606,-1.38082878,22.79799882
5.36,536,-0.037000000000000005,-0.945,0.455,-35.9817624,3.4950437999999995,-0.40107059999999994,114.55149293999996,-1.39228794,22.82664672
5.37,537,-0.02,-0.937,0.452,-35.6379876,3.380452200000001,-0.057295800000000015,114.1905294,-1.4037471000000001,22.85529462
5.38,538,-0.011000000000000001,-0.943,0.44,-35.7525792,4.6409598,-0.286479,113.82956586,-1.4209358399999998,22.8896721
5.39,539,-0.027000000000000003,-0.9540000000000001,0.423,-37.24227,3.0366774,-0.40107059999999994,113.44568400000001,-1.432395,22.91259042
5.3999999999999995,540,-0.037000000000000005,-0.955,0.418,-38.10170700000001,0.3437748,0.11459160000000004,113.06180214,-1.43812458,22.91259042
5.41,541,-0.031,-0.9470000000000001,0.42200000000000004,-38.159002799999996,0.11459160000000004,0.286479,112.67219070000002,-1.43812458,22.90686084
5.42,542,-0.025,-0.946,0.426,-38.961144,2.3491277999999998,-0.1718874,112.27684968,-1.44958374,22.92404958
5.43,543,-0.025,-0.955,0.41,-40.7946096,5.3285094000000015,-0.7448454000000001,111.86431992,-1.46677248,22.96988622
5.4399999999999995,544,-0.027999999999999997,-0.9590000000000001,0.389,-41.76863820000001,7.7922288,-1.3178034,111.43460142,-1.48396122,23.03864118
5.45,545,-0.047,-0.963,0.379,-42.685371,7.161975,-1.7188740000000002,110.99915334,-1.49542038,23.10739614
5.46,546,-0.045,-0.961,0.363,-43.258328999999996,5.0993262,-1.2032118,110.55797568,-1.50687954,23.153232780000003
5.47,547,-0.025,-0.9520000000000001,0.355,-42.5134836,4.1825934,-0.5156622000000001,110.12252759999998,-1.5183387000000002,23.18761026
5.4799999999999995,548,-0.027000000000000003,-0.9440000000000001,0.376,-41.76863820000001,3.2658606,-0.057295800000000015,109.69853868,-1.52979786,23.21052858
5.49,549,-0.033,-0.9490000000000001,0.39399999999999996,-42.112413000000004,5.2712136,-0.8021411999999999,109.26882018,-1.5412570200000002,23.25636522
5.5,550,-0.028999999999999998,-0.96,0.377,-43.258328999999996,8.8235532,-1.7188740000000002,108.82764252,-1.55844576,23.336579340000004
5.51,551,-0.04,-0.971,0.361,-44.9199072,8.7089616,-1.6615782,108.36927612000002,-1.5756344999999998,23.42252304
5.52,552,-0.033,-0.978,0.35200000000000004,-45.6647526,8.3651868,-1.432395,107.89945056000002,-1.5870936600000003,23.49700758
5.53,553,-0.009000000000000001,-0.982,0.358,-45.72204840000001,8.5370742,-1.432395,107.43535458,-1.6042824000000002,23.57149212
5.54,554,0.0,-0.987,0.354,-47.326330799999994,8.479778399999999,-1.0886202,106.94834028,-1.62147114,23.65170624000001
5.55,555,-0.013000000000000001,-0.983,0.33,-48.3576552,7.161975,-1.0886202,106.45559640000002,-1.6386598799999998,23.71473162
5.56,556,-0.025,-0.992,0.332,-48.7587258,6.0733548,-1.0886202,105.95712294,-1.65011904,23.77202742
5.57,557,-0.035,-1.0090000000000001,0.312,-50.706783,4.3544808,-0.9740286,105.44146074,-1.65011904,23.8064049
5.58,558,-0.044000000000000004,-1.008,0.289,-51.5089242,2.5210152000000003,-0.4583664000000001,104.92006896,-1.6558486199999998,23.82359364
5.59,559,-0.042,-1.0070000000000001,0.3,-51.7381074,3.3231564,-0.2291832000000001,104.39294759999999,-1.6673077799999998,23.85224154
5.6,560,-0.034,-1.001,0.292,-53.34238979999999,4.6982555999999995,-0.7448454000000001,103.8486375,-1.67303736,23.892348600000002
5.61,561,-0.034,-0.986,0.282,-54.3164184,5.6722842,-1.432395,103.29859782,-1.6787669399999998,23.94391482
5.62,562,-0.04,-0.9740000000000001,0.275,-54.7747848,6.417129599999999,-1.7188740000000002,102.73709898,-1.6787669399999998,24.00121062
5.63,563,-0.044000000000000004,-0.972,0.261,-55.6342218,6.0733548,-2.1199446,102.16987056,-1.6787669399999998,24.05850642
5.64,564,-0.043,-0.972,0.25,-56.3790672,5.6149884000000005,-2.5210152000000003,101.59691256,-1.6673077799999998,24.11007264
5.6499999999999995,565,-0.045,-0.9740000000000001,0.244,-57.1812084,4.7555514,-2.4064236,101.0124954,-1.6615782,24.1501797
5.66,566,-0.051,-0.978,0.242,-58.2698286,3.3231564,-1.9480572,100.42234866,-1.65011904,24.1788276
5.67,567,-0.049,-0.9840000000000001,0.244,-58.72819499999999,4.1825934,-2.0626488000000003,99.82647233999998,-1.64438946,24.21893466
5.68,568,-0.045,-1.001,0.23,-59.8168152,5.6149884000000005,-2.4637194,99.21913686,-1.6329303,24.27050088
5.6899999999999995,569,-0.054000000000000006,-1.015,0.22,-61.020027,5.3285094000000015,-2.4637194,98.59461264,-1.62147114,24.31633752
5.7,570,-0.052000000000000005,-1.016,0.215,-61.6502808,6.130650599999999,-2.9793816000000004,97.97008842,-1.6042824000000002,24.37363332
5.71,571,-0.047,-1.0170000000000001,0.21,-62.3951262,6.9327918,-4.1825934,97.33410504,-1.5813640800000002,24.4366587
5.72,572,-0.044000000000000004,-1.021,0.204,-62.96808420000001,7.5057497999999985,-5.5576926,96.69239208,-1.5412570200000002,24.51114324
5.7299999999999995,573,-0.049,-1.043,0.204,-64.11400019999999,8.307891,-5.9014674000000005,96.03921996,-1.49542038,24.59135736
5.74,574,-0.052000000000000005,-1.045,0.203,-65.54639519999999,8.7662574,-6.2452422,95.3688591,-1.44958374,24.67730106
5.75,575,-0.047,-1.04,0.182,-66.86419860000001,9.224623800000002,-6.8182002000000015,94.68703908,-1.39801752,24.76324476
5.76,576,-0.042,-1.033,0.174,-68.01011460000001,9.1100322,-7.5630456000000015,93.9937599,-1.34072172,24.85491804
5.77,577,-0.037000000000000005,-1.034,0.168,-69.55710119999999,8.880849000000003,-8.250595200000001,93.28902156,-1.27196676,24.93513216
5.78,578,-0.025,-1.028,0.157,-71.44786260000002,9.3392154,-9.167328,92.56136490000002,-1.19175264,25.02680544
5.79,579,-0.011000000000000001,-1.028,0.141,-73.338624,10.1986524,-9.568398599999998,91.81078992,-1.10580894,25.11847872
5.8,580,-0.011000000000000001,-1.024,0.128,-74.88561059999998,9.2819196,-9.740286,91.04875578,-1.01986524,25.20442242
5.81,581,-0.018000000000000002,-1.012,0.138,-76.03152659999998,7.161975,-9.9694692,90.27526248,-0.93392154,25.27317738
5.82,582,-0.023,-1.0070000000000001,0.131,-77.2920342,6.1879464,-10.599723,89.49603959999996,-0.8307891,25.3247436
5.83,583,-0.012,-1.016,0.107,-80.21412,8.078707799999998,-11.2872726,88.67670966,-0.72765666,25.393498560000005
5.84,584,0.011000000000000001,-1.033,0.08,-82.39136040000002,8.8235532,-11.45916,87.84019098,-0.61879464,25.4679831
5.85,585,0.017,-1.026,0.098,-84.4540092,6.417129599999999,-11.5164558,86.98075398,-0.5156622000000001,25.51381974
5.86,586,0.006,-1.034,0.129,-86.34477059999998,3.2658606,-10.7716104,86.10412824,-0.41252976,25.531008480000004
5.87,587,0.0,-1.036,0.10300000000000001,-90.9857304,1.3178034,-11.0007936,85.18739544,-0.30939732,25.5252789
5.88,588,0.01,-1.0390000000000001,0.06,-94.7672532,1.145916,-11.0007936,84.22482600000002,-0.21199446,25.51954932
5.89,589,0.0,-1.047,0.049,-96.19964820000001,-0.572958,-10.657018800000001,83.25079740000002,-0.11459160000000003,25.49090142
5.8999999999999995,590,0.013999999999999999,-1.07,0.047,-95.2829154,0.0,-8.7089616,82.28249838,-0.03437748,25.4679831
5.91,591,0.043,-1.067,0.013000000000000001,-96.0277608,4.0680017999999984,-7.3911582,81.30846978000002,0.028647900000000007,25.49090142
5.92,592,0.077,-1.091,-0.026000000000000002,-92.532717,5.2139178,-7.1046792000000005,80.36881866,0.09740286,25.51954932
5.93,593,0.05,-1.11,-0.067,-93.4494498,-1.8907614,-7.1046792000000005,79.42343796,0.15469866,25.47944226
5.9399999999999995,594,-0.013000000000000001,-1.087,-0.068,-95.6266902,-8.021412000000002,-8.021412000000002,78.45513894,0.21199446,25.37630982
5.95,595,-0.073,-1.099,-0.079,-97.116381,-3.0366774,-9.0527364,77.46965118,0.28647900000000004,25.31901402
5.96,596,-0.08199999999999999,-1.131,-0.128,-97.7466348,7.3911582,-9.0527364,76.47270426,0.37815228,25.36485066
5.97,597,-0.033,-1.139,-0.21600000000000005,-98.262297,15.126091199999998,-9.167328,75.47575734,0.4870143000000001,25.47944226
5.9799999999999995,598,0.023,-1.127,-0.264,-96.0850566,17.5325148,-8.3651868,74.50172874,0.59587632,25.61695218
5.99,599,0.034,-1.121,-0.29,-94.99643640000001,16.615782,-9.0527364,73.53342971999999,0.7161975,25.743002940000004
6.0,600,0.026000000000000002,-1.112,-0.271,-94.1369994,15.297978599999999,-11.172680999999999,72.57658986,0.8479778399999999,25.84613538
6.01,601,0.012,-1.107,-0.31,-93.2202666,16.272007199999994,-12.6623718,71.63120916,1.0026765,25.954997400000003
6.02,602,0.032,-1.087,-0.38799999999999996,-91.5013926,19.8243468,-13.521808800000002,70.7030172,1.18029348,26.09250732000001
6.03,603,0.06,-1.082,-0.439,-88.52201099999998,20.6837838,-12.7196676,69.80347314,1.35218088,26.241476399999996
6.04,604,0.078,-1.081,-0.486,-85.3134462,17.475219,-11.1153852,68.93830656,1.50687954,26.356068
6.05,605,0.079,-1.08,-0.516,-81.8756982,11.5737516,-10.084060800000001,68.10751746,1.6272007199999998,26.42482296
6.06,606,0.10400000000000001,-1.077,-0.505,-78.03687959999998,6.8182002000000015,-9.740286,67.31683542,1.73033316,26.4420117
6.07,607,0.128,-1.062,-0.503,-75.05749800000002,2.6356068,-9.8548776,66.54907170000001,1.82773602,26.42482296
6.08,608,0.125,-1.038,-0.514,-71.21867940000001,-1.2605076000000002,-9.224623800000002,65.82141504,1.89649098,26.37325674
6.09,609,0.091,-1.0170000000000001,-0.528,-66.00476160000001,-2.291832,-7.906820400000001,65.15105418,1.95378678,26.31023136
6.1,610,0.043,-1.0070000000000001,-0.54,-61.6502808,-1.6615782,-7.448453999999999,64.52080038,2.005353,26.264394719999995
6.11,611,0.013000000000000001,-1.001,-0.561,-57.754166399999995,-0.572958,-6.9327918,63.93638322,2.05691922,26.22428766
6.12,612,0.006,-0.997,-0.5820000000000001,-53.4569814,-0.5156622000000001,-5.72958,63.38634354000001,2.09702628,26.18991018
6.13,613,0.003,-0.9840000000000001,-0.575,-49.1025006,-1.2605076000000002,-4.6409598,62.887870080000006,2.13140376,26.1555327
6.14,614,0.008,-0.973,-0.5760000000000001,-45.3782736,-1.8907614,-4.6409598,62.4237741,2.15432208,26.11542564
6.15,615,0.024,-0.961,-0.575,-42.112413000000004,-2.4064236,-5.1566220000000005,61.994055599999996,2.18869956,26.06385942
6.16,616,0.037000000000000005,-0.965,-0.547,-39.018439799999996,-2.6929026,-4.9847346,61.592985,2.21161788,26.0122932
6.17,617,0.038,-0.95,-0.524,-36.4974246,-2.0626488000000003,-4.583664,61.22056230000001,2.24026578,25.97218614
6.18,618,0.03,-0.9179999999999999,-0.524,-34.37748,-0.6302538000000001,-4.4117766,60.87105792,2.26891368,25.94353824
6.1899999999999995,619,0.019,-0.903,-0.527,-31.9710564,0.0,-4.1825934,60.54447186,2.30329116,25.92061992
6.2,620,0.01,-0.893,-0.522,-28.877083199999998,-0.057295800000000015,-3.7242269999999995,60.25226328,2.33193906,25.90343118
6.21,621,0.017,-0.887,-0.518,-25.0382646,-0.9167328000000001,-2.86479,59.99443218,2.3491278,25.87478328000001
6.22,622,0.018000000000000002,-0.887,-0.524,-22.7464326,-2.0053530000000004,-1.2605076000000002,59.75378982,2.34339822,25.85186496
6.2299999999999995,623,0.016,-0.873,-0.539,-20.9702628,-3.6669312000000014,0.5156622000000001,59.54179536,2.3204799,25.82321706
6.24,624,0.019,-0.85,-0.531,-18.2200644,-5.0993262,1.6042823999999998,59.35271922,2.28037284,25.78311
6.25,625,0.04,-0.8320000000000001,-0.556,-15.3552744,-4.7555514,3.2658606,59.19802056000001,2.22307704,25.76019168
6.26,626,0.054000000000000006,-0.818,-0.5529999999999999,-11.8602306,-6.2452422,4.5263682,59.07769938,2.15432208,25.7258142
6.27,627,0.068,-0.789,-0.5710000000000001,-10.026765,-8.8235532,5.3858052,58.94591904,2.07410796,25.679977560000005
6.28,628,0.073,-0.768,-0.557,-6.9327918,-11.0580894,5.6722842,58.87716408,1.97097552,25.61695218
6.29,629,0.066,-0.757,-0.547,-5.042030400000002,-11.6310474,6.1879464,58.82559786,1.85638392,25.54819722
6.3,630,0.054000000000000006,-0.742,-0.562,-2.1199446,-11.8602306,7.161975,58.80267954,1.73606274,25.47944226
6.31,631,0.031,-0.752,-0.535,1.7761698000000001,-12.4331886,8.3651868,58.81986828,1.6042824000000002,25.41641688
6.32,632,0.017,-0.774,-0.529,4.9274388,-10.828906199999999,9.224623800000002,58.85424576000001,1.47250206,25.37630982
6.33,633,0.015,-0.7909999999999999,-0.523,8.307891,-8.7089616,9.740286,58.94018946,1.3464512999999998,25.34766192
6.34,634,0.021,-0.81,-0.528,11.6310474,-7.448453999999999,9.8548776,59.06051064,1.2318597,25.33620276
6.35,635,0.027999999999999997,-0.82,-0.534,14.7823164,-6.8182002000000015,9.9121734,59.20947972,1.11153852,25.3247436
6.36,636,0.034,-0.831,-0.527,17.6471064,-6.130650599999999,10.1986524,59.39282628,0.9969469199999998,25.3247436
6.37,637,0.038,-0.8320000000000001,-0.512,20.5691922,-5.7868758000000025,10.657018800000001,59.59336158,0.8880849000000001,25.33047318
6.38,638,0.042,-0.838,-0.506,22.803728399999997,-5.2139178,10.657018800000001,59.82827436,0.7734933,25.34193234
6.39,639,0.044000000000000004,-0.8440000000000001,-0.499,24.8663772,-4.297185,10.4278356,60.08037588000001,0.66463128,25.35912108
6.4,640,0.043,-0.8540000000000001,-0.488,27.8457588,-3.6096353999999997,10.3705398,60.36112530000001,0.56149884,25.37630982
6.41,641,0.042,-0.857,-0.4920000000000001,30.65325300000001,-2.86479,10.5424272,60.6762522,0.4583664000000001,25.40495772
6.42,642,0.033,-0.86,-0.466,34.262888399999994,-3.0366774,10.3705398,61.02575657999999,0.36096354,25.43360562
6.43,643,0.019,-0.85,-0.44799999999999995,37.3568616,-3.6669312000000014,10.4278356,61.40390886,0.26356068,25.45079436
6.4399999999999995,644,0.008,-0.8390000000000001,-0.428,39.820581,-3.380452200000001,10.7716104,61.810709040000006,0.15469866,25.47371268
6.45,645,0.001,-0.833,-0.409,42.398892,-2.2345362,10.886202,62.24042754,0.057295800000000015,25.50809016
6.46,646,-0.003,-0.8270000000000001,-0.39,44.2323576,-1.4896908000000002,10.886202,62.68733478,-0.03437748,25.54819722
6.47,647,-0.013000000000000001,-0.8190000000000001,-0.387,45.72204840000001,-0.9740286,10.886202,63.15143076,-0.13178034,25.58830428
6.4799999999999995,648,-0.011000000000000001,-0.8079999999999999,-0.37799999999999995,48.128472,-0.057295800000000015,10.7716104,63.64417464,-0.22345362,25.639870499999997
6.49,649,0.0,-0.7979999999999999,-0.36200000000000004,51.6235158,1.145916,10.084060800000001,64.16556641999999,-0.30366774,25.69716630000001
6.5,650,0.008,-0.8029999999999999,-0.337,55.11855960000001,2.0626488000000003,9.2819196,64.72706526,-0.3724227000000001,25.76019168
6.51,651,0.006999999999999999,-0.8009999999999999,-0.311,57.4103916,1.8334656000000005,9.1100322,65.30575284,-0.43544808,25.82321706
6.52,652,0.001,-0.797,-0.31,58.67089920000001,1.6615782,9.396511199999999,65.90162916,-0.5099326200000001,25.880512860000003
6.53,653,-0.002,-0.7979999999999999,-0.312,60.38977320000001,1.6042823999999998,9.396511199999999,66.51469422,-0.5786875800000001,25.93780866
6.54,654,-0.019,-0.7909999999999999,-0.295,62.96808420000001,1.3750992,8.8235532,67.15640718,-0.64744254,25.98937488
6.55,655,-0.018000000000000002,-0.8,-0.28800000000000003,64.8015498,2.2345362,8.078707799999998,67.80957930000001,-0.7104679199999999,26.0409411
6.56,656,-0.024,-0.807,-0.275,66.23394479999999,4.1252976000000015,7.734933000000002,68.48566973999999,-0.75630456,26.11542564
6.57,657,-0.027000000000000003,-0.8009999999999999,-0.265,68.2965936,5.2139178,7.448453999999999,69.17894892,-0.8021412000000001,26.19563976
6.58,658,-0.027000000000000003,-0.7979999999999999,-0.24100000000000002,70.6457214,6.130650599999999,6.8182002000000015,69.88941684,-0.83651868,26.28158346
6.59,659,-0.026000000000000002,-0.8140000000000001,-0.222,71.1613836,6.7609043999999985,6.5317212,70.61134392,-0.87089616,26.37325674
6.6,660,-0.024,-0.8220000000000001,-0.23800000000000002,70.4165382,6.589017,6.1879464,71.32181184,-0.89954406,26.45920044
6.61,661,-0.018000000000000002,-0.8170000000000001,-0.251,70.6457214,7.2765666,6.0160589999999985,72.03800934,-0.92819196,26.5566033
6.62,662,-0.024,-0.8170000000000001,-0.22699999999999998,71.9635248,6.6463128000000005,6.1879464,72.76566600000002,-0.96256944,26.642546999999997
6.63,663,-0.024,-0.815,-0.226,72.4218912,6.9327918,6.7609043999999985,73.49905224,-1.0026765,26.73422028
6.64,664,-0.036000000000000004,-0.7979999999999999,-0.21600000000000005,72.82296179999999,6.6463128000000005,7.8495246,74.23816806,-1.05424272,26.825893560000004
6.65,665,-0.040999999999999995,-0.774,-0.203,73.2240324,6.589017,8.307891,74.97728388,-1.10580894,26.91756684
6.66,666,-0.044000000000000004,-0.7609999999999999,-0.17800000000000002,74.198061,7.906820400000001,7.9641161999999985,75.72785886,-1.1573751600000002,27.02069928
6.67,667,-0.057,-0.772,-0.165,73.45321560000002,8.651665800000002,7.161975,76.47270426,-1.2032117999999998,27.129561300000002
6.68,668,-0.055,-0.7829999999999999,-0.17300000000000001,71.44786260000002,9.9121734,6.0733548,77.19463134,-1.23758928,27.2441529
6.6899999999999995,669,-0.051,-0.8009999999999999,-0.174,70.5311298,12.2040054,5.2712136,77.90509926,-1.2605076000000002,27.381662819999995
6.7,670,-0.047,-0.826,-0.183,69.900876,14.667724800000002,4.6982555999999995,78.60983759999998,-1.27196676,27.54209106
6.71,671,-0.05,-0.848,-0.17800000000000002,68.0674104,15.870936600000002,4.4690724,79.29165762,-1.28342592,27.71397846
6.72,672,-0.044000000000000004,-0.855,-0.165,66.463128,17.9908812,4.010706000000001,79.9562889,-1.2891555,27.903054600000004
6.7299999999999995,673,-0.032,-0.855,-0.18100000000000002,65.603691,20.168121600000006,3.8388186,80.61519059999998,-1.29488508,28.11504906
6.74,674,-0.02,-0.8390000000000001,-0.16399999999999998,65.94746579999999,21.0848544,3.2085647999999996,81.27982188,-1.2891555,28.332773100000004
6.75,675,-0.016,-0.861,-0.168,65.94746579999999,21.600516600000002,3.9534102,81.93872358,-1.30061466,28.55622672
6.76,676,-0.015,-0.875,-0.179,63.770225399999994,22.1161788,4.9274388,82.58043654000002,-1.3178034,28.78540992
6.77,677,-0.013000000000000001,-0.866,-0.162,63.4264506,22.1734746,5.9014674000000005,83.21069034,-1.3464512999999998,29.0203227
6.78,678,-0.009000000000000001,-0.855,-0.156,62.738901,19.9962342,5.6149884000000005,83.84094414,-1.38082878,29.23231716
6.79,679,-0.01,-0.871,-0.14800000000000002,61.07732280000001,18.277360199999997,4.8701430000000006,84.4540092,-1.40947668,29.421393300000002
6.8,680,-0.001,-0.8909999999999999,-0.147,58.5563076,18.7357266,3.9534102,85.03842636,-1.432395,29.61619902
6.81,681,0.001,-0.909,-0.14,56.3790672,18.1054728,2.6929026,85.60565478000002,-1.44385416,29.80527516
6.82,682,0.006,-0.922,-0.139,53.5142772,17.8762896,1.145916,86.13277614,-1.44385416,29.98862172
6.83,683,0.009000000000000001,-0.9279999999999999,-0.134,51.6235158,18.277360199999997,0.11459160000000004,86.64843834,-1.432395,30.17769786
6.84,684,0.011000000000000001,-0.93,-0.132,50.0765292,18.3919518,-0.8021411999999999,87.15264138,-1.41520626,30.36104442
6.85,685,0.016,-0.9309999999999999,-0.127,49.6754586,17.761698000000006,-1.7188740000000002,87.64538526,-1.39228794,30.54439098000001
6.86,686,0.02,-0.935,-0.105,49.5035712,16.2147114,-2.6929026,88.14385872,-1.3579104599999998,30.710548800000005
6.87,687,0.028999999999999998,-0.95,-0.086,48.3576552,15.2406828,-3.380452200000001,88.61941386,-1.31207382,30.86524746
6.88,688,0.026000000000000002,-0.9690000000000001,-0.079,46.0658232,13.980175199999998,-3.7242269999999995,89.08350984,-1.27196676,31.00848696
6.89,689,0.027000000000000003,-0.982,-0.08,43.20103320000001,12.318597,-3.4377480000000005,89.51895792,-1.23758928,31.134537720000004
6.9,690,0.025,-0.995,-0.076,40.6227222,9.8548776,-2.291832,89.9257581,-1.21467096,31.23767016
6.91,691,0.021,-1.0,-0.062,39.19032720000001,7.448453999999999,-1.145916,90.32109912,-1.2032117999999998,31.31788428
6.92,692,0.024,-1.001,-0.048,36.898495200000006,5.1566220000000005,-0.4583664000000001,90.68206266,-1.18602306,31.37518008
6.93,693,0.027000000000000003,-0.995,-0.035,34.4347758,3.0939732,-0.4583664000000001,91.03156704,-1.18029348,31.409557560000003
6.9399999999999995,694,0.028999999999999998,-0.9890000000000001,-0.034,31.2835068,1.145916,-0.572958,91.34669394,-1.1745639,31.426746299999998
6.95,695,0.026000000000000002,-0.9840000000000001,-0.028999999999999998,28.2468294,-1.0313244000000001,-0.5156622000000001,91.63317294,-1.16310474,31.41528714
6.96,696,0.021,-0.9890000000000001,-0.019,25.496631,-2.8074942000000003,0.0,91.89673362,-1.16310474,31.39236882
6.97,697,0.013999999999999999,-0.992,-0.019,22.6891368,-4.297185,0.7448454000000001,92.10872808,-1.1573751600000002,31.35799134
6.9799999999999995,698,0.009000000000000001,-0.996,-0.015,21.027558600000006,-6.2452422,0.9167328000000001,92.32645212,-1.16310474,31.294965959999995
6.99,699,-0.002,-1.003,-0.008,20.7983754,-7.333862400000001,0.40107059999999994,92.53844658,-1.1573751600000002,31.226211
7.0,700,-0.015,-1.001,0.0,19.9389384,-7.906820400000001,0.2291832000000001,92.74471146,-1.15164558,31.15172646000001
7.01,701,-0.01,-0.9890000000000001,0.006999999999999999,18.907614,-8.021412000000002,0.6875496,92.93951718,-1.15164558,31.07151234
7.02,702,0.004,-0.985,0.012,18.3919518,-8.5370742,1.7188740000000002,93.11713416,-1.15164558,30.99129822
7.03,703,0.015,-0.987,0.021,17.9908812,-9.453807,2.6356068,93.30048072,-1.1688343199999998,30.89962494
7.04,704,0.023,-0.988,0.027999999999999997,17.246035799999998,-10.886202,3.4377480000000005,93.4780977,-1.19748222,30.79076292
7.05,705,0.026000000000000002,-0.992,0.028999999999999998,16.615782,-13.0061466,4.1825934,93.65571468,-1.22613012,30.66471216
7.06,706,0.02,-1.006,0.037000000000000005,16.558486199999994,-15.469866,5.2712136,93.82760208,-1.2605076000000002,30.510013500000003
7.07,707,0.015,-1.026,0.045,15.813640800000002,-17.5325148,6.3025379999999975,93.98803032,-1.30061466,30.33239652
7.08,708,0.011000000000000001,-1.04,0.05,14.7250206,-19.8243468,6.9327918,94.14272898,-1.3464512999999998,30.1375908
7.09,709,0.001,-1.047,0.055,13.750992000000002,-22.058882999999998,7.0473834,94.29169806,-1.39228794,29.91413718
7.1,710,0.0,-1.053,0.059000000000000004,12.3758928,-23.892348600000002,6.8182002000000015,94.42920798000002,-1.43812458,29.67349482
7.11,711,-0.003,-1.0590000000000002,0.065,10.026765,-25.668518399999996,6.6463128000000005,94.53806999999999,-1.47250206,29.415663720000005
7.12,712,-0.011000000000000001,-1.07,0.065,7.5057497999999985,-27.100913399999996,6.5317212,94.61828412,-1.50687954,29.14637346
7.13,713,-0.022000000000000002,-1.078,0.063,4.6409598,-28.2468294,6.4744254,94.68130949999998,-1.5412570200000002,28.86562404
7.14,714,-0.03,-1.08,0.055999999999999994,2.1199446,-29.163562199999998,6.3025379999999975,94.71568698,-1.56990492,28.57341546
7.15,715,-0.039,-1.072,0.05,0.4583664000000001,-29.793815999999996,5.6722842,94.72714614,-1.59855282,28.2754773
7.16,716,-0.052000000000000005,-1.052,0.049,-0.5156622000000001,-30.080295,4.9847346,94.73860529999999,-1.61001198,27.97753914
7.17,717,-0.068,-1.032,0.047,-1.5469866,-29.67922440000001,4.2398892,94.72141656,-1.6272007199999998,27.679600980000004
7.18,718,-0.081,-1.0170000000000001,0.044000000000000004,-2.2345362,-28.0176462,3.6096353999999997,94.7099574,-1.6329303,27.404581140000005
7.1899999999999995,719,-0.092,-0.998,0.038,-2.6929026,-25.6112226,2.9793816000000004,94.69276866,-1.6386598799999998,27.14675004
7.2,720,-0.096,-0.978,0.036000000000000004,-2.86479,-23.14750320000001,2.1772404,94.67557992,-1.6329303,26.91756684
7.21,721,-0.08900000000000001,-0.9640000000000001,0.037000000000000005,-2.6356068,-20.626488000000002,1.145916,94.65266159999999,-1.62147114,26.71130196
7.22,722,-0.076,-0.96,0.039,-1.7761698000000001,-18.506543399999998,0.2291832000000001,94.62401369999999,-1.62147114,26.533684980000004
7.2299999999999995,723,-0.063,-0.965,0.043,-0.8594370000000001,-17.303331600000003,-0.5156622000000001,94.62401369999999,-1.59855282,26.36179758
7.24,724,-0.048,-0.972,0.048,0.11459160000000004,-16.501190400000002,-1.0313244000000001,94.62974328,-1.56990492,26.20136934000001
7.25,725,-0.036000000000000004,-0.98,0.048,0.9167328000000001,-16.1001198,-1.2032118,94.64693201999998,-1.5412570200000002,26.0409411
7.26,726,-0.027000000000000003,-0.9840000000000001,0.053,1.9480572,-16.386598799999998,-1.3178034,94.66985034,-1.50687954,25.88624244
7.27,727,-0.021,-0.987,0.063,3.2658606,-17.0741484,-1.3178034,94.69849824,-1.47250206,25.72008462
7.28,728,-0.022000000000000002,-0.993,0.075,4.7555514,-17.8762896,-1.0313244000000001,94.75579404,-1.44385416,25.54246764
7.29,729,-0.026000000000000002,-1.002,0.085,6.130650599999999,-18.162768600000003,-0.5156622000000001,94.824549,-1.41520626,25.36485066
7.3,730,-0.031,-1.014,0.09300000000000001,6.5317212,-17.8189938,-0.057295800000000015,94.89903354,-1.39801752,25.19296326000001
7.31,731,-0.035,-1.021,0.095,6.2452422,-17.303331600000003,0.11459160000000004,94.9677885,-1.3750992,25.02107586
7.32,732,-0.04,-1.024,0.09699999999999999,5.7868758000000025,-16.8449652,0.1718874,95.03081388,-1.36364004,24.86064762
7.33,733,-0.039,-1.023,0.102,5.0993262,-16.1001198,0.2291832000000001,95.08810968,-1.3464512999999998,24.70021938
7.34,734,-0.053,-1.033,0.10800000000000001,4.6409598,-15.4125702,0.6302538000000001,95.13967590000001,-1.3349921400000002,24.54552072
7.35,735,-0.057999999999999996,-1.033,0.11199999999999999,3.6669312000000014,-14.381245800000002,0.8021411999999999,95.18551254,-1.32926256,24.4080108
7.36,736,-0.055,-1.031,0.115,2.8074942000000003,-13.120738199999998,1.145916,95.21416044,-1.32353298,24.27623046
7.37,737,-0.053,-1.031,0.11199999999999999,1.9480572,-11.8602306,1.2032118,95.23707876,-1.32926256,24.15590928
7.38,738,-0.053,-1.0270000000000001,0.109,1.0886202,-10.7143146,1.3178034,95.25426750000001,-1.32926256,24.05277684
7.39,739,-0.057,-1.024,0.105,0.4583664000000001,-9.568398599999998,1.432395,95.25999708,-1.3349921400000002,23.95537398
7.4,740,-0.061,-1.02,0.1,0.0,-7.906820400000001,1.4896908000000002,95.26572666,-1.34072172,23.87515986
7.41,741,-0.059000000000000004,-1.014,0.096,-0.1718874,-6.3598338,1.2032118,95.26572666,-1.3464512999999998,23.81213448
7.42,742,-0.054000000000000006,-1.0070000000000001,0.096,-0.4583664000000001,-5.0993262,0.9740286,95.24280834,-1.3750992,23.76629784
7.43,743,-0.047,-1.003,0.098,-0.6302538000000001,-3.9534102,1.0886202,95.23707876,-1.38082878,23.72619078
7.4399999999999995,744,-0.043,-1.004,0.096,-0.8021411999999999,-2.8074942000000003,1.432395,95.23134918,-1.39228794,23.6918133
7.45,745,-0.040999999999999995,-1.004,0.094,-1.0313244000000001,-1.7188740000000002,1.7761698000000001,95.21989002,-1.40947668,23.67462456
7.46,746,-0.042,-1.003,0.091,-1.145916,-0.6875496,2.0053530000000004,95.20843086,-1.42666542,23.66889498
7.47,747,-0.043,-1.002,0.091,-0.9740286,0.057295800000000015,1.9480572,95.15686464,-1.47250206,23.66889498
7.4799999999999995,748,-0.042,-1.004,0.092,-0.7448454000000001,1.0313244000000001,1.8334656000000005,95.14540548,-1.49542038,23.68035414
7.49,749,-0.040999999999999995,-1.008,0.092,-0.5156622000000001,2.291832,1.7761698000000001,95.13967590000001,-1.51260912,23.70327246
7.5,750,-0.039,-1.0090000000000001,0.091,-0.5156622000000001,3.2085647999999996,1.6615782,95.13394632,-1.53552744,23.73192036
7.51,751,-0.039,-1.0090000000000001,0.08900000000000001,-0.4583664000000001,4.2398892,1.5469866,95.12821674,-1.5527161800000002,23.77202742
7.52,752,-0.039,-1.0070000000000001,0.08900000000000001,-0.6302538000000001,5.2139178,1.3750992,95.09956884,-1.5813640800000002,23.82359364
7.53,753,-0.037000000000000005,-1.008,0.09,-0.7448454000000001,6.417129599999999,1.145916,95.08810968,-1.59855282,23.88661902
7.54,754,-0.034,-1.006,0.09300000000000001,-0.6875496,7.3911582,1.145916,95.0823801,-1.62147114,23.95537398
7.55,755,-0.031,-1.005,0.09699999999999999,-0.6875496,8.136003599999999,1.2032118,95.07092094,-1.6386598799999998,24.0355881
7.56,756,-0.027000000000000003,-1.005,0.098,-0.6302538000000001,8.59437,1.2605076000000002,95.05946178,-1.6615782,24.1215318
7.57,757,-0.023,-1.0070000000000001,0.092,-0.7448454000000001,8.9381448,1.2032118,95.03654346,-1.6787669399999998,24.2074755
7.58,758,-0.021,-1.008,0.085,-0.9167328000000001,8.9381448,1.0313244000000001,95.01935472,-1.70168526,24.2934192
7.59,759,-0.019,-1.002,0.081,-0.8594370000000001,8.7089616,0.8021411999999999,95.00789556,-1.7188740000000002,24.3793629
7.6,760,-0.017,-0.996,0.085,-0.8594370000000001,8.3651868,0.40107059999999994,94.99643640000001,-1.73033316,24.4653066
7.61,761,-0.015,-0.995,0.08900000000000001,-0.6875496,8.193299399999999,0.0,94.98497724,-1.74179232,24.54552072
7.62,762,-0.013000000000000001,-0.9990000000000001,0.09,-0.5156622000000001,8.193299399999999,-0.11459160000000004,94.96205892,-1.73033316,24.62573484
7.63,763,-0.004,-1.004,0.08800000000000001,-0.3437748,7.7922288,-0.40107059999999994,94.95632934,-1.73606274,24.70594896
7.64,764,-0.004,-1.0070000000000001,0.085,-0.1718874,7.0473834,-0.6875496,94.95059976,-1.73606274,24.77470392
7.65,765,-0.005,-1.006,0.087,-0.2291832000000001,5.844171599999999,-0.8594370000000001,94.94487018,-1.73033316,24.83199972
7.66,766,-0.009000000000000001,-1.004,0.091,-0.286479,5.042030400000002,-1.0886202,94.9391406,-1.7246035799999997,24.88356594
7.67,767,-0.011000000000000001,-1.003,0.091,-0.4583664000000001,4.9274388,-1.3178034,94.9104927,-1.6959556799999995,24.94086174
7.68,768,-0.015,-1.0070000000000001,0.094,-0.3437748,4.6409598,-1.6042823999999998,94.90476312,-1.6844965200000002,24.98669838
7.6899999999999995,769,-0.013999999999999999,-1.0090000000000001,0.1,-0.2291832000000001,3.9534102,-1.8334656000000005,94.89903354,-1.67303736,25.02680544
7.7,770,-0.008,-1.0070000000000001,0.10400000000000001,-0.286479,3.0366774,-2.0053530000000004,94.89903354,-1.6558486199999998,25.06118292
7.71,771,-0.005,-1.006,0.105,-0.40107059999999994,2.1772404,-2.0626488000000003,94.89330396,-1.6386598799999998,25.08410124000001
7.72,772,-0.003,-1.004,0.102,-0.7448454000000001,1.432395,-1.9480572,94.87038564,-1.56990492,25.10701956
7.7299999999999995,773,-0.005,-1.003,0.098,-1.145916,0.9167328000000001,-1.8907614,94.85892648,-1.5527161800000002,25.11274914
7.74,774,-0.008,-1.002,0.094,-1.3750992,0.5156622000000001,-1.7761698000000001,94.84173774,-1.53552744,25.12420830000001
7.75,775,-0.011000000000000001,-1.001,0.09,-1.145916,0.2291832000000001,-1.7188740000000002,94.83027858,-1.5183387000000002,25.12420830000001
7.76,776,-0.016,-0.996,0.09,-0.286479,-0.1718874,-1.7761698000000001,94.824549,-1.50114996,25.12420830000001
7.77,777,-0.02,-0.993,0.09300000000000001,0.6875496,-0.4583664000000001,-1.7188740000000002,94.81881942,-1.4610428999999998,25.12420830000001
7.78,778,-0.021,-0.993,0.09300000000000001,1.2605076000000002,-0.572958,-1.9480572,94.83027858,-1.44385416,25.12420830000001
7.79,779,-0.02,-0.9940000000000001,0.092,1.6042823999999998,-0.572958,-1.9480572,94.84746732,-1.4209358399999998,25.11847872
7.8,780,-0.018000000000000002,-0.995,0.08900000000000001,1.8334656000000005,-0.6302538000000001,-1.8334656000000005,94.86465606,-1.4037471000000001,25.11274914
7.81,781,-0.016,-0.997,0.083,2.0053530000000004,-0.8021411999999999,-1.8334656000000005,94.88757438,-1.38082878,25.10701956
7.82,782,-0.013999999999999999,-0.996,0.078,2.2345362,-1.145916,-1.7188740000000002,94.87038564,-1.3464512999999998,25.10128998
7.83,783,-0.013000000000000001,-0.993,0.077,2.7501984,-1.7188740000000002,-1.7188740000000002,94.89903354,-1.32926256,25.08983082
7.84,784,-0.013999999999999999,-0.995,0.076,3.4377480000000005,-2.291832,-1.7188740000000002,94.9391406,-1.30634424,25.0669125
7.85,785,-0.015,-0.9990000000000001,0.078,4.0680017999999984,-2.5783110000000002,-1.6042823999999998,94.97924766,-1.2891555,25.04399418
7.86,786,-0.018000000000000002,-1.001,0.078,4.7555514,-2.86479,-1.432395,95.03081388,-1.27196676,25.01534628
7.87,787,-0.019,-1.003,0.08199999999999999,5.0993262,-2.9793816000000004,-1.145916,95.05946178,-1.24904844,24.99242796
7.88,788,-0.019,-1.008,0.086,5.042030400000002,-2.5210152000000003,-0.9167328000000001,95.111028,-1.23758928,24.96950964
7.89,789,-0.022000000000000002,-1.011,0.094,4.8128472,-1.6615782,-0.40107059999999994,95.16259422,-1.2318597,24.952320900000004
7.9,790,-0.023,-1.014,0.099,4.2398892,-0.6302538000000001,-0.057295800000000015,95.20843086,-1.2318597,24.946591320000003
7.91,791,-0.025,-1.015,0.1,3.5523396000000003,0.2291832000000001,0.0,95.24280834,-1.2318597,24.952320900000004
7.92,792,-0.027999999999999997,-1.011,0.10300000000000001,2.9220858,0.6875496,0.057295800000000015,95.25426750000001,-1.2318597,24.95805048
7.93,793,-0.026000000000000002,-1.01,0.10400000000000001,2.1772404,0.8021411999999999,-0.057295800000000015,95.27718582,-1.2318597,24.96950964
7.94,794,-0.024,-1.011,0.10400000000000001,1.6042823999999998,0.8021411999999999,-0.2291832000000001,95.29437456,-1.2318597,24.97523922
7.95,795,-0.021,-1.012,0.10400000000000001,1.3178034,0.572958,-0.2291832000000001,95.30583372,-1.2318597,24.98096880000001
7.96,796,-0.018000000000000002,-1.014,0.109,0.7448454000000001,0.9740286,-0.2291832000000001,95.31156330000002,-1.22613012,24.99242796
7.97,797,-0.019,-1.015,0.111,0.1718874,1.4896908000000002,0.0,95.30010414,-1.2032117999999998,25.0096167
7.9799999999999995,798,-0.017,-1.014,0.111,-0.40107059999999994,1.9480572,0.1718874,95.29437456,-1.20894138,25.03253502
7.99,799,-0.02,-1.0090000000000001,0.10800000000000001,-0.9167328000000001,1.9480572,0.40107059999999994,95.28864498,-1.21467096,25.04972376
8.0,800,-0.023,-1.004,0.106,-1.3178034,1.7188740000000002,0.4583664000000001,95.27145624,-1.22040054,25.0669125
8.01,801,-0.021,-1.003,0.10400000000000001,-1.6042823999999998,1.432395,0.3437748,95.25426750000001,-1.22613012,25.07837166
8.02,802,-0.022000000000000002,-1.002,0.10400000000000001,-1.8907614,1.2032118,0.40107059999999994,95.21989002,-1.22040054,25.0955604
8.03,803,-0.021,-1.004,0.105,-1.9480572,1.0886202,0.5156622000000001,95.1969717,-1.22613012,25.10701956
8.04,804,-0.021,-1.006,0.10300000000000001,-2.291832,1.3178034,0.6875496,95.17405338,-1.23758928,25.11847872
8.05,805,-0.023,-1.008,0.10800000000000001,-2.6356068,1.432395,0.9167328000000001,95.14540548,-1.24904844,25.12993788
8.06,806,-0.024,-1.006,0.10800000000000001,-3.1512689999999997,2.0053530000000004,1.145916,95.11675757999998,-1.2605076000000002,25.14712662
8.07,807,-0.024,-1.006,0.102,-3.4950437999999995,2.4637194,1.2032118,95.06519136,-1.27769634,25.17577452
8.08,808,-0.025,-1.0070000000000001,0.094,-3.7815228,2.7501984,1.2605076000000002,95.0250843,-1.2891555,25.19869284
8.09,809,-0.024,-1.008,0.092,-3.8388186,2.4064236,1.2605076000000002,94.98497724,-1.30634424,25.22161116
8.1,810,-0.027000000000000003,-1.006,0.09,-3.7815228,2.3491277999999998,1.145916,94.95059976,-1.32353298,25.24452948
8.11,811,-0.028999999999999998,-1.006,0.091,-3.5523396000000003,2.291832,0.9740286,94.9104927,-1.3349921400000002,25.26171822
8.12,812,-0.031,-1.006,0.09,-3.380452200000001,2.291832,0.9740286,94.85892648,-1.35218088,25.29036612
8.13,813,-0.031,-1.004,0.08900000000000001,-3.4950437999999995,2.1772404,0.9740286,94.824549,-1.36364004,25.30755486
8.14,814,-0.032,-1.002,0.09,-3.6096353999999997,2.0626488000000003,0.8021411999999999,94.78444194,-1.3750992,25.33047318
8.15,815,-0.032,-1.0,0.091,-3.9534102,2.4637194,0.5156622000000001,94.74433488,-1.38082878,25.3533915
8.16,816,-0.033,-1.0,0.08900000000000001,-3.7815228,2.7501984,0.3437748,94.70422782,-1.39228794,25.37630982
8.17,817,-0.033,-0.9990000000000001,0.09,-3.6096353999999997,2.9793816000000004,0.11459160000000004,94.65266159999999,-1.39801752,25.40495772
8.18,818,-0.033,-0.998,0.08800000000000001,-3.2085647999999996,3.0939732,0.11459160000000004,94.61828412,-1.4037471000000001,25.4393352
8.19,819,-0.032,-0.9990000000000001,0.087,-2.86479,2.7501984,0.11459160000000004,94.58963622,-1.40947668,25.46225352
8.2,820,-0.033,-0.9990000000000001,0.087,-2.4637194,2.3491277999999998,0.057295800000000015,94.56098832,-1.40947668,25.49090142
8.209999999999999,821,-0.032,-1.0,0.085,-2.2345362,2.291832,-0.11459160000000004,94.53806999999999,-1.40947668,25.50809016
8.22,822,-0.031,-1.002,0.085,-2.1199446,2.5783110000000002,-0.1718874,94.49796294,-1.41520626,25.53673806
8.23,823,-0.031,-1.005,0.083,-1.9480572,2.6929026,-0.2291832000000001,94.47504462,-1.41520626,25.56538596
8.24,824,-0.031,-1.008,0.084,-1.9480572,2.6356068,-0.2291832000000001,94.45785588,-1.41520626,25.58830428
8.25,825,-0.027999999999999997,-1.01,0.084,-2.0626488000000003,2.7501984,-0.1718874,94.43493756,-1.41520626,25.61695218
8.26,826,-0.03,-1.01,0.083,-2.3491277999999998,2.3491277999999998,-0.2291832000000001,94.40628966,-1.41520626,25.639870499999997
8.27,827,-0.031,-1.0090000000000001,0.084,-2.5783110000000002,1.8907614,-0.2291832000000001,94.36045302,-1.41520626,25.66278882000001
8.28,828,-0.032,-1.005,0.083,-2.7501984,1.7188740000000002,-0.40107059999999994,94.33180511999998,-1.41520626,25.679977560000005
8.29,829,-0.032,-1.001,0.08199999999999999,-2.7501984,1.6042823999999998,-0.6302538000000001,94.30315722,-1.40947668,25.69716630000001
8.3,830,-0.035,-0.9990000000000001,0.081,-2.5210152000000003,1.3750992,-0.6875496,94.28023890000001,-1.4037471000000001,25.70862546
8.31,831,-0.035,-1.001,0.083,-2.3491277999999998,1.5469866,-0.6302538000000001,94.251591,-1.39801752,25.7258142
8.32,832,-0.034,-0.998,0.083,-2.1772404,1.7188740000000002,-0.5156622000000001,94.21148394,-1.4037471000000001,25.743002940000004
8.33,833,-0.03,-0.997,0.081,-1.8334656000000005,1.9480572,-0.2291832000000001,94.1942952,-1.4037471000000001,25.76019168
8.34,834,-0.022000000000000002,-0.998,0.079,-1.6042823999999998,1.7188740000000002,-0.11459160000000004,94.17710646,-1.4037471000000001,25.78311
8.35,835,-0.019,-0.9990000000000001,0.075,-1.432395,1.2605076000000002,-0.11459160000000004,94.15991772,-1.4037471000000001,25.79456916
8.36,836,-0.019,-1.001,0.077,-1.432395,0.5156622000000001,-0.057295800000000015,94.14272898,-1.4037471000000001,25.80029874
8.37,837,-0.024,-1.004,0.078,-1.2605076000000002,0.11459160000000004,-0.057295800000000015,94.07397402,-1.39228794,25.80602832
8.38,838,-0.027000000000000003,-1.0070000000000001,0.077,-1.2605076000000002,0.057295800000000015,-0.057295800000000015,94.06251486,-1.39228794,25.80602832
8.39,839,-0.031,-1.01,0.08,-1.145916,-0.057295800000000015,0.0,94.0510557,-1.39228794,25.80602832
8.4,840,-0.032,-1.015,0.081,-0.8594370000000001,-0.11459160000000004,-0.057295800000000015,94.03959654,-1.39228794,25.80602832
8.41,841,-0.032,-1.016,0.083,-0.6875496,-0.40107059999999994,-0.2291832000000001,94.03386695999998,-1.38655836,25.80029874
8.42,842,-0.032,-1.013,0.081,-0.8594370000000001,-0.286479,-0.2291832000000001,93.97084158,-1.39801752,25.80602832
8.43,843,-0.032,-1.0090000000000001,0.08,-1.0313244000000001,-0.11459160000000004,-0.11459160000000004,93.95938242,-1.39801752,25.80029874
8.44,844,-0.032,-1.003,0.079,-1.2032118,0.0,0.0,93.94792326,-1.39801752,25.80029874
8.45,845,-0.033,-1.0,0.077,-1.6042823999999998,0.2291832000000001,0.057295800000000015,93.93073452,-1.39801752,25.80602832
8.459999999999999,846,-0.031,-0.995,0.073,-1.6615782,0.2291832000000001,0.2291832000000001,93.91354578,-1.39801752,25.80602832
8.47,847,-0.031,-0.9940000000000001,0.07200000000000001,-1.5469866,0.1718874,0.286479,93.84479082,-1.40947668,25.8117579
8.48,848,-0.03,-0.9990000000000001,0.07200000000000001,-1.2605076000000002,0.1718874,0.40107059999999994,93.83333166,-1.41520626,25.81748748
8.49,849,-0.028999999999999998,-1.001,0.076,-0.9740286,0.057295800000000015,0.3437748,93.8218725,-1.4209358399999998,25.81748748
8.5,850,-0.027999999999999997,-1.002,0.075,-0.6875496,-0.11459160000000004,0.3437748,93.81614292,-1.4209358399999998,25.8117579
8.51,851,-0.026000000000000002,-1.001,0.076,-0.6875496,-0.1718874,0.286479,93.80468376,-1.42666542,25.8117579
8.52,852,-0.027999999999999997,-1.003,0.079,-0.6875496,-0.1718874,0.286479,93.7645767,-1.4209358399999998,25.81748748
8.53,853,-0.027000000000000003,-1.003,0.081,-0.8021411999999999,-0.057295800000000015,0.3437748,93.75311754,-1.4209358399999998,25.8117579
8.54,854,-0.027999999999999997,-1.006,0.078,-0.8594370000000001,-0.1718874,0.40107059999999994,93.74738796,-1.42666542,25.8117579
8.55,855,-0.026000000000000002,-1.008,0.076,-0.8594370000000001,-0.3437748,0.4583664000000001,93.7359288,-1.432395,25.80602832
8.56,856,-0.026000000000000002,-1.008,0.075,-0.9167328000000001,-0.3437748,0.572958,93.73019922,-1.43812458,25.80602832
8.57,857,-0.024,-1.0070000000000001,0.075,-0.8021411999999999,-0.4583664000000001,0.7448454000000001,93.69009216,-1.42666542,25.80602832
8.58,858,-0.022000000000000002,-1.006,0.075,-0.9167328000000001,-0.6875496,0.7448454000000001,93.67863300000002,-1.43812458,25.79456916
8.59,859,-0.021,-1.006,0.075,-1.0313244000000001,-0.9740286,0.6875496,93.66717384,-1.44385416,25.78311
8.6,860,-0.022000000000000002,-1.006,0.077,-1.2605076000000002,-0.9740286,0.6875496,93.65571468,-1.44958374,25.77738042
8.61,861,-0.025,-1.005,0.075,-1.2032118,-0.9167328000000001,0.6875496,93.64425552,-1.45531332,25.76592126
8.62,862,-0.025,-1.004,0.07200000000000001,-1.2032118,-0.8021411999999999,0.6302538000000001,93.60414846,-1.44958374,25.76019168
8.63,863,-0.025,-1.004,0.07400000000000001,-1.2032118,-0.7448454000000001,0.572958,93.59268929999999,-1.45531332,25.7544621
8.64,864,-0.022000000000000002,-1.003,0.076,-1.145916,-0.9740286,0.4583664000000001,93.58123014,-1.45531332,25.743002940000004
