TimeStamp(s),FrameCounter,AccX,AccY,AccZ,GyrX,GyrY,GyrZ,EulerX,EulerY,EulerZ
0.01,1,-0.033,-1.01,0.038,-0.572958,0.057295800000000015,0.9740286,90.94562334,-1.92513888,-48.51808344
0.02,2,-0.035,-1.01,0.038,-0.8021411999999999,0.0,1.0886202,90.93416418,-1.93659804,-48.51808344
0.03,3,-0.036000000000000004,-1.0090000000000001,0.037000000000000005,-0.9740286,0.0,1.0313244000000001,90.9284346,-1.9480572000000005,-48.51808344
0.04,4,-0.037000000000000005,-1.01,0.037000000000000005,-1.0886202,0.11459160000000004,1.3178034,90.91697544,-1.9595163600000003,-48.51808344
0.05,5,-0.037000000000000005,-1.011,0.038,-1.3178034,0.286479,1.3178034,90.8997867,-1.97097552,-48.51235386000001
0.060000000000000005,6,-0.038,-1.01,0.036000000000000004,-1.4896908000000002,0.286479,1.3178034,90.88259796,-1.98243468,-48.51235386000001
0.06999999999999999,7,-0.040999999999999995,-1.008,0.037000000000000005,-1.6042823999999998,0.4583664000000001,1.3750992,90.86540922,-1.99962342,-48.50662428
0.08,8,-0.043,-1.0070000000000001,0.036000000000000004,-1.7188740000000002,0.7448454000000001,1.4896908000000002,90.84822048,-2.01681216,-48.5008947
0.09,9,-0.043,-1.0070000000000001,0.035,-1.8334656000000005,1.2032118,1.6615782,90.83103174,-2.0340009,-48.48943554
0.09999999999999999,10,-0.044000000000000004,-1.0070000000000001,0.035,-2.0626488000000003,1.5469866,1.8334656000000005,90.80811342,-2.05691922,-48.47224680000001
0.11,11,-0.043,-1.0070000000000001,0.033,-2.1772404,1.8334656000000005,2.0626488000000003,90.78519509999998,-2.07410796,-48.455058060000006
0.12,12,-0.040999999999999995,-1.008,0.033,-2.3491277999999998,2.0626488000000003,2.0626488000000003,90.76227678,-2.09702628,-48.43786932
0.13,13,-0.040999999999999995,-1.008,0.033,-2.3491277999999998,1.9480572,1.8907614,90.73362888,-2.1199446,-48.414951
0.14,14,-0.043,-1.0070000000000001,0.032,-2.3491277999999998,1.9480572,1.8334656000000005,90.71071056,-2.13713334,-48.39776225999999
0.15000000000000002,15,-0.043,-1.008,0.033,-2.4637194,1.8334656000000005,1.6615782,90.68206266,-2.15432208,-48.38057352000001
0.16,16,-0.040999999999999995,-1.008,0.033,-2.5783110000000002,1.8907614,1.432395,90.65341476,-2.17151082,-48.36338478
0.17,17,-0.042,-1.01,0.031,-2.8074942000000003,1.9480572,1.2605076000000002,90.62476686,-2.18296998,-48.34046646
0.18000000000000002,18,-0.040999999999999995,-1.011,0.028999999999999998,-2.8074942000000003,1.6615782,1.2032118,90.59611896,-2.19442914,-48.3290073
0.19,19,-0.040999999999999995,-1.011,0.028999999999999998,-2.5783110000000002,1.3178034,1.2032118,90.56747106,-2.21161788,-48.31181856
0.2,20,-0.038,-1.01,0.031,-2.7501984,1.6042823999999998,1.3178034,90.53882316,-2.21734746,-48.3003594
0.21000000000000002,21,-0.037000000000000005,-1.01,0.028999999999999998,-2.9793816000000004,1.7188740000000002,1.2605076000000002,90.50444568,-2.2345362,-48.28317066
0.22,22,-0.038,-1.008,0.026000000000000002,-2.9793816000000004,1.6042823999999998,1.2032118,90.47579778,-2.24599536,-48.26598192
0.23,23,-0.039,-1.0090000000000001,0.022000000000000002,-2.9793816000000004,1.3750992,1.0313244000000001,90.44714988,-2.25745452,-48.25452276
0.24000000000000002,24,-0.044000000000000004,-1.012,0.021,-2.8074942000000003,1.3178034,0.8021411999999999,90.41277240000001,-2.2631841,-48.23733402000001
0.25,25,-0.046,-1.016,0.024,-2.6356068,1.4896908000000002,0.572958,90.3841245,-2.2746432600000004,-48.22587486
0.26,26,-0.043,-1.016,0.027000000000000003,-2.5210152000000003,1.7188740000000002,0.4583664000000001,90.35547659999999,-2.28037284,-48.20868612
0.27,27,-0.038,-1.013,0.027000000000000003,-2.291832,1.6042823999999998,0.4583664000000001,90.33255828,-2.28610242,-48.19149738
0.28,28,-0.037000000000000005,-1.011,0.031,-2.6929026,0.9167328000000001,0.2291832000000001,90.30391038,-2.28610242,-48.185767799999994
0.29000000000000004,29,-0.038,-1.0090000000000001,0.033,-3.0939732,0.5156622000000001,0.0,90.27526248,-2.28610242,-48.18003822000001
0.3,30,-0.04,-1.011,0.031,-3.5523396000000003,0.2291832000000001,-0.2291832000000001,90.23515542,-2.28037284,-48.17430864
0.31,31,-0.044000000000000004,-1.011,0.023,-3.8961144,0.2291832000000001,-0.6302538000000001,90.19504836000002,-2.2746432600000004,-48.17430864
0.32,32,-0.045,-1.012,0.019,-4.010706000000001,0.7448454000000001,-0.8594370000000001,90.1549413,-2.2631841,-48.16857906
0.33,33,-0.045,-1.011,0.018000000000000002,-3.8961144,1.145916,-0.8594370000000001,90.11483424,-2.25745452,-48.1571199
0.34,34,-0.046,-1.01,0.015,-3.7815228,1.6042823999999998,-0.6875496,90.07472718,-2.25172494,-48.13993116
0.35000000000000003,35,-0.044000000000000004,-1.006,0.013000000000000001,-3.5523396000000003,1.9480572,-0.286479,90.02316096,-2.25172494,-48.11701284
0.36000000000000004,36,-0.044000000000000004,-1.002,0.01,-3.4377480000000005,1.8334656000000005,-0.286479,89.98878348,-2.24599536,-48.09982409999999
0.37,37,-0.042,-1.001,0.013000000000000001,-3.4377480000000005,1.7761698000000001,-0.3437748,89.95440599999998,-2.24599536,-48.08263536
0.38,38,-0.040999999999999995,-1.002,0.013000000000000001,-3.6096353999999997,1.8907614,-0.4583664000000001,89.91429894,-2.24026578,-48.06544662
0.39,39,-0.04,-1.004,0.012,-3.9534102,1.8334656000000005,-0.6875496,89.87419188,-2.2345362,-48.04825788
0.4,40,-0.038,-1.005,0.012,-4.4117766,1.6615782,-0.6302538000000001,89.82262566,-2.22307704,-48.03106913999999
0.41000000000000003,41,-0.039,-1.008,0.01,-4.5263682,1.4896908000000002,-0.6302538000000001,89.77105944,-2.21734746,-48.01388040000001
0.42000000000000004,42,-0.04,-1.008,0.009000000000000001,-4.6982555999999995,1.432395,-0.5156622000000001,89.72522280000004,-2.21161788,-48.00242124
0.43,43,-0.039,-1.0070000000000001,0.009000000000000001,-4.3544808,1.3750992,-0.3437748,89.67938615999998,-2.21161788,-47.99096208
0.44,44,-0.038,-1.005,0.008,-3.8388186,1.2032118,-0.286479,89.6392791,-2.2058883,-47.97950292
0.45,45,-0.039,-1.006,0.01,-3.7815228,1.0886202,-0.2291832000000001,89.59917204,-2.20015872,-47.96804376
0.46,46,-0.042,-1.0070000000000001,0.011000000000000001,-3.8388186,1.3750992,0.0,89.55906498,-2.20015872,-47.95085502
0.47000000000000003,47,-0.043,-1.006,0.008,-3.8961144,2.0053530000000004,0.286479,89.51895792,-2.2058883,-47.93366628
0.48000000000000004,48,-0.046,-1.005,0.006,-3.6096353999999997,2.3491277999999998,0.40107059999999994,89.47885086,-2.21161788,-47.91074796
0.49,49,-0.047,-1.005,0.006,-3.2658606,2.5210152000000003,0.3437748,89.44447338,-2.21161788,-47.88782964
0.5,50,-0.045,-1.008,0.008,-3.0366774,2.5783110000000002,0.0,89.4100959,-2.21734746,-47.85918174
0.51,51,-0.043,-1.011,0.009000000000000001,-2.9220858,2.5783110000000002,-0.11459160000000004,89.37571842,-2.21734746,-47.83626342
0.52,52,-0.042,-1.016,0.012,-3.380452200000001,2.86479,-0.1718874,89.34134094,-2.21734746,-47.80761552
0.53,53,-0.040999999999999995,-1.015,0.015,-3.9534102,3.0366774,-0.1718874,89.30123388000001,-2.21161788,-47.77896762
0.54,54,-0.039,-1.014,0.016,-4.583664,3.0366774,-0.1718874,89.24966766,-2.21161788,-47.74459014
0.55,55,-0.036000000000000004,-1.013,0.016,-4.9847346,2.6929026,-0.1718874,89.20383102000002,-2.2058883,-47.72167182000001
0.56,56,-0.036000000000000004,-1.012,0.015,-5.1566220000000005,1.8907614,-0.286479,89.1522648,-2.20015872,-47.6987535
0.5700000000000001,57,-0.036000000000000004,-1.011,0.012,-5.5003968,1.145916,-0.572958,89.09496899999998,-2.20015872,-47.69302392
0.5800000000000001,58,-0.035,-1.01,0.009000000000000001,-5.6722842,0.4583664000000001,-0.8594370000000001,89.03767320000001,-2.18869956,-47.68729434
0.59,59,-0.035,-1.01,0.003,-5.7868758000000025,0.11459160000000004,-0.8021411999999999,88.98037740000002,-2.18296998,-47.68729434
0.6,60,-0.035,-1.006,-0.002,-5.72958,0.0,-0.7448454000000001,88.91735202,-2.1657812400000003,-47.68729434
0.61,61,-0.035,-1.0070000000000001,-0.005,-5.6149884000000005,0.1718874,-0.6302538000000001,88.86005622,-2.16005166,-47.68729434
0.62,62,-0.037000000000000005,-1.008,-0.006,-5.5003968,0.4583664000000001,-0.4583664000000001,88.80276042,-2.16005166,-47.68156476
0.63,63,-0.038,-1.008,-0.008,-5.5576926,0.6875496,-0.3437748,88.74546462,-2.15432208,-47.67583517999999
0.64,64,-0.038,-1.013,-0.006,-5.72958,0.7448454000000001,-0.3437748,88.68243924,-2.1485925000000003,-47.67010560000001
0.65,65,-0.038,-1.0170000000000001,-0.009000000000000001,-6.0160589999999985,0.8021411999999999,-0.286479,88.61368428,-2.14286292,-47.65864644
0.66,66,-0.037000000000000005,-1.016,-0.013000000000000001,-6.417129599999999,0.7448454000000001,-0.2291832000000001,88.5506589,-2.14286292,-47.65291686
0.67,67,-0.036000000000000004,-1.014,-0.015,-6.703608600000001,0.5156622000000001,-0.11459160000000004,88.48190394,-2.14286292,-47.64718728
0.68,68,-0.035,-1.012,-0.017,-6.7609043999999985,0.11459160000000004,0.0,88.41314897999996,-2.14286292,-47.64718728
0.6900000000000001,69,-0.035,-1.011,-0.018000000000000002,-6.875496000000001,0.0,-0.057295800000000015,88.34439402000002,-2.14286292,-47.64718728
0.7000000000000001,70,-0.035,-1.011,-0.015,-7.2192707999999985,0.0,-0.1718874,88.26417990000002,-2.13713334,-47.64718728
0.7100000000000001,71,-0.035,-1.012,-0.017,-7.734933000000002,-0.1718874,-0.3437748,88.18396578000002,-2.13140376,-47.65291686
0.72,72,-0.035,-1.016,-0.02,-8.307891,-0.286479,-0.572958,88.09802207999998,-2.12567418,-47.65291686
0.73,73,-0.034,-1.0170000000000001,-0.025,-8.8235532,-0.5156622000000001,-0.6875496,88.01207838,-2.1199446,-47.66437602000001
0.74,74,-0.034,-1.016,-0.028999999999999998,-9.1100322,-0.7448454000000001,-0.572958,87.91467551999996,-2.11421502,-47.67010560000001
0.75,75,-0.033,-1.014,-0.032,-9.2819196,-1.2032118,-0.40107059999999994,87.81154308,-2.10848544,-47.68156476
0.76,76,-0.034,-1.013,-0.036000000000000004,-9.6256944,-1.7761698000000001,-0.3437748,87.7198698,-2.10275586,-47.70448308
0.77,77,-0.034,-1.011,-0.039,-9.7975818,-2.2345362,-0.5156622000000001,87.61673736,-2.10275586,-47.72740140000001
0.78,78,-0.033,-1.008,-0.040999999999999995,-10.026765,-2.7501984,-0.6875496,87.5193345,-2.09702628,-47.75604930000001
0.79,79,-0.034,-1.006,-0.042,-10.2559482,-3.0939732,-0.8594370000000001,87.41620206,-2.08556712,-47.79042678
0.8,80,-0.034,-1.0070000000000001,-0.042,-10.5424272,-3.380452200000001,-1.0313244000000001,87.30161045999998,-2.07410796,-47.82480425999999
0.81,81,-0.038,-1.0090000000000001,-0.043,-11.0580894,-3.7242269999999995,-1.2032118,87.19274844,-2.06837838,-47.86491131999999
0.8200000000000001,82,-0.04,-1.012,-0.042,-11.5164558,-4.1252976000000015,-1.6042823999999998,87.07815683999998,-2.05118964,-47.90501838
0.8300000000000001,83,-0.038,-1.016,-0.045,-12.032118,-4.1252976000000015,-1.7188740000000002,86.95783566,-2.0340009,-47.95085502
0.8400000000000001,84,-0.035,-1.014,-0.05,-12.4904844,-4.5263682,-1.8907614,86.83178489999996,-2.01681216,-47.99669166
0.85,85,-0.032,-1.015,-0.055999999999999994,-13.0061466,-4.9274388,-1.8907614,86.69427498,-1.99962342,-48.04825788
0.86,86,-0.03,-1.018,-0.061,-13.8655836,-5.443101,-2.0053530000000004,86.55676506,-1.98243468,-48.10555368
0.87,87,-0.028999999999999998,-1.0190000000000001,-0.068,-14.667724800000002,-6.130650599999999,-2.1772404,86.40779597999996,-1.96524594,-48.16857906
0.88,88,-0.034,-1.016,-0.07400000000000001,-15.183387000000002,-6.5317212,-2.3491277999999998,86.2588269,-1.94232762,-48.23733402000001
0.89,89,-0.039,-1.016,-0.076,-15.469866,-6.703608600000001,-2.7501984,86.10412824,-1.9194093000000003,-48.30608897999999
0.9,90,-0.039,-1.016,-0.073,-15.6417534,-6.4744254,-2.9793816000000004,85.9437,-1.89649098,-48.37484394
0.91,91,-0.036000000000000004,-1.012,-0.071,-15.870936600000002,-6.2452422,-3.3231564,85.78327176,-1.86784308,-48.43786932
0.92,92,-0.031,-1.0070000000000001,-0.07,-15.813640800000002,-6.0733548,-3.6096353999999997,85.62857310000003,-1.8334656000000005,-48.50662428
0.93,93,-0.028999999999999998,-1.004,-0.07200000000000001,-16.615782,-5.2139178,-3.7242269999999995,85.46241528,-1.79908812,-48.5581905
0.9400000000000001,94,-0.028999999999999998,-1.003,-0.076,-18.1054728,-4.6982555999999995,-3.6669312000000014,85.27906872,-1.77044022,-48.60975672
0.9500000000000001,95,-0.031,-1.004,-0.081,-19.194093,-4.4117766,-3.5523396000000003,85.07853342,-1.73606274,-48.66132294000001
0.9600000000000001,96,-0.033,-1.008,-0.091,-19.8243468,-4.297185,-3.2658606,84.8837277,-1.7074148399999998,-48.70715958
0.97,97,-0.028999999999999998,-1.005,-0.10300000000000001,-19.8243468,-4.3544808,-3.1512689999999997,84.68319240000002,-1.6787669399999998,-48.75872579999999
0.98,98,-0.025,-1.001,-0.115,-19.595163600000006,-4.3544808,-3.0366774,84.4826571,-1.6558486199999998,-48.80456244000001
0.99,99,-0.024,-0.997,-0.115,-19.2513888,-4.1252976000000015,-3.0366774,84.29358096,-1.6329303,-48.85039908
1.0,100,-0.026000000000000002,-1.0,-0.11199999999999999,-19.4232762,-3.0939732,-3.2658606,84.08731608000002,-1.59855282,-48.88477656
1.01,101,-0.031,-1.005,-0.11800000000000001,-20.1108258,-2.291832,-3.8961144,83.8810512,-1.56417534,-48.91342446
1.02,102,-0.036000000000000004,-1.011,-0.11699999999999999,-20.7410796,-1.7761698000000001,-4.6982555999999995,83.67478632,-1.52406828,-48.94207236
1.03,103,-0.038,-1.013,-0.126,-21.7151082,-0.8021411999999999,-5.3285094000000015,83.45133270000002,-1.47250206,-48.95353152
1.04,104,-0.038,-1.013,-0.141,-22.4026578,-0.1718874,-5.5003968,83.22787908000002,-1.4209358399999998,-48.96499067999999
1.05,105,-0.038,-1.011,-0.153,-22.4599536,0.6302538000000001,-5.7868758000000025,82.98150714,-1.36364004,-48.97072026
1.06,106,-0.039,-0.997,-0.171,-22.6891368,1.9480572,-6.2452422,82.75232394,-1.30634424,-48.959261100000006
1.07,107,-0.031,-0.982,-0.187,-22.7464326,3.4950437999999995,-6.3025379999999975,82.52314074,-1.24331886,-48.93634278
1.08,108,-0.018000000000000002,-0.978,-0.193,-22.7464326,5.1566220000000005,-6.4744254,82.28822796,-1.1745639,-48.89623572000001
1.09,109,-0.011000000000000001,-0.98,-0.188,-23.5485738,6.8182002000000015,-6.7609043999999985,82.04758559999998,-1.10007936,-48.83893992
1.1,110,-0.013000000000000001,-0.986,-0.175,-25.496631,8.59437,-6.589017,81.77829534,-1.0255948199999998,-48.76445538
1.11,111,-0.017,-0.982,-0.163,-27.043617600000005,9.682990199999999,-6.0733548,81.49754592000002,-0.95683986,-48.68424126
1.12,112,-0.019,-0.9790000000000001,-0.174,-29.1062664,10.7143146,-5.0993262,81.19960776,-0.89954406,-48.58683840000001
1.1300000000000001,113,-0.013999999999999999,-0.9790000000000001,-0.187,-31.741873200000004,11.5737516,-4.2398892,80.87302170000002,-0.8479778399999999,-48.48370596
1.1400000000000001,114,-0.005,-0.9740000000000001,-0.19899999999999998,-34.3201842,11.9748222,-3.2658606,80.52351732,-0.8021412000000001,-48.37484394
1.1500000000000001,115,0.001,-0.961,-0.203,-35.46610020000001,12.032118,-2.291832,80.15109462000002,-0.76203414,-48.26025234
1.1600000000000001,116,0.0,-0.943,-0.207,-36.096354,11.172680999999999,-0.7448454000000001,79.77867192,-0.7391158200000001,-48.1571199
1.17,117,-0.003,-0.927,-0.20600000000000002,-36.32553720000001,10.2559482,0.7448454000000001,79.4119788,-0.7391158200000001,-48.05971704
1.18,118,0.0,-0.9209999999999999,-0.21,-36.7839036,9.6256944,2.2345362,79.03382652,-0.7448454000000001,-47.96231418000001
1.19,119,0.005,-0.924,-0.218,-37.757932200000006,8.8235532,3.0366774,78.64994466,-0.76776372,-47.87637048
1.2,120,0.006,-0.93,-0.231,-38.961144,7.7922288,3.6096353999999997,78.24314448,-0.7906820400000001,-47.79615636000001
1.21,121,0.005,-0.938,-0.245,-39.47680620000001,6.6463128000000005,4.010706000000001,77.83634430000002,-0.8193299399999999,-47.72740140000001
1.22,122,0.006999999999999999,-0.937,-0.261,-39.820581,6.0160589999999985,4.0680017999999984,77.42954411999997,-0.8537074199999999,-47.66437602000001
1.23,123,0.006999999999999999,-0.938,-0.289,-39.9924684,6.130650599999999,3.6669312000000014,77.02274394,-0.8823553199999999,-47.60135064
1.24,124,0.013000000000000001,-0.9420000000000001,-0.324,-39.7059894,6.7609043999999985,3.4377480000000005,76.62167334,-0.90527364,-47.53259568
1.25,125,0.018000000000000002,-0.9540000000000001,-0.359,-39.820581,5.958763200000001,3.6096353999999997,76.19195484000002,-0.92819196,-47.46384072
1.26,126,0.021,-0.963,-0.376,-40.04976420000001,3.9534102,3.5523396000000003,75.78515466,-0.95683986,-47.42373366
1.27,127,-0.006,-0.946,-0.33299999999999996,-39.19032720000001,0.40107059999999994,3.6096353999999997,75.38408405999998,-0.9969469199999998,-47.4122745
1.28,128,-0.051,-0.9009999999999999,-0.22399999999999998,-38.2162986,-4.9847346,3.7242269999999995,75.0002022,-1.04851314,-47.45811113999999
1.29,129,-0.094,-0.8540000000000001,-0.153,-38.159002799999996,-10.084060800000001,3.9534102,74.61632033999999,-1.1172681,-47.54405484
1.3,130,-0.105,-0.871,-0.10300000000000001,-39.7059894,-11.2299768,3.0366774,74.23816806,-1.18602306,-47.65291686
1.31,131,-0.09300000000000001,-0.943,-0.10099999999999999,-43.602103799999995,-8.479778399999999,-0.5156622000000001,73.79699040000001,-1.2032117999999998,-47.738860560000006
1.32,132,-0.064,-1.02,-0.196,-48.0138804,-5.2139178,-4.6409598,73.3099761,-1.18029348,-47.80188594
1.33,133,-0.035,-1.05,-0.253,-48.4722468,-4.1252976000000015,-8.021412000000002,72.8229618,-1.1172681,-47.8706409
1.34,134,-0.022000000000000002,-1.045,-0.225,-49.5035712,-1.8334656000000005,-10.7716104,72.31875876000002,-1.0255948199999998,-47.9279367
1.35,135,-0.013999999999999999,-1.0270000000000001,-0.18100000000000002,-52.3683612,1.6042823999999998,-12.4904844,71.79736698,-0.91100322,-47.95085502
1.36,136,-0.028999999999999998,-1.004,-0.213,-54.717489,2.0626488000000003,-11.802934800000001,71.24159771999999,-0.8021412000000001,-47.97377334
1.37,137,-0.004,-0.982,-0.222,-56.4936588,1.0886202,-10.1986524,70.66863972,-0.70473834,-48.00242124
1.3800000000000001,138,-0.009000000000000001,-0.973,-0.188,-55.7488134,-0.6875496,-7.0473834,70.10714088,-0.64744254,-48.03679872
1.3900000000000001,139,-0.027999999999999997,-0.97,-0.196,-57.8114622,-4.4690724,-3.2085647999999996,69.51699414,-0.64171296,-48.09409452
1.4000000000000001,140,-0.039,-0.965,-0.243,-60.16059,-9.0527364,-1.6042823999999998,68.91538824,-0.66463128,-48.19149738
1.4100000000000001,141,-0.042,-0.9590000000000001,-0.29,-60.44706899999999,-10.886202,-2.4637194,68.30805276,-0.68182002,-48.30608897999999
1.42,142,-0.031,-0.951,-0.311,-59.35844880000001,-11.917526400000002,-5.7868758000000025,67.70644686,-0.68182002,-48.4435989
1.43,143,-0.018000000000000002,-0.932,-0.33799999999999997,-57.123912600000004,-11.8602306,-9.396511199999999,67.12775927999999,-0.64171296,-48.59256798
1.44,144,-0.005,-0.892,-0.344,-53.571573,-11.802934800000001,-13.0061466,66.58917876000001,-0.5729580000000001,-48.75299622
1.45,145,0.019,-0.8759999999999999,-0.32899999999999996,-50.76407879999999,-11.6310474,-16.2147114,66.07924614,-0.46982556,-48.9306132
1.46,146,0.021,-0.841,-0.32299999999999995,-50.5348956,-11.745639,-18.506543399999998,65.56931352000001,-0.35523396,-49.11395975999999
1.47,147,0.016,-0.833,-0.282,-49.3316838,-11.1153852,-19.365980399999998,65.07084006,-0.22918320000000006,-49.30303590000001
1.48,148,0.003,-0.8320000000000001,-0.239,-52.54024860000001,-9.9121734,-18.1054728,64.53798911999999,-0.10886202,-49.46919372000001
1.49,149,-0.011000000000000001,-0.831,-0.251,-56.78013780000001,-10.2559482,-15.4125702,63.95930154,-0.01718874,-49.63535154
1.5,150,-0.024,-0.8290000000000001,-0.312,-59.8168152,-11.0007936,-12.3758928,63.36342522,0.028647900000000007,-49.7900502
1.51,151,-0.025,-0.836,-0.344,-60.9627312,-10.5424272,-10.084060800000001,62.74463058,0.06875496,-49.9332897
1.52,152,-0.01,-0.8440000000000001,-0.366,-61.36380179999999,-9.682990199999999,-8.9954406,62.12010636,0.09740286,-50.06507004
1.53,153,0.006999999999999999,-0.833,-0.39399999999999996,-61.020027,-8.4224826,-9.2819196,61.50131172,0.13178034,-50.18539122
1.54,154,0.032,-0.812,-0.42,-59.4157446,-6.0160589999999985,-10.828906199999999,60.89970582,0.19480572,-50.29425324
1.55,155,0.044000000000000004,-0.8,-0.419,-56.72284200000001,-3.7815228,-12.261301199999998,60.32101824,0.28074942,-50.3916561
1.56,156,0.027999999999999997,-0.7879999999999999,-0.426,-52.7694318,-4.1252976000000015,-11.8602306,59.7881673,0.35523396,-50.48905896
1.57,157,0.01,-0.768,-0.381,-49.274388,-6.417129599999999,-10.4851314,59.28969384000001,0.40680018,-50.60365056000001
1.58,158,-0.002,-0.755,-0.336,-48.4722468,-7.1046792000000005,-9.167328,58.796949960000006,0.44690724,-50.71251258
1.59,159,-0.016,-0.774,-0.358,-47.784697200000004,-6.0160589999999985,-8.59437,58.30993566,0.48128472,-50.80991544000001
1.6,160,-0.027000000000000003,-0.797,-0.396,-49.90464179999999,-3.4377480000000005,-7.2192707999999985,57.8114622,0.5156622000000001,-50.88439998
1.61,161,-0.03,-0.807,-0.439,-50.47759979999999,-1.3750992,-5.7868758000000025,57.2958,0.55003968,-50.93023662
1.62,162,-0.017,-0.812,-0.484,-50.76407879999999,-0.5156622000000001,-4.0680017999999984,56.78013780000001,0.5786875800000001,-50.95888452
1.6300000000000001,163,-0.006,-0.79,-0.515,-50.5348956,-0.8021411999999999,-2.4637194,56.2644756,0.5844171599999999,-50.98180284
1.6400000000000001,164,-0.001,-0.7659999999999999,-0.491,-47.9565846,-1.5469866,-2.2345362,55.77746129999999,0.59014674,-51.01045074
1.6500000000000001,165,0.006999999999999999,-0.745,-0.47600000000000003,-45.4928652,-0.6875496,-2.4064236,55.3190949,0.6016058999999999,-51.02763948000001
1.6600000000000001,166,0.02,-0.74,-0.473,-44.6334282,1.432395,-2.2345362,54.86645808000001,0.61879464,-51.03336906
1.6700000000000002,167,0.028999999999999998,-0.731,-0.46,-44.690723999999996,3.7815228,-1.6042823999999998,54.41382126,0.64744254,-51.01618032
1.68,168,0.004,-0.7490000000000001,-0.47100000000000003,-43.315624799999995,4.8128472,0.8594370000000001,53.97264360000001,0.66463128,-50.97034368
1.69,169,-0.026000000000000002,-0.742,-0.509,-43.0864416,4.7555514,2.7501984,53.53146594,0.66463128,-50.91877746
1.7,170,-0.026000000000000002,-0.725,-0.532,-41.252976000000004,5.2712136,3.7242269999999995,53.1132066,0.65317212,-50.85575208
1.71,171,-0.034,-0.7120000000000001,-0.55,-37.41415739999999,5.2139178,4.9847346,52.72932474,0.63598338,-50.78126754
1.72,172,-0.027999999999999997,-0.705,-0.544,-33.0596766,4.8128472,5.844171599999999,52.39700910000001,0.61306506,-50.71251258
1.73,173,-0.022000000000000002,-0.687,-0.545,-30.022999199999997,3.5523396000000003,6.1879464,52.09334136,0.5786875800000001,-50.64375762
1.74,174,0.004,-0.679,-0.5539999999999999,-26.1841806,3.2658606,5.844171599999999,51.8240511,0.55003968,-50.58646182
1.75,175,0.024,-0.69,-0.5379999999999999,-21.5432208,4.010706000000001,5.0993262,51.60632706,0.53858052,-50.52343644
1.76,176,0.023,-0.713,-0.529,-19.480572,4.583664,5.3285094000000015,51.41152134,0.52139178,-50.45468147999999
1.77,177,0.026000000000000002,-0.71,-0.546,-18.277360199999997,5.5576926,5.844171599999999,51.2224452,0.5042030399999999,-50.37446736
1.78,178,0.02,-0.708,-0.568,-16.7876694,6.130650599999999,6.4744254,51.0505578,0.4870143000000001,-50.28852366
1.79,179,-0.001,-0.711,-0.5920000000000001,-13.6936962,5.3285094000000015,7.5057497999999985,50.91304787999999,0.4583664000000001,-50.19685038
1.8,180,-0.006999999999999999,-0.708,-0.597,-10.2559482,4.5263682,8.250595200000001,50.79845628,0.41825934,-50.11090668000001
1.81,181,0.001,-0.703,-0.594,-5.844171599999999,4.9274388,8.3651868,50.735430900000004,0.38388186,-50.01923340000001
1.82,182,0.015,-0.708,-0.59,-2.1772404,6.703608600000001,7.7922288,50.71251258,0.36096354,-49.91610096
1.83,183,0.024,-0.726,-0.596,-0.11459160000000004,8.880849000000003,7.2192707999999985,50.71251258,0.36096354,-49.80150936
1.84,184,0.025,-0.737,-0.612,2.5210152000000003,8.8235532,7.161975,50.74116048,0.36096354,-49.68691776000001
1.85,185,0.034,-0.745,-0.63,5.3858052,7.5057497999999985,6.990087599999999,50.77553796,0.36669312,-49.58378532
1.86,186,0.051,-0.7390000000000001,-0.63,7.6203414,6.8182002000000015,5.844171599999999,50.85575208,0.36096354,-49.49211204
1.87,187,0.066,-0.735,-0.609,11.5737516,7.2192707999999985,4.0680017999999984,50.97034368,0.37815228,-49.41189792
1.8800000000000001,188,0.062,-0.7440000000000001,-0.62,13.8655836,6.703608600000001,3.2658606,51.11358317999999,0.38961144,-49.33741338
1.8900000000000001,189,0.044000000000000004,-0.743,-0.606,15.5844576,5.6722842,2.8074942000000003,51.26828184,0.40680018,-49.274388
1.9000000000000001,190,0.035,-0.742,-0.609,17.7044022,5.443101,1.8334656000000005,51.43443966,0.43544808,-49.2170922
1.9100000000000001,191,0.046,-0.74,-0.613,20.454600600000006,6.1879464,0.8594370000000001,51.64643412,0.46982556,-49.1597964
1.9200000000000002,192,0.055,-0.748,-0.612,24.0069402,6.4744254,0.5156622000000001,51.88707648,0.5042030399999999,-49.10823018
1.93,193,0.063,-0.7559999999999999,-0.626,27.100913399999996,5.6149884000000005,0.7448454000000001,52.16209632,0.53858052,-49.05666396
1.94,194,0.06,-0.7709999999999999,-0.629,30.7105488,2.1199446,1.0886202,52.477223220000006,0.5443101,-49.02801606000001
1.95,195,0.046,-0.774,-0.608,34.37748,-2.2345362,0.6875496,52.81526844,0.53858052,-49.03947522
1.96,196,0.053,-0.77,-0.606,37.3568616,-3.9534102,-0.8021411999999999,53.193420720000006,0.52712136,-49.07958228
1.97,197,0.064,-0.7659999999999999,-0.5870000000000001,40.7946096,-3.7242269999999995,-2.6356068,53.61168005999999,0.53285094,-49.11968934
1.98,198,0.064,-0.767,-0.5529999999999999,44.404245,-3.5523396000000003,-4.1252976000000015,54.06431688,0.55003968,-49.17125556000001
1.99,199,0.055,-0.772,-0.5379999999999999,47.211739200000004,-3.0939732,-5.2139178,54.53987202,0.5844171599999999,-49.22855136
2.0,200,0.04,-0.787,-0.529,49.2170922,-2.6356068,-6.130650599999999,55.03834548,0.6302538000000001,-49.28011758000001
2.01,201,0.038,-0.802,-0.527,50.0192334,-1.8334656000000005,-6.990087599999999,55.54827810000001,0.68182002,-49.33168379999999
2.02,202,0.043,-0.818,-0.542,51.10785360000001,-2.1199446,-7.0473834,56.06394029999999,0.7391158200000001,-49.38897959999999
2.03,203,0.044000000000000004,-0.836,-0.546,52.6548402,-4.6982555999999995,-6.6463128000000005,56.60252082,0.7734933,-49.46346414
2.04,204,0.053,-0.852,-0.542,53.8007562,-7.734933000000002,-6.589017,57.14683092,0.79641162,-49.560867
2.05,205,0.064,-0.8640000000000001,-0.527,54.08723520000001,-9.396511199999999,-6.8182002000000015,57.696870600000004,0.8193299399999999,-49.6754586
2.0599999999999996,206,0.065,-0.867,-0.484,53.22779820000001,-9.396511199999999,-7.333862400000001,58.23545111999999,0.8422482600000001,-49.7900502
2.07,207,0.063,-0.865,-0.48200000000000004,52.19647379999999,-8.136003599999999,-7.8495246,58.76257248,0.87089616,-49.89891222
2.0799999999999996,208,0.047,-0.863,-0.49,50.3630082,-6.990087599999999,-8.136003599999999,59.27823468,0.9167328,-49.99631508
2.09,209,0.024,-0.8540000000000001,-0.485,49.274388,-5.9014674000000005,-8.3651868,59.77670814,0.96256944,-50.08798836
2.0999999999999996,210,0.016,-0.8540000000000001,-0.48100000000000004,48.5868384,-4.297185,-8.880849000000003,60.26372244,1.0255948199999998,-50.16820248000001
2.11,211,0.028999999999999998,-0.865,-0.5,47.211739200000004,-2.1199446,-8.880849000000003,60.74500716,1.10007936,-50.22549828
2.1199999999999997,212,0.055999999999999994,-0.8859999999999999,-0.5529999999999999,45.607456799999994,-2.0053530000000004,-7.6203414,61.20337356,1.16310474,-50.2770645
2.13,213,0.066,-0.892,-0.544,46.00852740000001,-4.297185,-5.9014674000000005,61.67319911999999,1.2032117999999998,-50.34008988
2.1399999999999997,214,0.062,-0.9,-0.539,47.0398518,-7.161975,-4.5263682,62.14875426,1.21467096,-50.420303999999994
2.15,215,0.053,-0.9179999999999999,-0.516,47.784697200000004,-8.3651868,-3.6096353999999997,62.63003898,1.22040054,-50.51197728
2.1599999999999997,216,0.028999999999999998,-0.925,-0.4970000000000001,47.67010560000001,-8.8235532,-3.2085647999999996,63.11132370000001,1.22040054,-50.60365056000001
2.17,217,-0.001,-0.9209999999999999,-0.498,47.269035,-8.078707799999998,-3.0366774,63.59260842,1.22040054,-50.68386468
2.1799999999999997,218,-0.013000000000000001,-0.9259999999999999,-0.511,47.67010560000001,-6.0160589999999985,-3.4950437999999995,64.07389314,1.2318597,-50.75261964
2.19,219,-0.003,-0.95,-0.516,48.8160216,-4.010706000000001,-3.4950437999999995,64.56663702,1.24904844,-50.79845628
2.1999999999999997,220,0.01,-0.972,-0.495,50.3630082,-3.4950437999999995,-2.0053530000000004,65.07084006,1.2605076000000002,-50.83856333999999
2.21,221,0.021,-0.9670000000000001,-0.475,51.852699,-3.8961144,0.0,65.59796142,1.25477802,-50.86721124
2.2199999999999998,222,0.035,-0.9670000000000001,-0.45399999999999996,53.39968560000001,-4.0680017999999984,1.8907614,66.14227152,1.22613012,-50.89585913999999
2.23,223,0.039,-0.972,-0.4320000000000001,55.06126379999999,-4.4690724,3.3231564,66.69804078,1.18602306,-50.91877746
2.2399999999999998,224,0.033,-0.9840000000000001,-0.41600000000000004,56.436363,-4.4690724,4.0680017999999984,67.27099878,1.14018642,-50.94169578
2.25,225,0.013999999999999999,-1.0,-0.409,57.63957480000001,-3.9534102,4.1825934,67.85541594,1.0886202,-50.95315494000001
2.26,226,-0.01,-1.026,-0.39,58.78549079999999,-3.2085647999999996,3.7242269999999995,68.45129225999999,1.05424272,-50.97034368
2.27,227,-0.019,-1.047,-0.373,59.93140680000001,-1.7188740000000002,3.2658606,69.06435732,1.01986524,-50.9646141
2.28,228,-0.016,-1.071,-0.363,61.020027,-0.6875496,2.9793816000000004,69.68315196,0.9969469199999998,-50.95888452
2.29,229,-0.006999999999999999,-1.092,-0.337,62.2805346,-0.3437748,3.2085647999999996,70.31340576,0.9740286,-50.94742536
2.3,230,-0.01,-1.121,-0.33,62.910788399999994,-0.11459160000000004,3.380452200000001,70.95511872,0.9453807,-50.93023662
2.31,231,-0.008,-1.148,-0.313,62.68160520000001,0.286479,3.0939732,71.5911021,0.92819196,-50.91304787999999
2.32,232,0.005,-1.171,-0.298,61.994055599999996,1.3178034,2.5783110000000002,72.2213559,0.91100322,-50.89012956
2.3299999999999996,233,0.013000000000000001,-1.185,-0.29100000000000004,60.8481396,1.8334656000000005,2.4064236,72.84015054,0.89954406,-50.85575208
2.34,234,0.011000000000000001,-1.188,-0.276,59.64492779999999,1.9480572,2.6929026,73.44748602000001,0.8880849000000001,-50.827104180000006
2.3499999999999996,235,0.01,-1.181,-0.258,58.72819499999999,1.6615782,3.1512689999999997,74.04909192,0.86516658,-50.79845628
2.36,236,0.011000000000000001,-1.169,-0.242,57.63957480000001,1.145916,4.010706000000001,74.63350908,0.83651868,-50.76980838000001
2.3699999999999997,237,0.006999999999999999,-1.158,-0.226,56.9520252,0.0,5.042030400000002,75.21219666,0.79641162,-50.75261964
2.38,238,0.005,-1.143,-0.203,56.66554620000001,-1.2032118,6.1879464,75.78515466,0.7391158200000001,-50.74116048
2.3899999999999997,239,0.009000000000000001,-1.129,-0.184,56.6082504,-2.4637194,7.2765666,76.36384224,0.6703608600000001,-50.74116048
2.4,240,0.015,-1.115,-0.168,56.6082504,-3.8388186,8.021412000000002,76.94252982,0.59014674,-50.75834922
2.4099999999999997,241,0.013999999999999999,-1.099,-0.149,56.6082504,-5.0993262,8.3651868,77.51548782,0.5042030399999999,-50.78126754
2.42,242,0.009000000000000001,-1.085,-0.132,56.4936588,-5.6722842,8.4224826,78.09417540000003,0.41825934,-50.81564502
2.4299999999999997,243,0.0,-1.07,-0.11900000000000001,56.3217714,-6.0160589999999985,8.250595200000001,78.6671334,0.33231564,-50.85575208
2.44,244,-0.006,-1.0590000000000002,-0.099,56.4936588,-5.72958,8.193299399999999,79.24009140000003,0.24637194,-50.89012956
2.4499999999999997,245,-0.013000000000000001,-1.047,-0.087,56.3217714,-4.7555514,8.5370742,79.81877897999998,0.16042824,-50.91304787999999
2.46,246,-0.019,-1.034,-0.077,56.0352924,-3.7242269999999995,8.8235532,80.39173698,0.07448454,-50.93023662
2.4699999999999998,247,-0.023,-1.026,-0.069,55.7488134,-2.86479,8.9381448,80.95896540000003,-0.00572958,-50.94169578
2.48,248,-0.023,-1.015,-0.059000000000000004,55.4623344,-1.8334656000000005,8.8235532,81.52046424,-0.0859437,-50.94169578
2.4899999999999998,249,-0.019,-1.005,-0.05,55.290447,-0.572958,8.479778399999999,82.08196308000002,-0.16615782,-50.93023662
2.5,250,-0.013999999999999999,-1.006,-0.042,54.43101,0.8021411999999999,7.9641161999999985,82.64346192,-0.24064236,-50.90158872
2.51,251,-0.01,-1.0070000000000001,-0.037000000000000005,53.285093999999994,2.1199446,7.734933000000002,83.18204244,-0.30939732,-50.86721124
2.52,252,-0.015,-1.01,-0.031,51.9099948,3.2658606,8.136003599999999,83.7091638,-0.38388186,-50.82137460000001
2.53,253,-0.02,-1.0090000000000001,-0.031,51.10785360000001,3.7815228,8.250595200000001,84.22482600000002,-0.4583664000000001,-50.76980838000001
2.54,254,-0.022000000000000002,-1.0090000000000001,-0.024,50.47759979999999,4.0680017999999984,7.9641161999999985,84.74048819999999,-0.52712136,-50.71824216
2.55,255,-0.027000000000000003,-1.011,-0.013000000000000001,49.7900502,4.4690724,7.2765666,85.25042082,-0.59587632,-50.66094636
2.56,256,-0.024,-1.015,-0.006999999999999999,48.9306132,5.2139178,6.6463128000000005,85.7431647,-0.65317212,-50.59792098
2.57,257,-0.013999999999999999,-1.0190000000000001,-0.002,48.071176200000004,5.9014674000000005,6.130650599999999,86.23017899999998,-0.7104679199999999,-50.52916602000001
2.5799999999999996,258,-0.006,-1.031,0.008,46.8679644,7.0473834,6.0733548,86.70573413999998,-0.76203414,-50.45468147999999
2.59,259,-0.009000000000000001,-1.044,0.013999999999999999,45.3782736,8.021412000000002,6.3025379999999975,87.16410053999998,-0.8193299399999999,-50.3630082
2.5999999999999996,260,-0.017,-1.046,0.03,43.48751220000001,8.3651868,6.703608600000001,87.61100778,-0.8823553199999999,-50.2770645
2.61,261,-0.019,-1.048,0.044000000000000004,42.05511720000001,9.2819196,6.7609043999999985,88.03499670000002,-0.9453807,-50.17393206
2.6199999999999997,262,-0.01,-1.0490000000000002,0.04,39.9351726,10.4851314,6.703608600000001,88.44179688,-1.00840608,-50.06507004
2.63,263,-0.005,-1.057,0.038,37.757932200000006,11.401864199999999,6.6463128000000005,88.81994916,-1.07143146,-49.94474886
2.6399999999999997,264,-0.011000000000000001,-1.065,0.045,35.9817624,11.5164558,6.8182002000000015,89.1809127,-1.13445684,-49.82442768
2.65,265,-0.013999999999999999,-1.068,0.066,34.4347758,11.9748222,6.8182002000000015,89.53614666000001,-1.2032117999999998,-49.70410650000001
2.6599999999999997,266,-0.013999999999999999,-1.0659999999999998,0.078,32.142943800000005,12.7196676,6.3598338,89.85700313999996,-1.26623718,-49.57232616
2.67,267,-0.013999999999999999,-1.069,0.07400000000000001,29.5646328,13.5791046,5.844171599999999,90.1549413,-1.32353298,-49.43481624
2.6799999999999997,268,-0.017,-1.078,0.057999999999999996,27.100913399999996,13.2926256,5.6722842,90.42423156,-1.38655836,-49.30303590000001
2.69,269,-0.019,-1.081,0.055,25.6112226,12.2040054,5.6149884000000005,90.67633308,-1.44385416,-49.17698514
2.6999999999999997,270,-0.02,-1.081,0.07200000000000001,24.522602399999997,11.401864199999999,5.6149884000000005,90.9284346,-1.50114996,-49.06239354
2.71,271,-0.022000000000000002,-1.072,0.086,23.14750320000001,10.886202,5.443101,91.16334738,-1.5527161800000002,-48.95353152
2.7199999999999998,272,-0.028999999999999998,-1.064,0.09,21.600516600000002,9.9694692,5.3285094000000015,91.37534184,-1.61001198,-48.85612866
2.73,273,-0.034,-1.065,0.113,19.9962342,9.453807,5.2712136,91.57587714,-1.6673077799999998,-48.75872579999999
2.7399999999999998,274,-0.03,-1.062,0.107,17.8762896,9.6256944,4.8128472,91.75349412,-1.7188740000000002,-48.66705252
2.75,275,-0.026000000000000002,-1.0590000000000002,0.078,15.9855282,8.021412000000002,4.5263682,91.91392236,-1.76471064,-48.58683840000001
2.76,276,-0.03,-1.063,0.063,14.8396122,5.6722842,4.2398892,92.06289144000002,-1.81054728,-48.529542600000006
2.77,277,-0.03,-1.069,0.071,14.5531332,4.7555514,3.6096353999999997,92.21186052,-1.85065434,-48.48370596
2.78,278,-0.032,-1.06,0.092,13.750992000000002,4.1252976000000015,3.1512689999999997,92.34937044,-1.87930224,-48.43786932
2.79,279,-0.035,-1.033,0.10099999999999999,13.120738199999998,3.4377480000000005,2.9220858,92.48115077999998,-1.91367972,-48.40349184
2.8,280,-0.037000000000000005,-1.0190000000000001,0.091,12.5477802,3.2085647999999996,2.9220858,92.61293112,-1.94232762,-48.37484394
2.81,281,-0.039,-1.014,0.086,12.2040054,3.380452200000001,3.1512689999999997,92.73898188,-1.9767051,-48.34046646
2.82,282,-0.042,-1.021,0.08800000000000001,12.4331886,2.8074942000000003,3.3231564,92.85930306,-2.01108258,-48.31181856
2.8299999999999996,283,-0.053,-1.0190000000000001,0.095,11.917526400000002,1.6615782,2.86479,92.97962424,-2.03973048,-48.29462982
2.84,284,-0.063,-1.01,0.09300000000000001,11.401864199999999,1.0313244000000001,2.0626488000000003,93.09994542,-2.05691922,-48.28317066
2.8499999999999996,285,-0.07200000000000001,-1.008,0.087,10.7716104,0.7448454000000001,1.2032118,93.20880744,-2.09702628,-48.27744108
2.86,286,-0.075,-1.004,0.08,10.7716104,0.6302538000000001,0.40107059999999994,93.31766946,-2.09702628,-48.2717115
2.8699999999999997,287,-0.079,-0.996,0.079,10.943497800000001,0.6302538000000001,-0.3437748,93.43226106,-2.09702628,-48.26025234
2.88,288,-0.076,-0.987,0.08,11.2299768,0.7448454000000001,-0.6875496,93.54685266,-2.08556712,-48.25452276
2.8899999999999997,289,-0.07400000000000001,-0.987,0.081,11.5737516,0.8021411999999999,-0.4583664000000001,93.66144426,-2.08556712,-48.2430636
2.9,290,-0.062,-0.972,0.07,11.2872726,0.6302538000000001,-0.2291832000000001,93.7645767,-2.09702628,-48.23733402000001
2.9099999999999997,291,-0.061,-0.971,0.067,12.0894138,-0.40107059999999994,-0.5156622000000001,93.89062746,-2.08556712,-48.23733402000001
2.92,292,-0.061,-0.978,0.07400000000000001,12.834259199999998,-1.8334656000000005,-0.8021411999999999,94.0224078,-2.07410796,-48.25452276
2.9299999999999997,293,-0.066,-0.973,0.083,13.464512999999998,-2.5783110000000002,-1.0886202,94.15991772,-2.0626488000000003,-48.27744108
2.94,294,-0.068,-0.9740000000000001,0.091,14.0947668,-2.6356068,-1.0886202,94.30315722,-2.04546006,-48.3003594
2.9499999999999997,295,-0.07,-0.981,0.087,14.0947668,-2.4064236,-1.0313244000000001,94.44066714,-2.05118964,-48.32327771999999
2.96,296,-0.073,-0.986,0.083,13.980175199999998,-2.1199446,-0.9740286,94.58390664,-2.0340009,-48.34046646
2.9699999999999998,297,-0.075,-0.997,0.078,14.0947668,-1.6615782,-0.9740286,94.72714614,-2.02254174,-48.3576552
2.98,298,-0.07400000000000001,-1.001,0.077,14.32395,-1.7188740000000002,-0.8594370000000001,94.87038564,-2.01108258,-48.36911436000001
2.9899999999999998,299,-0.076,-1.001,0.08199999999999999,14.667724800000002,-1.8334656000000005,-0.8021411999999999,95.0250843,-1.99962342,-48.386303100000006
3.0,300,-0.07400000000000001,-1.002,0.08800000000000001,14.7823164,-1.2032118,-0.9167328000000001,95.16259422,-2.005353,-48.39776225999999
3.01,301,-0.069,-1.002,0.096,14.8396122,-0.1718874,-1.145916,95.31156330000002,-1.99389384,-48.39203268
3.02,302,-0.063,-1.004,0.10099999999999999,14.7250206,1.0886202,-1.4896908000000002,95.46053238,-1.9767051,-48.38057352000001
3.03,303,-0.059000000000000004,-1.0070000000000001,0.11199999999999999,14.7250206,2.0053530000000004,-1.6042823999999998,95.60950146,-1.9595163600000003,-48.3576552
3.04,304,-0.057,-1.012,0.12300000000000001,14.5531332,2.5783110000000002,-1.8334656000000005,95.75847054,-1.9480572000000005,-48.3290073
3.05,305,-0.053,-1.01,0.129,13.980175199999998,3.2658606,-1.9480572,95.90171004,-1.93659804,-48.28890024
3.06,306,-0.048,-1.013,0.127,13.464512999999998,3.7815228,-1.8334656000000005,96.03349038,-1.9194093000000003,-48.24879317999999
3.07,307,-0.044000000000000004,-1.023,0.13,13.0061466,3.5523396000000003,-1.6615782,96.16527072,-1.90795014,-48.20868612
3.08,308,-0.040999999999999995,-1.031,0.135,12.0894138,3.1512689999999997,-1.8334656000000005,96.28559190000001,-1.89649098,-48.17430864
3.09,309,-0.036000000000000004,-1.033,0.14,11.745639,2.86479,-2.4637194,96.40591308,-1.87357266,-48.14566074
3.0999999999999996,310,-0.034,-1.0390000000000001,0.14800000000000002,10.7716104,2.291832,-3.380452200000001,96.5147751,-1.83919518,-48.11701284
3.11,311,-0.028999999999999998,-1.037,0.154,9.682990199999999,1.6615782,-4.010706000000001,96.61217795999998,-1.79908812,-48.09409452
3.1199999999999997,312,-0.031,-1.0390000000000001,0.163,9.0527364,1.2605076000000002,-4.583664,96.70385124,-1.75325148,-48.07690578
3.13,313,-0.033,-1.038,0.172,8.250595200000001,1.2032118,-4.9847346,96.78979494,-1.7074148399999998,-48.05398746
3.1399999999999997,314,-0.028999999999999998,-1.031,0.183,7.3911582,1.7761698000000001,-5.3858052,96.86427948,-1.6558486199999998,-48.03106913999999
3.15,315,-0.021,-1.0270000000000001,0.192,6.3598338,2.291832,-5.5003968,96.95595276,-1.59855282,-48.00242124
3.1599999999999997,316,-0.015,-1.023,0.19399999999999998,5.2712136,2.9220858,-5.6722842,97.00751898,-1.5412570200000002,-47.96231418000001
3.17,317,-0.012,-1.024,0.19,4.1825934,3.0939732,-5.7868758000000025,97.04762603999998,-1.4896908000000002,-47.9279367
3.1799999999999997,318,-0.013000000000000001,-1.026,0.193,3.4377480000000005,2.9220858,-5.72958,97.08200352,-1.43812458,-47.88782964
3.19,319,-0.008,-1.021,0.193,2.1199446,2.7501984,-5.844171599999999,97.09919226,-1.38655836,-47.85345216
3.1999999999999997,320,-0.001,-1.014,0.188,1.145916,2.1772404,-5.5003968,97.15075848,-1.30061466,-47.82480425999999
3.21,321,0.0,-1.015,0.18600000000000005,0.4583664000000001,1.3750992,-5.2139178,97.15648806,-1.25477802,-47.80761552
3.2199999999999998,322,-0.005,-1.015,0.183,-0.1718874,0.3437748,-4.9274388,97.15648806,-1.2032117999999998,-47.79615636000001
3.23,323,-0.011000000000000001,-1.014,0.183,-0.6302538000000001,-0.8021411999999999,-4.9274388,97.15075848,-1.15164558,-47.79615636000001
3.2399999999999998,324,-0.009000000000000001,-1.002,0.18100000000000002,-1.145916,-1.3178034,-4.7555514,97.13356974,-1.10580894,-47.80761552
3.25,325,-0.004,-1.002,0.18,-1.5469866,-1.3178034,-4.7555514,97.15648806,-1.0313244000000001,-47.81334510000001
3.26,326,-0.003,-0.998,0.185,-2.291832,-1.2032118,-4.6409598,97.13356974,-0.98548776,-47.81907468
3.27,327,-0.001,-0.9940000000000001,0.183,-2.6356068,-1.0886202,-4.2398892,97.11065142,-0.93965112,-47.82480425999999
3.28,328,0.001,-0.995,0.17600000000000002,-2.86479,-1.2032118,-3.7242269999999995,97.08200352,-0.90527364,-47.83053384
3.29,329,0.002,-0.993,0.16899999999999998,-2.9220858,-1.4896908000000002,-3.1512689999999997,97.04762603999998,-0.87089616,-47.841993
3.3,330,0.005,-0.996,0.163,-2.6929026,-2.0626488000000003,-2.8074942000000003,97.04189646,-0.8078707799999998,-47.85918174
3.31,331,0.006999999999999999,-0.998,0.156,-2.5783110000000002,-2.4064236,-2.4637194,97.01897814,-0.7792228800000001,-47.88210005999999
3.32,332,0.011000000000000001,-0.998,0.151,-2.5210152000000003,-3.0366774,-2.1199446,96.99033024,-0.75630456,-47.91074796
3.33,333,0.011000000000000001,-0.993,0.14400000000000002,-2.1772404,-3.9534102,-1.7188740000000002,96.9731415,-0.73338624,-47.94512544000001
3.34,334,0.013000000000000001,-0.995,0.142,-1.9480572,-4.8701430000000006,-1.2032118,96.95022318,-0.7104679199999999,-47.99096208
3.3499999999999996,335,0.02,-1.003,0.142,-2.0626488000000003,-5.5576926,-0.7448454000000001,96.93303444,-0.65317212,-48.0425283
3.36,336,0.018000000000000002,-0.996,0.13699999999999998,-2.2345362,-6.3598338,-0.286479,96.91011612,-0.63598338,-48.10555368
3.3699999999999997,337,0.016,-1.002,0.135,-2.1772404,-8.193299399999999,0.11459160000000004,96.8871978,-0.6302538000000001,-48.185767799999994
3.38,338,0.009000000000000001,-1.001,0.13699999999999998,-2.4637194,-10.1413566,0.5156622000000001,96.86427948,-0.61879464,-48.28890024
3.3899999999999997,339,0.004,-1.0,0.135,-2.7501984,-12.032118,0.572958,96.84136116,-0.6073354799999999,-48.40922142
3.4,340,0.0,-1.0070000000000001,0.133,-3.2658606,-13.2926256,0.40107059999999994,96.80698368,-0.5844171599999999,-48.54100175999999
3.4099999999999997,341,-0.004,-1.013,0.134,-3.8388186,-13.750992000000002,0.1718874,96.7726062,-0.56722842,-48.67278209999999
3.42,342,-0.01,-1.01,0.13,-4.0680017999999984,-13.9228794,0.0,96.73249914,-0.55003968,-48.81029202000001
3.4299999999999997,343,-0.012,-1.008,0.13699999999999998,-3.7815228,-13.980175199999998,-0.286479,96.69812166,-0.52712136,-48.94780193999999
3.44,344,-0.013000000000000001,-1.0070000000000001,0.14400000000000002,-3.7815228,-13.3499214,-0.5156622000000001,96.6580146,-0.4984734599999999,-49.07958228
3.4499999999999997,345,-0.008,-1.0090000000000001,0.145,-3.9534102,-12.261301199999998,-0.572958,96.62363712,-0.47555514,-49.19990346
3.46,346,-0.006999999999999999,-1.015,0.141,-4.1825934,-11.3445684,-0.572958,96.58353006,-0.4526368200000001,-49.30876548
3.4699999999999998,347,-0.013999999999999999,-1.0170000000000001,0.14300000000000002,-4.297185,-11.2872726,-0.286479,96.543423,-0.43544808,-49.42335708
3.48,348,-0.02,-1.0170000000000001,0.14800000000000002,-4.583664,-11.1153852,-0.11459160000000004,96.49758636,-0.41825934,-49.5322191
3.4899999999999998,349,-0.025,-1.016,0.142,-5.0993262,-10.5424272,-0.2291832000000001,96.45174972,-0.4010706000000001,-49.63535154
3.5,350,-0.027999999999999997,-1.016,0.138,-5.2712136,-9.6256944,-0.6302538000000001,96.4001835,-0.38961144,-49.7327544
3.51,351,-0.027000000000000003,-1.014,0.139,-5.2712136,-8.9381448,-1.0886202,96.34861728,-0.36669312,-49.81869810000001
3.52,352,-0.026000000000000002,-1.0090000000000001,0.138,-5.443101,-8.3651868,-1.3178034,96.29132148,-0.3437748,-49.89891222
3.53,353,-0.023,-1.004,0.13699999999999998,-5.72958,-7.5630456000000015,-1.6042823999999998,96.23402568,-0.31512690000000004,-49.97339676
3.54,354,-0.022000000000000002,-0.9990000000000001,0.136,-5.9014674000000005,-6.417129599999999,-1.6042823999999998,96.17672988,-0.29220857999999994,-50.03642214
3.55,355,-0.023,-0.998,0.13,-5.72958,-4.8701430000000006,-1.432395,96.11943408,-0.28074942,-50.08225878
3.56,356,-0.02,-0.9990000000000001,0.129,-5.5003968,-3.6096353999999997,-1.2605076000000002,96.06786786,-0.26356068,-50.11663626
3.57,357,-0.02,-0.9890000000000001,0.131,-5.443101,-2.7501984,-1.0313244000000001,96.01057206,-0.25210152,-50.14528416
3.58,358,-0.023,-0.987,0.13,-5.443101,-2.1772404,-1.0313244000000001,95.95327626,-0.24064236,-50.1624729
3.59,359,-0.023,-0.993,0.131,-5.6149884000000005,-1.6615782,-0.9740286,95.89598046,-0.22918320000000006,-50.17966163999999
3.5999999999999996,360,-0.017,-0.993,0.13,-5.844171599999999,-0.6875496,-0.9167328000000001,95.84441424,-0.22345362,-50.18539122
3.61,361,-0.012,-0.991,0.124,-5.958763200000001,-0.057295800000000015,-0.8021411999999999,95.78711844,-0.21772404,-50.1911208
3.6199999999999997,362,-0.01,-0.997,0.11699999999999999,-5.9014674000000005,0.0,-0.572958,95.72409306,-0.21199446,-50.18539122
3.63,363,-0.01,-1.0070000000000001,0.115,-6.1879464,0.286479,-0.2291832000000001,95.66106768,-0.20626488,-50.18539122
3.6399999999999997,364,-0.006,-1.008,0.115,-7.5057497999999985,1.0886202,-0.11459160000000004,95.58658314,-0.21199446,-50.17393206
3.65,365,-0.002,-1.0,0.109,-8.136003599999999,1.432395,0.1718874,95.49490986,-0.20626488,-50.1624729
3.6599999999999997,366,0.003,-0.9940000000000001,0.10400000000000001,-7.8495246,1.0886202,0.572958,95.41469573999998,-0.21772404,-50.15101374
3.67,367,0.013999999999999999,-0.991,0.09300000000000001,-6.589017,0.3437748,1.0313244000000001,95.34594078,-0.22918320000000006,-50.15101374
3.6799999999999997,368,0.015,-0.998,0.09300000000000001,-5.5003968,-0.9740286,1.6615782,95.29437456,-0.24064236,-50.1624729
3.69,369,0.009000000000000001,-1.006,0.099,-4.6982555999999995,-2.3491277999999998,2.2345362,95.24280834,-0.26356068,-50.1911208
3.6999999999999997,370,0.0,-1.0070000000000001,0.098,-4.5263682,-3.2658606,2.6356068,95.18551254,-0.28074942,-50.22549828
3.71,371,-0.013999999999999999,-1.013,0.09699999999999999,-4.8701430000000006,-4.010706000000001,2.7501984,95.13967590000001,-0.30366774,-50.26560533999999
3.7199999999999998,372,-0.026000000000000002,-1.015,0.09699999999999999,-5.3285094000000015,-4.4117766,2.5783110000000002,95.08810968,-0.32658606,-50.31144198
3.73,373,-0.027999999999999997,-1.011,0.092,-5.443101,-3.9534102,2.0626488000000003,95.03081388,-0.3437748,-50.35727862
3.7399999999999998,374,-0.027999999999999997,-1.012,0.091,-5.72958,-3.4950437999999995,1.3178034,94.97351808,-0.35523396,-50.3916561
3.75,375,-0.024,-1.006,0.09,-5.9014674000000005,-2.8074942000000003,0.6302538000000001,94.89330396,-0.36669312,-50.420303999999994
3.76,376,-0.019,-1.0070000000000001,0.08900000000000001,-5.958763200000001,-2.0053530000000004,0.11459160000000004,94.83600816,-0.36669312,-50.44322232
3.77,377,-0.013999999999999999,-1.003,0.08800000000000001,-5.7868758000000025,-1.2032118,-0.286479,94.77298278,-0.36669312,-50.45468147999999
3.78,378,-0.012,-1.002,0.087,-5.2139178,-0.7448454000000001,-0.5156622000000001,94.72141656,-0.36096354,-50.46041106
3.79,379,-0.012,-1.0,0.08900000000000001,-4.6409598,-0.1718874,-0.5156622000000001,94.67557992,-0.35523396,-50.46614064
3.8,380,-0.012,-0.995,0.092,-4.3544808,0.2291832000000001,-0.5156622000000001,94.61828412,-0.34950438,-50.46041106
3.81,381,-0.013000000000000001,-0.995,0.09699999999999999,-4.2398892,0.286479,-0.5156622000000001,94.57817706,-0.3437748,-50.46041106
3.82,382,-0.01,-0.993,0.096,-4.010706000000001,0.40107059999999994,-0.4583664000000001,94.53234042,-0.33804522,-50.45468147999999
3.83,383,-0.009000000000000001,-0.9940000000000001,0.094,-3.7815228,0.057295800000000015,-0.40107059999999994,94.49796294,-0.33231564,-50.45468147999999
3.84,384,-0.01,-0.995,0.09300000000000001,-3.6096353999999997,-0.286479,-0.40107059999999994,94.45785588,-0.33231564,-50.45468147999999
3.8499999999999996,385,-0.009000000000000001,-0.995,0.091,-3.3231564,-0.9167328000000001,-0.5156622000000001,94.41201924,-0.32085648,-50.46614064
3.86,386,-0.008,-0.992,0.094,-2.8074942000000003,-1.2605076000000002,-0.5156622000000001,94.38337134,-0.31512690000000004,-50.47759979999999
3.8699999999999997,387,-0.008,-0.993,0.095,-2.291832,-1.3750992,-0.6302538000000001,94.36045302,-0.30939732,-50.48905896
3.88,388,-0.008,-0.9940000000000001,0.096,-1.7761698000000001,-1.2032118,-0.572958,94.34326428,-0.29793816,-50.5062477
3.8899999999999997,389,-0.013000000000000001,-0.9940000000000001,0.098,-1.145916,-1.3178034,-0.5156622000000001,94.33180511999998,-0.29220857999999994,-50.51770686
3.9,390,-0.013999999999999999,-0.995,0.105,-0.9740286,-1.145916,-0.572958,94.34899386,-0.29220857999999994,-50.52916602000001
3.9099999999999997,391,-0.013000000000000001,-0.9940000000000001,0.10300000000000001,-0.8021411999999999,-0.6875496,-0.6875496,94.3375347,-0.28647900000000004,-50.5348956
3.92,392,-0.011000000000000001,-0.998,0.1,-0.8594370000000001,-0.2291832000000001,-0.7448454000000001,94.33180511999998,-0.27501984,-50.5348956
3.9299999999999997,393,-0.008,-1.0,0.095,-0.9167328000000001,-0.057295800000000015,-0.8594370000000001,94.32034596,-0.26929026,-50.5348956
3.94,394,-0.006,-1.004,0.094,-0.8021411999999999,0.11459160000000004,-0.8594370000000001,94.31461638,-0.25783110000000004,-50.5348956
3.9499999999999997,395,-0.005,-1.004,0.09300000000000001,-0.572958,0.11459160000000004,-0.6875496,94.28023890000001,-0.24064236,-50.5348956
3.96,396,-0.004,-1.003,0.092,-0.2291832000000001,0.0,-0.7448454000000001,94.27450932,-0.23491278,-50.52916602000001
3.9699999999999998,397,-0.004,-1.005,0.094,0.0,0.057295800000000015,-0.8021411999999999,94.27450932,-0.22345362,-50.52916602000001
3.98,398,-0.002,-1.0070000000000001,0.096,-0.057295800000000015,0.2291832000000001,-0.6875496,94.27450932,-0.21772404,-50.52916602000001
3.9899999999999998,399,-0.003,-1.005,0.094,0.0,0.2291832000000001,-0.40107059999999994,94.27450932,-0.21199446,-50.52343644
4.0,400,-0.003,-1.008,0.091,0.0,0.11459160000000004,-0.3437748,94.1942952,-0.13178034,-50.51770686
4.01,401,-0.003,-1.01,0.094,-0.057295800000000015,0.0,-0.2291832000000001,94.18856562,-0.13178034,-50.51770686
4.02,402,-0.006,-1.011,0.094,-0.2291832000000001,-0.1718874,-0.286479,94.18856562,-0.12605075999999998,-50.52343644
4.03,403,-0.009000000000000001,-1.0090000000000001,0.09300000000000001,-0.6875496,-0.1718874,-0.286479,94.18283604,-0.12605075999999998,-50.52343644
4.04,404,-0.01,-1.0090000000000001,0.091,-0.9167328000000001,-0.2291832000000001,-0.3437748,94.17137688,-0.12032118,-50.52916602000001
4.05,405,-0.013999999999999999,-1.008,0.08800000000000001,-0.9740286,-0.3437748,-0.4583664000000001,94.14272898,-0.14896908,-50.52916602000001
4.06,406,-0.016,-1.011,0.08900000000000001,-1.0886202,-0.286479,-0.572958,94.13126982,-0.14323950000000002,-50.5348956
4.07,407,-0.011000000000000001,-1.01,0.08800000000000001,-1.2605076000000002,0.057295800000000015,-0.572958,94.11408108,-0.13750992,-50.5348956
4.08,408,-0.005,-1.0070000000000001,0.085,-1.0886202,0.11459160000000004,-0.4583664000000001,94.10262192,-0.13178034,-50.52916602000001
4.09,409,-0.002,-1.006,0.08199999999999999,-1.0313244000000001,-0.1718874,-0.286479,94.09116276,-0.12605075999999998,-50.5348956
4.1,410,-0.005,-1.006,0.08199999999999999,-0.9167328000000001,-0.6875496,-0.057295800000000015,94.04532612,-0.12032118,-50.54062518
4.109999999999999,411,-0.009000000000000001,-1.005,0.084,-0.5156622000000001,-0.8021411999999999,0.0,94.03959654,-0.12032118,-50.54635476
4.12,412,-0.008,-1.006,0.086,-0.4583664000000001,-0.286479,-0.11459160000000004,94.03386695999998,-0.12032118,-50.55208434000001
4.13,413,-0.006999999999999999,-1.008,0.08800000000000001,-0.4583664000000001,0.286479,-0.11459160000000004,94.02813738,-0.11459160000000003,-50.54635476
4.14,414,-0.009000000000000001,-1.004,0.08800000000000001,-0.4583664000000001,0.4583664000000001,-0.057295800000000015,94.0224078,-0.11459160000000003,-50.54062518
4.1499999999999995,415,-0.01,-1.004,0.09300000000000001,-0.1718874,0.2291832000000001,0.0,94.03386695999998,-0.14323950000000002,-50.54062518
4.16,416,-0.01,-1.005,0.094,-0.4583664000000001,-0.057295800000000015,-0.2291832000000001,94.02813738,-0.13750992,-50.54062518
4.17,417,-0.008,-1.005,0.091,-0.9740286,-0.3437748,-0.4583664000000001,94.01667822,-0.13178034,-50.54635476
4.18,418,-0.003,-1.003,0.08900000000000001,-1.0886202,-0.6875496,-0.4583664000000001,94.00521906,-0.12605075999999998,-50.55208434000001
4.1899999999999995,419,-0.003,-1.003,0.08800000000000001,-1.145916,-0.8594370000000001,-0.40107059999999994,93.9937599,-0.12032118,-50.5635435
4.2,420,-0.003,-0.9990000000000001,0.08800000000000001,-0.8594370000000001,-1.0313244000000001,-0.1718874,93.97657116,-0.11459160000000003,-50.56927308
4.21,421,-0.009000000000000001,-0.996,0.087,-0.572958,-1.2032118,0.0,93.97084158,-0.10886202,-50.58073224
4.22,422,-0.01,-0.997,0.084,-0.40107059999999994,-1.0886202,-0.057295800000000015,93.965112,-0.10886202,-50.5921914
4.2299999999999995,423,-0.011000000000000001,-0.997,0.086,-0.057295800000000015,-0.9167328000000001,-0.286479,93.965112,-0.10313244,-50.60365056000001
4.24,424,-0.011000000000000001,-0.998,0.08800000000000001,0.11459160000000004,-0.7448454000000001,-0.572958,93.965112,-0.09740286,-50.60938014
4.25,425,-0.011000000000000001,-0.997,0.087,0.286479,-0.8021411999999999,-0.8021411999999999,93.95938242,-0.09740286,-50.61510972
4.26,426,-0.008,-1.0,0.085,0.572958,-0.6302538000000001,-0.9740286,93.965112,-0.0859437,-50.62083930000001
4.27,427,-0.008,-1.003,0.087,0.8021411999999999,-0.572958,-1.0313244000000001,93.97084158,-0.07448454,-50.62656888
4.28,428,-0.011000000000000001,-1.0070000000000001,0.087,1.2032118,-0.6875496,-1.0313244000000001,93.98803032,-0.06302537999999999,-50.63229846
4.29,429,-0.013999999999999999,-1.012,0.095,1.145916,-0.8021411999999999,-1.0313244000000001,93.99948948,-0.05156622,-50.64375762
4.3,430,-0.013999999999999999,-1.011,0.10099999999999999,0.572958,-0.5156622000000001,-1.2032118,94.02813738,-0.06302537999999999,-50.6494872
4.31,431,-0.013000000000000001,-1.013,0.10099999999999999,0.057295800000000015,0.11459160000000004,-1.2605076000000002,94.03386695999998,-0.05156622,-50.64375762
4.32,432,-0.013000000000000001,-1.014,0.099,-0.4583664000000001,0.286479,-1.3178034,94.02813738,-0.04010706,-50.64375762
4.33,433,-0.013000000000000001,-1.015,0.096,-0.8021411999999999,0.4583664000000001,-1.2605076000000002,94.01667822,-0.028647900000000007,-50.63802804
4.34,434,-0.013000000000000001,-1.013,0.09699999999999999,-0.9740286,0.6875496,-1.2032118,94.00521906,-0.01718874,-50.62656888
4.35,435,-0.013000000000000001,-1.008,0.095,-0.7448454000000001,0.9167328000000001,-1.145916,94.01094864,-0.02291832,-50.62083930000001
4.36,436,-0.013999999999999999,-1.0070000000000001,0.095,-0.2291832000000001,1.145916,-1.0886202,94.00521906,-0.01145916,-50.60365056000001
4.37,437,-0.015,-1.01,0.099,0.11459160000000004,1.432395,-0.9167328000000001,94.00521906,-0.00572958,-50.5921914
4.38,438,-0.017,-1.0090000000000001,0.106,0.0,1.9480572,-0.9740286,94.00521906,0.0,-50.56927308
4.39,439,-0.015,-1.011,0.10800000000000001,-0.6302538000000001,2.6356068,-0.9740286,93.99948948,0.00572958,-50.54062518
4.3999999999999995,440,-0.013999999999999999,-1.011,0.109,-1.5469866,3.3231564,-1.0313244000000001,93.99948948,0.00572958,-50.51197728
4.41,441,-0.011000000000000001,-1.0090000000000001,0.106,-2.1772404,3.7242269999999995,-1.145916,93.97657116,0.01718874,-50.47187021999999
4.42,442,-0.006,-1.006,0.099,-2.5783110000000002,3.9534102,-1.0886202,93.94792326,0.02291832,-50.43176316
4.43,443,0.0,-1.004,0.094,-2.7501984,3.7815228,-1.0886202,93.91927536,0.028647900000000007,-50.39738568
4.4399999999999995,444,0.003,-1.002,0.095,-2.4064236,3.380452200000001,-0.8594370000000001,93.89635704,0.03437748,-50.3630082
4.45,445,0.006999999999999999,-1.001,0.095,-2.0053530000000004,2.6929026,-0.7448454000000001,93.87916829999999,0.05156622,-50.33436029999999
4.46,446,0.008,-1.0,0.098,-1.4896908000000002,1.8907614,-0.6875496,93.86197956,0.057295800000000015,-50.31717156000001
4.47,447,0.011000000000000001,-1.001,0.098,-1.0886202,1.3750992,-0.5156622000000001,93.85052040000001,0.06302537999999999,-50.29998282
4.4799999999999995,448,0.012,-1.006,0.09699999999999999,-0.9167328000000001,1.0313244000000001,-0.3437748,93.83906124,0.06302537999999999,-50.28852366
4.49,449,0.012,-1.011,0.09699999999999999,-1.0886202,0.7448454000000001,-0.11459160000000004,93.83333166,0.06875496,-50.28279408
4.5,450,0.01,-1.013,0.095,-1.145916,0.5156622000000001,-0.057295800000000015,93.83906124,0.10886202,-50.2770645
4.51,451,0.009000000000000001,-1.014,0.094,-1.3750992,0.1718874,0.057295800000000015,93.8218725,0.10886202,-50.27133492
4.52,452,0.006999999999999999,-1.015,0.09300000000000001,-1.5469866,0.0,0.1718874,93.81041334,0.10886202,-50.2770645
4.53,453,0.008,-1.018,0.096,-2.0053530000000004,0.0,0.2291832000000001,93.78749502,0.10313244,-50.2770645
4.54,454,0.01,-1.014,0.1,-2.7501984,0.0,0.286479,93.75884712,0.10313244,-50.2770645
4.55,455,0.013000000000000001,-1.012,0.09699999999999999,-3.4950437999999995,0.11459160000000004,0.3437748,93.7359288,0.12032118,-50.27133492
4.56,456,0.015,-1.011,0.091,-3.9534102,0.0,0.5156622000000001,93.69582174,0.11459160000000003,-50.2770645
4.57,457,0.015,-1.013,0.086,-4.4117766,-0.2291832000000001,0.6302538000000001,93.6499851,0.10886202,-50.2770645
4.58,458,0.011000000000000001,-1.016,0.084,-4.5263682,-0.6875496,0.8021411999999999,93.60414846,0.09740286,-50.28852366
4.59,459,0.006,-1.014,0.09,-5.2712136,-0.8594370000000001,0.9740286,93.54685266,0.09167328,-50.29425324
4.6,460,0.004,-1.014,0.092,-5.9014674000000005,-0.6302538000000001,0.9740286,93.49528644,0.0859437,-50.305712400000004
4.61,461,0.001,-1.016,0.091,-6.589017,-0.572958,1.0313244000000001,93.42653148,0.07448454,-50.31144198
4.62,462,0.002,-1.02,0.08900000000000001,-7.6776372,-0.5156622000000001,1.0886202,93.34631736,0.06302537999999999,-50.31717156000001
4.63,463,0.003,-1.023,0.08900000000000001,-8.9954406,-0.1718874,0.9740286,93.25464408,0.05156622,-50.32290114
4.64,464,0.001,-1.021,0.09,-10.313244000000001,-0.11459160000000004,0.8594370000000001,93.15151164,0.04583664,-50.32290114
4.6499999999999995,465,-0.004,-1.021,0.091,-11.2872726,-0.572958,0.7448454000000001,93.04264962,0.03437748,-50.33436029999999
4.66,466,-0.006,-1.028,0.08900000000000001,-12.3758928,-0.6875496,0.6875496,92.91659886,0.028647900000000007,-50.34008988
4.67,467,-0.006999999999999999,-1.035,0.086,-14.037471,-0.7448454000000001,0.6302538000000001,92.77335936,0.02291832,-50.35154904
4.68,468,-0.008,-1.047,0.081,-15.5844576,-0.572958,0.9167328000000001,92.6186607,0.01145916,-50.35727862
4.6899999999999995,469,-0.009000000000000001,-1.052,0.08,-17.0168526,-0.286479,1.2605076000000002,92.44104372,0.0,-50.36873778
4.7,470,-0.01,-1.047,0.091,-18.449247600000003,-0.286479,1.4896908000000002,92.26342674,-0.01718874,-50.37446736
4.71,471,-0.01,-1.042,0.096,-19.8243468,0.0,1.432395,92.06289144000002,-0.028647900000000007,-50.37446736
4.72,472,-0.009000000000000001,-1.045,0.092,-21.371333399999997,0.40107059999999994,1.145916,91.8451674,-0.04583664,-50.37446736
4.7299999999999995,473,-0.012,-1.052,0.086,-23.14750320000001,0.572958,1.0313244000000001,91.61025462,-0.057295800000000015,-50.36873778
4.74,474,-0.011000000000000001,-1.054,0.079,-24.923673,1.0313244000000001,0.9167328000000001,91.3581531,-0.06875496,-50.3630082
4.75,475,-0.015,-1.048,0.071,-27.100913399999996,0.8594370000000001,0.8021411999999999,91.08886284,-0.08021412,-50.35727862
4.76,476,-0.017,-1.043,0.073,-27.8457588,0.9740286,0.6875496,90.80238384,-0.09167328,-50.35154904
4.77,477,-0.013000000000000001,-1.036,0.069,-28.81978740000001,1.2032118,0.572958,90.51017526,-0.10313244,-50.34581946000001
4.78,478,-0.006,-1.032,0.067,-29.335449600000004,1.2605076000000002,0.40107059999999994,90.2122371,-0.10886202,-50.33436029999999
4.79,479,-0.004,-1.0290000000000001,0.067,-29.9084076,1.3178034,0.1718874,89.90856936,-0.11459160000000003,-50.32290114
4.8,480,-0.006,-1.033,0.064,-30.7105488,1.7761698000000001,0.057295800000000015,89.60490161999998,-0.11459160000000003,-50.31144198
4.81,481,-0.011000000000000001,-1.035,0.065,-31.51269000000001,2.2345362,-0.11459160000000004,89.28404514,-0.12032118,-50.29425324
4.82,482,-0.013999999999999999,-1.0290000000000001,0.076,-32.4294228,2.86479,-0.40107059999999994,88.95745908,-0.11459160000000003,-50.26560533999999
4.83,483,-0.013000000000000001,-1.02,0.077,-33.116972399999995,3.4950437999999995,-0.9167328000000001,88.61941386,-0.10886202,-50.23695744000001
4.84,484,-0.017,-1.0190000000000001,0.075,-33.6899304,4.0680017999999984,-1.432395,88.27563906,-0.09740286,-50.19685038
4.85,485,-0.017,-1.028,0.065,-34.8931422,4.6409598,-1.8334656000000005,87.93186426,-0.0859437,-50.15674332
4.86,486,-0.015,-1.031,0.052000000000000005,-36.669312,5.72958,-2.0626488000000003,87.55944156000002,-0.06875496,-50.1051771
4.87,487,-0.01,-1.038,0.044000000000000004,-38.5600734,6.5317212,-2.0626488000000003,87.16410053999998,-0.04583664,-50.04788129999999
4.88,488,-0.011000000000000001,-1.0290000000000001,0.046,-39.8778768,7.2765666,-1.7761698000000001,86.75730036,-0.03437748,-49.97912634000001
4.89,489,-0.012,-1.025,0.047,-40.680018,7.734933000000002,-1.3750992,86.34477059999998,-0.01718874,-49.91037138
4.8999999999999995,490,-0.016,-1.0270000000000001,0.039,-41.4248634,7.3911582,-0.9167328000000001,85.93224083999998,-0.01145916,-49.84161642
4.91,491,-0.02,-1.036,0.02,-43.1437374,7.1046792000000005,-0.8594370000000001,85.49679276,-0.00572958,-49.77286146
4.92,492,-0.021,-1.043,0.0,-44.9199072,6.6463128000000005,-1.2032118,85.03842636,0.0,-49.71556566
4.93,493,-0.019,-1.062,-0.016,-46.925260200000004,6.875496000000001,-1.7761698000000001,84.56287122,0.02291832,-49.65254028
4.9399999999999995,494,-0.009000000000000001,-1.053,-0.024,-48.9306132,6.417129599999999,-2.1199446,84.06439776,0.04010706,-49.59524448000001
4.95,495,-0.001,-1.046,-0.024,-50.0192334,5.3285094000000015,-2.4064236,83.56019472,0.06875496,-49.54940784
4.96,496,-0.001,-1.05,-0.027000000000000003,-51.7381074,4.1252976000000015,-2.7501984,83.03880294000002,0.09167328,-49.52075994000001
4.97,497,0.0,-1.053,-0.027000000000000003,-53.9153478,3.0939732,-3.2658606,82.48876326,0.12032118,-49.49784162
4.9799999999999995,498,0.001,-1.073,-0.03,-56.149884,2.1199446,-3.7815228,81.91580526,0.15469866,-49.48638246
4.99,499,0.001,-1.083,-0.022000000000000002,-60.16059,-0.9740286,-3.9534102,81.30846978000002,0.18907614,-49.50930078
5.0,500,-0.009000000000000001,-1.085,0.0,-63.311859,-4.7555514,-4.1252976000000015,80.67821597999998,0.21772404,-49.56659658
5.01,501,-0.027999999999999997,-1.067,0.024,-66.749607,-8.7662574,-4.7555514,80.00212554,0.24637194,-49.66972902000001
5.02,502,-0.040999999999999995,-1.07,-0.017,-70.5884256,-8.021412000000002,-5.844171599999999,79.28592804,0.28074942,-49.76713188
5.03,503,-0.057999999999999996,-1.099,-0.037000000000000005,-74.771019,-4.8701430000000006,-6.589017,78.52389389999998,0.33231564,-49.83015725999999
5.04,504,-0.066,-1.094,-0.062,-78.20876700000002,-0.40107059999999994,-7.2192707999999985,77.73321186000003,0.39534102,-49.85880516
5.05,505,-0.051,-1.122,-0.086,-79.46927459999998,5.2139178,-6.9327918,76.93107066,0.4583664000000001,-49.83015725999999
5.06,506,-0.026000000000000002,-1.114,-0.09,-81.4173318,8.250595200000001,-5.958763200000001,76.10601113999998,0.52712136,-49.77286146
5.07,507,-0.024,-1.127,-0.098,-79.24009140000003,9.0527364,-4.1825934,75.29814036,0.5786875800000001,-49.70410650000001
5.08,508,-0.022000000000000002,-1.146,-0.14300000000000002,-77.635809,9.9121734,-3.2658606,74.5131879,0.62452422,-49.62389238
5.09,509,-0.013000000000000001,-1.158,-0.18100000000000002,-77.9795838,10.4851314,-3.2658606,73.71677628,0.6703608600000001,-49.53794868000001
5.1,510,-0.005,-1.17,-0.21,-78.781725,9.224623800000002,-3.380452200000001,72.92609424,0.72192708,-49.46346414
5.11,511,-0.005,-1.15,-0.235,-79.9849368,7.161975,-2.7501984,72.11249388,0.75630456,-49.41189792
5.12,512,0.001,-1.143,-0.261,-80.61519059999998,6.3598338,-2.5783110000000002,71.29316394,0.7906820400000001,-49.36606128
5.13,513,-0.004,-1.135,-0.302,-82.1621772,6.4744254,-2.1772404,70.45664526,0.8193299399999999,-49.320224640000006
5.14,514,-0.012,-1.1,-0.306,-81.9902898,7.3911582,-2.2345362,69.62585616,0.8537074199999999,-49.26292884000001
5.1499999999999995,515,-0.009000000000000001,-1.077,-0.34,-77.2920342,5.844171599999999,-1.432395,68.84663328,0.87662574,-49.2170922
5.16,516,0.005,-1.08,-0.409,-75.68775179999999,6.3598338,-1.145916,68.07886956,0.89954406,-49.17125556000001
5.17,517,0.021,-1.0590000000000002,-0.445,-73.625103,7.333862400000001,-0.2291832000000001,67.32829458,0.92246238,-49.10823018
5.18,518,0.013000000000000001,-1.0390000000000001,-0.418,-69.7862844,6.8182002000000015,1.432395,66.61782666,0.92246238,-49.04520480000001
5.1899999999999995,519,0.006999999999999999,-1.0070000000000001,-0.461,-65.2026204,5.2139178,2.0053530000000004,65.95892496,0.9167328,-48.99363858
5.2,520,0.022000000000000002,-1.006,-0.531,-61.8221682,5.3285094000000015,1.0886202,65.32294157999999,0.92246238,-48.94207236
5.21,521,0.031,-0.9990000000000001,-0.541,-57.9833496,6.4744254,-0.11459160000000004,64.73279484,0.93965112,-48.89050614
5.22,522,0.034,-0.975,-0.53,-53.4569814,7.6203414,-1.0313244000000001,64.19421432,0.9740286,-48.82748076
5.2299999999999995,523,0.048,-0.945,-0.552,-48.6441342,8.136003599999999,-0.6302538000000001,63.69574086,1.00840608,-48.76445538
5.24,524,0.067,-0.9279999999999999,-0.57,-44.51883660000001,7.2765666,0.1718874,63.24883361999999,1.0313244000000001,-48.70143
5.25,525,0.076,-0.934,-0.557,-40.90920120000001,5.844171599999999,1.2605076000000002,62.819115120000006,1.04851314,-48.6441342
5.26,526,0.066,-0.9309999999999999,-0.5479999999999999,-38.961144,4.2398892,2.5210152000000003,62.4237741,1.03705398,-48.59829756
5.27,527,0.053,-0.925,-0.568,-37.4714532,2.8074942000000003,3.4377480000000005,62.04562182000001,1.01413566,-48.5581905
5.28,528,0.042,-0.9209999999999999,-0.5720000000000001,-36.2109456,1.5469866,3.7815228,61.67892870000001,0.98548776,-48.529542600000006
5.29,529,0.026000000000000002,-0.917,-0.5720000000000001,-34.262888399999994,0.0,3.6096353999999997,61.32942432,0.9453807,-48.51235386000001
5.3,530,0.024,-0.9,-0.569,-32.085648000000006,-1.0313244000000001,2.4637194,60.9913791,0.9167328,-48.51235386000001
5.31,531,0.021,-0.889,-0.583,-29.67922440000001,-1.0313244000000001,1.2032118,60.68771136,0.89954406,-48.51808344
5.32,532,0.026000000000000002,-0.8809999999999999,-0.59,-27.272800800000002,-1.8907614,0.572958,60.41269152,0.8823553199999999,-48.53527218
5.33,533,0.032,-0.873,-0.578,-24.0069402,-2.9220858,0.286479,60.16631957999999,0.8594370000000001,-48.5581905
5.34,534,0.027000000000000003,-0.865,-0.5770000000000001,-22.517249399999997,-3.8388186,0.3437748,59.93713638000001,0.83651868,-48.59256798
5.35,535,0.021,-0.8490000000000001,-0.562,-20.2827132,-3.8961144,0.11459160000000004,59.71368276000001,0.8136003599999999,-48.62694546
5.36,536,0.016,-0.847,-0.5479999999999999,-18.048177,-2.86479,0.0,59.53033620000001,0.79641162,-48.65559336000001
5.37,537,0.03,-0.8540000000000001,-0.56,-16.615782,-1.2032118,0.40107059999999994,59.3584488,0.7849524600000001,-48.66132294000001
5.38,538,0.024,-0.862,-0.55,-14.7823164,-0.7448454000000001,1.4896908000000002,59.20947972,0.76776372,-48.66132294000001
5.39,539,0.006999999999999999,-0.865,-0.5670000000000001,-13.0061466,-1.5469866,2.2345362,59.07769938,0.7391158200000001,-48.66705252
5.3999999999999995,540,0.005,-0.867,-0.5720000000000001,-10.7143146,-2.1772404,2.2345362,58.94018946,0.70473834,-48.67278209999999
5.41,541,0.006,-0.87,-0.557,-8.7662574,-2.9220858,1.9480572,58.85424576000001,0.6703608600000001,-48.68997084
5.42,542,0.009000000000000001,-0.867,-0.56,-7.734933000000002,-2.9793816000000004,1.8907614,58.77403164,0.64171296,-48.70715958
5.43,543,0.006,-0.866,-0.5670000000000001,-6.130650599999999,-2.1772404,1.9480572,58.71100626,0.61306506,-48.71288916
5.4399999999999995,544,0.009000000000000001,-0.866,-0.5660000000000001,-4.4117766,-1.9480572,1.8907614,58.67089920000001,0.5844171599999999,-48.72434832
5.45,545,0.008,-0.861,-0.539,-2.4637194,-1.7761698000000001,1.8334656000000005,58.59641466000001,0.56149884,-48.73007790000001
5.46,546,0.013000000000000001,-0.856,-0.5479999999999999,-1.2605076000000002,-1.4896908000000002,2.1199446,58.58495550000001,0.53285094,-48.73007790000001
5.47,547,0.017,-0.855,-0.541,0.2291832000000001,-0.8021411999999999,2.5783110000000002,58.59068508,0.5099326200000001,-48.72434832
5.4799999999999995,548,0.011000000000000001,-0.8590000000000001,-0.539,1.3750992,-0.6875496,3.1512689999999997,58.60214424,0.47555514,-48.71288916
5.49,549,0.012,-0.853,-0.539,2.7501984,-0.8021411999999999,3.7242269999999995,58.63079214,0.44117766,-48.70143
5.5,550,0.01,-0.851,-0.523,4.9274388,-0.6302538000000001,4.297185,58.65944003999999,0.40680018,-48.68424126
5.51,551,0.012,-0.8420000000000001,-0.524,6.0160589999999985,-0.286479,4.5263682,58.722465420000006,0.36669312,-48.66705252
5.52,552,0.013999999999999999,-0.8390000000000001,-0.508,7.448453999999999,0.0,4.5263682,58.796949960000006,0.32658606,-48.63840462
5.53,553,0.01,-0.8340000000000001,-0.5,8.5370742,0.2291832000000001,4.6409598,58.88862324,0.29220857999999994,-48.61548629999999
5.54,554,0.008,-0.8340000000000001,-0.504,9.224623800000002,0.4583664000000001,4.8701430000000006,58.98029652,0.25210152,-48.58683840000001
5.55,555,0.004,-0.8320000000000001,-0.499,10.828906199999999,0.286479,5.2712136,59.08342895999999,0.21199446,-48.55246092
5.56,556,0.009000000000000001,-0.8220000000000001,-0.484,12.891555,-0.4583664000000001,5.844171599999999,59.21520930000001,0.16042824,-48.529542600000006
5.57,557,0.005,-0.8220000000000001,-0.475,14.4958374,-0.7448454000000001,6.417129599999999,59.36417838,0.10313244,-48.5008947
5.58,558,0.003,-0.8340000000000001,-0.479,15.126091199999998,-0.7448454000000001,6.3025379999999975,59.51887703999999,0.04583664,-48.47224680000001
5.59,559,0.0,-0.8420000000000001,-0.483,15.5844576,-0.5156622000000001,6.1879464,59.6735757,0.0,-48.44932848
5.6,560,0.006,-0.8290000000000001,-0.483,17.131444199999994,-1.3178034,5.3285094000000015,59.8454631,-0.05156622,-48.43213974
5.61,561,0.006,-0.8290000000000001,-0.469,18.8503182,-2.9793816000000004,3.8961144,60.03453924,-0.09740286,-48.43786932
5.62,562,0.008,-0.8340000000000001,-0.447,19.5378678,-3.3231564,2.6929026,60.23507453999999,-0.13178034,-48.44932848
5.63,563,0.004,-0.84,-0.43799999999999994,20.1108258,-3.7815228,1.8334656000000005,60.44133942,-0.16042824,-48.47224680000001
5.64,564,0.004,-0.841,-0.442,20.912967000000002,-4.010706000000001,1.4896908000000002,60.65333388000001,-0.18907614,-48.5008947
5.6499999999999995,565,0.006,-0.847,-0.455,21.371333399999997,-3.4950437999999995,1.3178034,60.87105792,-0.21199446,-48.52381301999999
5.66,566,0.008,-0.852,-0.447,22.7464326,-3.4377480000000005,1.2605076000000002,61.10024112,-0.24064236,-48.54673134
5.67,567,0.018000000000000002,-0.8490000000000001,-0.441,24.9809688,-4.010706000000001,1.2605076000000002,61.35234264,-0.26356068,-48.57537924
5.68,568,0.016,-0.85,-0.445,26.642546999999997,-4.2398892,1.0886202,61.62736248,-0.29220857999999994,-48.60402714000001
5.6899999999999995,569,0.021,-0.846,-0.4270000000000001,28.2468294,-4.7555514,0.40107059999999994,61.91384148,-0.30939732,-48.6441342
5.7,570,0.032,-0.8440000000000001,-0.415,29.392745399999995,-4.9847346,-0.057295800000000015,62.21177964,-0.32085648,-48.68997084
5.71,571,0.031,-0.846,-0.41200000000000003,31.22621100000001,-5.3285094000000015,-0.11459160000000004,62.53263611999999,-0.33804522,-48.73580748
5.72,572,0.024,-0.855,-0.40299999999999997,32.257535399999995,-4.8128472,-0.057295800000000015,62.85922218,-0.35523396,-48.77591454
5.7299999999999995,573,0.01,-0.856,-0.387,33.3461556,-4.1252976000000015,0.11459160000000004,63.1972674,-0.3724227000000001,-48.81029202000001
5.74,574,0.013000000000000001,-0.858,-0.39399999999999996,34.262888399999994,-3.7242269999999995,0.572958,63.54677177999999,-0.38961144,-48.83893992
5.75,575,0.004,-0.86,-0.39799999999999996,35.236917,-4.2398892,1.3750992,63.90773531999999,-0.41252976,-48.86758782
5.76,576,0.006,-0.862,-0.3720000000000001,36.38283300000001,-4.6982555999999995,2.2345362,64.28015802,-0.44690724,-48.89623572000001
5.77,577,0.012,-0.868,-0.38299999999999995,36.898495200000006,-4.9847346,2.8074942000000003,64.65258072,-0.4870143000000001,-48.9306132
5.78,578,0.006,-0.85,-0.37799999999999995,38.27359439999999,-5.042030400000002,3.1512689999999997,65.04219216,-0.53285094,-48.959261100000006
5.79,579,0.009000000000000001,-0.84,-0.364,40.966497,-5.443101,3.1512689999999997,65.4604515,-0.5786875800000001,-48.99363858
5.8,580,0.008,-0.826,-0.35200000000000004,43.258328999999996,-5.6722842,3.1512689999999997,65.90162916,-0.61879464,-49.02801606000001
5.81,581,0.012,-0.821,-0.335,44.5761324,-5.7868758000000025,3.2658606,66.35426598000001,-0.66463128,-49.06812312
5.82,582,0.012,-0.8270000000000001,-0.314,45.2063862,-4.7555514,3.5523396000000003,66.81263238,-0.7104679199999999,-49.09104144
5.83,583,0.01,-0.838,-0.325,44.748019799999994,-2.9793816000000004,3.8961144,67.27099878,-0.75057498,-49.1025006
5.84,584,0.004,-0.838,-0.322,45.72204840000001,-2.0053530000000004,4.3544808,67.73509476,-0.7906820400000001,-49.1025006
5.85,585,0.0,-0.833,-0.298,47.326330799999994,-1.0313244000000001,5.1566220000000005,68.21637948,-0.83651868,-49.08531186
5.86,586,-0.016,-0.846,-0.309,48.8160216,0.0,7.3911582,68.70912336,-0.89954406,-49.05666396
5.87,587,-0.023,-0.838,-0.308,51.10785360000001,-0.3437748,8.9954406,69.23051514,-0.97975818,-49.02228648
5.88,588,-0.031,-0.8290000000000001,-0.257,53.9726436,-0.8594370000000001,9.682990199999999,69.77482524000001,-1.06570188,-48.99363858
5.89,589,-0.028999999999999998,-0.82,-0.235,55.7488134,-0.1718874,10.026765,70.34205366,-1.1573751600000002,-48.959261100000006
5.8999999999999995,590,-0.024,-0.825,-0.235,56.3790672,1.432395,10.084060800000001,70.91501166,-1.23758928,-48.90769488
5.91,591,-0.018000000000000002,-0.8290000000000001,-0.23199999999999998,56.0925882,2.86479,10.4278356,71.48224008000003,-1.32353298,-48.83893992
5.92,592,-0.018000000000000002,-0.828,-0.22,55.92070079999999,2.5210152000000003,10.7716104,72.0494685,-1.40947668,-48.78164412
5.93,593,-0.027999999999999997,-0.8290000000000001,-0.222,54.8320806,1.7761698000000001,10.886202,72.60523776,-1.50114996,-48.72434832
5.9399999999999995,594,-0.032,-0.823,-0.226,54.6028974,1.3750992,11.1153852,73.16100702,-1.59855282,-48.67278209999999
5.95,595,-0.047,-0.826,-0.21,54.4883058,0.40107059999999994,11.2872726,73.71104670000003,-1.70168526,-48.63267504
5.96,596,-0.069,-0.8340000000000001,-0.19899999999999998,54.3737142,0.2291832000000001,11.6310474,74.26108638000002,-1.8048177,-48.59256798
5.97,597,-0.07400000000000001,-0.8240000000000001,-0.203,54.08723520000001,1.2032118,11.401864199999999,74.81112606,-1.90795014,-48.54673134
5.9799999999999995,598,-0.079,-0.821,-0.198,54.3737142,2.86479,10.886202,75.36116574,-1.99962342,-48.48943554
5.99,599,-0.078,-0.8240000000000001,-0.18,55.1758554,4.8128472,9.9694692,75.916935,-2.07983754,-48.40922142
6.0,600,-0.066,-0.8340000000000001,-0.177,56.264475600000004,7.161975,8.7662574,76.48416342,-2.1485925000000003,-48.31754814
6.01,601,-0.055,-0.846,-0.188,56.3217714,9.0527364,7.5630456000000015,77.05139184,-2.19442914,-48.20295654
6.02,602,-0.039,-0.851,-0.17800000000000002,56.5509546,11.45916,6.417129599999999,77.61862026,-2.22880662,-48.07690578
6.03,603,-0.03,-0.86,-0.18600000000000005,56.6082504,13.2926256,5.6149884000000005,78.18584868,-2.25745452,-47.9279367
6.04,604,-0.038,-0.8590000000000001,-0.188,55.80610920000001,13.407217200000002,5.3858052,78.74161794,-2.28037284,-47.77896762
6.05,605,-0.044000000000000004,-0.866,-0.182,55.4623344,12.318597,4.9274388,79.2973872,-2.30329116,-47.64718728
6.06,606,-0.039,-0.872,-0.183,54.94667220000001,11.5164558,4.2398892,79.84742688,-2.3204799,-47.521136520000006
6.07,607,-0.037000000000000005,-0.88,-0.19,53.9726436,10.5424272,3.3231564,80.3860074,-2.33193906,-47.40654492
6.08,608,-0.034,-0.892,-0.182,52.8840234,8.7662574,2.7501984,80.91885834,-2.34339822,-47.30914206
6.09,609,-0.036000000000000004,-0.903,-0.179,51.68081160000001,6.7609043999999985,2.0053530000000004,81.44025012,-2.3491278,-47.23465752
6.1,610,-0.044000000000000004,-0.9209999999999999,-0.184,49.560867,4.297185,0.8021411999999999,81.93299400000002,-2.3491278,-47.18882088
6.11,611,-0.035,-0.92,-0.17600000000000002,47.498218200000004,0.286479,-0.8594370000000001,82.41427872,-2.3376686399999995,-47.17736172
6.12,612,-0.031,-0.934,-0.155,45.9512316,-2.6356068,-2.8074942000000003,82.8783747,-2.30329116,-47.20600962
6.13,613,-0.022000000000000002,-0.948,-0.114,43.77399120000001,-3.4950437999999995,-4.4117766,83.32528194,-2.2631841,-47.24038710000001
6.14,614,-0.008,-0.968,-0.10400000000000001,40.2789474,-4.4690724,-5.042030400000002,83.73781170000002,-2.21161788,-47.28622374
6.15,615,-0.011000000000000001,-0.985,-0.12,35.9817624,-6.875496000000001,-5.3285094000000015,84.09877524000002,-2.15432208,-47.3549787
6.16,616,-0.018000000000000002,-0.9890000000000001,-0.127,32.658606,-9.3392154,-5.5576926,84.43682046,-2.10275586,-47.44665198
6.17,617,-0.026000000000000002,-0.99,-0.126,30.080295,-10.657018800000001,-5.958763200000001,84.74621778000002,-2.05118964,-47.555514
6.18,618,-0.032,-0.993,-0.128,27.501984000000004,-10.7143146,-6.2452422,85.03269678,-1.99389384,-47.66437602000001
6.1899999999999995,619,-0.036000000000000004,-0.998,-0.128,24.637194,-9.9694692,-6.0160589999999985,85.2847983,-1.93659804,-47.76750846
6.2,620,-0.032,-1.011,-0.121,22.5745452,-9.224623800000002,-5.5003968,85.50825191999998,-1.87930224,-47.85918174
6.21,621,-0.024,-1.022,-0.114,20.8556712,-9.0527364,-4.8701430000000006,85.72024638,-1.8334656000000005,-47.95085502
6.22,622,-0.013999999999999999,-1.021,-0.10300000000000001,19.5378678,-9.568398599999998,-4.2398892,85.92651126,-1.7933585399999998,-48.04825788
6.2299999999999995,623,-0.008,-1.022,-0.098,18.334656,-10.1986524,-3.5523396000000003,86.11558740000002,-1.76471064,-48.14566074
6.24,624,-0.009000000000000001,-1.0190000000000001,-0.09699999999999999,17.246035799999998,-11.0580894,-2.86479,86.29893396,-1.73606274,-48.25452276
6.25,625,-0.018000000000000002,-1.0070000000000001,-0.09300000000000001,16.959556799999998,-12.7196676,-2.4064236,86.46509178,-1.71314442,-48.38057352000001
6.26,626,-0.032,-0.997,-0.07400000000000001,16.673077799999998,-14.037471,-2.2345362,86.63697918,-1.6959556799999995,-48.51808344
6.27,627,-0.040999999999999995,-0.997,-0.063,15.527161800000002,-14.4958374,-2.3491277999999998,86.80313699999998,-1.67303736,-48.66132294000001
6.28,628,-0.051,-0.996,-0.055,13.980175199999998,-13.464512999999998,-2.86479,86.95210608,-1.64438946,-48.79883286
6.29,629,-0.053,-0.9940000000000001,-0.052000000000000005,12.4331886,-11.2299768,-3.4950437999999995,87.08388642,-1.6157415599999996,-48.90769488
6.3,630,-0.053,-1.0,-0.053,11.0580894,-8.7089616,-4.010706000000001,87.18701886,-1.5813640800000002,-48.99363858
6.31,631,-0.054000000000000006,-1.008,-0.059000000000000004,9.9121734,-6.589017,-4.1252976000000015,87.29588088,-1.5412570200000002,-49.06239354
6.32,632,-0.053,-1.008,-0.066,9.9694692,-5.1566220000000005,-3.6669312000000014,87.39901332,-1.50687954,-49.11395975999999
6.33,633,-0.042,-1.006,-0.055,11.0580894,-4.1252976000000015,-3.2658606,87.50787534,-1.47250206,-49.15406682
6.34,634,-0.028999999999999998,-1.005,-0.037000000000000005,11.6310474,-2.9793816000000004,-3.1512689999999997,87.62819652,-1.43812458,-49.18271471999999
6.35,635,-0.019,-1.014,-0.028999999999999998,11.745639,-0.9167328000000001,-3.380452200000001,87.74278812,-1.39801752,-49.19417388
6.36,636,-0.019,-1.018,-0.026000000000000002,11.401864199999999,0.40107059999999994,-3.6669312000000014,87.85737972,-1.36364004,-49.1884443
6.37,637,-0.018000000000000002,-1.0170000000000001,-0.022000000000000002,10.3705398,0.6302538000000001,-3.7242269999999995,87.96624174,-1.32353298,-49.18271471999999
6.38,638,-0.017,-1.016,-0.024,8.7089616,0.40107059999999994,-3.6096353999999997,88.05218544,-1.2891555,-49.17698514
6.39,639,-0.019,-1.016,-0.026000000000000002,7.2765666,0.4583664000000001,-3.4950437999999995,88.12666998,-1.24904844,-49.17698514
6.4,640,-0.023,-1.02,-0.031,6.1879464,0.8594370000000001,-3.5523396000000003,88.17250662000002,-1.21467096,-49.16552598
6.41,641,-0.025,-1.022,-0.032,4.9847346,1.7188740000000002,-3.7815228,88.22407283999998,-1.1745639,-49.14833724
6.42,642,-0.028999999999999998,-1.036,-0.040999999999999995,3.7815228,2.4637194,-3.7815228,88.26417990000002,-1.14018642,-49.12541892
6.43,643,-0.031,-1.047,-0.042,2.5783110000000002,2.5210152000000003,-3.0939732,88.28709822,-1.10580894,-49.1025006
6.4399999999999995,644,-0.023,-1.042,-0.042,1.5469866,1.8907614,-2.5210152000000003,88.30428696,-1.08289062,-49.07958228
6.45,645,-0.011000000000000001,-1.031,-0.040999999999999995,0.8594370000000001,0.6875496,-2.5783110000000002,88.24699116,-1.01986524,-49.0738527
6.46,646,-0.002,-1.023,-0.04,0.3437748,-0.2291832000000001,-3.0939732,88.25272074,-0.9912173399999998,-49.07958228
6.47,647,0.001,-1.016,-0.037000000000000005,0.2291832000000001,-1.145916,-3.2658606,88.25272074,-0.95683986,-49.09104144
6.4799999999999995,648,0.005,-1.014,-0.038,0.0,-1.6042823999999998,-2.6929026,88.25272074,-0.92819196,-49.10823018
6.49,649,0.005,-1.012,-0.039,-0.2291832000000001,-2.0053530000000004,-1.8334656000000005,88.25272074,-0.91100322,-49.12541892
6.5,650,0.003,-1.0090000000000001,-0.045,-0.6302538000000001,-2.5210152000000003,-1.2032118,88.18969536,-0.86516658,-49.14833724
6.51,651,-0.001,-1.0070000000000001,-0.042,-0.6875496,-3.8388186,-1.2032118,88.18396578000002,-0.8537074199999999,-49.1884443
6.52,652,-0.01,-0.998,-0.04,-0.057295800000000015,-5.2139178,-1.3178034,88.18396578000002,-0.8422482600000001,-49.24001052
6.53,653,-0.012,-0.985,-0.038,0.9167328000000001,-6.1879464,-1.3178034,88.19542494,-0.8307891,-49.30303590000001
6.54,654,-0.01,-0.973,-0.036000000000000004,2.4064236,-6.589017,-1.145916,88.22407283999998,-0.8193299399999999,-49.36606128
6.55,655,-0.006,-0.968,-0.038,3.9534102,-6.875496000000001,-0.6875496,88.24699116,-0.8021412000000001,-49.43481624
6.56,656,0.001,-0.968,-0.039,5.3858052,-7.6776372,-0.3437748,88.30428696,-0.79641162,-49.50930078
6.57,657,0.006999999999999999,-0.976,-0.036000000000000004,6.3598338,-8.479778399999999,0.057295800000000015,88.37304191999998,-0.79641162,-49.59524448000001
6.58,658,0.011000000000000001,-0.995,-0.034,6.9327918,-9.3392154,0.572958,88.44752645999998,-0.8021412000000001,-49.68691776000001
6.59,659,-0.005,-1.0070000000000001,-0.036000000000000004,7.448453999999999,-10.4278356,0.572958,88.52201099999998,-0.8078707799999998,-49.7900502
6.6,660,-0.019,-1.006,-0.028999999999999998,7.8495246,-10.828906199999999,0.572958,88.59649553999998,-0.8193299399999999,-49.89891222
6.61,661,-0.027999999999999997,-1.011,-0.02,7.6203414,-9.7975818,0.8021411999999999,88.67670966,-0.8250595199999999,-49.9905855
6.62,662,-0.034,-1.016,-0.013999999999999999,7.1046792000000005,-8.307891,0.9167328000000001,88.7511942,-0.8307891,-50.0765292
6.63,663,-0.028999999999999998,-1.022,-0.009000000000000001,6.9327918,-7.906820400000001,1.145916,88.82567874,-0.8422482600000001,-50.15101374
6.64,664,-0.028999999999999998,-1.021,-0.006999999999999999,6.6463128000000005,-7.6203414,1.2605076000000002,88.89443370000002,-0.8537074199999999,-50.22549828
6.65,665,-0.033,-1.014,-0.006,6.3025379999999975,-6.990087599999999,1.145916,88.95745908,-0.87662574,-50.29425324
6.66,666,-0.036000000000000004,-1.0090000000000001,-0.011000000000000001,5.9014674000000005,-6.0733548,0.572958,89.01475488,-0.87662574,-50.35727862
6.67,667,-0.038,-1.004,-0.012,6.1879464,-5.1566220000000005,0.0,89.08350984,-0.87662574,-50.40311526000001
6.68,668,-0.03,-1.006,-0.003,6.7609043999999985,-4.5263682,-0.11459160000000004,89.1522648,-0.87662574,-50.4489519
6.6899999999999995,669,-0.023,-1.011,0.0,7.0473834,-3.6096353999999997,-0.057295800000000015,89.22674934,-0.87662574,-50.48332938
6.7,670,-0.019,-1.014,0.004,7.2765666,-3.2085647999999996,0.0,89.29550429999998,-0.87089616,-50.51770686
6.71,671,-0.015,-1.016,0.006999999999999999,7.161975,-2.9220858,0.057295800000000015,89.36998884,-0.87089616,-50.54635476
6.72,672,-0.017,-1.016,0.009000000000000001,6.589017,-2.4064236,0.057295800000000015,89.4387438,-0.87089616,-50.56927308
6.7299999999999995,673,-0.017,-1.0170000000000001,0.011000000000000001,5.5003968,-2.0053530000000004,0.057295800000000015,89.49603959999996,-0.87089616,-50.58646182
6.74,674,-0.021,-1.02,0.015,4.3544808,-1.6615782,0.0,89.54187624,-0.87089616,-50.60365056000001
6.75,675,-0.022000000000000002,-1.022,0.013999999999999999,3.4377480000000005,-1.5469866,-0.1718874,89.57625372,-0.87089616,-50.61510972
6.76,676,-0.021,-1.022,0.01,2.86479,-2.291832,-0.3437748,89.60490161999998,-0.86516658,-50.63802804
6.77,677,-0.021,-1.0190000000000001,0.009000000000000001,2.6356068,-2.86479,-0.286479,89.63354952,-0.86516658,-50.66667594
6.78,678,-0.024,-1.0170000000000001,0.01,2.7501984,-3.380452200000001,-0.11459160000000004,89.66219742,-0.8594370000000001,-50.70105342
6.79,679,-0.027999999999999997,-1.0170000000000001,0.015,2.9220858,-3.3231564,0.11459160000000004,89.69084532,-0.8594370000000001,-50.735430900000004
6.8,680,-0.03,-1.0170000000000001,0.02,2.7501984,-2.7501984,0.4583664000000001,89.72522280000004,-0.8823553199999999,-50.76407879999999
6.81,681,-0.033,-1.018,0.022000000000000002,2.291832,-2.1199446,0.40107059999999994,89.75387070000002,-0.8823553199999999,-50.78126754
6.82,682,-0.034,-1.0190000000000001,0.019,1.3750992,-2.0626488000000003,0.11459160000000004,89.76532986,-0.8823553199999999,-50.80418586
6.83,683,-0.034,-1.0190000000000001,0.015,0.572958,-2.1772404,-0.11459160000000004,89.77105944,-0.8823553199999999,-50.827104180000006
6.84,684,-0.033,-1.014,0.01,0.0,-2.2345362,-0.3437748,89.77678902,-0.87662574,-50.850022499999994
6.85,685,-0.033,-1.012,0.009000000000000001,-0.2291832000000001,-2.86479,-0.5156622000000001,89.75387070000002,-0.89954406,-50.8786704
6.86,686,-0.037000000000000005,-1.013,0.012,-0.40107059999999994,-3.6669312000000014,-0.5156622000000001,89.75387070000002,-0.89381448,-50.91304787999999
6.87,687,-0.039,-1.016,0.02,-0.6875496,-3.4377480000000005,-0.40107059999999994,89.74814112,-0.8880849000000001,-50.94742536
6.88,688,-0.038,-1.018,0.024,-1.0886202,-3.0939732,-0.3437748,89.73668196000001,-0.8823553199999999,-50.98180284
6.89,689,-0.034,-1.0170000000000001,0.026000000000000002,-1.6042823999999998,-2.86479,-0.5156622000000001,89.71949322,-0.87662574,-51.01045074
6.9,690,-0.025,-1.015,0.022000000000000002,-2.0626488000000003,-2.9793816000000004,-0.40107059999999994,89.70230448,-0.8823553199999999,-51.03909864
6.91,691,-0.022000000000000002,-1.0090000000000001,0.019,-2.6356068,-3.4950437999999995,-0.2291832000000001,89.67365658,-0.87662574,-51.07347612
6.92,692,-0.026000000000000002,-1.0090000000000001,0.018000000000000002,-2.9793816000000004,-3.8961144,0.0,89.64500868,-0.87662574,-51.11358317999999
6.93,693,-0.033,-1.0090000000000001,0.016,-3.3231564,-4.010706000000001,0.0,89.6106312,-0.87662574,-51.15369024
6.9399999999999995,694,-0.038,-1.006,0.017,-3.0939732,-3.8961144,0.0,89.5819833,-0.87662574,-51.1937973
6.95,695,-0.04,-0.9990000000000001,0.016,-2.9220858,-4.1252976000000015,0.0,89.55333540000002,-0.89954406,-51.23390436
6.96,696,-0.042,-0.998,0.013999999999999999,-2.6356068,-4.4117766,-0.1718874,89.53041707999998,-0.89381448,-51.279740999999994
6.97,697,-0.040999999999999995,-1.001,0.013000000000000001,-2.0053530000000004,-4.7555514,-0.11459160000000004,89.51322834,-0.89381448,-51.32557764000001
6.9799999999999995,698,-0.042,-1.005,0.013999999999999999,-1.2032118,-4.8701430000000006,-0.057295800000000015,89.50176918,-0.89381448,-51.37714386
6.99,699,-0.040999999999999995,-1.006,0.015,-0.40107059999999994,-4.4117766,0.1718874,89.49603959999996,-0.89381448,-51.41725092
7.0,700,-0.044000000000000004,-1.004,0.015,0.11459160000000004,-3.4950437999999995,0.5156622000000001,89.50176918,-0.9453807,-51.45735798
7.01,701,-0.048,-1.005,0.013000000000000001,0.4583664000000001,-2.6356068,0.7448454000000001,89.50749876,-0.95111028,-51.48027629999999
7.02,702,-0.053,-1.004,0.009000000000000001,0.8021411999999999,-1.8334656000000005,0.8594370000000001,89.51895792,-0.96256944,-51.50319462
7.03,703,-0.054000000000000006,-1.002,0.01,1.2605076000000002,-1.0313244000000001,1.145916,89.53041707999998,-0.9740286,-51.5089242
7.04,704,-0.051,-1.003,0.012,1.6042823999999998,-0.11459160000000004,1.2032118,89.54760582,-0.98548776,-51.51465378
7.05,705,-0.048,-1.004,0.012,1.8907614,0.4583664000000001,1.3178034,89.55906498,-1.03705398,-51.5089242
7.06,706,-0.043,-1.003,0.013000000000000001,2.3491277999999998,0.6875496,1.3750992,89.5819833,-1.05424272,-51.50319462
7.07,707,-0.04,-1.006,0.017,2.6929026,0.6875496,1.3750992,89.6106312,-1.06570188,-51.49173546
7.08,708,-0.038,-1.006,0.016,2.6929026,1.0313244000000001,1.2605076000000002,89.6392791,-1.07716104,-51.48600588000001
7.09,709,-0.038,-1.006,0.013999999999999999,2.9793816000000004,1.5469866,1.2032118,89.66792699999998,-1.09434978,-51.46881714
7.1,710,-0.039,-1.004,0.013000000000000001,3.4950437999999995,2.1772404,1.145916,89.70230448,-1.12299768,-51.44589881999999
7.11,711,-0.04,-1.002,0.016,3.8961144,2.9220858,1.0313244000000001,89.74241154,-1.12872726,-51.41725092
7.12,712,-0.037000000000000005,-1.002,0.02,4.1825934,3.6096353999999997,0.9167328000000001,89.7825186,-1.14018642,-51.38287344
7.13,713,-0.03,-1.001,0.021,4.5263682,4.010706000000001,0.8594370000000001,89.82835524000002,-1.15164558,-51.34276638
7.14,714,-0.025,-1.004,0.022000000000000002,4.5263682,4.010706000000001,1.0886202,89.87419188,-1.16310474,-51.29692974
7.15,715,-0.024,-1.0090000000000001,0.022000000000000002,4.3544808,3.6669312000000014,1.2605076000000002,89.92002852,-1.1745639,-51.26255225999999
7.16,716,-0.026000000000000002,-1.014,0.022000000000000002,4.2398892,3.5523396000000003,1.2032118,89.96013558000001,-1.18602306,-51.22817478
7.17,717,-0.027999999999999997,-1.014,0.018000000000000002,4.297185,3.9534102,0.8021411999999999,90.00597222,-1.19748222,-51.18806772
7.18,718,-0.026000000000000002,-1.013,0.015,4.583664,4.2398892,0.5156622000000001,90.05180886000002,-1.2032117999999998,-51.14223108
7.1899999999999995,719,-0.024,-1.011,0.017,4.8701430000000006,4.4690724,0.286479,90.0976455,-1.20894138,-51.09639444
7.2,720,-0.021,-1.01,0.021,5.2712136,4.8128472,0.40107059999999994,90.14921172,-1.20894138,-51.0505578
7.21,721,-0.018000000000000002,-1.006,0.021,5.443101,4.8128472,0.572958,90.20077794,-1.21467096,-51.00472116
7.22,722,-0.013999999999999999,-1.006,0.022000000000000002,5.3858052,4.5263682,0.7448454000000001,90.25234416,-1.22613012,-50.95888452
7.2299999999999995,723,-0.013999999999999999,-1.0070000000000001,0.023,5.3285094000000015,3.7815228,0.9167328000000001,90.30963996,-1.23758928,-50.91877746
7.24,724,-0.013000000000000001,-1.01,0.026000000000000002,5.1566220000000005,3.2085647999999996,0.9740286,90.36120618,-1.24904844,-50.88439998
7.25,725,-0.011000000000000001,-1.01,0.027000000000000003,4.9274388,2.8074942000000003,1.0313244000000001,90.40704282,-1.24331886,-50.85575208
7.26,726,-0.009000000000000001,-1.011,0.028999999999999998,4.583664,2.5783110000000002,1.0886202,90.45287946,-1.25477802,-50.83283376
7.27,727,-0.012,-1.013,0.027999999999999997,4.0680017999999984,2.1199446,1.0886202,90.49298652,-1.26623718,-50.80991544000001
7.28,728,-0.013999999999999999,-1.012,0.027999999999999997,3.4950437999999995,1.6615782,1.0313244000000001,90.53309358,-1.27769634,-50.7927267
7.29,729,-0.013999999999999999,-1.01,0.027999999999999997,3.2658606,1.3750992,1.0313244000000001,90.56174148,-1.2891555,-50.77553796
7.3,730,-0.015,-1.008,0.027000000000000003,3.4950437999999995,0.9740286,0.9167328000000001,90.59038938,-1.28342592,-50.76407879999999
7.31,731,-0.017,-1.0070000000000001,0.028999999999999998,3.7242269999999995,0.6302538000000001,0.8594370000000001,90.63049644,-1.2891555,-50.75834922
7.32,732,-0.018000000000000002,-1.0090000000000001,0.03,4.010706000000001,0.5156622000000001,0.8594370000000001,90.6706035,-1.30061466,-50.75261964
7.33,733,-0.02,-1.0090000000000001,0.034,4.010706000000001,0.3437748,0.8594370000000001,90.71071056,-1.30634424,-50.75261964
7.34,734,-0.02,-1.0070000000000001,0.034,3.7815228,0.40107059999999994,0.8021411999999999,90.75081762,-1.3178034,-50.74689006
7.35,735,-0.021,-1.0070000000000001,0.035,3.3231564,0.40107059999999994,0.6875496,90.78519509999998,-1.31207382,-50.74116048
7.36,736,-0.021,-1.0090000000000001,0.034,2.9793816000000004,0.2291832000000001,0.5156622000000001,90.813843,-1.3178034,-50.74116048
7.37,737,-0.02,-1.011,0.036000000000000004,2.7501984,0.0,0.3437748,90.84249090000002,-1.32353298,-50.74116048
7.38,738,-0.019,-1.014,0.036000000000000004,2.5210152000000003,-0.1718874,0.286479,90.86540922,-1.32353298,-50.74116048
7.39,739,-0.021,-1.014,0.037000000000000005,2.2345362,-0.286479,0.2291832000000001,90.88832754,-1.32353298,-50.74116048
7.4,740,-0.023,-1.013,0.037000000000000005,2.1199446,-0.057295800000000015,0.4583664000000001,90.90551628,-1.3178034,-50.74116048
7.41,741,-0.025,-1.01,0.035,1.8334656000000005,0.3437748,0.4583664000000001,90.92270502,-1.32353298,-50.74116048
7.42,742,-0.026000000000000002,-1.0090000000000001,0.034,1.7188740000000002,0.572958,0.40107059999999994,90.94562334,-1.32926256,-50.735430900000004
7.43,743,-0.027000000000000003,-1.008,0.033,1.7188740000000002,0.572958,0.286479,90.96281208,-1.3349921400000002,-50.72970132
7.4399999999999995,744,-0.03,-1.0090000000000001,0.034,1.5469866,0.5156622000000001,0.057295800000000015,90.97427124,-1.3349921400000002,-50.72397174
7.45,745,-0.032,-1.0070000000000001,0.035,1.5469866,0.8021411999999999,-0.057295800000000015,90.97427124,-1.34072172,-50.71251258
7.46,746,-0.032,-1.005,0.03,1.5469866,1.3178034,-0.11459160000000004,90.99145998,-1.34072172,-50.70105342
7.47,747,-0.033,-1.003,0.028999999999999998,1.432395,1.8907614,-0.286479,91.00291914,-1.34072172,-50.67813510000001
7.4799999999999995,748,-0.032,-1.006,0.031,1.432395,2.1772404,-0.40107059999999994,91.02010788,-1.3349921400000002,-50.66094636
7.49,749,-0.028999999999999998,-1.01,0.028999999999999998,1.2032118,2.5783110000000002,-0.3437748,91.03156704,-1.32926256,-50.63229846
7.5,750,-0.024,-1.01,0.024,1.0886202,2.4064236,-0.1718874,91.00291914,-1.3178034,-50.60938014
7.51,751,-0.02,-1.0090000000000001,0.022000000000000002,0.9167328000000001,2.1772404,0.0,91.01437829999999,-1.3178034,-50.58646182
7.52,752,-0.019,-1.0090000000000001,0.021,0.7448454000000001,1.8907614,0.0,91.02010788,-1.32353298,-50.5635435
7.53,753,-0.022000000000000002,-1.008,0.023,0.9167328000000001,1.6615782,-0.057295800000000015,91.03156704,-1.3178034,-50.54635476
7.54,754,-0.027000000000000003,-1.01,0.026000000000000002,1.2605076000000002,1.8907614,-0.057295800000000015,91.0430262,-1.3178034,-50.52916602000001
7.55,755,-0.023,-1.015,0.027999999999999997,1.3750992,2.5210152000000003,0.0,91.03729662,-1.31207382,-50.5062477
7.56,756,-0.023,-1.014,0.028999999999999998,1.2605076000000002,2.1199446,-0.057295800000000015,91.04875578,-1.31207382,-50.48332938
7.57,757,-0.021,-1.014,0.028999999999999998,1.0313244000000001,1.6042823999999998,-0.057295800000000015,91.05448536,-1.31207382,-50.46614064
7.58,758,-0.019,-1.012,0.033,0.7448454000000001,0.9740286,-0.11459160000000004,91.06594452,-1.31207382,-50.45468147999999
7.59,759,-0.017,-1.012,0.036000000000000004,0.286479,0.6302538000000001,-0.057295800000000015,91.06594452,-1.31207382,-50.4489519
7.6,760,-0.018000000000000002,-1.014,0.037000000000000005,-0.2291832000000001,0.7448454000000001,0.0,91.04875578,-1.26623718,-50.43749274
7.61,761,-0.021,-1.013,0.035,-0.5156622000000001,1.0313244000000001,0.11459160000000004,91.0430262,-1.26623718,-50.42603358
7.62,762,-0.026000000000000002,-1.006,0.035,-0.6302538000000001,1.0313244000000001,0.2291832000000001,91.03729662,-1.26623718,-50.420303999999994
7.63,763,-0.03,-1.003,0.038,-0.572958,1.0313244000000001,0.11459160000000004,91.02583746,-1.27196676,-50.40884484
7.64,764,-0.032,-1.001,0.040999999999999995,-0.4583664000000001,1.0886202,0.0,91.02583746,-1.27196676,-50.39738568
7.65,765,-0.032,-1.003,0.042,-0.3437748,1.0313244000000001,-0.11459160000000004,91.02583746,-1.2891555,-50.38592652000001
7.66,766,-0.031,-1.0070000000000001,0.040999999999999995,-0.5156622000000001,0.9167328000000001,-0.3437748,91.02010788,-1.28342592,-50.38019694
7.67,767,-0.027999999999999997,-1.008,0.040999999999999995,-0.6302538000000001,0.4583664000000001,-0.4583664000000001,91.00864872,-1.27769634,-50.37446736
7.68,768,-0.027000000000000003,-1.011,0.042,-0.6875496,0.1718874,-0.40107059999999994,91.00291914,-1.27769634,-50.36873778
7.6899999999999995,769,-0.025,-1.01,0.046,-0.6875496,0.286479,-0.11459160000000004,90.99718956,-1.27769634,-50.36873778
7.7,770,-0.024,-1.012,0.046,-0.8021411999999999,0.4583664000000001,0.11459160000000004,91.00864872,-1.26623718,-50.3630082
7.71,771,-0.024,-1.013,0.045,-0.9167328000000001,0.6875496,0.286479,91.00291914,-1.27196676,-50.35727862
7.72,772,-0.027000000000000003,-1.01,0.042,-0.9167328000000001,1.0313244000000001,0.5156622000000001,90.99145998,-1.27769634,-50.34581946000001
7.7299999999999995,773,-0.028999999999999998,-1.006,0.037000000000000005,-0.8594370000000001,1.0313244000000001,0.5156622000000001,90.98000082,-1.28342592,-50.33436029999999
7.74,774,-0.032,-1.003,0.034,-0.7448454000000001,0.9167328000000001,0.4583664000000001,90.97427124,-1.2891555,-50.32863072
7.75,775,-0.037000000000000005,-1.001,0.034,-0.4583664000000001,0.9740286,0.3437748,90.95135292,-1.32926256,-50.31717156000001
7.76,776,-0.042,-1.001,0.034,-0.2291832000000001,1.6042823999999998,0.2291832000000001,90.95135292,-1.3349921400000002,-50.29998282
7.77,777,-0.044000000000000004,-1.001,0.034,0.057295800000000015,2.291832,0.11459160000000004,90.95135292,-1.3349921400000002,-50.2770645
7.78,778,-0.042,-1.003,0.035,0.2291832000000001,2.6929026,-0.11459160000000004,90.95135292,-1.3349921400000002,-50.254146180000006
7.79,779,-0.036000000000000004,-1.004,0.034,0.6875496,2.5210152000000003,-0.5156622000000001,90.9570825,-1.32926256,-50.22549828
7.8,780,-0.031,-1.004,0.033,0.8021411999999999,2.0626488000000003,-0.6875496,90.9570825,-1.32926256,-50.20830954
7.81,781,-0.028999999999999998,-1.004,0.035,0.8594370000000001,1.5469866,-0.6302538000000001,90.96281208,-1.32353298,-50.1911208
7.82,782,-0.027000000000000003,-1.005,0.035,0.9167328000000001,1.432395,-0.5156622000000001,90.97427124,-1.3178034,-50.17393206
7.83,783,-0.026000000000000002,-1.0070000000000001,0.035,1.0313244000000001,1.4896908000000002,-0.11459160000000004,90.9857304,-1.3178034,-50.1624729
7.84,784,-0.026000000000000002,-1.006,0.037000000000000005,1.2605076000000002,1.3178034,0.11459160000000004,90.99718956,-1.3178034,-50.14528416
7.85,785,-0.027999999999999997,-1.006,0.04,1.3178034,1.0886202,0.286479,91.01437829999999,-1.32926256,-50.133825
7.86,786,-0.028999999999999998,-1.005,0.039,1.3178034,0.8594370000000001,0.3437748,91.02583746,-1.32926256,-50.12809542000001
7.87,787,-0.027999999999999997,-1.008,0.038,1.432395,0.6875496,0.4583664000000001,91.0430262,-1.3349921400000002,-50.12236584
7.88,788,-0.028999999999999998,-1.01,0.036000000000000004,1.5469866,0.286479,0.286479,91.05448536,-1.34072172,-50.11663626
7.89,789,-0.031,-1.01,0.036000000000000004,1.5469866,-0.057295800000000015,0.286479,91.0716741,-1.34072172,-50.11663626
7.9,790,-0.03,-1.008,0.037000000000000005,1.7188740000000002,-0.572958,0.2291832000000001,91.08313326,-1.35218088,-50.12236584
7.91,791,-0.03,-1.008,0.036000000000000004,1.6615782,-0.8594370000000001,0.057295800000000015,91.10032199999999,-1.35218088,-50.133825
7.92,792,-0.031,-1.0090000000000001,0.04,1.7188740000000002,-0.9740286,0.0,91.11751074,-1.35218088,-50.13955458
7.93,793,-0.031,-1.0090000000000001,0.044000000000000004,1.6042823999999998,-0.8021411999999999,0.0,91.13469948,-1.35218088,-50.15101374
7.94,794,-0.031,-1.0090000000000001,0.045,1.3750992,-0.4583664000000001,0.0,91.15188822,-1.35218088,-50.15674332
