TimeStamp(s),FrameCounter,AccX,AccY,AccZ,GyrX,GyrY,GyrZ,EulerX,EulerY,EulerZ
0.01,1,-0.002,-1.013,0.104,-0.7448454000000001,-8.59437,1.2605076000000002,95.17405338,-0.42398892,-54.52268328
0.02,2,-0.003,-1.008,0.101,-1.3178034,-9.0527364,1.2032118,95.16259422,-0.42398892,-54.61435656
0.03,3,-0.001,-1.001,0.104,-1.6042823999999998,-9.224623800000002,1.2605076000000002,95.15113506,-0.42398892,-54.70602984
0.04,4,0.003,-0.999,0.104,-1.2605076000000002,-9.1100322,1.432395,95.1396759,-0.4297185000000001,-54.79770312000001
0.05,5,0.005,-0.997,0.099,-1.2605076000000002,-8.880849000000003,1.4896908000000002,95.12821674,-0.43544808,-54.8893764
0.060000000000000005,6,0.0,-1.0,0.099,-1.2032118,-8.8235532,1.7188740000000002,95.09956884,-0.4297185000000001,-54.9753201
0.06999999999999999,7,-0.006,-1.005,0.098,-0.6875496,-8.7089616,1.8907613999999997,95.09956884,-0.43544808,-55.06699338000001
0.08,8,-0.014,-1.009,0.096,0.0,-8.5370742,2.0626488000000003,95.09956884,-0.44690724,-55.15293708
0.09,9,-0.014,-1.009,0.096,0.6302538000000001,-8.5370742,2.0626488000000003,95.10529842,-0.4583664000000001,-55.23888078
0.09999999999999999,10,-0.01,-1.005,0.097,1.145916,-8.7662574,1.7761698,95.12248716,-0.46409598,-55.32482448
0.11,11,-0.001,-0.999,0.096,1.3178034,-9.1100322,1.3178034,95.11675757999998,-0.4526368200000001,-55.41649776000001
0.12,12,0.003,-0.998,0.094,1.0886202,-9.6829902,1.0313244,95.12821674,-0.4526368200000001,-55.51390062
0.13,13,0.008,-0.997,0.093,0.6302538000000001,-10.313244,0.6875496,95.1396759,-0.44690724,-55.61130347999999
0.14,14,0.006,-1.001,0.091,0.4583664000000001,-11.0007936,0.8021411999999999,95.14540548,-0.44117766,-55.72016549999999
0.15000000000000002,15,0.004,-1.005,0.093,0.3437748,-11.6310474,1.0313244,95.15113506,-0.43544808,-55.84048668000001
0.16,16,-0.001,-1.011,0.092,0.2291832000000001,-11.8029348,1.2032118,95.13394632,-0.42398892,-55.95507828
0.17,17,-0.009000000000000001,-1.017,0.095,0.5156622000000001,-11.8029348,1.432395,95.1396759,-0.42398892,-56.07539946000001
0.18000000000000002,18,-0.018000000000000002,-1.019,0.1,1.2032118,-11.516455800000001,1.3178034,95.15686464,-0.42398892,-56.18999106
0.19,19,-0.023,-1.014,0.107,2.1199446,-11.0580894,0.8594370000000001,95.17978295999998,-0.42398892,-56.29885308
0.2,20,-0.022,-1.003,0.114,2.5210152000000003,-10.255948199999999,0.4010706,95.20843086,-0.41252976,-56.39625594
0.21000000000000002,21,-0.02,-0.997,0.117,2.4064236,-9.453807000000001,0.0,95.24280834,-0.41252976,-56.49365879999999
0.22,22,-0.015,-0.996,0.118,2.0053530000000004,-8.5370742,-0.286479,95.26572666,-0.39534102,-56.57387292000001
0.23,23,-0.014,-0.999,0.114,1.6042823999999998,-7.5630456000000015,-0.572958,95.2829154,-0.38388186,-56.64835746
0.24000000000000002,24,-0.015,-1.006,0.112,1.2032118,-6.5317212,-0.7448454000000001,95.30010414,-0.36669312,-56.71138284
0.25,25,-0.02,-1.011,0.116,0.7448454000000001,-5.0993262,-0.9740286,95.30583372,-0.34950438,-56.76294906
0.26,26,-0.026,-1.016,0.119,0.4010706,-3.4950437999999995,-1.0313244,95.31729288,-0.38388186,-56.79159696000001
0.27,27,-0.035,-1.025,0.119,0.1718874,-2.1199446,-0.8021411999999999,95.32302246,-0.3724227000000001,-56.81451528
0.28,28,-0.043,-1.03,0.122,-0.3437748,-0.5156622000000001,-0.4583664000000001,95.31729288,-0.36669312,-56.82024486
0.29000000000000004,29,-0.046,-1.028,0.123,-1.0886202,1.3750992,0.0,95.30583372,-0.3724227000000001,-56.80878570000001
0.3,30,-0.04,-1.026,0.117,-1.8907613999999997,3.0939732,0.286479,95.2829154,-0.37815228,-56.77440822000001
0.31,31,-0.029,-1.015,0.114,-2.578311,4.8128472,0.5156622000000001,95.2542675,-0.40680018,-56.72857157999999
0.32,32,-0.018000000000000002,-1.008,0.107,-3.7815227999999994,6.130650599999999,0.5156622000000001,95.21416044,-0.41825934,-56.67127578
0.33,33,-0.006999999999999999,-1.003,0.101,-5.0993262,6.5317212,0.4583664000000001,95.16259422,-0.43544808,-56.60825040000001
0.34,34,0.001,-1.002,0.101,-5.958763200000001,6.0733548,0.5156622000000001,95.09956884,-0.44690724,-56.5509546
0.35000000000000003,35,0.011,-1.007,0.095,-7.1046792000000005,5.0993262,0.572958,95.0250843,-0.4583664000000001,-56.499388380000006
0.36000000000000004,36,0.017,-1.013,0.086,-8.59437,4.1252976000000015,0.572958,94.9104927,-0.43544808,-56.45928131999999
0.37,37,0.023,-1.016,0.081,-9.797581800000001,3.151269,0.4583664000000001,94.80736026,-0.44690724,-56.43063342000001
0.38,38,0.028,-1.014,0.079,-10.3705398,1.7761698,0.4583664000000001,94.70422782,-0.4526368200000001,-56.41344468
0.39,39,0.027000000000000003,-1.011,0.083,-10.4278356,0.3437748,0.286479,94.5953658,-0.4583664000000001,-56.41344468
0.4,40,0.02,-1.002,0.086,-10.1413566,-0.8594370000000001,0.057295800000000015,94.49223336,-0.4583664000000001,-56.42490384
0.41000000000000003,41,0.013,-0.998,0.086,-9.969469199999999,-2.1199446,-0.11459160000000004,94.37764176,-0.4297185000000001,-56.44782216
0.42000000000000004,42,0.013,-0.998,0.084,-9.969469199999999,-3.380452200000001,-0.3437748,94.2802389,-0.42398892,-56.48219964
0.43,43,0.023,-0.993,0.085,-9.8548776,-4.8701430000000006,-0.5156622000000001,94.17710646,-0.41252976,-56.52803628
0.44,44,0.035,-0.992,0.08900000000000001,-9.224623800000002,-7.5057497999999985,-0.572958,94.08543318,-0.4010706000000001,-56.60252082
0.45,45,0.043,-0.991,0.101,-8.479778399999999,-10.0840608,-0.4583664000000001,93.99948948,-0.38388186,-56.70565326
0.46,46,0.045,-0.987,0.113,-7.5630456000000015,-12.261301199999998,-0.4583664000000001,93.94792326,-0.33231564,-56.82597444
0.47000000000000003,47,0.037000000000000005,-0.981,0.131,-6.2452422,-14.266654199999998,-0.4583664000000001,93.89062746,-0.31512690000000004,-56.96921394
0.48000000000000004,48,0.019,-0.979,0.151,-4.9274388,-15.4125702,-0.8594370000000001,93.83906124,-0.29220857999999994,-57.11818301999999
0.49,49,-0.003,-0.977,0.16899999999999998,-4.1825934,-15.126091199999998,-1.6615782,93.79895417999998,-0.26356068,-57.2671521
0.5,50,-0.03,-0.982,0.177,-4.2398892,-13.2353298,-2.9220857999999996,93.75884712,-0.21772404,-57.39320286
0.51,51,-0.05,-0.999,0.189,-4.4690724,-9.797581800000001,-4.4117766,93.7932246,-0.20053530000000008,-57.48487614
0.52,52,-0.052000000000000005,-1.023,0.194,-5.443101,-6.016058999999999,-5.9014674000000005,93.74165838,-0.13750992,-57.54217193999999
0.53,53,-0.039,-1.042,0.192,-7.333862400000001,-3.2085648,-6.5317212,93.66717384,-0.06875496,-57.57081984
0.54,54,-0.015,-1.047,0.182,-9.2819196,-1.6615782,-6.6463128000000005,93.56977098,-0.00572958,-57.58227900000001
0.55,55,0.002,-1.037,0.17600000000000002,-10.9434978,-0.2291832000000001,-6.2452422,93.46090896,0.05156622,-57.58227900000001
0.56,56,0.015,-1.022,0.175,-11.688343199999998,0.9740286,-5.5003968,93.40934274,0.12032118,-57.57081984
0.5700000000000001,57,0.018000000000000002,-1.007,0.172,-11.9748222,1.9480572,-4.7555514,93.28329198,0.16615782,-57.54790152
0.5800000000000001,58,0.016,-0.992,0.177,-12.1467096,3.6096354,-4.4117766,93.1629708,0.20626488,-57.50779446
0.59,59,0.011,-0.987,0.18600000000000005,-12.261301199999998,5.844171599999999,-4.583664,93.03692004,0.24637194,-57.45049866
0.6,60,0.005,-0.992,0.19,-12.834259199999998,8.9954406,-5.2139178,92.9051397,0.29220857999999994,-57.35882538
0.61,61,0.005,-1.002,0.193,-13.349921400000001,11.745639,-5.958763200000001,92.819196,0.3437748,-57.2385042
0.62,62,0.006999999999999999,-1.015,0.196,-13.6364004,13.2926256,-6.417129599999999,92.68168608,0.39534102,-57.10672386
0.63,63,0.013,-1.02,0.191,-13.5791046,14.2093584,-6.4744254,92.54417616,0.44690724,-56.96348436
0.64,64,0.019,-1.021,0.183,-14.32395,14.4385416,-6.130650599999999,92.39520708,0.4984734599999999,-56.82024486
0.65,65,0.02,-1.015,0.174,-15.4125702,14.8396122,-5.5576926,92.24050842,0.5443101,-56.67700536
0.66,66,0.021,-1.001,0.154,-15.9282324,15.4125702,-4.6409598,92.10872808,0.5844171599999999,-56.5223067
0.67,67,0.018000000000000002,-0.991,0.145,-15.2406828,15.870936600000002,-4.1252976000000015,91.95402942,0.61306506,-56.36187846
0.68,68,0.006,-0.987,0.157,-13.407217200000002,15.3552744,-3.9534102,91.8165195,0.64171296,-56.21290938
0.6900000000000001,69,-0.002,-0.985,0.17,-13.464512999999998,16.7876694,-4.8128472,91.67900958,0.68182002,-56.04675156
0.7000000000000001,70,0.006999999999999999,-0.977,0.16699999999999998,-14.8396122,18.7357266,-5.844171599999999,91.5300405,0.72765666,-55.86340500000001
0.7100000000000001,71,0.013,-0.977,0.129,-16.329303,17.303331600000003,-5.72958,91.386801,0.7734933,-55.68578802
0.72,72,0.002,-0.993,0.078,-17.8762896,11.5737516,-3.8961144,91.20345444,0.8078707799999998,-55.57692599999999
0.73,73,-0.016,-1.01,0.034,-18.5638392,2.3491278,-0.8021411999999999,91.02010788,0.8136003599999999,-55.55400768
0.74,74,-0.051,-1.02,-0.005,-19.938938399999998,-9.1100322,3.0939732,90.813843,0.7849524600000001,-55.64568095999999
0.75,75,-0.067,-0.981,-0.06,-22.173474600000002,-19.2513888,7.0473834,90.59038938,0.72192708,-55.84048668000001
0.76,76,-0.04,-0.917,-0.06,-23.032911600000002,-29.0489706,9.740286,90.33828786,0.62452422,-56.13269526000001
0.77,77,0.004,-0.89,-0.008,-23.6631654,-31.5699858,7.1046792000000005,90.10337508,0.56149884,-56.44782216
0.78,78,0.027000000000000003,-0.935,0.035,-24.923673,-29.8511118,1.3750992,89.85127356000002,0.55576926,-56.74576032
0.79,79,0.038,-1.024,0.046,-27.2728008,-28.4760126,-3.6096354,89.57052414,0.59587632,-57.03223932000001
0.8,80,0.04,-1.122,0.06,-27.215505,-29.67922440000001,-4.4690724,89.29550429999998,0.64171296,-57.33017748
0.81,81,0.019,-1.217,0.076,-24.2934192,-32.830493399999995,-0.6302538000000001,89.06059152,0.65317212,-57.65676354000001
0.8200000000000001,82,-0.037000000000000005,-1.256,0.08900000000000001,-21.5432208,-34.8931422,6.4744254,88.84286748000002,0.59014674,-58.00053833999999
0.8300000000000001,83,-0.125,-1.214,0.08,-20.3973048,-34.7785506,13.521808800000002,88.63660259999996,0.4526368200000001,-58.34431314
0.8400000000000001,84,-0.18,-1.122,0.069,-19.0222056,-33.518043,20.7410796,88.44752645999998,0.24637194,-58.67662878
0.85,85,-0.194,-1.023,0.066,-17.131444199999994,-32.658606,23.4339822,88.27563906,0.01145916,-58.99175568
0.86,86,-0.181,-0.96,0.076,-17.131444199999994,-31.741873200000004,23.491278,88.12666998,-0.25210152,-59.301153
0.87,87,-0.153,-0.924,0.1,-18.5065434,-30.4813656,22.4026578,87.94332342,-0.47555514,-59.59909116
0.88,88,-0.123,-0.916,0.13699999999999998,-21.1421502,-27.903054600000004,21.0848544,87.73705853999998,-0.69327918,-59.86838142000001
0.89,89,-0.099,-0.919,0.14400000000000002,-24.064235999999998,-24.694489800000003,19.767051,87.49641618000004,-0.89381448,-60.10902378
0.9,90,-0.08800000000000001,-0.93,0.121,-26.814434400000003,-22.5745452,18.907614000000002,87.2328555,-1.0886202,-60.32674782
0.91,91,-0.107,-0.942,0.121,-27.215505,-21.772404,18.7357266,86.99794272,-1.30061466,-60.53874228000001
0.92,92,-0.14,-0.946,0.14300000000000002,-29.1635622,-17.8762896,18.621135,86.70573413999998,-1.4896908000000002,-60.70490010000001
0.93,93,-0.166,-0.926,0.141,-32.0283522,-14.2093584,18.162768600000003,86.39060724,-1.6787669399999998,-60.84241002
0.9400000000000001,94,-0.18600000000000005,-0.908,0.151,-32.7159018,-10.599723,17.0168526,86.06402118000004,-1.85638392,-60.93981288
0.9500000000000001,95,-0.196,-0.912,0.156,-31.8564648,-6.417129599999999,15.3552744,85.7431647,-2.01108258,-60.99710868000001
0.9600000000000001,96,-0.2,-0.927,0.16,-30.080295,-1.8334656000000005,13.750992000000002,85.50825191999998,-2.2058883,-61.00856784
0.97,97,-0.201,-0.943,0.165,-28.7051958,3.5523396000000003,12.261301199999998,85.21031375999998,-2.32620948,-60.96273120000001
0.98,98,-0.192,-0.952,0.161,-27.7311672,9.969469199999999,10.4851314,84.92383476,-2.42934192,-60.85959876
0.99,99,-0.173,-0.954,0.117,-25.8977016,14.610429000000002,8.59437,84.6545445,-2.50955604,-60.71062968
1.0,100,-0.141,-0.942,0.106,-19.1367972,17.6471064,6.3598338,84.44827962000002,-2.5611222600000003,-60.53301269999999
1.01,101,-0.109,-0.934,0.14400000000000002,-14.037471,19.8816426,5.0993262,84.37952466,-2.61841806,-60.332477399999995
1.02,102,-0.08,-0.913,0.165,-12.7769634,21.027558600000006,4.4117766,84.23628516,-2.64706596,-60.12048294
1.03,103,-0.066,-0.8909999999999999,0.189,-11.9748222,20.6837838,4.583664,84.09877524000002,-2.68144344,-59.91421806000001
1.04,104,-0.064,-0.875,0.174,-9.8548776,18.6784308,4.7555514,83.98991322,-2.71582092,-59.72514192
1.05,105,-0.068,-0.872,0.16,-4.6409598,13.521808800000002,4.8701430000000006,83.93261742,-2.7501984,-59.58763199999999
1.06,106,-0.05,-0.893,0.188,-0.6302538000000001,9.167328,5.2712136,84.15034145999998,-2.79030546,-59.49595872
1.07,107,-0.02,-0.946,0.197,0.0,7.3911582,7.7349330000000025,84.15034145999998,-2.85906042,-59.4157446
1.08,108,-0.02,-0.97,0.183,1.4896908000000002,3.6096354,12.2040054,84.16180062,-2.9793816000000004,-59.36990796
1.09,109,-0.053,-0.994,0.16899999999999998,2.5210152000000003,1.2605076000000002,14.7250206,84.18471894,-3.1226211000000004,-59.34126005999999
1.1,110,-0.091,-0.986,0.1,2.6929026,-4.1252976000000015,16.558486199999994,84.21336684,-3.28877892,-59.36417838
1.11,111,-0.106,-0.942,0.142,6.875496000000001,-10.3705398,18.048177,84.37952466,-3.48931422,-59.45012207999999
1.12,112,-0.087,-0.91,0.205,8.880849000000003,-14.9542038,19.767051,84.4826571,-3.6955791,-59.58190241999999
1.1300000000000001,113,-0.07,-0.889,0.229,8.307891,-19.938938399999998,21.772404,84.58005996,-3.9247623,-59.7595194
1.1400000000000001,114,-0.083,-0.8959999999999999,0.28,5.6149884000000005,-24.4653066,22.5172494,84.6545445,-4.16540466,-59.97724344
1.1500000000000001,115,-0.115,-0.942,0.3,1.3750992,-24.694489800000003,22.459953600000002,84.68892198,-4.40031744,-60.20069706
1.1600000000000001,116,-0.166,-1.036,0.271,-0.5156622000000001,-24.1215318,23.2620948,84.79205442,-4.669607699999999,-60.42415067999999
1.17,117,-0.212,-1.119,0.265,1.7188740000000002,-22.91832,24.0069402,84.83216148,-4.921709219999999,-60.63041556
1.18,118,-0.264,-1.198,0.24,6.1879464,-21.2567418,24.5226024,84.91237559999998,-5.17381074,-60.8194917
1.19,119,-0.331,-1.261,0.252,8.193299399999999,-19.308684600000007,23.8923486,85.01550804,-5.42591226,-60.991379099999996
1.2,120,-0.385,-1.34,0.223,5.9014674000000005,-14.667724800000002,22.8037284,85.08999258,-5.65509546,-61.11742986
1.21,121,-0.4,-1.461,0.035,4.9847345999999995,-11.229976800000001,22.4026578,85.15301796,-5.895737819999999,-61.20910314
1.22,122,-0.366,-1.589,-0.114,13.0061466,-13.8082878,24.064235999999998,85.30198704,-6.14210976,-61.32369473999999
1.23,123,-0.269,-1.689,-0.159,23.376686399999997,-19.480572,25.2674478,85.55981814,-6.39994086,-61.49558214
1.24,124,-0.15,-1.6130000000000002,-0.207,13.6936962,-18.6784308,21.6005166,85.72024638,-6.617664899999999,-61.66173996
1.25,125,-0.05,-1.334,-0.235,-0.286479,-4.5263682,8.193299399999999,85.72597596,-6.7036086,-61.70184702
1.26,126,0.044,-1.222,-0.327,-2.0053530000000004,6.8182002000000015,-3.380452200000001,85.63430267999998,-6.617664899999999,-61.63882163999999
1.27,127,0.106,-1.173,-0.322,1.7188740000000002,15.756345000000001,-12.318597,85.63430267999998,-6.48588456,-61.48985256
1.28,128,0.092,-1.0659999999999998,-0.256,4.3544808,24.0069402,-19.4232762,85.64576184,-6.285349259999999,-61.26639894
1.29,129,0.014,-0.959,-0.211,9.453807000000001,27.043617600000005,-19.480572,85.7145168,-6.079084379999999,-61.00856784
1.3,130,-0.123,-0.877,-0.131,11.4018642,22.459953600000002,-13.6936962,85.8004605,-5.930115299999999,-60.79657338000001
1.31,131,-0.208,-0.8640000000000001,-0.064,9.6256944,15.9282324,-6.4744254,85.87494504,-5.91865614,-60.63614514
1.32,132,-0.208,-0.937,-0.031,5.5576926,3.0366774,-1.2032118,85.92651126,-5.9014674000000005,-60.60749724
1.33,133,-0.134,-1.013,0.015,4.7555514,-6.2452422,-0.6875496,85.98380705999998,-5.895737819999999,-60.66479303999999
1.34,134,-0.028,-1.079,0.029,8.59437,-8.880849000000003,-4.6982556,86.08120991999998,-5.85563076,-60.75646632
1.35,135,0.039,-1.072,0.022,8.651665800000002,-7.8495246,-10.8289062,86.17861278000002,-5.746768739999999,-60.84241002
1.36,136,0.086,-1.014,0.031,7.5630456000000015,-2.3491278,-18.7357266,86.29320437999998,-5.466019319999999,-60.88824666000001
1.37,137,0.095,-0.959,0.021,5.7868758000000025,4.583664,-26.69984280000001,86.35050018,-5.19672906,-60.85959876
1.3800000000000001,138,0.069,-0.92,-0.002,5.0993262,11.688343199999998,-33.1742682,86.39060724,-4.86441342,-60.76219590000001
1.3900000000000001,139,0.021,-0.867,-0.01,3.5523396000000003,16.7303736,-36.5547204,86.41352556000002,-4.4977203,-60.61322682
1.4000000000000001,140,-0.028,-0.805,-0.006,1.0313244,17.4179232,-34.4347758,86.40779597999996,-4.14821592,-60.46425774000001
1.4100000000000001,141,-0.076,-0.7440000000000001,0.01,0.0,15.183387000000002,-29.1635622,86.40779597999996,-3.86173692,-60.332477399999995
1.42,142,-0.103,-0.682,0.046,-0.6302538000000001,10.4851314,-22.6891368,86.39633682,-3.6382833,-60.24080411999999
1.43,143,-0.118,-0.634,0.069,-2.1199446,5.6149884000000005,-16.673077799999998,86.36768892,-3.4663959,-60.19496748
1.44,144,-0.109,-0.619,0.08800000000000001,-3.8388186,1.6042823999999998,-12.261301199999998,86.32758186,-3.34607472,-60.18350832
1.45,145,-0.081,-0.6609999999999999,0.1,-4.583664,-1.4896908000000002,-10.1413566,86.28747480000001,-3.2486718599999995,-60.20642664
1.46,146,-0.015,-0.7290000000000001,0.103,-6.1879464,-2.6356068,-10.313244,86.27028606,-3.1226211000000004,-60.24080411999999
1.47,147,0.078,-0.8079999999999999,0.102,-7.2765666,-4.5263682,-11.5737516,86.19580152,-3.0137590800000003,-60.29809991999999
1.48,148,0.14400000000000002,-0.856,0.111,-8.250595200000001,-7.906820400000001,-13.349921400000001,86.12131698,-2.88197874,-60.38404362
1.49,149,0.207,-0.887,0.112,-8.9381448,-10.8289062,-14.610429000000002,86.03537328,-2.74446882,-60.50436480000001
1.5,150,0.243,-0.913,0.119,-8.5370742,-13.6936962,-15.2979786,85.95515916000002,-2.59549974,-60.6476043
1.51,151,0.24,-0.938,0.161,-6.6463128000000005,-18.621135,-15.5844576,85.97807748,-2.35485738,-60.85386918
1.52,152,0.172,-0.97,0.222,-4.0680017999999984,-24.4080108,-15.985528200000001,85.94942957999999,-2.21161788,-61.10597070000001
1.53,153,0.075,-1.014,0.276,-4.3544808,-28.361421000000004,-16.501190400000002,85.92078168,-2.05691922,-61.39817928
1.54,154,-0.013,-1.0590000000000002,0.267,-5.0993262,-27.1009134,-16.8449652,85.88067462000002,-1.90222056,-61.67892870000001
1.55,155,-0.08199999999999999,-1.071,0.221,-4.583664,-20.168121600000006,-17.303331600000003,85.84056756,-1.74179232,-61.89092316
1.56,156,-0.103,-1.027,0.193,0.8021411999999999,-9.3965112,-17.589810600000003,85.97807748,-1.61001198,-61.98832602
1.57,157,-0.126,-0.986,0.23,11.516455800000001,-1.2605076000000002,-18.621135,86.09266908,-1.4209358399999998,-62.01124434000001
1.58,158,-0.165,-0.987,0.315,21.199446,3.2085648,-20.511896399999998,86.31039312,-1.21467096,-61.9940556
1.59,159,-0.187,-1.046,0.422,28.81978740000001,6.016058999999999,-23.835052800000003,86.59687212,-0.9740286,-61.94248938
1.6,160,-0.16699999999999998,-1.15,0.471,34.66395900000001,6.990087599999999,-27.501984000000004,86.94637650000001,-0.69900876,-61.88519358
1.61,161,-0.099,-1.24,0.408,38.7892566,10.313244,-30.080295,87.37036542000001,-0.39534102,-61.7935203
1.62,162,-0.033,-1.251,0.322,45.3782736,10.4851314,-29.2781538,87.82873182,-0.10313244,-61.69611744
1.6300000000000001,163,-0.032,-1.203,0.348,58.9000824,6.589017,-24.1788276,88.43033772,0.13750992,-61.62736248
1.6400000000000001,164,-0.006,-1.196,0.113,54.25912260000001,4.6982556,-14.0947668,88.98037740000002,0.28647900000000004,-61.58152584
1.6500000000000001,165,-0.03,-1.154,-0.192,40.680018,-1.8334656000000005,-5.2139178,89.39290716000002,0.33804522,-61.592985
1.6600000000000001,166,-0.119,-1.136,-0.246,46.2377106,-7.2765666,-2.86479,89.81689608,0.34950438,-61.66173996
1.6700000000000002,167,-0.189,-1.226,-0.293,56.149884,0.4010706,-14.037471,90.38985408,0.49274388,-61.6502808
1.68,168,-0.268,-1.3430000000000002,-0.36,50.420304,15.6417534,-36.955791,90.8997867,0.8594370000000001,-61.48412298
1.69,169,-0.249,-1.337,-0.445,31.3980984,30.9970278,-61.4210976,91.22064318,1.45531332,-61.16326650000001
1.7,170,-0.16,-1.224,-0.406,22.058883,36.955791,-74.771019,91.44982638,2.18296998,-60.77365506
1.71,171,0.001,-1.073,-0.224,19.0222056,37.9298196,-74.88561059999998,91.62744336,2.91062664,-60.37831404
1.72,172,0.152,-1.058,-0.133,9.568398599999998,31.5699858,-66.176649,91.74203496,3.54661002,-60.04026882
1.73,173,0.259,-1.115,-0.102,1.3750992,21.6578124,-52.6548402,91.76495328,4.05654264,-59.81108562000001
1.74,174,0.311,-1.254,-0.119,0.0,12.4331886,-35.8671708,91.77641244,4.40604702,-59.6735757
1.75,175,0.359,-1.409,-0.123,-2.8074942000000003,6.0733548,-21.485925,91.74776454000002,4.6180414800000005,-59.60482074
1.76,176,0.41,-1.4580000000000002,-0.105,-3.5523396000000003,1.4896908000000002,-14.495837400000001,91.70765748,4.77846972,-59.59336158
1.77,177,0.401,-1.409,-0.058,-0.2291832000000001,-5.2139178,-9.969469199999999,91.70192790000002,4.88160216,-59.63919822
1.78,178,0.336,-1.258,-0.029,0.8594370000000001,-11.8602306,-4.5263682,91.70192790000002,4.93316838,-59.75378982
1.79,179,0.226,-1.061,0.005,1.7188740000000002,-16.042824000000003,2.0053530000000004,91.70765748,4.921709219999999,-59.91421806000001
1.8,180,0.151,-0.92,0.047,2.8074942000000003,-17.7044022,8.136003599999999,91.72484622,4.85295426,-60.09183504
1.81,181,0.1,-0.7979999999999999,0.085,1.432395,-16.329303,12.605076,91.74203496,4.74409224,-60.25799286
1.82,182,0.057,-0.7,0.09,-3.2085648,-14.2093584,16.558486199999994,91.70192790000002,4.5836640000000015,-60.40696194
1.83,183,0.003,-0.628,0.076,-8.479778399999999,-12.2040054,19.308684600000007,91.60452504,4.40031744,-60.53301269999999
1.84,184,-0.057,-0.595,0.058,-12.261301199999998,-10.3705398,20.8556712,91.4727447,4.19978214,-60.64187472
1.85,185,-0.119,-0.601,0.035,-16.272007199999994,-7.3911582,21.6578124,91.30658688,3.98778768,-60.72208884000001
1.86,186,-0.181,-0.617,0.017,-19.6524594,-3.2658606,22.345362,91.100322,3.71276784,-60.76219590000001
1.87,187,-0.247,-0.652,0.014,-20.912967,2.86479,22.5172494,90.88832754,3.48931422,-60.73927758000001
1.8800000000000001,188,-0.29100000000000004,-0.6829999999999999,0.022,-20.5691922,13.407217200000002,20.912967,90.68779224,3.27159018,-60.61322682
1.8900000000000001,189,-0.311,-0.711,0.042,-19.8816426,24.4080108,17.8189938,90.49298652,3.08824362,-60.37831404
1.9000000000000001,190,-0.28600000000000003,-0.726,0.064,-19.8243468,36.7839036,13.464512999999998,90.30391038,2.93927454,-60.0173505
1.9100000000000001,191,-0.214,-0.728,0.09,-18.5065434,48.128471999999995,8.5370742,90.14921172,2.80176462,-59.53606578
1.9200000000000002,192,-0.114,-0.728,0.11,-16.1001198,55.6342218,4.1252976000000015,90.00597222,2.73873924,-58.99175568
1.93,193,0.0,-0.731,0.118,-12.9488508,58.49901179999999,0.286479,89.89138061999998,2.7215505,-58.4130681
1.94,194,0.076,-0.7509999999999999,0.124,-9.568398599999998,57.35309579999999,-2.6356068,89.81689608,2.73300966,-57.84583968000001
1.95,195,0.111,-0.7959999999999999,0.134,-8.250595200000001,53.285094,-3.9534102,89.74814112,2.75592798,-57.31871832
1.96,196,0.109,-0.857,0.099,-8.9954406,46.753372799999994,-2.86479,89.68511574,2.79030546,-56.86035191999999
1.97,197,0.078,-0.906,0.011,-11.229976800000001,40.4508348,-0.8021411999999999,89.58771288,2.79030546,-56.45928131999999
1.98,198,0.014,-0.927,-0.023,-10.7716104,32.085648000000006,1.5469866,89.49031002000002,2.76738714,-56.14415441999999
1.99,199,-0.063,-0.912,0.099,-4.6409598,27.6738714,4.010706000000001,89.45020296,2.7215505,-55.86913458
2.0,200,-0.073,-0.903,0.242,1.7761698,29.335449600000004,6.016058999999999,89.47885086,2.65852512,-55.57692599999999
2.01,201,-0.012,-0.935,0.292,2.9220857999999996,31.8564648,7.333862400000001,89.62209035999999,2.57258142,-55.25033994
2.02,202,0.054000000000000006,-1.023,0.316,4.1252976000000015,33.5753388,8.5370742,89.67365658,2.47517856,-54.9180243
2.03,203,0.12,-1.205,0.31,9.6256944,27.3300966,13.8655836,89.7825186,2.33193906,-54.64873404
2.04,204,0.135,-1.396,0.324,17.131444199999994,3.8961144,24.7517856,89.95440599999998,2.0912967,-54.60862698000001
2.05,205,0.18,-1.476,0.366,22.0015872,-16.615782,34.8358464,90.17785962,1.7475218999999995,-54.76905522
2.0599999999999996,206,0.211,-1.393,0.488,27.1009134,-28.2468294,39.3622146,90.47579778,1.38082878,-55.04980464000001
2.07,207,0.215,-1.235,0.568,29.9657034,-31.8564648,36.6120162,90.77373594,1.0313244,-55.36493154
2.0799999999999996,208,0.128,-1.137,0.615,31.22621100000001,-32.4294228,26.5852512,91.09459242,0.7849524600000001,-55.68578802
2.09,209,-0.026,-1.199,0.491,20.7410796,-29.220858000000003,13.980175199999998,91.30658688,0.6589017,-55.9779966
2.0999999999999996,210,-0.131,-1.33,0.092,2.9220857999999996,-16.959556799999998,2.9220857999999996,91.33523478,0.64171296,-56.14415441999999
2.11,211,-0.159,-1.4169999999999998,-0.147,7.1046792000000005,1.0313244,-5.3285094000000015,91.39253058,0.68182002,-56.13269526000001
2.1199999999999997,212,-0.053,-1.511,-0.139,22.7464326,16.1001198,-1.0886202,91.62171378,0.6875496,-55.97226702
2.13,213,0.063,-1.571,-0.319,15.6417534,24.350715,14.266654199999998,91.78214202,0.53285094,-55.73162466
2.1399999999999997,214,0.175,-1.476,-0.392,-1.2605076000000002,31.971056400000002,33.3461556,91.76495328,0.18334656,-55.42795692
2.15,215,0.287,-1.399,-0.521,-16.615782,26.7571386,51.9099948,91.59306588,-0.3437748,-55.18158498
2.1599999999999997,216,0.317,-1.188,-0.498,-16.4438946,7.8495246,65.317212,91.36961226,-0.96256944,-55.13001876
2.17,217,0.231,-0.953,-0.345,-6.0733548,-12.2040054,70.473834,91.31804604,-1.6558486199999998,-55.27325826
2.1799999999999997,218,0.118,-0.807,-0.085,14.152062599999999,-22.91832,66.6350154,91.4727447,-2.30902074,-55.51390062
2.19,219,-0.033,-0.8909999999999999,-0.092,22.5745452,-20.3973048,52.82672760000001,91.71338706000002,-2.81895336,-55.73162466
2.1999999999999997,220,-0.15,-1.013,-0.118,20.168121600000006,-11.4018642,36.38283300000001,91.9311111,-3.16845774,-55.85194584
2.21,221,-0.263,-1.149,-0.037000000000000005,24.1788276,-0.6302538000000001,24.694489800000003,92.1602943,-3.4492071599999994,-55.86340500000001
2.2199999999999998,222,-0.359,-1.244,-0.024,17.9335854,8.59437,17.475219,92.33791128,-3.62682414,-55.78319088000001
2.23,223,-0.369,-1.257,-0.019,10.1413566,19.308684600000007,10.7716104,92.42385498,-3.74714532,-55.59411474
2.2399999999999998,224,-0.316,-1.172,-0.021,2.5210152000000003,28.4760126,1.8334656000000005,92.42958456,-3.78725238,-55.31336532
2.25,225,-0.217,-1.016,-0.009000000000000001,2.2345362,34.66395900000001,-7.161975,92.42385498,-3.74141574,-54.96959052
2.26,226,-0.095,-0.8759999999999999,0.013,7.333862400000001,39.47680620000001,-14.266654199999998,92.46396204,-3.62109456,-54.56851991999999
2.27,227,0.0,-0.763,0.02,9.568398599999998,40.966497,-18.2200644,92.52698742,-3.4663959,-54.15599016
2.28,228,0.059,-0.6629999999999999,0.025,5.3285094000000015,36.5547204,-19.9962342,92.55563532,-3.2945085,-53.78356746000001
2.29,229,0.097,-0.5920000000000001,0.017,-2.6356068,28.991674800000002,-19.5378678,92.5040691,-3.1226211000000004,-53.49135888000001
2.3,230,0.142,-0.531,-0.005,-10.255948199999999,20.2254174,-17.9908812,92.3894775,-2.9564632800000004,-53.27936442
2.31,231,0.189,-0.504,-0.006999999999999999,-15.2979786,10.4851314,-15.469866,92.2175901,-2.77311672,-53.17623198
2.32,232,0.243,-0.515,0.004,-18.1054728,-0.1718874,-12.4331886,92.03424354,-2.64706596,-53.17623198
2.3299999999999996,233,0.293,-0.564,0.012,-19.194093,-11.1153852,-8.880849000000003,91.84516740000001,-2.55539268,-53.285094
2.34,234,0.339,-0.634,0.022,-19.2513888,-22.173474600000002,-5.1566220000000005,91.66182084,-2.4923673,-53.50281804
2.3499999999999996,235,0.348,-0.7040000000000001,0.052000000000000005,-17.8762896,-33.3461556,-2.4637194,91.5013926,-2.45226024,-53.83513368
2.36,236,0.29100000000000004,-0.758,0.081,-13.8655836,-44.117766,-0.6302538000000001,91.39826016,-2.35485738,-54.28204092
2.3699999999999997,237,0.193,-0.8059999999999999,0.116,-9.3965112,-49.61816279999999,-0.4583664000000001,91.3295052,-2.32620948,-54.7747848
2.38,238,0.054000000000000006,-0.818,0.16,-6.9327918,-53.628868800000006,-0.286479,91.28366856,-2.29756158,-55.30190616
2.3899999999999997,239,-0.076,-0.7809999999999999,0.215,-3.7815227999999994,-58.5563076,2.1772404,91.27793898,-2.28610242,-55.88632332
2.4,240,-0.159,-0.777,0.264,0.1718874,-64.51507079999999,5.2139178,91.31231646,-2.30902074,-56.5223067
2.4099999999999997,241,-0.183,-0.8059999999999999,0.308,0.7448454000000001,-70.9894962,6.3598338,91.4154489,-2.36058696,-57.22704503999999
2.42,242,-0.139,-0.8390000000000001,0.345,0.9740286,-73.73969459999998,6.4744254,91.46701512,-2.38923486,-57.9547017
2.4299999999999997,243,-0.101,-0.86,0.344,-1.8907613999999997,-70.30194660000001,5.958763200000001,91.48420386,-2.41215318,-58.65371046
2.44,244,-0.017,-0.918,0.261,-1.2605076000000002,-58.38442020000001,4.1825934,91.50712218,-2.42361234,-59.23239804
2.4499999999999997,245,0.046,-0.979,0.237,3.151269,-48.8160216,1.432395,91.56441798,-2.4064236,-59.71368276000001
2.46,246,0.044,-1.026,0.246,7.6203414,-44.0031744,-1.2605076000000002,91.71911664,-2.35485738,-60.14913084
2.4699999999999998,247,-0.035,-1.065,0.262,11.745639,-44.5761324,-3.0366774,91.85662656,-2.29756158,-60.58457892
2.48,248,-0.116,-1.086,0.311,17.8762896,-44.977203,-3.8961144,92.06289144000002,-2.22880662,-61.02575657999999
2.4899999999999998,249,-0.147,-1.11,0.358,24.1215318,-41.539455,-5.2712136,92.3321817,-2.14286292,-61.43255676
2.5,250,-0.165,-1.102,0.396,31.111619399999995,-37.1849742,-5.3858052,92.66449734,-2.0626488000000003,-61.7935203
2.51,251,-0.194,-1.139,0.429,40.90920120000001,-36.32553720000001,-4.0680017999999984,93.1343229,-2.005353,-62.14302468
2.52,252,-0.214,-1.275,0.392,41.9405256,-31.2835068,-4.4690724,93.57550056,-1.93086846,-62.44669242
2.53,253,-0.267,-1.506,0.063,23.032911600000002,-29.4500412,-5.5003968,93.8218725,-1.85065434,-62.72744184
2.54,254,-0.396,-1.7180000000000002,-0.28300000000000003,3.2658606,-17.18874,-16.7876694,93.86197956,-1.6673077799999998,-62.887870080000006
2.55,255,-0.575,-1.983,-0.396,20.7410796,18.5638392,-49.388979600000006,94.06251486,-1.19175264,-62.66441646
2.56,256,-0.733,-2.101,-0.48,44.51883660000001,45.6074568,-84.39671340000002,94.49796294,-0.40680018,-62.14875426
2.57,257,-0.523,-1.651,-0.411,41.8832298,48.0711762,-94.7672532,94.9104927,0.47555514,-61.58725542000001
2.5799999999999996,258,-0.046,-0.994,-0.257,35.46610020000001,48.128471999999995,-84.797784,95.27145624,1.2605076000000002,-61.03721574
2.59,259,0.32,-0.765,-0.156,24.2361234,26.298772200000002,-64.744254,95.52355776,1.87357266,-60.71062968
2.5999999999999996,260,0.463,-0.795,-0.092,-1.0313244,6.875496000000001,-52.712136,95.51782818,2.38350528,-60.59030849999999
2.61,261,0.474,-0.96,-0.124,-3.8961144,-3.6669312000000014,-42.8572584,95.4261549,2.90489706,-60.60176765999999
2.6199999999999997,262,0.466,-1.283,-0.047,4.1252976000000015,-12.605076,-33.5753388,95.46053238,3.2486718599999995,-60.69344094
2.63,263,0.466,-1.586,-0.001,-1.3178034,-12.834259199999998,-26.0122932,95.44334364,3.5236917,-60.79657338000001
2.6399999999999997,264,0.446,-1.679,0.047,-4.7555514,-14.4385416,-21.6578124,95.38604784,3.752874900000001,-60.91689456
2.65,265,0.353,-1.511,0.024,-5.042030400000002,-15.4125702,-18.7357266,95.32875204,3.95913978,-61.048674899999995
2.6599999999999997,266,0.202,-1.252,-0.023,-2.2345362,-13.8655836,-15.3552744,95.24280834,4.14821592,-61.18045524
2.67,267,0.07400000000000001,-1.047,-0.023,1.5469866,-10.026765,-10.255948199999999,95.2542675,4.25707794,-61.27212852
2.6799999999999997,268,-0.012,-0.945,-0.01,4.9274388,-3.724227,-4.4117766,95.30010414,4.30864416,-61.30650599999999
2.69,269,-0.077,-0.872,0.001,4.297185,2.578311,1.8907613999999997,95.34594078,4.28572584,-61.2778581
2.6999999999999997,270,-0.132,-0.802,-0.006,3.8961144,8.250595200000001,8.8235532,95.39177742,4.1883229800000015,-61.20910314
2.71,271,-0.166,-0.7490000000000001,-0.024,3.6096354,12.9488508,15.0687954,95.40323658,3.95913978,-61.09451154
2.7199999999999998,272,-0.195,-0.696,-0.029,1.7761698,14.2093584,19.938938399999998,95.4261549,3.74714532,-60.97419036
2.73,273,-0.217,-0.652,-0.013,0.0,12.261301199999998,21.8869956,95.43188448,3.5122325400000003,-60.87105792
2.7399999999999998,274,-0.221,-0.626,0.019,-0.6875496,10.1413566,21.772404,95.4261549,3.28877892,-60.79084379999999
2.75,275,-0.194,-0.623,0.051,-1.4896908000000002,9.167328,20.1108258,95.41469573999998,3.07678446,-60.72208884000001
2.76,276,-0.14300000000000002,-0.634,0.081,-1.9480572,9.969469199999999,18.2773602,95.40323658,2.84760126,-60.63614514
2.77,277,-0.098,-0.654,0.105,-1.9480572,13.464512999999998,15.4125702,95.38604784,2.68144344,-60.52155354
2.78,278,-0.057,-0.664,0.141,-1.2605076000000002,20.5691922,11.45916,95.38031826,2.53820394,-60.332477399999995
2.79,279,-0.033,-0.6659999999999999,0.171,-1.3750992,30.5386614,6.589017,95.37458868,2.44080108,-60.03453924
2.8,280,-0.025,-0.655,0.194,-1.8907613999999997,41.6540466,1.7188740000000002,95.36312952,2.37204612,-59.62773906
2.81,281,-0.029,-0.6459999999999999,0.205,-2.86479,51.10785360000001,-1.8907613999999997,95.37458868,2.3204799,-59.12353602
2.82,282,-0.052000000000000005,-0.65,0.212,-3.380452200000001,57.52498320000001,-4.6982556,95.35739994,2.29756158,-58.55057802
2.8299999999999996,283,-0.094,-0.6779999999999999,0.201,-3.2085648,62.738901,-6.6463128000000005,95.3402112,2.28610242,-57.93178338
2.84,284,-0.139,-0.715,0.173,-0.6875496,67.49445240000001,-7.2192707999999985,95.35167036,2.28037284,-57.26142252
2.8499999999999996,285,-0.163,-0.7340000000000001,0.136,2.9220857999999996,70.9894962,-6.6463128000000005,95.39750699999999,2.25745452,-56.55668418000001
2.86,286,-0.17600000000000002,-0.732,0.123,6.016058999999999,75.9742308,-5.2712136,95.48345069999999,2.18869956,-55.80037962
2.8699999999999997,287,-0.152,-0.7170000000000001,0.097,6.5317212,80.7297822,-1.6042823999999998,95.5693944,2.10275586,-55.00969758
2.88,288,-0.152,-0.6829999999999999,0.14800000000000002,12.318597,81.8756982,4.583664,95.7126339,1.9595163600000003,-54.20755638000001
2.8899999999999997,289,-0.141,-0.726,0.243,15.9282324,83.65186800000002,12.4904844,95.89025088,1.73033316,-53.39968560000001
2.9,290,-0.126,-0.787,0.244,10.1413566,85.42803780000001,21.5432208,96.00484248,1.4037471,-52.58035566
2.9099999999999997,291,-0.13699999999999998,-0.799,0.267,9.5111028,81.4173318,32.0283522,96.13089324,0.96256944,-51.81259193999999
2.92,292,-0.13699999999999998,-0.84,0.327,15.9282324,70.9894962,40.90920120000001,96.29132148,0.46409598,-51.15941982
2.9299999999999997,293,-0.073,-0.957,0.341,24.923673,59.30115299999999,50.0765292,96.53769342,-0.10313244,-50.63229846
2.94,294,-0.004,-1.026,0.301,29.1635622,50.8786704,56.436363,96.829902,-0.73338624,-50.19685038
2.9499999999999997,295,0.079,-1.047,0.355,32.372127,49.560867,56.3790672,97.14502890000001,-1.3579104599999998,-49.77859104
2.96,296,0.188,-1.122,0.368,22.173474600000002,54.7747848,49.61816279999999,97.36275294,-1.90222056,-49.30876548
2.9699999999999998,297,0.355,-1.273,0.19,-9.8548776,61.24921020000001,38.8465524,97.23670218,-2.38350528,-48.75872579999999
2.98,298,0.485,-1.58,-0.055,-27.788463,47.7846972,33.6899304,96.92730486,-2.78457588,-48.34046646
2.9899999999999998,299,0.617,-2.014,-0.222,-2.5210152000000003,25.78311,43.6021038,96.8871978,-3.25440144,-48.13993116
3.0,300,0.495,-2.109,-0.315,4.1825934,27.215505,59.7022236,96.9158457,-3.88465524,-47.94512544000001
3.01,301,0.311,-1.88,-0.419,-21.6005166,30.4240698,70.07276340000001,96.66947376,-4.612311900000001,-47.73313098
3.02,302,0.336,-1.55,-0.4320000000000001,-11.5737516,27.501984000000004,68.2965936,96.53196384,-5.32277982,-47.54405484
3.03,303,0.271,-1.385,-0.338,4.9274388,34.091001,57.2958,96.54915258,-5.93584488,-47.27476458
3.04,304,0.131,-1.286,-0.263,7.906820400000001,43.8885828,45.6647526,96.58353006,-6.4457775,-46.8966123
3.05,305,0.04,-1.345,-0.28300000000000003,13.2353298,39.3622146,39.3622146,96.67520334,-6.89268474,-46.5528375
3.06,306,-0.05,-1.5019999999999998,-0.266,17.303331600000003,22.5745452,39.9351726,96.80698368,-7.31094408,-46.37522052
3.07,307,-0.077,-1.537,-0.199,20.2827132,13.980175199999998,40.10706,97.0017894,-7.72347384,-46.28354724
3.08,308,-0.108,-1.506,-0.117,23.6631654,10.7716104,35.8671708,97.2309726,-8.09589654,-46.22052186000001
3.09,309,-0.152,-1.481,-0.07400000000000001,24.8090814,12.7196676,27.9603504,97.46588538,-8.38810512,-46.12884858
3.0999999999999996,310,-0.14300000000000002,-1.421,-0.005,25.210152,18.2773602,18.048177,97.70079816,-8.594370000000001,-45.96842034
3.11,311,-0.08199999999999999,-1.305,0.04,23.5485738,23.8923486,8.078707799999998,97.87841514,-8.68604328,-45.73923714
3.1199999999999997,312,-0.003,-1.18,0.066,19.595163600000006,30.7678446,0.11459160000000004,98.02738422000002,-8.7376095,-45.4355694
3.13,313,0.065,-1.0590000000000002,0.061,10.026765,37.9298196,-5.042030400000002,98.06749128,-8.749068659999999,-45.05168754
3.1399999999999997,314,0.118,-0.897,0.041,0.6875496,43.77399120000001,-8.5370742,97.99873632,-8.7376095,-44.6047803
3.15,315,0.14300000000000002,-0.773,0.039,-3.5523396000000003,44.51883660000001,-10.9434978,97.8898743,-8.70323202,-44.15214348
3.1599999999999997,316,0.115,-0.6829999999999999,0.107,-9.0527364,34.1482968,-12.032117999999999,97.74090522,-8.60009958,-43.8026391
3.17,317,0.029,-0.612,0.133,-11.2872726,23.5485738,-11.172681,97.58620656,-8.53134462,-43.55626716
3.1799999999999997,318,-0.039,-0.5720000000000001,0.116,-11.688343199999998,18.449247600000003,-8.9954406,97.43723748,-8.46831924,-43.36719102
3.19,319,-0.045,-0.5379999999999999,0.117,-12.318597,14.896907999999998,-6.8182002000000015,97.2882684,-8.42821218,-43.21249236
3.1999999999999997,320,-0.028,-0.542,0.135,-9.3392154,7.2192707999999985,-6.1879464,97.17940638,-8.376645960000001,-43.13227824
3.21,321,0.016,-0.5579999999999999,0.17800000000000002,-3.380452200000001,-3.151269,-6.016058999999999,97.17940638,-8.28497268,-43.16092614
3.2199999999999998,322,0.079,-0.575,0.244,0.1718874,-9.224623800000002,-6.3025379999999975,97.19086554,-8.204758559999998,-43.24686984
3.23,323,0.12,-0.595,0.26,1.0886202,-11.8029348,-6.417129599999999,97.21951344,-8.12454444,-43.35573186000001
3.2399999999999998,324,0.129,-0.615,0.274,2.291832,-12.5477802,-5.0993262,97.26535008,-8.05578948,-43.47032346
3.25,325,0.136,-0.6659999999999999,0.314,5.042030400000002,-16.329303,-2.578311,97.33983462,-8.00422326,-43.63075170000001
3.26,326,0.126,-0.708,0.348,4.0680017999999984,-21.9442914,0.6875496,97.5174516,-7.878172500000002,-43.87139406
3.27,327,0.108,-0.7140000000000001,0.385,-0.9740286,-24.8090814,4.583664,97.5460995,-7.88390208,-44.117766
3.28,328,0.091,-0.7170000000000001,0.412,-1.9480572,-22.631841,8.7662574,97.55755866,-7.9354682999999975,-44.35267878
3.29,329,0.07200000000000001,-0.722,0.385,-3.4950437999999995,-17.131444199999994,12.318597,97.55182908,-8.03287116,-44.54175492
3.3,330,0.095,-0.742,0.321,-6.9327918,-11.45916,15.469866,97.50026286,-8.17038108,-44.67926484
3.31,331,0.101,-0.746,0.318,-13.407217200000002,-5.5576926,18.5065434,97.4315079,-8.27351352,-44.77093812
3.32,332,0.08900000000000001,-0.723,0.16699999999999998,-21.829699800000004,2.8074942000000003,21.3140376,97.21378386,-8.49123756,-44.776667700000004
3.33,333,0.052000000000000005,-0.647,0.096,-10.5424272,11.8602306,24.1215318,97.0877331,-8.749068659999999,-44.690724
3.34,334,-0.044,-0.628,0.247,12.7769634,16.959556799999998,25.78311,97.19659512,-9.0240885,-44.55321408
3.3499999999999996,335,-0.154,-0.698,0.23,24.8090814,18.2200644,27.444688199999998,97.42577832,-9.32202666,-44.404245
3.36,336,-0.182,-0.762,0.052000000000000005,23.032911600000002,25.0955604,28.4187168,97.59766572,-9.64861272,-44.18652096
3.3699999999999997,337,-0.168,-0.762,-0.001,26.69984280000001,27.501984000000004,28.4187168,97.82111934,-9.9694692,-43.95160818
3.38,338,-0.24,-0.768,0.07400000000000001,33.5753388,23.4339822,27.2728008,98.12478708,-10.27313694,-43.75107288
3.3899999999999997,339,-0.404,-0.85,0.114,28.762491600000004,19.0795014,25.2674478,98.38834776,-10.55388636,-43.59637422
3.4,340,-0.583,-1.0759999999999998,0.095,-3.4950437999999995,24.5226024,17.7044022,98.30813364,-10.771610399999998,-43.38437976
3.4099999999999997,341,-0.593,-1.423,-0.197,-37.2995658,74.771019,-14.037471,97.76955312,-10.76588082,-42.62234562
3.42,342,-0.746,-2.167,-0.4970000000000001,-21.5432208,119.06067240000002,-70.0154676,97.29972756,-10.26167778,-41.35037885999999
3.4299999999999997,343,-0.89,-2.528,-0.45,5.9014674000000005,125.5923936,-113.61757140000002,97.10492184,-9.33348582,-39.95809092
3.44,344,-0.588,-2.1180000000000003,-0.58,13.0634424,123.3578574,-112.299768,97.00751898,-8.40529386,-38.59445088
3.4499999999999997,345,-0.138,-1.421,-0.476,35.236917,121.86816659999998,-90.813843,97.16221764,-7.6890963600000015,-37.2709179
3.46,346,0.313,-1.248,-0.418,43.1437374,115.737516,-74.771019,97.39713042,-7.098949620000001,-36.02759904
3.4699999999999998,347,0.5379999999999999,-1.087,-0.268,31.51269000000001,112.9873176,-51.33703679999999,97.55755866,-6.77236356,-34.84730556
3.48,348,0.635,-1.058,-0.08900000000000001,24.1215318,111.89869740000002,-23.5485738,97.65496152,-6.7150677599999975,-33.71284872
3.4899999999999998,349,0.604,-1.082,0.042,13.178034,107.2004418,-2.9220857999999996,97.64923194,-6.85257768,-32.65287642
3.5,350,0.4320000000000001,-1.298,0.08800000000000001,7.333862400000001,103.418919,0.8594370000000001,97.58620656,-7.0244650800000015,-31.63301118
3.51,351,0.145,-1.564,0.04,2.1199446,107.7733998,-10.7143146,97.45442622,-7.08176088,-30.56157972
3.52,352,-0.14,-1.7480000000000002,-0.075,-1.432395,113.7894588,-27.1582092,97.28253881999998,-6.990087599999999,-29.40420456
3.53,353,-0.322,-1.7280000000000002,-0.152,0.5156622000000001,123.93081540000001,-41.9978214,97.12211058,-6.76663398,-28.132237800000002
3.54,354,-0.402,-1.474,-0.142,8.250595200000001,136.82237039999998,-48.529542600000006,97.01897814,-6.49161414,-26.722761119999994
3.55,355,-0.424,-1.195,-0.13,14.7823164,153.15167340000005,-45.779344200000004,96.97887108,-6.26243094,-25.15858578000001
3.56,356,-0.442,-0.978,-0.111,15.985528200000001,169.36638480000005,-35.695283399999994,96.9158457,-6.18221682,-23.44544136
3.57,357,-0.395,-0.905,-0.067,11.5737516,179.4504456,-23.3193906,96.81271325999998,-6.210864720000001,-21.64635324
3.58,358,-0.306,-0.89,0.006999999999999999,5.2139178,185.5238004,-11.688343199999998,96.64082586,-6.3655633799999976,-19.80715806
3.59,359,-0.205,-0.91,0.068,2.2345362,192.0555216,-3.2085648,96.42310182,-6.60047616,-17.91066708
3.5999999999999996,360,-0.14,-0.93,0.099,-1.0313244,201.108258,1.145916,96.15381156,-6.886955159999999,-15.928232399999999
3.61,361,-0.108,-0.942,0.105,-4.3544808,212.2236432,2.6929026,95.82149592,-7.1848933200000005,-13.836935700000002
3.6199999999999997,362,-0.08800000000000001,-0.931,0.114,-7.5630456000000015,222.3649998,3.2658606,95.43761406,-7.49429064,-11.64250656
3.63,363,-0.07200000000000001,-0.885,0.125,-8.7662574,230.8447782,5.042030400000002,95.01362514,-7.8151471200000024,-9.36213372
3.6399999999999997,364,-0.053,-0.83,0.14400000000000002,-8.479778399999999,238.0067532,8.5370742,94.5667179,-8.164651500000002,-7.01300592
3.65,365,-0.045,-0.789,0.174,-6.9327918,242.53312140000003,11.745639,94.11408108,-8.53134462,-4.612311900000001
3.6599999999999997,366,-0.056,-0.7609999999999999,0.207,-5.042030400000002,245.798982,13.349921400000001,93.67290342,-8.89230816,-2.1772404
3.67,367,-0.073,-0.757,0.257,-2.5210152000000003,247.7470392,12.7769634,93.22599618,-9.23035338,0.28074942
3.6799999999999997,368,-0.07400000000000001,-0.7959999999999999,0.267,-2.9793816000000004,248.3199972,10.4851314,92.75617062,-9.53402112,2.7501984
3.69,369,-0.039,-0.855,0.258,-3.8388186,248.8356594,7.7922288,92.26915632,-9.78612264,5.23683612
3.6999999999999997,370,0.032,-0.909,0.269,-1.2032118,247.6324476,6.760904399999999,91.79933076,-10.00957626,7.71201468
3.71,371,0.108,-0.913,0.311,4.9274388,245.28331980000004,7.161975,91.40398974,-10.19292282,10.16427492
3.7199999999999998,372,0.165,-0.855,0.338,7.448453999999999,242.07475499999998,8.193299399999999,91.0143783,-10.39345812,12.59361684
3.73,373,0.196,-0.7859999999999999,0.309,6.760904399999999,238.9807818,7.8495246,90.6133077,-10.571075099999998,14.99431086
3.7399999999999998,374,0.205,-0.743,0.251,8.651665800000002,234.45441359999998,5.72958,90.23515542,-10.70858502,17.34916824
3.75,375,0.182,-0.7120000000000001,0.19,12.1467096,228.4956504,1.0313244,89.8971102,-10.78306956,19.64672982
3.76,376,0.133,-0.693,0.171,17.303331600000003,221.1044922,-5.2712136,89.6392791,-10.76015124,21.86980686
3.77,377,0.067,-0.684,0.18,23.3193906,210.3328818,-12.1467096,89.45593253999998,-10.679937120000002,23.98975146
3.78,378,-0.003,-0.725,0.17,24.2361234,199.0456092,-18.334656,89.30696345999998,-10.52523846,25.98937488
3.79,379,-0.061,-0.7809999999999999,0.096,20.912967,179.622333,-19.7097552,89.16945354,-10.35335106,27.79992216
3.8,380,-0.057,-0.8340000000000001,0.065,23.0902074,158.59477439999995,-17.131444199999994,89.09496899999998,-10.20438198,29.39274540000001
3.81,381,0.063,-0.852,0.006999999999999999,25.8977016,147.536685,-15.527161800000002,89.07778026000004,-10.03822416,30.87097704
3.82,382,0.226,-0.8079999999999999,-0.017,28.6479,138.369357,-15.2406828,89.10642816,-9.90071424,32.26326498
3.83,383,0.3720000000000001,-0.6970000000000001,0.045,29.392745399999995,132.2960022,-17.9908812,89.16372396,-9.73455642,33.592527540000006
3.84,384,0.419,-0.523,0.036000000000000004,31.054323600000004,134.3013552,-25.6112226,89.23247891999998,-9.49391406,34.93897884
3.8499999999999996,385,0.34,-0.392,0.004,33.1742682,148.3388262,-36.898495200000006,89.30696345999998,-9.15013926,36.42294006
3.86,386,0.304,-0.376,0.16899999999999998,22.0015872,168.6788352,-47.0971476,89.2668564,-8.66885454,38.10170700000001
3.8699999999999997,387,0.312,-0.66,0.034,-22.2307704,175.3824438,-46.4668938,88.75692378,-8.22767688,39.84349932
3.88,388,0.155,-1.141,-0.25,-46.123119,152.5214196,-26.1268848,88.05791502,-7.975575359999999,41.35610844
3.8899999999999997,389,0.193,-2.136,-0.24,-41.825934,139.0569066,9.9121734,87.42193164,-8.06151906,42.7426668
3.9,390,0.304,-2.943,-0.05,-24.8663772,139.6871604,43.3156248,86.94637650000001,-8.46258966,44.15787306
3.9099999999999997,391,0.002,-2.166,0.086,-11.0580894,145.3594446,33.804522,86.59687212,-8.75479824,45.62464554
3.92,392,-0.366,-1.523,-0.187,2.0626488000000003,144.7291908,18.162768600000003,86.37341849999999,-8.88657858,47.08568844
3.9299999999999997,393,-0.414,-1.237,-0.08900000000000001,5.042030400000002,142.78113359999998,10.1413566,86.18434235999996,-8.93241522,48.51808344
3.94,394,-0.16,-1.15,0.009000000000000001,4.4690724,147.02102280000003,0.9740286,85.98380705999998,-8.88657858,49.9905855
3.9499999999999997,395,0.118,-1.237,0.061,0.8021411999999999,160.4855358,-12.032117999999999,85.72597596,-8.69750244,51.58340874
3.96,396,0.309,-1.364,0.145,-3.724227,170.0539344,-24.923673,85.42230822,-8.34226848,53.26217568
3.9699999999999998,397,0.459,-1.421,0.221,-5.958763200000001,182.200644,-34.7785506,85.08426299999998,-7.90109082,55.04980464000001
3.98,398,0.514,-1.449,0.22,-13.407217200000002,194.29005780000003,-40.04976420000001,84.67173324000002,-7.3911582,56.94629562
3.9899999999999998,399,0.452,-1.385,0.13699999999999998,-20.8556712,201.39473700000002,-40.5654264,84.19044852,-6.85257768,58.90581198
4.0,400,0.329,-1.261,0.126,-12.9488508,202.4260614,-38.10170700000001,83.80083708,-6.31972674,60.8767875
4.01,401,0.199,-1.13,0.133,-2.7501984,200.9363706,-36.03905820000001,83.55446514,-5.7868758,62.82484469999999
4.02,402,0.078,-0.99,0.119,2.1772404,197.6132142,-34.2055926,83.36538900000002,-5.27694318,64.744254
4.03,403,0.017,-0.892,0.119,2.9220857999999996,191.4825636,-29.0489706,83.20496076,-4.82430636,66.60063792000001
4.04,404,-0.004,-0.8220000000000001,0.134,0.8021411999999999,183.633039,-22.2880662,83.04453251999998,-4.43469492,68.38826688
4.05,405,0.017,-0.762,0.135,-1.5469866,176.70024719999995,-14.32395,82.8783747,-4.1252976000000015,70.11860004
4.06,406,0.064,-0.71,0.139,-2.1199446,171.8874,-8.078707799999998,82.7351352,-3.8674665,71.79736698
4.07,407,0.133,-0.665,0.154,-3.3231564,168.79342680000005,-3.8388186,82.56897738,-3.66120162,73.4532156
4.08,408,0.208,-0.64,0.179,-5.9014674000000005,165.871341,-0.8021411999999999,82.38563081999997,-3.48358464,75.08614589999998
4.09,409,0.266,-0.639,0.172,-10.886202,161.17308540000005,1.9480572,82.1621772,-3.33461556,76.67896913999998
4.1,410,0.334,-0.6679999999999999,0.133,-16.8449652,156.5321256,4.8128472,81.88142778,-3.214294380000001,78.22022616
4.109999999999999,411,0.377,-0.701,0.098,-23.6058696,145.58862779999995,8.136003599999999,81.56057129999998,-3.0825140400000004,79.65835074
4.12,412,0.404,-0.728,0.079,-27.5592798,134.7597216,10.1413566,81.18814859999998,-3.01948866,80.99334288
4.13,413,0.422,-0.759,0.05,-30.8824362,122.7848994,11.0007936,80.79853716,-2.9736520200000003,82.21374342
4.14,414,0.421,-0.794,0.019,-33.5753388,109.77875279999999,10.4278356,80.3860074,-2.93354496,83.30236362
4.1499999999999995,415,0.408,-0.8320000000000001,-0.003,-33.6899304,96.6580146,8.651665800000002,79.97920722,-2.88770832,84.26493306
4.16,416,0.382,-0.884,0.009000000000000001,-30.7678446,84.1675302,6.703608600000001,79.641162,-2.76738714,85.08999258
4.17,417,0.359,-0.928,0.056,-25.55392680000001,73.10944079999999,4.6982556,79.33749426,-2.70436176,85.81191966
4.18,418,0.34600000000000003,-0.961,0.111,-17.9908812,66.80690279999999,2.0053530000000004,79.11404064,-2.62414764,86.46509178
4.1899999999999995,419,0.33,-0.997,0.199,-8.4224826,61.5356892,-1.7761698,78.99371946,-2.50382646,87.0609681
4.2,420,0.294,-1.053,0.276,-2.9793816000000004,59.24385720000001,-6.2452422,78.93069408,-2.3491277999999998,87.62819652
4.21,421,0.26,-1.122,0.34,1.7761698,60.733548000000006,-10.9434978,78.99371946,-2.10275586,88.18969536
4.22,422,0.226,-1.195,0.358,7.5630456000000015,65.4318036,-15.6417534,79.0395561,-1.84492476,88.80276042
4.2299999999999995,423,0.239,-1.247,0.32299999999999995,12.6623718,76.03152659999998,-20.454600600000006,79.13695895999999,-1.52406828,89.50749876
4.24,424,0.236,-1.271,0.302,17.9908812,85.42803780000001,-23.6631654,79.29165762,-1.15164558,90.2981808
4.25,425,0.246,-1.208,0.287,26.1841806,95.683986,-25.496631,79.5265704,-0.75630456,91.19199528
4.26,426,0.245,-1.078,0.312,38.67466500000001,105.5388636,-27.903054600000004,79.93910016,-0.29793816,92.17175346
4.27,427,0.252,-0.996,0.41,52.48295279999999,110.17982340000002,-30.5959572,80.45476235999998,0.16042824,93.20880744
4.28,428,0.294,-0.972,0.506,53.22779820000001,105.3096804,-32.31483119999999,80.98761329999998,0.61879464,94.1942952
4.29,429,0.369,-0.986,0.573,51.279741,97.975818,-31.5699858,81.50900508000002,1.05424272,95.111028
4.3,430,0.459,-1.032,0.531,50.133825,90.5846598,-28.074942,82.02466728,1.43812458,95.970465
4.31,431,0.54,-1.097,0.409,50.5348956,82.2767688,-21.6005166,82.58043654000002,1.78189938,96.74968788
4.32,432,0.5720000000000001,-1.224,0.27,48.9306132,72.76566600000002,-15.3552744,83.09036916,2.005353,97.45442622
4.33,433,0.509,-1.454,-0.097,39.4195104,66.9787902,-12.0894138,83.50289891999998,2.18869956,98.10759834
4.34,434,0.388,-1.6869999999999998,-0.319,35.52339600000001,75.17208959999998,-15.2406828,83.88678078000002,2.4064236,98.835255
4.35,435,0.33,-1.6909999999999998,-0.271,38.961144,99.408213,-22.5172494,84.31076970000002,2.70436176,99.79782444
4.36,436,0.142,-1.529,-0.447,28.1895336,96.7153104,-20.511896399999998,84.61443744,2.9736520200000003,100.73747556
4.37,437,0.013,-1.301,-0.4370000000000001,18.6784308,98.548776,-17.18874,84.84362064,3.2085648000000004,101.69431542
4.38,438,0.01,-1.12,-0.303,18.7930224,106.91396280000001,-14.0947668,85.07853342,3.4148296799999995,102.74282856
4.39,439,0.001,-1.0490000000000002,-0.313,10.4278356,113.732163,-8.3651868,85.23896166,3.56379876,103.86009666
4.3999999999999995,440,-0.029,-1.053,-0.322,5.5576926,116.883432,-1.3750992,85.35355326,3.6382833,105.01747182
4.41,441,-0.003,-1.165,-0.28,1.6615782,116.0812908,5.6722842,85.41084906,3.6382833,106.1691174
4.42,442,0.064,-1.213,-0.254,-5.2139178,111.72681,14.5531332,85.41084906,3.5523396000000003,107.2863855
4.43,443,0.135,-1.225,-0.21,-7.906820400000001,94.9964364,25.78311,85.37647158,3.34607472,108.24322536
4.4399999999999995,444,0.204,-1.204,-0.153,-10.599723,82.4486562,34.4347758,85.30198704,3.04813656,109.08547362000002
4.45,445,0.248,-1.155,-0.115,-9.9121734,72.0208206,40.966497,85.23323208,2.68144344,109.83031902
4.46,446,0.245,-1.078,-0.086,-5.6722842,62.10864720000001,44.117766,85.19312502,2.30329116,110.47776156
4.47,447,0.207,-1.008,-0.037000000000000005,-0.1718874,53.628868800000006,42.34159620000001,85.20458418000003,1.91367972,111.04498998
4.4799999999999995,448,0.152,-0.934,-0.005,1.3750992,47.269034999999995,36.4974246,85.2275025,1.5813640800000002,111.53773386
4.49,449,0.096,-0.8490000000000001,0.03,1.2605076000000002,41.9978214,28.6479,85.25042082,1.3178034,111.97891152
4.5,450,0.05,-0.782,0.025,0.4010706,37.8725238,21.1421502,85.25615040000002,1.12872726,112.36852296
4.51,451,0.002,-0.736,0.026,-0.4010706,32.945085,16.501190400000002,85.27333913999998,0.97975818,112.70656818
4.52,452,-0.038,-0.722,0.032,-0.3437748,32.486718599999996,15.9282324,85.26760956,0.83651868,113.03888382
4.53,453,-0.065,-0.7070000000000001,0.027000000000000003,-1.3178034,33.804522,17.4179232,85.25615040000002,0.68182002,113.38838819999998
4.54,454,-0.083,-0.684,0.024,-3.8961144,35.9817624,21.027558600000006,85.21604334,0.49274388,113.76081090000002
4.55,455,-0.099,-0.664,0.017,-6.4744254,36.669312,25.6685184,85.14728838,0.25783110000000004,114.13896318
4.56,456,-0.111,-0.66,0.026,-9.224623800000002,36.03905820000001,30.1375908,85.06134468,-0.03437748,114.51711546
4.57,457,-0.114,-0.6629999999999999,0.04,-11.8602306,36.32553720000001,33.74722620000001,84.93529392,-0.34950438,114.9067269
4.58,458,-0.091,-0.6829999999999999,0.044,-13.6936962,38.10170700000001,35.236917,84.79205442,-0.67609044,115.3077975
4.59,459,-0.042,-0.6940000000000001,0.023,-13.6364004,39.0757356,32.2002396,84.64308534,-0.96829902,115.72032726
4.6,460,0.005,-0.6990000000000001,0.01,-11.8602306,37.3568616,26.1268848,84.50557542,-1.2032117999999998,116.11566828
4.61,461,0.044,-0.6970000000000001,0.002,-9.3392154,34.4920716,18.5065434,84.41390214,-1.3464512999999998,116.47090224
4.62,462,0.068,-0.69,0.015,-7.3911582,31.913760600000003,11.0580894,84.32222886000002,-1.43812458,116.7974883
4.63,463,0.078,-0.684,0.039,-5.6149884000000005,30.4240698,4.0680017999999984,84.25347389999997,-1.45531332,117.10115604
4.64,464,0.084,-0.6990000000000001,0.064,-2.9793816000000004,28.7051958,-1.2032118,84.21336684,-1.4209358399999998,117.38190545999998
4.6499999999999995,465,0.084,-0.7120000000000001,0.114,-0.8594370000000001,26.298772200000002,-4.6982556,84.1961781,-1.3579104599999998,117.63400698
4.66,466,0.098,-0.759,0.173,0.9740286,23.7204612,-5.9014674000000005,84.29931054,-1.2318597,117.8574606
4.67,467,0.108,-0.8290000000000001,0.22,3.0366774,21.6578124,-4.6409598,84.32795844,-1.1688343199999998,118.06372548000002
4.68,468,0.114,-0.923,0.26,5.0993262,22.058883,-1.145916,84.3680655,-1.14018642,118.28144952
4.6899999999999995,469,0.08800000000000001,-1.028,0.227,3.5523396000000003,23.0902074,3.151269,84.39671340000002,-1.1573751600000002,118.5163623
4.7,470,0.027000000000000003,-1.082,0.17600000000000002,3.4950437999999995,25.2674478,5.958763200000001,84.42536129999998,-1.19748222,118.76846382
4.71,471,-0.058,-1.101,0.109,2.2345362,29.507337,6.990087599999999,84.49411626,-1.27196676,119.06067240000002
4.72,472,-0.163,-1.088,0.068,4.4690724,34.4347758,7.906820400000001,84.52849374,-1.32353298,119.41017678
4.7299999999999995,473,-0.25,-1.042,0.08800000000000001,10.313244,39.1330314,9.3392154,84.62016702,-1.39228794,119.8055178
4.74,474,-0.328,-1.022,0.129,14.381245800000002,44.2896534,11.0007936,84.75194736,-1.46677248,120.25242504
4.75,475,-0.32299999999999995,-1.034,0.163,16.386598799999998,49.5035712,13.521808800000002,84.89518686,-1.56990492,120.75662808
4.76,476,-0.227,-1.065,0.213,22.4026578,48.5868384,16.4438946,85.15301796,-1.7246035799999997,121.24937196
4.77,477,-0.093,-1.133,0.355,34.7212548,43.7166954,20.168121600000006,85.48533359999998,-1.89649098,121.70200878
4.78,478,0.024,-1.229,0.499,45.72204840000001,35.8671708,26.2414764,85.93224083999998,-2.13713334,122.08016106
4.79,479,0.091,-1.28,0.5720000000000001,51.2224452,24.694489800000003,33.116972399999995,86.44217346,-2.45226024,122.34945132
4.8,480,0.08900000000000001,-1.276,0.638,54.3164184,15.870936600000002,35.6379876,86.98075398,-2.79603504,122.53279788
4.81,481,0.05,-1.263,0.649,53.9726436,16.329303,31.79916900000001,87.55944156000002,-3.0997027800000003,122.71041486
4.82,482,-0.017,-1.321,0.472,49.3316838,18.8503182,24.7517856,88.04645586000002,-3.33461556,122.91095016
4.83,483,-0.034,-1.433,0.31,38.8465524,18.621135,16.329303,88.43033772,-3.4950437999999995,123.10575588
4.84,484,0.099,-1.719,0.047,29.1062664,14.896907999999998,16.1001198,88.71681672,-3.65547204,123.26045454
4.85,485,0.269,-1.932,-0.197,29.392745399999995,-1.2605076000000002,24.9809688,89.01475488,-3.90184398,123.25472496
4.86,486,0.46,-1.819,-0.163,38.7892566,-19.9962342,32.486718599999996,89.42155505999996,-4.19978214,123.06564882
4.87,487,0.504,-1.515,-0.226,34.2055926,-22.86102420000001,32.085648000000006,89.78824818,-4.51490904,122.84219520000002
4.88,488,0.392,-1.214,-0.297,22.86102420000001,-11.3445684,31.111619399999995,90.03462012,-4.81857678,122.73333318
4.89,489,0.142,-1.037,-0.302,20.912967,-2.3491278,32.142943800000005,90.24661458,-5.13370368,122.71041486
4.8999999999999995,490,-0.201,-0.941,-0.364,10.599723,10.7716104,25.1528562,90.34401744,-5.385805199999999,122.81354729999998
4.91,491,-0.316,-0.95,-0.402,6.1879464,26.1268848,16.042824000000003,90.2695329,-5.62071798,123.08856714
4.92,492,-0.358,-1.068,-0.28800000000000003,14.7250206,27.7311672,14.266654199999998,90.38985408,-5.77541664,123.36358698
4.93,493,-0.293,-1.185,-0.215,13.0061466,20.912967,16.2147114,90.4987161,-5.94157446,123.56985186
4.9399999999999995,494,-0.17800000000000002,-1.207,-0.138,7.8495246,13.2926256,18.162768600000003,90.56174148,-6.12492102,123.70163219999999
4.95,495,-0.053,-1.196,-0.108,3.8961144,12.3758928,17.7044022,90.5846598,-6.30826758,123.82195338
4.96,496,0.052000000000000005,-1.137,-0.08800000000000001,1.8334656000000005,12.834259199999998,15.3552744,90.53882316,-6.3655633799999976,123.9594633
4.97,497,0.106,-1.046,-0.055,5.042030400000002,12.605076,11.3445684,90.57320064,-6.48588456,124.08551406
4.9799999999999995,498,0.123,-0.951,-0.006,9.167328,12.261301199999998,4.8128472,90.65341476,-6.53745078,124.21156482
4.99,499,0.102,-0.887,0.015,8.3651868,13.8082878,-2.86479,90.72216972,-6.51453246,124.34907474
5.0,500,0.067,-0.8440000000000001,0.017,5.844171599999999,13.9228794,-10.313244,90.76227678,-6.417129600000001,124.48658466
5.01,501,0.027000000000000003,-0.809,0.011,4.5263682,12.4331886,-17.9908812,90.78519509999998,-6.205135139999999,124.618365
5.02,502,-0.009000000000000001,-0.76,0.003,3.9534102,10.7716104,-24.0069402,90.80811342,-5.97022236,124.7329566
5.03,503,-0.022,-0.696,0.009000000000000001,2.4637194,9.453807000000001,-27.2728008,90.82530216,-5.7009320999999975,124.83035946
5.04,504,-0.016,-0.629,0.024,-0.6875496,7.6776372,-27.5592798,90.80811342,-5.4316418399999975,124.91057357999998
5.05,505,0.002,-0.5720000000000001,0.04,-6.0733548,4.6982556,-25.4393352,90.73935846,-5.17954032,124.9621398
5.06,506,0.022,-0.52,0.045,-12.7769634,0.3437748,-21.485925,90.6133077,-4.9560867,124.96786938
5.07,507,0.032,-0.503,0.035,-21.6578124,-5.443101,-16.673077799999998,90.39558366,-4.78992888,124.91057357999998
5.08,508,0.052000000000000005,-0.515,0.016,-26.69984280000001,-11.1153852,-12.605076,90.13775256,-4.66387812,124.80171156
5.09,509,0.068,-0.556,0.004,-27.903054600000004,-17.18874,-8.9954406,89.8684623,-4.57220484,124.62409458
5.1,510,0.087,-0.63,0.006,-24.4653066,-23.032911600000002,-5.7868758000000025,89.6392791,-4.50917946,124.39491137999998
5.11,511,0.092,-0.7020000000000001,0.031,-19.6524594,-27.3300966,-2.8074942000000003,89.47312128,-4.4404245000000016,124.11989154
5.12,512,0.091,-0.752,0.07,-14.7823164,-30.0229992,0.057295800000000015,89.3528001,-4.43469492,123.82195338
5.13,513,0.077,-0.784,0.121,-8.7089616,-33.5753388,3.0366774,89.28977472,-4.46334282,123.48963774
5.14,514,0.041,-0.804,0.198,-0.7448454000000001,-37.24227,6.417129599999999,89.31842262,-4.5206386200000015,123.11721504
5.1499999999999995,515,0.002,-0.826,0.279,6.0733548,-40.393539,7.7922288,89.41582548,-4.58939358,122.72187402
5.16,516,-0.025,-0.8440000000000001,0.344,10.3705398,-40.680018,6.417129599999999,89.67365658,-4.63523022,122.30361468
5.17,517,-0.04,-0.89,0.412,14.667724800000002,-38.7319608,2.4064236,89.86273272,-4.64668938,121.91973282
5.18,518,-0.043,-0.947,0.448,14.667724800000002,-35.3515086,-2.6929026,90.04034970000002,-4.612311900000001,121.57022844
5.1899999999999995,519,-0.026,-1.01,0.428,10.8289062,-32.0283522,-6.875496000000001,90.1835892,-4.53209778,121.25510154
5.2,520,0.003,-1.061,0.374,3.8961144,-30.1375908,-8.250595200000001,90.24661458,-4.4404245000000016,120.95716338
5.21,521,0.061,-1.119,0.331,-3.4377480000000005,-29.7365202,-6.589017,90.30963996,-4.31437374,120.65349564
5.22,522,0.158,-1.146,0.256,-9.2819196,-31.627281600000003,-1.7761698,90.24661458,-4.28572584,120.33836874
5.2299999999999995,523,0.231,-1.154,0.18,-12.5477802,-35.122325399999994,2.8074942000000003,90.14921172,-4.30864416,119.98886436
5.24,524,0.238,-1.126,0.133,-11.2872726,-34.8358464,4.2398892,90.06326802,-4.33729206,119.63935998
5.25,525,0.136,-1.071,0.15,-2.291832,-34.091001,3.4377480000000005,90.06899759999996,-4.36593996,119.30131476
5.26,526,-0.002,-1.048,0.215,9.6829902,-22.173474600000002,-0.8594370000000001,90.30391038,-4.3315624800000005,119.07213156
5.27,527,-0.166,-1.052,0.329,17.9908812,-3.4377480000000005,-9.224623800000002,90.48725694,-4.2398892,119.03775407999998
5.28,528,-0.364,-1.093,0.445,28.361421000000004,6.760904399999999,-18.5638392,90.76800636,-4.05654264,119.11223862
5.29,529,-0.466,-1.15,0.56,39.820581,3.4950437999999995,-24.2934192,91.16907696,-3.810170700000002,119.15807526
5.3,530,-0.43,-1.248,0.5920000000000001,42.112413,-4.010706000000001,-26.069589,91.59879546,-3.54661002,119.12942736
5.31,531,-0.274,-1.412,0.48,37.5860448,-4.3544808,-24.5798982,91.99986606,-3.3059676599999994,119.09504988
5.32,532,-0.131,-1.588,0.472,41.1383844,6.875496000000001,-27.3300966,92.41239582,-3.0366774000000003,119.18099358
5.33,533,-0.002,-1.7519999999999998,0.168,38.7892566,17.9335854,-33.6326346,92.79627768,-2.71009134,119.38152888
5.34,534,0.057,-1.806,-0.189,35.4088044,26.1841806,-40.680018,93.1343229,-2.32620948,119.6622783
5.35,535,0.052000000000000005,-1.663,-0.37,30.080295,34.5493674,-48.7587258,93.4208019,-1.86784308,120.034701
5.36,536,-0.036000000000000004,-1.54,-0.398,30.4813656,38.5027776,-59.0719698,93.69582174,-1.3178034,120.45868992
5.37,537,-0.126,-1.42,-0.452,19.3659804,40.737313799999995,-69.2706222,93.8791683,-0.66463128,120.91132674
5.38,538,-0.105,-1.132,-0.386,9.740286,48.414951,-76.03152659999998,93.965112,0.03437748,121.44417768
5.39,539,-0.027000000000000003,-0.92,-0.177,8.479778399999999,41.825934,-70.18735500000001,94.0510557,0.69327918,121.90827366
5.3999999999999995,540,0.028,-0.888,-0.095,2.6929026,25.7258142,-56.8947294,94.07397402,1.2318597,122.20048224
5.41,541,0.126,-0.977,-0.132,-8.651665800000002,18.2773602,-42.97185,93.93073452,1.67303736,122.4124767
5.42,542,0.238,-1.138,-0.118,-10.7716104,14.667724800000002,-30.65325300000001,93.8218725,1.96524594,122.57863452
5.43,543,0.306,-1.338,-0.041,-4.1825934,9.2819196,-22.173474600000002,93.78176544,2.1772404,122.68176696
5.4399999999999995,544,0.369,-1.4069999999999998,-0.004,-1.6615782,3.380452200000001,-17.7044022,93.7645767,2.3491277999999998,122.72760360000002
5.45,545,0.375,-1.232,0.006,1.8334656000000005,-4.4117766,-12.891555,93.78176544,2.48090814,122.69322612
5.46,546,0.31,-0.986,0.008,5.3858052,-9.969469199999999,-7.161975,93.78176544,2.7501984,122.60155284
5.47,547,0.219,-0.826,0.059,8.8235532,-14.037471,2.1199446,93.86770914,2.74446882,122.46404292
5.4799999999999995,548,0.149,-0.7240000000000001,0.102,8.136003599999999,-17.7044022,10.9434978,93.94219368,2.65279554,122.28069636
5.49,549,0.07200000000000001,-0.636,0.09,7.0473834,-20.6837838,18.6784308,94.01094864,2.48663772,122.06297232
5.5,550,-0.006999999999999999,-0.5760000000000001,0.07,6.8182002000000015,-20.7410796,24.2361234,94.07397402,2.26891368,121.84524828
5.51,551,-0.083,-0.529,0.054000000000000006,4.9274388,-16.501190400000002,26.5279554,94.11981066,1.99962342,121.66190172000002
5.52,552,-0.142,-0.4920000000000001,0.046,1.2032118,-9.740286,25.84040580000001,94.13126982,1.75325148,121.54731012
5.53,553,-0.209,-0.475,0.058,-3.4377480000000005,-1.7761698,23.491278,94.09116276,1.5183387000000002,121.51293264
5.54,554,-0.285,-0.49,0.076,-8.7662574,7.333862400000001,20.5691922,94.00521906,1.31207382,121.56449886
5.55,555,-0.349,-0.5660000000000001,0.112,-14.667724800000002,22.4026578,17.3606274,93.85624998,1.1172681,121.77076374
5.56,556,-0.365,-0.655,0.106,-18.449247600000003,34.3201842,15.756345000000001,93.67863300000002,0.8422482600000001,122.09734979999999
5.57,557,-0.337,-0.735,0.104,-20.454600600000006,43.9458786,13.9228794,93.47236812,0.66463128,122.51560914
5.58,558,-0.267,-0.785,0.133,-19.6524594,53.11320660000001,9.9121734,93.27183282,0.5156622000000001,123.03127134
5.59,559,-0.172,-0.8059999999999999,0.166,-16.329303,61.7648724,4.2398892,93.09994542,0.42398892,123.63287724
5.6,560,-0.066,-0.8029999999999999,0.197,-11.2872726,68.41118519999999,-0.9740286,92.98535382,0.37815228,124.30896768
5.61,561,0.029,-0.7809999999999999,0.226,-5.72958,71.8489332,-4.5263682,92.9624355,0.38388186,125.0194356
5.62,562,0.094,-0.768,0.258,0.3437748,73.3959198,-6.016058999999999,92.95670592,0.38388186,125.74709226
5.63,563,0.121,-0.779,0.32299999999999995,7.7349330000000025,74.88561059999998,-5.6149884000000005,93.03119046,0.38388186,126.48620808
5.64,564,0.097,-0.81,0.378,10.9434978,76.89096359999998,-4.9274388,93.14005248,0.3724227000000001,127.24824222
5.6499999999999995,565,0.042,-0.871,0.35600000000000004,12.032117999999999,79.06820400000002,-4.4117766,93.25464408,0.34950438,128.03319468
5.66,566,-0.034,-0.936,0.316,14.610429000000002,78.49524600000002,-4.4690724,93.44372022,0.31512690000000004,128.80668798000002
5.67,567,-0.117,-0.987,0.326,18.2200644,76.7190762,-4.6409598,93.6213372,0.29793816,129.56872212000002
5.68,568,-0.158,-1.008,0.362,20.2254174,77.9795838,-5.6722842,93.8218725,0.28074942,130.34221542
5.6899999999999995,569,-0.139,-1.029,0.377,20.798375399999998,84.22482600000002,-7.2765666,94.0224078,0.27501984,131.1787341
5.7,570,-0.081,-1.1,0.316,15.4125702,86.8604328,-4.7555514,94.17137688,0.24064236,132.0381711
5.71,571,-0.022,-1.157,0.279,12.1467096,72.88025760000002,4.6409598,94.3088868,0.12032118,132.75436860000002
5.72,572,0.066,-1.248,0.304,15.4125702,44.6334282,17.9335854,94.46358546,-0.09740286,133.17835752000002
5.7299999999999995,573,0.209,-1.3159999999999998,0.394,20.340009,14.7823164,30.1375908,94.66985034,-0.40680018,133.30440828
5.74,574,0.355,-1.259,0.454,26.929026,-0.7448454000000001,34.37748,94.94487018,-0.7448454000000001,133.27003080000003
5.75,575,0.414,-1.131,0.411,29.793816,-3.0939732,30.9970278,95.24853792,-1.04851314,133.212735
5.76,576,0.317,-1.109,0.328,27.9603504,7.9641161999999985,21.9442914,95.56366482,-1.20894138,133.27576038
5.77,577,0.19,-1.101,0.118,5.443101,24.7517856,8.021412000000002,95.60950146,-1.3178034,133.51067315999998
5.78,578,0.098,-1.171,-0.023,2.9220857999999996,26.8717302,-4.9274388,95.63241978,-1.30061466,133.77996342
5.79,579,0.07,-1.455,-0.041,11.8029348,12.891555,3.4950437999999995,95.74701138,-1.35218088,133.90601418
5.8,580,0.128,-1.71,-0.181,6.0733548,9.969469199999999,26.0122932,95.80430718,-1.62147114,133.97476913999998
5.81,581,0.21600000000000005,-1.731,-0.332,-8.9954406,13.120738199999998,47.0398518,95.69544516,-2.09702628,134.05498326
5.82,582,0.302,-1.571,-0.444,-12.4904844,7.448453999999999,56.0925882,95.56366482,-2.65852512,134.072172
5.83,583,0.344,-1.405,-0.449,-14.266654199999998,-4.8128472,60.8481396,95.4261549,-3.25440144,133.96330998000002
5.84,584,0.306,-1.143,-0.33,-1.0886202,-21.772404,63.02538000000001,95.43761406,-3.85027776,133.68829014
5.85,585,0.113,-0.94,-0.135,18.7357266,-25.3247436,57.467687399999996,95.6553381,-4.38885828,133.3846224
5.86,586,-0.1,-0.91,0.001,20.9702628,-15.6417534,44.5761324,95.86733256,-4.83576552,133.18981667999998
5.87,587,-0.227,-1.033,0.101,16.4438946,-2.1199446,34.091001,96.03921996,-5.16808116,133.13252088
5.88,588,-0.27,-1.244,0.119,15.756345000000001,7.5057497999999985,25.3247436,96.19391862,-5.42591226,133.1840871
5.89,589,-0.246,-1.371,0.13699999999999998,14.8396122,16.2147114,17.589810600000003,96.33142854,-5.62071798,133.32159701999998
5.8999999999999995,590,-0.196,-1.399,0.171,13.464512999999998,25.3247436,9.969469199999999,96.44029056,-5.75249832,133.56223938
5.91,591,-0.123,-1.295,0.182,7.6776372,31.054323600000004,3.3231564,96.4861272,-5.82125328,133.86590712
5.92,592,-0.018000000000000002,-1.133,0.18,4.8128472,33.9764094,-1.0886202,96.49758636,-5.85563076,134.20395234
5.93,593,0.08800000000000001,-0.971,0.162,4.6982556,33.4607472,-4.0680017999999984,96.50904552,-5.861360339999999,134.53626798
5.9399999999999995,594,0.158,-0.816,0.138,3.8388186,28.5333084,-6.417129599999999,96.5147751,-5.83844202,134.82274697999998
5.95,595,0.171,-0.703,0.141,2.9793816000000004,18.449247600000003,-8.078707799999998,96.52050468,-5.781146219999999,135.01755269999998
5.96,596,0.14800000000000002,-0.631,0.14400000000000002,1.7761698,7.9641161999999985,-9.453807000000001,96.54915258,-5.63790672,135.10349639999998
5.97,597,0.11,-0.593,0.165,-0.3437748,-2.0626488000000003,-11.172681,96.543423,-5.52331512,135.09776682
5.9799999999999995,598,0.084,-0.588,0.172,-3.6096354,-11.2872726,-12.5477802,96.52050468,-5.385805199999999,135.00036396000002
5.99,599,0.079,-0.604,0.159,-6.9327918,-17.7044022,-13.349921400000001,96.46320888,-5.231106540000001,134.83993572
6.0,600,0.103,-0.623,0.15,-9.969469199999999,-21.8869956,-13.2926256,96.38299476,-5.0706783,134.63940042
6.01,601,0.149,-0.644,0.14300000000000002,-12.318597,-26.1841806,-11.4018642,96.29705106,-4.86441342,134.39302848
6.02,602,0.18,-0.664,0.134,-13.464512999999998,-30.4813656,-7.2192707999999985,96.18818904,-4.749821819999998,134.1008199
6.03,603,0.17,-0.665,0.124,-13.8655836,-33.74722620000001,-2.2345362,96.07932702,-4.68679644,133.76850426
6.04,604,0.134,-0.6609999999999999,0.133,-12.605076,-36.4974246,2.2345362,95.98192416,-4.66387812,133.40754072
6.05,605,0.078,-0.64,0.173,-13.464512999999998,-39.247623,6.016058999999999,95.8845213,-4.669607699999999,133.0121997
6.06,606,0.016,-0.627,0.273,-16.558486199999994,-42.7426668,8.8235532,95.80430718,-4.69252602,132.57675162
6.07,607,-0.028,-0.613,0.36,-20.168121600000006,-46.8106686,9.797581800000001,95.64960852,-4.73263308,132.10119648
6.08,608,-0.053,-0.669,0.364,-20.7410796,-46.8679644,9.2819196,95.48345069999999,-4.76701056,131.63137092
6.09,609,-0.042,-0.76,0.304,-19.767051,-42.7999626,8.078707799999998,95.32302246,-4.80138804,131.19592284
6.1,610,-0.006999999999999999,-0.785,0.258,-12.1467096,-38.10170700000001,9.0527364,95.23707876,-4.84722468,130.81204098
6.11,611,0.014,-0.78,0.289,-2.6356068,-34.7785506,11.3445684,95.31729288,-4.88733174,130.45107744
6.12,612,0.009000000000000001,-0.76,0.306,1.6615782,-31.1689152,13.0634424,95.3688591,-4.97900502,130.13022096
6.13,613,0.011,-0.778,0.349,6.3598338,-24.2934192,11.8602306,95.4548028,-5.0706783,129.88384902
6.14,614,-0.006999999999999999,-0.871,0.3670000000000001,11.0007936,-21.199446,9.0527364,95.59231272,-5.13370368,129.66612498
6.15,615,-0.053,-0.958,0.413,17.0741484,-23.3193906,6.990087599999999,95.78711844,-5.16808116,129.4312122
6.16,616,-0.124,-1.036,0.4370000000000001,32.372127,-19.8816426,6.589017,96.19964819999998,-5.2139178,129.22494732
6.17,617,-0.187,-1.176,0.4370000000000001,41.596750799999995,-9.2819196,9.1100322,96.63509628,-5.28840234,129.12754446
6.18,618,-0.239,-1.215,0.459,31.913760600000003,6.0733548,13.6936962,96.95022318,-5.4316418399999975,129.1733811
6.1899999999999995,619,-0.313,-1.245,0.32,14.896907999999998,8.651665800000002,17.3606274,97.09919226,-5.6149884000000005,129.24213605999998
6.2,620,-0.397,-1.394,0.036000000000000004,-13.5791046,-5.3285094000000015,13.349921400000001,96.96741192,-5.74103916,129.16765152
6.21,621,-0.429,-1.578,-0.106,-34.60666320000001,3.9534102,-16.1001198,96.6007188,-5.59779966,129.22494732
6.22,622,-0.465,-2.014,-0.535,-30.7678446,44.6334282,-73.79699040000001,96.23402568,-4.9274388,129.74060952
6.2299999999999995,623,-0.512,-2.076,-0.728,12.3758928,81.53192340000003,-124.61836499999998,96.27413274,-3.810170700000002,130.68026064
6.24,624,-0.385,-1.695,-0.6,55.6342218,99.4655088,-131.9522274,96.76114704,-2.6413363800000003,131.81471747999998
6.25,625,-0.123,-1.072,-0.163,56.8374336,101.2416786,-108.7474284,97.27680924,-1.7188740000000002,132.94917432
6.26,626,0.085,-0.738,-0.031,28.304125199999998,103.4762148,-79.9849368,97.50026286,-1.07143146,134.06644242
6.27,627,0.116,-0.631,-0.113,-1.432395,108.002583,-59.98870260000001,97.45442622,-0.65317212,135.20089926
6.28,628,0.009000000000000001,-0.8370000000000001,-0.014,-6.875496000000001,112.872726,-52.82672760000001,97.35702336,-0.30366774,136.37546316
6.29,629,-0.07,-1.357,0.016,-10.6570188,115.33644540000002,-52.139178,97.2309726,0.02291832,137.5672158
6.3,630,-0.064,-1.883,0.033,-17.589810600000003,119.8055178,-54.08723520000001,97.04189646,0.37815228,138.80480508
6.31,631,0.033,-2.043,0.031,-20.454600600000006,132.75436860000002,-53.858052,96.82417242,0.7104679199999999,140.16271554
6.32,632,0.157,-1.7380000000000002,-0.001,-18.621135,148.396122,-50.47759979999999,96.63509628,0.9969469199999998,141.67532466
6.33,633,0.152,-1.332,-0.067,-12.834259199999998,160.141761,-43.831287,96.5147751,1.2032117999999998,143.29106622
6.34,634,0.024,-1.135,-0.084,-6.8182002000000015,172.11658319999995,-37.0703826,96.4574793,1.32926256,145.0156698
6.35,635,-0.13699999999999998,-1.016,-0.07,-6.990087599999999,185.9821668,-30.366774000000003,96.40591308,1.36936962,146.87205372
6.36,636,-0.213,-0.942,-0.038,-11.8029348,199.102905,-23.7204612,96.29705106,1.31207382,148.84875882
6.37,637,-0.253,-0.8959999999999999,0.035,-14.381245800000002,209.7599238,-18.449247600000003,96.16527072,1.20894138,150.92286678
6.38,638,-0.301,-0.89,0.107,-15.3552744,217.0364904,-15.870936600000002,96.02203122,1.08289062,153.06000011999996
6.39,639,-0.35100000000000003,-0.892,0.159,-17.18874,225.11519819999998,-15.9282324,95.85587340000001,0.9453806999999999,155.28307716
6.4,640,-0.361,-0.8909999999999999,0.224,-18.621135,234.68359680000003,-17.0741484,95.67252684,0.8136003599999999,157.59782748
6.41,641,-0.314,-0.888,0.292,-21.5432208,243.9082206,-17.6471064,95.46626196,0.6703608600000001,160.00425108
6.42,642,-0.228,-0.885,0.317,-24.064235999999998,256.5132966,-17.9908812,95.21416044,0.53858052,162.53672544
6.43,643,-0.119,-0.8759999999999999,0.321,-24.1215318,271.7539794,-18.2200644,94.95632934,0.40680018,165.21816887999995
6.4399999999999995,644,-0.04,-0.855,0.308,-24.2361234,284.35905539999993,-18.2200644,94.68703908,0.26929026,168.02566308000004
6.45,645,0.012,-0.831,0.295,-22.345362,294.3858204,-16.386598799999998,94.42920798000002,0.12032118,170.93056013999995
6.46,646,0.049,-0.8170000000000001,0.28,-20.1108258,300.8602458000001,-13.980175199999998,94.20002478,-0.04010706,173.89848258
6.47,647,0.081,-0.7979999999999999,0.274,-15.870936600000002,303.7823316,-11.8029348,93.98803032,-0.21772404,176.88932334
6.4799999999999995,648,0.111,-0.777,0.28300000000000003,-11.1153852,304.24069799999995,-10.5424272,93.8218725,-0.4010706000000001,179.89162326
6.49,649,0.131,-0.743,0.317,-7.5630456000000015,301.6050912,-10.026765,93.67863300000002,-0.5844171599999999,-177.1299657
6.5,650,0.13,-0.718,0.314,-5.2139178,296.5630608,-10.599723,93.54685266,-0.7448454000000001,-174.20215032000004
6.51,651,0.097,-0.7070000000000001,0.297,-2.291832,292.1512842,-13.120738199999998,93.46090896,-0.8594370000000001,-171.32017158
6.52,652,0.035,-0.715,0.28300000000000003,1.145916,287.7395076,-16.501190400000002,93.392154,-0.9453806999999999,-168.47257032
6.53,653,-0.016,-0.7440000000000001,0.273,2.6929026,281.03589900000003,-18.6784308,93.3348582,-1.0026765,-165.69372402000005
6.54,654,-0.047,-0.767,0.265,2.4637194,273.1863744,-19.194093,93.27183282,-1.04278356,-162.99509184
6.55,655,-0.044,-0.794,0.25,2.4637194,266.998428,-18.7357266,93.21453702,-1.07716104,-160.35375545999997
6.56,656,-0.038,-0.81,0.261,1.6042823999999998,260.8104816,-17.0168526,93.1629708,-1.12299768,-157.76971488
6.57,657,-0.01,-0.8490000000000001,0.253,-0.4010706,252.2161116,-13.178034,93.07129752,-1.19748222,-155.27734758
6.58,658,0.03,-0.8959999999999999,0.225,-4.8128472,243.6790374,-8.021412000000002,92.93951718,-1.31207382,-152.87092398
6.59,659,0.054000000000000006,-0.938,0.183,-5.443101,238.29323219999998,-2.8074942000000003,92.79627768,-1.46677248,-150.52179618
6.6,660,0.013,-0.98,0.138,-0.572958,240.2985852,1.2032118,92.69314524,-1.6558486199999998,-148.15547964
6.61,661,-0.091,-0.951,0.121,6.875496000000001,247.1740812,3.6669312000000014,92.65876776,-1.88503182,-145.72040814
6.62,662,-0.233,-0.871,0.19,17.18874,254.96631000000002,4.6982556,92.71033398,-2.11421502,-143.20512252
6.63,663,-0.359,-0.8190000000000001,0.277,21.8869956,260.8677774,4.5263682,92.79627768,-2.35485738,-140.6325411
6.64,664,-0.393,-0.8170000000000001,0.337,15.9282324,264.993075,2.6929026,92.81346642,-2.58404058,-138.01412304000002
6.65,665,-0.336,-0.861,0.349,6.9327918,266.2535826,-1.145916,92.72179314,-2.76738714,-135.38424582
6.66,666,-0.239,-0.953,0.348,-0.4010706,262.3574682,-6.760904399999999,92.57282406,-2.90489706,-132.79447566
6.67,667,-0.103,-1.074,0.375,-4.1825934,258.51864959999995,-11.4018642,92.36655918,-2.9736520200000003,-130.23908298
6.68,668,0.062,-1.169,0.369,-8.880849000000003,255.5965638,-13.980175199999998,92.10872808,-3.00229992,-127.70660862
6.6899999999999995,669,0.237,-1.238,0.348,-12.834259199999998,247.9762224,-13.9228794,91.8165195,-3.0137590800000003,-125.25434838
6.7,670,0.452,-1.341,0.316,-15.3552744,238.2359364,-11.0007936,91.5013926,-3.04240698,-122.89949099999998
6.71,671,0.672,-1.443,0.237,-14.5531332,229.0113126,-5.0993262,91.20918402,-3.08824362,-120.6363069
6.72,672,0.7090000000000001,-1.4280000000000002,0.158,-9.167328,219.0418434,0.2291832000000001,90.96854166,-3.1913760600000005,-118.47052566
6.7299999999999995,673,0.56,-1.28,0.14,-2.4637194,207.0670212,3.724227,90.79665426,-3.31742682,-116.4250656
6.74,674,0.335,-1.075,0.153,1.145916,197.8996932,1.9480572,90.66487392,-3.4148296799999995,-114.46554924000002
6.75,675,0.181,-0.8909999999999999,0.17,-4.2398892,193.373325,-6.1879464,90.48152736,-3.42628884,-112.55186952
6.76,676,0.161,-0.823,0.157,-17.131444199999994,188.6177736,-16.501190400000002,90.18931878,-3.3059676599999994,-110.68402644
6.77,677,0.248,-0.908,0.15,-33.8618178,180.82554480000002,-23.6631654,89.71949322,-3.1226211000000004,-108.89639748
6.78,678,0.376,-1.154,0.128,-49.9619376,168.6788352,-22.345362,89.10069858,-2.93354496,-107.23481928
6.79,679,0.5479999999999999,-1.472,0.104,-66.00476160000001,155.7299844,-12.032117999999999,88.33293486,-2.83041252,-105.70502142
6.8,680,0.742,-1.727,0.065,-71.5051584,146.4480648,3.8388186,87.51360492,-2.85906042,-104.26116726
6.81,681,0.784,-1.76,0.022,-58.0406454,132.23870639999998,18.8503182,86.84324405999998,-3.0080295,-102.94909344
6.82,682,0.607,-1.537,0.004,-23.491278,122.9567868,21.6005166,86.52238758000001,-3.1913760600000005,-101.72296332
6.83,683,0.28600000000000003,-1.224,0.002,9.224623800000002,120.72225060000001,13.0634424,86.52811716,-3.27731976,-100.51975152
6.84,684,0.0,-0.981,0.022,21.7151082,122.4984204,-1.432395,86.66562708000002,-3.2257535399999995,-99.30508056
6.85,685,-0.179,-0.816,0.078,24.2361234,123.4151532,-17.8189938,86.83178489999996,-3.0080295,-98.09040960000002
6.86,686,-0.241,-0.733,0.14300000000000002,22.9756158,125.191323,-33.74722620000001,87.00940188,-2.6642547000000003,-96.87000906
6.87,687,-0.207,-0.728,0.244,21.6005166,130.69171980000002,-46.1804148,87.15264138,-2.17151082,-95.5980423
6.88,688,-0.118,-0.773,0.327,17.18874,139.9736394,-51.852699,87.26723297999996,-1.6272007199999998,-94.23440226
6.89,689,0.019,-0.847,0.353,8.479778399999999,150.0577002,-50.420304,87.29588088,-1.10007936,-92.77335936
6.9,690,0.17800000000000002,-0.912,0.32299999999999995,-1.3750992,159.62609880000005,-43.0291458,87.23858508000002,-0.64171296,-91.2149136
6.91,691,0.325,-0.945,0.257,-7.906820400000001,166.6734822,-33.3461556,87.14118221999998,-0.24064236,-89.5819833
6.92,692,0.397,-0.958,0.192,-9.0527364,168.10587719999995,-23.491278,87.02659062000002,0.02291832,-87.93186426
6.93,693,0.404,-0.963,0.134,-8.021412000000002,164.0378754,-15.2406828,86.92345818,0.21772404,-86.32185228
6.9399999999999995,694,0.385,-0.933,0.098,-7.333862400000001,155.21432219999997,-9.5111028,86.83751448000002,0.34950438,-84.79205442
6.95,695,0.322,-0.89,0.093,-5.3858052,143.8697538,-5.5003968,86.7744891,0.44690724,-83.37684816
6.96,696,0.244,-0.85,0.1,-2.5210152000000003,133.4419182,-2.9793816000000004,86.76302994,0.5443101,-82.05904475999998
6.97,697,0.17600000000000002,-0.836,0.119,1.2605076000000002,126.16535159999998,-2.0053530000000004,86.76875952,0.6016058999999999,-80.80999632
6.9799999999999995,698,0.14,-0.856,0.129,3.2658606,122.61301200000001,-2.1772404,86.79740741999998,0.6589017,-79.60105494000003
6.99,699,0.128,-0.895,0.128,3.5523396000000003,121.6389834,-2.9220857999999996,86.83178489999996,0.72192708,-78.39784313999998
7.0,700,0.139,-0.933,0.125,3.6096354,122.09734979999999,-3.2658606,86.87189196,0.7849524600000001,-77.19463134
7.01,701,0.149,-0.969,0.136,2.9220857999999996,123.0140826,-3.151269,86.92918776,0.87662574,-75.97996038
7.02,702,0.162,-0.999,0.141,1.432395,123.8735196,-3.0366774,86.94637650000001,0.93392154,-74.75383026
7.03,703,0.165,-1.026,0.129,0.057295800000000015,125.6496894,-3.4950437999999995,86.95210608,1.0026765,-73.51624097999998
7.04,704,0.161,-1.03,0.109,0.0,128.57177520000002,-4.3544808,86.95783566,1.07716104,-72.24427422
7.05,705,0.147,-1.019,0.087,1.2032118,130.8063114,-4.4117766,86.97502440000002,1.1573751600000002,-70.95511872
7.06,706,0.122,-1.007,0.068,4.297185,129.94687439999998,-2.578311,87.04377936,1.22613012,-69.6716928
7.07,707,0.102,-1.004,0.07,8.4224826,127.7123382,-0.572958,87.14118221999998,1.2605076000000002,-68.4111852
7.08,708,0.107,-1.006,0.086,12.261301199999998,124.10270279999999,0.4583664000000001,87.27296256,1.28342592,-67.17932549999999
7.09,709,0.125,-1.007,0.103,14.667724800000002,119.28985559999998,0.8594370000000001,87.4333908,1.30061466,-65.99903202
7.1,710,0.152,-1.004,0.126,16.1001198,113.6748672,0.9167328,87.61100778,1.30634424,-64.87603434
7.11,711,0.19,-1.006,0.135,16.042824000000003,108.17447040000002,0.9740286,87.8058135,1.34072172,-63.798873300000004
7.12,712,0.228,-1.014,0.13699999999999998,14.381245800000002,102.1584114,1.0886202,87.96051216,1.34072172,-62.79046722
7.13,713,0.263,-1.022,0.13,12.4904844,97.4601558,1.3178034,88.09802207999998,1.3349921400000002,-61.8221682
7.14,714,0.278,-1.022,0.126,10.313244,93.50674559999999,1.8334656000000005,88.21261368,1.32353298,-60.89397623999999
7.15,715,0.271,-1.01,0.096,6.875496000000001,91.5013926,2.5210152000000003,88.2928278,1.30061466,-59.98870260000001
7.16,716,0.244,-0.991,0.07,4.1825934,89.1522648,2.8074942000000003,88.35585318,1.3178034,-59.10634728
7.17,717,0.211,-0.984,0.035,2.291832,86.2874748,2.7501984,88.38450107999998,1.2891555000000001,-58.25263986
7.18,718,0.18600000000000005,-0.992,-0.006,0.8021411999999999,83.65186800000002,2.2345362,88.40168982,1.26623718,-57.42758034
7.1899999999999995,719,0.14800000000000002,-1.013,-0.015,1.4896908000000002,80.61519059999998,1.3178034,88.42460814,1.25477802,-56.62543913999999
7.2,720,0.094,-1.038,-0.02,4.4690724,76.48989300000002,1.0886202,88.47617436,1.24331886,-55.86913458
7.21,721,0.044,-1.053,-0.022,6.760904399999999,72.5937786,1.145916,88.54492932000002,1.23758928,-55.15293708
7.22,722,0.033,-1.039,-0.014,9.167328,67.5517482,1.4896908000000002,88.64806175999998,1.22040054,-54.48257622
7.2299999999999995,723,0.054000000000000006,-1.006,-0.009000000000000001,10.1413566,61.7648724,1.7188740000000002,88.7511942,1.19748222,-53.86951115999999
7.24,724,0.086,-0.971,0.024,10.8289062,54.43101,1.6615782,88.8657858,1.18029348,-53.33093064
7.25,725,0.12,-0.953,0.063,10.886202,46.8106686,1.6042823999999998,88.98037740000002,1.1573751600000002,-52.86683466000001
7.26,726,0.151,-0.953,0.076,9.6829902,40.737313799999995,1.8907613999999997,89.11215774000001,1.19748222,-52.46003448
7.27,727,0.173,-0.956,0.081,8.479778399999999,36.669312,3.0939732,89.19810143999999,1.16310474,-52.09907094
7.28,728,0.18,-0.965,0.068,6.8182002000000015,33.3461556,5.0993262,89.27258598,1.10580894,-51.76675529999999
7.29,729,0.172,-0.981,0.039,4.7555514,29.1635622,8.250595200000001,89.3241522,1.01986524,-51.47454672
7.3,730,0.14400000000000002,-0.99,0.026,3.7815227999999994,22.5172494,11.9748222,89.35852968,0.89954406,-51.25109310000001
7.31,731,0.113,-0.992,0.01,4.8701430000000006,16.501190400000002,14.2093584,89.40436632,0.8078707799999998,-51.08493528
7.32,732,0.092,-0.985,0.003,5.844171599999999,8.193299399999999,15.183387000000002,89.46739170000002,0.6589017,-51.00472116
7.33,733,0.079,-0.976,0.01,6.589017,-0.6302538000000001,14.610429000000002,89.53614666000001,0.5099326200000001,-51.01045074
7.34,734,0.07,-0.968,0.011,6.760904399999999,-7.7349330000000025,12.5477802,89.60490161999998,0.38961144,-51.08493528
7.35,735,0.048,-0.955,0.02,8.479778399999999,-12.9488508,9.5111028,89.69084532,0.29793816,-51.21098604
7.36,736,0.016,-0.961,0.056,11.1153852,-15.2979786,6.2452422,89.83408482,0.24064236,-51.35995512000001
7.37,737,-0.016,-0.999,0.068,11.45916,-15.126091199999998,2.9793816000000004,89.95440599999998,0.21772404,-51.5089242
7.38,738,-0.034,-1.036,0.069,9.969469199999999,-13.6364004,1.0886202,90.05753844,0.21199446,-51.64643412
7.39,739,-0.041,-1.062,0.063,9.6829902,-13.2926256,1.4896908000000002,90.15494129999999,0.20053530000000008,-51.77248488
7.4,740,-0.048,-1.072,0.067,10.1986524,-12.4904844,2.86479,90.26380332,0.17761697999999998,-51.89853564
7.41,741,-0.057,-1.064,0.07200000000000001,10.6570188,-11.3445684,4.1825934,90.40131324,0.10313244,-52.00739766
7.42,742,-0.068,-1.05,0.08,10.6570188,-9.453807000000001,4.6409598,90.51017526,0.057295800000000015,-52.09907094
7.43,743,-0.083,-1.04,0.078,10.1413566,-6.9327918,4.2398892,90.6133077,0.02291832,-52.1678259
7.4399999999999995,744,-0.095,-1.04,0.069,9.6829902,-4.6982556,3.5523396000000003,90.71644014,-0.00572958,-52.21366254
7.45,745,-0.104,-1.047,0.044,9.6829902,-3.4377480000000005,3.5523396000000003,90.813843,-0.04010706,-52.24804002
7.46,746,-0.102,-1.048,0.018000000000000002,10.1986524,-3.8388186,4.8701430000000006,90.89405712,-0.16615782,-52.2824175
7.47,747,-0.093,-1.038,0.011,10.8289062,-5.042030400000002,6.3025379999999975,91.00291914,-0.2291832000000001,-52.333983720000006
7.4799999999999995,748,-0.078,-1.02,0.01,11.6310474,-6.6463128000000005,7.3911582,91.12324032,-0.29793816,-52.40273868000001
7.49,749,-0.065,-0.998,0.008,11.45916,-8.8235532,7.7922288,91.2435615,-0.3724227000000001,-52.48868238
7.5,750,-0.057,-0.972,0.004,10.599723,-10.5424272,7.2765666,91.35242352,-0.43544808,-52.59181482
7.51,751,-0.054000000000000006,-0.948,0.005,10.4278356,-12.2040054,6.6463128000000005,91.43836722,-0.52139178,-52.712136
7.52,752,-0.055,-0.936,0.009000000000000001,11.0007936,-13.6936962,5.844171599999999,91.55295882,-0.5729580000000001,-52.84964592
7.53,753,-0.06,-0.93,0.01,11.45916,-14.8396122,5.1566220000000005,91.67328,-0.61306506,-52.998615
7.54,754,-0.068,-0.932,0.014,11.6310474,-16.4438946,3.9534102,91.79360118,-0.64171296,-53.15904324
7.55,755,-0.07200000000000001,-0.941,0.021,11.2872726,-16.329303,2.5210152000000003,91.91392236,-0.6589017,-53.31947147999999
7.56,756,-0.07200000000000001,-0.962,0.025,10.4851314,-15.5844576,0.9167328,92.00559564,-0.69900876,-53.47417014
7.57,757,-0.063,-0.987,0.031,9.3392154,-14.495837400000001,-0.2291832000000001,92.1029985,-0.6875496,-53.61740964000001
7.58,758,-0.042,-1.019,0.021,8.9954406,-13.980175199999998,-0.7448454000000001,92.20040136,-0.6703608600000001,-53.75491956
7.59,759,-0.02,-1.052,0.016,10.1986524,-15.2406828,-0.11459160000000004,92.30926338,-0.6589017,-53.90388864000001
7.6,760,-0.001,-1.07,0.028,11.4018642,-17.5325148,1.2605076000000002,92.42958456,-0.6589017,-54.07577604000001
7.61,761,0.008,-1.07,0.046,11.516455800000001,-19.595163600000006,3.2085648,92.53844658,-0.6589017,-54.27058175999999
7.62,762,0.001,-1.052,0.063,11.6310474,-22.2307704,4.8701430000000006,92.66449734,-0.69327918,-54.4883058
7.63,763,-0.016,-1.031,0.079,11.8029348,-23.9496444,5.6149884000000005,92.7905481,-0.72765666,-54.72894816
7.64,764,-0.04,-1.019,0.085,11.5737516,-25.6112226,5.9014674000000005,92.91086928,-0.76776372,-54.98104968
7.65,765,-0.06,-1.009,0.085,10.599723,-26.69984280000001,5.958763200000001,93.03119046,-0.8078707799999998,-55.24461036
7.66,766,-0.08,-1.002,0.085,9.3392154,-26.41336380000001,5.5003968,93.1343229,-0.87089616,-55.50817104
7.67,767,-0.093,-0.998,0.084,8.3651868,-24.7517856,4.6409598,93.22599618,-0.89954406,-55.75454298
7.68,768,-0.099,-0.993,0.078,7.6203414,-22.8037284,3.4950437999999995,93.31193988,-0.91100322,-55.9779966
7.6899999999999995,769,-0.102,-0.988,0.079,6.8182002000000015,-21.6005166,2.6929026,93.38642442,-0.92246238,-56.19572064000001
7.7,770,-0.095,-0.988,0.084,5.9014674000000005,-19.9962342,2.3491278,93.45517938,-0.92819196,-56.39052636
7.71,771,-0.084,-0.99,0.087,4.7555514,-18.8503182,2.291832,93.51247518,-0.97975818,-56.5796025
7.72,772,-0.077,-0.999,0.08800000000000001,3.8961144,-17.8189938,2.2345362,93.55831182,-0.98548776,-56.75721948
7.7299999999999995,773,-0.069,-1.004,0.08900000000000001,3.4950437999999995,-16.558486199999994,2.0626488000000003,93.59841887999998,-0.9912173399999998,-56.91764771999999
7.74,774,-0.063,-1.01,0.09,3.7815227999999994,-14.896907999999998,1.7761698,93.64425552,-0.9969469199999998,-57.06661680000001
7.75,775,-0.057,-1.019,0.085,4.297185,-12.9488508,1.432395,93.69009216,-0.9969469199999998,-57.19266756
7.76,776,-0.052000000000000005,-1.026,0.083,4.6409598,-11.1153852,1.3178034,93.7359288,-1.0313244,-57.30725916
7.77,777,-0.046,-1.024,0.096,4.5263682,-9.969469199999999,1.5469866,93.78749502,-1.03705398,-57.40466202
7.78,778,-0.046,-1.015,0.101,4.0680017999999984,-8.7662574,1.7761698,93.83333166,-1.04278356,-57.49060572000001
7.79,779,-0.048,-1.006,0.102,3.6096354,-7.448453999999999,1.8907613999999997,93.86770914,-1.05424272,-57.56509026
7.8,780,-0.051,-1.0,0.099,3.2658606,-5.6722842,1.7761698,93.9078162,-1.07143146,-57.62238606
7.81,781,-0.048,-1.002,0.093,3.6669312000000014,-4.5263682,1.7188740000000002,93.94219368,-1.12299768,-57.66822270000001
7.82,782,-0.045,-1.01,0.08900000000000001,3.724227,-4.1825934,1.9480572,93.98230074,-1.14018642,-57.70832975999999
7.83,783,-0.043,-1.017,0.087,3.2085648,-4.010706000000001,2.0053530000000004,94.01667822,-1.1573751600000002,-57.74843682000001
7.84,784,-0.041,-1.02,0.084,2.5210152000000003,-3.7815227999999994,1.9480572,94.04532612,-1.1688343199999998,-57.78854388
7.85,785,-0.037000000000000005,-1.019,0.084,2.1199446,-3.5523396000000003,1.4896908000000002,94.06824444,-1.18029348,-57.82292136
7.86,786,-0.036000000000000004,-1.016,0.084,1.8907613999999997,-3.0366774,0.8594370000000001,94.0510557,-1.22040054,-57.85156926
7.87,787,-0.034,-1.012,0.083,1.432395,-2.4064236,0.286479,94.06824444,-1.22040054,-57.88021716000001
7.88,788,-0.033,-1.011,0.081,1.0886202,-1.7761698,0.0,94.0797036,-1.22040054,-57.8974059
7.89,789,-0.031,-1.005,0.08,0.8021411999999999,-1.2032118,-0.11459160000000004,94.08543318,-1.21467096,-57.90886506
7.9,790,-0.03,-1.003,0.081,0.6302538000000001,-0.9167328,-0.057295800000000015,94.09689233999998,-1.21467096,-57.91459464
7.91,791,-0.028,-1.004,0.081,0.4010706,-0.7448454000000001,0.11459160000000004,93.92500494,-1.22613012,-57.92032422
7.92,792,-0.027000000000000003,-1.005,0.079,0.0,-0.11459160000000004,0.057295800000000015,93.92500494,-1.22613012,-57.92032422
7.93,793,-0.029,-1.002,0.079,-0.3437748,1.0886202,0.0,93.91927536,-1.22613012,-57.90886506
7.94,794,-0.035,-1.002,0.083,0.0,3.0939732,-0.2291832000000001,93.91927536,-1.22613012,-57.88021716000001
7.95,795,-0.041,-0.999,0.083,0.8594370000000001,4.9847345999999995,-0.4583664000000001,93.92500494,-1.22613012,-57.82865094
7.96,796,-0.045,-0.998,0.09,2.1199446,6.3025379999999975,-0.3437748,93.94792326,-1.26623718,-57.76562556
7.97,797,-0.047,-1.004,0.101,2.7501984,7.161975,-0.286479,93.97657116,-1.27196676,-57.6968706
7.9799999999999995,798,-0.04,-1.012,0.104,2.8074942000000003,8.021412000000002,-0.286479,93.99948948,-1.27769634,-57.61665648
7.99,799,-0.031,-1.016,0.106,2.9220857999999996,8.59437,-0.286479,94.02813738,-1.27769634,-57.53071278
8.0,800,-0.022,-1.021,0.107,3.0939732,8.59437,-0.286479,94.05678528,-1.28342592,-57.44476908
8.01,801,-0.018000000000000002,-1.022,0.1,2.7501984,8.5370742,-0.286479,94.08543318,-1.27769634,-57.35882538
8.02,802,-0.018000000000000002,-1.018,0.094,2.4637194,8.3651868,-0.1718874,94.1083515,-1.28342592,-57.27861126000001
8.03,803,-0.025,-1.007,0.08900000000000001,2.8074942000000003,7.9641161999999985,-0.1718874,94.13126982,-1.2891555000000001,-57.19839714
8.04,804,-0.024,-0.999,0.099,4.010706000000001,7.8495246,-0.11459160000000004,94.17137688,-1.29488508,-57.11818301999999
8.05,805,-0.023,-1.002,0.101,4.4690724,7.8495246,-0.1718874,94.21148394,-1.30061466,-57.04369848
8.06,806,-0.024,-1.01,0.095,3.5523396000000003,8.3651868,-0.1718874,94.24013184,-1.30061466,-56.95775478
8.07,807,-0.026,-1.011,0.09,2.6356068,8.7662574,-0.11459160000000004,94.26305016,-1.30634424,-56.87181108
8.08,808,-0.024,-1.001,0.086,2.1772404,8.479778399999999,-0.057295800000000015,94.28596848,-1.3178034,-56.78586738
8.09,809,-0.02,-0.987,0.087,2.291832,8.021412000000002,-0.4583664000000001,94.30315722,-1.3178034,-56.70565326
8.1,810,-0.012,-0.982,0.092,2.86479,7.6776372,-0.8021411999999999,94.33180511999998,-1.3178034,-56.63116872000001
8.11,811,-0.008,-0.987,0.095,2.86479,7.448453999999999,-0.9740286,94.35472344,-1.2891555000000001,-56.55668418000001
8.12,812,-0.008,-0.997,0.093,2.4064236,7.3911582,-0.8594370000000001,94.37764176,-1.2891555000000001,-56.48219964
8.13,813,-0.012,-1.004,0.091,2.0626488000000003,7.2192707999999985,-0.4010706,94.39483050000001,-1.2891555000000001,-56.407715100000004
8.14,814,-0.014,-1.007,0.091,1.8907613999999997,6.589017,0.0,94.41201924,-1.30061466,-56.34468972
8.15,815,-0.014,-1.009,0.09,1.7188740000000002,5.7868758000000025,0.11459160000000004,94.42920798000002,-1.30634424,-56.28739392
8.16,816,-0.013,-1.01,0.09,1.6615782,5.042030400000002,0.11459160000000004,94.4234784,-1.27769634,-56.2358277
8.17,817,-0.013,-1.008,0.09,1.5469866,4.583664,-0.11459160000000004,94.43493756,-1.28342592,-56.18999106
8.18,818,-0.012,-1.005,0.08900000000000001,1.6615782,4.0680017999999984,-0.4010706,94.4521263,-1.28342592,-56.14988400000001
8.19,819,-0.009000000000000001,-1.003,0.087,1.6042823999999998,3.7815227999999994,-0.6302538000000001,94.46931504,-1.27769634,-56.10977694
8.2,820,-0.006999999999999999,-1.001,0.086,1.432395,3.5523396000000003,-0.572958,94.4807742,-1.27769634,-56.07539946000001
8.209999999999999,821,-0.004,-0.997,0.093,1.3750992,3.6669312000000014,-0.7448454000000001,94.48650378,-1.20894138,-56.04102198
8.22,822,-0.002,-0.994,0.098,1.6042823999999998,3.6096354,-0.9167328,94.49796294,-1.2032117999999998,-56.00091491999999
8.23,823,-0.001,-0.997,0.099,1.7188740000000002,3.5523396000000003,-0.8594370000000001,94.51515168,-1.2032117999999998,-55.96653744
8.24,824,-0.003,-1.001,0.097,1.7188740000000002,3.2658606,-0.7448454000000001,94.53234042,-1.19748222,-55.93215996
8.25,825,-0.013,-1.01,0.091,1.8907613999999997,3.0939732,-0.8594370000000001,94.54952916,-1.19175264,-55.90351206
8.26,826,-0.016,-1.014,0.094,1.9480572,3.2658606,-0.6875496,94.55525874,-1.1688343199999998,-55.86913458
8.27,827,-0.014,-1.015,0.098,1.7188740000000002,2.8074942000000003,-0.4583664000000001,94.57244748,-1.16310474,-55.84048668000001
8.28,828,-0.009000000000000001,-1.012,0.099,1.7188740000000002,1.3750992,-0.1718874,94.58963622,-1.16310474,-55.82329794
8.29,829,-0.006,-1.007,0.102,1.6042823999999998,0.11459160000000004,0.057295800000000015,94.60682496,-1.16310474,-55.82329794
8.3,830,-0.003,-1.003,0.102,1.2605076000000002,-0.3437748,0.057295800000000015,94.61828412,-1.1688343199999998,-55.82902752
8.31,831,-0.004,-1.002,0.105,1.2605076000000002,-0.7448454000000001,0.0,94.6526616,-1.04278356,-55.83475709999999
8.32,832,-0.008,-1.003,0.104,1.3178034,-1.145916,0.057295800000000015,94.66412076,-1.03705398,-55.84621625999999
8.33,833,-0.012,-1.002,0.101,0.8594370000000001,-1.432395,0.0,94.67557992,-1.03705398,-55.85767542
8.34,834,-0.017,-1.005,0.099,0.286479,-1.7188740000000002,-0.057295800000000015,94.67557992,-1.03705398,-55.87486416
8.35,835,-0.022,-1.008,0.098,0.1718874,-1.7761698,0.0,94.68130949999998,-1.0313244,-55.892052899999996
8.36,836,-0.025,-1.01,0.099,0.2291832000000001,-1.9480572,0.0,94.66412076,-1.04851314,-55.91497122000001
8.37,837,-0.024,-1.006,0.1,0.1718874,-2.0626488000000003,0.0,94.66412076,-1.04278356,-55.93215996
8.38,838,-0.021,-1.005,0.101,0.2291832000000001,-2.3491278,-0.11459160000000004,94.66985034,-1.04278356,-55.95507828
8.39,839,-0.018000000000000002,-1.007,0.1,0.2291832000000001,-2.291832,-0.286479,94.67557992,-1.03705398,-55.9779966
8.4,840,-0.017,-1.012,0.099,0.0,-2.1772404,-0.4583664000000001,94.67557992,-1.0255948199999998,-56.00091491999999
