TimeStamp(s),FrameCounter,AccX,AccY,AccZ,GyrX,GyrY,GyrZ,EulerX,EulerY,EulerZ
0.01,1,-0.095,-1.003,0.101,-3.9534102,-6.302537999999998,-0.4010706,94.0510557,-6.2452422000000025,-69.26489262
0.02,2,-0.094,-1.008,0.1,-5.6722842,-5.6722842,-0.9167328,93.99948948,-6.22805346,-69.32218842
0.03,3,-0.098,-1.008,0.102,-6.0733548,-4.010706000000001,-0.9167328,93.94219368,-6.2165943,-69.36229548
0.04,4,-0.1,-1.01,0.096,-6.2452422,-3.4377480000000005,-0.8021411999999999,93.8791683,-6.205135139999999,-69.39667296
0.05,5,-0.099,-1.007,0.08900000000000001,-6.130650599999999,-3.7815227999999994,-0.7448454000000001,93.8218725,-6.1879464,-69.43105044
0.060000000000000005,6,-0.094,-1.004,0.086,-5.958763200000001,-3.8961144,-0.7448454000000001,93.7645767,-6.17648724,-69.47115749999999
0.06999999999999999,7,-0.086,-0.999,0.086,-6.130650599999999,-2.578311,-1.2032118,93.7072809,-6.1592985,-69.49407582
0.08,8,-0.078,-0.996,0.086,-6.016058999999999,-1.4896908000000002,-1.4896908000000002,93.6499851,-6.147839339999999,-69.51126456
0.09,9,-0.07,-0.996,0.083,-5.3285094000000015,-0.8594370000000001,-1.6042823999999998,93.5926893,-6.130650600000001,-69.51699414
0.09999999999999999,10,-0.062,-0.999,0.08,-5.2139178,-0.11459160000000003,-2.0053530000000004,93.54112308,-6.0733548000000015,-69.50553498000001
0.11,11,-0.057,-1.001,0.081,-5.72958,0.8594370000000001,-2.1772404,93.4780977,-6.05616606,-69.49407582
0.12,12,-0.055,-1.002,0.078,-6.0733548,1.3750992,-2.2345362,93.41507232,-6.0332477399999975,-69.47688708
0.13,13,-0.056,-1.001,0.077,-5.9014674000000005,1.5469866,-2.0626488000000003,93.35204694,-6.0160589999999985,-69.46542792
0.14,14,-0.055,-1.002,0.079,-5.5003968,1.145916,-1.6615782,93.29475114,-5.99887026,-69.44823918
0.15000000000000002,15,-0.055,-1.004,0.081,-4.7555514,0.3437748,-0.9167328,93.24891449999998,-5.93584488,-69.42532086
0.16,16,-0.051,-1.008,0.091,-4.6982556,-0.22918320000000006,-0.572958,93.19734828,-5.930115299999999,-69.42532086
0.17,17,-0.052000000000000005,-1.012,0.098,-5.3285094000000015,-0.7448454000000001,-0.4010706,93.14578206000002,-5.930115299999999,-69.43105044
0.18000000000000002,18,-0.056,-1.015,0.105,-5.844171599999999,-0.8594370000000001,-0.6875496,93.08848626,-5.91865614,-69.4425096
0.19,19,-0.059,-1.015,0.113,-6.130650599999999,-0.1718874,-1.3750992,93.02546088,-5.90719698,-69.4425096
0.2,20,-0.06,-1.016,0.116,-6.016058999999999,1.0886202,-2.1772404,92.97962424,-5.861360339999999,-69.42532086
0.21000000000000002,21,-0.058,-1.014,0.116,-5.5576926,2.5210152000000003,-2.7501984,92.92232844,-5.83844202,-69.39667296
0.22,22,-0.054000000000000006,-1.013,0.111,-4.3544808,3.6096354,-2.7501984,92.87076222,-5.80979412,-69.36229548
0.23,23,-0.05,-1.012,0.107,-3.5523396000000003,4.1825934,-2.3491278,92.83065516000002,-5.79260538,-69.31645884000001
0.24000000000000002,24,-0.049,-1.007,0.108,-3.4950437999999995,4.2398892,-1.8334656000000005,92.7905481,-5.77541664,-69.27635178
0.25,25,-0.049,-1.001,0.108,-4.2398892,4.5263682,-1.3178034,92.75617062,-5.74103916,-69.21905598
0.26,26,-0.051,-0.995,0.107,-4.3544808,4.9847345999999995,-1.0886202,92.7046044,-5.735309579999999,-69.17321934
0.27,27,-0.05,-0.994,0.106,-3.8388186,5.5003968,-1.0886202,92.65876776,-5.72385042,-69.11592354000001
0.28,28,-0.051,-0.993,0.106,-3.3804522000000006,6.130650599999999,-1.3178034,92.6186607,-5.71812084,-69.05862774
0.29000000000000004,29,-0.05,-0.993,0.105,-2.9793816000000004,6.4744254,-1.8334656000000005,92.57855364,-5.700932099999998,-68.98987278000001
0.3,30,-0.051,-0.991,0.105,-2.8074942000000003,6.9327918,-2.4064236,92.55563532,-5.66082504,-68.91538824
0.31,31,-0.052000000000000005,-0.989,0.1,-2.8074942000000003,7.5057497999999985,-2.9220857999999996,92.52125784,-5.63790672,-68.8409037
0.32,32,-0.054000000000000006,-0.986,0.093,-2.6356068,7.9641161999999985,-3.0939732,92.48115077999998,-5.6149884000000005,-68.75496000000001
0.33,33,-0.056,-0.984,0.09,-2.4064236,8.9381448,-3.151269,92.4467733,-5.59207008,-68.6690163
0.34,34,-0.06,-0.985,0.085,-2.0053530000000004,10.4278356,-3.2085648,92.4181254,-5.56342218,-68.56588386000001
0.35000000000000003,35,-0.062,-0.986,0.084,-1.2605076000000002,12.318597,-3.3804522000000006,92.39520708,-5.5290447,-68.43410352000001
0.36000000000000004,36,-0.064,-0.984,0.086,-0.8021411999999999,14.667724800000002,-3.724227,92.37228876,-5.5003968,-68.28513444
0.37,37,-0.066,-0.982,0.086,-0.1718874,16.902261,-3.8961144,92.34937044,-5.4717489000000015,-68.11897662
0.38,38,-0.066,-0.981,0.08900000000000001,0.4010706,17.9908812,-4.0680017999999984,92.3321817,-5.443101,-67.93563006
0.39,39,-0.067,-0.981,0.08900000000000001,0.4010706,18.2200644,-3.9534102,92.32072254,-5.414453099999999,-67.75228349999999
0.4,40,-0.064,-0.985,0.085,0.0,17.475219,-3.8961144,92.3035338,-5.38007562,-67.57466652000001
0.41000000000000003,41,-0.058,-0.996,0.085,0.0,15.6990492,-3.7815227999999994,92.28634506,-5.35142772,-67.41996786
0.42000000000000004,42,-0.05,-1.005,0.084,0.286479,12.605076,-3.4950437999999995,92.2748859,-5.3285094000000015,-67.2939171
0.43,43,-0.047,-1.015,0.081,-0.22918320000000006,8.7089616,-2.9793816000000004,92.26342674,-5.30559108,-67.20224381999999
0.44,44,-0.051,-1.02,0.076,-2.1199446,4.010706000000001,-2.7501984,92.24050842,-5.27694318,-67.16213676
0.45,45,-0.062,-1.018,0.064,-4.8128472,-1.5469866,-2.291832,92.1889422,-5.2425657,-67.17359592
0.46,46,-0.077,-1.008,0.053,-7.6776372,-8.193299399999999,-1.7188740000000002,92.12018724,-5.21964738,-67.25381003999999
0.47000000000000003,47,-0.08800000000000001,-1.003,0.052000000000000005,-11.5737516,-14.896907999999998,-1.4896908000000002,92.0170548,-5.19672906,-67.40277911999999
0.48000000000000004,48,-0.097,-0.996,0.052000000000000005,-15.0114996,-18.9649098,-1.9480572,91.88527446,-5.16235158,-67.59185526
0.49,49,-0.102,-0.994,0.053,-17.589810600000003,-21.6578124,-3.2085648,91.72484622,-5.1222445200000015,-67.80957930000001
0.5,50,-0.105,-1.002,0.045,-19.7097552,-23.6631654,-4.583664,91.55295882,-5.06494872,-68.04449208
0.51,51,-0.107,-1.015,0.033,-20.912967,-25.210152,-5.6722842,91.36388268,-4.99619376,-68.2965936
0.52,52,-0.108,-1.024,0.023,-21.3140376,-27.3873924,-5.9014674000000005,91.17480654,-4.9274388,-68.56588386000001
0.53,53,-0.109,-1.025,0.021,-21.9442914,-30.1375908,-5.1566220000000005,90.98000082,-4.86441342,-68.8695516
0.54,54,-0.12,-1.006,0.034,-22.6891368,-32.486718599999996,-3.3804522000000006,90.77946552,-4.81857678,-69.19040808
0.55,55,-0.13699999999999998,-0.987,0.056,-21.2567418,-34.2055926,-0.8594370000000001,90.60184854,-4.80138804,-69.53991246000001
0.56,56,-0.151,-0.976,0.091,-18.5065434,-34.091001,0.4010706,90.44714988,-4.79565846,-69.87795768
0.5700000000000001,57,-0.163,-0.977,0.131,-14.0947668,-33.002380800000005,0.8021411999999999,90.33828786,-4.79565846,-70.20454373999999
0.5800000000000001,58,-0.163,-0.986,0.163,-9.797581800000001,-29.7365202,1.2032118,90.26380332,-4.79565846,-70.50248189999998
0.59,59,-0.159,-1.006,0.177,-6.2452422,-25.2674478,1.8334656000000005,90.22369626,-4.80711762,-70.75458342
0.6,60,-0.157,-1.032,0.187,-3.151269,-21.1421502,3.151269,90.240885,-4.84722468,-70.97230746
0.61,61,-0.16,-1.056,0.195,-0.572958,-18.048177,5.443101,90.25234416,-4.898790900000002,-71.15565402
0.62,62,-0.159,-1.055,0.199,1.6042823999999998,-15.9282324,8.7662574,90.28672164,-4.97900502,-71.31608226
0.63,63,-0.152,-1.032,0.198,4.010706000000001,-15.0114996,11.9748222,90.34401744,-5.0935966200000005,-71.46505134
0.64,64,-0.14300000000000002,-0.995,0.195,4.9847345999999995,-15.183387000000002,14.152062599999999,90.40704282,-5.231106540000001,-71.61402042
0.65,65,-0.13699999999999998,-0.96,0.191,4.1825934,-15.6990492,14.896907999999998,90.49298652,-5.38007562,-71.78017824
0.66,66,-0.14,-0.928,0.18600000000000005,2.1772404,-16.4438946,14.495837400000001,90.53309358,-5.51758554,-71.94633606
0.67,67,-0.145,-0.905,0.187,0.22918320000000006,-17.0168526,12.9488508,90.55028232,-5.63790672,-72.11249388
0.68,68,-0.156,-0.898,0.187,-1.2032118,-17.303331600000003,11.0007936,90.56174148,-5.74103916,-72.29011086
0.6900000000000001,69,-0.16,-0.906,0.185,-2.6929026,-16.959556799999998,9.224623800000002,90.55028232,-5.8269828599999975,-72.45626868000002
0.7000000000000001,70,-0.16399999999999998,-0.919,0.182,-4.0680017999999984,-16.272007199999994,7.3911582,90.5560119,-5.9129265600000025,-72.63388566
0.7100000000000001,71,-0.16699999999999998,-0.927,0.172,-4.6982556,-14.667724800000002,6.130650599999999,90.527364,-5.97022236,-72.78285473999998
0.72,72,-0.172,-0.925,0.16699999999999998,-4.5263682,-13.120738199999998,5.3285094000000015,90.49298652,-6.0160589999999985,-72.91463508000002
0.73,73,-0.177,-0.919,0.168,-3.9534102,-10.5424272,4.3544808,90.46433862,-6.05616606,-73.01776751999998
0.74,74,-0.181,-0.913,0.173,-3.2085648,-7.1046792000000005,3.3804522000000006,90.4414203,-6.09054354,-73.09225205999998
0.75,75,-0.184,-0.91,0.173,-2.0626488000000003,-3.3231564,2.4064236,90.52163442,-6.17648724,-73.16673660000002
0.76,76,-0.184,-0.912,0.175,-0.4583664000000001,0.0,1.2032118,90.51590484,-6.1879464,-73.16673660000002
0.77,77,-0.185,-0.92,0.18,0.9167328,2.3491278,0.1718874,90.52163442,-6.19367598,-73.14381828
0.78,78,-0.182,-0.933,0.196,2.4064236,4.2398892,-0.8021411999999999,90.53882316,-6.1879464,-73.10371122000002
0.79,79,-0.181,-0.943,0.19,4.2398892,7.3911582,-1.7761698,90.57320064,-6.17075766,-73.02922668
0.8,80,-0.16899999999999998,-0.95,0.193,5.9014674000000005,10.1413566,-2.6356068,90.66487392,-6.165028080000001,-72.93755340000001
0.81,81,-0.156,-0.954,0.191,8.136003599999999,12.605076,-3.3804522000000006,90.7278993,-6.13638018,-72.81150264
0.8200000000000001,82,-0.14,-0.949,0.192,10.1413566,15.0114996,-4.1252976000000015,90.813843,-6.1020027,-72.66253356
0.8300000000000001,83,-0.128,-0.943,0.193,12.4904844,16.673077799999998,-4.8128472,90.92270502,-6.06189564,-72.49637574
0.8400000000000001,84,-0.122,-0.929,0.209,13.8655836,17.9335854,-5.042030400000002,91.0430262,-6.0160589999999985,-72.31302918
0.85,85,-0.122,-0.925,0.241,14.7823164,18.7930224,-4.7555514,91.19772486,-5.98168152,-72.12968262000003
0.86,86,-0.123,-0.924,0.269,14.495837400000001,21.0848544,-4.5263682,91.31804604,-5.94157446,-71.91768816
0.87,87,-0.12,-0.927,0.254,15.3552744,24.637194,-4.3544808,91.44982638,-5.9129265600000025,-71.67131622000002
0.88,88,-0.117,-0.933,0.235,16.959556799999998,25.1528562,-3.7815227999999994,91.59306588,-5.88427866,-71.4192147
0.89,89,-0.115,-0.942,0.233,17.761698000000006,23.6631654,-2.9220857999999996,91.74203496,-5.86708992,-71.17857234
0.9,90,-0.12,-0.95,0.255,17.3606274,22.1161788,-1.7188740000000002,91.91965194,-5.86708992,-70.9608483
0.91,91,-0.136,-0.957,0.28800000000000003,16.615782,22.8037284,-0.4583664000000001,92.06289144000002,-5.87854908,-70.7316651
0.92,92,-0.15,-0.964,0.292,16.2147114,24.694489800000003,0.8021411999999999,92.20040136,-5.9014674000000005,-70.48529316
0.93,93,-0.16399999999999998,-0.972,0.278,16.4438946,25.840405800000006,1.7188740000000002,92.33791128,-5.930115299999999,-70.22746206
0.9400000000000001,94,-0.184,-0.979,0.242,15.6417534,26.298772200000002,1.8334656000000005,92.46396204,-5.97022236,-69.96963095999999
0.9500000000000001,95,-0.201,-0.98,0.221,15.183387000000002,26.7571386,1.0313244,92.60720154,-6.01032942,-69.71179986
0.9600000000000001,96,-0.221,-0.987,0.223,17.246035799999998,27.903054600000004,0.6302538000000001,92.75044104,-6.03897732,-69.43105044
0.97,97,-0.253,-0.991,0.239,19.938938399999998,29.7365202,0.5156622000000001,92.91659886,-6.06189564,-69.13311228
0.98,98,-0.277,-0.993,0.258,21.3713334,32.142943800000005,0.3437748,93.09421584,-6.09054354,-68.8122558
0.99,99,-0.29600000000000004,-0.987,0.272,21.5432208,33.8618178,0.286479,93.27183282,-6.11919144,-68.47421058
1.0,100,-0.3,-0.974,0.274,22.173474600000002,34.37748,0.8021411999999999,93.47236812,-6.17648724,-68.14189494000001
1.01,101,-0.292,-0.958,0.29,23.204799,34.262888399999994,1.8334656000000005,93.66717384,-6.22232388,-67.79812014000001
1.02,102,-0.254,-0.962,0.285,22.345362,34.4347758,3.6096354,93.85624998,-6.29107884,-67.46007492
1.03,103,-0.159,-1.091,0.162,10.599723,33.5753388,7.0473834,93.91927536,-6.388481700000002,-67.12775927999999
1.04,104,-0.026,-1.337,0.013,-5.844171599999999,21.6578124,17.0168526,93.83906124,-6.57755784,-66.92722398
1.05,105,0.109,-1.634,0.077,1.432395,-2.86479,33.3461556,93.85624998,-6.9041438999999984,-66.97879019999999
1.06,106,0.171,-1.735,0.194,23.9496444,-21.772404,43.831287,94.13699940000001,-7.3166736599999975,-67.21943256
1.07,107,0.06,-1.516,0.211,29.0489706,-28.0176462,40.2789474,94.47504462,-7.68336678,-67.52882988
1.08,108,-0.147,-1.246,0.159,17.6471064,-26.5852512,27.6165756,94.69849824,-7.929738719999999,-67.81530888
1.09,109,-0.275,-1.081,0.078,6.875496000000001,-22.1161788,8.136003599999999,94.80163068,-7.9813049399999985,-68.03876249999999
1.1,110,-0.324,-1.073,0.03,1.5469866,-11.688343199999998,-14.32395,94.824549,-7.85525418,-68.14762452
1.11,111,-0.362,-1.205,0.006,10.0840608,9.8548776,-28.304125199999998,94.9104927,-7.58596392,-68.02730333999999
1.12,112,-0.375,-1.406,-0.012,20.7410796,27.444688199999998,-30.93973200000001,95.07665052000002,-7.305214500000001,-67.7236356
1.1300000000000001,113,-0.371,-1.501,0.02,21.0848544,36.03905820000001,-27.9603504,95.23707876,-7.0703017200000025,-67.33975374
1.1400000000000001,114,-0.309,-1.409,0.055,19.308684600000007,42.34159620000001,-25.7258142,95.37458868,-6.86403684,-66.89284649999999
1.1500000000000001,115,-0.202,-1.237,0.012,17.0168526,48.0711762,-22.9756158,95.47199154,-6.69214944,-66.38864346
1.1600000000000001,116,-0.063,-1.085,-0.06,15.2406828,55.5196302,-19.8243468,95.55220566,-6.566098679999999,-65.82141504
1.17,117,0.034,-0.981,-0.128,9.2819196,62.22323879999999,-16.2147114,95.5693944,-6.48015498,-65.19116124
1.18,118,0.077,-0.85,-0.121,1.8907613999999997,61.8221682,-9.797581800000001,95.51209860000002,-6.45723666,-64.56663702
1.19,119,0.048,-0.7759999999999999,-0.109,-6.016058999999999,54.08723520000001,-2.291832,95.38031826,-6.5030733,-64.03378608
1.2,120,-0.01,-0.74,-0.108,-15.2979786,46.9252602,4.2398892,95.15686464,-6.5947465800000025,-63.56969010000001
1.21,121,-0.059,-0.735,-0.086,-21.0848544,39.3049188,9.6256944,94.89330396,-6.7379860800000015,-63.19153781999999
1.22,122,-0.07400000000000001,-0.775,-0.061,-22.173474600000002,33.403451399999994,11.4018642,94.6240137,-6.89268474,-62.87641092
1.23,123,-0.055,-0.846,-0.038,-21.0848544,29.67922440000001,8.8235532,94.37191218,-7.01300592,-62.58993191999999
1.24,124,-0.018000000000000002,-0.93,-0.027000000000000003,-18.5065434,26.2414764,2.6929026,94.14845856,-7.06457214,-62.33210082
1.25,125,0.016,-0.992,-0.016,-13.6936962,22.2880662,-4.7555514,93.965112,-7.01300592,-62.09718803999999
1.26,126,0.044,-1.009,-0.001,-9.167328,17.7044022,-12.261301199999998,93.84479082,-6.90987348,-61.91384148
1.27,127,0.063,-0.982,0.017,-7.5057497999999985,12.1467096,-16.615782,93.75311754,-6.7551748200000015,-61.78779072
1.28,128,0.081,-0.956,0.037000000000000005,-7.7349330000000025,8.021412000000002,-17.9908812,93.66144426,-6.589017,-61.69611744
1.29,129,0.085,-0.945,0.057,-10.1413566,3.8961144,-18.048177,93.55258224,-6.411400019999999,-61.64455122
1.3,130,0.07200000000000001,-0.943,0.07200000000000001,-12.7769634,-0.4010706,-17.18874,93.4208019,-6.205135139999999,-61.62736248
1.31,131,0.049,-0.961,0.069,-15.6417534,-3.724227,-16.042824000000003,93.26610324,-6.0447069,-61.65601038
1.32,132,0.026,-0.971,0.059,-19.4232762,-5.042030400000002,-15.0687954,93.07129752,-5.895737819999999,-61.70184702
1.33,133,0.006999999999999999,-0.966,0.057,-22.631841,-5.958763200000001,-14.32395,92.8478439,-5.746768739999999,-61.75341324
1.34,134,-0.013,-0.951,0.061,-26.356068,-7.8495246,-13.980175199999998,92.5900128,-5.603529239999999,-61.82789778
1.35,135,-0.028,-0.935,0.061,-29.0489706,-10.7716104,-14.2093584,92.3035338,-5.45456016,-61.93103021999999
1.36,136,-0.035,-0.929,0.056,-30.080295,-12.4904844,-15.2979786,92.01132522,-5.29413192,-62.0513514
1.37,137,-0.038,-0.932,0.054000000000000006,-29.67922440000001,-12.7769634,-16.558486199999994,91.72484622,-5.1222445200000015,-62.17740216
1.3800000000000001,138,-0.037000000000000005,-0.944,0.054000000000000006,-28.819787400000006,-12.4904844,-17.5325148,91.4440968,-4.94462754,-62.29772333999999
1.3900000000000001,139,-0.035,-0.952,0.062,-27.903054600000004,-13.0061466,-17.8189938,91.16907696,-4.76128098,-62.4237741
1.4000000000000001,140,-0.021,-0.961,0.073,-25.8977016,-14.32395,-17.246035799999998,90.92270502,-4.57793442,-62.5670136
1.4100000000000001,141,-0.009000000000000001,-0.974,0.076,-24.5798982,-15.2979786,-15.985528200000001,90.68779224,-4.41750618,-62.71598268
1.42,142,-0.006,-0.978,0.075,-25.0955604,-15.985528200000001,-13.750992000000002,90.44714988,-4.27426668,-62.87641092
1.43,143,-0.008,-0.965,0.071,-25.4393352,-15.985528200000001,-10.1986524,90.20077794,-4.17113424,-63.03683916
1.44,144,-0.018000000000000002,-0.952,0.063,-24.2934192,-14.037471,-7.9641161999999985,89.96586515999998,-4.09092012,-63.18007865999999
1.45,145,-0.038,-0.938,0.045,-22.4026578,-11.516455800000001,-6.1879464,89.75387070000002,-4.022165159999999,-63.29467026
1.46,146,-0.059,-0.919,0.045,-19.6524594,-9.167328,-4.9847345999999995,89.55906498,-3.97059894,-63.38634354000001
1.47,147,-0.071,-0.892,0.064,-17.18874,-7.6776372,-4.5263682,89.39290716000002,-3.9247623,-63.46655766
1.48,148,-0.069,-0.858,0.079,-14.9542038,-6.875496000000001,-4.4117766,89.24966766,-3.88465524,-63.53531262
1.49,149,-0.062,-0.8240000000000001,0.083,-12.891555,-6.2452422,-4.6409598,89.12361690000002,-3.8388186000000006,-63.598338
1.5,150,-0.046,-0.7979999999999999,0.09,-11.2872726,-5.5003968,-4.7555514,89.02621404,-3.78725238,-63.6556338
1.51,151,-0.022,-0.8,0.096,-9.224623800000002,-5.2139178,-4.297185,88.93454076,-3.74714532,-63.712929599999995
1.52,152,0.0,-0.831,0.09,-7.8495246,-6.417129599999999,-2.86479,88.86005622,-3.71849742,-63.77595498000001
1.53,153,0.02,-0.872,0.087,-6.302537999999998,-9.167328,-0.11459160000000003,88.80276042,-3.71276784,-63.86762826
1.54,154,0.03,-0.906,0.087,-5.3858052,-13.0061466,3.724227,88.75692378,-3.752874900000001,-63.9994086
1.55,155,0.024,-0.919,0.08199999999999999,-4.1825934,-17.0168526,8.193299399999999,88.73973504,-3.81590028,-64.15983684
1.56,156,0.012,-0.903,0.081,-1.8907613999999997,-19.767051,11.688343199999998,88.73973504,-3.93049188,-64.35464255999999
1.57,157,-0.004,-0.853,0.102,2.6929026,-20.5691922,13.8655836,88.78557168,-4.0680017999999984,-64.55517785999999
1.58,158,-0.031,-0.8109999999999999,0.14300000000000002,8.078707799999998,-20.05353,15.2979786,88.88297453999998,-4.21697088,-64.74998358
1.59,159,-0.073,-0.79,0.212,11.6310474,-20.05353,16.329303,89.02048446,-4.37739912,-64.9447893
1.6,160,-0.111,-0.7959999999999999,0.276,12.9488508,-19.4232762,17.303331600000003,89.19810143999999,-4.549286520000001,-65.13959502
1.61,161,-0.124,-0.8320000000000001,0.282,13.349921400000001,-18.2200644,18.2773602,89.3528001,-4.7269035000000015,-65.31721200000001
1.62,162,-0.131,-0.887,0.306,12.0894138,-18.6784308,18.048177,89.49031002000002,-4.90452048,-65.50055856
1.6300000000000001,163,-0.134,-0.954,0.322,10.6570188,-18.5638392,15.6417534,89.62209035999999,-5.05348956,-65.68390511999999
1.6400000000000001,164,-0.112,-1.034,0.315,11.2872726,-17.475219,11.9748222,89.75387070000002,-5.16808116,-65.85579252
1.6500000000000001,165,-0.073,-1.108,0.309,11.917526400000002,-15.4125702,8.479778399999999,89.92002852,-5.2425657,-66.01049118
1.6600000000000001,166,-0.045,-1.152,0.324,10.8289062,-14.667724800000002,6.703608600000001,90.04607927999999,-5.30559108,-66.15373068
1.6700000000000002,167,-0.025,-1.155,0.338,9.3965112,-17.131444199999994,7.9641161999999985,90.16067088,-5.38007562,-66.31988849999999
1.68,168,-0.004,-1.132,0.335,8.9954406,-20.7410796,9.6829902,90.27526248,-5.466019319999999,-66.52615338000001
1.69,169,0.011,-1.107,0.365,7.6776372,-24.5798982,10.1413566,90.37839492,-5.5576926,-66.77252532
1.7,170,0.009000000000000001,-1.103,0.391,4.4690724,-28.5333084,9.5111028,90.48725694,-5.63217714,-67.05900432000001
1.71,171,0.01,-1.124,0.364,1.145916,-31.1689152,7.161975,90.53309358,-5.68947294,-67.36840163999999
1.72,172,0.0,-1.157,0.29100000000000004,-1.9480572,-31.340802600000004,2.3491278,90.55028232,-5.700932099999998,-67.67779895999999
1.73,173,-0.041,-1.215,0.17600000000000002,-3.8388186,-27.7311672,-4.583664,90.53882316,-5.64936588,-67.9528188
1.74,174,-0.107,-1.291,0.064,-2.6356068,-20.2827132,-13.178034,90.53309358,-5.50612638,-68.1533541
1.75,175,-0.195,-1.32,-0.006,0.6875496,-12.261301199999998,-18.7357266,90.55028232,-5.32277982,-68.27367527999999
1.76,176,-0.28300000000000003,-1.305,-0.052000000000000005,2.8074942000000003,-6.0733548,-21.829699800000004,90.5846598,-5.10505578,-68.33097108000001
1.77,177,-0.368,-1.268,-0.104,0.8021411999999999,0.6302538000000001,-23.777757,90.59611896,-4.8701430000000006,-68.31951192
1.78,178,-0.412,-1.205,-0.139,-9.453807000000001,11.229976800000001,-25.496631,90.48725694,-4.6180414800000005,-68.21064989999999
1.79,179,-0.394,-1.15,-0.163,-25.210152,28.2468294,-28.0176462,90.20077794,-4.3544808,-67.92990048
1.8,180,-0.303,-1.105,-0.173,-40.164355799999996,51.10785360000001,-30.93973200000001,89.74241154,-4.0680017999999984,-67.42569744
1.81,181,-0.153,-1.012,-0.012,-29.67922440000001,58.2125328,-28.4760126,89.39863674,-3.79871154,-66.85846902
1.82,182,-0.009000000000000001,-1.111,0.128,-0.4583664000000001,48.0138804,-20.511896399999998,89.3528001,-3.60390582,-66.38291388
1.83,183,0.15,-1.285,0.289,8.8235532,36.7266078,-16.2147114,89.41582548,-3.4492071599999994,-66.01622076
1.84,184,0.242,-1.4169999999999998,0.321,5.9014674000000005,27.788463,-12.261301199999998,89.45593253999998,-3.32888598,-65.74120092000001
1.85,185,0.271,-1.4980000000000002,0.277,10.255948199999999,23.6631654,-11.8602306,89.54760582,-3.2085648000000004,-65.50628814000001
1.86,186,0.266,-1.477,0.232,22.5745452,23.032911600000002,-14.0947668,89.75960028,-3.07105488,-65.27710494
1.87,187,0.229,-1.39,0.159,38.8465524,20.9702628,-15.985528200000001,90.14348214,-2.91635622,-65.06511048
1.8800000000000001,188,0.15,-1.33,0.13699999999999998,53.456981400000004,12.0894138,-15.3552744,90.67633308,-2.76165756,-64.93333014
1.8900000000000001,189,0.057,-1.263,0.147,55.748813399999996,4.1252976000000015,-11.8602306,91.23783192,-2.6413363800000003,-64.88749349999999
1.9000000000000001,190,-0.026,-1.121,0.069,47.555514,-1.9480572,-4.7555514,91.71911664,-2.58977016,-64.89895265999999
1.9100000000000001,191,-0.102,-0.976,-0.073,41.539455,-10.7716104,2.0053530000000004,92.14310556,-2.6012293200000003,-65.0020851
1.9200000000000002,192,-0.14400000000000002,-0.865,-0.231,33.804522,-18.7357266,5.5576926,92.49833952,-2.6413363800000003,-65.18543166
1.93,193,-0.141,-0.784,-0.343,23.491278,-24.8663772,6.6463128000000005,92.75044104,-2.68717302,-65.4318036
1.94,194,-0.08199999999999999,-0.736,-0.368,14.8396122,-28.8770832,6.589017,92.92232844,-2.72728008,-65.71828260000001
1.95,195,-0.009000000000000001,-0.728,-0.366,9.167328,-34.4347758,7.0473834,92.99108340000001,-2.76165756,-66.05059824
1.96,196,0.023,-0.746,-0.35600000000000004,2.291832,-40.90920120000001,9.2819196,93.03692004,-2.82468294,-66.463128
1.97,197,0.019,-0.7809999999999999,-0.335,-4.583664,-44.6334282,13.0061466,93.0197313,-2.91635622,-66.91003524
1.98,198,-0.004,-0.835,-0.322,-9.6829902,-46.00852740000001,18.2200644,92.95097633999998,-3.0653253000000005,-67.37413122000001
1.99,199,-0.047,-0.887,-0.287,-11.0007936,-45.8939358,21.9442914,92.87076222,-3.24294228,-67.84395678
2.0,200,-0.104,-0.937,-0.222,-8.250595200000001,-41.4248634,22.6891368,92.79627768,-3.4492071599999994,-68.26221611999999
2.01,201,-0.161,-0.983,-0.185,-5.2139178,-34.2055926,20.3973048,92.76762978,-3.62109456,-68.61172049999999
2.02,202,-0.218,-1.025,-0.161,-3.9534102,-26.7571386,16.615782,92.75044104,-3.77006364,-68.88674033999999
2.03,203,-0.276,-1.056,-0.155,-4.3544808,-20.1108258,12.5477802,92.72179314,-3.87892566,-69.09300522
2.04,204,-0.301,-1.072,-0.146,-4.9847345999999995,-13.178034,9.453807000000001,92.68168608,-3.9648693599999993,-69.22478556000002
2.05,205,-0.29600000000000004,-1.086,-0.13699999999999998,-5.5576926,-8.5370742,8.307891,92.59574238000002,-4.08519054,-69.32218842
2.0599999999999996,206,-0.265,-1.101,-0.106,-7.3911582,-5.5003968,8.9381448,92.52698742,-4.16540466,-69.38521379999999
2.07,207,-0.201,-1.127,-0.079,-11.172681,-1.4896908000000002,10.3705398,92.41239582,-4.2685371,-69.40813212
2.0799999999999996,208,-0.134,-1.137,-0.067,-14.9542038,1.0313244,12.0894138,92.26342674,-4.39458786,-69.40240254
2.09,209,-0.07200000000000001,-1.128,-0.034,-16.501190400000002,2.4064236,13.5791046,92.09153934,-4.53209778,-69.38521379999999
2.0999999999999996,210,-0.03,-1.106,-0.008,-15.6990492,3.2085648,14.5531332,91.91965194,-4.66387812,-69.35656589999999
2.11,211,-0.005,-1.073,0.012,-13.6936962,3.8388186,14.7823164,91.77641244,-4.812847199999998,-69.32218842
2.1199999999999997,212,0.0,-1.046,0.032,-12.6623718,4.8701430000000006,13.9228794,91.6446321,-4.9560867,-69.28208136
2.13,213,-0.01,-1.015,0.033,-13.0061466,5.958763200000001,12.1467096,91.50712218,-5.08213746,-69.22478556000002
2.1399999999999997,214,-0.043,-0.99,0.028,-12.834259199999998,6.130650599999999,10.4278356,91.36961226,-5.19099948,-69.17321934
2.15,215,-0.081,-0.976,0.037000000000000005,-12.4904844,5.844171599999999,9.740286,91.23783192,-5.29413192,-69.11592354000001
2.1599999999999997,216,-0.116,-0.965,0.054000000000000006,-12.5477802,5.72958,10.1413566,91.10605158,-5.397264359999999,-69.06435732
2.17,217,-0.147,-0.947,0.068,-14.037471,6.1879464,11.2872726,90.9570825,-5.51185596,-69.00706152000001
2.1799999999999997,218,-0.172,-0.931,0.078,-15.4125702,7.2765666,13.2926256,90.79092468,-5.64936588,-68.93830656
2.19,219,-0.195,-0.918,0.081,-18.5065434,9.3965112,15.9282324,90.59611896,-5.815523699999999,-68.84663328
2.1999999999999997,220,-0.2,-0.8959999999999999,0.051,-20.5691922,10.5424272,18.334656,90.37839492,-6.0160589999999985,-68.75496000000001
2.21,221,-0.203,-0.8759999999999999,0.056,-20.05353,9.740286,19.938938399999998,90.16067088,-6.2165943,-68.65755714000001
2.2199999999999998,222,-0.197,-0.865,0.079,-20.168121600000006,11.229976800000001,21.1421502,89.94294684,-6.43431834,-68.54869512
2.23,223,-0.188,-0.8490000000000001,0.079,-22.173474600000002,14.667724800000002,21.3713334,89.70230448,-6.65204238,-68.40545562
2.2399999999999998,224,-0.187,-0.8370000000000001,0.08800000000000001,-24.1788276,18.9649098,20.340009,89.43301421999998,-6.858307260000001,-68.22210906000001
2.25,225,-0.181,-0.833,0.07200000000000001,-25.6685184,24.064235999999998,17.9335854,89.14653522,-7.05311298,-67.98719628
2.26,226,-0.171,-0.845,0.053,-25.0382646,28.1895336,14.9542038,88.85432664,-7.20781164,-67.70644686
2.27,227,-0.166,-0.865,0.048,-23.6631654,31.111619399999995,12.4904844,88.56784764,-7.333862399999999,-67.39704954
2.28,228,-0.16,-0.879,0.04,-22.459953600000002,33.116972399999995,11.0007936,88.2928278,-7.4427244199999985,-67.06473390000001
2.29,229,-0.156,-0.877,0.029,-22.345362,34.0337052,9.8548776,88.01780796,-7.54012728,-66.72095909999999
2.3,230,-0.15,-0.8690000000000001,0.025,-20.626488,34.262888399999994,8.5370742,87.75997686000002,-7.63180056,-66.38291388
2.31,231,-0.14,-0.861,0.03,-18.162768600000003,34.60666320000001,7.333862400000001,87.52506408,-7.70055552,-66.03913908
2.32,232,-0.132,-0.851,0.036000000000000004,-16.673077799999998,34.4920716,6.0733548,87.30734004,-7.75785132,-65.68963470000001
2.3299999999999996,233,-0.123,-0.856,0.04,-14.667724800000002,34.1482968,4.583664,87.10680474,-7.79795838,-65.35158948
2.34,234,-0.12,-0.851,0.055,-14.5531332,34.262888399999994,2.578311,86.90626943999996,-7.8151471200000024,-65.00781468
2.3499999999999996,235,-0.117,-0.847,0.078,-12.6623718,34.66395900000001,0.7448454000000001,86.7458412,-7.8151471200000024,-64.66403987999999
2.36,236,-0.118,-0.851,0.106,-10.4851314,35.9817624,-1.0313244,86.58541296,-7.792228800000001,-64.30880592
2.3699999999999997,237,-0.132,-0.871,0.071,-9.453807000000001,37.0130868,-2.6356068,86.43071429999998,-7.75785132,-63.9421128
2.38,238,-0.152,-0.882,0.033,-7.5057497999999985,37.41415739999999,-5.1566220000000005,86.29893396,-7.6948259399999985,-63.57541968
2.3899999999999997,239,-0.166,-0.884,0.07,-3.2658606,39.1330314,-7.7349330000000025,86.21299026,-7.603152659999999,-63.18580824000001
2.4,240,-0.173,-0.884,0.122,-0.4010706,42.2270046,-9.568398599999998,86.16715362,-7.500020219999999,-62.77900806
2.4099999999999997,241,-0.18,-0.867,0.135,0.9740286,45.3782736,-10.9434978,86.11558740000002,-7.37396946,-62.33210082
2.42,242,-0.196,-0.8540000000000001,0.129,3.4377480000000005,48.1857678,-12.7196676,86.08120991999998,-7.225000379999999,-61.86227526
2.4299999999999997,243,-0.205,-0.848,0.132,6.703608600000001,51.279741,-13.8082878,86.08120991999998,-7.0703017200000025,-61.35807222
2.44,244,-0.197,-0.85,0.155,11.8602306,54.14453099999999,-12.891555,86.12704656,-6.9156030600000005,-60.82522128
2.4499999999999997,245,-0.16399999999999998,-0.867,0.17600000000000002,15.126091199999998,54.8320806,-10.1413566,86.23017899999998,-6.79528188,-60.28664076
2.46,246,-0.126,-0.888,0.191,17.18874,52.8840234,-6.302537999999998,86.33904102,-6.7150677599999975,-59.76524897999999
2.4699999999999998,247,-0.062,-0.928,0.218,18.7930224,49.90464179999999,-2.4637194,86.46509178,-6.669231119999999,-59.26677552
2.48,248,-0.031,-0.987,0.259,18.048177,46.5241896,0.5156622000000001,86.58541296,-6.65777196,-58.80267954
2.4899999999999998,249,-0.015,-1.046,0.299,17.3606274,43.9458786,2.6356068,86.70573413999998,-6.669231119999999,-58.36150188000001
2.5,250,-0.024,-1.121,0.233,13.349921400000001,42.05511720000001,3.151269,86.80313699999998,-6.6806902799999985,-57.93751296000001
2.51,251,-0.052000000000000005,-1.227,0.094,8.3651868,37.757932200000006,4.2398892,86.84324405999998,-6.7093381800000005,-57.55936068
2.52,252,-0.087,-1.366,-0.06,4.297185,27.903054600000004,8.5370742,86.84897364,-6.7895523,-57.27861126000001
2.53,253,-0.087,-1.439,-0.136,3.7815227999999994,14.5531332,13.6936962,86.86616238,-6.92133264,-57.123912600000004
2.54,254,-0.031,-1.418,-0.16,5.5003968,3.4950437999999995,15.5844576,86.91772859999998,-7.0703017200000025,-57.07807596
2.55,255,0.022,-1.356,-0.241,0.3437748,-1.8334656000000005,13.0061466,86.91199902000002,-7.1906228999999975,-57.08380553999999
2.56,256,0.019,-1.206,-0.234,-1.6042823999999998,-6.0733548,8.136003599999999,86.90053986000002,-7.270837019999999,-57.14110134
2.57,257,-0.023,-1.052,-0.056,15.985528200000001,-8.479778399999999,0.572958,87.07815683999998,-7.2765666,-57.22704503999999
2.5799999999999996,258,-0.098,-1.099,0.042,23.5485738,-3.2085648,-5.9014674000000005,87.31879920000002,-7.2192707999999985,-57.25569294
2.59,259,-0.193,-1.176,0.076,17.475219,9.8548776,-10.255948199999999,87.48495702,-7.11040878,-57.16401966
2.5999999999999996,260,-0.28800000000000003,-1.275,0.16399999999999998,21.199446,23.6631654,-12.5477802,87.67403316,-6.990087599999999,-56.92910687999999
2.61,261,-0.379,-1.393,0.209,26.642547,28.934379,-12.891555,87.90894594,-6.85257768,-56.64262788
2.6199999999999997,262,-0.416,-1.432,0.203,27.215505,28.361421000000004,-12.4904844,88.14385872,-6.72652692,-56.36187846
2.63,263,-0.3670000000000001,-1.399,0.122,26.356068,25.8977016,-12.5477802,88.3787715,-6.60047616,-56.10404736
2.6399999999999997,264,-0.257,-1.3259999999999998,0.025,26.7571386,23.0902074,-13.0061466,88.62514344,-6.4686958200000015,-55.87486416
2.65,265,-0.118,-1.253,-0.051,26.5279554,20.6837838,-12.3758928,88.86005622,-6.33691548,-55.66859928
2.6599999999999997,266,0.002,-1.194,-0.13699999999999998,24.0069402,17.246035799999998,-11.917526400000002,89.08350984,-6.2165943,-55.49671188
2.67,267,0.106,-1.122,-0.21,19.8816426,12.7196676,-11.4018642,89.2668564,-6.1077322800000005,-55.36493154
2.6799999999999997,268,0.182,-1.052,-0.271,17.3606274,9.0527364,-11.516455800000001,89.43301421999998,-5.9931406800000016,-55.27325826
2.69,269,0.228,-0.968,-0.294,14.495837400000001,7.9641161999999985,-12.0894138,89.57052414,-5.872819499999999,-55.19304414
2.6999999999999997,270,0.222,-0.912,-0.313,11.745639,8.880849000000003,-12.6623718,89.60490161999998,-5.6722842,-55.07845254
2.71,271,0.14300000000000002,-0.838,-0.298,8.193299399999999,8.8235532,-12.605076,89.67938615999998,-5.54623344,-54.98677925999999
2.7199999999999998,272,0.033,-0.7859999999999999,-0.28,7.5057497999999985,8.880849000000003,-12.4904844,89.74241154,-5.42591226,-54.90083556
2.73,273,-0.077,-0.753,-0.225,7.6203414,7.2192707999999985,-11.9748222,89.81689608,-5.30559108,-54.82635102
2.7399999999999998,274,-0.166,-0.748,-0.153,6.8182002000000015,4.3544808,-11.4018642,89.87992145999998,-5.19099948,-54.78624396
2.75,275,-0.212,-0.7829999999999999,-0.113,4.5263682,2.0053530000000004,-11.516455800000001,89.89138061999998,-5.1222445200000015,-54.7747848
2.76,276,-0.221,-0.843,-0.096,0.6302538000000001,-0.4010706,-11.745639,89.8971102,-5.00765292,-54.7747848
2.77,277,-0.181,-0.914,-0.108,-3.4377480000000005,-3.724227,-11.0580894,89.8684623,-4.893061319999998,-54.81489186
2.78,278,-0.105,-0.974,-0.108,-6.3598338,-6.5317212,-9.8548776,89.8111665,-4.79565846,-54.87791724
2.79,279,-0.021,-1.011,-0.116,-8.651665800000002,-8.59437,-9.1100322,89.73095237999998,-4.703985179999999,-54.96386094
2.8,280,0.044,-1.03,-0.14300000000000002,-9.740286,-8.307891,-9.2819196,89.59344246,-4.56647526,-55.03834548
2.81,281,0.09,-1.036,-0.17,-9.568398599999998,-5.5003968,-10.4851314,89.50176918,-4.46334282,-55.08991170000001
2.82,282,0.105,-1.032,-0.181,-7.5057497999999985,-2.2345362,-12.605076,89.42728464000002,-4.33729206,-55.11855959999999
2.8299999999999996,283,0.09,-1.022,-0.16,-5.958763200000001,-1.5469866,-14.896907999999998,89.36998884,-4.1883229800000015,-55.13574834
2.84,284,0.056,-0.999,-0.117,-7.2765666,-3.6096354,-16.386598799999998,89.30123388000001,-4.02789474,-55.17012582
2.8499999999999996,285,0.015,-0.971,-0.067,-9.3392154,-7.2192707999999985,-16.329303,89.19810143999999,-3.85027776,-55.23888078
2.86,286,-0.015,-0.955,-0.041,-10.886202,-9.224623800000002,-15.527161800000002,89.09496899999998,-3.6955791,-55.33628364
2.8699999999999997,287,-0.04,-0.956,-0.018000000000000002,-10.7716104,-8.078707799999998,-15.183387000000002,88.98610698,-3.54088044,-55.42222733999999
2.88,288,-0.064,-0.968,-0.018000000000000002,-10.313244,-4.8128472,-15.6417534,88.88870412,-3.38618178,-55.47379356
2.8899999999999997,289,-0.077,-0.97,-0.026,-10.8289062,-2.291832,-15.985528200000001,88.7798421,-3.2314831199999987,-55.49671188
2.9,290,-0.076,-0.964,-0.01,-11.917526400000002,-1.8907613999999997,-15.469866,88.65952092,-3.0825140400000004,-55.52535978000001
2.9099999999999997,291,-0.054000000000000006,-0.953,-0.008,-14.152062599999999,-3.6096354,-13.980175199999998,88.51628142,-2.94500412,-55.56546684
2.92,292,-0.018000000000000002,-0.941,-0.013,-16.042824000000003,-5.2712136,-12.3758928,88.35585318,-2.81895336,-55.62276264
2.9299999999999997,293,0.022,-0.934,-0.005,-16.4438946,-6.760904399999999,-10.5424272,88.19542494,-2.71582092,-55.69151760000001
2.94,294,0.051,-0.928,0.013,-15.3552744,-8.651665800000002,-8.9954406,88.04072628,-2.62987722,-55.78319088000001
2.9499999999999997,295,0.063,-0.927,0.016,-13.349921400000001,-11.516455800000001,-7.8495246,87.92040510000002,-2.52674478,-55.892052899999996
2.96,296,0.058,-0.931,0.027000000000000003,-11.9748222,-14.266654199999998,-7.0473834,87.8058135,-2.45798982,-56.04102198
2.9699999999999998,297,0.053,-0.931,0.038,-11.2872726,-17.4179232,-6.9327918,87.70268106,-2.39496444,-56.21290938
2.98,298,0.05,-0.93,0.042,-10.4278356,-20.454600600000006,-7.3911582,87.6052782,-2.32620948,-56.42490384
2.9899999999999998,299,0.05,-0.934,0.049,-9.6256944,-24.064235999999998,-7.7922288,87.5193345,-2.25172494,-56.66554620000001
3.0,300,0.052000000000000005,-0.939,0.058,-10.5424272,-28.8770832,-8.078707799999998,87.43912037999998,-2.16005166,-56.9520252
3.01,301,0.052000000000000005,-0.939,0.087,-12.1467096,-34.091001,-8.193299399999999,87.33598794000002,-2.08556712,-57.2958
3.02,302,0.054000000000000006,-0.937,0.112,-14.495837400000001,-39.7632852,-8.479778399999999,87.20993718,-2.01108258,-57.69114102000001
3.03,303,0.062,-0.934,0.11,-17.7044022,-43.8885828,-9.0527364,87.04950894,-1.93086846,-58.13231868
3.04,304,0.066,-0.941,0.079,-20.9702628,-46.753372799999994,-9.6829902,86.85470322,-1.85065434,-58.60214424
3.05,305,0.059,-0.954,0.024,-24.5226024,-50.420304,-10.0840608,86.63124959999998,-1.75325148,-59.10634728
3.06,306,0.046,-0.957,-0.026,-26.41336380000001,-54.20182679999999,-10.1413566,86.38487766,-1.67303736,-59.65065738
3.07,307,0.031,-0.941,-0.02,-26.0122932,-56.2071798,-10.4851314,86.1442353,-1.59282324,-60.2178858
3.08,308,0.027000000000000003,-0.92,-0.011,-26.642547,-57.4103916,-10.886202,85.89786336,-1.51260912,-60.79084379999999
3.09,309,0.02,-0.91,0.017,-28.4187168,-61.4210976,-10.4851314,85.63430267999998,-1.43812458,-61.40963844
3.0999999999999996,310,0.023,-0.914,0.039,-28.361421000000004,-63.942112800000004,-9.6829902,85.37647158,-1.36936962,-62.0513514
3.11,311,0.032,-0.923,0.06,-28.304125199999998,-62.5097178,-8.880849000000003,85.1129109,-1.3178034,-62.6816052
3.1199999999999997,312,0.029,-0.922,0.058,-29.621928600000004,-60.9627312,-7.5057497999999985,84.83216148,-1.28342592,-63.28894068
3.13,313,0.017,-0.931,0.042,-30.9970278,-59.186561399999995,-5.844171599999999,84.5399529,-1.26623718,-63.88481700000001
3.1399999999999997,314,0.025,-0.953,0.001,-32.085648000000006,-57.1812084,-3.4377480000000005,84.23628516,-1.27769634,-64.45204542
3.15,315,0.045,-0.97,-0.01,-33.5753388,-57.467687399999996,-0.057295800000000015,83.92115826,-1.31207382,-65.02500341999999
3.1599999999999997,316,0.071,-0.971,0.006,-37.9871154,-59.014674,2.9220857999999996,83.56019472,-1.39228794,-65.603691
3.17,317,0.083,-0.952,0.052000000000000005,-41.0810886,-62.22323879999999,5.3858052,83.16485370000002,-1.50687954,-66.21675606
3.1799999999999997,318,0.08900000000000001,-0.922,0.141,-38.2162986,-64.22859179999999,7.1046792000000005,82.80389016000002,-1.6386598799999998,-66.84700986
3.19,319,0.07400000000000001,-0.8909999999999999,0.213,-33.5753388,-63.4264506,7.8495246,82.48876326,-1.78189938,-67.4658045
3.1999999999999997,320,0.041,-0.906,0.198,-31.2835068,-62.5097178,7.448453999999999,82.219473,-1.9194093000000003,-68.07313998
3.21,321,0.022,-0.942,0.179,-31.627281600000003,-62.3951262,6.2452422,81.93299400000002,-2.05118964,-68.68047546
3.2199999999999998,322,0.01,-0.966,0.171,-32.2002396,-63.311859,4.9847345999999995,81.63505583999998,-2.1772404,-69.29927009999999
3.23,323,-0.014,-0.975,0.17800000000000002,-27.9603504,-65.2599162,4.2398892,81.38295432,-2.29756158,-69.93525348
3.2399999999999998,324,-0.052000000000000005,-1.017,0.168,-19.938938399999998,-67.7809314,4.010706000000001,81.21679650000002,-2.42361234,-70.59988476
3.25,325,-0.103,-1.074,0.214,-16.042824000000003,-68.9268474,2.1199446,81.12512322,-2.53820394,-71.27597519999998
3.26,326,-0.14300000000000002,-1.087,0.28300000000000003,-14.152062599999999,-66.9787902,-2.3491278,81.0162612,-2.6012293200000003,-71.94060648
3.27,327,-0.172,-1.089,0.28,-11.3445684,-61.24921020000001,-7.2765666,80.94177666,-2.6069589,-72.55367154000002
3.28,328,-0.197,-1.133,0.253,-9.6829902,-57.2958,-11.45916,80.87302170000002,-2.57258142,-73.1380887
3.29,329,-0.195,-1.194,0.223,-9.9121734,-52.6548402,-14.7250206,80.80426674,-2.49809688,-73.67666922
3.3,330,-0.17,-1.289,0.12,-10.599723,-47.3836266,-17.303331600000003,80.73551178,-2.39496444,-74.1694131
3.31,331,-0.15,-1.408,-0.09,-10.4851314,-39.4195104,-21.3713334,80.64956808000002,-2.2345362,-74.59340202
3.32,332,-0.162,-1.489,-0.238,-1.7188740000000002,-31.79916900000001,-26.356068,80.64956808000002,-2.02254174,-74.94863597999998
3.33,333,-0.185,-1.5219999999999998,-0.237,16.386598799999998,-24.9809688,-29.9084076,80.82718506,-1.75898106,-75.23511498
3.34,334,-0.21,-1.481,-0.139,17.475219,-21.3713334,-31.627281600000003,81.0162612,-1.47250206,-75.49294608
3.3499999999999996,335,-0.212,-1.364,-0.17600000000000002,6.589017,-16.7876694,-28.5333084,81.09074574,-1.22613012,-75.70494054
3.36,336,-0.16899999999999998,-1.267,-0.18,5.7868758000000025,-12.4904844,-18.7930224,81.15377112,-1.05424272,-75.85390962
3.3699999999999997,337,-0.12,-1.192,-0.239,12.318597,-11.688343199999998,-6.302537999999998,81.27982188,-1.00840608,-75.97996038
3.38,338,-0.109,-1.2009999999999998,-0.248,20.05353,-13.6364004,4.4117766,81.49181634,-1.06570188,-76.10601113999998
3.3899999999999997,339,-0.094,-1.222,-0.245,23.835052800000003,-16.7303736,11.229976800000001,81.73818828,-1.19175264,-76.24925064
3.4,340,-0.053,-1.229,-0.259,29.392745399999995,-21.7151082,13.8655836,82.03612644,-1.35218088,-76.43832678
3.4099999999999997,341,0.024,-1.1740000000000002,-0.29600000000000004,33.231564,-26.298772200000002,12.9488508,82.37990124000002,-1.50114996,-76.67896913999998
3.42,342,0.096,-1.082,-0.35,36.8411994,-30.4240698,10.026765,82.76951268,-1.6272007199999998,-76.95971856
3.4299999999999997,343,0.14400000000000002,-0.988,-0.358,40.10706,-34.2055926,7.333862400000001,83.18777202,-1.73033316,-77.28630462
3.44,344,0.17,-0.906,-0.365,40.2789474,-35.46610020000001,4.9847345999999995,83.61176094,-1.8048176999999999,-77.62434984000002
3.4499999999999997,345,0.157,-0.843,-0.371,39.820581,-33.804522,2.3491278,84.00137237999998,-1.82773602,-77.93947674
3.46,346,0.091,-0.815,-0.359,37.1849742,-29.7365202,0.11459160000000003,84.39098382,-1.85065434,-78.23168532
3.4699999999999998,347,-0.019,-0.82,-0.336,32.830493399999995,-25.0382646,-0.4583664000000001,84.73475862000002,-1.85638392,-78.47805725999999
3.48,348,-0.14,-0.851,-0.312,29.2781538,-19.2513888,-0.1718874,85.03842636,-1.8621135,-78.66140382
3.4899999999999998,349,-0.266,-0.91,-0.28300000000000003,27.8457588,-13.120738199999998,0.22918320000000006,85.33063494000002,-1.87357266,-78.78745458
3.5,350,-0.341,-0.957,-0.26,29.0489706,-5.443101,1.0313244,85.58846604,-1.95378678,-78.85047996
3.51,351,-0.3720000000000001,-0.987,-0.238,30.8251404,1.6615782,2.5210152000000003,85.89786336,-1.9767051,-78.82756164
3.52,352,-0.337,-0.983,-0.204,33.804522,9.3965112,3.9534102,86.23590858,-2.01108258,-78.73015878
3.53,353,-0.266,-0.967,-0.185,36.7839036,17.8762896,4.583664,86.60260170000002,-2.04546006,-78.54681221999998
3.54,354,-0.187,-0.956,-0.175,40.6227222,24.9809688,4.6409598,87.0036723,-2.08556712,-78.29471070000002
3.55,355,-0.126,-0.959,-0.157,42.4561878,29.5646328,5.6149884000000005,87.4047429,-2.13713334,-77.99104296
3.56,356,-0.087,-0.969,-0.13699999999999998,42.28430039999999,32.4294228,7.906820400000001,87.81727266,-2.2058883,-77.66445689999998
3.57,357,-0.058,-0.982,-0.107,41.76863820000001,33.518043,10.599723,88.22407283999998,-2.30902074,-77.3206821
3.58,358,-0.046,-0.966,-0.095,40.737313799999995,34.1482968,12.5477802,88.61941386,-2.42934192,-76.97690730000002
3.59,359,-0.048,-0.917,-0.059,40.966497,33.9764094,12.7769634,89.01475488,-2.55539268,-76.6331325
3.5999999999999996,360,-0.059,-0.8740000000000001,-0.04,40.5081306,34.5493674,11.6310474,89.40436632,-2.67571386,-76.28362812
3.61,361,-0.078,-0.836,-0.011,39.820581,35.8671708,9.6256944,89.78824818,-2.77311672,-75.92839416000002
3.6199999999999997,362,-0.093,-0.826,-0.003,39.1330314,37.757932200000006,7.0473834,90.16067088,-2.84760126,-75.55024188
3.63,363,-0.103,-0.8290000000000001,-0.003,38.0444112,38.961144,4.297185,90.52163442,-2.90489706,-75.16063044
3.6399999999999997,364,-0.11,-0.8370000000000001,-0.002,37.4714532,39.591397799999996,1.7761698,90.87686838,-2.93354496,-74.75955984
3.65,365,-0.114,-0.843,-0.001,37.3568616,40.2789474,0.11459160000000003,91.22637276,-2.9564632800000004,-74.35848924
3.6599999999999997,366,-0.115,-0.84,-0.011,37.52874900000001,40.680018,-0.4010706,91.58160672,-2.9736520200000003,-73.95168906
3.67,367,-0.119,-0.828,-0.019,37.4714532,38.1590028,0.9740286,91.93684068,-3.00229992,-73.57353678
3.6799999999999997,368,-0.132,-0.8170000000000001,-0.006999999999999999,37.1849742,34.7785506,2.8074942000000003,92.29207464,-3.04813656,-73.2240324
3.69,369,-0.14400000000000002,-0.805,0.015,36.2109456,33.1742682,4.0680017999999984,92.63584944,-3.11116194,-72.89744634
3.6999999999999997,370,-0.151,-0.7959999999999999,0.039,35.7525792,33.116972399999995,4.297185,92.97389466,-3.18564648,-72.57086028
3.71,371,-0.159,-0.7879999999999999,0.069,35.9244666,33.5753388,3.4950437999999995,93.31766946,-3.2486718599999995,-72.23281506
3.7199999999999998,372,-0.168,-0.792,0.086,35.122325399999994,34.8931422,1.7761698,93.6499851,-3.2945085,-71.88904026
3.73,373,-0.171,-0.794,0.092,33.1742682,36.4974246,-0.22918320000000006,93.95938242,-3.3231564,-71.52234714
3.7399999999999998,374,-0.162,-0.7859999999999999,0.098,31.4553942,38.67466500000001,-2.6356068,94.251591,-3.32888598,-71.13846528
3.75,375,-0.146,-0.78,0.13,31.51269000000001,41.023792799999995,-4.6409598,94.54952916,-3.33461556,-70.72593552
3.76,376,-0.129,-0.777,0.162,30.65325300000001,44.1750618,-6.3598338,94.83027858,-3.31742682,-70.28475786
3.77,377,-0.121,-0.775,0.177,28.1895336,47.6128098,-7.6776372,95.0823801,-3.2945085,-69.80347314
3.78,378,-0.117,-0.77,0.171,24.923673,51.56622,-8.59437,95.30010414,-3.2658606,-69.28781094
3.79,379,-0.108,-0.7659999999999999,0.14400000000000002,22.173474600000002,56.0352924,-9.224623800000002,95.48345069999999,-3.24294228,-68.72631209999999
3.8,380,-0.093,-0.7709999999999999,0.093,20.7410796,59.93140680000001,-9.167328,95.64960852,-3.2257535399999995,-68.1247062
3.81,381,-0.084,-0.774,0.056,21.9442914,60.8481396,-7.448453999999999,95.83295508,-3.2257535399999995,-67.51737072
3.82,382,-0.078,-0.7909999999999999,0.047,24.0069402,57.2958,-4.4117766,96.03349038,-3.26013102,-66.94441271999999
3.83,383,-0.068,-0.804,0.041,22.345362,53.628868800000006,-1.0313244,96.22256652,-3.31742682,-66.41729136000001
3.84,384,-0.077,-0.795,0.061,19.767051,50.0192334,1.6615782,96.38872434,-3.39764094,-65.92454748
3.8499999999999996,385,-0.095,-0.76,0.145,17.9335854,47.7846972,2.1772404,96.543423,-3.4950437999999995,-65.4604515
3.86,386,-0.1,-0.741,0.197,14.5531332,48.8160216,0.22918320000000006,96.6580146,-3.56379876,-64.97916677999999
3.8699999999999997,387,-0.07,-0.748,0.16899999999999998,8.078707799999998,51.279741,-1.9480572,96.70385124,-3.61536498,-64.47496373999999
3.88,388,-0.008,-0.7709999999999999,0.152,6.016058999999999,49.6754586,-3.151269,96.72676956,-3.65547204,-63.98221986
3.8899999999999997,389,0.103,-0.8290000000000001,0.161,7.7349330000000025,42.398892,-2.7501984,96.7726062,-3.68984952,-63.55823094
3.9,390,0.236,-0.925,0.138,6.875496000000001,24.5226024,0.0,96.81844284,-3.60390582,-63.28894068
3.9099999999999997,391,0.317,-1.011,0.1,7.9641161999999985,10.255948199999999,3.666931200000001,96.89292738,-3.65547204,-63.19153781999999
3.92,392,0.318,-1.028,0.109,13.8655836,-1.0886202,5.958763200000001,97.0304373,-3.70703826,-63.20872656
3.9299999999999997,393,0.205,-0.98,0.155,20.340009,-6.3598338,5.2139178,97.24243176000002,-3.74714532,-63.27748152
3.94,394,0.046,-0.921,0.151,21.829699800000004,-2.9220857999999996,3.5523396000000003,97.46588538,-3.7815227999999994,-63.30612942000001
3.9499999999999997,395,-0.079,-0.855,0.104,20.8556712,0.572958,4.010706000000001,97.67215026,-3.83308902,-63.30612942000001
3.96,396,-0.155,-0.8240000000000001,0.07400000000000001,19.308684600000007,0.6875496,5.72958,97.86695598,-3.89038482,-63.30612942000001
3.9699999999999998,397,-0.171,-0.8540000000000001,0.075,15.469866,-1.7188740000000002,7.3911582,98.02738422000002,-3.95913978,-63.32904774000001
3.98,398,-0.145,-0.936,0.124,13.5791046,-9.568398599999998,7.2192707999999985,98.17062372,-4.010706,-63.43218018
3.9899999999999998,399,-0.084,-0.994,0.114,15.4125702,-9.2819196,3.8961144,98.33678154,-4.03362432,-63.52385346
4.0,400,-0.036000000000000004,-0.991,0.032,25.7258142,-6.9327918,0.4583664000000001,98.56596474,-4.01643558,-63.58687884000001
4.01,401,-0.064,-0.969,-0.043,37.8725238,-1.3750992,-2.9220857999999996,98.9498466,-3.9820580999999997,-63.59260842
4.02,402,-0.127,-0.943,-0.063,45.6647526,12.891555,-7.6776372,99.40248342,-3.93049188,-63.44363934
4.03,403,-0.202,-0.923,-0.12,50.993262,36.8411994,-13.2353298,99.88949772,-3.8674665,-63.05975748
4.04,404,-0.316,-0.86,-0.221,52.998615,63.7702254,-17.3606274,100.37651202,-3.82162986,-62.40085577999999
4.05,405,-0.495,-0.721,-0.32299999999999995,52.0245864,84.797784,-16.8449652,100.80623052,-3.86173692,-61.54714836000001
4.06,406,-0.621,-0.534,-0.403,38.2162986,100.7833122,-9.453807000000001,101.10989826,-3.98778768,-60.55020144
4.07,407,-0.624,-0.35700000000000004,-0.4,19.8816426,106.2264132,0.0,101.22448986,-4.21697088,-59.51887703999999
4.08,408,-0.508,-0.195,-0.278,-1.8334656000000005,106.856667,8.307891,101.11562784,-4.53209778,-58.50474138000001
4.09,409,-0.302,-0.052000000000000005,-0.114,-13.750992000000002,103.8199896,12.2040054,100.88071506,-4.87587258,-57.52498320000001
4.1,410,-0.07200000000000001,0.008,0.075,-18.8503182,107.716104,10.313244,100.59996564,-5.2024586400000015,-56.499388380000006
4.109999999999999,411,0.13,-0.006999999999999999,0.279,-27.501984000000004,110.3517108,3.2658606,100.2103542,-5.466019319999999,-55.43941608
4.12,412,0.258,-0.081,0.29,-39.3049188,106.2264132,-4.4690724,99.694692,-5.63217714,-54.40236209999999
4.13,413,0.282,-0.226,0.08900000000000001,-44.7480198,98.6060718,-9.453807000000001,99.13319316,-5.72958,-53.428333499999994
4.14,414,0.229,-0.423,-0.128,-54.94667220000001,79.18279559999998,-7.161975,98.48575062,-5.80406454,-52.6548402
4.1499999999999995,415,0.285,-0.512,-0.415,-56.66554620000001,74.48454,-0.9740286,97.78101228,-5.89000824,-51.91572437999999
4.16,416,0.394,-0.462,-0.562,-39.7059894,62.738901,4.9847345999999995,97.30545714,-6.0447069,-51.31411848000001
4.17,417,0.419,-0.4270000000000001,-0.511,-28.1322378,33.518043,8.7089616,96.98460066,-6.18221682,-50.99899158
4.18,418,0.396,-0.317,-0.601,-20.8556712,8.7662574,10.3705398,96.76114704,-6.29680842,-50.93023662
4.1899999999999995,419,0.403,-0.297,-0.442,-12.6623718,-2.2345362,9.3392154,96.63509628,-6.388481700000002,-50.9646141
4.2,420,0.485,-0.28300000000000003,-0.305,-24.923673,-9.224623800000002,9.3965112,96.36007644,-6.39994086,-51.04482822000001
4.21,421,0.561,-0.209,-0.293,-19.6524594,-13.178034,6.8182002000000015,96.17672988,-6.451507079999999,-51.18806772
4.22,422,0.625,-0.32299999999999995,-0.198,29.8511118,-26.4706596,5.72958,96.5147751,-6.4686958200000015,-51.4516284
4.2299999999999995,423,0.705,-0.585,-0.476,31.79916900000001,-30.9970278,14.2093584,96.88146822,-6.560369099999999,-51.76675529999999
4.24,424,0.8059999999999999,-0.959,-0.925,11.0007936,-51.1651494,22.631841,97.0590852,-6.7093381800000005,-52.29960624
4.25,425,0.933,-1.283,-0.95,-12.3758928,-78.6671334,31.8564648,97.03616688,-6.898414319999999,-53.1132066
4.26,426,1.015,-1.754,-0.926,-18.162768600000003,-111.72681,42.1697088,97.00751898,-7.15051584,-54.27058175999999
4.27,427,0.975,-2.201,-0.735,-20.05353,-137.6818074,55.11855960000001,97.0017894,-7.4885610599999985,-55.69724718
4.28,428,0.691,-2.427,-0.04,11.8602306,-137.05155359999998,57.467687399999996,97.33410504,-7.8495246,-57.11818301999999
4.29,429,0.218,-1.591,0.777,-15.469866,-129.774987,22.86102420000001,97.3742121,-7.878172500000002,-58.43025684000001
4.3,430,0.003,-0.746,0.711,-65.7182826,-113.445684,-14.610429000000002,96.90438654,-7.5630456000000015,-59.54179536
4.31,431,-0.191,-0.244,0.5489999999999999,-42.5134836,-89.09496899999998,-19.3659804,96.59498922000002,-7.2479187,-60.40123236
4.32,432,-0.589,0.19,0.145,13.9228794,-48.414951,-15.870936600000002,96.8012541,-7.0244650800000015,-60.85959876
4.33,433,-0.8590000000000001,0.123,0.07200000000000001,67.83822719999999,-17.246035799999998,-16.902261,97.50599244,-6.82392978,-61.00283826
4.34,434,-0.88,-0.177,0.122,69.21332640000001,4.9847345999999995,-19.0222056,98.19927162,-6.640583220000001,-60.91689456
4.35,435,-0.757,-0.213,-0.019,42.34159620000001,8.479778399999999,-23.777757,98.60034222,-6.497343719999999,-60.80230296
4.36,436,-0.519,-0.184,-0.091,43.544808,-2.0053530000000004,-30.252182399999995,99.0357903,-6.19367598,-60.77365506
4.37,437,-0.322,-0.225,0.012,45.4355694,-19.8243468,-34.7212548,99.51707502,-5.80979412,-60.9054354
4.38,438,-0.001,-0.207,0.132,46.5814854,-39.247623,-31.4553942,100.02700764,-5.42591226,-61.22629188
4.39,439,0.383,-0.193,0.299,54.94667220000001,-51.5089242,-23.2620948,100.62861354,-5.08786704,-61.67892870000001
4.3999999999999995,440,0.69,-0.256,0.473,67.7236356,-62.853492599999996,-12.318597,101.40210684,-4.77274014,-62.24042754
4.41,441,0.984,-0.343,0.51,82.39136040000002,-77.40662579999999,-1.5469866,102.30738048,-4.57220484,-62.97381378
4.42,442,1.212,-0.405,0.382,90.4700682,-92.6473086,4.8128472,103.31005697999998,-4.38885828,-63.86189868
4.43,443,1.235,-0.513,0.197,104.9659056,-101.0124954,8.021412000000002,104.46170256,-4.19405256,-64.83592727999999
4.4399999999999995,444,0.988,-0.862,0.3720000000000001,123.70163219999999,-104.4502434,12.4331886,105.80242428,-4.010706,-65.84433336000001
4.45,445,0.421,-1.6569999999999998,0.524,146.3334732,-100.3249458,21.1421502,107.3723292,-3.896114400000001,-66.82982111999999
4.46,446,-0.453,-2.761,0.562,171.65821680000005,-80.90166959999998,21.6005166,109.1771469,-3.82162986,-67.62623274
4.47,447,-1.403,-3.816,1.016,194.232762,-77.0055552,0.3437748,111.19968864,-3.5351508600000003,-68.30805276
4.4799999999999995,448,-2.31,-3.999,1.652,181.1693196,-71.8489332,-9.568398599999998,113.08472046,-3.15699858,-68.8981995
4.49,449,-2.253,-3.471,1.813,112.1851764,-31.111619399999995,6.990087599999999,114.24209562,-3.0825140400000004,-69.19040808
4.5,450,-1.5490000000000002,-2.908,1.499,138.42665280000003,19.595163600000006,41.825934,115.64584272,-3.54661002,-69.17894892
4.51,451,-0.6809999999999999,-2.7430000000000003,1.481,188.0448156,60.67625219999999,71.44786260000002,117.53087454,-4.45761324,-68.93830656
4.52,452,-0.289,-2.633,1.703,199.1602008,79.81304940000003,75.4012728,119.51330922000002,-5.50612638,-68.58880218
4.53,453,-0.065,-2.778,1.548,229.6988622,86.1728832,48.7587258,121.77649332,-6.3770225400000005,-68.07886956
4.54,454,-0.154,-2.767,1.19,173.26249919999995,87.26150340000002,16.329303,123.44953068,-7.001546759999999,-67.42569744
4.55,455,-0.214,-2.214,1.104,153.09437759999997,79.29738719999997,10.7716104,124.91630316,-7.545856859999999,-66.82409154000001
4.56,456,-0.168,-1.544,0.8640000000000001,181.3985028,63.4264506,13.5791046,126.68674338,-8.03287116,-66.37145472
4.57,457,-0.046,-1.093,0.7390000000000001,196.9829604,52.597544400000004,14.0947668,128.629071,-8.47404882,-66.02767992
4.58,458,0.014,-0.7709999999999999,0.591,202.827132,43.7166954,16.042824000000003,130.64588315999998,-8.88657858,-65.76984881999999
4.59,459,-0.024,-0.632,0.5579999999999999,214.74465840000002,30.7105488,19.7097552,132.80020524000003,-9.24181254,-65.64952764
4.6,460,-0.168,-0.57,0.606,212.2236432,20.912967,22.6891368,134.94879774,-9.56266902,-65.63233890000001
4.61,461,-0.334,-0.5379999999999999,0.555,209.64533219999998,24.1215318,23.5485738,137.06874234,-9.906443820000002,-65.60942058
4.62,462,-0.399,-0.5329999999999999,0.447,207.410796,37.0130868,22.7464326,139.15430945999998,-10.3418919,-65.51201771999999
4.63,463,-0.42,-0.488,0.355,207.5826834,47.8992888,19.4232762,141.22268784,-10.84609494,-65.34013032
4.64,464,-0.397,-0.423,0.387,205.63462619999999,54.3737142,14.037471,143.25668874000004,-11.3732163,-65.09948796
4.6499999999999995,465,-0.341,-0.337,0.465,202.88442780000003,58.49901179999999,10.1413566,145.25631216,-11.92898556,-64.82446811999999
4.66,466,-0.256,-0.256,0.5329999999999999,197.8423974,59.98870260000001,11.229976800000001,147.19863977999995,-12.50194356,-64.5723666
4.67,467,-0.21600000000000005,-0.189,0.5760000000000001,198.1288764,58.78549079999999,17.8762896,149.16388572,-13.10927904,-64.4004792
4.68,468,-0.127,-0.171,0.624,210.16099440000002,56.8374336,29.67922440000001,151.28383032,-13.76245116,-64.36610171999999
4.6899999999999995,469,-0.015,-0.098,0.565,215.6040954,61.24921020000001,47.1544434,153.4954482,-14.53594446,-64.49215248
4.7,470,0.029,0.228,0.508,238.8088944,61.9940556,87.20420759999998,156.06802962,-15.47559558,-65.02500341999999
4.71,471,-0.231,0.816,0.978,470.684997,38.90384820000001,136.9942578,161.15016708000005,-16.36941006,-66.1480011
4.72,472,-0.181,0.182,1.578,482.7744108,-42.7999626,128.91555,166.43283984,-16.35222132,-67.47726365999999
4.7299999999999995,473,-0.353,0.293,1.212,195.092199,-45.3209778,92.0743506,168.70175351999995,-16.12303812,-68.47421058
4.74,474,-0.29100000000000004,0.14400000000000002,1.384,147.70857239999995,-2.1772404,50.0765292,170.34041340000005,-16.20325224,-68.97268404
4.75,475,-0.219,-0.063,0.946,146.963727,33.116972399999995,38.27359439999999,171.92750706,-16.598593259999998,-69.31072925999999
4.76,476,-0.265,0.065,1.079,154.29758940000005,25.78311,41.252976,173.60054442,-16.919449739999994,-69.68888154
4.77,477,-0.301,-0.051,1.257,144.2135286,6.990087599999999,35.7525792,175.16471976,-17.034041339999998,-70.03838592
4.78,478,-0.36,-0.157,1.3969999999999998,133.212735,-31.4553942,45.263682,176.66014014,-16.77048066,-70.50821148
4.79,479,-0.353,-0.028,1.469,122.8421952,-55.00396800000001,49.2170922,178.05815766,-16.26054804,-71.0181441
4.8,480,-0.359,0.07400000000000001,1.59,122.09734979999999,-68.6403684,49.847346,179.44471602,-15.60737592,-71.51661756
4.81,481,-0.513,0.18,1.831,120.0919968,-71.9635248,44.6334282,-179.20407366,-14.90836716,-71.94633606
4.82,482,-0.618,0.285,1.934,111.72681,-67.7236356,39.4195104,-177.97221396,-14.2380063,-72.3072996
4.83,483,-0.7170000000000001,0.301,1.948,88.80849,-68.35388940000001,32.7731976,-176.99245578,-13.56191586,-72.58231943999998
4.84,484,-0.659,0.309,1.878,63.7129296,-72.3645954,30.4240698,-176.28198786000004,-12.839988780000002,-72.8229618
4.85,485,-0.509,0.278,1.705,44.0031744,-77.80769640000003,24.2934192,-175.7835144,-12.0607659,-72.9948492
4.86,486,-0.359,0.245,1.52,37.3568616,-78.49524600000002,25.553926800000006,-175.35952548,-11.27581344,-73.16673660000002
4.87,487,-0.161,-0.302,1.371,14.4385416,-66.23394479999999,68.0674104,-175.09023522,-10.56534552,-73.77407208
4.88,488,-0.16,-0.115,1.08,4.6982556,-60.9627312,101.8719324,-174.86105202,-9.87779592,-74.73091194
4.89,489,-0.14400000000000002,-0.682,1.105,-22.86102420000001,-69.32791800000001,106.0545258,-174.91834782,-9.09284346,-75.71067012
4.8999999999999995,490,-0.35,-0.32299999999999995,1.105,-39.47680620000001,-80.1568242,82.79243100000002,-175.20482682,-8.24486562,-76.45551551999998
4.91,491,-0.38,-0.58,1.024,-62.96808420000001,-90.3554766,42.8572584,-175.78924398,-7.31094408,-76.78783116
4.92,492,-0.343,-0.201,0.765,-78.49524600000002,-89.7825186,14.495837400000001,-176.56273728,-6.411400019999999,-76.85658612
4.93,493,-0.317,0.086,0.669,-63.02538000000001,-75.00020219999998,-5.844171599999999,-177.20445024,-5.66655462,-76.74199452
4.9399999999999995,494,-0.163,0.38,0.599,-35.695283399999994,-57.52498320000001,-22.0015872,-177.58260252,-5.10505578,-76.48416342
4.95,495,0.009000000000000001,0.564,0.545,-27.2728008,-46.29500640000001,-28.934379,-177.83470404,-4.64668938,-76.16903651999998
4.96,496,0.138,0.736,0.513,-20.1108258,-35.17962120000001,-21.4286292,-178.05242808,-4.30291458,-75.93412373999998
4.97,497,0.295,0.958,0.484,-15.6990492,-27.9603504,-8.7662574,-178.21858590000005,-4.02789474,-75.8309913
4.9799999999999995,498,0.358,0.743,0.61,-14.7823164,-20.511896399999998,3.2085648,-178.3618254,-3.82162986,-75.85390962
4.99,499,0.057,0.094,0.7120000000000001,-22.7464326,-12.032117999999999,0.8594370000000001,-178.59100859999995,-3.70130868,-75.8596392
5.0,500,0.001,0.07400000000000001,0.83,-15.6417534,-13.178034,1.2605076000000002,-178.73997768,-3.5523396000000003,-75.86536878
5.01,501,-0.018000000000000002,0.077,0.965,-14.381245800000002,-14.152062599999999,0.7448454000000001,-178.88321718,-3.4091001000000003,-75.86536878
5.02,502,0.005,0.08900000000000001,1.028,-12.0894138,-15.183387000000002,-0.3437748,-179.00353836,-3.26013102,-75.85390962
5.03,503,-0.005,0.081,1.077,-9.3965112,-14.9542038,-0.9740286,-179.09521164,-3.11116194,-75.83672088
5.04,504,-0.017,-0.017,1.136,-7.8495246,-13.2926256,-1.6042823999999998,-179.17542576,-2.9793816000000004,-75.81953214
5.05,505,-0.028,-0.051,1.186,-4.0680017999999984,-11.1153852,-1.7761698,-179.23845114,-2.85333084,-75.79088424
5.06,506,-0.005,-0.017,1.218,0.0,-9.568398599999998,-1.3178034,-179.23845114,-2.76165756,-75.7736955
5.07,507,-0.041,0.056,1.231,2.6356068,-8.3651868,-1.2605076000000002,-179.20980324,-2.67571386,-75.75650676000002
5.08,508,-0.061,0.059,1.202,0.9740286,-6.5317212,-1.3750992,-179.19834408,-2.61268848,-75.73931802
5.09,509,-0.036000000000000004,0.056,1.147,-0.6875496,-4.3544808,-1.3178034,-179.20407366,-2.57258142,-75.72785886
5.1,510,-0.027000000000000003,0.048,1.087,-2.291832,-0.6875496,-1.5469866,-179.18688492,-2.53247436,-75.71067012
5.11,511,-0.037000000000000005,0.018000000000000002,1.032,-3.724227,2.0626488000000003,-1.8334656000000005,-179.2212624,-2.55539268,-75.69348138000002
5.12,512,-0.061,0.004,0.997,-5.5003968,4.1825934,-2.3491278,-179.28428778,-2.59549974,-75.67056306
5.13,513,-0.043,-0.036000000000000004,0.973,-7.1046792000000005,4.8128472,-2.4064236,-179.35304274,-2.6413363800000003,-75.64764474
5.14,514,-0.044,-0.024,0.955,-6.990087599999999,5.6149884000000005,-2.291832,-179.42752728,-2.69863218,-75.63045600000002
5.1499999999999995,515,-0.021,-0.001,0.939,-6.4744254,5.7868758000000025,-2.0626488000000003,-179.49628224,-2.7501984,-75.60753768
5.16,516,-0.051,0.043,0.928,-5.6149884000000005,7.8495246,-2.0626488000000003,-179.55357804,-2.82468294,-75.59034894
5.17,517,-0.039,0.024,0.925,-5.958763200000001,10.0840608,-2.4064236,-179.61660342,-2.92781538,-75.57316019999998
5.18,518,-0.046,0.002,0.947,-6.4744254,11.745639,-2.8074942000000003,-179.68535838,-3.04240698,-75.54451230000002
5.1899999999999995,519,-0.054000000000000006,-0.001,0.959,-6.0733548,12.7196676,-2.9793816000000004,-179.75411334,-3.16845774,-75.52159398
5.2,520,-0.046,-0.014,0.974,-5.5003968,12.605076,-2.6929026,-179.83432746,-3.27731976,-75.49294608
5.21,521,-0.049,-0.031,0.981,-4.6982556,12.3758928,-2.2345362,-179.88589368,-3.40337052,-75.47575734
5.22,522,-0.065,-0.011,0.998,-2.291832,11.917526400000002,-1.7761698,-179.90881199999995,-3.51796212,-75.45856859999998
5.2299999999999995,523,-0.058,-0.008,1.018,-0.8594370000000001,11.229976800000001,-1.7761698,-179.92027116000003,-3.63255372,-75.44710943999998
5.24,524,-0.06,0.0,1.036,0.286479,9.9121734,-1.5469866,-179.92027116000003,-3.7299565800000014,-75.43565028
5.25,525,-0.067,-0.004,1.06,1.0886202,8.479778399999999,-1.432395,-179.93173032,-3.81590028,-75.41846154
5.26,526,-0.07200000000000001,-0.017,1.072,0.7448454000000001,7.448453999999999,-1.2605076000000002,-179.92600074,-3.89038482,-75.40700238
5.27,527,-0.075,-0.034,1.0659999999999998,0.22918320000000006,7.448453999999999,-1.432395,-179.92600074,-3.9648693599999993,-75.39554322000002
5.28,528,-0.07400000000000001,-0.022,1.048,0.0,8.3651868,-1.4896908000000002,-179.92600074,-4.04508348,-75.38408405999998
5.29,529,-0.07200000000000001,-0.001,1.025,0.057295800000000015,8.136003599999999,-1.2032118,-179.92600074,-4.1252976000000015,-75.37262489999998
5.3,530,-0.075,0.005,1.006,0.0,7.2192707999999985,-1.0886202,-179.93745990000005,-4.19405256,-75.36689532
5.31,531,-0.07400000000000001,0.0,0.995,-0.5156622000000001,6.3598338,-1.0886202,-179.94318948,-4.25707794,-75.35543616
5.32,532,-0.079,0.005,0.992,-0.8021411999999999,4.583664,-0.6302538000000001,-179.95464864000004,-4.30291458,-75.34970658
5.33,533,-0.079,0.012,0.99,-1.145916,3.724227,0.0,-179.96610780000003,-4.34302164,-75.34970658
5.34,534,-0.079,0.013,0.989,-1.145916,3.2658606,0.1718874,-179.97756696,-4.37166954,-75.35543616
5.35,535,-0.079,0.014,0.986,-1.145916,3.3804522000000006,0.286479,-179.97756696,-4.41750618,-75.36116574
5.36,536,-0.08199999999999999,0.013,0.983,-1.2032118,3.5523396000000003,0.3437748,-179.98902612,-4.45188366,-75.36689532
5.37,537,-0.08199999999999999,0.01,0.983,-1.0313244,3.2085648,0.3437748,179.99475569999996,-4.48626114,-75.37262489999998
5.38,538,-0.085,0.009000000000000001,0.978,-1.0313244,2.8074942000000003,0.3437748,179.98329654,-4.51490904,-75.37835448000001
5.39,539,-0.084,0.008,0.985,-1.0886202,2.1772404,0.3437748,179.97183738,-4.53782736,-75.37835448000001
5.3999999999999995,540,-0.08199999999999999,0.011,0.991,-1.145916,1.145916,0.3437748,179.97756696,-4.5550161000000005,-75.38981364
5.41,541,-0.08199999999999999,0.01,0.994,-0.9740286,0.22918320000000006,0.4010706,179.97183738,-4.56074568,-75.39554322000002
5.42,542,-0.081,0.012,1.003,-0.9167328,-0.5156622000000001,0.4010706,179.96037822,-4.5550161000000005,-75.39554322000002
5.43,543,-0.08,0.018000000000000002,1.015,-0.8594370000000001,-1.3178034,0.4583664000000001,179.95464864000004,-4.53782736,-75.4012728
5.4399999999999995,544,-0.083,0.005,1.025,-1.145916,-1.7761698,0.3437748,179.94318948,-4.5206386200000015,-75.40700238
5.45,545,-0.079,0.006,1.03,-1.432395,-2.4637194,0.286479,179.92600074,-4.49199072,-75.40700238
5.46,546,-0.079,0.005,1.038,-1.6042823999999998,-3.3231564,0.3437748,179.90881199999995,-4.45761324,-75.41273196
5.47,547,-0.081,0.008,1.041,-1.6615782,-3.724227,0.286479,179.89162326,-4.41750618,-75.41273196
5.4799999999999995,548,-0.077,0.01,1.037,-1.432395,-3.666931200000001,0.3437748,179.88016409999997,-4.3831287,-75.41273196
5.49,549,-0.07400000000000001,0.009000000000000001,1.03,-0.7448454000000001,-3.724227,0.22918320000000006,179.87443452,-4.34875122,-75.41846154
5.5,550,-0.073,0.01,1.024,-0.11459160000000003,-4.010706000000001,0.22918320000000006,179.88589368,-4.297185000000002,-75.41846154
5.51,551,-0.071,0.01,1.019,0.22918320000000006,-4.1825934,0.11459160000000003,179.89162326,-4.25707794,-75.41846154
5.52,552,-0.071,0.012,1.016,0.3437748,-4.3544808,0.11459160000000003,179.89735284,-4.21697088,-75.41846154
5.53,553,-0.069,0.01,1.011,0.11459160000000003,-4.4690724,0.057295800000000015,179.89735284,-4.17113424,-75.41846154
5.54,554,-0.069,0.006999999999999999,1.01,-0.057295800000000015,-4.5263682,0.057295800000000015,179.89735284,-4.1252976000000015,-75.41846154
5.55,555,-0.069,0.006,1.012,-0.11459160000000003,-4.1825934,0.0,179.89735284,-4.07373138,-75.41846154
5.56,556,-0.067,0.006,1.009,-0.22918320000000006,-3.8388186,0.0,179.89162326,-4.0393539,-75.41273196
5.57,557,-0.067,0.006,1.009,-0.286479,-3.5523396000000003,-0.057295800000000015,179.89162326,-3.99924684,-75.41273196
5.58,558,-0.064,0.004,1.009,-0.4583664000000001,-3.2658606,-0.057295800000000015,179.88589368,-3.97059894,-75.41273196
5.59,559,-0.063,0.003,1.005,-0.6302538000000001,-2.9793816000000004,-0.11459160000000003,179.88016409999997,-3.94195104,-75.40700238
5.6,560,-0.061,0.002,1.005,-0.8594370000000001,-2.9793816000000004,-0.11459160000000003,179.86870494,-3.896114400000001,-75.40700238
5.61,561,-0.062,0.0,1.008,-1.0313244,-3.0366774,-0.1718874,179.85724578,-3.86173692,-75.4012728
5.62,562,-0.062,0.0,1.015,-0.8594370000000001,-2.7501984,-0.11459160000000003,179.84578661999996,-3.83308902,-75.4012728
5.63,563,-0.061,-0.001,1.025,-0.9167328,-2.0053530000000004,-0.11459160000000003,179.84005704,-3.81590028,-75.39554322000002
5.64,564,-0.061,-0.001,1.03,-0.8594370000000001,-1.4896908000000002,-0.11459160000000003,179.82859788,-3.79871154,-75.39554322000002
5.6499999999999995,565,-0.06,-0.001,1.028,-0.6875496,-1.3178034,-0.057295800000000015,179.7942204,-3.75860448,-75.38408405999998
5.66,566,-0.061,0.0,1.02,-0.4010706,-1.145916,-0.057295800000000015,179.78849082000005,-3.74714532,-75.38408405999998
5.67,567,-0.061,-0.001,1.014,-0.1718874,-0.4583664000000001,-0.057295800000000015,179.78849082000005,-3.74141574,-75.38408405999998
5.68,568,-0.06,0.0,1.018,0.0,0.0,-0.057295800000000015,179.78849082000005,-3.74141574,-75.38408405999998
5.6899999999999995,569,-0.06,0.0,1.024,-0.11459160000000003,0.11459160000000003,-0.057295800000000015,179.78849082000005,-3.74141574,-75.38408405999998
5.7,570,-0.061,0.0,1.026,-0.3437748,0.11459160000000003,-0.057295800000000015,179.74838376,-3.64974246,-75.36116574
5.71,571,-0.061,0.001,1.021,-0.22918320000000006,0.11459160000000003,-0.057295800000000015,179.74838376,-3.64974246,-75.36116574
5.72,572,-0.061,0.001,1.015,-0.572958,0.6302538000000001,-0.057295800000000015,179.74265418,-3.65547204,-75.36116574
5.7299999999999995,573,-0.061,0.0,1.008,-0.8594370000000001,1.2032118,-0.057295800000000015,179.73119502,-3.6669312000000005,-75.36116574
5.74,574,-0.061,0.001,1.006,-0.7448454000000001,1.6042823999999998,0.0,179.71973586,-3.68411994,-75.36116574
5.75,575,-0.063,0.002,1.007,-0.5156622000000001,1.6615782,0.0,179.71973586,-3.6955791,-75.36116574
5.76,576,-0.063,0.004,1.007,-0.4010706,1.7761698,0.0,179.71400627999995,-3.71276784,-75.36116574
5.77,577,-0.064,0.003,1.011,-0.5156622000000001,1.7761698,0.0,179.7082767,-3.7299565800000014,-75.36116574
5.78,578,-0.065,0.004,1.014,-0.5156622000000001,1.7188740000000002,0.0,179.70254712000005,-3.74714532,-75.36116574
5.79,579,-0.065,0.004,1.016,-0.4010706,1.7188740000000002,0.0,179.69681754,-3.76433406,-75.36116574
5.8,580,-0.065,0.004,1.018,-0.3437748,1.7761698,0.0,179.70254712000005,-3.77579322,-75.36116574
5.81,581,-0.066,0.003,1.017,-0.4010706,1.8334656000000005,-0.057295800000000015,179.69681754,-3.79298196,-75.36116574
5.82,582,-0.067,0.004,1.016,-0.286479,1.8334656000000005,-0.057295800000000015,179.69108795999998,-3.81590028,-75.36116574
5.83,583,-0.068,0.003,1.016,-0.11459160000000003,1.7188740000000002,-0.057295800000000015,179.69108795999998,-3.83308902,-75.36116574
5.84,584,-0.068,0.005,1.019,0.0,1.4896908000000002,-0.057295800000000015,179.69108795999998,-3.84454818,-75.36116574
5.85,585,-0.07,0.003,1.021,0.0,1.145916,-0.057295800000000015,179.71400627999995,-3.8674665,-75.36689532
5.86,586,-0.069,0.005,1.023,0.0,1.0313244,0.0,179.71400627999995,-3.8731960800000014,-75.36689532
5.87,587,-0.069,0.005,1.02,0.0,0.7448454000000001,0.0,179.71400627999995,-3.88465524,-75.36689532
5.88,588,-0.069,0.003,1.014,0.11459160000000003,0.572958,0.0,179.71400627999995,-3.89038482,-75.36689532
5.89,589,-0.069,0.002,1.013,0.22918320000000006,0.572958,0.0,179.71973586,-3.896114400000001,-75.36689532
5.8999999999999995,590,-0.07,0.003,1.01,0.0,0.6302538000000001,-0.057295800000000015,179.72546544,-3.896114400000001,-75.36116574
5.91,591,-0.071,0.003,1.009,-0.057295800000000015,0.4010706,0.0,179.72546544,-3.90184398,-75.36116574
5.92,592,-0.07,0.002,1.009,-0.1718874,0.1718874,-0.057295800000000015,179.72546544,-3.90184398,-75.36116574
5.93,593,-0.07,0.002,1.012,-0.1718874,0.0,0.0,179.71973586,-3.90184398,-75.36116574
5.9399999999999995,594,-0.07,0.001,1.014,-0.3437748,-0.22918320000000006,0.0,179.71973586,-3.90184398,-75.36116574
5.95,595,-0.07,0.001,1.017,-0.3437748,-0.3437748,0.0,179.7082767,-3.90757356,-75.36116574
5.96,596,-0.069,0.001,1.017,-0.286479,-0.5156622000000001,0.0,179.70254712000005,-3.90184398,-75.36116574
5.97,597,-0.068,0.0,1.018,-0.286479,-0.572958,0.0,179.70254712000005,-3.896114400000001,-75.36116574
5.9799999999999995,598,-0.069,0.0,1.016,-0.22918320000000006,-0.6302538000000001,0.0,179.69681754,-3.88465524,-75.36116574
5.99,599,-0.068,0.0,1.015,-0.3437748,-0.7448454000000001,0.0,179.69108795999998,-3.87892566,-75.36116574
6.0,600,-0.068,0.0,1.015,-0.1718874,-0.9167328,0.0,179.67962880000005,-3.8674665,-75.36116574
6.01,601,-0.067,0.0,1.015,-0.1718874,-0.9167328,0.0,179.67389922,-3.85600734,-75.36116574
6.02,602,-0.067,0.0,1.015,-0.11459160000000003,-1.0313244,0.0,179.67389922,-3.85027776,-75.36116574
6.03,603,-0.066,0.0,1.015,-0.057295800000000015,-1.2032118,0.057295800000000015,179.67389922,-3.8388186000000006,-75.36116574
6.04,604,-0.065,0.0,1.017,-0.057295800000000015,-1.2032118,0.057295800000000015,179.67389922,-3.82162986,-75.36116574
6.05,605,-0.064,0.001,1.015,-0.11459160000000003,-1.145916,0.0,179.67962880000005,-3.79871154,-75.36116574
6.06,606,-0.063,0.001,1.012,-0.22918320000000006,-0.9167328,0.057295800000000015,179.67389922,-3.78725238,-75.36116574
6.07,607,-0.064,0.002,1.009,-0.286479,-0.8021411999999999,0.11459160000000003,179.67389922,-3.7815227999999994,-75.36116574
6.08,608,-0.064,0.002,1.01,-0.1718874,-0.6875496,0.0,179.67389922,-3.77579322,-75.36116574
6.09,609,-0.064,0.001,1.011,-0.1718874,-0.5156622000000001,0.057295800000000015,179.66816964,-3.77006364,-75.36116574
6.1,610,-0.065,0.003,1.015,-0.3437748,-0.3437748,0.11459160000000003,179.69108795999998,-3.74141574,-75.36116574
6.11,611,-0.064,0.003,1.018,-0.572958,-0.1718874,0.057295800000000015,179.68535838,-3.73568616,-75.36116574
6.12,612,-0.063,0.002,1.017,-0.6302538000000001,-0.4010706,0.0,179.67389922,-3.73568616,-75.36116574
6.13,613,-0.064,0.001,1.016,-0.5156622000000001,-0.3437748,0.057295800000000015,179.67389922,-3.7299565800000014,-75.36689532
6.14,614,-0.063,0.001,1.014,-0.1718874,-0.057295800000000015,0.0,179.66816964,-3.7299565800000014,-75.36689532
6.15,615,-0.063,0.002,1.019,-0.057295800000000015,0.286479,0.0,179.67962880000005,-3.68984952,-75.36116574
6.16,616,-0.062,0.002,1.022,-0.22918320000000006,0.3437748,-0.057295800000000015,179.67962880000005,-3.6955791,-75.36116574
6.17,617,-0.064,0.001,1.019,-0.22918320000000006,0.057295800000000015,0.0,179.67389922,-3.6955791,-75.36116574
6.18,618,-0.064,0.002,1.017,0.0,-0.22918320000000006,0.0,179.67389922,-3.6955791,-75.36116574
6.1899999999999995,619,-0.065,0.0,1.017,-0.057295800000000015,-0.1718874,0.057295800000000015,179.67389922,-3.68984952,-75.36116574
6.2,620,-0.064,0.0,1.016,-0.286479,0.1718874,0.0,179.67389922,-3.6669312000000005,-75.35543616
6.21,621,-0.063,0.0,1.016,-0.1718874,0.5156622000000001,0.0,179.67389922,-3.6669312000000005,-75.35543616
6.22,622,-0.063,0.002,1.014,0.0,0.5156622000000001,0.0,179.67389922,-3.67266078,-75.35543616
6.2299999999999995,623,-0.065,0.003,1.011,0.0,0.572958,0.0,179.67389922,-3.67839036,-75.35543616
6.24,624,-0.065,0.002,1.01,0.0,0.4583664000000001,0.0,179.67389922,-3.68411994,-75.35543616
6.25,625,-0.067,0.001,1.013,0.0,0.5156622000000001,0.0,179.66816964,-3.68984952,-75.35543616
6.26,626,-0.066,0.001,1.013,-0.057295800000000015,0.572958,-0.057295800000000015,179.66816964,-3.6955791,-75.35543616
6.27,627,-0.066,0.001,1.014,-0.057295800000000015,0.5156622000000001,0.0,179.66816964,-3.70130868,-75.35543616
6.28,628,-0.067,0.001,1.016,-0.22918320000000006,0.4583664000000001,0.0,179.66244006,-3.70703826,-75.35543616
6.29,629,-0.066,0.002,1.018,-0.22918320000000006,0.4583664000000001,-0.057295800000000015,179.66244006,-3.70703826,-75.35543616
6.3,630,-0.066,0.0,1.018,-0.1718874,0.3437748,0.0,179.66244006,-3.6955791,-75.34970658
6.31,631,-0.067,0.001,1.018,-0.11459160000000003,0.4010706,0.0,179.65671048000004,-3.70130868,-75.34970658
6.32,632,-0.066,0.0,1.017,-0.057295800000000015,0.3437748,-0.057295800000000015,179.65671048000004,-3.70130868,-75.34970658
6.33,633,-0.066,0.001,1.016,-0.11459160000000003,0.11459160000000003,-0.057295800000000015,179.65671048000004,-3.70703826,-75.34970658
6.34,634,-0.066,0.0,1.015,-0.11459160000000003,0.057295800000000015,-0.057295800000000015,179.65671048000004,-3.70703826,-75.34970658
6.35,635,-0.066,0.001,1.015,-0.1718874,0.0,0.0,179.66244006,-3.68984952,-75.34970658
6.36,636,-0.066,0.0,1.011,-0.11459160000000003,0.0,0.0,179.66244006,-3.68984952,-75.34970658
6.37,637,-0.067,0.001,1.014,-0.057295800000000015,0.0,0.0,179.66244006,-3.68984952,-75.34970658
6.38,638,-0.066,0.0,1.014,-0.22918320000000006,-0.11459160000000003,0.0,179.65671048000004,-3.68984952,-75.34970658
6.39,639,-0.066,0.001,1.016,-0.22918320000000006,-0.22918320000000006,-0.057295800000000015,179.65671048000004,-3.68411994,-75.34397700000002
6.4,640,-0.066,0.001,1.014,-0.22918320000000006,-0.286479,0.0,179.66244006,-3.68411994,-75.34970658
6.41,641,-0.064,0.0,1.015,-0.22918320000000006,-0.3437748,0.0,179.65671048000004,-3.68411994,-75.34970658
6.42,642,-0.064,0.0,1.018,-0.1718874,-0.22918320000000006,0.0,179.65671048000004,-3.67839036,-75.34970658
6.43,643,-0.065,0.0,1.02,-0.11459160000000003,-0.22918320000000006,0.0,179.65671048000004,-3.67839036,-75.34970658
6.4399999999999995,644,-0.065,0.001,1.019,-0.22918320000000006,-0.22918320000000006,-0.057295800000000015,179.6509809,-3.67266078,-75.34970658
6.45,645,-0.065,0.0,1.016,-0.22918320000000006,-0.22918320000000006,-0.057295800000000015,179.6509809,-3.67266078,-75.34397700000002
6.46,646,-0.064,0.001,1.014,-0.286479,-0.1718874,0.0,179.6509809,-3.67266078,-75.34397700000002
6.47,647,-0.064,0.0,1.013,-0.286479,0.0,0.0,179.64525132,-3.6669312000000005,-75.34397700000002
6.4799999999999995,648,-0.064,0.0,1.013,-0.11459160000000003,-0.057295800000000015,0.0,179.64525132,-3.6669312000000005,-75.34397700000002
6.49,649,-0.064,0.001,1.013,-0.1718874,-0.11459160000000003,0.0,179.63952174000005,-3.6669312000000005,-75.34397700000002
6.5,650,-0.065,0.0,1.013,-0.11459160000000003,-0.1718874,0.0,179.6509809,-3.66120162,-75.34397700000002
6.51,651,-0.064,0.001,1.014,-0.11459160000000003,-0.1718874,0.0,179.6509809,-3.66120162,-75.34970658
6.52,652,-0.064,0.001,1.013,-0.057295800000000015,-0.057295800000000015,0.0,179.6509809,-3.65547204,-75.34970658
6.53,653,-0.063,0.001,1.014,0.0,-0.057295800000000015,-0.057295800000000015,179.6509809,-3.65547204,-75.34397700000002
6.54,654,-0.064,0.001,1.013,0.0,-0.11459160000000003,0.0,179.6509809,-3.65547204,-75.34397700000002
6.55,655,-0.064,0.0,1.016,0.1718874,-0.1718874,0.0,179.6509809,-3.6382833,-75.34397700000002
6.56,656,-0.064,0.0,1.016,0.1718874,-0.11459160000000003,0.0,179.6509809,-3.6382833,-75.34397700000002
6.57,657,-0.064,0.0,1.016,0.4010706,-0.22918320000000006,0.057295800000000015,179.65671048000004,-3.6382833,-75.34397700000002
6.58,658,-0.063,0.0,1.016,0.3437748,-0.286479,0.0,179.66244006,-3.63255372,-75.34397700000002
6.59,659,-0.064,0.0,1.017,0.22918320000000006,0.0,0.0,179.66244006,-3.63255372,-75.34397700000002
6.6,660,-0.064,0.001,1.018,0.0,0.057295800000000015,0.0,179.66816964,-3.62682414,-75.34397700000002
6.61,661,-0.064,0.0,1.017,0.0,-0.22918320000000006,0.0,179.66816964,-3.62109456,-75.34397700000002
6.62,662,-0.065,0.0,1.013,0.0,-0.3437748,0.0,179.66816964,-3.62109456,-75.34397700000002
6.63,663,-0.063,0.0,1.009,0.0,-0.11459160000000003,0.057295800000000015,179.66816964,-3.61536498,-75.34397700000002
6.64,664,-0.064,0.001,1.013,-0.057295800000000015,0.1718874,0.0,179.66816964,-3.62109456,-75.34397700000002
6.65,665,-0.064,0.001,1.02,-0.22918320000000006,0.1718874,0.0,179.66244006,-3.61536498,-75.34397700000002
6.66,666,-0.064,0.0,1.018,-0.286479,0.0,0.0,179.65671048000004,-3.61536498,-75.34397700000002
6.67,667,-0.065,0.0,1.017,0.0,-0.4010706,0.057295800000000015,179.65671048000004,-3.61536498,-75.34397700000002
6.68,668,-0.065,-0.001,1.019,-0.057295800000000015,-0.4583664000000001,0.057295800000000015,179.65671048000004,-3.6096353999999997,-75.34397700000002
6.6899999999999995,669,-0.064,0.0,1.018,-0.11459160000000003,-0.1718874,0.0,179.65671048000004,-3.60390582,-75.34397700000002
6.7,670,-0.063,0.0,1.017,0.11459160000000003,0.1718874,0.0,179.6509809,-3.60390582,-75.34397700000002
6.71,671,-0.063,0.0,1.014,0.3437748,0.22918320000000006,0.057295800000000015,179.65671048000004,-3.6096353999999997,-75.34397700000002
6.72,672,-0.065,0.0,1.013,0.286479,0.22918320000000006,0.0,179.66244006,-3.6096353999999997,-75.34397700000002
6.7299999999999995,673,-0.065,0.0,1.014,0.286479,0.3437748,0.0,179.66244006,-3.61536498,-75.34397700000002
6.74,674,-0.065,0.0,1.012,0.22918320000000006,0.3437748,0.0,179.66816964,-3.61536498,-75.34397700000002
6.75,675,-0.063,0.0,1.011,0.11459160000000003,0.3437748,0.0,179.66244006,-3.61536498,-75.34397700000002
6.76,676,-0.064,0.0,1.013,0.0,0.3437748,0.0,179.66244006,-3.62109456,-75.34397700000002
6.77,677,-0.065,0.0,1.016,0.0,0.22918320000000006,0.0,179.66244006,-3.62109456,-75.34397700000002
6.78,678,-0.064,0.0,1.017,-0.057295800000000015,0.3437748,0.0,179.66244006,-3.62682414,-75.34397700000002
6.79,679,-0.064,0.0,1.015,-0.11459160000000003,0.22918320000000006,0.0,179.66244006,-3.62682414,-75.34397700000002
6.8,680,-0.064,0.001,1.015,-0.057295800000000015,0.22918320000000006,0.0,179.65671048000004,-3.62682414,-75.34397700000002
6.81,681,-0.064,0.0,1.015,0.0,0.11459160000000003,0.0,179.65671048000004,-3.63255372,-75.34397700000002
6.82,682,-0.064,0.0,1.017,0.11459160000000003,0.0,0.0,179.65671048000004,-3.63255372,-75.34397700000002
6.83,683,-0.063,0.001,1.017,0.22918320000000006,-0.11459160000000003,0.0,179.65671048000004,-3.62682414,-75.34397700000002
6.84,684,-0.064,0.0,1.017,0.057295800000000015,-0.11459160000000003,0.0,179.65671048000004,-3.62682414,-75.34397700000002
6.85,685,-0.063,0.0,1.014,0.11459160000000003,0.0,0.0,179.63952174000005,-3.6096353999999997,-75.33824741999999
6.86,686,-0.063,0.0,1.013,0.11459160000000003,0.0,-0.057295800000000015,179.63952174000005,-3.6096353999999997,-75.33824741999999
6.87,687,-0.064,0.0,1.016,0.11459160000000003,0.057295800000000015,0.0,179.63952174000005,-3.6096353999999997,-75.33824741999999
6.88,688,-0.064,0.0,1.014,0.0,0.0,0.0,179.64525132,-3.6096353999999997,-75.33824741999999
6.89,689,-0.063,0.0,1.012,0.0,0.0,0.0,179.64525132,-3.6096353999999997,-75.33824741999999
6.9,690,-0.064,0.0,1.013,0.0,-0.11459160000000003,0.0,179.63379216,-3.59817624,-75.33824741999999
6.91,691,-0.064,0.0,1.016,0.0,-0.1718874,0.0,179.63379216,-3.59817624,-75.33824741999999
6.92,692,-0.064,0.0,1.018,0.0,-0.11459160000000003,0.0,179.63379216,-3.59817624,-75.33824741999999
6.93,693,-0.064,0.0,1.018,-0.057295800000000015,-0.11459160000000003,0.0,179.63379216,-3.59244666,-75.33824741999999
6.9399999999999995,694,-0.063,0.0,1.018,0.0,-0.11459160000000003,0.0,179.63379216,-3.59244666,-75.33824741999999
6.95,695,-0.064,0.0,1.018,0.0,0.0,0.0,179.63379216,-3.59244666,-75.33824741999999
6.96,696,-0.063,0.0,1.015,0.0,0.057295800000000015,0.057295800000000015,179.63379216,-3.59817624,-75.33824741999999
6.97,697,-0.064,0.0,1.012,0.0,0.1718874,0.057295800000000015,179.63379216,-3.59817624,-75.33824741999999
6.9799999999999995,698,-0.064,0.0,1.013,0.0,0.1718874,0.0,179.63379216,-3.59817624,-75.33824741999999
6.99,699,-0.064,0.0,1.014,0.057295800000000015,0.057295800000000015,0.0,179.63379216,-3.60390582,-75.33824741999999
7.0,700,-0.064,0.0,1.017,0.057295800000000015,0.0,0.0,179.64525132,-3.60390582,-75.34397700000002
7.01,701,-0.063,0.0,1.019,0.0,0.057295800000000015,0.057295800000000015,179.64525132,-3.60390582,-75.34397700000002
7.02,702,-0.063,0.0,1.016,0.0,0.057295800000000015,0.0,179.64525132,-3.60390582,-75.34397700000002
7.03,703,-0.064,0.0,1.016,0.0,0.0,0.0,179.64525132,-3.60390582,-75.34397700000002
7.04,704,-0.063,0.0,1.015,0.0,0.1718874,0.0,179.64525132,-3.60390582,-75.34397700000002
7.05,705,-0.064,0.0,1.014,0.0,0.3437748,0.0,179.64525132,-3.6096353999999997,-75.34397700000002
7.06,706,-0.063,0.0,1.013,0.0,0.3437748,0.0,179.64525132,-3.6096353999999997,-75.34397700000002
7.07,707,-0.064,0.001,1.014,0.057295800000000015,0.22918320000000006,0.0,179.64525132,-3.61536498,-75.34397700000002
7.08,708,-0.063,0.0,1.015,0.057295800000000015,0.22918320000000006,0.0,179.64525132,-3.61536498,-75.34397700000002
7.09,709,-0.063,0.0,1.014,0.11459160000000003,0.11459160000000003,0.0,179.6509809,-3.61536498,-75.34397700000002
7.1,710,-0.064,0.0,1.016,0.1718874,0.057295800000000015,0.0,179.6509809,-3.62109456,-75.34397700000002
7.11,711,-0.064,0.0,1.018,0.0,0.1718874,0.0,179.6509809,-3.62109456,-75.34397700000002
7.12,712,-0.063,0.0,1.018,-0.057295800000000015,0.1718874,0.0,179.6509809,-3.62109456,-75.34397700000002
7.13,713,-0.065,0.0,1.017,-0.11459160000000003,-0.057295800000000015,0.0,179.6509809,-3.62109456,-75.34397700000002
7.14,714,-0.064,0.0,1.013,-0.057295800000000015,-0.286479,-0.057295800000000015,179.64525132,-3.62109456,-75.34397700000002
7.15,715,-0.064,0.001,1.011,0.057295800000000015,-0.11459160000000003,-0.057295800000000015,179.64525132,-3.60390582,-75.33824741999999
7.16,716,-0.063,0.0,1.017,0.0,0.057295800000000015,-0.057295800000000015,179.64525132,-3.60390582,-75.33824741999999
7.17,717,-0.063,0.0,1.018,-0.3437748,0.1718874,-0.057295800000000015,179.64525132,-3.6096353999999997,-75.33824741999999
7.18,718,-0.064,0.0,1.014,-0.1718874,0.0,0.0,179.63952174000005,-3.6096353999999997,-75.33824741999999
7.1899999999999995,719,-0.065,0.0,1.015,0.057295800000000015,-0.4010706,0.0,179.63952174000005,-3.60390582,-75.33824741999999
7.2,720,-0.065,-0.001,1.02,0.0,-0.572958,0.0,179.63379216,-3.59817624,-75.33824741999999
7.21,721,-0.063,-0.001,1.018,-0.1718874,-0.1718874,0.0,179.63379216,-3.59817624,-75.33824741999999
7.22,722,-0.062,0.0,1.017,0.0,0.0,0.0,179.63379216,-3.59817624,-75.33824741999999
7.2299999999999995,723,-0.063,0.0,1.015,0.1718874,0.057295800000000015,-0.057295800000000015,179.63952174000005,-3.59817624,-75.33824741999999
7.24,724,-0.064,0.0,1.011,0.11459160000000003,0.11459160000000003,0.0,179.63952174000005,-3.59817624,-75.33824741999999
7.25,725,-0.065,0.001,1.012,0.0,0.11459160000000003,0.0,179.64525132,-3.6096353999999997,-75.33824741999999
7.26,726,-0.065,0.0,1.012,0.057295800000000015,0.057295800000000015,0.0,179.64525132,-3.6096353999999997,-75.33824741999999
7.27,727,-0.064,0.0,1.013,0.0,0.0,0.0,179.64525132,-3.6096353999999997,-75.33824741999999
7.28,728,-0.063,0.0,1.013,-0.11459160000000003,0.0,0.0,179.64525132,-3.6096353999999997,-75.33824741999999
7.29,729,-0.064,0.0,1.015,0.0,-0.057295800000000015,0.0,179.64525132,-3.6096353999999997,-75.33824741999999
7.3,730,-0.063,0.0,1.017,-0.057295800000000015,-0.11459160000000003,0.0,179.62806258,-3.59244666,-75.33824741999999
7.31,731,-0.062,-0.001,1.017,0.0,-0.11459160000000003,0.0,179.62806258,-3.59244666,-75.33824741999999
7.32,732,-0.062,0.0,1.016,0.0,0.0,0.0,179.62806258,-3.59244666,-75.33824741999999
7.33,733,-0.063,0.001,1.017,0.057295800000000015,0.0,0.0,179.62806258,-3.59244666,-75.33824741999999
7.34,734,-0.064,0.0,1.016,0.11459160000000003,-0.057295800000000015,0.057295800000000015,179.63379216,-3.59244666,-75.33824741999999
7.35,735,-0.064,0.0,1.015,0.0,0.0,0.057295800000000015,179.63952174000005,-3.59817624,-75.33824741999999
7.36,736,-0.064,0.0,1.015,0.11459160000000003,0.0,0.057295800000000015,179.63952174000005,-3.59817624,-75.33824741999999
7.37,737,-0.063,0.0,1.013,0.11459160000000003,0.0,0.0,179.63952174000005,-3.59817624,-75.33824741999999
7.38,738,-0.062,0.001,1.014,0.057295800000000015,0.057295800000000015,0.0,179.64525132,-3.59817624,-75.34397700000002
7.39,739,-0.062,0.0,1.016,0.0,0.0,0.0,179.64525132,-3.59817624,-75.34397700000002
7.4,740,-0.063,0.0,1.016,0.0,-0.057295800000000015,0.0,179.61087384,-3.57525792,-75.33824741999999
7.41,741,-0.063,0.0,1.016,0.0,0.0,0.0,179.61087384,-3.57525792,-75.33824741999999
7.42,742,-0.063,0.0,1.015,0.11459160000000003,0.0,0.0,179.61087384,-3.57525792,-75.33824741999999
7.43,743,-0.063,0.0,1.015,0.11459160000000003,0.0,0.0,179.61660342,-3.57525792,-75.33824741999999
7.4399999999999995,744,-0.064,0.0,1.017,0.11459160000000003,-0.057295800000000015,0.0,179.61660342,-3.56952834,-75.33824741999999
7.45,745,-0.063,0.0,1.017,0.0,-0.11459160000000003,-0.057295800000000015,179.61087384,-3.56379876,-75.33251784000002
7.46,746,-0.062,0.0,1.016,0.0,0.0,0.0,179.61087384,-3.56379876,-75.33251784000002
7.47,747,-0.063,0.0,1.015,0.0,0.057295800000000015,0.0,179.61087384,-3.56379876,-75.33824741999999
7.4799999999999995,748,-0.064,0.0,1.015,0.0,0.0,0.0,179.61087384,-3.56379876,-75.33251784000002
7.49,749,-0.063,0.0,1.014,0.0,0.057295800000000015,0.0,179.61087384,-3.56379876,-75.33251784000002
7.5,750,-0.063,0.0,1.014,0.0,0.1718874,0.0,179.61660342,-3.5580691799999995,-75.33251784000002
7.51,751,-0.063,0.0,1.015,0.0,0.11459160000000003,0.0,179.61660342,-3.5580691799999995,-75.33251784000002
7.52,752,-0.063,0.0,1.015,0.0,0.11459160000000003,0.0,179.61660342,-3.5580691799999995,-75.33251784000002
7.53,753,-0.063,0.0,1.015,0.0,0.11459160000000003,0.0,179.61660342,-3.5580691799999995,-75.33251784000002
7.54,754,-0.063,0.0,1.016,0.0,0.0,0.0,179.61660342,-3.5580691799999995,-75.33251784000002
7.55,755,-0.063,0.0,1.017,-0.057295800000000015,0.0,0.0,179.61087384,-3.5580691799999995,-75.33251784000002
7.56,756,-0.063,0.0,1.016,-0.057295800000000015,0.0,0.0,179.61087384,-3.5580691799999995,-75.33251784000002
7.57,757,-0.063,0.0,1.015,0.0,-0.057295800000000015,0.0,179.61087384,-3.5580691799999995,-75.33251784000002
7.58,758,-0.063,0.0,1.015,0.0,0.057295800000000015,0.0,179.61087384,-3.5580691799999995,-75.33251784000002
7.59,759,-0.063,0.0,1.015,0.0,0.0,0.0,179.61087384,-3.5580691799999995,-75.33251784000002
7.6,760,-0.064,0.001,1.013,0.0,0.0,0.0,179.61660342,-3.56379876,-75.33251784000002
7.61,761,-0.063,0.0,1.015,0.057295800000000015,0.057295800000000015,0.0,179.61660342,-3.56379876,-75.33251784000002
7.62,762,-0.064,0.0,1.014,0.11459160000000003,0.0,0.0,179.622333,-3.56379876,-75.33251784000002
