TimeStamp(s),FrameCounter,AccX,AccY,AccZ,GyrX,GyrY,GyrZ,EulerX,EulerY,EulerZ
0.01,1,-0.047,-1.008,0.033,-5.6149884000000005,1.2605076000000002,-0.4010706,91.33523478,-2.62987722,-34.01078688
0.02,2,-0.047,-1.008,0.021,-7.6776372,1.6042823999999998,-0.3437748,91.25502066,-2.62987722,-33.99359814
0.03,3,-0.049,-1.006,0.019,-7.333862400000001,2.1199446,-0.4583664000000001,91.18053612,-2.62414764,-33.9764094
0.04,4,-0.047,-1.005,0.019,-7.161975,2.578311,-0.7448454000000001,91.10605158,-2.61841806,-33.9477615
0.05,5,-0.046,-1.005,0.016,-7.3911582,2.6929026,-0.7448454000000001,91.02010788,-2.61268848,-33.9191136
0.060000000000000005,6,-0.047,-1.004,0.015,-7.5057497999999985,2.4064236,-0.6875496,90.94562334,-2.6069589,-33.89619528
0.06999999999999999,7,-0.044,-1.003,0.013,-7.333862400000001,1.9480572,-0.572958,90.86540922,-2.6012293200000003,-33.87900654
0.08,8,-0.041,-1.002,0.008,-7.0473834,1.5469866,-0.572958,90.79665426,-2.59549974,-33.8618178
0.09,9,-0.04,-1.004,0.006,-6.9327918,1.0886202,-0.6302538000000001,90.72216972,-2.59549974,-33.85035864
0.09999999999999999,10,-0.041,-1.004,0.006,-6.8182002000000015,0.3437748,-0.5156622000000001,90.6419556,-2.58404058,-33.84462906
0.11,11,-0.04,-1.005,0.006999999999999999,-6.875496000000001,-0.057295800000000015,-0.5156622000000001,90.57320064,-2.5783110000000002,-33.84462906
0.12,12,-0.038,-1.005,0.006,-7.161975,-0.3437748,-0.572958,90.4987161,-2.57258142,-33.85035864
0.13,13,-0.036000000000000004,-1.009,0.004,-7.333862400000001,-0.4010706,-0.572958,90.42423156,-2.56685184,-33.85608822
0.14,14,-0.038,-1.011,0.003,-7.5057497999999985,-0.286479,-0.572958,90.34974702,-2.5611222600000003,-33.8618178
0.15000000000000002,15,-0.041,-1.014,0.004,-7.8495246,-0.11459160000000004,-0.6302538000000001,90.25807374,-2.55539268,-33.85608822
0.16,16,-0.047,-1.017,0.006,-8.3651868,0.057295800000000015,-0.6875496,90.17213004,-2.5496631,-33.85608822
0.17,17,-0.05,-1.022,0.006,-9.3965112,0.2291832000000001,-0.9740286,90.07472718,-2.53820394,-33.85608822
0.18000000000000002,18,-0.047,-1.026,0.0,-10.4278356,0.7448454000000001,-1.3178034,89.97159474,-2.52674478,-33.85035864
0.19,19,-0.042,-1.029,-0.006999999999999999,-11.688343199999998,1.6615782,-1.6615782,89.85127356000002,-2.50955604,-33.833169899999994
0.2,20,-0.038,-1.024,-0.013,-13.178034,2.3491278,-1.7188740000000002,89.70803406,-2.4923673,-33.81025158
0.21000000000000002,21,-0.035,-1.025,-0.022,-14.667724800000002,2.9220857999999996,-1.6042823999999998,89.55906498,-2.48090814,-33.78160368
0.22,22,-0.037000000000000005,-1.024,-0.031,-16.272007199999994,3.0366774,-1.5469866,89.39290716000002,-2.4637194,-33.75295578
0.23,23,-0.042,-1.024,-0.04,-17.303331600000003,2.86479,-1.432395,89.21529018,-2.45226024,-33.73003746
0.24000000000000002,24,-0.039,-1.023,-0.049,-17.4179232,3.2085648,-1.3750992,89.03194361999998,-2.44080108,-33.70138956
0.25,25,-0.035,-1.023,-0.057,-17.7044022,3.6669312000000014,-1.4896908000000002,88.84286748000002,-2.42361234,-33.6612825
0.26,26,-0.031,-1.018,-0.063,-18.162768600000003,3.8388186,-1.7761698,88.65379134000001,-2.4064236,-33.626905019999995
0.27,27,-0.027000000000000003,-1.014,-0.064,-18.5065434,3.8961144,-2.0626488000000003,88.4647152,-2.38923486,-33.58679796
0.28,28,-0.022,-1.013,-0.069,-18.7930224,3.9534102,-2.2345362,88.27563906,-2.36631654,-33.55242048
0.29000000000000004,29,-0.019,-1.013,-0.078,-19.5378678,3.724227,-2.2345362,88.07510376,-2.34339822,-33.518043
0.3,30,-0.024,-1.01,-0.08199999999999999,-20.05353,3.151269,-2.1199446,87.85737972,-2.32620948,-33.4893951
0.31,31,-0.028,-1.013,-0.08800000000000001,-20.7410796,2.8074942000000003,-2.3491278,87.64538526,-2.30329116,-33.4607472
0.32,32,-0.031,-1.014,-0.099,-21.9442914,2.86479,-2.5210152000000003,87.42193164,-2.28037284,-33.43782888
0.33,33,-0.032,-1.017,-0.109,-23.3193906,3.0366774,-2.7501984,87.18128928,-2.25172494,-33.40918098
0.34,34,-0.028,-1.017,-0.115,-24.350715,3.151269,-2.8074942000000003,86.93491734,-2.22307704,-33.38053308
0.35000000000000003,35,-0.026,-1.016,-0.126,-25.6685184,2.9793816000000004,-2.8074942000000003,86.6598975,-2.19442914,-33.35188518
0.36000000000000004,36,-0.026,-1.011,-0.134,-26.69984280000001,2.6356068,-2.86479,86.38487766,-2.17151082,-33.32896686
0.37,37,-0.025,-1.01,-0.14400000000000002,-27.6738714,2.6356068,-2.9793816000000004,86.10412824,-2.14286292,-33.31177812
0.38,38,-0.021,-1.012,-0.154,-28.304125199999998,2.7501984,-3.0939732,85.81764924000002,-2.10848544,-33.2888598
0.39,39,-0.005,-1.016,-0.16,-27.501984000000004,2.2345362,-2.9220857999999996,85.53689982,-2.08556712,-33.27167106
0.4,40,0.002,-1.026,-0.172,-27.215505,1.145916,-2.6356068,85.24469124,-2.05118964,-33.260211899999995
0.41000000000000003,41,0.0,-1.023,-0.18,-27.8457588,0.0,-2.5210152000000003,84.95821224,-2.02827132,-33.265941479999995
0.42000000000000004,42,-0.013,-1.012,-0.181,-28.0176462,-0.9740286,-2.6929026,84.67746281999997,-2.005353,-33.27740064
0.43,43,-0.02,-1.003,-0.185,-28.4760126,-1.6615782,-2.9793816000000004,84.38525424,-1.98243468,-33.30031896000001
0.44,44,-0.016,-0.996,-0.198,-28.762491600000004,-1.7761698,-3.8388186,84.09877524000002,-1.9480572000000005,-33.32896686
0.45,45,-0.019,-0.994,-0.222,-29.2781538,-1.6042823999999998,-4.9847345999999995,83.78364833999998,-1.90222056,-33.3461556
0.46,46,-0.033,-0.996,-0.249,-29.7365202,-1.7761698,-5.9014674000000005,83.48571018,-1.84492476,-33.3748035
0.47000000000000003,47,-0.045,-0.987,-0.239,-28.1895336,-1.7761698,-7.0473834,83.19923118,-1.78189938,-33.403451399999994
0.48000000000000004,48,-0.061,-0.991,-0.233,-27.215505,-1.9480572,-7.7922288,82.92421134,-1.7074148399999998,-33.432099300000004
0.49,49,-0.05,-0.996,-0.19,-23.4339822,-1.8334656000000005,-8.7662574,82.68356897999998,-1.6272007199999998,-33.46647678
0.5,50,-0.039,-0.996,-0.166,-27.1582092,-1.9480572,-11.8602306,82.40854913999998,-1.51260912,-33.50085426
0.51,51,-0.025,-1.013,-0.152,-34.950438,-1.7188740000000002,-14.2093584,82.05331518,-1.38082878,-33.54096132
0.52,52,-0.008,-1.003,-0.166,-36.38283300000001,-1.8907613999999997,-14.495837400000001,81.68662206,-1.24331886,-33.58679796
0.53,53,-0.005,-0.992,-0.222,-32.0283522,-1.8907613999999997,-16.1001198,81.360036,-1.0886202,-33.626905019999995
0.54,54,-0.011,-1.063,-0.192,-32.945085,-2.86479,-16.8449652,81.02772036,-0.92819196,-33.684200819999994
0.55,55,-0.011,-1.023,-0.18600000000000005,-32.372127,-4.8701430000000006,-16.615782,80.70113429999998,-0.7734933,-33.76441494
0.56,56,0.0,-0.999,-0.172,-34.2055926,-6.0733548,-18.048177,80.35162992,-0.6073354799999999,-33.85608822
0.5700000000000001,57,-0.004,-0.986,-0.182,-34.37748,-7.448453999999999,-18.7930224,80.00785512,-0.44117766,-33.96495024
0.5800000000000001,58,-0.003,-0.987,-0.157,-32.7159018,-8.880849000000003,-19.308684600000007,79.67553948,-0.26929026,-34.08527142
0.59,59,-0.023,-0.995,-0.149,-34.0337052,-8.479778399999999,-19.308684600000007,79.33176468,-0.09167328,-34.2055926
0.6,60,-0.022,-1.015,-0.171,-38.5600734,-7.6203414,-20.2827132,78.93642365999997,0.08021412,-34.3201842
0.61,61,-0.033,-1.037,-0.226,-43.77399120000001,-6.417129599999999,-20.05353,78.495246,0.26356068,-34.429046220000004
0.62,62,-0.054000000000000006,-1.058,-0.228,-48.414951,-4.4690724,-19.480572,78.00250212,0.43544808,-34.51498992
0.63,63,-0.054000000000000006,-1.005,-0.106,-55.86340500000001,-3.2658606,-18.7930224,77.43527370000002,0.6073354799999999,-34.58947446
0.64,64,-0.024,-0.928,-0.16,-65.317212,-3.8388186,-18.5065434,76.77064241999999,0.7734933,-34.67541816
0.65,65,0.019,-0.927,-0.162,-65.7182826,-8.9954406,-17.761698000000006,76.10601113999998,0.92246238,-34.81292808
0.66,66,0.05,-0.963,-0.106,-62.853492599999996,-12.261301199999998,-17.18874,75.46429817999999,1.05424272,-34.9790859
0.67,67,0.071,-1.031,-0.08199999999999999,-62.9107884,-13.9228794,-16.1001198,74.82831479999999,1.1688343199999998,-35.15670288
0.68,68,0.08,-1.057,-0.14400000000000002,-66.9787902,-14.4385416,-15.3552744,74.14649478,1.27769634,-35.34004944
0.6900000000000001,69,0.076,-1.045,-0.233,-69.21332640000001,-13.6936962,-15.527161800000002,73.43602686,1.38082878,-35.52339600000001
0.7000000000000001,70,0.048,-1.045,-0.255,-68.98414319999999,-11.516455800000001,-14.5531332,72.7370181,1.48396122,-35.67809466
0.7100000000000001,71,0.026,-1.035,-0.289,-73.96887779999999,-9.3392154,-14.7823164,71.98071354,1.59282324,-35.82133416
0.72,72,-0.005,-0.983,-0.24,-80.95896540000003,-8.9954406,-15.4125702,71.15565402,1.70168526,-35.95884408
0.73,73,-0.03,-0.863,-0.092,-89.55333540000002,-10.886202,-14.4385416,70.24465079999999,1.7933585399999998,-36.11927232
0.74,74,-0.019,-0.86,-0.154,-93.965112,-10.0840608,-13.2353298,69.28781094,1.87357266,-36.26251182
0.75,75,0.005,-0.86,-0.185,-92.3608296,-9.568398599999998,-13.6936962,68.35388940000001,1.9595163600000003,-36.4114809
0.76,76,0.037000000000000005,-0.923,-0.205,-86.97502440000002,-5.7868758000000025,-14.896907999999998,67.4658045,2.06837838,-36.5260725
0.77,77,0.046,-0.99,-0.269,-87.089616,-2.578311,-15.5844576,66.5777196,2.18869956,-36.61774578
0.78,78,0.039,-0.992,-0.284,-90.06899759999996,0.4010706,-15.3552744,65.6609868,2.3204799,-36.68077116
0.79,79,0.04,-0.976,-0.29,-91.0430262,2.1772404,-14.9542038,64.73279484,2.45226024,-36.73233738
0.8,80,0.026,-0.958,-0.299,-92.246238,3.2085648,-13.5791046,63.80460287999999,2.5783110000000002,-36.76671485999999
0.81,81,0.014,-0.94,-0.279,-91.7878716,3.6096354,-12.7769634,62.87068134,2.6929026,-36.79536276
0.8200000000000001,82,0.004,-0.916,-0.257,-91.1576178,2.7501984,-11.688343199999998,61.94248938,2.79603504,-36.82974024
0.8300000000000001,83,-0.015,-0.904,-0.266,-93.1629708,1.4896908000000002,-11.1153852,60.991379099999996,2.8934379,-36.87557688
0.8400000000000001,84,0.0,-0.885,-0.326,-94.70995740000001,1.2032118,-10.9434978,60.02880966,2.9793816000000004,-36.9271431
0.85,85,0.044,-0.873,-0.38,-93.6213372,0.9167328,-12.032117999999999,59.07769938,3.07678446,-36.9844389
0.86,86,0.07400000000000001,-0.855,-0.413,-93.50674559999999,1.2605076000000002,-13.6936962,58.126589100000004,3.18564648,-37.04746428
0.87,87,0.116,-0.815,-0.43,-89.03767320000001,1.4896908000000002,-15.0114996,57.215585880000006,3.3116972399999995,-37.12194882
0.88,88,0.125,-0.847,-0.431,-89.4387438,2.4064236,-15.813640800000002,56.30458266,3.44347758,-37.19070377999999
0.89,89,0.128,-0.851,-0.439,-89.49603959999996,2.1772404,-14.896907999999998,55.38784986,3.56379876,-37.25945874
0.9,90,0.115,-0.862,-0.428,-88.5793068,-0.3437748,-13.2926256,54.49403537999999,3.66120162,-37.33967286
0.91,91,0.093,-0.8420000000000001,-0.417,-90.5846598,-2.9793816000000004,-12.2040054,53.56584342,3.7299565800000014,-37.4428053
0.92,92,0.071,-0.804,-0.434,-92.9337876,-5.6149884000000005,-12.318597,52.61473314,3.78725238,-37.56312648
0.93,93,0.055,-0.758,-0.45,-95.397507,-7.2765666,-12.9488508,51.64070454,3.83308902,-37.70636598
0.9400000000000001,94,0.057,-0.71,-0.534,-95.7412818,-7.2765666,-14.2093584,50.65521678,3.88465524,-37.85533506
0.9500000000000001,95,0.068,-0.6809999999999999,-0.56,-93.7359288,-6.990087599999999,-15.469866,49.69264734,3.94768062,-38.01003372
0.9600000000000001,96,0.063,-0.687,-0.573,-89.66792699999998,-6.875496000000001,-16.615782,48.77591454,4.01643558,-38.17619154000001
0.97,97,0.058,-0.7140000000000001,-0.573,-87.7198698,-7.5630456000000015,-16.2147114,47.8706409,4.0794609600000005,-38.34234936
0.98,98,0.047,-0.7440000000000001,-0.542,-85.7145168,-8.3651868,-15.126091199999998,46.99401516,4.1252976000000015,-38.50850718
0.99,99,0.042,-0.746,-0.562,-87.7198698,-8.136003599999999,-13.980175199999998,46.08874152,4.15967508,-38.66893542
1.0,100,0.025,-0.7140000000000001,-0.578,-88.8657858,-8.078707799999998,-12.891555,45.18346788,4.1825934,-38.8179045
1.01,101,0.018000000000000002,-0.6759999999999999,-0.579,-87.77716559999998,-8.136003599999999,-12.261301199999998,44.27819424,4.19978214,-38.96687358000001
1.02,102,0.005,-0.664,-0.634,-88.12094040000002,-8.193299399999999,-11.917526400000002,43.37865018,4.211241299999998,-39.11584266
1.03,103,0.026,-0.625,-0.631,-87.31879920000002,-8.078707799999998,-11.45916,42.47910612,4.22270046,-39.25335258
1.04,104,0.06,-0.617,-0.698,-85.9437,-6.4744254,-11.745639,41.5967508,4.2398892,-39.38513292
1.05,105,0.08800000000000001,-0.608,-0.674,-84.1675302,-4.583664,-11.9748222,40.7373138,4.27426668,-39.51118368
1.06,106,0.11,-0.638,-0.6859999999999999,-82.67783940000002,-3.8388186,-11.9748222,39.88933596,4.31437374,-39.625775280000006
1.07,107,0.116,-0.6559999999999999,-0.6709999999999999,-82.8497268,-3.5523396000000003,-11.516455800000001,39.04135812,4.34875122,-39.74036688
1.08,108,0.097,-0.6709999999999999,-0.6659999999999999,-83.1362058,-3.2085648,-11.2872726,38.187650700000006,4.3831287,-39.8492289
1.09,109,0.057,-0.6509999999999999,-0.6890000000000001,-84.4540092,-3.0939732,-11.0580894,37.32248412,4.41750618,-39.95809092
1.1,110,0.018000000000000002,-0.591,-0.721,-85.82910840000002,-3.5523396000000003,-9.969469199999999,36.44585838,4.43469492,-40.06122336
1.11,111,0.016,-0.623,-0.715,-82.7351352,-4.9274388,-10.8289062,35.59788054,4.44615408,-40.17581496
1.12,112,0.016,-0.657,-0.723,-84.91237559999998,-6.589017,-9.568398599999998,34.72698438,4.43469492,-40.29613614
1.1300000000000001,113,0.048,-0.628,-0.767,-87.31879920000002,-8.078707799999998,-7.7349330000000025,33.833169899999994,4.40031744,-40.40499816
1.1400000000000001,114,0.08900000000000001,-0.626,-0.7809999999999999,-86.05829159999998,-11.1153852,-7.6203414,32.95081458,4.34302164,-40.53104892
1.1500000000000001,115,0.11,-0.603,-0.7809999999999999,-87.77716559999998,-13.2926256,-5.6722842,32.057000099999996,4.25134836,-40.6513701
1.1600000000000001,116,0.125,-0.598,-0.7829999999999999,-87.26150340000002,-14.0947668,-4.010706000000001,31.16318562,4.14248634,-40.76023212
1.17,117,0.114,-0.596,-0.805,-88.9230816,-15.2979786,-1.0886202,30.25791198,4.010706,-40.8519054
1.18,118,0.103,-0.5539999999999999,-0.81,-90.0117018,-16.615782,0.4010706,29.34117918,3.85600734,-40.93211952
1.19,119,0.1,-0.546,-0.8290000000000001,-89.49603959999996,-15.985528200000001,1.7761698,28.43017596,3.6955791,-40.9951449
1.2,120,0.078,-0.52,-0.812,-89.954406,-14.7823164,2.0626488000000003,27.51917274,3.54661002,-41.0524407
1.21,121,0.049,-0.505,-0.853,-89.7825186,-11.8029348,0.9740286,26.60816952,3.42628884,-41.09827734
1.22,122,0.024,-0.478,-0.843,-88.5793068,-10.886202,0.286479,25.70289588,3.31742682,-41.14411398
1.23,123,-0.006,-0.456,-0.878,-87.7198698,-11.9748222,-1.0313244,24.81481098,3.20283522,-41.20140978
1.24,124,-0.014,-0.452,-0.878,-86.2874748,-13.521808800000002,-1.7188740000000002,23.932455659999995,3.07678446,-41.27589432
1.25,125,0.008,-0.444,-0.871,-84.51130500000002,-14.610429000000002,-1.2032118,23.07301866,2.93927454,-41.34464928
1.26,126,0.042,-0.45,-0.87,-81.1308528,-14.610429000000002,0.6875496,22.25368872,2.79603504,-41.3962155
1.27,127,0.065,-0.426,-0.87,-81.9902898,-14.667724800000002,3.8388186,21.42289962,2.6356068,-41.41340424
1.28,128,0.076,-0.369,-0.902,-78.6671334,-15.2406828,6.417129599999999,20.626488000000002,2.4637194,-41.41340424
1.29,129,0.06,-0.412,-0.911,-74.198061,-17.9335854,8.479778399999999,19.87591302,2.25745452,-41.3962155
1.3,130,0.042,-0.397,-0.949,-75.2293854,-18.7357266,11.516455800000001,19.11387888,2.03973048,-41.35037885999999
1.31,131,0.013,-0.3670000000000001,-0.957,-73.73969459999998,-17.9908812,13.178034,18.37476306,1.81627686,-41.28735348
1.32,132,-0.015,-0.317,-1.008,-73.6823988,-16.673077799999998,12.7769634,17.62991766,1.61001198,-41.21859852
1.33,133,-0.041,-0.384,-1.013,-70.7030172,-13.178034,12.4331886,16.91372016,1.44385416,-41.1383844
1.34,134,-0.035,-0.297,-1.054,-74.3699484,-10.026765,9.969469199999999,16.16314518,1.31207382,-41.06962944
1.35,135,-0.036000000000000004,-0.35200000000000004,-1.067,-66.9214944,-7.7349330000000025,9.6256944,15.48705474,1.19748222,-41.00087448
1.36,136,-0.056,-0.35600000000000004,-1.0659999999999998,-69.72898860000001,-5.9014674000000005,8.7089616,14.7823164,1.11153852,-40.93211952
1.37,137,-0.054000000000000006,-0.315,-1.072,-67.49445240000001,-4.297185,7.1046792000000005,14.10049638,1.04278356,-40.86909414
1.3800000000000001,138,-0.059,-0.318,-1.06,-66.5777196,-2.2345362,7.1046792000000005,13.42440594,0.9969469199999998,-40.80033918
1.3900000000000001,139,-0.041,-0.274,-1.051,-67.66633979999999,-0.3437748,5.3285094000000015,12.74258592,0.96829902,-40.74877296
1.4000000000000001,140,-0.034,-0.212,-1.072,-64.0567044,1.8907613999999997,6.0733548,12.0894138,0.96256944,-40.680018
1.4100000000000001,141,0.005,-0.21,-1.069,-60.332477399999995,2.578311,5.6149884000000005,11.47634874,0.96829902,-40.61699262000001
1.42,142,0.006,-0.145,-1.043,-61.020027,1.8334656000000005,6.1879464,10.8575541,0.96829902,-40.54823766
1.43,143,0.022,-0.122,-1.015,-56.0352924,0.8594370000000001,6.3025379999999975,10.29032568,0.95683986,-40.47948270000001
1.44,144,0.01,-0.059,-1.007,-55.06126379999999,0.6302538000000001,6.4744254,9.73455642,0.9453806999999999,-40.41072774
1.45,145,0.001,-0.024,-1.014,-50.47759979999999,1.6042823999999998,7.2765666,9.20743506,0.93965112,-40.33051362
1.46,146,0.011,-0.012,-1.03,-47.0398518,1.8907613999999997,6.703608600000001,8.73187992,0.9453806999999999,-40.26175866
1.47,147,0.014,0.005,-1.028,-43.6021038,2.8074942000000003,5.3858052,8.29070226,0.95683986,-40.19873328
1.48,148,0.025,-0.026,-1.047,-39.19032720000001,2.0053530000000004,4.1825934,7.889631660000001,0.96829902,-40.15289664
1.49,149,0.026,-0.04,-1.035,-37.52874900000001,0.8594370000000001,3.7815227999999994,7.51147938,0.96256944,-40.11278958000001
1.5,150,0.041,-0.07,-1.034,-32.658606,0.2291832000000001,3.3231564,7.1734341599999984,0.96256944,-40.07268252
1.51,151,0.054000000000000006,-0.071,-1.068,-30.8251404,-0.6875496,3.8388186,6.858307260000001,0.9453806999999999,-40.03830504
1.52,152,0.066,-0.079,-1.077,-27.444688199999998,-2.4064236,2.7501984,6.58328742,0.9167328000000001,-40.00965714
1.53,153,0.047,-0.066,-1.088,-25.0382646,-3.724227,3.724227,6.3311859,0.87089616,-39.97527966
1.54,154,0.039,-0.084,-1.098,-21.7151082,-3.2658606,4.8128472,6.1077322800000005,0.8307891,-39.92944302
1.55,155,0.01,-0.093,-1.09,-20.3973048,-2.0053530000000004,6.130650599999999,5.895737819999999,0.79641162,-39.87214722
1.56,156,0.004,-0.073,-1.092,-18.9649098,-1.7188740000000002,5.5576926,5.7009320999999975,0.7734933,-39.81485142
1.57,157,0.011,-0.085,-1.074,-18.2773602,-1.0313244,5.7868758000000025,5.51758554,0.75630456,-39.75755562
1.58,158,0.018000000000000002,-0.08199999999999999,-1.069,-16.042824000000003,-0.4583664000000001,5.6149884000000005,5.3571573,0.7448454000000001,-39.7059894
1.59,159,0.006999999999999999,-0.069,-1.0590000000000002,-14.9542038,0.4010706,5.1566220000000005,5.2024586400000015,0.7391158200000001,-39.6486936
1.6,160,0.006999999999999999,-0.067,-1.0659999999999998,-13.407217200000002,1.432395,4.010706000000001,5.05921914,0.75057498,-39.60858654
1.61,161,0.026,-0.069,-1.052,-11.2872726,1.6042823999999998,3.0939732,4.94462754,0.76203414,-39.57420906
1.62,162,0.03,-0.051,-1.034,-10.3705398,1.2605076000000002,2.9793816000000004,4.83576552,0.76776372,-39.53983158
1.6300000000000001,163,0.043,-0.051,-1.008,-8.59437,1.2605076000000002,3.0366774,4.749821819999998,0.7792228800000001,-39.51118368
1.6400000000000001,164,0.052000000000000005,-0.037000000000000005,-1.005,-7.5630456000000015,0.8021411999999999,3.0939732,4.675337279999999,0.7849524600000001,-39.47680620000001
1.6500000000000001,165,0.044,-0.044,-1.006,-5.7868758000000025,-0.057295800000000015,3.2085648,4.5836640000000015,0.7906820400000001,-39.43669914
1.6600000000000001,166,0.031,-0.048,-1.005,-4.5263682,-0.9167328,3.3231564,4.53782736,0.7734933,-39.40232166
1.6700000000000002,167,0.023,-0.055,-1.005,-2.578311,-0.9167328,3.4377480000000005,4.50917946,0.76203414,-39.37367376
1.68,168,0.016,-0.064,-0.996,-1.432395,-0.1718874,3.0366774,4.4977203,0.76203414,-39.33929628
1.69,169,0.011,-0.073,-0.988,-0.4010706,1.432395,2.2345362,4.49199072,0.7734933,-39.31637796
1.7,170,0.001,-0.076,-0.974,0.1718874,2.8074942000000003,1.6042823999999998,4.4748019800000005,0.7734933,-39.29918922
1.71,171,-0.004,-0.077,-0.981,0.4010706,4.2398892,1.2605076000000002,4.4748019800000005,0.8136003599999999,-39.28200048
1.72,172,0.004,-0.077,-0.98,0.8594370000000001,4.8128472,1.0886202,4.48626114,0.8594370000000001,-39.26481174
1.73,173,0.016,-0.077,-0.987,1.5469866,5.042030400000002,1.0313244,4.50344988,0.91100322,-39.247623
1.74,174,0.028,-0.079,-0.994,2.2345362,4.6409598,0.8594370000000001,4.5263682,0.95683986,-39.23616384
1.75,175,0.031,-0.083,-0.989,2.86479,3.7815227999999994,0.6875496,4.54355694,1.0026765,-39.2189751
1.76,176,0.034,-0.098,-1.003,3.3231564,2.578311,0.572958,4.57793442,1.0255948199999998,-39.21324552
1.77,177,0.031,-0.12,-1.004,3.4377480000000005,1.0313244,0.6875496,4.612311900000001,1.03705398,-39.20751594
1.78,178,0.022,-0.13,-0.994,2.86479,-0.2291832000000001,0.8594370000000001,4.6409598,1.03705398,-39.196056780000006
1.79,179,0.011,-0.138,-0.997,2.1772404,-0.3437748,0.9740286,4.66387812,1.0313244,-39.18459762
1.8,180,0.004,-0.136,-0.986,1.5469866,0.1718874,0.9167328,4.74409224,0.98548776,-39.19032720000001
1.81,181,-0.006,-0.128,-0.995,0.6875496,0.8594370000000001,0.9167328,4.749821819999998,0.9912173399999998,-39.18459762
1.82,182,-0.017,-0.118,-0.986,0.6302538000000001,1.8907613999999997,0.8021411999999999,4.7555514,1.00840608,-39.17313846
1.83,183,-0.026,-0.113,-0.977,0.5156622000000001,3.3231564,0.8021411999999999,4.76128098,1.04278356,-39.161679299999996
1.84,184,-0.032,-0.103,-0.966,0.11459160000000004,4.9274388,0.6302538000000001,4.76128098,1.0886202,-39.15022014
1.85,185,-0.034,-0.098,-0.953,0.0,6.130650599999999,0.3437748,4.76128098,1.11153852,-39.14449056
1.86,186,-0.016,-0.101,-0.975,-0.11459160000000004,7.0473834,0.3437748,4.76128098,1.18029348,-39.1330314
1.87,187,0.004,-0.11,-0.973,-0.1718874,6.3598338,0.5156622000000001,4.7555514,1.24331886,-39.11584266
1.8800000000000001,188,0.027000000000000003,-0.115,-0.975,-0.6875496,4.8128472,0.8021411999999999,4.749821819999998,1.2891555000000001,-39.1043835
1.8900000000000001,189,0.035,-0.123,-0.976,-1.145916,3.3231564,1.145916,4.73836266,1.32353298,-39.08719476
1.9000000000000001,190,0.054000000000000006,-0.116,-0.973,-1.5469866,2.4064236,1.5469866,4.73836266,1.36936962,-39.07000602
1.9100000000000001,191,0.049,-0.11,-0.967,-1.6042823999999998,1.2032118,1.4896908000000002,4.72117392,1.38082878,-39.05281728
1.9200000000000002,192,0.041,-0.105,-0.971,-1.7188740000000002,0.6875496,1.145916,4.703985179999999,1.38655836,-39.04135812
1.93,193,0.026,-0.103,-0.96,-1.8334656000000005,0.4010706,0.3437748,4.68106686,1.39228794,-39.03562854
1.94,194,0.005,-0.096,-0.956,-2.1199446,0.4583664000000001,-0.4010706,4.66387812,1.39801752,-39.04135812
1.95,195,-0.012,-0.092,-0.956,-1.7188740000000002,1.2605076000000002,-0.8594370000000001,4.63523022,1.3579104599999998,-39.05281728
1.96,196,-0.014,-0.09,-0.951,-1.8334656000000005,2.291832,-1.0886202,4.6180414800000005,1.38082878,-39.06427644
1.97,197,-0.006999999999999999,-0.087,-0.968,-1.6042823999999998,2.9220857999999996,-0.9167328,4.6008527400000006,1.40947668,-39.07000602
1.98,198,0.013,-0.08900000000000001,-0.978,-1.0313244,2.9793816000000004,-0.4010706,4.58939358,1.43812458,-39.07000602
1.99,199,0.034,-0.098,-0.99,-0.5156622000000001,2.9220857999999996,0.1718874,4.5836640000000015,1.46677248,-39.06427644
2.0,200,0.044,-0.114,-0.99,-0.4583664000000001,2.4064236,0.8021411999999999,4.6180414800000005,1.50687954,-39.05281728
2.01,201,0.045,-0.128,-0.992,-1.2605076000000002,1.5469866,1.0886202,4.60658232,1.5183387000000002,-39.04135812
2.02,202,0.039,-0.14300000000000002,-0.984,-1.4896908000000002,0.7448454000000001,1.5469866,4.58939358,1.52406828,-39.02416938
2.03,203,0.034,-0.14300000000000002,-0.984,-2.9220857999999996,-0.1718874,1.7188740000000002,4.56074568,1.52406828,-39.00698064
2.04,204,0.035,-0.13699999999999998,-0.994,-3.6669312000000014,-0.7448454000000001,1.6042823999999998,4.5263682,1.51260912,-38.9897919
2.05,205,0.041,-0.125,-0.999,-4.1825934,-1.2605076000000002,1.3178034,4.4977203,1.50687954,-38.98406232000001
2.0599999999999996,206,0.043,-0.121,-1.008,-4.297185,-1.4896908000000002,1.0313244,4.45188366,1.4896908000000002,-38.97260316
2.07,207,0.055,-0.112,-1.007,-4.4690724,-2.1199446,1.0313244,4.4117766000000005,1.46677248,-38.961144
2.0799999999999996,208,0.048,-0.114,-0.988,-4.2398892,-2.291832,1.0313244,4.36593996,1.44385416,-38.95541442
2.09,209,0.04,-0.117,-0.986,-4.3544808,-1.8907613999999997,0.9740286,4.320103319999999,1.4209358399999998,-38.94395526
2.0999999999999996,210,0.025,-0.116,-0.983,-4.1252976000000015,-1.145916,0.8021411999999999,4.30864416,1.39801752,-38.94395526
2.11,211,0.023,-0.099,-0.982,-4.6409598,-0.5156622000000001,0.9167328,4.26280752,1.39228794,-38.9324961
2.1199999999999997,212,0.017,-0.096,-0.983,-4.2398892,-0.3437748,1.0313244,4.21697088,1.38655836,-38.92103694
2.13,213,0.021,-0.096,-0.986,-4.1825934,-0.2291832000000001,1.3750992,4.17686382,1.38082878,-38.90957778
2.1399999999999997,214,0.026,-0.097,-0.978,-4.1252976000000015,-0.057295800000000015,1.7188740000000002,4.131027179999999,1.3750992,-38.89238904
2.15,215,0.026,-0.1,-0.977,-4.1825934,0.057295800000000015,1.9480572,4.09092012,1.36936962,-38.8752003
2.1599999999999997,216,0.021,-0.093,-0.973,-4.1252976000000015,-0.5156622000000001,1.7188740000000002,4.05081306,1.36364004,-38.85801156
2.17,217,0.015,-0.091,-0.977,-4.0680017999999984,-1.2605076000000002,1.145916,4.010706,1.3464512999999998,-38.8465524
2.1799999999999997,218,0.018000000000000002,-0.093,-0.988,-3.4950437999999995,-1.2605076000000002,0.5156622000000001,3.97632852,1.3349921400000002,-38.84082282
2.19,219,0.025,-0.095,-0.99,-3.0366774,-1.145916,0.1718874,3.94195104,1.32353298,-38.84082282
2.1999999999999997,220,0.022,-0.096,-0.979,-2.4637194,-0.7448454000000001,0.1718874,3.93622146,1.30061466,-38.84082282
2.21,221,0.019,-0.098,-0.987,-2.5210152000000003,0.286479,0.1718874,3.90757356,1.30061466,-38.84082282
2.2199999999999998,222,0.011,-0.097,-1.0,-1.8907613999999997,0.9740286,0.057295800000000015,3.89038482,1.31207382,-38.83509324
2.23,223,0.006,-0.11,-0.998,-1.6042823999999998,1.3178034,0.0,3.873196080000002,1.32353298,-38.83509324
2.2399999999999998,224,0.001,-0.113,-1.002,-1.7188740000000002,1.2605076000000002,0.057295800000000015,3.85600734,1.3349921400000002,-38.83509324
2.25,225,0.002,-0.113,-1.002,-2.0053530000000004,1.2605076000000002,0.057295800000000015,3.86173692,1.31207382,-38.84082282
2.26,226,0.01,-0.109,-1.002,-1.7761698,1.3750992,0.0,3.8388186000000006,1.32353298,-38.83509324
2.27,227,0.027000000000000003,-0.114,-1.003,-1.7761698,0.8021411999999999,0.0,3.82162986,1.32926256,-38.83509324
2.28,228,0.032,-0.113,-0.997,-1.4896908000000002,0.0,-0.11459160000000004,3.80444112,1.32926256,-38.83509324
2.29,229,0.019,-0.105,-0.989,-1.6042823999999998,-0.057295800000000015,-0.4010706,3.79298196,1.32926256,-38.84082282
2.3,230,0.006999999999999999,-0.092,-0.987,-1.3750992,0.572958,-0.9167328,3.7815227999999994,1.29488508,-38.85801156
2.31,231,0.0,-0.083,-0.994,-0.8021411999999999,1.2032118,-1.6042823999999998,3.77006364,1.30634424,-38.86947072
2.32,232,0.005,-0.086,-1.003,-0.057295800000000015,1.9480572,-2.291832,3.77006364,1.32926256,-38.89238904
2.3299999999999996,233,0.015,-0.102,-1.006,0.1718874,2.0053530000000004,-2.6929026,3.77006364,1.3464512999999998,-38.91530736
2.34,234,0.028,-0.117,-1.004,0.2291832000000001,1.9480572,-2.8074942000000003,3.77579322,1.36936962,-38.94395526
2.3499999999999996,235,0.034,-0.127,-0.998,0.286479,1.2032118,-2.6929026,3.82735944,1.39228794,-38.97260316
2.36,236,0.033,-0.126,-0.99,0.4583664000000001,0.6875496,-2.8074942000000003,3.83308902,1.39801752,-39.00125106
2.3699999999999997,237,0.027000000000000003,-0.113,-0.98,0.4010706,0.4010706,-2.9220857999999996,3.83308902,1.40947668,-39.02989896
2.38,238,0.024,-0.097,-0.978,0.8021411999999999,0.286479,-3.0939732,3.84454818,1.41520626,-39.05854686
2.3899999999999997,239,0.022,-0.085,-0.972,1.3178034,0.572958,-3.2085648,3.85600734,1.4209358399999998,-39.09292434
2.4,240,0.02,-0.087,-0.974,2.1772404,1.0886202,-3.4377480000000005,3.87892566,1.42666542,-39.12730182
2.4099999999999997,241,0.02,-0.099,-0.983,2.6929026,2.0053530000000004,-3.380452200000001,3.90757356,1.44958374,-39.161679299999996
2.42,242,0.019,-0.115,-0.992,2.86479,3.0939732,-3.380452200000001,3.93622146,1.48396122,-39.19032720000001
2.4299999999999997,243,0.021,-0.13699999999999998,-1.0,2.7501984,3.380452200000001,-3.380452200000001,3.95913978,1.5183387000000002,-39.2189751
2.44,244,0.026,-0.156,-0.993,2.2345362,3.2085648,-3.380452200000001,3.9820580999999997,1.5527161800000002,-39.25335258
2.4499999999999997,245,0.035,-0.153,-0.988,1.3750992,2.578311,-3.151269,4.05081306,1.5813640800000002,-39.28773006
2.46,246,0.035,-0.14400000000000002,-0.994,0.572958,1.6042823999999998,-2.8074942000000003,4.05654264,1.59855282,-39.31064838
2.4699999999999998,247,0.036000000000000004,-0.131,-0.994,0.3437748,1.0313244,-2.578311,4.05654264,1.61001198,-39.33929628
2.48,248,0.033,-0.124,-0.995,0.11459160000000004,0.7448454000000001,-2.291832,4.05654264,1.62147114,-39.3622146
2.4899999999999998,249,0.034,-0.127,-0.99,0.057295800000000015,0.11459160000000004,-2.291832,4.05654264,1.6272007199999998,-39.38513292
2.5,250,0.036000000000000004,-0.133,-0.99,0.2291832000000001,0.057295800000000015,-2.3491278,4.14821592,1.6329303,-39.41378082
2.51,251,0.037000000000000005,-0.134,-0.99,0.057295800000000015,-0.2291832000000001,-2.4064236,4.14821592,1.6329303,-39.43669914
2.52,252,0.034,-0.13,-0.985,-0.11459160000000004,-0.6302538000000001,-2.5210152000000003,4.14821592,1.6272007199999998,-39.46534704
2.53,253,0.027000000000000003,-0.125,-0.987,-0.11459160000000004,-0.572958,-2.291832,4.14248634,1.62147114,-39.48826536
2.54,254,0.017,-0.121,-0.981,0.057295800000000015,-0.1718874,-2.1199446,4.14248634,1.62147114,-39.51118368
2.55,255,0.009000000000000001,-0.119,-0.972,0.11459160000000004,0.6302538000000001,-1.8907613999999997,4.19405256,1.5813640800000002,-39.53983158
2.56,256,0.008,-0.119,-0.978,0.3437748,1.2032118,-1.7761698,4.19978214,1.59282324,-39.55129074
2.57,257,0.01,-0.119,-0.975,0.3437748,1.3750992,-1.4896908000000002,4.19978214,1.61001198,-39.56847947999999
2.5799999999999996,258,0.014,-0.122,-0.974,0.4010706,1.0886202,-1.2032118,4.20551172,1.62147114,-39.57993864
2.59,259,0.021,-0.123,-0.975,0.4583664000000001,0.6875496,-1.0313244,4.211241299999998,1.6329303,-39.591397799999996
2.5999999999999996,260,0.022,-0.12,-0.969,0.6875496,0.1718874,-0.8021411999999999,4.28572584,1.59855282,-39.60858654
2.61,261,0.019,-0.116,-0.971,0.9167328,0.0,-0.8594370000000001,4.297185000000002,1.59855282,-39.61431612
2.6199999999999997,262,0.014,-0.117,-0.98,1.3750992,-0.057295800000000015,-0.9740286,4.30864416,1.59855282,-39.625775280000006
2.63,263,0.005,-0.119,-0.978,1.6042823999999998,-0.057295800000000015,-1.145916,4.325832900000001,1.59855282,-39.63723444
2.6399999999999997,264,0.001,-0.134,-0.986,1.4896908000000002,0.6875496,-1.2605076000000002,4.34302164,1.6042824000000002,-39.6486936
2.65,265,-0.003,-0.147,-0.987,1.2605076000000002,1.3750992,-1.432395,4.42323576,1.56417534,-39.67161192
2.6599999999999997,266,-0.001,-0.153,-0.989,0.5156622000000001,2.1199446,-1.6615782,4.42896534,1.5870936600000003,-39.68880066
2.67,267,0.004,-0.151,-0.991,-0.11459160000000004,2.8074942000000003,-1.8334656000000005,4.42896534,1.6157415599999996,-39.70025982
2.6799999999999997,268,0.006999999999999999,-0.147,-0.987,-0.8021411999999999,2.86479,-1.9480572,4.41750618,1.65011904,-39.71744856
2.69,269,0.012,-0.14400000000000002,-0.988,-1.2605076000000002,2.86479,-1.8334656000000005,4.40604702,1.6787669399999998,-39.734637299999996
2.6999999999999997,270,0.02,-0.147,-0.991,-1.5469866,2.5210152000000003,-1.6042823999999998,4.43469492,1.6902260999999998,-39.75182604
2.71,271,0.027000000000000003,-0.14300000000000002,-0.993,-1.6615782,2.2345362,-1.432395,4.41750618,1.71314442,-39.7632852
2.7199999999999998,272,0.034,-0.133,-0.982,-1.8334656000000005,2.2345362,-1.2032118,4.40031744,1.73606274,-39.77474436
2.73,273,0.03,-0.123,-0.979,-1.9480572,1.9480572,-1.432395,4.37739912,1.75898106,-39.78620352
2.7399999999999998,274,0.031,-0.121,-0.98,-1.5469866,2.1772404,-1.7761698,4.36021038,1.78189938,-39.80339226
2.75,275,0.03,-0.119,-0.984,-1.2605076000000002,2.5210152000000003,-2.0626488000000003,4.36593996,1.79908812,-39.820581
2.76,276,0.029,-0.12,-0.988,-1.0313244,3.3231564,-2.4064236,4.3544808,1.8334656000000005,-39.84349932
2.77,277,0.024,-0.124,-0.992,-0.8594370000000001,4.0680017999999984,-2.6356068,4.34302164,1.87930224,-39.86641764
2.78,278,0.018000000000000002,-0.128,-0.995,-0.9167328,4.8128472,-2.86479,4.3315624800000005,1.92513888,-39.88933596
2.79,279,0.01,-0.13699999999999998,-0.991,-1.0886202,5.2712136,-3.151269,4.320103319999999,1.98243468,-39.91798386
2.8,280,0.023,-0.139,-0.992,-1.3750992,5.2712136,-3.0939732,4.3315624800000005,2.02254174,-39.94663176
2.81,281,0.023,-0.142,-0.992,-1.6042823999999998,4.8128472,-2.9793816000000004,4.31437374,2.07410796,-39.96955008
2.82,282,0.027000000000000003,-0.139,-0.997,-1.7761698,4.2398892,-2.9220857999999996,4.29145542,2.1199446,-39.9924684
2.8299999999999996,283,0.036000000000000004,-0.13699999999999998,-0.998,-1.9480572,3.6096354,-2.86479,4.27426668,2.15432208,-40.0211163
2.84,284,0.042,-0.134,-0.997,-2.0053530000000004,2.9793816000000004,-2.86479,4.25134836,2.18869956,-40.04403462
2.8499999999999996,285,0.044,-0.13699999999999998,-0.998,-1.8334656000000005,2.1772404,-2.86479,4.26280752,2.2058883,-40.07268252
2.86,286,0.041,-0.14,-0.999,-1.6615782,1.9480572,-2.9220857999999996,4.24561878,2.22880662,-40.10133042
2.8699999999999997,287,0.032,-0.136,-0.987,-1.6042823999999998,2.0053530000000004,-3.0366774,4.22843004,2.25172494,-40.12997832
2.88,288,0.021,-0.127,-0.985,-1.432395,2.3491278,-3.151269,4.211241299999998,2.28037284,-40.15862622
2.8899999999999997,289,0.015,-0.118,-0.992,-1.2032118,3.151269,-3.2658606,4.19978214,2.30902074,-40.18727412
2.9,290,0.017,-0.111,-0.994,-0.8594370000000001,3.9534102,-3.3231564,4.19978214,2.33193906,-40.21592202
2.9099999999999997,291,0.024,-0.116,-1.005,-0.6875496,4.6409598,-3.3231564,4.1883229800000015,2.38350528,-40.24456992
2.92,292,0.029,-0.13,-1.003,-0.6302538000000001,4.4117766,-3.2085648,4.1825934,2.42934192,-40.27321782
2.9299999999999997,293,0.034,-0.145,-0.999,-1.0313244,3.9534102,-3.2658606,4.16540466,2.46944898,-40.30186572
2.94,294,0.048,-0.147,-0.993,-1.3750992,3.2658606,-2.86479,4.1539455,2.50382646,-40.33051362
2.9499999999999997,295,0.046,-0.142,-0.987,-1.8334656000000005,2.4637194,-2.578311,4.17113424,2.52674478,-40.35343194
2.96,296,0.046,-0.131,-0.992,-2.2345362,1.4896908000000002,-2.4064236,4.14248634,2.54393352,-40.37635026
2.9699999999999998,297,0.04,-0.121,-0.999,-2.1199446,0.8594370000000001,-2.291832,4.11956802,2.55539268,-40.39926858
2.98,298,0.035,-0.115,-0.996,-1.7761698,0.6302538000000001,-2.2345362,4.102379279999999,2.5611222600000003,-40.4221869
2.9899999999999998,299,0.036000000000000004,-0.116,-0.988,-1.3750992,0.8021411999999999,-2.1772404,4.08519054,2.57258142,-40.44510522
3.0,300,0.033,-0.119,-0.979,-1.2032118,0.9167328,-2.0626488000000003,4.10810886,2.5611222600000003,-40.46802354
3.01,301,0.027000000000000003,-0.118,-0.969,-1.145916,1.5469866,-1.8907613999999997,4.0966497,2.57258142,-40.48521228
3.02,302,0.018000000000000002,-0.116,-0.969,-0.9167328,2.2345362,-1.8907613999999997,4.08519054,2.6012293200000003,-40.50240102
3.03,303,0.02,-0.104,-0.976,-0.6302538000000001,3.0366774,-1.7188740000000002,4.0794609600000005,2.62987722,-40.51386018
3.04,304,0.016,-0.104,-0.984,-0.057295800000000015,3.4950437999999995,-1.432395,4.07373138,2.6642547000000003,-40.52531934
3.05,305,0.019,-0.104,-0.987,0.1718874,3.7815227999999994,-1.145916,4.09092012,2.6642547000000003,-40.5367785
3.06,306,0.027000000000000003,-0.11,-0.989,0.2291832000000001,3.7815227999999994,-0.9740286,4.0966497,2.70436176,-40.54250808
3.07,307,0.037000000000000005,-0.12,-0.987,0.0,3.380452200000001,-0.6302538000000001,4.0966497,2.73873924,-40.54250808
3.08,308,0.037000000000000005,-0.127,-0.985,-0.286479,2.578311,-0.1718874,4.09092012,2.76738714,-40.54250808
3.09,309,0.037000000000000005,-0.128,-0.98,-0.572958,2.0626488000000003,0.057295800000000015,4.08519054,2.78457588,-40.54250808
3.0999999999999996,310,0.035,-0.125,-0.981,-0.7448454000000001,1.8907613999999997,0.057295800000000015,4.13675676,2.76738714,-40.54250808
3.11,311,0.033,-0.115,-0.982,-1.0313244,1.4896908000000002,0.1718874,4.1252976000000015,2.78457588,-40.54250808
3.1199999999999997,312,0.04,-0.11,-0.995,-1.145916,0.9740286,0.2291832000000001,4.11383844,2.79603504,-40.5367785
3.13,313,0.044,-0.109,-0.996,-0.8594370000000001,0.6302538000000001,0.4583664000000001,4.10810886,2.80176462,-40.53104892
3.1399999999999997,314,0.043,-0.113,-0.99,-0.572958,0.5156622000000001,0.8021411999999999,4.0966497,2.80176462,-40.51958976
3.15,315,0.033,-0.112,-0.981,-0.4583664000000001,0.9167328,1.0313244,4.131027179999999,2.76738714,-40.51386018
3.1599999999999997,316,0.023,-0.107,-0.981,-0.4010706,1.7761698,0.9740286,4.1252976000000015,2.78457588,-40.50240102
3.17,317,0.018000000000000002,-0.096,-0.979,-0.5156622000000001,2.291832,0.7448454000000001,4.11956802,2.80176462,-40.49094186
3.1799999999999997,318,0.017,-0.094,-0.986,-0.3437748,2.5210152000000003,0.5156622000000001,4.11383844,2.83041252,-40.48521228
3.19,319,0.031,-0.093,-1.001,-0.057295800000000015,2.5210152000000003,0.2291832000000001,4.11383844,2.85333084,-40.47948270000001
3.1999999999999997,320,0.047,-0.099,-1.005,0.4010706,2.6356068,0.286479,4.131027179999999,2.87624916,-40.47375312
3.21,321,0.056,-0.105,-1.003,0.8021411999999999,2.6929026,0.6302538000000001,4.13675676,2.89916748,-40.46802354
3.2199999999999998,322,0.051,-0.109,-1.006,1.3750992,2.578311,0.9167328,4.1539455,2.92781538,-40.4508348
3.23,323,0.041,-0.107,-1.007,1.7188740000000002,2.7501984,1.0313244,4.17113424,2.9507337,-40.43937564
3.2399999999999998,324,0.03,-0.102,-1.006,2.1199446,2.578311,0.9740286,4.19405256,2.9793816000000004,-40.42791648
3.25,325,0.037000000000000005,-0.08800000000000001,-1.008,2.5210152000000003,2.291832,0.8021411999999999,4.211241299999998,2.9793816000000004,-40.41645732
3.26,326,0.041,-0.091,-1.009,3.2085648,2.5210152000000003,0.5156622000000001,4.24561878,3.00229992,-40.41072774
3.27,327,0.043,-0.093,-1.003,3.8961144,2.86479,0.286479,4.28572584,3.0366774000000003,-40.40499816
3.28,328,0.042,-0.095,-1.009,4.7555514,3.6096354,0.11459160000000004,4.3315624800000005,3.07105488,-40.39926858
3.29,329,0.037000000000000005,-0.092,-1.009,5.6149884000000005,4.010706000000001,0.0,4.38885828,3.11116194,-40.393539
3.3,330,0.029,-0.083,-1.007,6.417129599999999,4.1825934,0.057295800000000015,4.44615408,3.13408026,-40.38780942
3.31,331,0.03,-0.078,-1.021,7.6203414,4.583664,0.11459160000000004,4.5263682,3.1799169000000003,-40.38207984
3.32,332,0.037000000000000005,-0.08,-1.026,8.880849000000003,5.042030400000002,0.3437748,4.612311900000001,3.2314831199999987,-40.37635026
3.33,333,0.045,-0.07200000000000001,-1.022,10.1986524,4.010706000000001,0.9167328,4.72117392,3.27159018,-40.35916152
3.34,334,0.054000000000000006,-0.078,-1.023,12.2040054,3.2658606,1.6042823999999998,4.8414950999999995,3.3059676599999994,-40.341972780000006
3.3499999999999996,335,0.059,-0.087,-1.022,14.037471,2.7501984,2.1199446,4.9847346,3.32888598,-40.31905446
3.36,336,0.057,-0.09,-1.016,16.2147114,2.4064236,2.4637194,5.15089242,3.3518043,-40.29040656
3.3699999999999997,337,0.051,-0.085,-1.019,17.8189938,2.1772404,2.4637194,5.3285094000000015,3.37472262,-40.26748824
3.38,338,0.045,-0.078,-1.021,19.4232762,2.3491278,2.2345362,5.5290447,3.39764094,-40.24456992
3.3899999999999997,339,0.038,-0.068,-1.023,21.199446,2.9793816000000004,2.0053530000000004,5.746768739999999,3.42628884,-40.2216516
3.4,340,0.035,-0.077,-1.037,23.491278,3.6096354,1.6615782,5.97595194,3.46066632,-40.19873328
3.4099999999999997,341,0.039,-0.094,-1.034,25.55392680000001,3.151269,1.7188740000000002,6.23951262,3.48931422,-40.18154454
3.42,342,0.052000000000000005,-0.105,-1.035,27.444688199999998,1.8334656000000005,2.0626488000000003,6.51453246,3.5122325400000003,-40.15862622
3.4299999999999997,343,0.071,-0.114,-1.033,29.507337,-0.4583664000000001,2.8074942000000003,6.8182002000000015,3.50650296,-40.12997832
3.44,344,0.09,-0.131,-1.033,31.913760600000003,-2.7501984,3.5523396000000003,7.144786260000001,3.47785506,-40.10133042
3.4499999999999997,345,0.105,-0.14,-1.035,33.6326346,-3.0939732,4.1252976000000015,7.4885610599999985,3.4492071599999994,-40.06695294000001
3.46,346,0.103,-0.152,-1.033,35.6379876,-2.0053530000000004,4.010706000000001,7.8495246,3.43201842,-40.03257546
3.4699999999999998,347,0.086,-0.163,-1.036,36.955791,-0.7448454000000001,3.380452200000001,8.22767688,3.42055926,-40.00392756
3.48,348,0.066,-0.17800000000000002,-1.038,38.3308902,0.2291832000000001,2.4637194,8.61728832,3.42628884,-39.98100924
3.4899999999999998,349,0.042,-0.194,-1.04,39.3049188,1.2605076000000002,1.3750992,9.01835892,3.44347758,-39.96955008
3.5,350,0.032,-0.213,-1.035,40.04976420000001,2.5210152000000003,0.4010706,9.4251591,3.4663959,-39.9638205
3.51,351,0.04,-0.225,-1.026,40.7946096,3.4950437999999995,-0.4010706,9.84341844,3.50650296,-39.9638205
3.52,352,0.053,-0.229,-1.02,41.596750799999995,4.2398892,-1.0886202,10.26167778,3.5523396000000003,-39.96955008
3.53,353,0.067,-0.236,-1.01,42.4561878,4.4690724,-1.3750992,10.69139628,3.60390582,-39.97527966
3.54,354,0.083,-0.233,-1.01,43.0864416,4.297185,-1.432395,11.12684436,3.65547204,-39.98100924
3.55,355,0.091,-0.233,-1.003,44.06047020000001,3.6669312000000014,-1.3178034,11.5737516,3.70130868,-39.98673882
3.56,356,0.1,-0.236,-0.999,45.6074568,3.0939732,-1.0313244,12.03784758,3.74141574,-39.9924684
3.57,357,0.105,-0.246,-0.992,47.1544434,2.578311,-1.145916,12.51340272,3.77579322,-40.00392756
3.58,358,0.1,-0.261,-0.992,48.70143,2.0626488000000003,-1.3178034,13.011876179999998,3.80444112,-40.01538672
3.59,359,0.08800000000000001,-0.275,-0.982,49.7327544,1.3750992,-1.7188740000000002,13.51607922,3.82735944,-40.02684588
3.5999999999999996,360,0.078,-0.289,-0.977,50.82137460000001,1.145916,-2.1199446,14.03174142,3.85027776,-40.04976420000001
3.61,361,0.07200000000000001,-0.302,-0.977,51.2224452,1.6042823999999998,-2.6356068,14.54740362,3.87892566,-40.07268252
3.6199999999999997,362,0.069,-0.313,-0.968,52.19647379999999,2.5210152000000003,-3.0366774,15.074524979999998,3.9190327200000006,-40.10133042
3.63,363,0.064,-0.328,-0.959,52.9413192,2.7501984,-3.380452200000001,15.6131055,3.95913978,-40.12424874
3.6399999999999997,364,0.063,-0.344,-0.959,53.571573,2.3491278,-3.6669312000000014,16.15168602,3.99924684,-40.15862622
3.65,365,0.065,-0.348,-0.941,53.5142772,1.6615782,-3.7815227999999994,16.69599612,4.03362432,-40.1930037
3.6599999999999997,366,0.067,-0.354,-0.93,55.06126379999999,2.291832,-4.0680017999999984,17.251765380000002,4.07373138,-40.22738118
3.67,367,0.07200000000000001,-0.3720000000000001,-0.916,56.608250399999996,3.2085648,-4.1252976000000015,17.824723380000005,4.1252976000000015,-40.25602908
3.6799999999999997,368,0.073,-0.386,-0.906,56.3217714,4.1825934,-3.8961144,18.39768138,4.1825934,-40.27894740000001
3.69,369,0.077,-0.394,-0.906,55.9779966,4.6409598,-3.3231564,18.95918022,4.24561878,-40.30186572
3.6999999999999997,370,0.08,-0.399,-0.904,55.748813399999996,4.6409598,-2.6356068,19.53213822,4.30291458,-40.3075953
3.71,371,0.077,-0.402,-0.889,56.2644756,4.3544808,-1.432395,20.10509622,4.36021038,-40.3075953
3.7199999999999998,372,0.066,-0.402,-0.858,56.66554620000001,3.3231564,-0.2291832000000001,20.67805422,4.39458786,-40.30186572
3.73,373,0.062,-0.405,-0.846,57.983349600000004,2.578311,0.2291832000000001,21.26820096,4.42896534,-40.29040656
3.7399999999999998,374,0.071,-0.414,-0.865,59.1292656,2.7501984,0.3437748,21.86980686,4.45761324,-40.27894740000001
3.75,375,0.07,-0.418,-0.865,60.2178858,3.3231564,0.3437748,22.48287192,4.4977203,-40.26175866
3.76,376,0.061,-0.433,-0.8490000000000001,63.25456320000001,4.1252976000000015,0.1718874,23.12458488,4.54355694,-40.2502995
3.77,377,0.057,-0.453,-0.8590000000000001,63.88481700000001,4.010706000000001,0.1718874,23.777757,4.5836640000000015,-40.23311076
3.78,378,0.05,-0.458,-0.835,63.48374640000001,3.3231564,0.7448454000000001,24.42519954,4.62377106,-40.21019244
3.79,379,0.049,-0.469,-0.8370000000000001,64.5723666,3.7815227999999994,1.7188740000000002,25.07837166,4.65814854,-40.18154454
3.8,380,0.034,-0.477,-0.816,65.3745078,3.5523396000000003,2.9793816000000004,25.7544621,4.68106686,-40.14143748
3.81,381,0.055,-0.485,-0.813,66.463128,4.297185,4.2398892,26.43055254,4.70971476,-40.08414168
3.82,382,0.056,-0.4970000000000001,-0.81,66.749607,4.0680017999999984,5.0993262,27.11237256,4.7269035000000015,-40.0211163
3.83,383,0.058,-0.505,-0.8220000000000001,68.0674104,4.0680017999999984,5.443101,27.81138132,4.749821819999998,-39.95236134
3.84,384,0.061,-0.516,-0.807,70.1300592,4.3544808,5.1566220000000005,28.52757882,4.77274014,-39.88360638
3.8499999999999996,385,0.068,-0.521,-0.7859999999999999,70.7030172,4.1825934,4.3544808,29.24950590000001,4.79565846,-39.82631058
3.86,386,0.077,-0.526,-0.772,71.7343416,4.6409598,3.2658606,29.98289214,4.83003594,-39.77474436
3.8699999999999997,387,0.08900000000000001,-0.53,-0.752,73.45321560000002,5.72958,2.0626488000000003,30.73346712,4.87587258,-39.72890772
3.88,388,0.094,-0.5429999999999999,-0.742,74.9429064,6.016058999999999,1.2032118,31.49550126,4.93316838,-39.68880066
3.8899999999999997,389,0.096,-0.552,-0.738,76.2607098,6.1879464,1.2605076000000002,32.274724140000004,4.9847346,-39.64296402
3.9,390,0.08900000000000001,-0.5670000000000001,-0.723,77.17744259999998,5.958763200000001,2.1772404,33.06540618,5.03630082,-39.591397799999996
3.9099999999999997,391,0.071,-0.585,-0.727,78.5525418,5.9014674000000005,3.9534102,33.86754738,5.0706783,-39.52264284
3.92,392,0.057,-0.618,-0.735,80.50059900000002,6.3025379999999975,6.016058999999999,34.692606899999994,5.0993262,-39.43669914
3.9299999999999997,393,0.031,-0.644,-0.721,81.5892192,6.3598338,7.2192707999999985,35.52912558,5.1222445200000015,-39.33929628
3.94,394,0.017,-0.664,-0.695,83.0216142,7.3911582,7.7922288,36.37710342000001,5.14516284,-39.23616384
3.9499999999999997,395,0.009000000000000001,-0.684,-0.693,83.1362058,7.2765666,8.021412000000002,37.23654042,5.1566220000000005,-39.12157224
3.96,396,0.015,-0.6970000000000001,-0.669,83.4799806,6.760904399999999,8.136003599999999,38.09597742,5.17381074,-39.018439799999996
3.9699999999999998,397,0.041,-0.708,-0.6609999999999999,84.2821218,7.333862400000001,7.9641161999999985,38.961144,5.19099948,-38.9038482
3.98,398,0.07200000000000001,-0.721,-0.636,84.8550798,7.7922288,7.906820400000001,39.83204016,5.20818822,-38.79498618
3.9899999999999998,399,0.092,-0.733,-0.628,86.0009958,8.479778399999999,8.078707799999998,40.71439548,5.231106540000001,-38.67466500000001
4.0,400,0.104,-0.7509999999999999,-0.615,88.06364459999998,9.568398599999998,8.479778399999999,41.62539870000001,5.25975444,-38.54288466000001
4.01,401,0.101,-0.772,-0.603,88.80849,9.8548776,9.1100322,42.5421315,5.2826727600000005,-38.41110432
4.02,402,0.087,-0.8,-0.602,88.4647152,9.6256944,10.313244,43.44740514,5.29413192,-38.26213524
4.03,403,0.063,-0.815,-0.586,88.4074194,8.59437,11.516455800000001,44.35840836,5.2826727600000005,-38.11889574
4.04,404,0.055,-0.828,-0.568,88.7511942,8.8235532,12.261301199999998,45.27514116,5.2712136,-37.96419708000001
4.05,405,0.062,-0.8340000000000001,-0.5539999999999999,88.5793068,9.224623800000002,12.4331886,46.19187396,5.25402486,-37.80949842
4.06,406,0.059,-0.843,-0.534,89.3241522,8.59437,12.4904844,47.11433634000001,5.231106540000001,-37.66052934
4.07,407,0.062,-0.85,-0.511,89.3241522,8.9954406,12.5477802,48.03106913999999,5.2139178,-37.50583068
4.08,408,0.071,-0.85,-0.499,88.17823620000001,8.9954406,12.318597,48.94207236,5.19099948,-37.35113202
4.09,409,0.08199999999999999,-0.892,-0.479,89.55333540000002,8.880849000000003,13.349921400000001,49.86453474,5.1566220000000005,-37.19070377999999
4.1,410,0.078,-0.884,-0.456,86.63124959999998,10.1986524,14.037471,50.76980838000001,5.1222445200000015,-37.01881638
4.109999999999999,411,0.065,-0.875,-0.443,87.6052782,11.4018642,15.0114996,51.67508202000001,5.08786704,-36.83546982
4.12,412,0.055,-0.857,-0.445,86.45936219999999,12.891555,14.896907999999998,52.56889650000001,5.05348956,-36.63493452
4.13,413,0.048,-0.855,-0.42,87.6052782,13.8082878,15.0687954,53.47417014,5.02484166,-36.42866964
4.14,414,0.033,-0.873,-0.414,87.54798240000002,12.891555,15.4125702,54.37944378,4.9847346,-36.22813434
4.1499999999999995,415,0.036000000000000004,-0.877,-0.411,86.51665799999998,10.3705398,16.042824000000003,55.27898784,4.921709219999999,-36.04478778
4.16,416,0.045,-0.888,-0.4,85.54262940000002,9.5111028,16.042824000000003,56.16134316,4.85295426,-35.87290038
4.17,417,0.073,-0.8959999999999999,-0.38,84.2821218,10.3705398,15.4125702,57.02650974,4.78992888,-35.695283399999994
4.18,418,0.09,-0.884,-0.363,83.4226848,10.599723,14.266654199999998,57.89167632,4.73263308,-35.52339600000001
4.1899999999999995,419,0.098,-0.8959999999999999,-0.369,82.1048814,10.255948199999999,13.8082878,58.73392457999999,4.675337279999999,-35.36296776
4.2,420,0.084,-0.909,-0.349,81.64651500000002,10.3705398,14.896907999999998,59.58763199999999,4.612311900000001,-35.19108036
4.21,421,0.08,-0.899,-0.341,80.95896540000003,10.7716104,16.157415599999997,60.4184211,4.53209778,-35.01346338
4.22,422,0.075,-0.902,-0.328,81.1308528,9.8548776,17.761698000000006,61.25493978000001,4.43469492,-34.8358464
4.2299999999999995,423,0.063,-0.893,-0.312,80.5578948,9.8548776,18.1054728,62.08572888,4.3315624800000005,-34.658229420000005
4.24,424,0.062,-0.8909999999999999,-0.322,79.87034519999997,10.4851314,17.761698000000006,62.9107884,4.22843004,-34.47488286
4.25,425,0.064,-0.902,-0.305,79.46927459999998,9.740286,16.7876694,63.73584792000001,4.131027179999999,-34.30872504
4.26,426,0.07,-0.932,-0.311,78.6671334,8.4224826,16.157415599999997,64.5437187,4.02789474,-34.15402638
4.27,427,0.071,-0.949,-0.29,79.29738719999997,7.1046792000000005,16.272007199999994,65.35731906,3.9190327200000006,-34.016516460000005
4.28,428,0.063,-0.961,-0.265,79.18279559999998,5.1566220000000005,16.673077799999998,66.17091941999999,3.79871154,-33.89619528
4.29,429,0.058,-0.954,-0.242,76.31800559999998,5.3858052,16.7303736,66.95014230000001,3.67266078,-33.7758741
4.3,430,0.043,-0.944,-0.252,75.63045600000002,5.9014674000000005,16.7303736,67.73509476,3.54661002,-33.64982334
4.31,431,0.04,-0.938,-0.219,75.8596392,6.760904399999999,16.959556799999998,68.50858806,3.42628884,-33.518043
4.32,432,0.03,-0.959,-0.192,72.82296179999999,6.2452422,17.303331600000003,69.25916304,3.2945085,-33.39199224
4.33,433,0.026,-0.968,-0.195,70.87490460000002,6.875496000000001,16.902261,69.98109012,3.1627281600000003,-33.265941479999995
4.34,434,0.028,-0.961,-0.203,69.6716928,8.4224826,15.0114996,70.69728762,3.05959572,-33.12843156
4.35,435,0.035,-0.989,-0.196,68.2965936,11.3445684,14.667724800000002,71.40775554,2.96219286,-32.973732899999995
4.36,436,0.044,-1.005,-0.189,67.0933818,11.917526400000002,14.896907999999998,72.09530514000002,2.85906042,-32.80757508
4.37,437,0.046,-1.016,-0.212,64.97343719999999,12.261301199999998,14.7823164,72.75993642,2.76165756,-32.641417260000004
4.38,438,0.046,-1.021,-0.199,64.457775,12.605076,14.896907999999998,73.41883812,2.65852512,-32.46952986
4.39,439,0.043,-1.008,-0.17,61.7648724,10.886202,14.0947668,74.0548215,2.5611222600000003,-32.32056078
4.3999999999999995,440,0.033,-0.988,-0.14800000000000002,57.6968706,8.307891,13.5791046,74.65069782,2.45226024,-32.2002396
4.41,441,0.028,-0.984,-0.163,53.456981400000004,7.5630456000000015,12.9488508,75.2007375,2.35485738,-32.09137758
4.42,442,0.028,-0.956,-0.17800000000000002,47.9565846,9.6256944,11.2872726,75.68775179999999,2.26891368,-31.965326819999994
4.43,443,0.04,-0.961,-0.19,47.2117392,11.6310474,10.3705398,76.1747661,2.20015872,-31.82208732
4.4399999999999995,444,0.038,-0.981,-0.181,48.2430636,11.2872726,10.3705398,76.66750998,2.12567418,-31.6845774
4.45,445,0.023,-0.99,-0.154,46.6387812,9.453807000000001,10.599723,77.14879470000002,2.04546006,-31.564256220000004
4.46,446,0.017,-0.995,-0.179,43.3729206,9.167328,10.7143146,77.58997236,1.96524594,-31.44966462
4.47,447,0.021,-1.004,-0.194,40.4508348,7.5057497999999985,11.0580894,78.00823170000002,1.87357266,-31.352261760000005
4.4799999999999995,448,0.029,-1.004,-0.18,37.9298196,4.5263682,10.6570188,78.39211356000001,1.78189938,-31.27777722
4.49,449,0.028,-1.006,-0.152,37.1276784,1.0886202,10.886202,78.77026584,1.6844965200000002,-31.24339974
4.5,450,0.016,-0.994,-0.124,33.3461556,-1.432395,10.7143146,79.11977021999998,1.5756344999999998,-31.23767016
4.51,451,0.001,-0.995,-0.104,28.0176462,-1.7761698,10.6570188,79.40624921999998,1.47250206,-31.23194058
4.52,452,0.005,-0.99,-0.11,24.4653066,-1.4896908000000002,9.453807000000001,79.65262116,1.38082878,-31.226211
4.53,453,0.01,-1.0,-0.118,23.9496444,-1.0886202,8.3651868,79.89899310000001,1.29488508,-31.22048142
4.54,454,0.008,-1.021,-0.125,23.9496444,0.6302538000000001,8.136003599999999,80.14536504,1.22040054,-31.197563100000004
4.55,455,-0.001,-1.039,-0.126,23.0902074,-0.3437748,7.6776372,80.38027782,1.14018642,-31.18610394
4.56,456,-0.01,-1.046,-0.125,22.6891368,-1.432395,7.0473834,80.61519059999998,1.07143146,-31.18610394
4.57,457,-0.023,-1.032,-0.13699999999999998,21.199446,-3.9534102,6.9327918,80.82718506,1.0026765,-31.21475184
4.58,458,-0.039,-1.01,-0.141,20.798375399999998,-7.0473834,6.589017,81.03917952,0.92819196,-31.27204764
4.59,459,-0.045,-0.995,-0.102,21.829699800000004,-9.167328,5.958763200000001,81.26263314,0.8594370000000001,-31.352261760000005
4.6,460,-0.041,-0.99,-0.047,22.5745452,-10.5424272,5.443101,81.50900508000002,0.7906820400000001,-31.443935040000003
4.61,461,-0.05,-0.993,-0.031,21.5432208,-10.255948199999999,5.042030400000002,81.72672911999999,0.72765666,-31.53560832
4.62,462,-0.064,-0.999,-0.026,20.511896399999998,-7.5630456000000015,3.4377480000000005,81.93872358,0.6875496,-31.60436328
4.63,463,-0.064,-1.008,-0.027000000000000003,20.912967,-1.8907613999999997,1.6042823999999998,82.15071803999999,0.6703608600000001,-31.62155202000001
4.64,464,-0.058,-1.018,-0.011,21.0848544,1.4896908000000002,1.7188740000000002,82.3627125,0.6589017,-31.5986337
4.6499999999999995,465,-0.046,-1.025,-0.032,18.8503182,4.583664,2.3491278,82.57470696,0.62452422,-31.55279706
4.66,466,-0.038,-1.038,-0.054000000000000006,17.9908812,6.1879464,3.3231564,82.75805352,0.6016058999999999,-31.484042100000003
4.67,467,-0.028,-1.034,-0.063,18.9649098,6.6463128000000005,4.0680017999999984,82.94712966,0.56722842,-31.409557560000003
4.68,468,-0.021,-1.012,-0.028,20.9702628,5.6722842,5.0993262,83.15912412,0.52712136,-31.346532180000004
4.6899999999999995,469,-0.017,-0.988,-0.01,19.938938399999998,4.5263682,6.016058999999999,83.36538900000002,0.47555514,-31.294965959999995
4.7,470,-0.021,-0.977,-0.015,18.907614000000002,3.8388186,6.130650599999999,83.57165388,0.41252976,-31.24912932
4.71,471,-0.036000000000000004,-0.99,-0.036000000000000004,18.907614000000002,3.151269,5.844171599999999,83.76645959999998,0.35523396,-31.20902226
4.72,472,-0.044,-1.009,-0.041,20.05353,3.4377480000000005,5.5576926,83.9669949,0.30366774,-31.168915200000004
4.7299999999999995,473,-0.049,-1.031,-0.034,20.1108258,3.3231564,5.2139178,84.17325978,0.25783110000000004,-31.12880814
4.74,474,-0.059,-1.042,-0.039,19.8243468,3.6096354,4.4690724,84.37379508000002,0.21772404,-31.08297150000001
4.75,475,-0.063,-1.039,-0.045,19.938938399999998,4.1252976000000015,3.4950437999999995,84.58578954,0.1718874,-31.03713486
4.76,476,-0.06,-1.03,-0.041,20.454600600000006,5.042030400000002,2.5210152000000003,84.79205442,0.15469866,-30.985568640000004
4.77,477,-0.052000000000000005,-1.016,-0.045,20.05353,6.0733548,1.5469866,84.99831929999998,0.14323950000000002,-30.922543260000005
4.78,478,-0.046,-0.995,-0.05,18.7930224,7.0473834,0.5156622000000001,85.18739544,0.14323950000000002,-30.84805872
4.79,479,-0.038,-0.981,-0.029,17.7044022,7.5630456000000015,0.286479,85.36501242,0.14323950000000002,-30.773574180000004
4.8,480,-0.041,-0.983,-0.024,17.0168526,7.0473834,0.7448454000000001,85.54835898,0.13178034,-30.69908964
4.81,481,-0.05,-0.992,-0.017,16.042824000000003,6.760904399999999,1.432395,85.70878722,0.12032118,-30.63033468
4.82,482,-0.056,-1.007,-0.013,14.9542038,6.6463128000000005,2.2345362,85.86348588000001,0.10313244,-30.56157972
4.83,483,-0.055,-1.012,-0.005,14.7823164,6.6463128000000005,2.9220857999999996,86.01245496,0.07448454,-30.49282476
4.84,484,-0.048,-1.02,0.002,14.9542038,7.161975,3.4950437999999995,86.16142404,0.04583664,-30.41834022
4.85,485,-0.043,-1.017,0.011,14.5531332,8.307891,3.380452200000001,86.32185228,0.00572958,-30.33239652
4.86,486,-0.039,-1.017,0.013,14.152062599999999,8.9954406,2.9220857999999996,86.46509178,-0.01145916,-30.24072324
4.87,487,-0.033,-1.014,0.016,13.407217200000002,8.4224826,2.8074942000000003,86.60260170000002,-0.04010706,-30.15477954
4.88,488,-0.024,-1.007,0.015,12.3758928,6.5317212,3.0366774,86.72865246,-0.06302537999999999,-30.086024580000004
4.89,489,-0.016,-1.004,0.018000000000000002,11.229976800000001,3.5523396000000003,3.2085648,86.84324405999998,-0.09740286,-30.04591752
4.8999999999999995,490,-0.02,-1.005,0.025,10.026765,0.4583664000000001,3.2085648,86.97502440000002,-0.13750992,-30.04018794000001
4.91,491,-0.035,-1.021,0.026,9.453807000000001,-1.3750992,2.7501984,87.07242726,-0.16042824,-30.051647100000004
4.92,492,-0.046,-1.04,0.029,9.0527364,-1.8334656000000005,2.6356068,87.16410053999998,-0.18907614,-30.06883584
4.93,493,-0.045,-1.045,0.035,8.9381448,-1.4896908000000002,2.4637194,87.25577381999999,-0.21199446,-30.086024580000004
4.9399999999999995,494,-0.041,-1.032,0.035,8.7662574,-0.4583664000000001,2.0053530000000004,87.34171752,-0.23491278,-30.086024580000004
4.95,495,-0.045,-1.019,0.032,7.3911582,0.6302538000000001,1.3178034,87.46776828,-0.27501984,-30.086024580000004
4.96,496,-0.052000000000000005,-1.003,0.034,6.3598338,1.3750992,0.9167328,87.53079366,-0.28647900000000004,-30.06883584
4.97,497,-0.053,-0.999,0.038,5.7868758000000025,1.9480572,0.9740286,87.58808946,-0.29793816,-30.04591752
4.9799999999999995,498,-0.052000000000000005,-1.002,0.036000000000000004,3.7815227999999994,2.1199446,1.0886202,87.62819652,-0.30366774,-30.02872878
4.99,499,-0.049,-1.008,0.03,1.8907613999999997,1.9480572,1.3750992,87.64538526,-0.32085648,-30.00581046
5.0,500,-0.048,-1.018,0.035,0.6302538000000001,1.432395,1.5469866,87.77143602000002,-0.41825934,-30.00581046
5.01,501,-0.048,-1.035,0.032,-0.057295800000000015,1.145916,1.6615782,87.77143602000002,-0.43544808,-29.994351300000005
5.02,502,-0.05,-1.046,0.024,-0.5156622000000001,1.432395,2.3491278,87.76570644,-0.4583664000000001,-29.97716256
5.03,503,-0.056,-1.041,0.03,-0.572958,1.7761698,2.578311,87.75997686000002,-0.48128472,-29.95997382
5.04,504,-0.06,-1.03,0.034,-1.7188740000000002,1.5469866,2.3491278,87.74278812,-0.5042030399999999,-29.94278508
5.05,505,-0.059,-1.018,0.038,-2.7501984,1.145916,2.0053530000000004,87.77716559999998,-0.5786875800000001,-29.9370555
5.06,506,-0.055,-1.008,0.037000000000000005,-3.0366774,0.9740286,1.7188740000000002,87.74851770000002,-0.59587632,-29.92559634
5.07,507,-0.051,-1.011,0.04,-2.7501984,0.8594370000000001,1.6042823999999998,87.7198698,-0.61306506,-29.91986676
5.08,508,-0.052000000000000005,-1.021,0.042,-2.9793816000000004,0.0,2.0053530000000004,87.69122189999999,-0.6302538000000001,-29.91986676
5.09,509,-0.058,-1.028,0.04,-3.3231564,-0.8594370000000001,2.291832,87.65684442,-0.65317212,-29.92559634
5.1,510,-0.061,-1.026,0.046,-3.380452200000001,-0.8594370000000001,2.4637194,87.70268106,-0.72765666,-29.94278508
5.11,511,-0.059,-1.018,0.054000000000000006,-2.6929026,-0.1718874,2.3491278,87.67403316,-0.75630456,-29.94851466
5.12,512,-0.058,-1.008,0.057,-2.578311,0.0,2.1199446,87.65111484,-0.7734933,-29.94851466
5.13,513,-0.055,-0.998,0.06,-2.86479,-0.5156622000000001,1.6615782,87.61673736,-0.7906820400000001,-29.95424424
5.14,514,-0.05,-0.995,0.062,-2.9793816000000004,-0.9740286,1.2032118,87.58808946,-0.8078707799999998,-29.95997382
5.1499999999999995,515,-0.043,-0.997,0.066,-2.86479,-1.7761698,1.0886202,87.66257399999998,-0.8479778399999999,-29.994351300000005
5.16,516,-0.043,-1.008,0.073,-2.86479,-2.86479,1.2605076000000002,87.6339261,-0.8594370000000001,-30.022999200000005
5.17,517,-0.044,-1.021,0.075,-3.724227,-3.2658606,1.3750992,87.59954862,-0.87662574,-30.057376680000004
5.18,518,-0.042,-1.033,0.067,-3.8961144,-3.6669312000000014,1.6042823999999998,87.55944156000002,-0.89381448,-30.09175416
5.1899999999999995,519,-0.044,-1.026,0.061,-3.151269,-4.1825934,1.5469866,87.53079366,-0.91100322,-30.13186122
5.2,520,-0.053,-1.007,0.064,-2.7501984,-4.8128472,1.145916,87.57663029999998,-0.95111028,-30.18915702
5.21,521,-0.061,-0.993,0.068,-2.86479,-4.9274388,0.8021411999999999,87.54798240000002,-0.96256944,-30.24072324
5.22,522,-0.061,-0.991,0.069,-3.2085648,-5.0993262,0.6875496,87.5193345,-0.96829902,-30.29228946
5.2299999999999995,523,-0.056,-0.995,0.065,-3.724227,-5.3858052,0.6302538000000001,87.47922744,-0.97975818,-30.34385568
5.24,524,-0.051,-1.002,0.059,-4.1825934,-5.6149884000000005,0.572958,87.43912037999998,-0.98548776,-30.40115148
5.25,525,-0.048,-1.007,0.052000000000000005,-4.5263682,-5.844171599999999,0.5156622000000001,87.44484996,-1.00840608,-30.46417686
5.26,526,-0.052000000000000005,-1.011,0.048,-4.6982556,-5.958763200000001,0.572958,87.39901332,-1.01413566,-30.52147266
5.27,527,-0.053,-1.01,0.048,-4.6409598,-5.958763200000001,0.6302538000000001,87.35317668,-1.0255948199999998,-30.58449804
5.28,528,-0.051,-1.007,0.052000000000000005,-4.1825934,-5.6722842,0.572958,87.31306962,-1.0313244,-30.64179384
5.29,529,-0.055,-1.003,0.055,-3.7815227999999994,-5.443101,0.4583664000000001,87.27296256,-1.03705398,-30.693360060000003
5.3,530,-0.062,-0.998,0.058,-3.6096354,-5.3285094000000015,0.286479,87.30734004,-1.07716104,-30.75638544000001
5.31,531,-0.063,-0.997,0.058,-3.6669312000000014,-5.042030400000002,0.0,87.27296256,-1.07716104,-30.80795166
5.32,532,-0.059,-0.997,0.057,-3.6669312000000014,-4.8701430000000006,-0.1718874,87.23858508000002,-1.07716104,-30.8537883
5.33,533,-0.058,-1.001,0.053,-3.6669312000000014,-5.0993262,-0.2291832000000001,87.20420759999998,-1.07716104,-30.905354520000003
5.34,534,-0.06,-1.003,0.051,-3.4950437999999995,-5.3858052,-0.1718874,87.16983012,-1.07716104,-30.96265032
5.35,535,-0.063,-1.008,0.056,-3.0939732,-5.042030400000002,-0.1718874,87.21566676,-1.10580894,-31.01994612
5.36,536,-0.057,-1.008,0.058,-2.7501984,-4.1825934,-0.1718874,87.18701886,-1.10580894,-31.06005318
5.37,537,-0.054000000000000006,-1.001,0.056,-2.86479,-3.2085648,-0.2291832000000001,87.15837096,-1.10580894,-31.09443066
5.38,538,-0.057,-0.992,0.057,-2.86479,-2.4637194,-0.3437748,87.12972306,-1.10007936,-31.11734898000001
5.39,539,-0.058,-0.991,0.06,-2.4637194,-1.8334656000000005,-0.3437748,87.10680474,-1.10007936,-31.1402673
5.3999999999999995,540,-0.061,-0.999,0.062,-1.6615782,-1.6615782,-0.11459160000000004,87.30161045999998,-1.18602306,-31.18037436
5.41,541,-0.062,-1.009,0.066,-1.0313244,-1.9480572,0.11459160000000004,87.29015129999998,-1.18602306,-31.20329268
5.42,542,-0.062,-1.013,0.07,-0.5156622000000001,-2.0626488000000003,0.2291832000000001,87.28442172,-1.19175264,-31.22048142
5.43,543,-0.059,-1.011,0.073,-0.286479,-1.3750992,0.057295800000000015,87.28442172,-1.19175264,-31.23767016
5.4399999999999995,544,-0.058,-1.005,0.075,-0.6302538000000001,-0.8021411999999999,-0.2291832000000001,87.27869214,-1.19175264,-31.24339974
5.45,545,-0.054000000000000006,-1.001,0.07200000000000001,-0.8594370000000001,-0.5156622000000001,-0.4010706,87.62246694,-1.2891555000000001,-31.30069554
5.46,546,-0.051,-1.003,0.067,-0.9740286,-0.4010706,-0.5156622000000001,87.61100778,-1.28342592,-31.30069554
5.47,547,-0.053,-1.009,0.059,-1.0886202,-0.2291832000000001,-0.3437748,87.59954862,-1.27769634,-31.30642512
5.4799999999999995,548,-0.055,-1.015,0.052000000000000005,-1.3178034,0.0,-0.286479,87.58808946,-1.27196676,-31.30642512
5.49,549,-0.054000000000000006,-1.014,0.049,-1.2605076000000002,0.572958,-0.1718874,87.57663029999998,-1.27196676,-31.30069554
5.5,550,-0.056,-1.008,0.049,-1.0886202,1.0886202,-0.1718874,87.75997686000002,-1.35218088,-31.3121547
5.51,551,-0.056,-1.003,0.048,-0.8021411999999999,1.2605076000000002,-0.286479,87.75424728,-1.3464512999999998,-31.30069554
5.52,552,-0.058,-1.001,0.044,-0.3437748,1.3178034,-0.3437748,87.74851770000002,-1.3464512999999998,-31.28923638
5.53,553,-0.06,-0.999,0.039,-0.4010706,1.2605076000000002,-0.1718874,87.74278812,-1.3464512999999998,-31.27204764
5.54,554,-0.055,-1.001,0.04,-0.2291832000000001,1.4896908000000002,-0.057295800000000015,87.74278812,-1.34072172,-31.26058848000001
5.55,555,-0.05,-1.004,0.041,-0.11459160000000004,1.432395,-0.057295800000000015,88.0063488,-1.432395,-31.2835068
5.56,556,-0.043,-1.01,0.039,-0.5156622000000001,1.2032118,-0.11459160000000004,88.00061922,-1.432395,-31.27204764
5.57,557,-0.041,-1.011,0.039,-1.0886202,1.2032118,-0.1718874,87.98916005999996,-1.42666542,-31.26058848000001
5.58,558,-0.044,-1.008,0.038,-1.3178034,1.2032118,-0.286479,87.9777009,-1.42666542,-31.24339974
5.59,559,-0.045,-1.007,0.039,-1.145916,1.2605076000000002,-0.4010706,87.96624174,-1.4209358399999998,-31.23194058
5.6,560,-0.047,-1.007,0.043,-0.8021411999999999,1.4896908000000002,-0.5156622000000001,88.09802207999998,-1.4610428999999998,-31.23767016
5.61,561,-0.049,-1.006,0.048,-0.11459160000000004,1.7761698,-0.7448454000000001,88.09802207999998,-1.45531332,-31.22048142
5.62,562,-0.057,-1.008,0.05,0.0,2.2345362,-1.0313244,88.09802207999998,-1.44385416,-31.197563100000004
5.63,563,-0.062,-1.009,0.052000000000000005,-0.1718874,2.9793816000000004,-1.2032118,88.0922925,-1.432395,-31.168915200000004
5.64,564,-0.059,-1.011,0.051,-0.4583664000000001,3.8388186,-1.2605076000000002,88.08656292,-1.41520626,-31.12880814
5.6499999999999995,565,-0.056,-1.011,0.045,-0.9740286,4.1252976000000015,-1.3750992,88.13239956,-1.42666542,-31.09443066
5.66,566,-0.051,-1.016,0.044,-1.0886202,4.297185,-1.2605076000000002,88.11521081999999,-1.41520626,-31.054323600000004
5.67,567,-0.042,-1.024,0.045,-0.9740286,4.5263682,-0.8594370000000001,88.10375166,-1.4037471,-31.00848696
5.68,568,-0.036000000000000004,-1.021,0.044,-1.0313244,4.8128472,-0.7448454000000001,88.0922925,-1.39801752,-30.96265032
5.6899999999999995,569,-0.031,-1.011,0.045,-1.4896908000000002,4.6409598,-0.8594370000000001,88.07510376,-1.38655836,-30.91681368
5.7,570,-0.028,-1.002,0.043,-1.7188740000000002,4.1825934,-0.9167328,88.10948124000002,-1.3750992,-30.88816578
5.71,571,-0.025,-1.0,0.04,-2.0053530000000004,3.380452200000001,-0.9167328,88.0922925,-1.36936962,-30.8537883
5.72,572,-0.024,-1.003,0.036000000000000004,-2.2345362,2.6356068,-0.9167328,88.0636446,-1.3579104599999998,-30.83086998
5.7299999999999995,573,-0.022,-1.01,0.036000000000000004,-2.4064236,1.7188740000000002,-0.8021411999999999,88.04072628,-1.35218088,-30.81368124
5.74,574,-0.028,-1.016,0.035,-2.6929026,0.4010706,-0.572958,88.01207838,-1.3464512999999998,-30.80795166
5.75,575,-0.038,-1.015,0.033,-3.2658606,-0.9740286,-0.3437748,88.03499670000002,-1.3579104599999998,-30.8251404
5.76,576,-0.043,-1.009,0.032,-3.6669312000000014,-1.6615782,-0.1718874,88.00061922,-1.35218088,-30.84232914
5.77,577,-0.045,-1.003,0.033,-3.6096354,-2.0053530000000004,-0.057295800000000015,87.96624174,-1.35218088,-30.86524746
5.78,578,-0.045,-0.999,0.036000000000000004,-3.4377480000000005,-1.8907613999999997,-0.1718874,87.93186426,-1.35218088,-30.8824362
5.79,579,-0.045,-1.0,0.04,-3.2658606,-1.6042823999999998,-0.3437748,87.89748678,-1.3464512999999998,-30.89962494
5.8,580,-0.046,-1.004,0.04,-3.4377480000000005,-1.2032118,-0.4010706,87.93186426,-1.36936962,-30.922543260000005
5.81,581,-0.045,-1.006,0.039,-3.724227,-0.8594370000000001,-0.5156622000000001,87.89748678,-1.36364004,-30.93400242
5.82,582,-0.044,-1.006,0.042,-3.8388186,-0.6875496,-0.572958,87.85737972,-1.3579104599999998,-30.93973200000001
5.83,583,-0.04,-1.009,0.043,-3.8388186,-0.6302538000000001,-0.4583664000000001,87.81727266,-1.35218088,-30.94546158
5.84,584,-0.043,-1.009,0.042,-3.724227,-0.8021411999999999,-0.4010706,87.77716559999998,-1.3464512999999998,-30.95692074
5.85,585,-0.046,-1.007,0.045,-3.6096354,-1.0313244,-0.1718874,87.82873182,-1.3750992,-30.97983906
5.86,586,-0.046,-1.005,0.045,-3.4377480000000005,-1.3178034,-0.11459160000000004,87.79435434000001,-1.36936962,-30.99129822
5.87,587,-0.045,-1.004,0.047,-3.380452200000001,-1.3750992,-0.11459160000000004,87.75997686000002,-1.36936962,-31.00275738
5.88,588,-0.044,-1.002,0.049,-3.4377480000000005,-1.2605076000000002,-0.057295800000000015,87.72559937999998,-1.36936962,-31.01994612
5.89,589,-0.049,-1.006,0.044,-3.5523396000000003,-1.145916,-0.11459160000000004,87.68549232000002,-1.36936962,-31.03140528
5.8999999999999995,590,-0.052000000000000005,-1.01,0.043,-3.5523396000000003,-0.9740286,0.0,87.74278812,-1.40947668,-31.04859402
5.91,591,-0.053,-1.013,0.041,-3.2658606,-0.4583664000000001,0.2291832000000001,87.70841064,-1.40947668,-31.054323600000004
