TimeStamp(s),FrameCounter,AccX,AccY,AccZ,GyrX,GyrY,GyrZ,EulerX,EulerY,EulerZ
0.01,1,-0.013999999999999999,-0.977,0.242,-0.1718874,0.286479,0.0,91.25502066,-0.62452422,-30.75638544000001
0.02,2,-0.013999999999999999,-0.9690000000000001,0.289,-0.40107059999999994,0.286479,0.0,91.24929108,-0.62452422,-30.75638544000001
0.03,3,-0.015,-0.9690000000000001,0.287,-0.40107059999999994,0.11459160000000004,0.0,91.24929108,-0.62452422,-30.75638544000001
0.04,4,-0.013999999999999999,-0.97,0.28600000000000003,-0.2291832000000001,0.057295800000000015,0.0,91.2435615,-0.62452422,-30.75638544000001
0.05,5,-0.013999999999999999,-0.97,0.285,-0.11459160000000004,0.0,0.0,92.72752272,-0.61879464,-30.71627838
0.060000000000000005,6,-0.013999999999999999,-0.9690000000000001,0.285,-0.057295800000000015,-0.2291832000000001,0.0,92.72752272,-0.61879464,-30.71627838
0.06999999999999999,7,-0.013999999999999999,-0.97,0.28800000000000003,-0.057295800000000015,-0.5156622000000001,0.0,92.72752272,-0.61879464,-30.72200796000001
0.08,8,-0.015,-0.968,0.28600000000000003,-0.057295800000000015,-0.6302538000000001,0.0,92.72179314,-0.61879464,-30.73346712
0.09,9,-0.013999999999999999,-0.9690000000000001,0.285,-0.057295800000000015,-0.7448454000000001,0.0,92.72179314,-0.61306506,-30.7391967
0.09999999999999999,10,-0.013999999999999999,-0.9690000000000001,0.28600000000000003,-0.1718874,-0.6302538000000001,0.0,93.1629708,-0.61306506,-30.73346712
0.11,11,-0.013999999999999999,-0.9690000000000001,0.287,-0.2291832000000001,-0.6875496,0.0,93.15724122,-0.61306506,-30.7391967
0.12,12,-0.013999999999999999,-0.9690000000000001,0.28600000000000003,-0.1718874,-0.8594370000000001,0.0,93.15724122,-0.61306506,-30.75065586
0.13,13,-0.013999999999999999,-0.9690000000000001,0.28600000000000003,-0.2291832000000001,-1.0313244000000001,0.0,93.15151164,-0.61306506,-30.76211502
0.14,14,-0.013000000000000001,-0.97,0.284,-0.2291832000000001,-1.2605076000000002,0.0,93.15151164,-0.61306506,-30.773574180000004
0.15000000000000002,15,-0.013000000000000001,-0.97,0.284,-0.11459160000000004,-1.2605076000000002,0.0,93.51247518,-0.6016058999999999,-30.77930376
0.16,16,-0.012,-0.97,0.28300000000000003,-0.057295800000000015,-1.145916,0.0,93.51247518,-0.6016058999999999,-30.79076292
0.17,17,-0.012,-0.97,0.284,0.0,-1.145916,0.057295800000000015,93.51247518,-0.6016058999999999,-30.80222208
0.18000000000000002,18,-0.015,-0.9690000000000001,0.282,0.11459160000000004,-1.2605076000000002,0.0,93.51247518,-0.6016058999999999,-30.81368124
0.19,19,-0.013000000000000001,-0.968,0.285,0.057295800000000015,-1.3178034,0.0,93.51247518,-0.6016058999999999,-30.8251404
0.2,20,-0.013999999999999999,-0.9690000000000001,0.285,0.11459160000000004,-1.3750992,0.0,93.85052040000001,-0.59587632,-30.83086998
0.21000000000000002,21,-0.013000000000000001,-0.9690000000000001,0.28600000000000003,0.057295800000000015,-1.432395,0.0,93.85052040000001,-0.59587632,-30.84805872
0.22,22,-0.012,-0.968,0.28600000000000003,0.11459160000000004,-1.3178034,0.0,93.85052040000001,-0.59587632,-30.85951788
0.23,23,-0.012,-0.968,0.287,0.0,-1.145916,0.0,93.85052040000001,-0.59587632,-30.87097704
0.24000000000000002,24,-0.012,-0.97,0.287,0.0,-0.8594370000000001,0.0,93.85052040000001,-0.59587632,-30.882436199999997
0.25,25,-0.013000000000000001,-0.97,0.287,0.057295800000000015,-0.6302538000000001,0.0,94.32607554,-0.59014674,-30.87670662
0.26,26,-0.013999999999999999,-0.9690000000000001,0.292,0.0,-0.7448454000000001,0.0,94.32607554,-0.59014674,-30.882436199999997
0.27,27,-0.015,-0.971,0.294,-0.1718874,-0.9167328000000001,0.0,94.32607554,-0.59014674,-30.89389536
0.28,28,-0.013000000000000001,-0.9690000000000001,0.294,-0.2291832000000001,-0.9167328000000001,0.0,94.32607554,-0.59014674,-30.905354520000003
0.29000000000000004,29,-0.011000000000000001,-0.9690000000000001,0.294,-0.2291832000000001,-0.5156622000000001,-0.057295800000000015,94.32034596,-0.5844171599999999,-30.905354520000003
0.3,30,-0.011000000000000001,-0.968,0.28800000000000003,-0.2291832000000001,0.0,0.0,95.00789556,-0.5786875800000001,-30.89389536
0.31,31,-0.012,-0.97,0.287,-0.1718874,0.1718874,0.0,95.00216598,-0.5786875800000001,-30.89389536
0.32,32,-0.013999999999999999,-0.9690000000000001,0.289,-0.2291832000000001,0.286479,0.0,95.00216598,-0.5786875800000001,-30.88816578
0.33,33,-0.015,-0.9690000000000001,0.29100000000000004,-0.40107059999999994,0.057295800000000015,0.0,94.99643640000001,-0.5729580000000001,-30.88816578
0.34,34,-0.013999999999999999,-0.968,0.28800000000000003,-0.4583664000000001,0.0,0.0,94.99070682,-0.5729580000000001,-30.88816578
0.35000000000000003,35,-0.013000000000000001,-0.9690000000000001,0.28800000000000003,-0.4583664000000001,0.2291832000000001,0.0,95.31156330000002,-0.56722842,-30.882436199999997
0.36000000000000004,36,-0.012,-0.97,0.285,-0.3437748,0.1718874,0.0,95.31156330000002,-0.56722842,-30.882436199999997
0.37,37,-0.013000000000000001,-0.968,0.28600000000000003,-0.3437748,0.286479,0.0,95.30583372,-0.56722842,-30.87670662
0.38,38,-0.013000000000000001,-0.9690000000000001,0.287,-0.40107059999999994,0.286479,0.0,95.30010414,-0.5729580000000001,-30.87670662
0.39,39,-0.013999999999999999,-0.97,0.28800000000000003,-0.40107059999999994,0.286479,0.0,95.29437456,-0.5729580000000001,-30.87097704
0.4,40,-0.013000000000000001,-0.9690000000000001,0.285,-0.40107059999999994,0.286479,0.0,95.58085356,-0.56722842,-30.86524746
0.41000000000000003,41,-0.013000000000000001,-0.97,0.285,-0.40107059999999994,0.4583664000000001,0.0,95.57512398,-0.56722842,-30.85951788
0.42000000000000004,42,-0.012,-0.97,0.285,-0.4583664000000001,0.4583664000000001,0.0,95.56939440000001,-0.56722842,-30.8537883
0.43,43,-0.013000000000000001,-0.9690000000000001,0.284,-0.3437748,0.40107059999999994,0.0,95.56939440000001,-0.56722842,-30.84805872
0.44,44,-0.013000000000000001,-0.9690000000000001,0.28300000000000003,-0.286479,0.4583664000000001,0.0,95.56366482,-0.5729580000000001,-30.84805872
0.45,45,-0.013000000000000001,-0.97,0.282,-0.1718874,0.4583664000000001,0.057295800000000015,96.22256652,-0.56722842,-30.83086998
0.46,46,-0.013000000000000001,-0.97,0.28600000000000003,-0.1718874,0.3437748,0.057295800000000015,96.21683694,-0.5729580000000001,-30.8251404
0.47000000000000003,47,-0.013999999999999999,-0.9690000000000001,0.28600000000000003,-0.2291832000000001,0.1718874,0.0,96.21683694,-0.5729580000000001,-30.8251404
0.48000000000000004,48,-0.012,-0.9690000000000001,0.285,-0.2291832000000001,0.11459160000000004,0.0,96.21683694,-0.5729580000000001,-30.819410819999995
0.49,49,-0.013000000000000001,-0.968,0.28600000000000003,-0.2291832000000001,0.2291832000000001,0.0,96.21110736,-0.5729580000000001,-30.819410819999995
0.5,50,-0.013000000000000001,-0.9690000000000001,0.285,-0.1718874,0.2291832000000001,0.0,96.78406536,-0.56722842,-30.80795166
0.51,51,-0.013000000000000001,-0.97,0.284,-0.2291832000000001,0.286479,0.0,96.77833578,-0.56722842,-30.80222208
0.52,52,-0.013999999999999999,-0.9690000000000001,0.287,-0.1718874,0.2291832000000001,0.0,96.77833578,-0.56722842,-30.80222208
0.53,53,-0.013000000000000001,-0.9690000000000001,0.28800000000000003,-0.286479,0.11459160000000004,0.0,96.7726062,-0.56722842,-30.80222208
0.54,54,-0.013999999999999999,-0.968,0.28800000000000003,-0.2291832000000001,0.1718874,0.0,96.7726062,-0.56722842,-30.7964925
0.55,55,-0.013999999999999999,-0.9690000000000001,0.287,-0.2291832000000001,0.1718874,0.0,97.44869664,-0.56722842,-30.78503334
0.56,56,-0.013999999999999999,-0.9690000000000001,0.285,-0.1718874,0.11459160000000004,-0.057295800000000015,97.44296706000002,-0.56722842,-30.77930376
0.5700000000000001,57,-0.013000000000000001,-0.9690000000000001,0.28600000000000003,-0.11459160000000004,0.1718874,0.0,97.44296706000002,-0.56722842,-30.77930376
0.5800000000000001,58,-0.013999999999999999,-0.9690000000000001,0.289,-0.11459160000000004,0.057295800000000015,0.0,97.44296706000002,-0.56722842,-30.77930376
0.59,59,-0.013000000000000001,-0.9690000000000001,0.289,-0.11459160000000004,0.057295800000000015,0.0,97.43723748,-0.56722842,-30.77930376
0.6,60,-0.013999999999999999,-0.97,0.28800000000000003,-0.1718874,0.0,0.0,98.19354204,-0.55576926,-30.773574180000004
0.61,61,-0.013999999999999999,-0.9690000000000001,0.289,-0.2291832000000001,-0.057295800000000015,0.0,98.19354204,-0.55576926,-30.773574180000004
0.62,62,-0.013000000000000001,-0.97,0.28800000000000003,-0.1718874,-0.057295800000000015,0.0,98.18781246,-0.55576926,-30.773574180000004
0.63,63,-0.013000000000000001,-0.9690000000000001,0.28800000000000003,-0.1718874,0.0,-0.057295800000000015,98.18781246,-0.55576926,-30.773574180000004
0.64,64,-0.013999999999999999,-0.97,0.28600000000000003,-0.1718874,0.0,-0.11459160000000004,98.18208288,-0.55003968,-30.773574180000004
0.65,65,-0.013999999999999999,-0.9690000000000001,0.28800000000000003,-0.286479,-0.11459160000000004,0.0,98.5774239,-0.55003968,-30.7678446
0.66,66,-0.013999999999999999,-0.97,0.28600000000000003,0.057295800000000015,-0.3437748,0.0,98.5774239,-0.55003968,-30.7678446
0.67,67,-0.013999999999999999,-0.9690000000000001,0.285,0.11459160000000004,-0.3437748,-0.057295800000000015,98.58315348,-0.55003968,-30.773574180000004
0.68,68,-0.013000000000000001,-0.9690000000000001,0.284,0.11459160000000004,-0.286479,0.0,98.58315348,-0.55003968,-30.77930376
0.6900000000000001,69,-0.013999999999999999,-0.97,0.285,0.057295800000000015,-0.286479,0.0,98.58315348,-0.55003968,-30.77930376
0.7000000000000001,70,-0.013999999999999999,-0.9690000000000001,0.284,0.11459160000000004,-0.4583664000000001,0.0,98.86963248,-0.5443101,-30.77930376
0.7100000000000001,71,-0.013999999999999999,-0.9690000000000001,0.285,0.11459160000000004,-0.4583664000000001,-0.057295800000000015,98.86963248,-0.5443101,-30.78503334
0.72,72,-0.013999999999999999,-0.97,0.287,0.11459160000000004,-0.3437748,0.0,98.86963248,-0.5443101,-30.79076292
0.73,73,-0.013000000000000001,-0.9670000000000001,0.287,0.057295800000000015,-0.4583664000000001,0.0,98.86963248,-0.5443101,-30.79076292
0.74,74,-0.012,-0.9690000000000001,0.28600000000000003,0.0,-0.40107059999999994,0.0,98.86963248,-0.5443101,-30.7964925
0.75,75,-0.013000000000000001,-0.97,0.28600000000000003,0.0,-0.3437748,0.0,99.40248342,-0.53858052,-30.79076292
0.76,76,-0.013999999999999999,-0.971,0.284,0.11459160000000004,-0.1718874,0.0,99.40248342,-0.53858052,-30.79076292
0.77,77,-0.013000000000000001,-0.97,0.28300000000000003,0.1718874,-0.1718874,0.0,99.40821300000002,-0.53858052,-30.7964925
0.78,78,-0.015,-0.9690000000000001,0.29,0.0,-0.4583664000000001,0.0,99.40821300000002,-0.53858052,-30.80222208
0.79,79,-0.013999999999999999,-0.97,0.29100000000000004,0.0,-0.8021411999999999,0.0,99.40821300000002,-0.53858052,-30.80795166
0.8,80,-0.011000000000000001,-0.9690000000000001,0.289,0.11459160000000004,-0.7448454000000001,0.057295800000000015,99.70042158,-0.52712136,-30.819410819999995
0.81,81,-0.012,-0.9690000000000001,0.287,0.057295800000000015,-0.3437748,0.0,99.70042158,-0.52139178,-30.819410819999995
0.8200000000000001,82,-0.012,-0.97,0.285,0.0,-0.1718874,0.0,99.70042158,-0.52139178,-30.8251404
0.8300000000000001,83,-0.013999999999999999,-0.968,0.28600000000000003,0.11459160000000004,-0.2291832000000001,0.0,99.70042158,-0.52139178,-30.8251404
0.8400000000000001,84,-0.015,-0.968,0.285,0.1718874,-0.4583664000000001,-0.057295800000000015,99.70615116,-0.52139178,-30.83086998
0.85,85,-0.016,-0.9690000000000001,0.28600000000000003,0.057295800000000015,-0.5156622000000001,-0.057295800000000015,100.04992596,-0.52139178,-30.8251404
0.86,86,-0.013999999999999999,-0.968,0.285,0.11459160000000004,-0.5156622000000001,0.0,100.05565554,-0.52139178,-30.83086998
0.87,87,-0.013999999999999999,-0.9690000000000001,0.287,0.0,-0.3437748,0.0,100.05565554,-0.52139178,-30.83659956
0.88,88,-0.013999999999999999,-0.97,0.28600000000000003,0.1718874,-0.1718874,0.057295800000000015,100.05565554,-0.52139178,-30.83659956
0.89,89,-0.013000000000000001,-0.971,0.28600000000000003,0.0,-0.11459160000000004,0.0,100.05565554,-0.52139178,-30.83659956
0.9,90,-0.013000000000000001,-0.9690000000000001,0.28800000000000003,-0.057295800000000015,-0.057295800000000015,-0.057295800000000015,100.64580228,-0.5042030399999999,-30.83659956
0.91,91,-0.013999999999999999,-0.97,0.287,-0.057295800000000015,-0.057295800000000015,0.0,100.64580228,-0.5042030399999999,-30.83659956
0.92,92,-0.013999999999999999,-0.97,0.28800000000000003,-0.057295800000000015,0.0,0.0,100.64580228,-0.5042030399999999,-30.84232914
0.93,93,-0.013999999999999999,-0.97,0.289,-0.1718874,0.0,-0.057295800000000015,100.64580228,-0.5042030399999999,-30.84232914
0.9400000000000001,94,-0.013000000000000001,-0.97,0.289,-0.1718874,-0.057295800000000015,0.0,100.6400727,-0.5042030399999999,-30.84232914
0.9500000000000001,95,-0.013000000000000001,-0.968,0.289,-0.2291832000000001,-0.11459160000000004,-0.057295800000000015,100.97811792,-0.4984734599999999,-30.84232914
0.9600000000000001,96,-0.013000000000000001,-0.9690000000000001,0.287,-0.1718874,0.0,0.0,100.97811792,-0.4984734599999999,-30.84232914
0.97,97,-0.013000000000000001,-0.97,0.287,-0.11459160000000004,0.1718874,0.0,100.97238834,-0.4984734599999999,-30.84232914
0.98,98,-0.013000000000000001,-0.97,0.287,-0.2291832000000001,0.1718874,-0.057295800000000015,100.97238834,-0.4984734599999999,-30.83659956
0.99,99,-0.013000000000000001,-0.9690000000000001,0.287,-0.1718874,0.0,0.0,100.97238834,-0.4984734599999999,-30.83659956
1.0,100,-0.013000000000000001,-0.9690000000000001,0.28800000000000003,-0.2291832000000001,0.11459160000000004,0.0,101.21876028,-0.49274388,-30.83086998
1.01,101,-0.012,-0.9690000000000001,0.287,-0.1718874,0.286479,0.0,101.21876028,-0.4984734599999999,-30.83086998
1.02,102,-0.012,-0.9690000000000001,0.285,-0.11459160000000004,0.40107059999999994,-0.057295800000000015,101.2130307,-0.4984734599999999,-30.8251404
1.03,103,-0.011000000000000001,-0.968,0.28300000000000003,0.0,0.572958,-0.057295800000000015,101.2130307,-0.4984734599999999,-30.819410819999995
1.04,104,-0.012,-0.97,0.28300000000000003,0.057295800000000015,0.4583664000000001,-0.057295800000000015,101.2130307,-0.4984734599999999,-30.81368124
1.05,105,-0.013999999999999999,-0.97,0.285,0.057295800000000015,0.40107059999999994,0.0,101.44794348,-0.4984734599999999,-30.80795166
1.06,106,-0.013999999999999999,-0.9690000000000001,0.28600000000000003,0.11459160000000004,0.40107059999999994,0.0,101.45367306,-0.4984734599999999,-30.80222208
1.07,107,-0.013999999999999999,-0.9690000000000001,0.285,0.11459160000000004,0.2291832000000001,0.0,101.45367306,-0.4984734599999999,-30.7964925
1.08,108,-0.013000000000000001,-0.9690000000000001,0.284,0.11459160000000004,0.2291832000000001,0.0,101.45367306,-0.4984734599999999,-30.7964925
1.09,109,-0.013000000000000001,-0.9690000000000001,0.285,0.11459160000000004,0.2291832000000001,0.0,101.45367306,-0.4984734599999999,-30.7964925
1.1,110,-0.013000000000000001,-0.97,0.28600000000000003,0.057295800000000015,0.3437748,0.0,101.73442248,-0.49274388,-30.7964925
1.11,111,-0.013000000000000001,-0.968,0.28600000000000003,0.057295800000000015,0.3437748,0.0,101.73442248,-0.49274388,-30.79076292
1.12,112,-0.013000000000000001,-0.968,0.28800000000000003,0.0,0.1718874,0.0,101.73442248,-0.49274388,-30.79076292
1.1300000000000001,113,-0.013000000000000001,-0.9690000000000001,0.287,0.0,0.2291832000000001,0.0,101.73442248,-0.49274388,-30.78503334
1.1400000000000001,114,-0.013000000000000001,-0.9690000000000001,0.287,-0.11459160000000004,0.1718874,-0.057295800000000015,101.73442248,-0.49274388,-30.78503334
1.1500000000000001,115,-0.013999999999999999,-0.97,0.287,-0.057295800000000015,0.11459160000000004,-0.057295800000000015,102.17560014,-0.49274388,-30.773574180000004
1.1600000000000001,116,-0.013999999999999999,-0.968,0.287,0.0,0.0,0.0,102.17560014,-0.49274388,-30.773574180000004
1.17,117,-0.013999999999999999,-0.97,0.28800000000000003,-0.057295800000000015,-0.11459160000000004,0.0,102.16987056,-0.49274388,-30.773574180000004
1.18,118,-0.013000000000000001,-0.9690000000000001,0.28800000000000003,-0.057295800000000015,-0.11459160000000004,-0.057295800000000015,102.16987056,-0.49274388,-30.77930376
1.19,119,-0.013999999999999999,-0.9690000000000001,0.28800000000000003,0.0,-0.11459160000000004,0.0,102.16987056,-0.49274388,-30.77930376
1.2,120,-0.011000000000000001,-0.9690000000000001,0.28600000000000003,-0.057295800000000015,0.0,0.0,102.6167778,-0.46409598,-30.7964925
1.21,121,-0.013000000000000001,-0.968,0.28600000000000003,0.0,0.0,-0.057295800000000015,102.6167778,-0.46409598,-30.7964925
1.22,122,-0.013999999999999999,-0.9690000000000001,0.28600000000000003,0.0,-0.057295800000000015,-0.057295800000000015,102.6167778,-0.46409598,-30.7964925
1.23,123,-0.016,-0.9690000000000001,0.28800000000000003,0.0,0.0,0.0,102.6167778,-0.46409598,-30.7964925
1.24,124,-0.013999999999999999,-0.97,0.287,-0.11459160000000004,-0.11459160000000004,0.0,102.61104822,-0.46409598,-30.7964925
1.25,125,-0.013999999999999999,-0.9690000000000001,0.289,-0.2291832000000001,-0.2291832000000001,0.0,102.75428772,-0.46409598,-30.7964925
1.26,126,-0.013000000000000001,-0.9690000000000001,0.289,-0.40107059999999994,0.0,0.0,102.75428772,-0.46409598,-30.7964925
1.27,127,-0.012,-0.97,0.287,-0.286479,0.2291832000000001,0.0,102.74855814,-0.46409598,-30.79076292
1.28,128,-0.011000000000000001,-0.971,0.28300000000000003,-0.11459160000000004,0.4583664000000001,0.0,102.74855814,-0.46409598,-30.78503334
1.29,129,-0.013999999999999999,-0.97,0.28600000000000003,-0.11459160000000004,0.572958,0.0,102.74282856,-0.46409598,-30.77930376
1.3,130,-0.015,-0.97,0.289,-0.11459160000000004,0.286479,0.0,102.9605526,-0.46982556,-30.773574180000004
1.31,131,-0.012,-0.9690000000000001,0.287,0.0,0.2291832000000001,0.0,102.9605526,-0.46982556,-30.7678446
1.32,132,-0.011000000000000001,-0.97,0.28600000000000003,0.0,0.6875496,0.0,102.9605526,-0.47555514,-30.76211502
1.33,133,-0.011000000000000001,-0.9690000000000001,0.285,-0.11459160000000004,1.145916,0.0,102.95482302,-0.47555514,-30.75065586
1.34,134,-0.011000000000000001,-0.97,0.285,0.0,1.3178034,0.0,102.95482302,-0.48128472,-30.7391967
1.35,135,-0.013999999999999999,-0.9690000000000001,0.285,0.1718874,1.2032118,0.0,103.01211882,-0.4870143000000001,-30.72200796000001
1.36,136,-0.015,-0.9690000000000001,0.285,0.1718874,1.0886202,0.0,103.01211882,-0.4870143000000001,-30.710548800000005
1.37,137,-0.013999999999999999,-0.9690000000000001,0.284,0.1718874,1.0886202,0.0,103.01211882,-0.49274388,-30.70481922
1.3800000000000001,138,-0.015,-0.9690000000000001,0.284,0.1718874,1.0886202,0.057295800000000015,103.0178484,-0.49274388,-30.693360060000003
1.3900000000000001,139,-0.013999999999999999,-0.9690000000000001,0.28300000000000003,0.1718874,1.0886202,0.0,103.0178484,-0.4984734599999999,-30.68190090000001
1.4000000000000001,140,-0.013000000000000001,-0.97,0.285,0.2291832000000001,0.9740286,0.0,103.0751442,-0.4984734599999999,-30.67044174
1.4100000000000001,141,-0.013999999999999999,-0.97,0.285,0.1718874,1.0313244000000001,0.0,103.0751442,-0.5042030399999999,-30.65898258
1.42,142,-0.013999999999999999,-0.9690000000000001,0.28600000000000003,0.11459160000000004,0.9167328000000001,0.057295800000000015,103.0751442,-0.5042030399999999,-30.653253000000007
1.43,143,-0.013999999999999999,-0.97,0.28600000000000003,0.11459160000000004,0.9740286,0.057295800000000015,103.0751442,-0.5099326200000001,-30.64179384
1.44,144,-0.013999999999999999,-0.97,0.28600000000000003,0.11459160000000004,1.0313244000000001,0.057295800000000015,103.08087378,-0.5099326200000001,-30.63033468
1.45,145,-0.013999999999999999,-0.97,0.287,0.0,0.9167328000000001,0.0,103.16108789999998,-0.5099326200000001,-30.624605100000004
1.46,146,-0.015,-0.97,0.289,0.0,0.9740286,0.0,103.16108789999998,-0.5156622000000001,-30.61314594
1.47,147,-0.013999999999999999,-0.97,0.287,0.0,0.8594370000000001,0.057295800000000015,103.16108789999998,-0.5156622000000001,-30.607416359999995
1.48,148,-0.013999999999999999,-0.9690000000000001,0.28800000000000003,0.0,0.8594370000000001,0.057295800000000015,103.16108789999998,-0.52139178,-30.5959572
1.49,149,-0.015,-0.97,0.285,0.057295800000000015,0.9167328000000001,0.057295800000000015,103.16108789999998,-0.52139178,-30.59022762
1.5,150,-0.015,-0.971,0.28800000000000003,0.0,0.572958,0.057295800000000015,103.29286824,-0.52712136,-30.57876846
1.51,151,-0.015,-0.97,0.287,0.11459160000000004,0.3437748,0.057295800000000015,103.29286824,-0.53285094,-30.57303888
1.52,152,-0.015,-0.9690000000000001,0.28800000000000003,0.0,0.2291832000000001,0.057295800000000015,103.29286824,-0.53285094,-30.57303888
1.53,153,-0.013999999999999999,-0.9690000000000001,0.28600000000000003,0.0,0.2291832000000001,0.057295800000000015,103.29286824,-0.53285094,-30.57303888
1.54,154,-0.013000000000000001,-0.9690000000000001,0.285,0.057295800000000015,0.2291832000000001,0.0,103.29286824,-0.53285094,-30.5673093
1.55,155,-0.013999999999999999,-0.97,0.287,0.0,0.1718874,0.0,103.55069934,-0.52712136,-30.5673093
1.56,156,-0.013999999999999999,-0.9690000000000001,0.285,0.057295800000000015,0.11459160000000004,0.057295800000000015,103.55069934,-0.53285094,-30.5673093
1.57,157,-0.015,-0.9690000000000001,0.285,0.057295800000000015,0.057295800000000015,0.0,103.55069934,-0.53285094,-30.5673093
1.58,158,-0.015,-0.97,0.28600000000000003,0.0,0.057295800000000015,0.0,103.55069934,-0.53285094,-30.5673093
1.59,159,-0.015,-0.97,0.285,0.11459160000000004,0.057295800000000015,0.0,103.55642892,-0.53285094,-30.56157972
1.6,160,-0.015,-0.9690000000000001,0.285,0.11459160000000004,0.0,0.0,103.80280086,-0.52712136,-30.56157972
1.61,161,-0.013000000000000001,-0.97,0.284,0.1718874,-0.11459160000000004,0.0,103.80853043999998,-0.52712136,-30.5673093
1.62,162,-0.013999999999999999,-0.9690000000000001,0.285,0.11459160000000004,-0.11459160000000004,0.0,103.80853043999998,-0.52712136,-30.5673093
1.6300000000000001,163,-0.013999999999999999,-0.97,0.285,0.11459160000000004,-0.286479,0.0,103.80853043999998,-0.52712136,-30.5673093
1.6400000000000001,164,-0.013999999999999999,-0.97,0.285,0.11459160000000004,-0.40107059999999994,0.0,103.80853043999998,-0.52712136,-30.57303888
1.6500000000000001,165,-0.013999999999999999,-0.97,0.285,0.0,-0.40107059999999994,0.0,103.88301498,-0.5156622000000001,-30.58449804
1.6600000000000001,166,-0.015,-0.97,0.28600000000000003,0.0,-0.572958,0.0,103.88301498,-0.5156622000000001,-30.59022762
1.6700000000000002,167,-0.013999999999999999,-0.97,0.28600000000000003,0.0,-0.5156622000000001,-0.057295800000000015,103.88301498,-0.5099326200000001,-30.5959572
1.68,168,-0.015,-0.9690000000000001,0.285,0.0,-0.572958,-0.057295800000000015,103.88301498,-0.5099326200000001,-30.60168678
1.69,169,-0.013999999999999999,-0.97,0.285,0.0,-0.6875496,-0.057295800000000015,103.88301498,-0.5099326200000001,-30.607416359999995
1.7,170,-0.015,-0.97,0.28600000000000003,0.0,-0.5156622000000001,0.0,103.94604036,-0.5099326200000001,-30.607416359999995
1.71,171,-0.013999999999999999,-0.9690000000000001,0.285,0.0,-0.5156622000000001,0.0,103.94604036,-0.5042030399999999,-30.61314594
1.72,172,-0.013999999999999999,-0.9690000000000001,0.284,0.0,-0.3437748,-0.057295800000000015,103.94604036,-0.5042030399999999,-30.61887552
1.73,173,-0.015,-0.97,0.28600000000000003,0.057295800000000015,-0.2291832000000001,0.0,103.95176994,-0.5042030399999999,-30.61887552
1.74,174,-0.015,-0.97,0.285,0.1718874,-0.286479,0.0,103.95176994,-0.5042030399999999,-30.624605100000004
1.75,175,-0.013999999999999999,-0.97,0.287,0.057295800000000015,-0.2291832000000001,0.0,104.0491728,-0.5042030399999999,-30.624605100000004
1.76,176,-0.015,-0.9690000000000001,0.28800000000000003,0.057295800000000015,-0.11459160000000004,0.0,104.05490238,-0.5042030399999999,-30.624605100000004
1.77,177,-0.015,-0.968,0.289,0.11459160000000004,-0.1718874,0.057295800000000015,104.05490238,-0.5042030399999999,-30.624605100000004
1.78,178,-0.013000000000000001,-0.9690000000000001,0.29,0.0,-0.057295800000000015,0.0,104.05490238,-0.5042030399999999,-30.624605100000004
1.79,179,-0.013999999999999999,-0.97,0.287,0.057295800000000015,-0.057295800000000015,0.057295800000000015,104.05490238,-0.5042030399999999,-30.63033468
1.8,180,-0.013000000000000001,-0.971,0.28600000000000003,0.11459160000000004,0.1718874,0.057295800000000015,104.12938692,-0.4984734599999999,-30.63033468
1.81,181,-0.013000000000000001,-0.97,0.287,0.057295800000000015,0.40107059999999994,0.057295800000000015,104.12938692,-0.5042030399999999,-30.624605100000004
1.82,182,-0.015,-0.9690000000000001,0.28800000000000003,0.0,0.11459160000000004,0.0,104.12938692,-0.5042030399999999,-30.624605100000004
1.83,183,-0.015,-0.97,0.287,0.057295800000000015,-0.2291832000000001,0.057295800000000015,104.12938692,-0.5042030399999999,-30.624605100000004
1.84,184,-0.013000000000000001,-0.9690000000000001,0.287,0.0,-0.057295800000000015,0.0,104.1351165,-0.5042030399999999,-30.624605100000004
1.85,185,-0.011000000000000001,-0.97,0.28600000000000003,0.057295800000000015,0.286479,0.0,104.20960103999998,-0.49274388,-30.63033468
1.86,186,-0.012,-0.9690000000000001,0.28600000000000003,0.0,0.5156622000000001,0.0,104.21533062,-0.4984734599999999,-30.624605100000004
1.87,187,-0.013999999999999999,-0.9690000000000001,0.287,0.11459160000000004,0.572958,0.0,104.21533062,-0.4984734599999999,-30.61887552
1.8800000000000001,188,-0.015,-0.9690000000000001,0.287,0.1718874,0.572958,0.0,104.21533062,-0.4984734599999999,-30.61314594
1.8900000000000001,189,-0.016,-0.97,0.285,0.057295800000000015,0.6875496,0.0,104.21533062,-0.5042030399999999,-30.607416359999995
1.9000000000000001,190,-0.016,-0.97,0.284,0.057295800000000015,0.8021411999999999,0.0,104.2497081,-0.5099326200000001,-30.5959572
1.9100000000000001,191,-0.013999999999999999,-0.9690000000000001,0.284,0.11459160000000004,0.6875496,0.0,104.25543768,-0.5099326200000001,-30.59022762
1.9200000000000002,192,-0.013000000000000001,-0.971,0.28300000000000003,0.1718874,0.6875496,0.057295800000000015,104.25543768,-0.5156622000000001,-30.58449804
1.93,193,-0.013999999999999999,-0.968,0.285,0.057295800000000015,0.6302538000000001,0.057295800000000015,104.25543768,-0.5156622000000001,-30.57876846
1.94,194,-0.013000000000000001,-0.9690000000000001,0.284,0.057295800000000015,0.5156622000000001,0.057295800000000015,104.25543768,-0.5156622000000001,-30.57303888
1.95,195,-0.015,-0.9690000000000001,0.285,0.0,0.5156622000000001,0.057295800000000015,104.30127432,-0.5156622000000001,-30.5673093
1.96,196,-0.013999999999999999,-0.97,0.28600000000000003,0.0,0.4583664000000001,0.0,104.30127432,-0.5156622000000001,-30.5673093
1.97,197,-0.013999999999999999,-0.97,0.285,0.0,0.4583664000000001,0.0,104.30127432,-0.52139178,-30.56157972
1.98,198,-0.013999999999999999,-0.97,0.284,0.0,0.2291832000000001,0.0,104.30127432,-0.52139178,-30.55585014
1.99,199,-0.013999999999999999,-0.97,0.287,-0.11459160000000004,0.057295800000000015,0.0,104.30127432,-0.52139178,-30.55585014
2.0,200,-0.013999999999999999,-0.97,0.287,-0.057295800000000015,0.057295800000000015,0.057295800000000015,104.41013633999998,-0.5156622000000001,-30.56157972
2.01,201,-0.013999999999999999,-0.971,0.287,-0.057295800000000015,0.11459160000000004,0.0,104.40440676,-0.5156622000000001,-30.55585014
2.02,202,-0.015,-0.9690000000000001,0.28800000000000003,-0.057295800000000015,0.2291832000000001,0.0,104.40440676,-0.52139178,-30.55585014
2.03,203,-0.015,-0.97,0.28800000000000003,0.0,0.0,0.057295800000000015,104.40440676,-0.52139178,-30.55585014
2.04,204,-0.015,-0.9690000000000001,0.287,0.0,-0.11459160000000004,0.057295800000000015,104.40440676,-0.52139178,-30.55585014
2.05,205,-0.015,-0.97,0.28800000000000003,-0.057295800000000015,0.0,0.057295800000000015,104.55910542,-0.52712136,-30.55012056
2.0599999999999996,206,-0.013999999999999999,-0.97,0.287,-0.057295800000000015,0.0,0.057295800000000015,104.55910542,-0.52712136,-30.55585014
2.07,207,-0.013999999999999999,-0.9690000000000001,0.28600000000000003,0.0,-0.1718874,0.0,104.55910542,-0.52712136,-30.55585014
2.0799999999999996,208,-0.013999999999999999,-0.97,0.28600000000000003,0.0,-0.2291832000000001,0.0,104.55910542,-0.52712136,-30.55585014
2.09,209,-0.015,-0.9690000000000001,0.28600000000000003,0.0,-0.5156622000000001,0.0,104.55910542,-0.52139178,-30.56157972
2.0999999999999996,210,-0.013999999999999999,-0.971,0.287,0.11459160000000004,-0.572958,0.0,104.60494206,-0.52139178,-30.5673093
2.11,211,-0.013000000000000001,-0.9690000000000001,0.28600000000000003,0.0,-0.572958,0.0,104.60494206,-0.52139178,-30.57303888
2.1199999999999997,212,-0.013999999999999999,-0.9690000000000001,0.28600000000000003,0.0,-0.4583664000000001,0.0,104.60494206,-0.5156622000000001,-30.57876846
2.13,213,-0.013999999999999999,-0.9690000000000001,0.28600000000000003,0.057295800000000015,-0.40107059999999994,0.0,104.60494206,-0.5156622000000001,-30.58449804
2.1399999999999997,214,-0.013999999999999999,-0.97,0.28600000000000003,0.0,-0.286479,0.0,104.60494206,-0.5156622000000001,-30.59022762
2.15,215,-0.013000000000000001,-0.97,0.285,0.0,-0.286479,0.0,104.65650827999998,-0.5156622000000001,-30.59022762
2.1599999999999997,216,-0.015,-0.968,0.284,0.057295800000000015,-0.3437748,0.0,104.65650827999998,-0.5156622000000001,-30.5959572
2.17,217,-0.013999999999999999,-0.97,0.285,0.0,-0.286479,0.0,104.65650827999998,-0.5099326200000001,-30.5959572
2.1799999999999997,218,-0.013999999999999999,-0.9690000000000001,0.285,0.0,-0.3437748,0.0,104.65650827999998,-0.5099326200000001,-30.60168678
2.19,219,-0.013999999999999999,-0.9690000000000001,0.28600000000000003,-0.057295800000000015,-0.286479,0.0,104.65650827999998,-0.5099326200000001,-30.60168678
2.1999999999999997,220,-0.013999999999999999,-0.9690000000000001,0.285,0.0,-0.1718874,0.0,104.69088576,-0.5099326200000001,-30.60168678
2.21,221,-0.013999999999999999,-0.9690000000000001,0.285,0.0,-0.2291832000000001,-0.057295800000000015,104.69088576,-0.5099326200000001,-30.607416359999995
2.2199999999999998,222,-0.013999999999999999,-0.9690000000000001,0.28600000000000003,0.0,-0.286479,-0.057295800000000015,104.69088576,-0.5099326200000001,-30.607416359999995
2.23,223,-0.015,-0.97,0.28600000000000003,-0.057295800000000015,-0.2291832000000001,0.0,104.69088576,-0.5099326200000001,-30.607416359999995
2.2399999999999998,224,-0.013999999999999999,-0.97,0.28600000000000003,0.0,-0.11459160000000004,-0.057295800000000015,104.69088576,-0.5042030399999999,-30.61314594
2.25,225,-0.013999999999999999,-0.9690000000000001,0.28600000000000003,0.0,0.0,0.0,104.83412526,-0.4984734599999999,-30.61887552
2.26,226,-0.013000000000000001,-0.9690000000000001,0.284,0.0,0.11459160000000004,0.0,104.83412526,-0.4984734599999999,-30.61314594
2.27,227,-0.013999999999999999,-0.9690000000000001,0.28600000000000003,0.0,0.1718874,-0.057295800000000015,104.83412526,-0.4984734599999999,-30.61314594
2.28,228,-0.013999999999999999,-0.9690000000000001,0.28600000000000003,0.057295800000000015,0.1718874,0.0,104.83412526,-0.4984734599999999,-30.61314594
2.29,229,-0.013999999999999999,-0.97,0.28600000000000003,0.11459160000000004,0.1718874,0.0,104.83412526,-0.4984734599999999,-30.607416359999995
2.3,230,-0.013999999999999999,-0.971,0.287,0.057295800000000015,0.286479,0.0,104.86277316,-0.4984734599999999,-30.607416359999995
2.31,231,-0.013999999999999999,-0.9690000000000001,0.28800000000000003,0.057295800000000015,0.2291832000000001,0.0,104.86277316,-0.4984734599999999,-30.60168678
2.32,232,-0.013999999999999999,-0.968,0.289,0.0,0.1718874,0.0,104.86277316,-0.5042030399999999,-30.60168678
2.3299999999999996,233,-0.013999999999999999,-0.97,0.28800000000000003,-0.057295800000000015,0.1718874,0.0,104.86277316,-0.5042030399999999,-30.5959572
2.34,234,-0.013000000000000001,-0.97,0.287,-0.057295800000000015,0.40107059999999994,0.057295800000000015,104.86277316,-0.5042030399999999,-30.5959572
2.3499999999999996,235,-0.013000000000000001,-0.97,0.28600000000000003,-0.057295800000000015,0.572958,0.0,104.88569148000002,-0.5042030399999999,-30.59022762
2.36,236,-0.013999999999999999,-0.971,0.28800000000000003,-0.057295800000000015,0.40107059999999994,0.0,104.87996189999998,-0.5042030399999999,-30.58449804
2.3699999999999997,237,-0.015,-0.97,0.28800000000000003,0.0,0.0,0.0,104.87996189999998,-0.5042030399999999,-30.58449804
2.38,238,-0.013999999999999999,-0.9690000000000001,0.287,0.057295800000000015,-0.11459160000000004,0.0,104.87996189999998,-0.5042030399999999,-30.59022762
2.3899999999999997,239,-0.012,-0.97,0.285,0.0,0.0,0.0,104.87996189999998,-0.5042030399999999,-30.58449804
2.4,240,-0.012,-0.97,0.287,0.057295800000000015,0.11459160000000004,0.0,104.92006896,-0.49274388,-30.5959572
2.4099999999999997,241,-0.013999999999999999,-0.968,0.28800000000000003,0.057295800000000015,0.1718874,0.0,104.92579854,-0.49274388,-30.59022762
2.42,242,-0.013999999999999999,-0.968,0.287,0.057295800000000015,0.057295800000000015,0.0,104.92579854,-0.49274388,-30.59022762
2.4299999999999997,243,-0.015,-0.9690000000000001,0.287,0.0,0.1718874,0.0,104.92579854,-0.49274388,-30.59022762
2.44,244,-0.016,-0.97,0.28600000000000003,0.057295800000000015,0.2291832000000001,0.057295800000000015,104.92579854,-0.4984734599999999,-30.58449804
2.4499999999999997,245,-0.015,-0.9690000000000001,0.284,0.11459160000000004,0.1718874,0.0,104.94871686,-0.4984734599999999,-30.58449804
2.46,246,-0.013999999999999999,-0.9690000000000001,0.285,0.1718874,0.2291832000000001,0.057295800000000015,104.94871686,-0.5042030399999999,-30.57876846
2.4699999999999998,247,-0.015,-0.9690000000000001,0.284,0.1718874,0.0,0.0,104.94871686,-0.5042030399999999,-30.57876846
2.48,248,-0.015,-0.968,0.285,0.11459160000000004,0.0,0.057295800000000015,104.95444644,-0.5042030399999999,-30.57876846
2.4899999999999998,249,-0.013999999999999999,-0.9690000000000001,0.28600000000000003,0.057295800000000015,-0.057295800000000015,0.057295800000000015,104.95444644,-0.5042030399999999,-30.57876846
2.5,250,-0.015,-0.9690000000000001,0.287,0.0,-0.1718874,0.0,105.00601266,-0.5042030399999999,-30.57876846
2.51,251,-0.013999999999999999,-0.968,0.28600000000000003,0.0,-0.11459160000000004,0.0,105.00601266,-0.5042030399999999,-30.58449804
2.52,252,-0.013999999999999999,-0.9690000000000001,0.28600000000000003,0.0,-0.1718874,0.0,105.00601266,-0.5042030399999999,-30.58449804
2.53,253,-0.013999999999999999,-0.97,0.28600000000000003,-0.057295800000000015,-0.2291832000000001,0.0,105.00601266,-0.5042030399999999,-30.59022762
2.54,254,-0.013999999999999999,-0.9690000000000001,0.28600000000000003,-0.11459160000000004,-0.2291832000000001,0.0,105.00028308,-0.5042030399999999,-30.59022762
2.55,255,-0.013999999999999999,-0.9690000000000001,0.287,-0.11459160000000004,-0.1718874,0.0,105.02893098,-0.5042030399999999,-30.59022762
2.56,256,-0.015,-0.9690000000000001,0.287,-0.11459160000000004,-0.057295800000000015,0.0,105.02893098,-0.5042030399999999,-30.59022762
2.57,257,-0.013999999999999999,-0.97,0.28600000000000003,-0.11459160000000004,-0.2291832000000001,0.0,105.0232014,-0.5042030399999999,-30.59022762
2.5799999999999996,258,-0.013999999999999999,-0.9690000000000001,0.28600000000000003,-0.057295800000000015,-0.4583664000000001,0.0,105.0232014,-0.5042030399999999,-30.5959572
2.59,259,-0.015,-0.97,0.28600000000000003,-0.11459160000000004,-0.3437748,0.0,105.0232014,-0.5042030399999999,-30.60168678
2.5999999999999996,260,-0.013999999999999999,-0.9690000000000001,0.28800000000000003,-0.11459160000000004,-0.2291832000000001,0.0,105.04611972,-0.4984734599999999,-30.607416359999995
2.61,261,-0.013999999999999999,-0.9690000000000001,0.289,-0.1718874,-0.2291832000000001,-0.057295800000000015,105.04039014,-0.4984734599999999,-30.607416359999995
2.6199999999999997,262,-0.012,-0.9690000000000001,0.287,-0.11459160000000004,-0.2291832000000001,0.0,105.04039014,-0.49274388,-30.607416359999995
2.63,263,-0.013000000000000001,-0.9690000000000001,0.287,-0.057295800000000015,-0.286479,0.0,105.04039014,-0.49274388,-30.61314594
2.6399999999999997,264,-0.013999999999999999,-0.9690000000000001,0.287,-0.057295800000000015,-0.286479,0.0,105.04039014,-0.49274388,-30.61314594
2.65,265,-0.013999999999999999,-0.9690000000000001,0.28600000000000003,-0.057295800000000015,-0.1718874,0.0,105.05757887999998,-0.49274388,-30.61887552
2.6599999999999997,266,-0.013999999999999999,-0.9690000000000001,0.287,-0.057295800000000015,-0.2291832000000001,0.0,105.05757887999998,-0.4870143000000001,-30.61887552
2.67,267,-0.013999999999999999,-0.9690000000000001,0.287,-0.11459160000000004,-0.11459160000000004,0.0,105.05757887999998,-0.4870143000000001,-30.624605100000004
2.6799999999999997,268,-0.013000000000000001,-0.9690000000000001,0.287,-0.057295800000000015,-0.057295800000000015,0.0,105.0518493,-0.4870143000000001,-30.624605100000004
2.69,269,-0.013999999999999999,-0.968,0.287,0.0,0.0,0.0,105.0518493,-0.4870143000000001,-30.624605100000004
2.6999999999999997,270,-0.013999999999999999,-0.97,0.285,-0.057295800000000015,0.11459160000000004,0.0,105.07476762,-0.49274388,-30.61887552
2.71,271,-0.013999999999999999,-0.9690000000000001,0.28600000000000003,0.0,0.1718874,0.0,105.07476762,-0.49274388,-30.61887552
2.7199999999999998,272,-0.015,-0.9690000000000001,0.28600000000000003,-0.057295800000000015,0.286479,0.0,105.07476762,-0.49274388,-30.61314594
2.73,273,-0.013999999999999999,-0.97,0.28600000000000003,0.0,0.2291832000000001,0.0,105.06903804,-0.49274388,-30.61314594
2.7399999999999998,274,-0.013999999999999999,-0.9690000000000001,0.287,-0.057295800000000015,0.2291832000000001,0.0,105.06903804,-0.49274388,-30.61314594
2.75,275,-0.015,-0.9690000000000001,0.28600000000000003,0.0,0.2291832000000001,0.0,105.09195636,-0.4984734599999999,-30.607416359999995
2.76,276,-0.013999999999999999,-0.97,0.287,-0.057295800000000015,0.11459160000000004,0.0,105.09195636,-0.4984734599999999,-30.607416359999995
2.77,277,-0.015,-0.968,0.28600000000000003,0.0,0.11459160000000004,0.0,105.09195636,-0.4984734599999999,-30.607416359999995
2.78,278,-0.013999999999999999,-0.9690000000000001,0.285,0.0,0.11459160000000004,0.0,105.08622678000002,-0.4984734599999999,-30.60168678
2.79,279,-0.013999999999999999,-0.97,0.285,0.0,0.11459160000000004,0.0,105.08622678000002,-0.4984734599999999,-30.60168678
2.8,280,-0.013999999999999999,-0.9690000000000001,0.28600000000000003,0.0,0.11459160000000004,0.0,105.12060426,-0.4984734599999999,-30.60168678
2.81,281,-0.013999999999999999,-0.97,0.28600000000000003,0.0,0.057295800000000015,0.0,105.12060426,-0.5042030399999999,-30.60168678
2.82,282,-0.013999999999999999,-0.9690000000000001,0.285,0.057295800000000015,0.0,0.057295800000000015,105.12060426,-0.5042030399999999,-30.60168678
2.8299999999999996,283,-0.013000000000000001,-0.97,0.285,0.057295800000000015,0.1718874,0.0,105.12060426,-0.5042030399999999,-30.5959572
2.84,284,-0.013000000000000001,-0.97,0.28600000000000003,0.057295800000000015,0.2291832000000001,0.0,105.12633384,-0.5042030399999999,-30.5959572
2.8499999999999996,285,-0.013999999999999999,-0.9690000000000001,0.28600000000000003,0.0,0.1718874,0.057295800000000015,105.13206342,-0.5099326200000001,-30.59022762
2.86,286,-0.013999999999999999,-0.9690000000000001,0.287,0.0,0.11459160000000004,0.0,105.13206342,-0.5099326200000001,-30.59022762
2.8699999999999997,287,-0.015,-0.9690000000000001,0.287,0.057295800000000015,0.11459160000000004,0.057295800000000015,105.13206342,-0.5099326200000001,-30.59022762
2.88,288,-0.013999999999999999,-0.9690000000000001,0.28800000000000003,0.0,0.057295800000000015,0.057295800000000015,105.13206342,-0.5099326200000001,-30.59022762
2.8899999999999997,289,-0.013999999999999999,-0.968,0.289,-0.057295800000000015,0.0,0.057295800000000015,105.13206342,-0.5099326200000001,-30.59022762
2.9,290,-0.013999999999999999,-0.97,0.28800000000000003,-0.057295800000000015,0.0,0.0,105.15498174,-0.5156622000000001,-30.59022762
2.9099999999999997,291,-0.013000000000000001,-0.97,0.287,0.0,0.0,0.0,105.15498174,-0.5156622000000001,-30.58449804
2.92,292,-0.013000000000000001,-0.97,0.28800000000000003,0.0,0.2291832000000001,0.0,105.15498174,-0.5156622000000001,-30.58449804
2.9299999999999997,293,-0.016,-0.97,0.289,-0.11459160000000004,-0.057295800000000015,0.0,105.15498174,-0.5156622000000001,-30.58449804
2.94,294,-0.016,-0.97,0.28600000000000003,0.0,-0.5156622000000001,0.0,105.15498174,-0.5099326200000001,-30.59022762
2.9499999999999997,295,-0.013000000000000001,-0.9690000000000001,0.287,0.11459160000000004,-0.572958,0.0,105.1664409,-0.5099326200000001,-30.5959572
2.96,296,-0.013000000000000001,-0.97,0.287,0.057295800000000015,-0.40107059999999994,0.0,105.1664409,-0.5042030399999999,-30.60168678
2.9699999999999998,297,-0.013000000000000001,-0.97,0.287,0.0,-0.057295800000000015,0.0,105.1664409,-0.5042030399999999,-30.60168678
2.98,298,-0.013999999999999999,-0.97,0.28800000000000003,0.057295800000000015,-0.057295800000000015,0.0,105.17217048,-0.5042030399999999,-30.60168678
2.9899999999999998,299,-0.013999999999999999,-0.9670000000000001,0.28600000000000003,0.11459160000000004,0.0,0.0,105.17217048,-0.5042030399999999,-30.607416359999995
3.0,300,-0.016,-0.9690000000000001,0.28600000000000003,0.1718874,0.0,0.0,105.18935922,-0.5099326200000001,-30.60168678
3.01,301,-0.016,-0.97,0.285,0.11459160000000004,0.0,0.0,105.18935922,-0.5099326200000001,-30.60168678
3.02,302,-0.015,-0.9670000000000001,0.285,0.11459160000000004,0.0,0.0,105.18935922,-0.5099326200000001,-30.60168678
3.03,303,-0.013999999999999999,-0.968,0.282,0.11459160000000004,-0.11459160000000004,0.0,105.18935922,-0.5099326200000001,-30.607416359999995
3.04,304,-0.013999999999999999,-0.97,0.284,0.057295800000000015,-0.11459160000000004,0.0,105.1950888,-0.5099326200000001,-30.607416359999995
3.05,305,-0.013999999999999999,-0.9690000000000001,0.284,0.11459160000000004,-0.1718874,0.0,105.1950888,-0.5042030399999999,-30.61314594
3.06,306,-0.013999999999999999,-0.97,0.284,0.0,-0.1718874,0.0,105.1950888,-0.5042030399999999,-30.61314594
3.07,307,-0.013999999999999999,-0.97,0.285,0.0,-0.2291832000000001,0.0,105.18935922,-0.5042030399999999,-30.61314594
3.08,308,-0.013999999999999999,-0.97,0.285,0.0,-0.2291832000000001,0.0,105.1950888,-0.5042030399999999,-30.61887552
3.09,309,-0.013999999999999999,-0.968,0.28600000000000003,-0.057295800000000015,-0.1718874,0.0,105.18935922,-0.5042030399999999,-30.61887552
3.0999999999999996,310,-0.013000000000000001,-0.97,0.28600000000000003,-0.057295800000000015,-0.3437748,0.0,105.1950888,-0.49274388,-30.624605100000004
3.11,311,-0.015,-0.97,0.287,0.0,-0.11459160000000004,0.057295800000000015,105.1950888,-0.49274388,-30.624605100000004
3.1199999999999997,312,-0.013999999999999999,-0.97,0.28600000000000003,0.057295800000000015,-0.1718874,0.0,105.1950888,-0.49274388,-30.63033468
3.13,313,-0.013999999999999999,-0.9690000000000001,0.287,0.0,-0.11459160000000004,0.0,105.20081838000002,-0.49274388,-30.63033468
3.1399999999999997,314,-0.013999999999999999,-0.9690000000000001,0.289,0.0,-0.2291832000000001,0.0,105.20081838000002,-0.49274388,-30.63033468
3.15,315,-0.015,-0.9690000000000001,0.289,0.0,-0.4583664000000001,0.0,105.21227754,-0.4984734599999999,-30.63606426
3.1599999999999997,316,-0.013000000000000001,-0.9690000000000001,0.289,0.0,-0.2291832000000001,0.0,105.21227754,-0.49274388,-30.63606426
3.17,317,-0.013999999999999999,-0.9690000000000001,0.287,0.0,-0.2291832000000001,0.0,105.21227754,-0.49274388,-30.64179384
3.1799999999999997,318,-0.013000000000000001,-0.97,0.287,0.0,-0.1718874,0.0,105.21227754,-0.49274388,-30.64179384
3.19,319,-0.013000000000000001,-0.9690000000000001,0.287,0.0,-0.057295800000000015,0.0,105.21227754,-0.49274388,-30.64179384
3.1999999999999997,320,-0.013999999999999999,-0.97,0.287,0.057295800000000015,-0.3437748,0.0,105.22946628,-0.49274388,-30.64752342
3.21,321,-0.013999999999999999,-0.97,0.28600000000000003,0.0,-0.11459160000000004,0.0,105.22946628,-0.49274388,-30.64752342
3.2199999999999998,322,-0.015,-0.9690000000000001,0.28600000000000003,0.057295800000000015,-0.057295800000000015,0.057295800000000015,105.22946628,-0.49274388,-30.64752342
3.23,323,-0.013999999999999999,-0.9690000000000001,0.28600000000000003,0.057295800000000015,-0.057295800000000015,0.0,105.23519586,-0.49274388,-30.64752342
3.2399999999999998,324,-0.013999999999999999,-0.97,0.28600000000000003,0.057295800000000015,0.0,0.0,105.23519586,-0.49274388,-30.64752342
3.25,325,-0.013000000000000001,-0.9690000000000001,0.287,0.057295800000000015,0.0,0.0,105.25238459999998,-0.4870143000000001,-30.653253000000007
3.26,326,-0.013999999999999999,-0.9690000000000001,0.28600000000000003,0.057295800000000015,0.057295800000000015,0.0,105.25238459999998,-0.4870143000000001,-30.653253000000007
3.27,327,-0.013999999999999999,-0.9690000000000001,0.28800000000000003,0.057295800000000015,0.1718874,0.0,105.25238459999998,-0.4870143000000001,-30.64752342
3.28,328,-0.013999999999999999,-0.9690000000000001,0.28600000000000003,0.0,0.1718874,0.0,105.25238459999998,-0.4870143000000001,-30.64752342
3.29,329,-0.013999999999999999,-0.9690000000000001,0.28600000000000003,0.0,0.2291832000000001,0.0,105.25238459999998,-0.49274388,-30.64752342
3.3,330,-0.013999999999999999,-0.97,0.28600000000000003,0.057295800000000015,0.2291832000000001,0.0,105.26384376,-0.4870143000000001,-30.64179384
3.31,331,-0.015,-0.9690000000000001,0.28600000000000003,0.0,0.2291832000000001,0.0,105.26384376,-0.4870143000000001,-30.64179384
3.32,332,-0.013999999999999999,-0.97,0.28600000000000003,0.0,0.1718874,0.0,105.26384376,-0.4870143000000001,-30.64179384
3.33,333,-0.013999999999999999,-0.9690000000000001,0.28800000000000003,0.0,0.1718874,0.0,105.26384376,-0.4870143000000001,-30.63606426
3.34,334,-0.013999999999999999,-0.97,0.287,-0.057295800000000015,0.1718874,0.0,105.26384376,-0.49274388,-30.63606426
3.3499999999999996,335,-0.013000000000000001,-0.97,0.28800000000000003,-0.11459160000000004,0.286479,0.0,105.26957334,-0.4870143000000001,-30.63606426
3.36,336,-0.013999999999999999,-0.97,0.289,-0.057295800000000015,0.286479,0.0,105.26384376,-0.4870143000000001,-30.63033468
3.3699999999999997,337,-0.013999999999999999,-0.9690000000000001,0.287,-0.057295800000000015,0.3437748,0.0,105.26384376,-0.4870143000000001,-30.63033468
3.38,338,-0.013000000000000001,-0.968,0.287,-0.057295800000000015,0.40107059999999994,0.0,105.26384376,-0.4870143000000001,-30.624605100000004
3.3899999999999997,339,-0.013999999999999999,-0.9690000000000001,0.28600000000000003,0.0,0.3437748,0.0,105.26384376,-0.49274388,-30.61887552
3.4,340,-0.013999999999999999,-0.9690000000000001,0.28600000000000003,0.0,0.40107059999999994,0.0,105.26957334,-0.49274388,-30.61887552
3.4099999999999997,341,-0.013999999999999999,-0.9690000000000001,0.28600000000000003,0.0,0.40107059999999994,0.0,105.26957334,-0.49274388,-30.61314594
3.42,342,-0.013000000000000001,-0.9690000000000001,0.287,0.057295800000000015,0.3437748,0.0,105.26957334,-0.49274388,-30.607416359999995
3.4299999999999997,343,-0.013000000000000001,-0.9690000000000001,0.287,0.057295800000000015,0.1718874,0.057295800000000015,105.26957334,-0.49274388,-30.607416359999995
3.44,344,-0.015,-0.97,0.287,0.057295800000000015,0.1718874,0.0,105.26957334,-0.49274388,-30.607416359999995
3.4499999999999997,345,-0.013999999999999999,-0.968,0.28800000000000003,0.0,0.0,0.0,105.29249166,-0.49274388,-30.607416359999995
3.46,346,-0.013000000000000001,-0.968,0.28600000000000003,0.0,0.0,0.0,105.29249166,-0.49274388,-30.607416359999995
3.4699999999999998,347,-0.013000000000000001,-0.9690000000000001,0.28800000000000003,0.0,0.0,0.057295800000000015,105.29249166,-0.49274388,-30.607416359999995
3.48,348,-0.013999999999999999,-0.9690000000000001,0.28800000000000003,-0.1718874,0.057295800000000015,0.0,105.29249166,-0.49274388,-30.607416359999995
3.4899999999999998,349,-0.013999999999999999,-0.9690000000000001,0.28600000000000003,-0.11459160000000004,0.286479,0.0,105.29249166,-0.49274388,-30.60168678
3.5,350,-0.013999999999999999,-0.97,0.285,0.0,0.1718874,0.0,105.28676208000002,-0.49274388,-30.60168678
3.51,351,-0.015,-0.971,0.28800000000000003,0.0,0.057295800000000015,0.0,105.28676208000002,-0.49274388,-30.60168678
3.52,352,-0.016,-0.97,0.29100000000000004,-0.057295800000000015,-0.40107059999999994,0.0,105.2810325,-0.49274388,-30.607416359999995
3.53,353,-0.013000000000000001,-0.9690000000000001,0.29100000000000004,0.0,-0.5156622000000001,0.0,105.2810325,-0.4870143000000001,-30.61314594
3.54,354,-0.012,-0.97,0.28800000000000003,-0.11459160000000004,-0.1718874,0.0,105.2810325,-0.4870143000000001,-30.61314594
3.55,355,-0.013000000000000001,-0.97,0.285,-0.057295800000000015,0.057295800000000015,0.0,105.27530292,-0.48128472,-30.61314594
3.56,356,-0.013000000000000001,-0.9690000000000001,0.28600000000000003,0.0,0.1718874,0.0,105.27530292,-0.48128472,-30.61314594
3.57,357,-0.013999999999999999,-0.968,0.287,0.0,0.057295800000000015,-0.057295800000000015,105.27530292,-0.48128472,-30.61314594
3.58,358,-0.016,-0.968,0.285,0.0,0.0,-0.057295800000000015,105.27530292,-0.48128472,-30.61314594
3.59,359,-0.016,-0.9690000000000001,0.285,0.0,-0.11459160000000004,-0.057295800000000015,105.27530292,-0.48128472,-30.61314594
3.5999999999999996,360,-0.015,-0.968,0.285,0.057295800000000015,-0.057295800000000015,0.0,105.27530292,-0.4870143000000001,-30.607416359999995
3.61,361,-0.013999999999999999,-0.9690000000000001,0.285,0.057295800000000015,-0.057295800000000015,0.0,105.27530292,-0.4870143000000001,-30.61314594
3.6199999999999997,362,-0.013999999999999999,-0.968,0.28600000000000003,0.057295800000000015,-0.11459160000000004,0.0,105.27530292,-0.4870143000000001,-30.61314594
3.63,363,-0.013999999999999999,-0.9690000000000001,0.287,0.11459160000000004,-0.11459160000000004,0.0,105.27530292,-0.4870143000000001,-30.61314594
3.6399999999999997,364,-0.015,-0.97,0.287,0.0,-0.11459160000000004,-0.057295800000000015,105.27530292,-0.4870143000000001,-30.61314594
3.65,365,-0.015,-0.9690000000000001,0.28800000000000003,0.0,-0.057295800000000015,0.0,105.29249166,-0.4870143000000001,-30.61314594
3.6599999999999997,366,-0.013999999999999999,-0.9690000000000001,0.287,-0.057295800000000015,-0.057295800000000015,0.0,105.29249166,-0.4870143000000001,-30.61314594
3.67,367,-0.013999999999999999,-0.9690000000000001,0.28600000000000003,-0.057295800000000015,-0.11459160000000004,-0.057295800000000015,105.29249166,-0.4870143000000001,-30.61887552
3.6799999999999997,368,-0.013999999999999999,-0.9690000000000001,0.28800000000000003,-0.2291832000000001,-0.057295800000000015,0.0,105.28676208000002,-0.4870143000000001,-30.61887552
3.69,369,-0.013999999999999999,-0.9690000000000001,0.28800000000000003,-0.057295800000000015,-0.057295800000000015,0.0,105.28676208000002,-0.4870143000000001,-30.61887552
3.6999999999999997,370,-0.013000000000000001,-0.97,0.28600000000000003,-0.057295800000000015,0.0,0.0,105.29249166,-0.4870143000000001,-30.61887552
3.71,371,-0.013999999999999999,-0.97,0.287,0.0,-0.11459160000000004,0.0,105.29249166,-0.4870143000000001,-30.61887552
3.7199999999999998,372,-0.015,-0.97,0.289,0.0,-0.3437748,0.0,105.28676208000002,-0.4870143000000001,-30.624605100000004
3.73,373,-0.015,-0.9690000000000001,0.29100000000000004,-0.11459160000000004,-0.1718874,0.0,105.28676208000002,-0.4870143000000001,-30.624605100000004
3.7399999999999998,374,-0.013999999999999999,-0.9690000000000001,0.289,-0.057295800000000015,-0.11459160000000004,0.0,105.28676208000002,-0.4870143000000001,-30.624605100000004
3.75,375,-0.013000000000000001,-0.968,0.28600000000000003,-0.057295800000000015,-0.057295800000000015,0.0,105.29822124,-0.48128472,-30.624605100000004
3.76,376,-0.013000000000000001,-0.9690000000000001,0.28600000000000003,-0.057295800000000015,0.0,0.0,105.29822124,-0.48128472,-30.624605100000004
3.77,377,-0.013999999999999999,-0.9690000000000001,0.287,0.0,0.0,0.0,105.29822124,-0.48128472,-30.63033468
3.78,378,-0.013999999999999999,-0.9690000000000001,0.287,0.0,0.0,0.0,105.29822124,-0.48128472,-30.63033468
3.79,379,-0.013999999999999999,-0.9690000000000001,0.28800000000000003,0.0,0.0,0.0,105.29822124,-0.48128472,-30.63033468
3.8,380,-0.015,-0.9690000000000001,0.28600000000000003,0.0,0.0,0.0,105.30395082,-0.4870143000000001,-30.624605100000004
3.81,381,-0.013999999999999999,-0.9690000000000001,0.287,0.0,0.057295800000000015,0.0,105.30395082,-0.4870143000000001,-30.624605100000004
3.82,382,-0.013000000000000001,-0.9690000000000001,0.28600000000000003,0.0,0.057295800000000015,0.0,105.30395082,-0.4870143000000001,-30.624605100000004
3.83,383,-0.013999999999999999,-0.968,0.28600000000000003,0.11459160000000004,0.1718874,0.0,105.3096804,-0.49274388,-30.624605100000004
3.84,384,-0.013999999999999999,-0.9690000000000001,0.287,0.0,0.1718874,0.0,105.3096804,-0.49274388,-30.61887552
3.8499999999999996,385,-0.013000000000000001,-0.9690000000000001,0.28600000000000003,0.057295800000000015,0.1718874,0.0,105.3096804,-0.4870143000000001,-30.61887552
3.86,386,-0.015,-0.968,0.287,0.11459160000000004,0.2291832000000001,0.0,105.3096804,-0.4870143000000001,-30.61887552
3.8699999999999997,387,-0.015,-0.97,0.28800000000000003,0.057295800000000015,0.286479,0.0,105.31540998,-0.49274388,-30.61314594
3.88,388,-0.013999999999999999,-0.9690000000000001,0.28800000000000003,0.0,0.2291832000000001,0.0,105.31540998,-0.49274388,-30.61314594
3.8899999999999997,389,-0.015,-0.9690000000000001,0.289,0.057295800000000015,0.11459160000000004,0.0,105.31540998,-0.49274388,-30.61314594
3.9,390,-0.015,-0.9690000000000001,0.289,0.0,0.2291832000000001,0.0,105.32686914,-0.4984734599999999,-30.607416359999995
3.9099999999999997,391,-0.016,-0.97,0.28800000000000003,0.057295800000000015,0.3437748,0.057295800000000015,105.33259872,-0.4984734599999999,-30.60168678
3.92,392,-0.015,-0.9690000000000001,0.287,-0.057295800000000015,0.2291832000000001,0.0,105.32686914,-0.4984734599999999,-30.60168678
3.9299999999999997,393,-0.013999999999999999,-0.97,0.287,-0.057295800000000015,0.057295800000000015,0.0,105.32686914,-0.4984734599999999,-30.60168678
3.94,394,-0.015,-0.97,0.285,-0.057295800000000015,0.11459160000000004,0.0,105.32686914,-0.4984734599999999,-30.60168678
3.9499999999999997,395,-0.015,-0.9690000000000001,0.28600000000000003,0.0,0.057295800000000015,0.0,105.33259872,-0.4984734599999999,-30.5959572
3.96,396,-0.013999999999999999,-0.97,0.28600000000000003,-0.057295800000000015,0.057295800000000015,0.0,105.33259872,-0.4984734599999999,-30.5959572
3.9699999999999998,397,-0.013000000000000001,-0.97,0.28600000000000003,0.0,0.11459160000000004,0.0,105.33259872,-0.5042030399999999,-30.5959572
3.98,398,-0.013000000000000001,-0.9690000000000001,0.284,0.0,0.1718874,0.0,105.33259872,-0.5042030399999999,-30.5959572
3.9899999999999998,399,-0.013000000000000001,-0.9690000000000001,0.28600000000000003,0.0,0.11459160000000004,0.0,105.33259872,-0.5042030399999999,-30.59022762
4.0,400,-0.015,-0.968,0.285,0.0,0.0,0.0,105.33259872,-0.5042030399999999,-30.59022762
4.01,401,-0.013999999999999999,-0.9690000000000001,0.28800000000000003,0.0,0.0,0.0,105.33259872,-0.5042030399999999,-30.59022762
4.02,402,-0.013999999999999999,-0.9690000000000001,0.287,-0.11459160000000004,0.0,0.0,105.33259872,-0.5042030399999999,-30.59022762
4.03,403,-0.013000000000000001,-0.9690000000000001,0.28800000000000003,-0.11459160000000004,-0.11459160000000004,-0.11459160000000004,105.33259872,-0.5042030399999999,-30.59022762
4.04,404,-0.013999999999999999,-0.9690000000000001,0.29,-0.1718874,-0.11459160000000004,0.0,105.33259872,-0.5042030399999999,-30.5959572
4.05,405,-0.013999999999999999,-0.968,0.29,-0.1718874,0.0,-0.057295800000000015,105.36124662,-0.4984734599999999,-30.5959572
4.06,406,-0.013999999999999999,-0.97,0.28800000000000003,-0.057295800000000015,0.0,-0.057295800000000015,105.36124662,-0.4984734599999999,-30.5959572
4.07,407,-0.013999999999999999,-0.97,0.28600000000000003,0.0,0.0,0.0,105.36124662,-0.4984734599999999,-30.5959572
4.08,408,-0.013999999999999999,-0.97,0.29100000000000004,0.057295800000000015,-0.11459160000000004,0.0,105.36124662,-0.4984734599999999,-30.5959572
4.09,409,-0.016,-0.97,0.294,-0.057295800000000015,-0.3437748,0.0,105.36124662,-0.49274388,-30.60168678
4.1,410,-0.013999999999999999,-0.9690000000000001,0.292,-0.11459160000000004,-0.5156622000000001,0.0,105.36697620000001,-0.4870143000000001,-30.607416359999995
4.109999999999999,411,-0.013000000000000001,-0.97,0.29,0.0,-0.1718874,0.0,105.36697620000001,-0.4870143000000001,-30.607416359999995
4.12,412,-0.012,-0.97,0.287,0.0,0.11459160000000004,0.0,105.36697620000001,-0.4870143000000001,-30.607416359999995
4.13,413,-0.013000000000000001,-0.97,0.287,0.0,0.2291832000000001,0.0,105.36697620000001,-0.4870143000000001,-30.60168678
4.14,414,-0.015,-0.9690000000000001,0.28600000000000003,0.057295800000000015,0.11459160000000004,0.0,105.36697620000001,-0.49274388,-30.60168678
4.1499999999999995,415,-0.016,-0.968,0.28600000000000003,0.057295800000000015,0.0,0.0,105.36697620000001,-0.5042030399999999,-30.60168678
4.16,416,-0.016,-0.968,0.285,0.057295800000000015,0.0,0.0,105.36697620000001,-0.5042030399999999,-30.60168678
4.17,417,-0.013999999999999999,-0.97,0.28300000000000003,0.057295800000000015,0.057295800000000015,0.0,105.36697620000001,-0.5042030399999999,-30.60168678
4.18,418,-0.013000000000000001,-0.9690000000000001,0.285,0.057295800000000015,0.0,0.0,105.36697620000001,-0.5042030399999999,-30.60168678
4.1899999999999995,419,-0.015,-0.9690000000000001,0.284,0.0,0.0,0.0,105.36697620000001,-0.5042030399999999,-30.60168678
4.2,420,-0.013000000000000001,-0.9690000000000001,0.284,0.0,0.057295800000000015,0.0,105.36124662,-0.49274388,-30.60168678
4.21,421,-0.013000000000000001,-0.9690000000000001,0.28600000000000003,0.0,0.0,0.0,105.36124662,-0.49274388,-30.60168678
4.22,422,-0.013999999999999999,-0.9690000000000001,0.287,-0.057295800000000015,0.0,0.0,105.35551704000002,-0.49274388,-30.60168678
4.2299999999999995,423,-0.013999999999999999,-0.97,0.28800000000000003,-0.1718874,0.0,0.0,105.35551704000002,-0.49274388,-30.60168678
4.24,424,-0.013999999999999999,-0.968,0.28800000000000003,-0.286479,0.0,0.0,105.35551704000002,-0.49274388,-30.60168678
4.25,425,-0.015,-0.9690000000000001,0.28800000000000003,-0.3437748,-0.1718874,0.0,105.35551704000002,-0.49274388,-30.60168678
4.26,426,-0.013999999999999999,-0.97,0.28800000000000003,-0.286479,-0.2291832000000001,0.057295800000000015,105.34978746,-0.49274388,-30.607416359999995
4.27,427,-0.013999999999999999,-0.97,0.287,-0.2291832000000001,0.0,0.0,105.34978746,-0.49274388,-30.607416359999995
4.28,428,-0.013999999999999999,-0.97,0.28800000000000003,-0.11459160000000004,0.0,0.0,105.34405788,-0.49274388,-30.607416359999995
4.29,429,-0.013999999999999999,-0.97,0.289,-0.11459160000000004,-0.11459160000000004,0.0,105.34405788,-0.49274388,-30.607416359999995
4.3,430,-0.015,-0.9690000000000001,0.289,-0.1718874,-0.1718874,0.0,105.34405788,-0.49274388,-30.607416359999995
4.31,431,-0.013999999999999999,-0.97,0.287,-0.057295800000000015,-0.286479,0.0,105.34405788,-0.49274388,-30.61314594
4.32,432,-0.013999999999999999,-0.9690000000000001,0.28800000000000003,-0.11459160000000004,-0.1718874,0.0,105.34405788,-0.49274388,-30.61314594
4.33,433,-0.013000000000000001,-0.97,0.287,-0.057295800000000015,-0.057295800000000015,-0.057295800000000015,105.34405788,-0.4870143000000001,-30.61314594
4.34,434,-0.013999999999999999,-0.9690000000000001,0.287,0.0,-0.057295800000000015,0.0,105.34405788,-0.4870143000000001,-30.61314594
4.35,435,-0.013999999999999999,-0.968,0.287,0.0,0.0,0.0,105.35551704000002,-0.4870143000000001,-30.61314594
4.36,436,-0.015,-0.97,0.287,0.057295800000000015,0.0,0.0,105.35551704000002,-0.4870143000000001,-30.61314594
4.37,437,-0.015,-0.9690000000000001,0.285,0.0,0.057295800000000015,0.0,105.35551704000002,-0.4870143000000001,-30.61314594
4.38,438,-0.015,-0.9690000000000001,0.285,0.057295800000000015,0.11459160000000004,0.0,105.35551704000002,-0.4870143000000001,-30.61314594
4.39,439,-0.013000000000000001,-0.9690000000000001,0.285,0.0,0.11459160000000004,0.057295800000000015,105.35551704000002,-0.4870143000000001,-30.61314594
4.3999999999999995,440,-0.013999999999999999,-0.9690000000000001,0.28600000000000003,0.057295800000000015,0.2291832000000001,0.0,105.35551704000002,-0.49274388,-30.607416359999995
4.41,441,-0.013999999999999999,-0.97,0.285,0.11459160000000004,0.1718874,0.0,105.36124662,-0.49274388,-30.607416359999995
4.42,442,-0.013000000000000001,-0.9690000000000001,0.285,0.057295800000000015,0.3437748,0.0,105.36124662,-0.49274388,-30.60168678
4.43,443,-0.013999999999999999,-0.9690000000000001,0.285,0.057295800000000015,0.4583664000000001,0.0,105.36124662,-0.49274388,-30.5959572
4.4399999999999995,444,-0.015,-0.9690000000000001,0.28600000000000003,0.0,0.40107059999999994,0.0,105.36124662,-0.4984734599999999,-30.5959572
4.45,445,-0.013999999999999999,-0.9690000000000001,0.285,0.0,0.40107059999999994,0.0,105.35551704000002,-0.4984734599999999,-30.59022762
4.46,446,-0.015,-0.9690000000000001,0.28600000000000003,0.0,0.40107059999999994,0.0,105.35551704000002,-0.4984734599999999,-30.58449804
4.47,447,-0.015,-0.9690000000000001,0.28600000000000003,0.0,0.2291832000000001,0.0,105.35551704000002,-0.5042030399999999,-30.58449804
4.4799999999999995,448,-0.013999999999999999,-0.9690000000000001,0.287,0.0,0.1718874,0.0,105.35551704000002,-0.5042030399999999,-30.58449804
4.49,449,-0.013999999999999999,-0.97,0.287,0.0,0.2291832000000001,0.0,105.35551704000002,-0.5042030399999999,-30.57876846
4.5,450,-0.013999999999999999,-0.9690000000000001,0.28600000000000003,0.0,0.1718874,0.0,105.35551704000002,-0.4984734599999999,-30.57876846
4.51,451,-0.013999999999999999,-0.9690000000000001,0.28600000000000003,0.0,0.286479,0.0,105.35551704000002,-0.4984734599999999,-30.57303888
4.52,452,-0.015,-0.9690000000000001,0.28600000000000003,0.0,0.1718874,0.0,105.35551704000002,-0.4984734599999999,-30.57303888
4.53,453,-0.015,-0.97,0.287,0.057295800000000015,0.1718874,0.0,105.35551704000002,-0.4984734599999999,-30.57303888
4.54,454,-0.013999999999999999,-0.968,0.284,0.057295800000000015,0.2291832000000001,0.0,105.35551704000002,-0.4984734599999999,-30.5673093
4.55,455,-0.013999999999999999,-0.97,0.285,0.2291832000000001,0.1718874,-0.11459160000000004,105.35551704000002,-0.49274388,-30.5673093
4.56,456,-0.015,-0.9690000000000001,0.285,0.11459160000000004,0.1718874,0.0,105.36124662,-0.49274388,-30.5673093
4.57,457,-0.013999999999999999,-0.97,0.285,0.2291832000000001,0.0,0.057295800000000015,105.36124662,-0.49274388,-30.5673093
4.58,458,-0.015,-0.97,0.287,0.1718874,-0.057295800000000015,0.0,105.36124662,-0.49274388,-30.5673093
4.59,459,-0.015,-0.9690000000000001,0.287,0.057295800000000015,-0.057295800000000015,0.0,105.36697620000001,-0.49274388,-30.5673093
4.6,460,-0.013999999999999999,-0.9690000000000001,0.28800000000000003,0.0,-0.2291832000000001,0.0,105.36697620000001,-0.4984734599999999,-30.5673093
4.61,461,-0.013999999999999999,-0.9690000000000001,0.289,-0.057295800000000015,-0.3437748,0.0,105.36697620000001,-0.49274388,-30.57303888
4.62,462,-0.013999999999999999,-0.9690000000000001,0.289,-0.057295800000000015,-0.286479,0.0,105.36697620000001,-0.49274388,-30.57876846
4.63,463,-0.013000000000000001,-0.97,0.284,0.0,-0.057295800000000015,-0.057295800000000015,105.36697620000001,-0.49274388,-30.57876846
4.64,464,-0.013000000000000001,-0.971,0.285,0.057295800000000015,-0.057295800000000015,-0.057295800000000015,105.36697620000001,-0.49274388,-30.57876846
4.6499999999999995,465,-0.015,-0.97,0.28800000000000003,0.0,-0.286479,0.0,105.37270577999998,-0.49274388,-30.57876846
4.66,466,-0.016,-0.97,0.289,0.0,-0.6875496,0.0,105.37270577999998,-0.4870143000000001,-30.58449804
4.67,467,-0.013000000000000001,-0.9690000000000001,0.28800000000000003,0.0,-0.6302538000000001,0.0,105.37270577999998,-0.4870143000000001,-30.5959572
4.68,468,-0.012,-0.97,0.285,0.0,-0.2291832000000001,-0.057295800000000015,105.37270577999998,-0.4870143000000001,-30.5959572
4.6899999999999995,469,-0.013000000000000001,-0.97,0.28600000000000003,0.0,0.0,-0.057295800000000015,105.37270577999998,-0.4870143000000001,-30.5959572
4.7,470,-0.013999999999999999,-0.9690000000000001,0.28600000000000003,0.0,0.1718874,-0.057295800000000015,105.36697620000001,-0.4870143000000001,-30.59022762
4.71,471,-0.015,-0.9690000000000001,0.28800000000000003,0.057295800000000015,0.0,-0.057295800000000015,105.36697620000001,-0.4870143000000001,-30.59022762
4.72,472,-0.016,-0.9690000000000001,0.285,0.057295800000000015,-0.057295800000000015,0.0,105.36697620000001,-0.4870143000000001,-30.59022762
4.7299999999999995,473,-0.016,-0.97,0.284,0.0,-0.057295800000000015,0.0,105.36697620000001,-0.4870143000000001,-30.5959572
4.74,474,-0.015,-0.9690000000000001,0.285,0.0,-0.057295800000000015,0.0,105.36697620000001,-0.4870143000000001,-30.5959572
4.75,475,-0.013999999999999999,-0.9690000000000001,0.284,0.11459160000000004,-0.057295800000000015,0.0,105.35551704000002,-0.48128472,-30.5959572
4.76,476,-0.013999999999999999,-0.9690000000000001,0.285,0.0,0.0,0.0,105.35551704000002,-0.48128472,-30.5959572
4.77,477,-0.013000000000000001,-0.968,0.285,0.0,0.057295800000000015,0.057295800000000015,105.35551704000002,-0.48128472,-30.5959572
4.78,478,-0.013999999999999999,-0.97,0.287,0.0,0.11459160000000004,0.0,105.35551704000002,-0.48128472,-30.5959572
4.79,479,-0.013999999999999999,-0.97,0.287,0.0,0.1718874,0.057295800000000015,105.35551704000002,-0.4870143000000001,-30.59022762
4.8,480,-0.013999999999999999,-0.97,0.28600000000000003,0.0,0.2291832000000001,0.057295800000000015,105.35551704000002,-0.4870143000000001,-30.59022762
4.81,481,-0.013999999999999999,-0.9690000000000001,0.28800000000000003,-0.11459160000000004,0.2291832000000001,0.0,105.35551704000002,-0.4870143000000001,-30.59022762
4.82,482,-0.015,-0.9690000000000001,0.28800000000000003,-0.057295800000000015,0.1718874,0.0,105.34978746,-0.4870143000000001,-30.58449804
4.83,483,-0.013000000000000001,-0.9690000000000001,0.28800000000000003,-0.057295800000000015,0.0,0.0,105.34978746,-0.4870143000000001,-30.58449804
4.84,484,-0.013999999999999999,-0.97,0.287,-0.11459160000000004,0.2291832000000001,0.0,105.34978746,-0.4870143000000001,-30.58449804
4.85,485,-0.013999999999999999,-0.97,0.28600000000000003,-0.057295800000000015,0.3437748,0.0,105.34405788,-0.4870143000000001,-30.57876846
4.86,486,-0.013999999999999999,-0.971,0.287,0.0,0.2291832000000001,0.0,105.34405788,-0.4870143000000001,-30.57876846
4.87,487,-0.015,-0.97,0.287,0.0,0.11459160000000004,0.0,105.34405788,-0.49274388,-30.57303888
4.88,488,-0.013000000000000001,-0.968,0.287,0.0,0.0,0.057295800000000015,105.34405788,-0.49274388,-30.57303888
4.89,489,-0.013999999999999999,-0.97,0.28600000000000003,0.0,0.0,0.0,105.34405788,-0.49274388,-30.57303888
4.8999999999999995,490,-0.013999999999999999,-0.9690000000000001,0.287,0.0,0.1718874,0.0,105.34405788,-0.49274388,-30.57303888
4.91,491,-0.015,-0.9690000000000001,0.28600000000000003,0.057295800000000015,0.11459160000000004,0.0,105.34405788,-0.49274388,-30.57303888
4.92,492,-0.013999999999999999,-0.97,0.285,0.0,0.11459160000000004,0.0,105.34405788,-0.49274388,-30.57303888
4.93,493,-0.015,-0.9690000000000001,0.285,0.0,0.057295800000000015,0.0,105.34405788,-0.49274388,-30.57303888
4.9399999999999995,494,-0.016,-0.97,0.287,0.0,0.0,0.0,105.34405788,-0.49274388,-30.57303888
4.95,495,-0.013999999999999999,-0.97,0.28600000000000003,0.0,0.0,0.0,105.3383283,-0.5042030399999999,-30.5673093
4.96,496,-0.013999999999999999,-0.97,0.285,0.057295800000000015,0.0,0.0,105.3383283,-0.5042030399999999,-30.5673093
4.97,497,-0.013999999999999999,-0.9690000000000001,0.287,0.057295800000000015,0.0,0.0,105.3383283,-0.5042030399999999,-30.57303888
4.9799999999999995,498,-0.013999999999999999,-0.9690000000000001,0.28600000000000003,0.0,-0.057295800000000015,0.0,105.34405788,-0.4984734599999999,-30.57303888
4.99,499,-0.013999999999999999,-0.968,0.285,0.0,0.0,0.0,105.34405788,-0.4984734599999999,-30.57303888
5.0,500,-0.013999999999999999,-0.97,0.28600000000000003,0.0,0.0,0.0,105.3383283,-0.49274388,-30.57303888
5.01,501,-0.013999999999999999,-0.9690000000000001,0.28600000000000003,0.057295800000000015,0.057295800000000015,0.0,105.34405788,-0.4984734599999999,-30.57303888
5.02,502,-0.013999999999999999,-0.97,0.28600000000000003,0.0,0.057295800000000015,0.0,105.34405788,-0.4984734599999999,-30.5673093
5.03,503,-0.013999999999999999,-0.97,0.287,0.0,0.0,-0.057295800000000015,105.34405788,-0.49274388,-30.5673093
5.04,504,-0.015,-0.97,0.287,0.0,-0.057295800000000015,-0.057295800000000015,105.34405788,-0.49274388,-30.57303888
5.05,505,-0.015,-0.9690000000000001,0.287,0.0,-0.11459160000000004,-0.057295800000000015,105.34405788,-0.49274388,-30.57303888
5.06,506,-0.015,-0.97,0.28600000000000003,0.0,-0.2291832000000001,0.0,105.34405788,-0.49274388,-30.57303888
5.07,507,-0.013999999999999999,-0.97,0.28600000000000003,0.0,-0.2291832000000001,0.0,105.34405788,-0.49274388,-30.57876846
5.08,508,-0.013999999999999999,-0.97,0.287,0.0,-0.2291832000000001,0.0,105.34405788,-0.49274388,-30.57876846
5.09,509,-0.013999999999999999,-0.971,0.28600000000000003,-0.057295800000000015,-0.1718874,-0.057295800000000015,105.34405788,-0.49274388,-30.57876846
5.1,510,-0.015,-0.9690000000000001,0.285,0.0,-0.1718874,0.0,105.3383283,-0.49274388,-30.57876846
5.11,511,-0.015,-0.9690000000000001,0.285,0.057295800000000015,0.0,0.0,105.3383283,-0.4870143000000001,-30.58449804
5.12,512,-0.013999999999999999,-0.9690000000000001,0.28300000000000003,0.057295800000000015,0.0,0.0,105.3383283,-0.49274388,-30.58449804
5.13,513,-0.013999999999999999,-0.968,0.285,0.11459160000000004,0.0,0.0,105.3383283,-0.49274388,-30.58449804
5.14,514,-0.013999999999999999,-0.968,0.285,0.057295800000000015,-0.057295800000000015,0.0,105.3383283,-0.49274388,-30.58449804
5.1499999999999995,515,-0.013999999999999999,-0.9690000000000001,0.285,0.0,0.0,0.0,105.3383283,-0.49274388,-30.58449804
5.16,516,-0.015,-0.9690000000000001,0.28600000000000003,0.0,0.0,0.057295800000000015,105.3383283,-0.49274388,-30.58449804
5.17,517,-0.015,-0.9690000000000001,0.28800000000000003,0.0,0.0,0.0,105.3383283,-0.49274388,-30.58449804
5.18,518,-0.015,-0.9690000000000001,0.28800000000000003,-0.057295800000000015,-0.1718874,0.0,105.3383283,-0.49274388,-30.58449804
5.1899999999999995,519,-0.015,-0.97,0.289,-0.057295800000000015,-0.1718874,0.0,105.33259872,-0.49274388,-30.59022762
5.2,520,-0.013000000000000001,-0.97,0.28600000000000003,0.0,0.11459160000000004,0.057295800000000015,105.33259872,-0.49274388,-30.58449804
5.21,521,-0.013000000000000001,-0.97,0.285,0.0,0.2291832000000001,0.0,105.33259872,-0.49274388,-30.58449804
5.22,522,-0.013999999999999999,-0.971,0.287,0.0,0.11459160000000004,0.057295800000000015,105.33259872,-0.49274388,-30.58449804
5.2299999999999995,523,-0.013999999999999999,-0.97,0.28800000000000003,0.0,-0.3437748,0.057295800000000015,105.33259872,-0.49274388,-30.58449804
5.24,524,-0.013999999999999999,-0.97,0.28600000000000003,0.11459160000000004,-0.4583664000000001,0.0,105.33259872,-0.49274388,-30.59022762
5.25,525,-0.013000000000000001,-0.97,0.28600000000000003,0.057295800000000015,-0.1718874,0.0,105.32686914,-0.47555514,-30.5959572
5.26,526,-0.012,-0.9690000000000001,0.28600000000000003,0.0,0.2291832000000001,0.0,105.32686914,-0.47555514,-30.59022762
5.27,527,-0.013999999999999999,-0.9690000000000001,0.287,0.0,0.3437748,0.0,105.32686914,-0.47555514,-30.59022762
5.28,528,-0.015,-0.9690000000000001,0.287,0.0,0.2291832000000001,0.0,105.32686914,-0.47555514,-30.58449804
5.29,529,-0.017,-0.9690000000000001,0.28600000000000003,0.0,0.0,0.0,105.32686914,-0.47555514,-30.58449804
5.3,530,-0.016,-0.9690000000000001,0.285,0.057295800000000015,0.057295800000000015,0.0,105.33259872,-0.48128472,-30.58449804
5.31,531,-0.015,-0.9690000000000001,0.285,0.0,0.057295800000000015,0.0,105.33259872,-0.48128472,-30.58449804
5.32,532,-0.013999999999999999,-0.97,0.285,0.0,0.057295800000000015,0.0,105.33259872,-0.48128472,-30.58449804
5.33,533,-0.013999999999999999,-0.9690000000000001,0.285,0.057295800000000015,0.057295800000000015,0.0,105.33259872,-0.48128472,-30.58449804
5.34,534,-0.015,-0.968,0.284,0.0,0.11459160000000004,0.0,105.33259872,-0.48128472,-30.57876846
5.35,535,-0.013999999999999999,-0.9690000000000001,0.284,0.0,0.057295800000000015,0.0,105.32686914,-0.4870143000000001,-30.57876846
5.36,536,-0.013999999999999999,-0.97,0.285,0.0,0.0,0.0,105.32686914,-0.4870143000000001,-30.57876846
5.37,537,-0.013999999999999999,-0.9690000000000001,0.285,-0.057295800000000015,-0.057295800000000015,0.0,105.32686914,-0.4870143000000001,-30.57876846
5.38,538,-0.015,-0.97,0.285,0.0,-0.057295800000000015,0.0,105.32686914,-0.4870143000000001,-30.57876846
5.39,539,-0.015,-0.9690000000000001,0.28600000000000003,-0.057295800000000015,-0.057295800000000015,0.0,105.32686914,-0.4870143000000001,-30.57876846
5.3999999999999995,540,-0.013999999999999999,-0.9690000000000001,0.287,-0.057295800000000015,-0.3437748,0.0,105.32686914,-0.4870143000000001,-30.58449804
5.41,541,-0.013999999999999999,-0.97,0.285,-0.057295800000000015,-0.1718874,0.0,105.32686914,-0.4870143000000001,-30.58449804
5.42,542,-0.013999999999999999,-0.97,0.28600000000000003,-0.057295800000000015,-0.11459160000000004,0.0,105.32686914,-0.48128472,-30.59022762
5.43,543,-0.013999999999999999,-0.9690000000000001,0.287,0.0,-0.057295800000000015,-0.057295800000000015,105.32686914,-0.48128472,-30.59022762
5.4399999999999995,544,-0.015,-0.968,0.28600000000000003,0.0,-0.1718874,0.0,105.32686914,-0.48128472,-30.59022762
5.45,545,-0.015,-0.9690000000000001,0.28600000000000003,0.0,-0.3437748,0.057295800000000015,105.32113956,-0.48128472,-30.5959572
5.46,546,-0.013999999999999999,-0.9690000000000001,0.28600000000000003,0.0,-0.3437748,0.0,105.32113956,-0.48128472,-30.5959572
5.47,547,-0.013000000000000001,-0.9690000000000001,0.28600000000000003,0.0,-0.1718874,0.0,105.32113956,-0.48128472,-30.60168678
5.4799999999999995,548,-0.013999999999999999,-0.9690000000000001,0.285,0.0,-0.11459160000000004,0.0,105.32113956,-0.48128472,-30.60168678
5.49,549,-0.013999999999999999,-0.9690000000000001,0.285,0.057295800000000015,-0.11459160000000004,0.0,105.32113956,-0.47555514,-30.60168678
5.5,550,-0.013999999999999999,-0.97,0.28600000000000003,0.0,-0.1718874,0.0,105.32686914,-0.47555514,-30.607416359999995
5.51,551,-0.013999999999999999,-0.9690000000000001,0.28600000000000003,0.0,-0.2291832000000001,0.0,105.32686914,-0.47555514,-30.607416359999995
5.52,552,-0.013999999999999999,-0.97,0.28600000000000003,0.0,-0.1718874,0.0,105.32686914,-0.47555514,-30.607416359999995
5.53,553,-0.013999999999999999,-0.9690000000000001,0.28600000000000003,0.0,-0.11459160000000004,0.0,105.32686914,-0.47555514,-30.607416359999995
5.54,554,-0.013999999999999999,-0.97,0.287,0.0,-0.11459160000000004,0.0,105.32686914,-0.47555514,-30.61314594
5.55,555,-0.013000000000000001,-0.9690000000000001,0.28600000000000003,0.057295800000000015,-0.11459160000000004,0.0,105.32686914,-0.46409598,-30.61314594
5.56,556,-0.013999999999999999,-0.9690000000000001,0.285,0.0,-0.11459160000000004,0.0,105.32686914,-0.46409598,-30.61314594
5.57,557,-0.013999999999999999,-0.9690000000000001,0.28600000000000003,0.0,0.0,0.0,105.32686914,-0.46409598,-30.61314594
5.58,558,-0.013999999999999999,-0.97,0.28600000000000003,0.0,0.11459160000000004,0.0,105.32686914,-0.46409598,-30.61314594
5.59,559,-0.013999999999999999,-0.9690000000000001,0.28600000000000003,0.0,0.1718874,0.0,105.32686914,-0.46409598,-30.61314594
5.6,560,-0.013999999999999999,-0.97,0.28600000000000003,0.057295800000000015,0.11459160000000004,0.057295800000000015,105.32686914,-0.46982556,-30.607416359999995
5.61,561,-0.013999999999999999,-0.9690000000000001,0.28600000000000003,0.0,0.0,0.0,105.32686914,-0.46982556,-30.607416359999995
5.62,562,-0.016,-0.9690000000000001,0.285,0.0,0.11459160000000004,0.0,105.32686914,-0.46982556,-30.607416359999995
5.63,563,-0.013999999999999999,-0.968,0.28600000000000003,0.0,0.057295800000000015,0.11459160000000004,105.32686914,-0.46982556,-30.607416359999995
5.64,564,-0.013999999999999999,-0.9690000000000001,0.28600000000000003,0.0,0.057295800000000015,0.0,105.32686914,-0.46982556,-30.607416359999995
5.6499999999999995,565,-0.013999999999999999,-0.97,0.287,0.0,0.11459160000000004,0.0,105.32686914,-0.48128472,-30.607416359999995
5.66,566,-0.013999999999999999,-0.97,0.28600000000000003,0.0,0.057295800000000015,0.0,105.32686914,-0.48128472,-30.60168678
5.67,567,-0.013999999999999999,-0.9690000000000001,0.28600000000000003,0.0,0.11459160000000004,0.0,105.32686914,-0.48128472,-30.60168678
5.68,568,-0.013000000000000001,-0.9690000000000001,0.28600000000000003,0.0,0.2291832000000001,0.0,105.32686914,-0.48128472,-30.60168678
5.6899999999999995,569,-0.013999999999999999,-0.9690000000000001,0.285,0.0,0.1718874,0.0,105.32686914,-0.48128472,-30.60168678
5.7,570,-0.015,-0.9690000000000001,0.285,0.0,0.11459160000000004,0.0,105.32113956,-0.4870143000000001,-30.5959572
5.71,571,-0.013000000000000001,-0.968,0.28600000000000003,0.057295800000000015,0.2291832000000001,0.0,105.32113956,-0.4870143000000001,-30.5959572
5.72,572,-0.013999999999999999,-0.9690000000000001,0.284,0.0,0.11459160000000004,0.0,105.32113956,-0.4870143000000001,-30.5959572
5.7299999999999995,573,-0.013999999999999999,-0.9690000000000001,0.285,0.057295800000000015,0.11459160000000004,0.0,105.32113956,-0.4870143000000001,-30.59022762
5.74,574,-0.013999999999999999,-0.97,0.28600000000000003,0.0,0.11459160000000004,0.0,105.32113956,-0.4870143000000001,-30.59022762
5.75,575,-0.015,-0.97,0.28600000000000003,0.0,0.0,0.0,105.32113956,-0.4870143000000001,-30.59022762
5.76,576,-0.015,-0.9690000000000001,0.287,0.0,0.0,0.0,105.32113956,-0.4870143000000001,-30.59022762
5.77,577,-0.013999999999999999,-0.9690000000000001,0.28800000000000003,-0.057295800000000015,0.0,0.0,105.32113956,-0.4870143000000001,-30.59022762
5.78,578,-0.013999999999999999,-0.9690000000000001,0.28600000000000003,-0.057295800000000015,0.057295800000000015,0.0,105.32113956,-0.4870143000000001,-30.59022762
5.79,579,-0.013999999999999999,-0.97,0.28600000000000003,0.0,0.1718874,0.057295800000000015,105.32113956,-0.49274388,-30.59022762
5.8,580,-0.013999999999999999,-0.971,0.287,0.0,0.057295800000000015,0.0,105.3383283,-0.49274388,-30.58449804
5.81,581,-0.015,-0.9690000000000001,0.28800000000000003,-0.057295800000000015,-0.1718874,0.0,105.3383283,-0.49274388,-30.59022762
5.82,582,-0.015,-0.97,0.285,0.057295800000000015,-0.4583664000000001,0.0,105.3383283,-0.4870143000000001,-30.5959572
5.83,583,-0.013000000000000001,-0.97,0.28600000000000003,0.0,-0.286479,0.0,105.3383283,-0.4870143000000001,-30.5959572
5.84,584,-0.013000000000000001,-0.97,0.285,0.0,0.0,0.0,105.3383283,-0.4870143000000001,-30.5959572
5.85,585,-0.013000000000000001,-0.968,0.287,0.057295800000000015,0.0,0.0,105.34405788,-0.4870143000000001,-30.5959572
5.86,586,-0.015,-0.9690000000000001,0.28600000000000003,0.057295800000000015,-0.057295800000000015,0.0,105.34405788,-0.4870143000000001,-30.5959572
5.87,587,-0.015,-0.971,0.28600000000000003,0.0,-0.057295800000000015,0.0,105.34405788,-0.4870143000000001,-30.5959572
5.88,588,-0.015,-0.968,0.287,0.0,0.0,0.0,105.34405788,-0.4870143000000001,-30.5959572
5.89,589,-0.016,-0.97,0.285,0.11459160000000004,0.057295800000000015,0.0,105.34405788,-0.4870143000000001,-30.5959572
5.8999999999999995,590,-0.013999999999999999,-0.9690000000000001,0.284,0.0,0.0,0.0,105.33259872,-0.4984734599999999,-30.5959572
5.91,591,-0.015,-0.97,0.285,0.0,0.057295800000000015,0.0,105.33259872,-0.4984734599999999,-30.5959572
5.92,592,-0.013999999999999999,-0.9690000000000001,0.285,0.0,0.0,0.0,105.33259872,-0.4984734599999999,-30.5959572
5.93,593,-0.013999999999999999,-0.968,0.285,0.0,0.0,0.0,105.33259872,-0.4984734599999999,-30.5959572
5.9399999999999995,594,-0.013999999999999999,-0.9690000000000001,0.28600000000000003,-0.057295800000000015,0.0,0.0,105.33259872,-0.4984734599999999,-30.5959572
5.95,595,-0.013999999999999999,-0.9690000000000001,0.28600000000000003,-0.057295800000000015,0.0,0.0,105.3383283,-0.5042030399999999,-30.5959572
5.96,596,-0.013000000000000001,-0.97,0.285,0.0,0.0,0.0,105.3383283,-0.5042030399999999,-30.5959572
5.97,597,-0.013999999999999999,-0.97,0.28600000000000003,0.0,0.0,0.057295800000000015,105.3383283,-0.5042030399999999,-30.5959572
5.9799999999999995,598,-0.015,-0.971,0.28800000000000003,0.0,-0.057295800000000015,0.0,105.3383283,-0.5042030399999999,-30.5959572
5.99,599,-0.013999999999999999,-0.9690000000000001,0.287,-0.057295800000000015,0.0,0.0,105.3383283,-0.5042030399999999,-30.5959572
6.0,600,-0.013999999999999999,-0.97,0.28600000000000003,0.0,0.057295800000000015,0.057295800000000015,105.3383283,-0.5042030399999999,-30.5959572
6.01,601,-0.013999999999999999,-0.97,0.28600000000000003,-0.057295800000000015,0.11459160000000004,0.0,105.3383283,-0.5042030399999999,-30.5959572
6.02,602,-0.013999999999999999,-0.9690000000000001,0.28600000000000003,0.0,0.0,0.0,105.3383283,-0.5042030399999999,-30.5959572
6.03,603,-0.015,-0.9690000000000001,0.285,0.057295800000000015,-0.057295800000000015,0.057295800000000015,105.34405788,-0.5042030399999999,-30.5959572
6.04,604,-0.013999999999999999,-0.97,0.285,0.057295800000000015,-0.1718874,0.0,105.34405788,-0.4984734599999999,-30.5959572
6.05,605,-0.013999999999999999,-0.9690000000000001,0.285,0.057295800000000015,-0.057295800000000015,0.0,105.33259872,-0.5042030399999999,-30.5959572
6.06,606,-0.013999999999999999,-0.968,0.28600000000000003,0.057295800000000015,0.0,0.0,105.3383283,-0.5042030399999999,-30.5959572
6.07,607,-0.013999999999999999,-0.9690000000000001,0.287,0.057295800000000015,-0.057295800000000015,0.0,105.3383283,-0.5042030399999999,-30.5959572
6.08,608,-0.013999999999999999,-0.9690000000000001,0.287,0.0,0.0,0.0,105.3383283,-0.5042030399999999,-30.5959572
6.09,609,-0.015,-0.9690000000000001,0.28800000000000003,0.0,0.057295800000000015,0.0,105.3383283,-0.5042030399999999,-30.5959572
6.1,610,-0.015,-0.9690000000000001,0.28600000000000003,0.0,0.11459160000000004,0.0,105.34405788,-0.49274388,-30.5959572
6.11,611,-0.013000000000000001,-0.9690000000000001,0.287,-0.057295800000000015,0.1718874,0.0,105.34405788,-0.49274388,-30.5959572
6.12,612,-0.015,-0.9690000000000001,0.28600000000000003,-0.057295800000000015,0.1718874,0.0,105.34405788,-0.49274388,-30.59022762
6.13,613,-0.013999999999999999,-0.97,0.28600000000000003,-0.057295800000000015,0.286479,0.0,105.34405788,-0.49274388,-30.59022762
6.14,614,-0.013999999999999999,-0.9690000000000001,0.28600000000000003,0.0,0.2291832000000001,0.0,105.3383283,-0.49274388,-30.58449804
6.15,615,-0.015,-0.97,0.28600000000000003,0.057295800000000015,0.1718874,0.057295800000000015,105.3383283,-0.4984734599999999,-30.58449804
6.16,616,-0.015,-0.9690000000000001,0.287,0.0,0.11459160000000004,0.0,105.3383283,-0.4984734599999999,-30.58449804
6.17,617,-0.015,-0.9690000000000001,0.287,0.0,0.2291832000000001,0.0,105.3383283,-0.4984734599999999,-30.57876846
6.18,618,-0.013999999999999999,-0.9690000000000001,0.287,0.0,0.2291832000000001,0.057295800000000015,105.3383283,-0.5042030399999999,-30.57876846
6.1899999999999995,619,-0.015,-0.9690000000000001,0.28800000000000003,-0.057295800000000015,0.1718874,0.0,105.3383283,-0.5042030399999999,-30.57876846
6.2,620,-0.015,-0.9690000000000001,0.287,0.0,0.057295800000000015,0.0,105.34405788,-0.5042030399999999,-30.57876846
6.21,621,-0.015,-0.97,0.287,0.0,0.0,0.0,105.34405788,-0.5042030399999999,-30.57876846
6.22,622,-0.013999999999999999,-0.9690000000000001,0.285,-0.057295800000000015,0.0,0.0,105.34405788,-0.4984734599999999,-30.57303888
6.2299999999999995,623,-0.015,-0.97,0.28600000000000003,0.0,0.0,0.0,105.34405788,-0.4984734599999999,-30.57303888
6.24,624,-0.013999999999999999,-0.97,0.285,0.057295800000000015,-0.11459160000000004,0.0,105.34405788,-0.4984734599999999,-30.57876846
6.25,625,-0.015,-0.97,0.28600000000000003,0.0,-0.1718874,0.0,105.34978746,-0.5042030399999999,-30.57876846
6.26,626,-0.015,-0.97,0.28600000000000003,0.0,-0.1718874,0.0,105.34405788,-0.5042030399999999,-30.57876846
6.27,627,-0.016,-0.97,0.28600000000000003,-0.057295800000000015,-0.2291832000000001,0.0,105.34405788,-0.5042030399999999,-30.58449804
6.28,628,-0.015,-0.9690000000000001,0.284,0.0,-0.2291832000000001,0.0,105.34405788,-0.5042030399999999,-30.58449804
6.29,629,-0.015,-0.9690000000000001,0.284,0.0,-0.2291832000000001,-0.057295800000000015,105.34405788,-0.4984734599999999,-30.59022762
6.3,630,-0.013000000000000001,-0.968,0.28300000000000003,0.0,-0.1718874,-0.057295800000000015,105.33259872,-0.48128472,-30.59022762
6.31,631,-0.013999999999999999,-0.9690000000000001,0.284,0.11459160000000004,-0.2291832000000001,-0.057295800000000015,105.33259872,-0.48128472,-30.59022762
6.32,632,-0.015,-0.968,0.28600000000000003,0.0,-0.40107059999999994,-0.057295800000000015,105.33259872,-0.48128472,-30.5959572
6.33,633,-0.015,-0.9690000000000001,0.287,-0.057295800000000015,-0.3437748,-0.057295800000000015,105.33259872,-0.48128472,-30.5959572
6.34,634,-0.015,-0.97,0.28800000000000003,0.0,-0.4583664000000001,0.0,105.33259872,-0.47555514,-30.60168678
6.35,635,-0.013000000000000001,-0.9690000000000001,0.287,0.0,-0.572958,-0.057295800000000015,105.33259872,-0.46982556,-30.607416359999995
6.36,636,-0.013999999999999999,-0.9690000000000001,0.287,-0.11459160000000004,-0.6302538000000001,0.0,105.33259872,-0.46982556,-30.61314594
6.37,637,-0.013000000000000001,-0.9690000000000001,0.28600000000000003,-0.11459160000000004,-0.5156622000000001,0.0,105.33259872,-0.46982556,-30.61887552
6.38,638,-0.013000000000000001,-0.97,0.28600000000000003,0.0,-0.40107059999999994,0.0,105.33259872,-0.46409598,-30.624605100000004
6.39,639,-0.013999999999999999,-0.97,0.287,-0.11459160000000004,-0.1718874,0.0,105.32686914,-0.46409598,-30.624605100000004
6.4,640,-0.015,-0.9690000000000001,0.28800000000000003,-0.11459160000000004,-0.40107059999999994,0.0,105.33259872,-0.46982556,-30.63033468
6.41,641,-0.015,-0.971,0.287,0.0,-0.572958,0.0,105.33259872,-0.46982556,-30.63606426
6.42,642,-0.013000000000000001,-0.97,0.287,0.0,-0.4583664000000001,0.057295800000000015,105.33259872,-0.46409598,-30.64179384
6.43,643,-0.012,-0.97,0.28600000000000003,0.0,-0.286479,0.0,105.33259872,-0.46409598,-30.64179384
6.4399999999999995,644,-0.013000000000000001,-0.968,0.287,0.057295800000000015,0.0,0.057295800000000015,105.33259872,-0.46409598,-30.64179384
6.45,645,-0.013999999999999999,-0.972,0.28800000000000003,0.11459160000000004,0.057295800000000015,0.057295800000000015,105.34978746,-0.47555514,-30.64179384
6.46,646,-0.016,-0.968,0.28800000000000003,0.11459160000000004,0.0,0.11459160000000004,105.34978746,-0.47555514,-30.64179384
6.47,647,-0.016,-0.9690000000000001,0.287,0.057295800000000015,0.11459160000000004,0.0,105.35551704000002,-0.48128472,-30.64179384
6.4799999999999995,648,-0.016,-0.968,0.287,0.11459160000000004,0.2291832000000001,0.057295800000000015,105.35551704000002,-0.48128472,-30.64179384
6.49,649,-0.015,-0.97,0.285,0.2291832000000001,0.2291832000000001,0.057295800000000015,105.35551704000002,-0.48128472,-30.63606426
6.5,650,-0.013999999999999999,-0.9690000000000001,0.28300000000000003,0.1718874,0.3437748,0.0,105.34978746,-0.48128472,-30.63606426
6.51,651,-0.013999999999999999,-0.9690000000000001,0.285,0.1718874,0.4583664000000001,0.0,105.35551704000002,-0.4870143000000001,-30.63033468
6.52,652,-0.013999999999999999,-0.9690000000000001,0.284,0.11459160000000004,0.40107059999999994,0.0,105.35551704000002,-0.4870143000000001,-30.624605100000004
6.53,653,-0.013999999999999999,-0.9690000000000001,0.284,0.11459160000000004,0.40107059999999994,0.0,105.35551704000002,-0.4870143000000001,-30.624605100000004
6.54,654,-0.015,-0.9690000000000001,0.28600000000000003,0.057295800000000015,0.4583664000000001,0.0,105.35551704000002,-0.49274388,-30.61887552
6.55,655,-0.015,-0.97,0.285,0.0,0.4583664000000001,0.0,105.35551704000002,-0.49274388,-30.61314594
6.56,656,-0.015,-0.97,0.28600000000000003,0.0,0.572958,0.057295800000000015,105.35551704000002,-0.4984734599999999,-30.607416359999995
6.57,657,-0.013999999999999999,-0.97,0.285,0.0,0.3437748,0.057295800000000015,105.35551704000002,-0.4984734599999999,-30.60168678
6.58,658,-0.015,-0.97,0.28600000000000003,0.0,0.2291832000000001,0.057295800000000015,105.35551704000002,-0.4984734599999999,-30.60168678
6.59,659,-0.015,-0.97,0.285,0.057295800000000015,0.3437748,0.057295800000000015,105.35551704000002,-0.5042030399999999,-30.5959572
6.6,660,-0.013999999999999999,-0.97,0.28600000000000003,0.0,0.2291832000000001,0.0,105.34405788,-0.5042030399999999,-30.5959572
6.61,661,-0.015,-0.97,0.287,0.0,0.057295800000000015,0.057295800000000015,105.34405788,-0.5042030399999999,-30.5959572
6.62,662,-0.015,-0.9690000000000001,0.28800000000000003,-0.057295800000000015,-0.1718874,0.0,105.34405788,-0.5042030399999999,-30.5959572
6.63,663,-0.013999999999999999,-0.9690000000000001,0.287,-0.057295800000000015,-0.11459160000000004,0.0,105.34405788,-0.5042030399999999,-30.60168678
6.64,664,-0.013999999999999999,-0.97,0.28600000000000003,-0.057295800000000015,0.0,0.0,105.34405788,-0.5042030399999999,-30.60168678
6.65,665,-0.015,-0.9690000000000001,0.287,0.0,-0.11459160000000004,0.0,105.34405788,-0.5099326200000001,-30.60168678
6.66,666,-0.013999999999999999,-0.97,0.287,0.057295800000000015,0.0,0.0,105.34405788,-0.5099326200000001,-30.60168678
6.67,667,-0.015,-0.97,0.287,0.0,-0.11459160000000004,0.0,105.34405788,-0.5099326200000001,-30.60168678
6.68,668,-0.013999999999999999,-0.9690000000000001,0.287,0.0,-0.11459160000000004,0.0,105.34405788,-0.5099326200000001,-30.60168678
6.6899999999999995,669,-0.013999999999999999,-0.9690000000000001,0.28800000000000003,0.0,0.0,0.0,105.34405788,-0.5099326200000001,-30.60168678
6.7,670,-0.015,-0.968,0.287,0.0,0.0,0.0,105.34978746,-0.52139178,-30.60168678
6.71,671,-0.016,-0.9690000000000001,0.287,0.0,0.0,-0.057295800000000015,105.34978746,-0.52139178,-30.60168678
6.72,672,-0.015,-0.9690000000000001,0.285,0.0,0.0,0.0,105.34978746,-0.52139178,-30.60168678
6.7299999999999995,673,-0.015,-0.9690000000000001,0.284,0.0,-0.057295800000000015,-0.057295800000000015,105.34978746,-0.52139178,-30.60168678
6.74,674,-0.015,-0.9690000000000001,0.284,0.057295800000000015,-0.1718874,0.0,105.34978746,-0.52139178,-30.607416359999995
6.75,675,-0.013999999999999999,-0.97,0.285,0.0,-0.1718874,0.0,105.34978746,-0.5156622000000001,-30.607416359999995
6.76,676,-0.013999999999999999,-0.97,0.285,0.0,-0.1718874,-0.057295800000000015,105.34978746,-0.5156622000000001,-30.607416359999995
6.77,677,-0.013999999999999999,-0.97,0.285,0.0,-0.1718874,-0.057295800000000015,105.34978746,-0.5156622000000001,-30.61314594
6.78,678,-0.013999999999999999,-0.97,0.285,0.0,-0.1718874,0.0,105.34978746,-0.5099326200000001,-30.61314594
6.79,679,-0.013999999999999999,-0.9690000000000001,0.285,0.0,-0.2291832000000001,0.0,105.34405788,-0.5099326200000001,-30.61314594
6.8,680,-0.013999999999999999,-0.9690000000000001,0.28600000000000003,-0.057295800000000015,-0.1718874,0.0,105.34978746,-0.5099326200000001,-30.61887552
6.81,681,-0.015,-0.9690000000000001,0.287,-0.057295800000000015,-0.1718874,0.0,105.34978746,-0.5099326200000001,-30.61887552
6.82,682,-0.013999999999999999,-0.971,0.287,-0.057295800000000015,-0.11459160000000004,0.0,105.34978746,-0.5099326200000001,-30.61887552
6.83,683,-0.013000000000000001,-0.968,0.287,-0.057295800000000015,-0.11459160000000004,0.0,105.34978746,-0.5099326200000001,-30.61887552
6.84,684,-0.013999999999999999,-0.97,0.287,0.0,-0.11459160000000004,0.0,105.34978746,-0.5099326200000001,-30.624605100000004
6.85,685,-0.015,-0.97,0.28800000000000003,-0.057295800000000015,-0.057295800000000015,0.0,105.36124662,-0.5042030399999999,-30.624605100000004
6.86,686,-0.015,-0.9690000000000001,0.287,0.0,-0.057295800000000015,-0.057295800000000015,105.36124662,-0.5042030399999999,-30.624605100000004
6.87,687,-0.013999999999999999,-0.9690000000000001,0.287,0.11459160000000004,-0.057295800000000015,0.0,105.36124662,-0.5042030399999999,-30.624605100000004
6.88,688,-0.013999999999999999,-0.9690000000000001,0.285,0.11459160000000004,0.0,0.0,105.36124662,-0.5042030399999999,-30.624605100000004
6.89,689,-0.015,-0.97,0.285,0.057295800000000015,0.0,0.0,105.36697620000001,-0.5042030399999999,-30.624605100000004
6.9,690,-0.013999999999999999,-0.97,0.287,0.057295800000000015,0.0,0.0,105.36697620000001,-0.5099326200000001,-30.624605100000004
6.91,691,-0.013999999999999999,-0.9690000000000001,0.28600000000000003,0.057295800000000015,0.0,0.0,105.37270577999998,-0.5099326200000001,-30.624605100000004
6.92,692,-0.015,-0.97,0.28600000000000003,0.057295800000000015,0.11459160000000004,0.0,105.37270577999998,-0.5099326200000001,-30.624605100000004
6.93,693,-0.015,-0.97,0.28800000000000003,0.0,0.057295800000000015,0.057295800000000015,105.37270577999998,-0.5099326200000001,-30.624605100000004
6.9399999999999995,694,-0.013999999999999999,-0.9690000000000001,0.287,0.0,0.057295800000000015,0.0,105.37270577999998,-0.5099326200000001,-30.61887552
6.95,695,-0.013999999999999999,-0.968,0.287,0.0,0.11459160000000004,0.0,105.37270577999998,-0.5156622000000001,-30.61887552
6.96,696,-0.013999999999999999,-0.97,0.28800000000000003,-0.11459160000000004,0.11459160000000004,0.0,105.36697620000001,-0.5156622000000001,-30.61887552
6.97,697,-0.013999999999999999,-0.971,0.28600000000000003,-0.057295800000000015,0.3437748,0.0,105.36697620000001,-0.5156622000000001,-30.61314594
6.9799999999999995,698,-0.013999999999999999,-0.97,0.285,0.0,0.286479,0.0,105.36697620000001,-0.5156622000000001,-30.61314594
6.99,699,-0.016,-0.97,0.28800000000000003,0.0,0.0,0.0,105.36697620000001,-0.5156622000000001,-30.61314594
7.0,700,-0.015,-0.9690000000000001,0.289,-0.057295800000000015,-0.3437748,0.0,105.37270577999998,-0.5099326200000001,-30.61887552
7.01,701,-0.013999999999999999,-0.9690000000000001,0.28800000000000003,0.0,-0.40107059999999994,0.0,105.37270577999998,-0.5099326200000001,-30.61887552
7.02,702,-0.012,-0.97,0.287,0.0,-0.057295800000000015,0.0,105.37270577999998,-0.5099326200000001,-30.61887552
7.03,703,-0.013000000000000001,-0.97,0.285,0.0,0.2291832000000001,0.0,105.37270577999998,-0.5099326200000001,-30.61887552
7.04,704,-0.013999999999999999,-0.9690000000000001,0.28600000000000003,0.057295800000000015,0.2291832000000001,0.0,105.37270577999998,-0.5099326200000001,-30.61887552
7.05,705,-0.015,-0.968,0.28600000000000003,0.057295800000000015,0.1718874,0.0,105.37270577999998,-0.5156622000000001,-30.61314594
7.06,706,-0.016,-0.968,0.285,0.11459160000000004,0.057295800000000015,0.0,105.37270577999998,-0.5156622000000001,-30.61314594
7.07,707,-0.015,-0.9690000000000001,0.285,0.057295800000000015,0.057295800000000015,0.0,105.37843536,-0.5156622000000001,-30.61314594
7.08,708,-0.015,-0.9690000000000001,0.285,0.11459160000000004,0.0,0.0,105.37843536,-0.5156622000000001,-30.61314594
7.09,709,-0.015,-0.9690000000000001,0.285,0.1718874,0.0,0.057295800000000015,105.37843536,-0.5156622000000001,-30.61314594
7.1,710,-0.013999999999999999,-0.968,0.287,0.2291832000000001,-0.057295800000000015,0.0,105.38416494,-0.5156622000000001,-30.61314594
7.11,711,-0.013999999999999999,-0.968,0.28600000000000003,0.057295800000000015,-0.057295800000000015,0.057295800000000015,105.38416494,-0.52139178,-30.61314594
7.12,712,-0.013999999999999999,-0.968,0.287,0.0,-0.057295800000000015,0.0,105.38416494,-0.5156622000000001,-30.61314594
7.13,713,-0.013999999999999999,-0.9690000000000001,0.28800000000000003,0.0,0.0,0.0,105.38416494,-0.5156622000000001,-30.61314594
7.14,714,-0.013999999999999999,-0.9690000000000001,0.28800000000000003,-0.057295800000000015,0.057295800000000015,0.0,105.38416494,-0.5156622000000001,-30.61314594
7.15,715,-0.013000000000000001,-0.97,0.287,-0.057295800000000015,0.0,0.0,105.38416494,-0.5156622000000001,-30.61314594
7.16,716,-0.015,-0.97,0.28800000000000003,-0.057295800000000015,-0.11459160000000004,0.0,105.38416494,-0.5156622000000001,-30.61314594
7.17,717,-0.013000000000000001,-0.97,0.28800000000000003,-0.057295800000000015,-0.057295800000000015,0.0,105.38416494,-0.5156622000000001,-30.61887552
7.18,718,-0.013999999999999999,-0.9690000000000001,0.287,0.0,0.0,0.057295800000000015,105.38416494,-0.5156622000000001,-30.61887552
7.1899999999999995,719,-0.013999999999999999,-0.9690000000000001,0.28800000000000003,0.057295800000000015,-0.11459160000000004,0.057295800000000015,105.38416494,-0.5156622000000001,-30.61887552
7.2,720,-0.015,-0.97,0.28800000000000003,-0.057295800000000015,-0.286479,0.0,105.38416494,-0.5156622000000001,-30.61887552
7.21,721,-0.013000000000000001,-0.9690000000000001,0.28800000000000003,0.0,-0.286479,0.0,105.38416494,-0.5156622000000001,-30.624605100000004
7.22,722,-0.013999999999999999,-0.9690000000000001,0.287,-0.057295800000000015,-0.286479,0.0,105.38416494,-0.5156622000000001,-30.624605100000004
7.2299999999999995,723,-0.013999999999999999,-0.9690000000000001,0.28600000000000003,-0.057295800000000015,-0.2291832000000001,0.0,105.38416494,-0.5156622000000001,-30.63033468
7.24,724,-0.013999999999999999,-0.968,0.28600000000000003,-0.057295800000000015,-0.2291832000000001,0.0,105.38416494,-0.5156622000000001,-30.63033468
7.25,725,-0.013999999999999999,-0.97,0.287,-0.057295800000000015,-0.11459160000000004,0.0,105.37843536,-0.5156622000000001,-30.63033468
7.26,726,-0.015,-0.9690000000000001,0.287,-0.057295800000000015,-0.057295800000000015,0.0,105.37843536,-0.5156622000000001,-30.63606426
7.27,727,-0.015,-0.968,0.285,0.0,-0.057295800000000015,0.057295800000000015,105.37843536,-0.5156622000000001,-30.63606426
7.28,728,-0.015,-0.97,0.285,0.0,-0.11459160000000004,0.0,105.37843536,-0.5156622000000001,-30.63606426
7.29,729,-0.015,-0.968,0.28600000000000003,0.0,-0.057295800000000015,0.0,105.37843536,-0.5156622000000001,-30.63606426
7.3,730,-0.013999999999999999,-0.9690000000000001,0.28600000000000003,0.0,-0.1718874,0.0,105.37843536,-0.52139178,-30.64179384
7.31,731,-0.013999999999999999,-0.97,0.28600000000000003,0.057295800000000015,-0.11459160000000004,0.057295800000000015,105.37843536,-0.52139178,-30.64179384
7.32,732,-0.013999999999999999,-0.9690000000000001,0.287,0.057295800000000015,-0.057295800000000015,0.0,105.37843536,-0.52139178,-30.64179384
7.33,733,-0.013999999999999999,-0.9690000000000001,0.28600000000000003,0.057295800000000015,0.0,0.0,105.37843536,-0.52139178,-30.64179384
7.34,734,-0.015,-0.9690000000000001,0.28800000000000003,0.0,0.0,0.0,105.37843536,-0.52139178,-30.64179384
7.35,735,-0.015,-0.9690000000000001,0.287,0.0,0.11459160000000004,0.11459160000000004,105.37270577999998,-0.52712136,-30.64179384
7.36,736,-0.013999999999999999,-0.9690000000000001,0.28800000000000003,0.0,0.0,0.0,105.37270577999998,-0.52712136,-30.64179384
7.37,737,-0.015,-0.9690000000000001,0.287,0.0,0.0,0.0,105.37270577999998,-0.52712136,-30.64179384
7.38,738,-0.015,-0.97,0.28800000000000003,-0.057295800000000015,0.0,0.0,105.37270577999998,-0.52712136,-30.64179384
7.39,739,-0.013999999999999999,-0.9690000000000001,0.28800000000000003,-0.057295800000000015,0.0,0.0,105.37270577999998,-0.52712136,-30.64179384
7.4,740,-0.013999999999999999,-0.97,0.28800000000000003,0.0,0.057295800000000015,0.0,105.38416494,-0.52712136,-30.64179384
7.41,741,-0.013999999999999999,-0.9690000000000001,0.289,-0.057295800000000015,0.1718874,0.0,105.37843536,-0.52712136,-30.63606426
7.42,742,-0.013000000000000001,-0.9690000000000001,0.28800000000000003,-0.057295800000000015,0.2291832000000001,0.057295800000000015,105.37843536,-0.52712136,-30.63606426
7.43,743,-0.013999999999999999,-0.968,0.287,-0.057295800000000015,0.40107059999999994,0.0,105.37843536,-0.52712136,-30.63033468
7.4399999999999995,744,-0.013999999999999999,-0.9690000000000001,0.28600000000000003,0.0,0.286479,0.0,105.37843536,-0.53285094,-30.63033468
7.45,745,-0.013000000000000001,-0.9690000000000001,0.285,0.0,0.3437748,0.0,105.37270577999998,-0.52712136,-30.624605100000004
7.46,746,-0.015,-0.968,0.287,0.0,0.3437748,0.0,105.37270577999998,-0.52712136,-30.61887552
7.47,747,-0.015,-0.9690000000000001,0.28600000000000003,0.0,0.286479,0.0,105.37270577999998,-0.53285094,-30.61887552
7.4799999999999995,748,-0.015,-0.968,0.28600000000000003,0.0,0.286479,0.0,105.37270577999998,-0.53285094,-30.61314594
7.49,749,-0.013999999999999999,-0.9690000000000001,0.28600000000000003,0.0,0.3437748,0.0,105.37270577999998,-0.53285094,-30.61314594
7.5,750,-0.013999999999999999,-0.97,0.287,0.0,0.286479,0.0,105.37270577999998,-0.52712136,-30.607416359999995
7.51,751,-0.013999999999999999,-0.968,0.28800000000000003,-0.1718874,0.1718874,0.0,105.36697620000001,-0.52712136,-30.607416359999995
7.52,752,-0.013999999999999999,-0.9690000000000001,0.289,-0.057295800000000015,0.11459160000000004,0.0,105.36697620000001,-0.52712136,-30.607416359999995
7.53,753,-0.013999999999999999,-0.9690000000000001,0.28600000000000003,-0.057295800000000015,0.1718874,0.0,105.36697620000001,-0.52712136,-30.60168678
7.54,754,-0.015,-0.97,0.285,0.0,0.1718874,0.0,105.36697620000001,-0.53285094,-30.60168678
7.55,755,-0.015,-0.9690000000000001,0.285,0.11459160000000004,0.0,0.0,105.37270577999998,-0.53285094,-30.60168678
7.56,756,-0.016,-0.9690000000000001,0.29100000000000004,0.0,-0.1718874,-0.057295800000000015,105.37270577999998,-0.52712136,-30.60168678
7.57,757,-0.015,-0.9690000000000001,0.29100000000000004,-0.057295800000000015,-0.2291832000000001,0.0,105.37270577999998,-0.52712136,-30.607416359999995
7.58,758,-0.013000000000000001,-0.9690000000000001,0.29,0.0,-0.40107059999999994,0.0,105.37270577999998,-0.52712136,-30.607416359999995
7.59,759,-0.013000000000000001,-0.97,0.287,-0.11459160000000004,0.057295800000000015,0.0,105.36697620000001,-0.52712136,-30.607416359999995
7.6,760,-0.013999999999999999,-0.97,0.28600000000000003,-0.057295800000000015,0.286479,0.0,105.36697620000001,-0.53285094,-30.607416359999995
7.61,761,-0.015,-0.968,0.287,0.0,0.1718874,0.0,105.36697620000001,-0.53285094,-30.60168678
7.62,762,-0.016,-0.9690000000000001,0.287,0.057295800000000015,0.057295800000000015,0.0,105.36697620000001,-0.53285094,-30.60168678
7.63,763,-0.016,-0.968,0.28600000000000003,0.0,0.0,0.0,105.36697620000001,-0.53285094,-30.60168678
7.64,764,-0.015,-0.968,0.287,0.057295800000000015,0.0,-0.057295800000000015,105.36697620000001,-0.53285094,-30.60168678
7.65,765,-0.015,-0.968,0.285,0.057295800000000015,-0.057295800000000015,0.0,105.37270577999998,-0.52712136,-30.60168678
7.66,766,-0.013999999999999999,-0.9690000000000001,0.28600000000000003,0.11459160000000004,-0.1718874,0.0,105.37270577999998,-0.52712136,-30.607416359999995
7.67,767,-0.013999999999999999,-0.968,0.287,0.057295800000000015,-0.286479,0.0,105.37270577999998,-0.52712136,-30.607416359999995
7.68,768,-0.013999999999999999,-0.9690000000000001,0.28800000000000003,0.0,-0.11459160000000004,-0.057295800000000015,105.37270577999998,-0.52712136,-30.607416359999995
7.6899999999999995,769,-0.013999999999999999,-0.9690000000000001,0.287,-0.057295800000000015,-0.11459160000000004,0.0,105.37270577999998,-0.52712136,-30.61314594
7.7,770,-0.013999999999999999,-0.968,0.28600000000000003,-0.057295800000000015,0.0,-0.11459160000000004,105.37270577999998,-0.5156622000000001,-30.61314594
7.71,771,-0.013999999999999999,-0.97,0.28600000000000003,-0.057295800000000015,0.11459160000000004,0.0,105.37270577999998,-0.5156622000000001,-30.607416359999995
7.72,772,-0.015,-0.968,0.287,-0.11459160000000004,0.0,0.0,105.36697620000001,-0.5156622000000001,-30.607416359999995
7.7299999999999995,773,-0.015,-0.9690000000000001,0.287,-0.2291832000000001,0.0,0.0,105.36697620000001,-0.5156622000000001,-30.607416359999995
7.74,774,-0.013999999999999999,-0.97,0.285,-0.11459160000000004,0.0,-0.057295800000000015,105.36697620000001,-0.5156622000000001,-30.607416359999995
7.75,775,-0.013999999999999999,-0.9690000000000001,0.285,0.0,-0.057295800000000015,-0.057295800000000015,105.36124662,-0.5156622000000001,-30.607416359999995
7.76,776,-0.015,-0.9690000000000001,0.287,-0.057295800000000015,-0.057295800000000015,-0.057295800000000015,105.36124662,-0.5156622000000001,-30.607416359999995
7.77,777,-0.013999999999999999,-0.97,0.289,-0.11459160000000004,-0.057295800000000015,0.0,105.36124662,-0.5156622000000001,-30.61314594
7.78,778,-0.015,-0.9690000000000001,0.289,-0.11459160000000004,-0.1718874,-0.057295800000000015,105.36124662,-0.5156622000000001,-30.61314594
7.79,779,-0.013999999999999999,-0.9690000000000001,0.28800000000000003,-0.1718874,-0.057295800000000015,-0.11459160000000004,105.35551704000002,-0.5156622000000001,-30.61314594
7.8,780,-0.013999999999999999,-0.97,0.28600000000000003,-0.11459160000000004,0.0,-0.057295800000000015,105.35551704000002,-0.5099326200000001,-30.61314594
7.81,781,-0.013000000000000001,-0.9690000000000001,0.287,-0.057295800000000015,0.0,-0.057295800000000015,105.35551704000002,-0.5099326200000001,-30.61314594
7.82,782,-0.013999999999999999,-0.968,0.28800000000000003,0.0,0.11459160000000004,-0.057295800000000015,105.35551704000002,-0.5099326200000001,-30.61314594
7.83,783,-0.015,-0.9690000000000001,0.289,-0.057295800000000015,0.1718874,0.0,105.35551704000002,-0.5099326200000001,-30.607416359999995
7.84,784,-0.013999999999999999,-0.9690000000000001,0.28800000000000003,0.0,0.11459160000000004,0.0,105.35551704000002,-0.5099326200000001,-30.607416359999995
7.85,785,-0.015,-0.97,0.28800000000000003,0.0,0.11459160000000004,0.0,105.36124662,-0.5156622000000001,-30.607416359999995
7.86,786,-0.013999999999999999,-0.968,0.28800000000000003,0.0,0.11459160000000004,0.0,105.36124662,-0.5156622000000001,-30.60168678
7.87,787,-0.013000000000000001,-0.97,0.28600000000000003,0.0,0.1718874,0.0,105.36124662,-0.5156622000000001,-30.60168678
7.88,788,-0.015,-0.9690000000000001,0.287,0.0,0.1718874,0.0,105.36124662,-0.5156622000000001,-30.60168678
7.89,789,-0.013999999999999999,-0.9690000000000001,0.287,0.057295800000000015,0.11459160000000004,0.0,105.36124662,-0.5156622000000001,-30.60168678
7.9,790,-0.013999999999999999,-0.968,0.28800000000000003,0.0,0.1718874,0.0,105.37270577999998,-0.5156622000000001,-30.5959572
7.91,791,-0.013999999999999999,-0.968,0.287,0.0,0.2291832000000001,0.0,105.37270577999998,-0.5156622000000001,-30.5959572
7.92,792,-0.015,-0.97,0.287,0.0,0.1718874,0.0,105.36697620000001,-0.5156622000000001,-30.5959572
7.93,793,-0.015,-0.9690000000000001,0.28600000000000003,0.0,0.057295800000000015,0.0,105.36697620000001,-0.5156622000000001,-30.59022762
7.94,794,-0.013999999999999999,-0.97,0.28600000000000003,0.0,0.0,0.0,105.36697620000001,-0.5156622000000001,-30.59022762
7.95,795,-0.013999999999999999,-0.97,0.28600000000000003,0.0,0.0,0.0,105.34978746,-0.5099326200000001,-30.59022762
7.96,796,-0.013999999999999999,-0.97,0.287,0.0,0.0,0.057295800000000015,105.34978746,-0.5099326200000001,-30.59022762
7.97,797,-0.013999999999999999,-0.97,0.28600000000000003,0.0,0.0,0.0,105.34978746,-0.5099326200000001,-30.59022762
7.9799999999999995,798,-0.013999999999999999,-0.97,0.287,0.0,-0.057295800000000015,0.0,105.34978746,-0.5099326200000001,-30.5959572
7.99,799,-0.013999999999999999,-0.9690000000000001,0.28600000000000003,0.0,-0.057295800000000015,0.0,105.34978746,-0.5099326200000001,-30.5959572
8.0,800,-0.013000000000000001,-0.97,0.285,0.0,-0.057295800000000015,0.0,105.34405788,-0.5042030399999999,-30.5959572
8.01,801,-0.013999999999999999,-0.9690000000000001,0.28600000000000003,0.0,0.057295800000000015,0.0,105.34405788,-0.5099326200000001,-30.5959572
8.02,802,-0.013999999999999999,-0.97,0.28600000000000003,0.057295800000000015,0.0,0.0,105.34405788,-0.5042030399999999,-30.5959572
8.03,803,-0.015,-0.97,0.28600000000000003,0.057295800000000015,-0.11459160000000004,0.0,105.34405788,-0.5042030399999999,-30.5959572
8.04,804,-0.015,-0.9690000000000001,0.287,0.11459160000000004,0.0,0.0,105.34405788,-0.5042030399999999,-30.5959572
8.05,805,-0.015,-0.968,0.287,0.057295800000000015,-0.2291832000000001,0.0,105.34978746,-0.5099326200000001,-30.5959572
8.06,806,-0.013999999999999999,-0.968,0.28800000000000003,-0.057295800000000015,-0.286479,0.0,105.34978746,-0.5099326200000001,-30.60168678
8.07,807,-0.013999999999999999,-0.9690000000000001,0.289,-0.11459160000000004,-0.2291832000000001,0.0,105.34978746,-0.5042030399999999,-30.60168678
8.08,808,-0.013999999999999999,-0.971,0.287,0.0,-0.11459160000000004,0.0,105.34978746,-0.5042030399999999,-30.607416359999995
8.09,809,-0.015,-0.97,0.284,0.057295800000000015,-0.057295800000000015,0.0,105.34978746,-0.5042030399999999,-30.607416359999995
8.1,810,-0.013999999999999999,-0.97,0.28600000000000003,0.057295800000000015,-0.057295800000000015,0.0,105.35551704000002,-0.5042030399999999,-30.607416359999995
8.11,811,-0.015,-0.9690000000000001,0.29,0.0,-0.40107059999999994,0.0,105.35551704000002,-0.5042030399999999,-30.61314594
8.12,812,-0.015,-0.9690000000000001,0.29,0.0,-0.6302538000000001,0.0,105.35551704000002,-0.4984734599999999,-30.61887552
8.13,813,-0.013000000000000001,-0.9690000000000001,0.289,0.0,-0.572958,0.0,105.35551704000002,-0.4984734599999999,-30.624605100000004
8.14,814,-0.012,-0.9690000000000001,0.287,-0.057295800000000015,-0.1718874,0.0,105.35551704000002,-0.4984734599999999,-30.624605100000004
8.15,815,-0.013000000000000001,-0.97,0.28600000000000003,0.0,0.0,-0.057295800000000015,105.34978746,-0.49274388,-30.624605100000004
8.16,816,-0.015,-0.97,0.287,0.0,0.057295800000000015,-0.057295800000000015,105.34978746,-0.49274388,-30.624605100000004
8.17,817,-0.015,-0.9690000000000001,0.28600000000000003,0.0,0.0,-0.057295800000000015,105.34978746,-0.49274388,-30.624605100000004
8.18,818,-0.016,-0.968,0.285,0.0,0.0,0.0,105.34978746,-0.49274388,-30.624605100000004
8.19,819,-0.016,-0.97,0.285,0.0,0.0,0.0,105.34978746,-0.49274388,-30.624605100000004
8.2,820,-0.013999999999999999,-0.9690000000000001,0.284,-0.057295800000000015,0.057295800000000015,0.0,105.33259872,-0.4870143000000001,-30.624605100000004
8.209999999999999,821,-0.013999999999999999,-0.9690000000000001,0.28600000000000003,0.0,0.0,0.0,105.33259872,-0.4870143000000001,-30.624605100000004
8.22,822,-0.013999999999999999,-0.9690000000000001,0.285,0.0,0.0,0.0,105.33259872,-0.4870143000000001,-30.624605100000004
8.23,823,-0.013999999999999999,-0.9690000000000001,0.28600000000000003,0.11459160000000004,0.0,0.0,105.3383283,-0.49274388,-30.624605100000004
8.24,824,-0.013000000000000001,-0.97,0.28600000000000003,0.0,0.1718874,0.057295800000000015,105.3383283,-0.49274388,-30.61887552
8.25,825,-0.013999999999999999,-0.971,0.287,0.0,0.1718874,0.0,105.3383283,-0.4870143000000001,-30.61887552
8.26,826,-0.013999999999999999,-0.97,0.287,0.0,0.1718874,0.0,105.3383283,-0.4870143000000001,-30.61887552
8.27,827,-0.013999999999999999,-0.9690000000000001,0.28800000000000003,-0.057295800000000015,0.1718874,0.0,105.3383283,-0.4870143000000001,-30.61314594
8.28,828,-0.013000000000000001,-0.97,0.28800000000000003,-0.057295800000000015,0.11459160000000004,0.0,105.33259872,-0.4870143000000001,-30.61314594
8.29,829,-0.013000000000000001,-0.97,0.287,-0.057295800000000015,0.1718874,0.0,105.33259872,-0.4870143000000001,-30.61314594
8.3,830,-0.013999999999999999,-0.97,0.287,0.0,0.286479,0.0,105.33259872,-0.4870143000000001,-30.607416359999995
8.31,831,-0.013999999999999999,-0.9690000000000001,0.28600000000000003,0.0,0.286479,0.057295800000000015,105.33259872,-0.4870143000000001,-30.607416359999995
8.32,832,-0.013000000000000001,-0.97,0.289,0.0,0.1718874,0.0,105.33259872,-0.4870143000000001,-30.60168678
8.33,833,-0.015,-0.97,0.28800000000000003,-0.057295800000000015,0.11459160000000004,0.0,105.33259872,-0.4870143000000001,-30.60168678
8.34,834,-0.013000000000000001,-0.9690000000000001,0.28800000000000003,0.0,0.1718874,0.0,105.33259872,-0.49274388,-30.60168678
8.35,835,-0.012,-0.968,0.28600000000000003,-0.057295800000000015,0.1718874,0.0,105.33259872,-0.48128472,-30.60168678
8.36,836,-0.015,-0.9690000000000001,0.28600000000000003,0.0,0.2291832000000001,0.0,105.33259872,-0.4870143000000001,-30.5959572
8.37,837,-0.013999999999999999,-0.9690000000000001,0.287,0.0,0.286479,0.0,105.33259872,-0.4870143000000001,-30.5959572
8.38,838,-0.013999999999999999,-0.968,0.287,0.0,0.3437748,0.0,105.33259872,-0.4870143000000001,-30.59022762
8.39,839,-0.013999999999999999,-0.9690000000000001,0.287,0.0,0.4583664000000001,0.0,105.33259872,-0.4870143000000001,-30.58449804
8.4,840,-0.015,-0.9690000000000001,0.287,0.0,0.286479,0.0,105.33259872,-0.49274388,-30.58449804
8.41,841,-0.015,-0.97,0.28600000000000003,0.057295800000000015,0.3437748,0.0,105.33259872,-0.49274388,-30.57876846
8.42,842,-0.013999999999999999,-0.9690000000000001,0.287,0.11459160000000004,0.40107059999999994,0.0,105.33259872,-0.4984734599999999,-30.57303888
8.43,843,-0.013999999999999999,-0.968,0.28600000000000003,0.11459160000000004,0.40107059999999994,0.0,105.3383283,-0.4984734599999999,-30.57303888
8.44,844,-0.013999999999999999,-0.97,0.28600000000000003,0.057295800000000015,0.2291832000000001,0.0,105.3383283,-0.4984734599999999,-30.5673093
8.45,845,-0.013999999999999999,-0.97,0.287,0.11459160000000004,0.2291832000000001,0.0,105.34405788,-0.4984734599999999,-30.5673093
8.459999999999999,846,-0.015,-0.968,0.28800000000000003,0.0,0.11459160000000004,0.0,105.34405788,-0.4984734599999999,-30.56157972
8.47,847,-0.015,-0.968,0.287,0.0,0.11459160000000004,0.0,105.34405788,-0.4984734599999999,-30.56157972
8.48,848,-0.015,-0.9690000000000001,0.287,0.0,0.057295800000000015,-0.057295800000000015,105.34405788,-0.4984734599999999,-30.56157972
8.49,849,-0.015,-0.9690000000000001,0.28800000000000003,-0.11459160000000004,0.0,0.0,105.3383283,-0.4984734599999999,-30.56157972
8.5,850,-0.013999999999999999,-0.9690000000000001,0.287,-0.057295800000000015,-0.057295800000000015,0.0,105.3383283,-0.4984734599999999,-30.56157972
8.51,851,-0.015,-0.97,0.28600000000000003,-0.057295800000000015,-0.057295800000000015,-0.057295800000000015,105.3383283,-0.4984734599999999,-30.56157972
8.52,852,-0.013999999999999999,-0.97,0.287,-0.057295800000000015,0.0,0.0,105.3383283,-0.4984734599999999,-30.56157972
8.53,853,-0.013999999999999999,-0.9690000000000001,0.28600000000000003,0.0,0.0,0.0,105.3383283,-0.4984734599999999,-30.56157972
8.54,854,-0.015,-0.97,0.28600000000000003,0.0,0.0,0.0,105.3383283,-0.4984734599999999,-30.56157972
8.55,855,-0.013999999999999999,-0.9690000000000001,0.285,0.0,0.057295800000000015,0.0,105.32686914,-0.4984734599999999,-30.56157972
8.56,856,-0.013999999999999999,-0.9690000000000001,0.28600000000000003,0.0,0.0,0.0,105.32686914,-0.4984734599999999,-30.56157972
8.57,857,-0.015,-0.97,0.28600000000000003,0.0,-0.11459160000000004,0.0,105.32686914,-0.4984734599999999,-30.56157972
8.58,858,-0.015,-0.97,0.28800000000000003,0.057295800000000015,-0.057295800000000015,0.0,105.33259872,-0.4984734599999999,-30.56157972
8.59,859,-0.015,-0.9690000000000001,0.287,0.057295800000000015,-0.11459160000000004,-0.057295800000000015,105.33259872,-0.49274388,-30.5673093
8.6,860,-0.015,-0.9690000000000001,0.289,0.0,-0.11459160000000004,0.0,105.34405788,-0.5042030399999999,-30.5673093
8.61,861,-0.015,-0.9690000000000001,0.289,0.0,-0.3437748,0.0,105.34405788,-0.5042030399999999,-30.5673093
8.62,862,-0.013999999999999999,-0.97,0.287,0.0,-0.3437748,0.0,105.34405788,-0.4984734599999999,-30.57303888
8.63,863,-0.013000000000000001,-0.9690000000000001,0.285,0.0,-0.057295800000000015,-0.057295800000000015,105.34405788,-0.4984734599999999,-30.57303888
8.64,864,-0.013999999999999999,-0.97,0.285,0.057295800000000015,-0.057295800000000015,0.0,105.34405788,-0.4984734599999999,-30.57303888
8.65,865,-0.015,-0.9690000000000001,0.287,0.0,-0.286479,0.0,105.34978746,-0.5042030399999999,-30.57876846
8.66,866,-0.015,-0.9690000000000001,0.287,0.0,-0.572958,0.0,105.34978746,-0.5042030399999999,-30.58449804
8.67,867,-0.013000000000000001,-0.968,0.28600000000000003,0.11459160000000004,-0.6875496,0.0,105.34978746,-0.5042030399999999,-30.59022762
8.68,868,-0.013000000000000001,-0.9690000000000001,0.28800000000000003,0.0,-0.286479,0.0,105.34978746,-0.5042030399999999,-30.59022762
8.69,869,-0.012,-0.9690000000000001,0.28600000000000003,0.0,0.11459160000000004,0.0,105.34978746,-0.5042030399999999,-30.59022762
8.7,870,-0.015,-0.97,0.287,0.0,0.0,0.0,105.34978746,-0.5099326200000001,-30.59022762
8.71,871,-0.016,-0.9690000000000001,0.28600000000000003,0.0,0.0,0.0,105.35551704000002,-0.5099326200000001,-30.59022762
8.72,872,-0.017,-0.9690000000000001,0.287,0.057295800000000015,-0.057295800000000015,0.0,105.35551704000002,-0.5099326200000001,-30.59022762
8.73,873,-0.016,-0.97,0.28600000000000003,0.0,0.0,0.0,105.35551704000002,-0.5099326200000001,-30.59022762
8.74,874,-0.015,-0.968,0.28600000000000003,0.0,0.0,0.0,105.35551704000002,-0.5099326200000001,-30.59022762
8.75,875,-0.013999999999999999,-0.9690000000000001,0.285,0.057295800000000015,0.0,0.057295800000000015,105.34978746,-0.5099326200000001,-30.59022762
8.76,876,-0.013999999999999999,-0.9690000000000001,0.28600000000000003,0.057295800000000015,0.057295800000000015,0.0,105.34978746,-0.5099326200000001,-30.59022762
8.77,877,-0.013999999999999999,-0.968,0.285,0.0,0.0,0.0,105.34978746,-0.5099326200000001,-30.59022762
8.78,878,-0.013999999999999999,-0.968,0.28600000000000003,0.057295800000000015,0.0,0.057295800000000015,105.34978746,-0.5099326200000001,-30.59022762
8.79,879,-0.013999999999999999,-0.9690000000000001,0.287,0.0,0.057295800000000015,0.0,105.34978746,-0.5099326200000001,-30.59022762
8.8,880,-0.013999999999999999,-0.97,0.28600000000000003,0.0,0.057295800000000015,0.0,105.36124662,-0.5156622000000001,-30.59022762
8.81,881,-0.015,-0.97,0.28800000000000003,-0.057295800000000015,0.057295800000000015,0.0,105.36124662,-0.5156622000000001,-30.59022762
8.82,882,-0.015,-0.97,0.28800000000000003,-0.057295800000000015,0.0,0.0,105.35551704000002,-0.5156622000000001,-30.59022762
8.83,883,-0.013000000000000001,-0.971,0.28800000000000003,-0.057295800000000015,0.0,0.0,105.35551704000002,-0.5156622000000001,-30.59022762
8.84,884,-0.013999999999999999,-0.97,0.287,-0.11459160000000004,0.2291832000000001,0.0,105.35551704000002,-0.5156622000000001,-30.58449804
8.85,885,-0.013999999999999999,-0.97,0.28600000000000003,-0.057295800000000015,0.286479,0.0,105.35551704000002,-0.5156622000000001,-30.58449804
8.86,886,-0.015,-0.971,0.287,0.0,0.1718874,0.0,105.35551704000002,-0.5156622000000001,-30.57876846
8.87,887,-0.015,-0.9690000000000001,0.287,0.0,0.0,0.0,105.35551704000002,-0.5156622000000001,-30.57876846
8.88,888,-0.015,-0.9690000000000001,0.28600000000000003,0.0,-0.057295800000000015,0.0,105.35551704000002,-0.5156622000000001,-30.58449804
8.89,889,-0.013999999999999999,-0.9690000000000001,0.28600000000000003,0.0,0.0,0.0,105.35551704000002,-0.5156622000000001,-30.58449804
8.9,890,-0.013000000000000001,-0.9690000000000001,0.28600000000000003,0.0,0.057295800000000015,0.0,105.36124662,-0.5099326200000001,-30.57876846
8.91,891,-0.015,-0.97,0.287,0.0,0.11459160000000004,0.0,105.36124662,-0.5099326200000001,-30.57876846
8.92,892,-0.015,-0.97,0.28600000000000003,0.057295800000000015,0.11459160000000004,0.0,105.36124662,-0.5099326200000001,-30.57876846
8.93,893,-0.015,-0.97,0.28600000000000003,0.0,0.057295800000000015,0.0,105.36124662,-0.5099326200000001,-30.57876846
8.94,894,-0.015,-0.968,0.28600000000000003,0.057295800000000015,0.057295800000000015,0.0,105.36124662,-0.5099326200000001,-30.57876846
8.95,895,-0.015,-0.9690000000000001,0.287,0.0,0.11459160000000004,0.0,105.36124662,-0.5156622000000001,-30.57303888
8.96,896,-0.013999999999999999,-0.9690000000000001,0.285,0.0,0.057295800000000015,0.0,105.36124662,-0.5156622000000001,-30.57303888
8.97,897,-0.015,-0.9690000000000001,0.28600000000000003,0.057295800000000015,0.057295800000000015,0.0,105.36124662,-0.5156622000000001,-30.57303888
8.98,898,-0.013999999999999999,-0.97,0.285,0.0,0.11459160000000004,0.0,105.36124662,-0.5156622000000001,-30.57303888
8.99,899,-0.015,-0.97,0.287,0.0,0.11459160000000004,0.057295800000000015,105.36124662,-0.5156622000000001,-30.57303888
9.0,900,-0.015,-0.9690000000000001,0.287,0.0,0.0,0.0,105.36697620000001,-0.5099326200000001,-30.57303888
9.01,901,-0.013999999999999999,-0.9690000000000001,0.28600000000000003,0.0,0.0,0.0,105.36697620000001,-0.5099326200000001,-30.57303888
9.02,902,-0.013999999999999999,-0.9690000000000001,0.287,0.0,0.0,0.0,105.36697620000001,-0.5099326200000001,-30.57303888
9.03,903,-0.013999999999999999,-0.97,0.287,0.0,-0.057295800000000015,0.0,105.36697620000001,-0.5099326200000001,-30.57303888
