TimeStamp(s),FrameCounter,AccX,AccY,AccZ,GyrX,GyrY,GyrZ,EulerX,EulerY,EulerZ
0.01,1,-0.03,-1.007,0.0,0.572958,0.0,0.1718874,89.32988178,-2.03973048,-30.624605100000004
0.02,2,-0.032,-1.009,0.001,0.8021411999999999,-0.5156622000000001,0.4010706,89.34134094,-2.03973048,-30.63033468
0.03,3,-0.034,-1.01,0.001,0.9740286,-1.0886202,0.5156622000000001,89.3528001,-2.04546006,-30.64179384
0.04,4,-0.034,-1.007,0.002,1.0886202,-1.145916,0.572958,89.36425926,-2.05118964,-30.653253000000003
0.05,5,-0.034,-1.006,0.003,1.2605076000000002,-1.2605076000000002,0.5156622000000001,89.36998884,-2.05118964,-30.65898258
0.060000000000000005,6,-0.037000000000000005,-1.007,0.004,1.2032118,-1.3750992,0.286479,89.38144799999998,-2.05118964,-30.67617132
0.06999999999999999,7,-0.04,-1.009,0.005,1.0313244,-1.432395,0.1718874,89.39290716000002,-2.05691922,-30.68763048000001
0.08,8,-0.04,-1.009,0.004,0.9167328,-1.3178034,0.11459160000000003,89.40436632,-2.05691922,-30.70481922
0.09,9,-0.041,-1.012,0.002,0.6875496,-1.3178034,0.057295800000000015,89.4100959,-2.05691922,-30.71627838
0.09999999999999999,10,-0.039,-1.013,0.004,0.7448454000000001,-1.145916,0.057295800000000015,89.4100959,-2.05118964,-30.727737540000003
0.11,11,-0.037000000000000005,-1.014,0.008,0.8594370000000001,-0.9740286,0.0,89.42155505999996,-2.05118964,-30.73346712
0.12,12,-0.036000000000000004,-1.015,0.006999999999999999,0.7448454000000001,-0.6302538000000001,0.11459160000000003,89.42728464000002,-2.05691922,-30.74492628
0.13,13,-0.038,-1.013,0.005,0.572958,-0.7448454000000001,0.057295800000000015,89.43301421999998,-2.05691922,-30.75065586
0.14,14,-0.037000000000000005,-1.01,0.002,0.4010706,-0.8594370000000001,0.1718874,89.4387438,-2.05691922,-30.75638544000001
0.15000000000000002,15,-0.035,-1.007,0.0,0.286479,-0.8021411999999999,0.1718874,89.39863674,-2.04546006,-30.76211502
0.16,16,-0.033,-1.007,-0.003,0.22918320000000006,-0.8021411999999999,0.1718874,89.39863674,-2.04546006,-30.7678446
0.17,17,-0.033,-1.007,-0.003,0.11459160000000003,-0.6875496,0.057295800000000015,89.40436632,-2.04546006,-30.773574180000004
0.18000000000000002,18,-0.035,-1.008,-0.003,0.11459160000000003,-0.6302538000000001,-0.057295800000000015,89.40436632,-2.04546006,-30.77930376
0.19,19,-0.034,-1.007,0.0,0.11459160000000003,-0.7448454000000001,-0.11459160000000003,89.40436632,-2.04546006,-30.79076292
0.2,20,-0.033,-1.006,0.0,0.0,-1.3750992,0.0,89.38717758,-2.0340008999999997,-30.7964925
0.21000000000000002,21,-0.034,-1.003,0.001,-0.1718874,-1.9480572,0.3437748,89.38717758,-2.03973048,-30.819410819999995
0.22,22,-0.034,-1.002,0.0,-0.22918320000000006,-2.1772404,0.5156622000000001,89.38717758,-2.04546006,-30.84232914
0.23,23,-0.035,-1.001,0.001,-0.057295800000000015,-1.9480572,0.572958,89.38717758,-2.05118964,-30.85951788
0.24000000000000002,24,-0.036000000000000004,-1.007,0.0,0.286479,-1.6615782,0.572958,89.39290716000002,-2.05691922,-30.87670662
0.25,25,-0.033,-1.013,0.004,0.4583664000000001,-1.8334656000000005,0.6302538000000001,89.38717758,-2.05118964,-30.89389536
0.26,26,-0.032,-1.014,0.006999999999999999,0.4583664000000001,-2.578311,0.7448454000000001,89.39290716000002,-2.05691922,-30.91681368
0.27,27,-0.029,-1.013,0.006,0.4583664000000001,-3.3804522000000006,0.9740286,89.40436632,-2.06837838,-30.95119116
0.28,28,-0.026,-1.01,0.004,0.057295800000000015,-4.010706000000001,1.145916,89.40436632,-2.07983754,-30.99129822
0.29000000000000004,29,-0.025,-1.006,0.0,-0.22918320000000006,-4.8701430000000006,1.5469866,89.40436632,-2.09702628,-31.03713486
0.3,30,-0.031,-1.003,0.0,0.11459160000000003,-5.443101,1.7188740000000002,89.40436632,-2.10848544,-31.09443066
0.31,31,-0.035,-1.002,0.002,0.5156622000000001,-5.6149884000000005,1.6615782,89.41582548,-2.1199446,-31.14599688
0.32,32,-0.039,-1.001,0.002,0.4010706,-5.5003968,1.3750992,89.42155505999996,-2.13713334,-31.20329268
0.33,33,-0.045,-1.002,0.002,0.3437748,-5.3858052,1.2032118,89.42728464000002,-2.1485925000000003,-31.2548589
0.34,34,-0.05,-1.004,0.001,0.286479,-5.2139178,0.9740286,89.43301421999998,-2.15432208,-31.30642512
0.35000000000000003,35,-0.05,-1.007,0.003,0.057295800000000015,-4.8701430000000006,1.0313244,89.43301421999998,-2.17151082,-31.35799134
0.36000000000000004,36,-0.05,-1.008,0.006999999999999999,0.11459160000000003,-4.6982556,1.0886202,89.4387438,-2.18296998,-31.40382798
0.37,37,-0.048,-1.011,0.008,0.1718874,-4.297185,1.2032118,89.4387438,-2.19442914,-31.443935040000003
0.38,38,-0.043,-1.014,0.005,0.11459160000000003,-3.9534102,1.3178034,89.44447338,-2.2058883,-31.484042100000003
0.39,39,-0.039,-1.015,0.005,0.057295800000000015,-3.8388186,1.3750992,89.44447338,-2.21734746,-31.52414916
0.4,40,-0.038,-1.01,0.005,0.0,-3.666931200000001,1.3750992,89.44447338,-2.22880662,-31.558526640000004
0.41000000000000003,41,-0.038,-1.006,0.003,0.0,-3.6096354,1.3750992,89.44447338,-2.24026578,-31.592904120000004
0.42000000000000004,42,-0.043,-1.003,0.003,0.11459160000000003,-3.724227,1.3178034,89.45020296,-2.25172494,-31.63301118
0.43,43,-0.048,-1.003,0.002,0.11459160000000003,-4.0680017999999984,1.2605076000000002,89.45593253999998,-2.2631841,-31.67311824
0.44,44,-0.049,-1.003,0.004,0.1718874,-4.1825934,1.2605076000000002,89.45593253999998,-2.2746432600000004,-31.7132253
0.45,45,-0.045,-1.004,0.006999999999999999,0.11459160000000003,-3.9534102,1.145916,89.46166212,-2.28610242,-31.753332359999995
0.46,46,-0.045,-1.005,0.006999999999999999,-0.1718874,-3.6096354,0.9167328,89.46166212,-2.29756158,-31.78770984
0.47000000000000003,47,-0.046,-1.009,0.005,-0.286479,-3.3231564,0.7448454000000001,89.45593253999998,-2.30329116,-31.82208732
0.48000000000000004,48,-0.046,-1.01,0.004,-0.4010706,-2.6929026,0.6302538000000001,89.45593253999998,-2.30902074,-31.85073522
0.49,49,-0.046,-1.01,0.004,-0.4010706,-1.7761698,0.4583664000000001,89.45020296,-2.3147503200000004,-31.86792396
0.5,50,-0.047,-1.011,0.003,-0.286479,-1.145916,0.4010706,89.42728464000002,-2.32620948,-31.87938312
0.51,51,-0.05,-1.011,0.001,-0.22918320000000006,-0.7448454000000001,0.4583664000000001,89.42728464000002,-2.33193906,-31.8851127
0.52,52,-0.051,-1.01,0.0,-0.286479,-0.6302538000000001,0.6875496,89.42155505999996,-2.3376686399999995,-31.89084228
0.53,53,-0.046,-1.003,-0.001,-0.4583664000000001,-0.7448454000000001,0.8594370000000001,89.42155505999996,-2.34339822,-31.902301439999995
0.54,54,-0.038,-0.997,0.0,-0.22918320000000006,-0.8021411999999999,0.9167328,89.41582548,-2.35485738,-31.90803102
0.55,55,-0.035,-0.995,0.0,0.0,-0.9167328,0.572958,89.39290716000002,-2.34339822,-31.913760600000003
0.56,56,-0.036000000000000004,-0.998,0.0,0.4583664000000001,-1.3750992,0.4583664000000001,89.39863674,-2.34339822,-31.92521976
0.5700000000000001,57,-0.04,-1.003,0.004,0.6302538000000001,-1.432395,0.3437748,89.4100959,-2.3491277999999998,-31.93667892
0.5800000000000001,58,-0.046,-1.007,0.006,0.6302538000000001,-1.2032118,0.3437748,89.41582548,-2.35485738,-31.95386766
0.59,59,-0.051,-1.011,0.009000000000000001,0.572958,-0.4583664000000001,0.3437748,89.42155505999996,-2.35485738,-31.95386766
0.6,60,-0.055,-1.013,0.011,0.5156622000000001,0.286479,0.3437748,89.42728464000002,-2.3777757,-31.95959724
0.61,61,-0.057,-1.014,0.011,0.5156622000000001,1.0886202,0.3437748,89.42728464000002,-2.38350528,-31.94813808
0.62,62,-0.054000000000000006,-1.013,0.011,0.5156622000000001,1.6042823999999998,0.4010706,89.43301421999998,-2.38923486,-31.93094934
0.63,63,-0.051,-1.013,0.01,0.3437748,1.7188740000000002,0.4583664000000001,89.4387438,-2.39496444,-31.913760600000003
0.64,64,-0.045,-1.011,0.008,0.11459160000000003,1.7188740000000002,0.572958,89.4387438,-2.40069402,-31.89657186
0.65,65,-0.038,-1.01,0.006,0.057295800000000015,1.7761698,0.572958,89.42728464000002,-2.38923486,-31.87365354
0.66,66,-0.032,-1.011,0.001,0.11459160000000003,1.4896908000000002,0.572958,89.42728464000002,-2.39496444,-31.856464799999998
0.67,67,-0.031,-1.009,0.0,0.1718874,1.145916,0.6302538000000001,89.43301421999998,-2.40069402,-31.84500564
0.68,68,-0.034,-1.008,0.001,0.286479,0.5156622000000001,0.7448454000000001,89.43301421999998,-2.41215318,-31.839276060000003
0.6900000000000001,69,-0.036000000000000004,-1.005,0.003,0.286479,0.22918320000000006,0.572958,89.4387438,-2.41788276,-31.839276060000003
0.7000000000000001,70,-0.04,-1.004,0.003,0.0,0.4010706,0.3437748,89.4100959,-2.4064236,-31.8278169
0.7100000000000001,71,-0.043,-1.002,0.006,-0.1718874,0.11459160000000003,0.4010706,89.4100959,-2.4064236,-31.8278169
0.72,72,-0.045,-1.003,0.006,-0.5156622000000001,-0.057295800000000015,0.286479,89.40436632,-2.41215318,-31.8278169
0.73,73,-0.046,-1.005,0.005,-0.8021411999999999,0.11459160000000003,0.1718874,89.39863674,-2.41215318,-31.8278169
0.74,74,-0.044,-1.008,0.004,-0.7448454000000001,0.572958,0.057295800000000015,89.38717758,-2.41215318,-31.82208732
0.75,75,-0.044,-1.015,0.002,-0.4010706,1.0313244,0.0,89.35852968,-2.4064236,-31.804898580000003
0.76,76,-0.045,-1.021,0.003,-0.286479,1.0886202,0.0,89.35852968,-2.4064236,-31.799169
0.77,77,-0.043,-1.017,0.004,-0.4583664000000001,0.5156622000000001,0.0,89.3528001,-2.4064236,-31.79343942000001
0.78,78,-0.038,-1.011,0.004,-0.5156622000000001,0.11459160000000003,0.11459160000000003,89.34707052,-2.4064236,-31.78770984
0.79,79,-0.037000000000000005,-1.006,0.004,-0.8594370000000001,-0.057295800000000015,0.286479,89.33561136,-2.41215318,-31.79343942000001
0.8,80,-0.036000000000000004,-1.001,0.002,-1.0886202,-0.057295800000000015,0.3437748,89.30696345999998,-2.39496444,-31.78770984
0.81,81,-0.037000000000000005,-0.999,0.004,-0.8021411999999999,0.0,0.4583664000000001,89.30123388000001,-2.40069402,-31.78770984
0.8200000000000001,82,-0.039,-0.999,0.004,-0.4583664000000001,0.11459160000000003,0.22918320000000006,89.29550429999998,-2.40069402,-31.78198026
0.8300000000000001,83,-0.041,-1.002,0.003,-0.4583664000000001,0.3437748,0.0,89.28977472,-2.40069402,-31.78198026
0.8400000000000001,84,-0.043,-1.005,0.001,-0.5156622000000001,0.4583664000000001,-0.22918320000000006,89.28404514,-2.40069402,-31.776250680000004
0.85,85,-0.045,-1.007,0.002,-0.6302538000000001,0.286479,-0.286479,89.25539724,-2.38923486,-31.770521100000003
0.86,86,-0.046,-1.005,0.003,-0.4010706,0.22918320000000006,-0.286479,89.24966766,-2.38923486,-31.76479152
0.87,87,-0.044,-1.004,0.005,-0.286479,0.286479,-0.22918320000000006,89.24966766,-2.38350528,-31.76479152
0.88,88,-0.041,-1.007,0.005,-0.11459160000000003,0.3437748,-0.1718874,89.24966766,-2.38350528,-31.75906194
0.89,89,-0.039,-1.011,0.005,0.0,0.11459160000000003,-0.11459160000000003,89.24393807999998,-2.38350528,-31.75906194
0.9,90,-0.036000000000000004,-1.011,0.005,0.0,0.0,-0.057295800000000015,89.18664228,-2.18296998,-31.70176614
0.91,91,-0.037000000000000005,-1.012,0.005,0.0,-0.1718874,0.0,89.18664228,-2.18296998,-31.70749572
0.92,92,-0.039,-1.009,0.005,0.0,-0.3437748,-0.1718874,89.18664228,-2.1772404,-31.70749572
0.93,93,-0.043,-1.007,0.006,0.057295800000000015,-0.11459160000000003,-0.22918320000000006,89.19237186000002,-2.1772404,-31.7132253
0.9400000000000001,94,-0.046,-1.006,0.006999999999999999,0.057295800000000015,0.0,-0.286479,89.19237186000002,-2.17151082,-31.70749572
0.9500000000000001,95,-0.048,-1.007,0.008,0.1718874,0.22918320000000006,-0.286479,89.19237186000002,-2.18869956,-31.7132253
0.9600000000000001,96,-0.046,-1.008,0.008,0.1718874,0.5156622000000001,-0.286479,89.19237186000002,-2.18869956,-31.70749572
0.97,97,-0.044,-1.007,0.008,0.0,0.572958,-0.22918320000000006,89.19237186000002,-2.18869956,-31.70176614
0.98,98,-0.042,-1.005,0.006,-0.22918320000000006,0.6302538000000001,-0.4010706,89.19237186000002,-2.18296998,-31.69603656
0.99,99,-0.039,-1.007,0.004,-0.3437748,0.8021411999999999,-0.4010706,89.18664228,-2.1772404,-31.690306979999995
1.0,100,-0.037000000000000005,-1.01,0.003,-0.286479,0.6875496,-0.4010706,89.17518312,-2.16005166,-31.67884782
1.01,101,-0.035,-1.012,0.003,-0.22918320000000006,0.286479,-0.22918320000000006,89.16945354,-2.15432208,-31.67311824
1.02,102,-0.036000000000000004,-1.012,0.002,0.057295800000000015,0.286479,-0.057295800000000015,89.16945354,-2.15432208,-31.67311824
1.03,103,-0.037000000000000005,-1.009,0.003,0.22918320000000006,0.4583664000000001,0.0,89.17518312,-2.15432208,-31.66738866
1.04,104,-0.041,-1.008,0.002,0.22918320000000006,0.6875496,0.0,89.17518312,-2.15432208,-31.65592950000001
1.05,105,-0.046,-1.007,0.0,0.22918320000000006,0.9740286,0.0,89.15799438,-2.17151082,-31.65019992
1.06,106,-0.049,-1.006,0.0,0.3437748,1.0313244,-0.057295800000000015,89.16372396,-2.1657812400000003,-31.63874076
1.07,107,-0.047,-1.004,-0.001,0.3437748,1.3750992,-0.057295800000000015,89.16372396,-2.1657812400000003,-31.6272816
1.08,108,-0.044,-1.005,-0.001,0.5156622000000001,1.145916,-0.1718874,89.16945354,-2.1657812400000003,-31.61582244
1.09,109,-0.04,-1.007,-0.002,0.4583664000000001,1.0313244,-0.1718874,89.17518312,-2.1657812400000003,-31.60436328
1.1,110,-0.037000000000000005,-1.007,-0.002,0.4010706,0.6302538000000001,-0.22918320000000006,89.15799438,-2.1485925000000003,-31.592904120000004
1.11,111,-0.035,-1.007,0.0,0.5156622000000001,0.11459160000000003,-0.22918320000000006,89.16372396,-2.14286292,-31.592904120000004
1.12,112,-0.036000000000000004,-1.008,0.0,0.572958,-0.22918320000000006,-0.1718874,89.16945354,-2.14286292,-31.592904120000004
1.1300000000000001,113,-0.037000000000000005,-1.009,0.0,0.572958,-0.5156622000000001,-0.1718874,89.17518312,-2.13713334,-31.5986337
1.1400000000000001,114,-0.037000000000000005,-1.008,0.002,0.5156622000000001,-0.4583664000000001,-0.3437748,89.1809127,-2.13713334,-31.60436328
1.1500000000000001,115,-0.039,-1.007,0.001,0.4583664000000001,-0.4010706,-0.5156622000000001,89.17518312,-2.12567418,-31.61009286
1.1600000000000001,116,-0.041,-1.009,0.0,0.572958,-0.3437748,-0.572958,89.1809127,-2.1199446,-31.61009286
1.17,117,-0.043,-1.01,-0.002,0.4010706,-0.1718874,-0.3437748,89.1809127,-2.1199446,-31.61582244
1.18,118,-0.042,-1.011,-0.002,0.3437748,0.0,-0.3437748,89.18664228,-2.11421502,-31.61582244
1.19,119,-0.04,-1.012,-0.005,0.4010706,0.0,-0.3437748,89.19237186000002,-2.10848544,-31.61582244
1.2,120,-0.039,-1.013,-0.006,0.6302538000000001,0.1718874,-0.4583664000000001,89.17518312,-2.10275586,-31.61009286
1.21,121,-0.04,-1.013,-0.006,0.4583664000000001,0.11459160000000003,-0.6302538000000001,89.1809127,-2.09702628,-31.61009286
1.22,122,-0.041,-1.01,-0.005,0.4583664000000001,-0.3437748,-0.7448454000000001,89.1809127,-2.08556712,-31.61009286
1.23,123,-0.041,-1.008,-0.006,0.4583664000000001,-0.6875496,-0.572958,89.18664228,-2.07983754,-31.62155202000001
1.24,124,-0.04,-1.01,-0.006999999999999999,0.1718874,-0.9740286,-0.4010706,89.19237186000002,-2.07410796,-31.6272816
1.25,125,-0.038,-1.013,-0.01,-0.057295800000000015,-0.6302538000000001,-0.4010706,89.12934648,-2.0626488000000003,-31.63301118
1.26,126,-0.038,-1.018,-0.009000000000000001,0.0,0.0,-0.3437748,89.12934648,-2.05691922,-31.63301118
1.27,127,-0.037000000000000005,-1.02,-0.011,-0.057295800000000015,0.1718874,-0.5156622000000001,89.12934648,-2.05118964,-31.6272816
1.28,128,-0.035,-1.015,-0.013,0.0,-0.572958,-0.5156622000000001,89.12934648,-2.04546006,-31.63301118
1.29,129,-0.035,-1.009,-0.016,0.0,-1.6615782,-0.5156622000000001,89.12934648,-2.03973048,-31.65019992
1.3,130,-0.033,-1.005,-0.017,-0.4583664000000001,-1.8334656000000005,-0.3437748,89.09496899999998,-2.02827132,-31.66738866
1.31,131,-0.033,-1.0,-0.018000000000000002,-0.572958,-1.8907613999999997,-0.1718874,89.09496899999998,-2.02827132,-31.6845774
1.32,132,-0.034,-0.999,-0.014,0.0,-2.1199446,-0.1718874,89.09496899999998,-2.02254174,-31.70749572
1.33,133,-0.035,-1.001,-0.014,0.057295800000000015,-2.291832,-0.3437748,89.09496899999998,-2.02254174,-31.73041404
1.34,134,-0.036000000000000004,-1.005,-0.016,0.0,-2.291832,-0.3437748,89.09496899999998,-2.01681216,-31.753332359999995
1.35,135,-0.036000000000000004,-1.012,-0.018000000000000002,-0.4583664000000001,-2.0626488000000003,-0.4583664000000001,89.06632110000002,-2.005353,-31.776250680000004
1.36,136,-0.036000000000000004,-1.015,-0.023,-0.5156622000000001,-2.1199446,-0.286479,89.06632110000002,-2.005353,-31.79343942000001
1.37,137,-0.037000000000000005,-1.018,-0.026,-0.3437748,-2.578311,-0.1718874,89.06059152,-1.99962342,-31.82208732
1.3800000000000001,138,-0.036000000000000004,-1.017,-0.027000000000000003,-0.286479,-2.6929026,0.0,89.06059152,-1.99962342,-31.84500564
1.3900000000000001,139,-0.036000000000000004,-1.015,-0.03,-0.5156622000000001,-2.4637194,-0.057295800000000015,89.05486194,-1.99962342,-31.87365354
1.4000000000000001,140,-0.041,-1.012,-0.033,-1.0886202,-2.4064236,-0.286479,89.01475488,-1.99962342,-31.89657186
1.4100000000000001,141,-0.047,-1.009,-0.034,-1.5469866,-2.1772404,-0.3437748,89.00329572000004,-1.99389384,-31.91949018
1.42,142,-0.048,-1.006,-0.033,-1.6042823999999998,-1.8334656000000005,-0.11459160000000003,88.98610698,-1.99389384,-31.93667892
1.43,143,-0.048,-1.008,-0.029,-1.7188740000000002,-1.3750992,-0.057295800000000015,88.96891824000002,-1.99389384,-31.95386766
1.44,144,-0.048,-1.011,-0.029,-1.8334656000000005,-0.7448454000000001,-0.11459160000000003,88.9517295,-1.99389384,-31.95959724
1.45,145,-0.05,-1.013,-0.031,-1.7761698,0.22918320000000006,-0.4583664000000001,88.89443370000002,-1.99962342,-31.95959724
1.46,146,-0.051,-1.012,-0.036000000000000004,-1.6042823999999998,1.145916,-0.6875496,88.87724496000001,-1.99389384,-31.94813808
1.47,147,-0.045,-1.01,-0.038,-1.6042823999999998,1.8907613999999997,-0.7448454000000001,88.86005622,-1.98816426,-31.93094934
1.48,148,-0.038,-1.007,-0.041,-1.7188740000000002,2.0053530000000004,-0.572958,88.8371379,-1.98243468,-31.90803102
1.49,149,-0.03,-1.004,-0.044,-1.9480572,1.7761698,-0.3437748,88.81994916,-1.9767051,-31.89084228
1.5,150,-0.026,-1.002,-0.044,-2.1199446,1.432395,-0.22918320000000006,88.75692378,-1.96524594,-31.87365354
1.51,151,-0.026,-1.0,-0.044,-2.5210152000000003,1.145916,-0.1718874,88.73400546,-1.96524594,-31.86219438
1.52,152,-0.03,-1.0,-0.043,-2.9793816000000004,0.8021411999999999,-0.22918320000000006,88.69962798,-1.9595163600000003,-31.856464799999998
1.53,153,-0.033,-1.004,-0.042,-3.5523396000000003,0.9740286,-0.5156622000000001,88.6652505,-1.95378678,-31.84500564
1.54,154,-0.035,-1.013,-0.044,-4.583664,1.7188740000000002,-1.0313244,88.61941386,-1.9480572000000005,-31.8278169
1.55,155,-0.037000000000000005,-1.019,-0.05,-5.844171599999999,2.4637194,-1.432395,88.53919973999999,-1.93086846,-31.804898580000003
1.56,156,-0.034,-1.02,-0.052000000000000005,-6.703608600000001,2.6929026,-1.6042823999999998,88.47044478000002,-1.91367972,-31.776250680000004
1.57,157,-0.031,-1.022,-0.062,-8.4224826,3.0939732,-2.0053530000000004,88.38450107999998,-1.89649098,-31.74760278
1.58,158,-0.028,-1.019,-0.068,-9.797581800000001,3.2085648,-2.0053530000000004,88.28136864,-1.87930224,-31.718954879999995
1.59,159,-0.025,-1.01,-0.073,-10.599723,2.6356068,-1.6042823999999998,88.17250662000002,-1.8621135,-31.69603656
1.6,160,-0.023,-1.006,-0.077,-11.3445684,1.6615782,-1.0886202,88.04072628,-1.84492476,-31.67884782
1.61,161,-0.019,-1.005,-0.08199999999999999,-11.9748222,0.572958,-0.7448454000000001,87.92040510000002,-1.83919518,-31.67311824
1.62,162,-0.017,-1.008,-0.085,-12.5477802,-0.4010706,-0.5156622000000001,87.79435434000001,-1.8334656000000003,-31.67884782
1.6300000000000001,163,-0.017,-1.013,-0.092,-13.178034,-1.3178034,-0.5156622000000001,87.66257399999998,-1.8334656000000003,-31.69603656
1.6400000000000001,164,-0.021,-1.019,-0.091,-13.120738199999998,-1.7761698,-0.8021411999999999,87.52506408,-1.82773602,-31.7132253
1.6500000000000001,165,-0.034,-1.017,-0.079,-12.605076,-1.7761698,-1.3178034,87.38755416000002,-1.81627686,-31.73041404
1.6600000000000001,166,-0.041,-1.01,-0.07400000000000001,-13.0061466,-1.4896908000000002,-1.3750992,87.25577381999999,-1.79908812,-31.74760278
1.6700000000000002,167,-0.044,-1.007,-0.08900000000000001,-14.5531332,-0.6302538000000001,-1.2605076000000002,87.11253432000002,-1.78762896,-31.75906194
1.68,168,-0.037000000000000005,-0.998,-0.102,-16.157415599999997,0.0,-1.145916,86.94637650000001,-1.78189938,-31.75906194
1.69,169,-0.026,-0.984,-0.11,-16.7303736,-0.057295800000000015,-0.9740286,86.7744891,-1.77044022,-31.76479152
1.7,170,-0.019,-0.975,-0.121,-17.7044022,-1.145916,-0.4583664000000001,86.57968338,-1.76471064,-31.776250680000004
1.71,171,-0.017,-0.97,-0.135,-19.308684600000007,-2.7501984,0.0,86.38487766,-1.77044022,-31.804898580000003
1.72,172,-0.019,-0.973,-0.142,-20.2827132,-3.724227,0.7448454000000001,86.18434235999996,-1.78189938,-31.84500564
1.73,173,-0.023,-0.978,-0.136,-20.626488,-4.6982556,1.432395,85.97807748,-1.79908812,-31.89657186
1.74,174,-0.024,-0.975,-0.123,-20.3973048,-6.6463128000000005,1.8907613999999997,85.77181259999998,-1.82200644,-31.95959724
1.75,175,-0.027000000000000003,-0.966,-0.112,-20.5691922,-8.880849000000003,2.0053530000000004,85.55981814,-1.85065434,-32.05127052
1.76,176,-0.03,-0.957,-0.11,-21.485925,-10.1413566,1.6042823999999998,85.34782368,-1.87357266,-32.14867338
1.77,177,-0.032,-0.957,-0.109,-22.2880662,-9.6256944,0.8021411999999999,85.12437006,-1.88503182,-32.24607624
1.78,178,-0.031,-0.968,-0.12,-23.204799,-8.880849000000003,0.1718874,84.89518686,-1.89649098,-32.33774952
1.79,179,-0.035,-0.979,-0.14,-23.777757,-9.568398599999998,0.057295800000000015,84.6545445,-1.90222056,-32.43515238
1.8,180,-0.032,-0.976,-0.152,-22.7464326,-11.229976800000001,0.1718874,84.41963172,-1.91367972,-32.54974398
1.81,181,-0.031,-0.96,-0.127,-20.7410796,-13.8082878,0.11459160000000003,84.21909642,-1.93086846,-32.6872539
1.82,182,-0.035,-0.945,-0.093,-20.798375399999998,-15.0687954,0.22918320000000006,84.01283154000002,-1.94232762,-32.836222979999995
1.83,183,-0.042,-0.937,-0.1,-23.8923486,-15.5844576,0.6302538000000001,83.77791876,-1.96524594,-32.99092164
1.84,184,-0.051,-0.942,-0.107,-27.215505,-15.813640800000002,0.8021411999999999,83.5086285,-1.98816426,-33.15134988
1.85,185,-0.05,-0.963,-0.125,-28.4760126,-14.9542038,0.6875496,83.2221495,-2.01108258,-33.30031896000001
1.86,186,-0.052000000000000005,-0.99,-0.147,-26.9863218,-14.381245800000002,0.8594370000000001,82.95858882,-2.0340008999999997,-33.44355846
1.87,187,-0.056,-1.015,-0.16699999999999998,-24.8090814,-14.667724800000002,1.2605076000000002,82.71221688,-2.0626488000000003,-33.592527540000006
1.8800000000000001,188,-0.062,-1.019,-0.18,-22.631841,-14.8396122,1.432395,82.48876326,-2.09702628,-33.73576704
1.8900000000000001,189,-0.065,-1.013,-0.157,-19.8816426,-14.2093584,1.2605076000000002,82.29395754,-2.12567418,-33.87900654
1.9000000000000001,190,-0.057,-1.006,-0.124,-17.9908812,-12.6623718,0.5156622000000001,82.11634056,-2.1485925000000003,-34.0050573
1.9100000000000001,191,-0.049,-1.004,-0.114,-17.303331600000003,-10.7716104,0.0,81.94445316,-2.16005166,-34.113919319999994
1.9200000000000002,192,-0.046,-1.004,-0.114,-16.959556799999998,-9.224623800000002,0.057295800000000015,81.77829534,-2.1772404,-34.2055926
1.93,193,-0.044,-1.007,-0.147,-16.042824000000003,-8.9381448,0.8594370000000001,81.62359668,-2.19442914,-34.291536300000004
1.94,194,-0.046,-1.002,-0.183,-14.381245800000002,-10.1413566,2.2345362,81.48035718,-2.22880662,-34.38893916
1.95,195,-0.052000000000000005,-0.982,-0.206,-11.1153852,-12.1467096,3.5523396000000003,81.360036,-2.28610242,-34.50926034
1.96,196,-0.058,-0.962,-0.195,-7.448453999999999,-13.750992000000002,3.9534102,81.29128104,-2.3376686399999995,-34.6353111
1.97,197,-0.057,-0.952,-0.168,-5.0993262,-14.0947668,3.3804522000000006,81.25117398,-2.38923486,-34.772821019999995
1.98,198,-0.055,-0.959,-0.14,-3.666931200000001,-13.178034,2.7501984,81.21679650000002,-2.4350715000000003,-34.89887178
1.99,199,-0.049,-0.978,-0.117,-1.5469866,-12.4904844,1.9480572,81.21106692,-2.46944898,-35.01919296
2.0,200,-0.039,-1.0,-0.124,0.4010706,-11.2872726,1.432395,81.22252608,-2.49809688,-35.12805498
2.01,201,-0.033,-1.009,-0.129,2.0053530000000004,-10.599723,1.2032118,81.2454444,-2.5210152000000003,-35.22545784
2.02,202,-0.027000000000000003,-1.002,-0.134,4.3544808,-10.3705398,0.9740286,81.29701062000002,-2.54393352,-35.32859028
2.03,203,-0.028,-0.974,-0.175,4.9847345999999995,-11.5737516,0.9167328,81.35430642,-2.56685184,-35.4374523
2.04,204,-0.032,-0.925,-0.207,6.8182002000000015,-14.896907999999998,0.6302538000000001,81.43452054,-2.58977016,-35.58642138000001
2.05,205,-0.022,-0.877,-0.198,11.0007936,-17.0741484,-0.22918320000000006,81.54338256,-2.6012293200000003,-35.7525792
2.0599999999999996,206,-0.002,-0.838,-0.183,13.521808800000002,-18.3919518,-1.3178034,81.69235164,-2.6069589,-35.93019618
2.07,207,0.004,-0.8220000000000001,-0.175,16.558486199999994,-20.454600600000006,-2.0053530000000004,81.8756982,-2.61268848,-36.13646106
2.0799999999999996,208,-0.006,-0.826,-0.136,19.4232762,-20.9702628,-2.6929026,82.08196308000002,-2.6069589,-36.34272594
2.09,209,-0.015,-0.846,-0.086,20.912967,-18.5638392,-2.6929026,82.3054167,-2.59549974,-36.5260725
2.0999999999999996,210,-0.016,-0.873,-0.085,19.767051,-13.5791046,-1.7761698,82.51741116,-2.58977016,-36.66358242
2.11,211,-0.025,-0.893,-0.081,19.308684600000007,-10.4851314,-0.6302538000000001,82.71794646,-2.58977016,-36.76098528
2.1199999999999997,212,-0.042,-0.894,-0.071,20.798375399999998,-10.886202,-0.3437748,82.9356705,-2.59549974,-36.869847299999996
2.13,213,-0.057,-0.8590000000000001,-0.076,20.2827132,-13.9228794,-0.3437748,83.14766496,-2.6012293200000003,-37.00735722
2.1399999999999997,214,-0.066,-0.804,-0.085,20.2254174,-18.449247600000003,-0.8594370000000001,83.36538900000002,-2.6069589,-37.1849742
2.15,215,-0.066,-0.747,-0.086,19.8816426,-22.8037284,-2.5210152000000003,83.57738346,-2.6012293200000003,-37.41415739999999
2.1599999999999997,216,-0.064,-0.685,-0.085,19.1367972,-25.8977016,-5.5003968,83.78937792,-2.56685184,-37.67198850000001
2.17,217,-0.059,-0.615,-0.08199999999999999,17.8189938,-26.1841806,-9.6829902,83.98418364,-2.4923673,-37.94127876
2.1799999999999997,218,-0.045,-0.5489999999999999,-0.067,16.329303,-23.204799,-14.7250206,84.16180062,-2.36058696,-38.18192112
2.19,219,-0.025,-0.4920000000000001,-0.065,14.381245800000002,-17.761698000000006,-19.938938399999998,84.32222886000002,-2.1772404,-38.37672684
2.1999999999999997,220,-0.016,-0.469,-0.055,12.4331886,-13.8082878,-23.376686399999997,84.4540092,-1.95378678,-38.5314255
2.21,221,-0.024,-0.461,-0.041,9.797581800000001,-13.2353298,-24.1215318,84.55714164,-1.7188740000000002,-38.68612416
2.2199999999999998,222,-0.048,-0.47,-0.024,7.6203414,-13.750992000000002,-23.032911600000002,84.64308534,-1.50114996,-38.84082282
2.23,223,-0.064,-0.488,-0.004,4.583664,-10.313244,-22.1161788,84.69465156,-1.2891555000000001,-38.961144
2.2399999999999998,224,-0.071,-0.498,0.018000000000000002,-0.3437748,-1.7188740000000002,-22.8037284,84.68892198,-1.06570188,-39.00125106
2.25,225,-0.059,-0.498,0.014,-6.990087599999999,10.0840608,-25.3247436,84.61443744,-0.8078707799999998,-38.92103694
2.26,226,-0.052000000000000005,-0.485,-0.03,-13.6936962,17.18874,-27.6738714,84.47119794,-0.52712136,-38.77779744
2.27,227,-0.056,-0.47,-0.056,-18.6784308,19.194093,-28.4187168,84.27639222,-0.23491278,-38.61736920000001
2.28,228,-0.044,-0.455,-0.078,-24.923673,26.356068,-27.1009134,84.01856111999999,0.04583664,-38.38818600000001
2.29,229,-0.013,-0.451,-0.123,-29.9084076,36.38283300000001,-24.5226024,83.71489338,0.31512690000000004,-38.05587036
2.3,230,0.009000000000000001,-0.436,-0.172,-29.67922440000001,41.596750799999995,-20.798375399999998,83.40549606,0.55003968,-37.67198850000001
2.31,231,0.001,-0.468,-0.221,-20.912967,38.38818600000001,-15.985528200000001,83.18777202,0.7448454000000001,-37.31675454
2.32,232,0.008,-0.5479999999999999,-0.269,-20.6837838,39.820581,-12.2040054,82.97577756,0.89954406,-36.93860226
2.3299999999999996,233,0.043,-0.597,-0.266,-22.86102420000001,40.393539,-9.5111028,82.74659436,1.0255948199999998,-36.554720399999994
2.34,234,0.047,-0.6579999999999999,-0.311,-22.8037284,34.0337052,-7.1046792000000005,82.51741116,1.12872726,-36.23386392
2.3499999999999996,235,0.028,-0.713,-0.428,-23.3193906,26.5852512,-4.4690724,82.25385048,1.2032117999999998,-35.97603282
2.36,236,0.014,-0.742,-0.446,-19.0222056,15.9282324,0.0,82.05904475999998,1.21467096,-35.82133416
2.3699999999999997,237,0.012,-0.789,-0.364,-11.917526400000002,12.3758928,1.2032118,81.93872358,1.21467096,-35.70101298
2.38,238,0.023,-0.8320000000000001,-0.321,-7.5630456000000015,14.495837400000001,-0.8021411999999999,81.86423904,1.23758928,-35.56350306
2.3899999999999997,239,0.023,-0.846,-0.302,-6.875496000000001,14.2093584,-2.6929026,81.79548408,1.28342592,-35.42599314
2.4,240,0.012,-0.857,-0.29,-3.8961144,14.5531332,-1.9480572,81.72099954000002,1.3178034,-35.28848322
2.4099999999999997,241,0.008,-0.898,-0.29600000000000004,0.286479,16.902261,1.2605076000000002,81.72672911999999,1.32353298,-35.11659582
2.42,242,-0.002,-0.974,-0.305,2.1772404,18.907614000000002,5.1566220000000005,81.74964744,1.29488508,-34.92751968
2.4299999999999997,243,-0.02,-1.0590000000000002,-0.274,3.4377480000000005,21.4286292,8.479778399999999,81.78402492,1.23758928,-34.70406606
2.44,244,-0.023,-1.112,-0.293,8.021412000000002,22.5745452,12.605076,81.86996862,1.14018642,-34.4634237
2.4499999999999997,245,-0.029,-1.104,-0.294,12.261301199999998,19.2513888,15.5844576,81.98456021999998,1.0026765,-34.25142924
2.46,246,-0.024,-1.054,-0.276,16.7303736,15.183387000000002,17.131444199999994,82.15644762000002,0.8537074199999999,-34.07381226
2.4699999999999998,247,0.01,-1.027,-0.364,18.2200644,14.4385416,17.4179232,82.34552376,0.69900876,-33.90765444
2.48,248,0.045,-1.011,-0.387,22.8037284,12.4904844,17.5325148,82.57470696,0.53858052,-33.75868536
2.4899999999999998,249,0.051,-1.014,-0.359,32.830493399999995,9.167328,17.8189938,82.90702259999998,0.37815228,-33.64409376
2.5,250,0.043,-1.042,-0.358,39.4195104,9.797581800000001,16.8449652,83.29663404,0.22345362,-33.52377258
2.51,251,0.022,-1.088,-0.389,42.1697088,12.9488508,14.32395,83.72062296,0.09740286,-33.3748035
2.52,252,-0.024,-1.09,-0.298,43.7166954,12.605076,10.7716104,84.1675302,0.00572958,-33.23729358
2.53,253,-0.066,-1.056,-0.272,48.414951,7.2765666,9.224623800000002,84.6545445,-0.06875496,-33.15134988
2.54,254,-0.062,-1.016,-0.307,49.04520479999999,4.8128472,10.1413566,85.15301796,-0.16615782,-33.08832450000001
2.55,255,-0.056,-0.95,-0.28600000000000003,54.3164184,2.86479,13.464512999999998,85.69159848,-0.29220857999999994,-33.04248786
2.56,256,-0.043,-0.917,-0.313,59.4730404,1.7188740000000002,18.2773602,86.29320437999998,-0.46982556,-33.00811038
2.57,257,-0.039,-0.898,-0.349,65.2026204,0.057295800000000015,21.9442914,86.95783566,-0.68182002,-32.98519206
2.5799999999999996,258,-0.027000000000000003,-0.895,-0.34,74.1407652,-0.11459160000000003,22.7464326,87.70841064,-0.89954406,-32.968003319999994
2.59,259,-0.017,-0.871,-0.362,79.24009140000003,0.5156622000000001,20.6837838,88.51628142,-1.10007936,-32.95081458
2.5999999999999996,260,-0.022,-0.809,-0.411,84.7404882,-1.2605076000000002,16.501190400000002,89.3528001,-1.25477802,-32.95081458
2.61,261,-0.045,-0.74,-0.385,89.83981440000002,-4.0680017999999984,12.605076,90.2695329,-1.3750992,-32.97946248
2.6199999999999997,262,-0.062,-0.642,-0.294,94.4807742,-6.990087599999999,8.880849000000003,91.22637276,-1.44958374,-33.04248786
2.63,263,-0.034,-0.5329999999999999,-0.241,98.0331138,-11.229976800000001,5.5003968,92.22904926,-1.49542038,-33.13989072
2.6399999999999997,264,0.045,-0.401,-0.205,102.1584114,-14.7823164,3.0366774,93.27183282,-1.50687954,-33.27740064
2.65,265,0.146,-0.301,-0.141,109.0339074,-15.813640800000002,2.1199446,94.37764176,-1.49542038,-33.42064014
2.6599999999999997,266,0.175,-0.256,-0.124,114.93537479999999,-15.0687954,4.5263682,95.55220566,-1.5183387000000002,-33.55815006
2.67,267,0.108,-0.236,-0.102,120.607659,-13.407217200000002,9.568398599999998,96.77833578,-1.5870936600000003,-33.684200819999994
2.6799999999999997,268,-0.006999999999999999,-0.255,-0.083,133.09814340000003,-13.6364004,16.1001198,98.13624624,-1.71314442,-33.82744032
2.69,269,-0.097,-0.276,-0.073,143.6978664,-16.272007199999994,20.5691922,99.60301872,-1.87930224,-33.999327720000004
2.6999999999999997,270,-0.129,-0.265,-0.006,150.74524979999995,-18.162768600000003,19.595163600000006,101.13854616,-2.02827132,-34.18840386
2.71,271,-0.105,-0.206,0.015,154.29758940000005,-16.7303736,13.6936962,102.71418065999998,-2.11421502,-34.36029126
2.7199999999999998,272,-0.052000000000000005,-0.142,0.006,160.4855358,-15.2406828,7.5057497999999985,104.35284054000002,-2.13713334,-34.503530760000004
2.73,273,0.01,-0.11,0.047,164.61083340000005,-13.8655836,3.666931200000001,106.03160748,-2.12567418,-34.62385194
2.7399999999999998,274,0.087,-0.103,0.052000000000000005,171.65821680000005,-16.959556799999998,1.432395,107.77912938,-2.07983754,-34.76136186
2.75,275,0.139,-0.097,0.161,177.330501,-31.51269000000001,0.8021411999999999,109.59540624000002,-1.96524594,-35.03065212
2.76,276,0.161,0.008,0.259,169.13720159999997,-40.2789474,1.6615782,111.33146898,-1.82773602,-35.38588608
2.77,277,0.195,0.16399999999999998,0.318,166.90266540000005,-27.3300966,0.1718874,113.03315424,-1.71314442,-35.60933970000001
2.78,278,0.11,0.177,0.45,180.2525868,-21.199446,0.1718874,114.87234942,-1.62147114,-35.77549752
2.79,279,-0.063,-0.228,0.838,209.4734448,-25.7258142,2.86479,117.00948276,-1.52406828,-35.98749198
2.8,280,-0.11,-0.907,1.2009999999999998,237.54838680000003,-28.361421000000004,3.666931200000001,119.43309509999999,-1.41520626,-36.21667518
2.81,281,-0.103,-1.291,1.396,243.9655164,-26.069589,2.2345362,121.91400324,-1.29488508,-36.4114809
2.82,282,-0.049,-1.612,1.58,241.1580222,-24.5226024,-1.432395,124.36626348,-1.14018642,-36.56617956
2.8299999999999996,283,-0.099,-1.921,2.046,228.1518756,-13.407217200000002,4.5263682,126.68674338,-1.10007936,-36.66931200000001
2.84,284,-0.198,-3.516,1.393,-31.340802600000004,12.3758928,8.8235532,126.36588689999999,-1.24331886,-36.62920494
2.8499999999999996,285,-0.16,-1.599,3.789,369.7870932,23.835052800000003,28.8770832,130.11303221999998,-1.6157415599999996,-36.56044998
2.86,286,0.4370000000000001,-0.109,0.605,1246.9857912,-88.4074194,-3.5523396000000003,142.78686318,-0.9912173399999998,-36.96725016
2.8699999999999997,287,-0.18600000000000005,-0.54,3.218,632.259153,46.409598,8.250595200000001,149.19253362,-1.46677248,-36.71514864
2.88,288,-0.184,-1.062,2.353,93.105675,64.11400019999999,-2.5210152000000003,150.114996,-2.01681216,-36.37710342000001
2.8899999999999997,289,0.28,-1.018,2.667,172.9760202,37.52874900000001,-2.9220857999999996,151.85678832000005,-2.3376686399999995,-36.15937938
2.9,290,-0.313,-0.778,2.792,195.5505654,36.7839036,9.224623800000002,153.83349342,-2.7215505,-36.05624694
2.9099999999999997,291,-0.158,0.501,2.002,214.286292,40.5081306,18.621135,156.00500424,-3.1799169000000003,-36.03905820000001
2.92,292,-0.236,-0.019,2.3680000000000003,248.8356594,23.491278,4.1825934,158.52028986,-3.43201842,-35.96457366
2.9299999999999997,293,-0.158,0.132,2.004,246.4865316,18.2200644,8.078707799999998,161.01838674,-3.64974246,-35.95311450000001
2.94,294,-0.162,-0.461,2.156,224.48494440000002,9.3392154,15.5844576,163.30448916,-3.80444112,-36.05051736
2.9499999999999997,295,-0.18600000000000005,-0.5770000000000001,1.806,198.0715806,3.5523396000000003,15.0687954,165.32130132,-3.896114400000001,-36.16510896000001
2.96,296,-0.081,-0.777,1.515,177.61698,2.578311,13.349921400000001,167.12611902,-3.97059894,-36.2682414
2.9699999999999998,297,-0.1,-0.889,1.255,172.9760202,0.8594370000000001,12.318597,168.89082966,-4.022165159999999,-36.37137384
2.98,298,-0.091,-0.607,1.347,202.1395824,5.443101,13.2353298,170.94774888,-4.11956802,-36.47450628
2.9899999999999998,299,-0.013,0.149,1.733,260.982369,11.4018642,12.032117999999999,173.60054442,-4.27426668,-36.554720399999994
3.0,300,-0.07200000000000001,0.135,1.595,191.0241972,-0.057295800000000015,12.261301199999998,175.54860162,-4.30291458,-36.65785284
3.01,301,-0.109,-0.032,1.327,151.03172880000002,-6.417129599999999,11.9748222,177.08985864000005,-4.26280752,-36.76671485999999
3.02,302,-0.046,0.019,1.198,140.08823099999998,-8.8235532,16.042824000000003,178.52798321999995,-4.19405256,-36.91568394
3.03,303,-0.08800000000000001,-0.183,1.099,143.1249084,-8.307891,21.8869956,179.99475569999996,-4.131027179999999,-37.12194882
3.04,304,0.033,-0.505,0.954,151.83387,-5.2139178,20.9702628,-178.44203951999995,-4.0966497,-37.31675454
3.05,305,0.17800000000000002,-1.223,0.966,114.305121,-1.145916,66.2912406,-177.2445573,-4.0680017999999984,-37.96419708000001
3.06,306,-0.047,-0.289,0.758,93.50674559999999,2.578311,63.7129296,-176.25333996,-4.0680017999999984,-38.59445088
3.07,307,-0.129,0.472,0.557,66.4058322,3.151269,35.809875,-175.55433119999995,-4.0794609600000005,-38.94968484
3.08,308,0.042,-0.15,0.742,60.2751816,15.0687954,24.9809688,-174.92407740000004,-4.211241299999998,-39.20751594
3.09,309,0.037000000000000005,0.202,0.622,37.41415739999999,15.756345000000001,17.8189938,-174.52873638,-4.3544808,-39.40232166
3.0999999999999996,310,-0.105,-0.01,0.74,-21.9442914,14.32395,17.6471064,-174.72927167999995,-4.48626114,-39.59712738
3.11,311,-0.093,0.529,0.6509999999999999,-8.7662574,11.1153852,10.8289062,-174.8094858,-4.5836640000000015,-39.71744856
3.1199999999999997,312,-0.16,0.505,0.747,-38.961144,20.454600600000006,16.1001198,-175.19336766,-4.76701056,-39.90652470000001
3.13,313,-0.159,0.7759999999999999,0.682,-46.696077,35.9817624,10.8289062,-175.65746364,-5.10505578,-40.05549378
3.1399999999999997,314,-0.149,0.544,0.604,-25.3247436,53.11320660000001,19.9962342,-175.89810599999996,-5.60925882,-40.3075953
3.15,315,-0.228,0.91,0.57,-28.7051958,55.80610920000001,16.673077799999998,-176.15593710000005,-6.14210976,-40.53104892
3.1599999999999997,316,-0.098,0.29100000000000004,0.711,-26.0122932,49.1597964,-1.6042823999999998,-176.42522736,-6.623394479999999,-40.5654264
3.17,317,-0.134,0.23,0.7929999999999999,-27.1582092,37.757932200000006,-9.740286,-176.71170636,-7.001546759999999,-40.50240102
3.1799999999999997,318,-0.14400000000000002,0.254,0.809,-29.4500412,35.7525792,-11.0580894,-177.02683326,-7.3567807200000015,-40.4221869
3.19,319,-0.152,0.18,0.856,-37.9298196,34.4347758,-10.255948199999999,-177.42217428,-7.6948259399999985,-40.34770236
3.1999999999999997,320,-0.146,0.056,0.937,-45.9512316,30.1375908,-7.9641161999999985,-177.903459,-7.9927641,-40.29040656
3.21,321,-0.188,0.036000000000000004,1.06,-45.6074568,21.199446,-5.2712136,-178.37328456,-8.19902898,-40.25602908
3.2199999999999998,322,-0.197,0.063,1.192,-38.961144,9.8548776,-3.2085648,-178.77435516,-8.29070226,-40.23311076
3.23,323,-0.165,0.05,1.29,-30.3094782,-0.9740286,-2.2345362,-179.08375248,-8.2792431,-40.21019244
3.2399999999999998,324,-0.201,0.0,1.3230000000000002,-22.7464326,-7.5057497999999985,-1.5469866,-179.31866526000005,-8.204758559999998,-40.1930037
3.25,325,-0.17600000000000002,-0.006999999999999999,1.286,-17.761698000000006,-9.453807000000001,-1.3750992,-179.50201182,-8.107355700000001,-40.17581496
3.26,326,-0.17600000000000002,0.006,1.262,-12.7769634,-9.8548776,-1.2032118,-179.63379216,-8.00422326,-40.15862622
3.27,327,-0.179,-0.022,1.246,-9.167328,-9.969469199999999,-1.0886202,-179.73119502,-7.906820399999999,-40.14716706
3.28,328,-0.174,0.01,1.175,-6.8182002000000015,-9.3965112,-1.145916,-179.79994998,-7.80941754,-40.12997832
3.29,329,-0.156,0.028,1.104,-5.2139178,-8.5370742,-1.145916,-179.8515162,-7.72920342,-40.11851916
3.3,330,-0.168,-0.028,1.055,-5.5003968,-7.333862400000001,-1.2032118,-179.88589368,-7.66617804,-40.10706
3.31,331,-0.155,0.136,1.009,-0.9740286,-6.016058999999999,-0.9740286,-179.89735284,-7.60888224,-40.09560084
3.32,332,-0.103,-0.04,0.956,-2.3491278,-4.8701430000000006,-1.7188740000000002,-179.92600074,-7.55731602,-40.0784121
3.33,333,-0.141,0.009000000000000001,0.935,-2.0626488000000003,-5.6722842,-0.8594370000000001,-179.94318948,-7.500020219999999,-40.06695294000001
3.34,334,-0.131,-0.001,0.905,-3.724227,-4.8701430000000006,-0.9740286,-179.98329654,-7.45418358,-40.05549378
3.3499999999999996,335,-0.118,-0.062,0.8959999999999999,-3.4950437999999995,-4.9847345999999995,-1.0313244,179.93745990000005,-7.4026173600000025,-40.03830504
3.36,336,-0.131,-0.065,0.8959999999999999,-2.1199446,-4.9847345999999995,-0.572958,179.91454158,-7.35105114,-40.03257546
3.3699999999999997,337,-0.138,-0.172,0.931,-1.7188740000000002,-4.8128472,-0.6302538000000001,179.89735284,-7.305214500000001,-40.02684588
3.38,338,-0.124,-0.199,0.942,-3.6096354,-5.042030400000002,-0.4583664000000001,179.86297536,-7.25364828,-40.0211163
3.3899999999999997,339,-0.132,-0.053,0.964,-2.86479,-4.4117766,-0.572958,179.82859788,-7.20781164,-40.00965714
3.4,340,-0.126,-0.015,0.984,-3.3231564,-3.0939732,-1.0313244,179.78849082000005,-7.17916374,-39.99819798
3.4099999999999997,341,-0.123,-0.022,0.999,-4.2398892,-2.9220857999999996,-0.6302538000000001,179.74838376,-7.15051584,-39.9924684
3.42,342,-0.139,-0.029,1.002,-4.8128472,-3.4377480000000005,-0.572958,179.69681754,-7.116138359999999,-39.98673882
3.4299999999999997,343,-0.13699999999999998,-0.022,0.997,-5.5576926,-2.9220857999999996,-0.9167328,179.63952174000005,-7.0874904600000015,-39.97527966
3.44,344,-0.119,-0.024,1.0,-6.8182002000000015,-2.7501984,-1.0886202,179.57076678,-7.05884256,-39.9638205
3.4499999999999997,345,-0.122,-0.046,1.001,-7.333862400000001,-2.1772404,-0.5156622000000001,179.47336392000003,-7.03592424,-39.95809092
3.46,346,-0.124,-0.03,1.013,-7.333862400000001,-2.0053530000000004,-0.22918320000000006,179.39887937999995,-7.018735500000001,-39.95809092
3.4699999999999998,347,-0.127,-0.025,1.027,-7.7922288,-1.4896908000000002,-0.11459160000000003,179.31866526000005,-7.001546759999999,-39.95809092
3.48,348,-0.133,-0.019,1.032,-8.136003599999999,-1.145916,-0.11459160000000003,179.23845114,-6.990087599999999,-39.95236134
3.4899999999999998,349,-0.134,-0.019,1.023,-7.6776372,-1.0313244,-0.11459160000000003,179.15823702,-6.97862844,-39.95236134
3.5,350,-0.134,-0.024,1.007,-7.161975,-0.9167328,-0.057295800000000015,179.0780229,-6.972898860000001,-39.95236134
3.51,351,-0.132,-0.024,0.993,-6.8182002000000015,-1.0313244,-0.057295800000000015,179.00353836,-6.9614397000000015,-39.95236134
3.52,352,-0.13,-0.024,0.992,-6.6463128000000005,-1.145916,-0.11459160000000003,178.94051298000005,-6.94998054,-39.95236134
3.53,353,-0.131,-0.02,1.007,-6.130650599999999,-1.3178034,-0.057295800000000015,178.8774876,-6.93852138,-39.95236134
3.54,354,-0.134,-0.022,1.021,-5.5003968,-1.7761698,0.0,178.8201918,-6.92133264,-39.95236134
3.55,355,-0.133,-0.022,1.028,-5.042030400000002,-2.0626488000000003,-0.057295800000000015,178.76289599999996,-6.9041438999999984,-39.95236134
3.56,356,-0.132,-0.024,1.023,-4.9274388,-2.0626488000000003,-0.11459160000000003,178.71132977999997,-6.8812255800000015,-39.95236134
3.57,357,-0.129,-0.025,1.014,-5.042030400000002,-1.7188740000000002,-0.1718874,178.65976356,-6.86403684,-39.94663176
3.58,358,-0.129,-0.024,1.005,-5.042030400000002,-1.2032118,-0.1718874,178.60819734,-6.85257768,-39.94663176
3.59,359,-0.128,-0.025,1.0,-4.9847345999999995,-0.572958,-0.286479,178.55663112,-6.8468481,-39.94663176
3.5999999999999996,360,-0.128,-0.026,1.0,-5.1566220000000005,0.0,-0.22918320000000006,178.49933532,-6.85257768,-39.94090218
3.61,361,-0.127,-0.028,0.997,-5.443101,0.286479,-0.286479,178.44203951999995,-6.85257768,-39.94090218
3.6199999999999997,362,-0.129,-0.027000000000000003,1.002,-5.6149884000000005,0.5156622000000001,-0.4010706,178.38474372000005,-6.858307260000001,-39.9351726
3.63,363,-0.132,-0.027000000000000003,1.01,-5.6149884000000005,0.572958,-0.4010706,178.32744792,-6.86403684,-39.92944302
3.6399999999999997,364,-0.131,-0.027000000000000003,1.016,-5.443101,0.4583664000000001,-0.4010706,178.27015212,-6.86976642,-39.92944302
3.65,365,-0.132,-0.028,1.015,-5.1566220000000005,0.5156622000000001,-0.3437748,178.21285632,-6.8812255800000015,-39.92371344
3.6599999999999997,366,-0.132,-0.029,1.012,-4.7555514,0.572958,-0.3437748,178.16129009999997,-6.886955159999999,-39.91798386
3.67,367,-0.131,-0.028,1.008,-4.297185,0.5156622000000001,-0.3437748,178.12118304,-6.89268474,-39.91798386
3.6799999999999997,368,-0.131,-0.03,1.004,-3.666931200000001,0.057295800000000015,-0.22918320000000006,178.08107597999995,-6.89268474,-39.91225428
3.69,369,-0.131,-0.03,1.003,-3.0939732,-0.11459160000000003,-0.1718874,178.04669850000005,-6.89268474,-39.91225428
3.6999999999999997,370,-0.131,-0.03,1.013,-2.5210152000000003,-0.572958,-0.11459160000000003,178.02378018000005,-6.9041438999999984,-39.91225428
3.71,371,-0.134,-0.027000000000000003,1.02,-1.8334656000000005,-0.8594370000000001,-0.057295800000000015,178.00086186,-6.89268474,-39.91225428
3.7199999999999998,372,-0.135,-0.031,1.019,-1.8907613999999997,-1.0886202,0.0,177.98367312,-6.8812255800000015,-39.91225428
3.73,373,-0.133,-0.03,1.017,-1.9480572,-1.145916,-0.057295800000000015,177.96075480000005,-6.86976642,-39.91225428
3.7399999999999998,374,-0.132,-0.029,1.016,-1.5469866,-1.0886202,0.0,177.94929564,-6.858307260000001,-39.91225428
3.75,375,-0.131,-0.029,1.018,-0.7448454000000001,-1.0313244,0.0,177.9321069,-6.875496000000001,-39.91225428
3.76,376,-0.13,-0.033,1.014,-0.1718874,-0.9740286,0.0,177.9321069,-6.86403684,-39.91225428
3.77,377,-0.13,-0.032,1.013,0.3437748,-1.0886202,0.057295800000000015,177.93783648000004,-6.85257768,-39.91798386
3.78,378,-0.13,-0.034,1.014,0.9740286,-1.0886202,0.057295800000000015,177.94356606,-6.8411185199999975,-39.91798386
3.79,379,-0.131,-0.034,1.016,1.6042823999999998,-0.6302538000000001,0.11459160000000003,177.96075480000005,-6.83538894,-39.91798386
3.8,380,-0.131,-0.037000000000000005,1.018,1.8907613999999997,-0.4010706,0.11459160000000003,177.95502522,-6.85257768,-39.91798386
3.81,381,-0.13,-0.037000000000000005,1.017,1.9480572,-0.22918320000000006,0.057295800000000015,177.97794354,-6.8468481,-39.91798386
3.82,382,-0.13,-0.036000000000000004,1.016,1.7188740000000002,-0.22918320000000006,0.057295800000000015,177.99513227999995,-6.8468481,-39.91798386
3.83,383,-0.131,-0.037000000000000005,1.012,1.432395,-0.572958,0.11459160000000003,178.01232102,-6.8411185199999975,-39.92371344
3.84,384,-0.13,-0.036000000000000004,1.009,1.3750992,-0.5156622000000001,0.057295800000000015,178.02378018000005,-6.83538894,-39.92371344
3.8499999999999996,385,-0.129,-0.035,1.003,1.3750992,-0.286479,0.057295800000000015,178.00659144000005,-6.85257768,-39.92371344
3.86,386,-0.128,-0.036000000000000004,1.001,1.3750992,0.11459160000000003,0.0,178.02378018000005,-6.85257768,-39.92371344
3.8699999999999997,387,-0.129,-0.034,1.002,1.3750992,0.4583664000000001,0.0,178.03523934,-6.858307260000001,-39.92371344
3.88,388,-0.13,-0.036000000000000004,1.006,1.0886202,0.6302538000000001,0.0,178.04669850000005,-6.86403684,-39.92371344
3.8899999999999997,389,-0.13,-0.037000000000000005,1.008,0.6302538000000001,0.8021411999999999,-0.057295800000000015,178.05242808,-6.875496000000001,-39.92371344
3.9,390,-0.13,-0.036000000000000004,1.007,0.5156622000000001,0.6875496,-0.11459160000000003,178.02378018000005,-6.90987348,-39.91798386
3.9099999999999997,391,-0.131,-0.037000000000000005,1.006,0.3437748,0.572958,0.0,178.02950976,-6.9156030600000005,-39.91798386
3.92,392,-0.126,-0.036000000000000004,1.006,0.3437748,0.3437748,0.0,178.02950976,-6.92133264,-39.91798386
3.9299999999999997,393,-0.135,-0.036000000000000004,1.008,0.11459160000000003,0.22918320000000006,0.0,178.03523934,-6.92133264,-39.91798386
3.94,394,-0.13,-0.037000000000000005,1.008,0.22918320000000006,0.0,0.057295800000000015,178.03523934,-6.92133264,-39.91798386
3.9499999999999997,395,-0.129,-0.039,1.006,0.0,0.0,0.0,177.86908152,-7.018735500000001,-39.90652470000001
3.96,396,-0.133,-0.036000000000000004,1.008,-0.4010706,-0.057295800000000015,0.0,177.86908152,-7.018735500000001,-39.90652470000001
3.9699999999999998,397,-0.13,-0.038,1.011,-0.6302538000000001,-0.057295800000000015,0.0,177.85762236,-7.018735500000001,-39.90652470000001
3.98,398,-0.132,-0.038,1.01,-0.8594370000000001,-0.057295800000000015,0.0,177.85189278,-7.01300592,-39.90652470000001
3.9899999999999998,399,-0.132,-0.037000000000000005,1.007,-1.2032118,-0.1718874,0.0,177.84043362,-7.01300592,-39.90652470000001
4.0,400,-0.132,-0.038,1.003,-1.2605076000000002,-0.3437748,0.0,177.80605614,-7.03592424,-39.90652470000001
4.01,401,-0.131,-0.037000000000000005,1.0,-1.145916,-0.3437748,0.0,177.79459698,-7.030194660000001,-39.90652470000001
4.02,402,-0.131,-0.037000000000000005,1.001,-1.0886202,-0.1718874,0.0,177.78313782,-7.030194660000001,-39.91225428
4.03,403,-0.131,-0.036000000000000004,1.004,-1.2032118,-0.1718874,0.057295800000000015,177.77167866,-7.0244650800000015,-39.91225428
4.04,404,-0.132,-0.036000000000000004,1.007,-1.432395,-0.22918320000000006,0.0,177.75448992000003,-7.0244650800000015,-39.91225428
4.05,405,-0.132,-0.035,1.008,-1.4896908000000002,-0.4010706,0.0,177.7315716,-7.03592424,-39.91225428
4.06,406,-0.132,-0.036000000000000004,1.01,-1.4896908000000002,-0.4010706,0.0,177.72011244,-7.030194660000001,-39.91225428
4.07,407,-0.132,-0.037000000000000005,1.009,-1.432395,-0.4583664000000001,0.0,177.70292369999999,-7.0244650800000015,-39.91225428
4.08,408,-0.132,-0.035,1.01,-1.3750992,-0.572958,0.0,177.69146454000003,-7.018735500000001,-39.91225428
4.09,409,-0.132,-0.036000000000000004,1.011,-1.2032118,-0.7448454000000001,0.11459160000000003,177.6742758,-7.01300592,-39.91225428
4.1,410,-0.133,-0.036000000000000004,1.01,-1.0313244,-0.7448454000000001,0.057295800000000015,177.66281664000005,-7.0244650800000015,-39.91798386
4.109999999999999,411,-0.132,-0.037000000000000005,1.01,-0.9167328,-0.7448454000000001,0.0,177.65135748,-7.018735500000001,-39.91798386
4.12,412,-0.131,-0.037000000000000005,1.012,-0.9740286,-0.7448454000000001,0.057295800000000015,177.63989832,-7.01300592,-39.91798386
4.13,413,-0.132,-0.035,1.012,-0.8021411999999999,-0.7448454000000001,0.0,177.63416874,-7.001546759999999,-39.91798386
4.14,414,-0.131,-0.036000000000000004,1.012,-0.7448454000000001,-0.8021411999999999,0.0,177.62270958000005,-6.99581718,-39.91798386
4.1499999999999995,415,-0.131,-0.036000000000000004,1.011,-0.6302538000000001,-0.6875496,0.0,177.61125041999995,-7.01300592,-39.92371344
4.16,416,-0.131,-0.037000000000000005,1.01,-0.4583664000000001,-0.572958,0.057295800000000015,177.60552084,-7.00727634,-39.92371344
4.17,417,-0.131,-0.038,1.009,-0.22918320000000006,-0.5156622000000001,0.057295800000000015,177.60552084,-7.001546759999999,-39.92371344
4.18,418,-0.13,-0.038,1.003,-0.22918320000000006,-0.4010706,0.057295800000000015,177.60552084,-6.99581718,-39.92371344
4.1899999999999995,419,-0.13,-0.038,1.004,0.0,-0.4583664000000001,0.057295800000000015,177.60552084,-6.990087599999999,-39.92371344
4.2,420,-0.131,-0.037000000000000005,1.008,0.22918320000000006,-0.6302538000000001,0.11459160000000003,177.5883321,-7.01300592,-39.92944302
4.21,421,-0.132,-0.037000000000000005,1.011,0.5156622000000001,-0.6302538000000001,0.057295800000000015,177.59406167999995,-7.00727634,-39.92944302
4.22,422,-0.132,-0.037000000000000005,1.012,0.6302538000000001,-0.5156622000000001,0.11459160000000003,177.59979126000005,-7.001546759999999,-39.92944302
4.2299999999999995,423,-0.131,-0.037000000000000005,1.016,0.6875496,-0.4583664000000001,0.1718874,177.61125041999995,-6.99581718,-39.9351726
4.24,424,-0.131,-0.038,1.012,0.572958,-0.22918320000000006,0.057295800000000015,177.61697999999996,-6.99581718,-39.9351726
4.25,425,-0.13,-0.038,1.003,0.3437748,-0.11459160000000003,0.11459160000000003,177.5883321,-7.0244650800000015,-39.9351726
4.26,426,-0.131,-0.038,1.005,0.4583664000000001,-0.3437748,0.1718874,177.59406167999995,-7.0244650800000015,-39.9351726
4.27,427,-0.132,-0.037000000000000005,1.009,0.6875496,-0.5156622000000001,0.11459160000000003,177.59979126000005,-7.018735500000001,-39.9351726
4.28,428,-0.131,-0.038,1.009,0.9167328,-0.4583664000000001,0.1718874,177.61125041999995,-7.01300592,-39.94090218
4.29,429,-0.13,-0.039,1.01,1.145916,-0.11459160000000003,0.11459160000000003,177.62270958000005,-7.01300592,-39.94090218
4.3,430,-0.131,-0.039,1.014,1.2032118,-0.057295800000000015,0.22918320000000006,177.62270958000005,-7.030194660000001,-39.94090218
4.31,431,-0.131,-0.039,1.016,0.8021411999999999,-0.286479,0.11459160000000003,177.63416874,-7.0244650800000015,-39.94663176
4.32,432,-0.132,-0.038,1.014,0.286479,-0.6302538000000001,0.11459160000000003,177.63416874,-7.018735500000001,-39.94663176
4.33,433,-0.131,-0.038,1.012,0.1718874,-0.9167328,0.11459160000000003,177.63989832,-7.00727634,-39.94663176
4.34,434,-0.131,-0.039,1.008,0.22918320000000006,-0.7448454000000001,0.11459160000000003,177.63989832,-7.001546759999999,-39.94663176
4.35,435,-0.131,-0.039,1.004,0.057295800000000015,-0.5156622000000001,0.11459160000000003,177.61125041999995,-7.03592424,-39.95236134
4.36,436,-0.13,-0.037000000000000005,1.003,-0.057295800000000015,-0.3437748,0.057295800000000015,177.61125041999995,-7.03592424,-39.95236134
4.37,437,-0.131,-0.038,1.004,0.0,-0.1718874,0.057295800000000015,177.61125041999995,-7.030194660000001,-39.95236134
4.38,438,-0.131,-0.038,1.004,0.0,-0.22918320000000006,0.11459160000000003,177.61125041999995,-7.030194660000001,-39.95236134
4.39,439,-0.131,-0.038,1.006,0.0,-0.3437748,0.11459160000000003,177.61125041999995,-7.0244650800000015,-39.95809092
4.3999999999999995,440,-0.13,-0.038,1.007,-0.057295800000000015,-0.286479,0.057295800000000015,177.58260252,-7.05311298,-39.95236134
4.41,441,-0.131,-0.038,1.009,0.0,-0.22918320000000006,0.11459160000000003,177.58260252,-7.0473833999999975,-39.95809092
4.42,442,-0.131,-0.038,1.011,0.0,-0.22918320000000006,0.1718874,177.58260252,-7.0473833999999975,-39.95809092
4.43,443,-0.132,-0.037000000000000005,1.011,0.0,-0.286479,0.057295800000000015,177.58260252,-7.0416538200000005,-39.95809092
4.4399999999999995,444,-0.131,-0.037000000000000005,1.012,0.22918320000000006,-0.3437748,0.057295800000000015,177.58260252,-7.03592424,-39.95809092
4.45,445,-0.132,-0.038,1.01,0.11459160000000003,-0.3437748,0.11459160000000003,177.5596842,-7.0874904600000015,-39.9638205
4.46,446,-0.131,-0.037000000000000005,1.011,0.1718874,-0.3437748,0.11459160000000003,177.56541378,-7.08176088,-39.9638205
4.47,447,-0.131,-0.037000000000000005,1.011,0.0,-0.286479,0.057295800000000015,177.56541378,-7.08176088,-39.9638205
4.4799999999999995,448,-0.13,-0.037000000000000005,1.008,-0.057295800000000015,-0.286479,0.0,177.56541378,-7.076031300000001,-39.96955008
4.49,449,-0.131,-0.037000000000000005,1.006,0.0,-0.4010706,0.11459160000000003,177.56541378,-7.0703017200000025,-39.96955008
4.5,450,-0.131,-0.038,1.007,0.057295800000000015,-0.4583664000000001,0.057295800000000015,177.54822503999995,-7.0874904600000015,-39.96955008
4.51,451,-0.13,-0.038,1.007,0.11459160000000003,-0.3437748,0.11459160000000003,177.55395462,-7.08176088,-39.96955008
4.52,452,-0.13,-0.038,1.009,0.286479,-0.4010706,0.11459160000000003,177.55395462,-7.08176088,-39.96955008
4.53,453,-0.131,-0.037000000000000005,1.01,0.286479,-0.286479,0.1718874,177.5596842,-7.076031300000001,-39.97527966
4.54,454,-0.131,-0.037000000000000005,1.009,0.22918320000000006,-0.4010706,0.057295800000000015,177.5596842,-7.0703017200000025,-39.97527966
4.55,455,-0.13,-0.038,1.009,0.22918320000000006,-0.4583664000000001,0.11459160000000003,177.55395462,-7.0874904600000015,-39.97527966
4.56,456,-0.131,-0.038,1.009,0.11459160000000003,-0.3437748,0.057295800000000015,177.5596842,-7.08176088,-39.97527966
4.57,457,-0.131,-0.038,1.009,0.0,0.0,0.0,177.5596842,-7.08176088,-39.97527966
4.58,458,-0.131,-0.038,1.009,0.11459160000000003,0.0,0.0,177.5596842,-7.08176088,-39.98100924
4.59,459,-0.131,-0.037000000000000005,1.011,0.0,0.11459160000000003,0.0,177.5596842,-7.0874904600000015,-39.98100924
4.6,460,-0.131,-0.038,1.011,-0.057295800000000015,0.057295800000000015,0.0,177.54249546,-7.12186794,-39.98100924
4.61,461,-0.131,-0.037000000000000005,1.01,-0.057295800000000015,0.057295800000000015,0.0,177.54249546,-7.12186794,-39.98100924
4.62,462,-0.13,-0.037000000000000005,1.009,0.0,0.057295800000000015,0.0,177.54249546,-7.12759752,-39.98100924
4.63,463,-0.131,-0.038,1.008,0.0,0.11459160000000003,0.0,177.54249546,-7.12759752,-39.98100924
4.64,464,-0.131,-0.037000000000000005,1.008,0.0,0.22918320000000006,-0.057295800000000015,177.54249546,-7.12759752,-39.98100924
4.6499999999999995,465,-0.131,-0.037000000000000005,1.01,0.0,0.286479,-0.057295800000000015,177.5310363,-7.161975,-39.98100924
4.66,466,-0.131,-0.037000000000000005,1.01,0.057295800000000015,0.22918320000000006,0.0,177.53676588000005,-7.161975,-39.98100924
4.67,467,-0.131,-0.038,1.008,0.22918320000000006,0.057295800000000015,0.0,177.53676588000005,-7.161975,-39.98100924
4.68,468,-0.131,-0.037000000000000005,1.009,0.11459160000000003,0.057295800000000015,0.0,177.53676588000005,-7.167704579999999,-39.98100924
4.6899999999999995,469,-0.131,-0.038,1.008,0.057295800000000015,0.11459160000000003,0.0,177.53676588000005,-7.167704579999999,-39.98100924
4.7,470,-0.131,-0.038,1.008,0.1718874,0.057295800000000015,-0.057295800000000015,177.51957714,-7.20208206,-39.98100924
4.71,471,-0.132,-0.037000000000000005,1.009,0.286479,0.0,0.0,177.52530672,-7.20208206,-39.98100924
4.72,472,-0.132,-0.038,1.01,0.3437748,0.0,0.0,177.52530672,-7.20208206,-39.98100924
4.7299999999999995,473,-0.133,-0.038,1.012,0.1718874,0.0,0.0,177.5310363,-7.20208206,-39.98100924
4.74,474,-0.132,-0.036000000000000004,1.011,0.0,0.22918320000000006,0.0,177.5310363,-7.20781164,-39.97527966
4.75,475,-0.131,-0.037000000000000005,1.008,-0.1718874,0.057295800000000015,0.0,177.51957714,-7.23645954,-39.98100924
4.76,476,-0.132,-0.036000000000000004,1.008,-0.1718874,-0.11459160000000003,-0.057295800000000015,177.51957714,-7.2307299600000015,-39.98100924
4.77,477,-0.132,-0.036000000000000004,1.01,-0.1718874,-0.11459160000000003,0.0,177.51384756,-7.2307299600000015,-39.98100924
4.78,478,-0.132,-0.038,1.01,-0.057295800000000015,0.0,0.0,177.51384756,-7.2307299600000015,-39.98100924
4.79,479,-0.131,-0.039,1.009,0.0,0.286479,0.0,177.51384756,-7.23645954,-39.98100924
4.8,480,-0.132,-0.038,1.013,-0.1718874,0.1718874,0.0,177.5023884,-7.25364828,-39.98100924
4.81,481,-0.133,-0.038,1.013,-0.5156622000000001,0.0,0.0,177.49665882,-7.2479187,-39.98100924
4.82,482,-0.131,-0.038,1.011,-0.6302538000000001,-0.4010706,0.0,177.49092924,-7.2479187,-39.98100924
4.83,483,-0.132,-0.037000000000000005,1.008,-0.5156622000000001,-0.4010706,0.0,177.48519966,-7.242189120000001,-39.98100924
4.84,484,-0.13,-0.039,1.006,-0.5156622000000001,-0.11459160000000003,0.0,177.47947008,-7.242189120000001,-39.98100924
4.85,485,-0.13,-0.038,1.006,-0.4583664000000001,0.0,-0.057295800000000015,177.46228134,-7.25364828,-39.97527966
4.86,486,-0.13,-0.038,1.007,-0.286479,0.0,-0.057295800000000015,177.45655176,-7.2479187,-39.97527966
4.87,487,-0.132,-0.038,1.006,-0.22918320000000006,0.0,0.0,177.45655176,-7.25364828,-39.97527966
4.88,488,-0.132,-0.038,1.009,-0.22918320000000006,0.057295800000000015,0.0,177.45082218,-7.25364828,-39.97527966
4.89,489,-0.131,-0.039,1.008,-0.1718874,0.0,0.0,177.45082218,-7.25364828,-39.97527966
4.8999999999999995,490,-0.132,-0.038,1.01,-0.1718874,0.0,0.0,177.42790386,-7.288025760000001,-39.97527966
4.91,491,-0.132,-0.037000000000000005,1.011,-0.11459160000000003,-0.057295800000000015,0.0,177.42790386,-7.288025760000001,-39.97527966
4.92,492,-0.132,-0.038,1.01,-0.057295800000000015,-0.057295800000000015,0.0,177.42790386,-7.288025760000001,-39.97527966
4.93,493,-0.132,-0.038,1.01,-0.057295800000000015,-0.057295800000000015,0.0,177.42790386,-7.288025760000001,-39.97527966
4.9399999999999995,494,-0.131,-0.038,1.01,-0.1718874,-0.057295800000000015,0.0,177.42217428,-7.288025760000001,-39.97527966
4.95,495,-0.131,-0.038,1.009,-0.286479,-0.1718874,-0.057295800000000015,177.42217428,-7.29375534,-39.97527966
4.96,496,-0.132,-0.038,1.009,-0.22918320000000006,-0.1718874,-0.057295800000000015,177.4164447,-7.29375534,-39.97527966
4.97,497,-0.131,-0.039,1.009,-0.3437748,-0.22918320000000006,0.0,177.4164447,-7.29375534,-39.97527966
4.9799999999999995,498,-0.131,-0.038,1.008,-0.3437748,-0.1718874,0.0,177.41071512,-7.288025760000001,-39.97527966
4.99,499,-0.131,-0.037000000000000005,1.009,-0.3437748,-0.057295800000000015,0.0,177.40498554,-7.288025760000001,-39.97527966
5.0,500,-0.132,-0.038,1.008,-0.22918320000000006,-0.057295800000000015,0.0,177.39925596,-7.29948492,-39.97527966
5.01,501,-0.132,-0.039,1.006,-0.057295800000000015,-0.057295800000000015,0.0,177.39925596,-7.29948492,-39.97527966
5.02,502,-0.13,-0.039,1.008,0.0,0.0,0.0,177.39925596,-7.29948492,-39.97527966
5.03,503,-0.131,-0.039,1.01,0.0,0.057295800000000015,0.0,177.39925596,-7.29948492,-39.97527966
5.04,504,-0.132,-0.039,1.01,0.0,-0.057295800000000015,0.0,177.39925596,-7.29948492,-39.97527966
5.05,505,-0.132,-0.039,1.011,-0.057295800000000015,-0.1718874,0.0,177.38206722,-7.31094408,-39.97527966
5.06,506,-0.131,-0.039,1.011,0.0,-0.11459160000000003,0.0,177.38206722,-7.305214500000001,-39.97527966
5.07,507,-0.132,-0.04,1.012,0.057295800000000015,-0.11459160000000003,0.0,177.38206722,-7.305214500000001,-39.97527966
5.08,508,-0.131,-0.039,1.011,0.11459160000000003,-0.057295800000000015,0.0,177.38206722,-7.305214500000001,-39.97527966
5.09,509,-0.131,-0.039,1.01,0.057295800000000015,-0.057295800000000015,0.0,177.38779680000005,-7.305214500000001,-39.97527966
5.1,510,-0.131,-0.039,1.008,0.0,0.0,0.057295800000000015,177.38206722,-7.31094408,-39.97527966
5.11,511,-0.132,-0.039,1.007,0.0,-0.057295800000000015,0.057295800000000015,177.38206722,-7.31094408,-39.97527966
5.12,512,-0.131,-0.038,1.009,0.0,-0.057295800000000015,0.0,177.38206722,-7.31094408,-39.97527966
5.13,513,-0.131,-0.039,1.009,0.0,-0.057295800000000015,0.0,177.38206722,-7.31094408,-39.97527966
5.14,514,-0.131,-0.039,1.008,-0.057295800000000015,0.0,0.0,177.37633764,-7.31094408,-39.97527966
5.1499999999999995,515,-0.131,-0.039,1.008,0.0,0.0,0.0,177.36487848,-7.3166736599999975,-39.97527966
5.16,516,-0.131,-0.039,1.009,0.0,0.0,0.0,177.36487848,-7.3166736599999975,-39.97527966
5.17,517,-0.131,-0.039,1.01,0.0,0.0,0.0,177.36487848,-7.3166736599999975,-39.97527966
5.18,518,-0.131,-0.04,1.01,0.0,0.0,0.0,177.36487848,-7.3166736599999975,-39.97527966
5.1899999999999995,519,-0.132,-0.04,1.011,0.11459160000000003,0.0,0.0,177.36487848,-7.3166736599999975,-39.97527966
5.2,520,-0.131,-0.039,1.01,0.11459160000000003,0.0,0.0,177.35914889999995,-7.333862399999999,-39.97527966
5.21,521,-0.132,-0.04,1.009,0.057295800000000015,0.11459160000000003,0.0,177.35914889999995,-7.333862399999999,-39.97527966
5.22,522,-0.132,-0.039,1.009,0.057295800000000015,0.0,0.0,177.35914889999995,-7.333862399999999,-39.97527966
5.2299999999999995,523,-0.131,-0.039,1.008,0.057295800000000015,-0.057295800000000015,0.0,177.35914889999995,-7.333862399999999,-39.97527966
5.24,524,-0.132,-0.039,1.01,0.0,0.0,0.0,177.35914889999995,-7.333862399999999,-39.97527966
5.25,525,-0.132,-0.039,1.01,-0.057295800000000015,0.1718874,0.0,177.35914889999995,-7.34532156,-39.97527966
5.26,526,-0.131,-0.039,1.008,-0.22918320000000006,0.286479,0.0,177.35341932,-7.35105114,-39.97527966
5.27,527,-0.132,-0.039,1.007,-0.11459160000000003,0.057295800000000015,0.0,177.35341932,-7.35105114,-39.97527966
5.28,528,-0.132,-0.039,1.008,0.0,0.0,0.0,177.35341932,-7.35105114,-39.97527966
5.29,529,-0.131,-0.039,1.008,0.11459160000000003,0.22918320000000006,0.0,177.35341932,-7.35105114,-39.97527966
5.3,530,-0.131,-0.04,1.008,0.3437748,0.3437748,0.0,177.35914889999995,-7.3625102999999985,-39.97527966
5.31,531,-0.132,-0.04,1.011,0.286479,0.3437748,0.0,177.35914889999995,-7.3625102999999985,-39.97527966
5.32,532,-0.132,-0.04,1.016,-0.11459160000000003,0.0,0.0,177.35914889999995,-7.3625102999999985,-39.97527966
5.33,533,-0.133,-0.04,1.017,-0.22918320000000006,-0.3437748,0.0,177.35914889999995,-7.3567807200000015,-39.97527966
5.34,534,-0.13,-0.039,1.012,-0.1718874,-0.3437748,0.0,177.35341932,-7.3567807200000015,-39.97527966
5.35,535,-0.13,-0.041,1.007,-0.286479,0.0,0.0,177.34196016,-7.3567807200000015,-39.96955008
5.36,536,-0.131,-0.04,1.007,-0.22918320000000006,0.11459160000000003,0.0,177.34196016,-7.3567807200000015,-39.96955008
5.37,537,-0.131,-0.04,1.005,0.0,0.11459160000000003,0.0,177.34196016,-7.3567807200000015,-39.97527966
5.38,538,-0.132,-0.04,1.005,0.0,0.057295800000000015,0.0,177.34196016,-7.3567807200000015,-39.97527966
5.39,539,-0.132,-0.04,1.006,0.0,0.0,0.0,177.34196016,-7.3567807200000015,-39.97527966
5.3999999999999995,540,-0.131,-0.041,1.006,0.0,-0.057295800000000015,0.0,177.30758268000002,-7.3625102999999985,-39.96955008
5.41,541,-0.131,-0.039,1.007,0.0,0.0,-0.057295800000000015,177.30758268000002,-7.3625102999999985,-39.96955008
5.42,542,-0.131,-0.04,1.01,-0.057295800000000015,0.057295800000000015,-0.057295800000000015,177.3018531,-7.3625102999999985,-39.96955008
5.43,543,-0.131,-0.04,1.01,0.0,0.0,0.0,177.30758268000002,-7.3625102999999985,-39.96955008
5.4399999999999995,544,-0.131,-0.041,1.011,0.0,0.0,0.0,177.3018531,-7.3625102999999985,-39.96955008
5.45,545,-0.132,-0.041,1.009,0.0,0.0,0.0,177.28466436000005,-7.36823988,-39.9638205
5.46,546,-0.132,-0.041,1.011,0.0,-0.057295800000000015,0.0,177.28466436000005,-7.36823988,-39.9638205
5.47,547,-0.132,-0.041,1.012,0.057295800000000015,-0.11459160000000003,0.0,177.29039394,-7.36823988,-39.9638205
5.4799999999999995,548,-0.131,-0.04,1.009,0.057295800000000015,-0.057295800000000015,0.0,177.29039394,-7.3625102999999985,-39.9638205
5.49,549,-0.132,-0.041,1.009,0.0,-0.11459160000000003,0.0,177.29039394,-7.3625102999999985,-39.9638205
5.5,550,-0.131,-0.04,1.009,0.0,-0.11459160000000003,-0.057295800000000015,177.28466436000005,-7.3567807200000015,-39.9638205
5.51,551,-0.131,-0.041,1.007,0.0,-0.11459160000000003,0.0,177.28466436000005,-7.3567807200000015,-39.9638205
5.52,552,-0.131,-0.04,1.007,0.0,-0.057295800000000015,-0.057295800000000015,177.28466436000005,-7.3567807200000015,-39.9638205
5.53,553,-0.131,-0.041,1.006,0.11459160000000003,0.0,0.0,177.28466436000005,-7.3567807200000015,-39.9638205
5.54,554,-0.131,-0.041,1.008,0.11459160000000003,0.0,0.0,177.29039394,-7.3567807200000015,-39.9638205
5.55,555,-0.131,-0.042,1.01,0.1718874,0.0,0.0,177.27320519999995,-7.3625102999999985,-39.95809092
5.56,556,-0.131,-0.041,1.011,0.0,-0.057295800000000015,0.0,177.27320519999995,-7.3567807200000015,-39.95809092
5.57,557,-0.132,-0.041,1.012,0.0,-0.11459160000000003,0.0,177.27320519999995,-7.3567807200000015,-39.95809092
5.58,558,-0.132,-0.042,1.009,0.057295800000000015,-0.22918320000000006,0.0,177.27320519999995,-7.3567807200000015,-39.9638205
5.59,559,-0.13,-0.041,1.007,0.0,-0.057295800000000015,0.0,177.27320519999995,-7.3567807200000015,-39.9638205
5.6,560,-0.131,-0.042,1.009,0.0,0.057295800000000015,0.0,177.26174604,-7.3567807200000015,-39.95809092
5.61,561,-0.131,-0.042,1.01,0.057295800000000015,0.0,0.0,177.26747562,-7.3567807200000015,-39.95809092
5.62,562,-0.131,-0.042,1.01,0.0,0.0,0.0,177.26747562,-7.3567807200000015,-39.95809092
5.63,563,-0.131,-0.041,1.008,-0.11459160000000003,0.057295800000000015,0.057295800000000015,177.26747562,-7.3567807200000015,-39.95809092
5.64,564,-0.132,-0.041,1.007,-0.11459160000000003,0.057295800000000015,0.0,177.26174604,-7.3567807200000015,-39.95809092
5.6499999999999995,565,-0.131,-0.041,1.007,-0.11459160000000003,0.057295800000000015,0.0,177.25601646,-7.36823988,-39.95809092
5.66,566,-0.131,-0.041,1.008,0.0,0.1718874,0.057295800000000015,177.25601646,-7.36823988,-39.95809092
5.67,567,-0.13,-0.041,1.007,-0.057295800000000015,0.11459160000000003,0.0,177.25601646,-7.37396946,-39.95809092
5.68,568,-0.132,-0.04,1.009,0.0,0.057295800000000015,0.0,177.25601646,-7.37396946,-39.95809092
5.6899999999999995,569,-0.132,-0.04,1.01,0.057295800000000015,-0.057295800000000015,0.0,177.25601646,-7.37396946,-39.95809092
5.7,570,-0.132,-0.041,1.009,0.11459160000000003,-0.11459160000000003,0.0,177.25028688,-7.37396946,-39.95809092
5.71,571,-0.131,-0.041,1.008,0.057295800000000015,0.057295800000000015,0.0,177.25028688,-7.37969904,-39.95809092
5.72,572,-0.13,-0.041,1.009,0.057295800000000015,0.11459160000000003,0.0,177.25601646,-7.37969904,-39.95809092
5.7299999999999995,573,-0.131,-0.042,1.008,0.11459160000000003,0.11459160000000003,0.0,177.25601646,-7.37969904,-39.95809092
5.74,574,-0.131,-0.041,1.01,0.11459160000000003,0.057295800000000015,0.0,177.25601646,-7.37969904,-39.95809092
5.75,575,-0.132,-0.041,1.011,0.22918320000000006,0.057295800000000015,0.0,177.25028688,-7.385428619999999,-39.95809092
5.76,576,-0.132,-0.042,1.009,0.1718874,0.057295800000000015,0.0,177.25028688,-7.385428619999999,-39.95809092
5.77,577,-0.131,-0.041,1.007,0.11459160000000003,0.057295800000000015,0.0,177.25028688,-7.385428619999999,-39.95809092
5.78,578,-0.131,-0.042,1.01,0.057295800000000015,0.11459160000000003,0.0,177.25601646,-7.3911582,-39.95809092
5.79,579,-0.131,-0.042,1.008,0.0,0.3437748,0.0,177.25601646,-7.3911582,-39.95809092
5.8,580,-0.131,-0.041,1.007,-0.11459160000000003,0.22918320000000006,0.0,177.2445573,-7.3911582,-39.95809092
5.81,581,-0.132,-0.041,1.006,-0.057295800000000015,0.0,0.0,177.2445573,-7.3911582,-39.95809092
5.82,582,-0.131,-0.042,1.008,0.057295800000000015,-0.11459160000000003,0.0,177.2445573,-7.385428619999999,-39.95809092
5.83,583,-0.131,-0.043,1.008,0.286479,0.057295800000000015,0.0,177.25028688,-7.3911582,-39.95809092
5.84,584,-0.13,-0.043,1.007,0.5156622000000001,0.1718874,0.0,177.25601646,-7.3911582,-39.95809092
5.85,585,-0.132,-0.043,1.011,0.4583664000000001,0.057295800000000015,0.057295800000000015,177.25601646,-7.3911582,-39.95809092
5.86,586,-0.133,-0.043,1.015,0.057295800000000015,-0.057295800000000015,0.0,177.25601646,-7.3911582,-39.95809092
5.87,587,-0.132,-0.043,1.014,-0.057295800000000015,-0.5156622000000001,0.0,177.25601646,-7.385428619999999,-39.95809092
5.88,588,-0.131,-0.042,1.013,-0.057295800000000015,-0.4583664000000001,0.0,177.25601646,-7.37969904,-39.95809092
5.89,589,-0.131,-0.043,1.009,-0.1718874,-0.11459160000000003,0.0,177.25028688,-7.37969904,-39.95809092
5.8999999999999995,590,-0.13,-0.044,1.006,-0.22918320000000006,0.11459160000000003,0.0,177.23309813999995,-7.385428619999999,-39.95809092
5.91,591,-0.131,-0.042,1.005,0.057295800000000015,0.1718874,0.0,177.23309813999995,-7.385428619999999,-39.95809092
5.92,592,-0.131,-0.042,1.005,0.0,0.22918320000000006,0.0,177.23309813999995,-7.385428619999999,-39.95809092
5.93,593,-0.132,-0.042,1.005,0.11459160000000003,0.057295800000000015,0.0,177.23309813999995,-7.385428619999999,-39.95809092
5.9399999999999995,594,-0.13,-0.041,1.006,0.0,0.0,0.057295800000000015,177.23309813999995,-7.3911582,-39.95809092
5.95,595,-0.131,-0.042,1.007,0.1718874,0.11459160000000003,0.0,177.23309813999995,-7.3911582,-39.95809092
5.96,596,-0.132,-0.041,1.01,0.286479,0.057295800000000015,0.0,177.23309813999995,-7.3911582,-39.95809092
5.97,597,-0.131,-0.041,1.011,0.286479,0.057295800000000015,0.0,177.23882772,-7.3911582,-39.95809092
5.9799999999999995,598,-0.132,-0.042,1.011,0.286479,0.0,0.0,177.23882772,-7.3911582,-39.95809092
5.99,599,-0.132,-0.042,1.011,0.22918320000000006,0.0,0.0,177.2445573,-7.3911582,-39.95809092
6.0,600,-0.131,-0.041,1.01,0.1718874,0.0,0.0,177.2445573,-7.3911582,-39.95809092
6.01,601,-0.132,-0.041,1.01,0.1718874,0.057295800000000015,0.0,177.2445573,-7.3911582,-39.95809092
6.02,602,-0.132,-0.041,1.01,0.1718874,0.0,0.0,177.2445573,-7.3911582,-39.95809092
6.03,603,-0.131,-0.043,1.009,0.286479,-0.1718874,0.0,177.25028688,-7.3911582,-39.95809092
6.04,604,-0.132,-0.042,1.01,0.1718874,-0.057295800000000015,0.0,177.25028688,-7.3911582,-39.95809092
6.05,605,-0.131,-0.041,1.009,0.057295800000000015,0.0,0.0,177.2445573,-7.385428619999999,-39.95809092
