TimeStamp(s),FrameCounter,AccX,AccY,AccZ,GyrX,GyrY,GyrZ,EulerX,EulerY,EulerZ
0.01,1,-0.028999999999999998,-1.0090000000000001,0.069,1.145916,1.2032118,-0.3437748,91.42117848,-0.8250595199999999,-18.18568692
0.02,2,-0.039,-1.002,0.076,-0.2291832000000001,0.0,0.0,91.4154489,-0.8250595199999999,-18.18568692
0.03,3,-0.04,-1.0,0.076,-0.286479,0.057295800000000015,0.0,91.4154489,-0.8250595199999999,-18.18568692
0.04,4,-0.039,-0.9990000000000001,0.076,-0.3437748,0.11459160000000004,-0.057295800000000015,91.40971932,-0.8250595199999999,-18.17995734
0.05,5,-0.036000000000000004,-0.998,0.073,-0.40107059999999994,0.057295800000000015,-0.286479,91.51285176,-0.89381448,-18.17422776
0.060000000000000005,6,-0.035,-0.998,0.071,-0.4583664000000001,0.0,-0.3437748,91.50712218,-0.89381448,-18.17422776
0.06999999999999999,7,-0.033,-0.9990000000000001,0.069,-0.40107059999999994,-0.1718874,-0.4583664000000001,91.5013926,-0.8880849000000001,-18.17422776
0.08,8,-0.033,-0.9990000000000001,0.07200000000000001,-0.1718874,-0.572958,-0.4583664000000001,91.5013926,-0.8823553199999999,-18.17995734
0.09,9,-0.035,-1.0,0.073,-0.11459160000000004,-0.6302538000000001,-0.2291832000000001,91.5013926,-0.87662574,-18.18568692
0.09999999999999999,10,-0.037000000000000005,-1.001,0.073,-0.1718874,-0.6302538000000001,-0.11459160000000004,91.59879546,-0.9453807,-18.18568692
0.11,11,-0.038,-1.002,0.073,-0.057295800000000015,-0.5156622000000001,-0.057295800000000015,91.59879546,-0.9453807,-18.18568692
0.12,12,-0.036000000000000004,-1.005,0.07400000000000001,0.0,-0.1718874,-0.11459160000000004,91.59879546,-0.9453807,-18.191416500000006
0.13,13,-0.036000000000000004,-1.0070000000000001,0.073,-0.1718874,0.11459160000000004,-0.2291832000000001,91.59306588,-0.9453807,-18.191416500000006
0.14,14,-0.036000000000000004,-1.01,0.073,-0.1718874,0.286479,-0.1718874,91.59306588,-0.93965112,-18.18568692
0.15000000000000002,15,-0.034,-1.012,0.075,-0.11459160000000004,0.1718874,-0.1718874,91.74203496,-1.0313244000000001,-18.17995734
0.16,16,-0.034,-1.012,0.076,-0.11459160000000004,-0.057295800000000015,-0.2291832000000001,91.74203496,-1.0313244000000001,-18.17995734
0.17,17,-0.032,-1.01,0.077,-0.2291832000000001,-0.1718874,-0.2291832000000001,91.74203496,-1.0255948199999998,-18.17995734
0.18000000000000002,18,-0.03,-1.0090000000000001,0.077,-0.3437748,-0.286479,-0.286479,91.73630538,-1.0255948199999998,-18.18568692
0.19,19,-0.028999999999999998,-1.0090000000000001,0.077,-0.40107059999999994,-0.40107059999999994,-0.1718874,91.7305758,-1.01986524,-18.18568692
0.2,20,-0.027999999999999997,-1.01,0.076,-0.4583664000000001,-0.40107059999999994,-0.11459160000000004,91.82224908,-1.0313244000000001,-18.20860524
0.21000000000000002,21,-0.03,-1.0090000000000001,0.076,-0.6302538000000001,-0.3437748,-0.11459160000000004,91.8165195,-1.0313244000000001,-18.20860524
0.22,22,-0.033,-1.006,0.077,-0.572958,-0.4583664000000001,-0.1718874,91.81078992,-1.0313244000000001,-18.21433482
0.23,23,-0.033,-1.004,0.077,-0.572958,-0.3437748,-0.2291832000000001,91.80506034,-1.0255948199999998,-18.2200644
0.24000000000000002,24,-0.033,-1.004,0.076,-0.572958,-0.286479,-0.286479,91.79933076,-1.0255948199999998,-18.2200644
0.25,25,-0.032,-1.004,0.075,-0.6302538000000001,-0.2291832000000001,-0.3437748,91.85662656,-1.04851314,-18.22579398
0.26,26,-0.032,-1.003,0.07200000000000001,-0.5156622000000001,-0.1718874,-0.286479,91.85089698,-1.04851314,-18.22579398
0.27,27,-0.03,-1.002,0.075,-0.40107059999999994,-0.3437748,-0.286479,91.85089698,-1.04278356,-18.23152356
0.28,28,-0.028999999999999998,-1.0,0.076,-0.40107059999999994,-0.5156622000000001,-0.286479,91.8451674,-1.04278356,-18.23725314
0.29000000000000004,29,-0.028999999999999998,-0.998,0.076,-0.2291832000000001,-0.572958,-0.2291832000000001,91.8451674,-1.03705398,-18.24298272
0.3,30,-0.03,-0.9990000000000001,0.073,-0.2291832000000001,-0.6875496,-0.286479,91.89673362,-1.05424272,-18.25444188
0.31,31,-0.031,-1.0,0.075,-0.2291832000000001,-0.7448454000000001,-0.11459160000000004,91.89673362,-1.05424272,-18.26017146
0.32,32,-0.031,-1.002,0.076,-0.11459160000000004,-0.9167328000000001,-0.11459160000000004,91.89100404,-1.04851314,-18.27163062
0.33,33,-0.033,-1.004,0.075,0.0,-0.8594370000000001,-0.057295800000000015,91.89100404,-1.04851314,-18.2773602
0.34,34,-0.035,-1.004,0.07400000000000001,0.0,-0.8594370000000001,-0.1718874,91.89100404,-1.04851314,-18.28881936
0.35000000000000003,35,-0.035,-1.006,0.076,-0.057295800000000015,-0.7448454000000001,-0.2291832000000001,91.97121816,-1.08289062,-18.29454894
0.36000000000000004,36,-0.034,-1.006,0.079,-0.1718874,-0.7448454000000001,-0.1718874,91.96548857999998,-1.07716104,-18.3060081
0.37,37,-0.034,-1.005,0.077,-0.3437748,-0.6875496,-0.3437748,91.96548857999998,-1.07716104,-18.31173768
0.38,38,-0.033,-1.004,0.075,-0.40107059999999994,-0.5156622000000001,-0.286479,91.95975899999999,-1.07143146,-18.31746726
0.39,39,-0.033,-1.003,0.07400000000000001,-0.40107059999999994,-0.40107059999999994,-0.286479,91.95402942,-1.06570188,-18.31746726
0.4,40,-0.033,-1.002,0.07400000000000001,-0.3437748,-0.40107059999999994,-0.11459160000000004,92.03997312,-1.12299768,-18.32319684
0.41000000000000003,41,-0.035,-1.0,0.075,-0.1718874,-0.4583664000000001,0.0,92.03997312,-1.12299768,-18.32319684
0.42000000000000004,42,-0.035,-0.998,0.07400000000000001,0.0,-0.286479,0.0,92.03997312,-1.12299768,-18.32892642
0.43,43,-0.035,-0.9990000000000001,0.073,0.40107059999999994,0.0,0.1718874,92.0457027,-1.12299768,-18.32892642
0.44,44,-0.036000000000000004,-1.001,0.076,0.40107059999999994,0.0,0.2291832000000001,92.0457027,-1.12299768,-18.32892642
0.45,45,-0.036000000000000004,-1.003,0.08,0.2291832000000001,0.057295800000000015,0.2291832000000001,92.1889422,-1.19748222,-18.32892642
0.46,46,-0.035,-1.0070000000000001,0.079,0.0,0.1718874,0.286479,92.1889422,-1.2032117999999998,-18.32319684
0.47000000000000003,47,-0.034,-1.01,0.076,-0.057295800000000015,0.11459160000000004,0.3437748,92.1889422,-1.2032117999999998,-18.32319684
0.48000000000000004,48,-0.035,-1.011,0.073,-0.3437748,-0.057295800000000015,0.2291832000000001,92.18321262,-1.20894138,-18.32319684
0.49,49,-0.036000000000000004,-1.01,0.073,-0.3437748,-0.057295800000000015,0.057295800000000015,92.18321262,-1.20894138,-18.32892642
0.5,50,-0.034,-1.008,0.07400000000000001,-0.3437748,0.0,-0.057295800000000015,92.25769716,-1.24331886,-18.32892642
0.51,51,-0.032,-1.005,0.07400000000000001,-0.5156622000000001,0.1718874,-0.2291832000000001,92.25196758,-1.24331886,-18.32892642
0.52,52,-0.031,-1.004,0.073,-0.572958,0.572958,-0.2291832000000001,92.246238,-1.23758928,-18.32319684
0.53,53,-0.03,-1.004,0.071,-0.6302538000000001,0.40107059999999994,-0.11459160000000004,92.24050842,-1.23758928,-18.31746726
0.54,54,-0.031,-1.006,0.07400000000000001,-0.4583664000000001,0.0,0.0,92.23477884,-1.23758928,-18.31746726
0.55,55,-0.031,-1.0090000000000001,0.077,-0.2291832000000001,-0.1718874,0.1718874,92.33791128,-1.27769634,-18.32319684
0.56,56,-0.031,-1.01,0.077,-0.11459160000000004,-0.4583664000000001,0.11459160000000004,92.33791128,-1.27769634,-18.32892642
0.5700000000000001,57,-0.028999999999999998,-1.01,0.077,-0.3437748,-0.4583664000000001,0.11459160000000004,92.3321817,-1.27769634,-18.334656000000006
0.5800000000000001,58,-0.027999999999999997,-1.0070000000000001,0.073,-0.5156622000000001,-0.3437748,0.2291832000000001,92.32645212,-1.28342592,-18.34038558
0.59,59,-0.03,-1.002,0.07200000000000001,-0.2291832000000001,-0.2291832000000001,0.1718874,92.32645212,-1.28342592,-18.34038558
0.6,60,-0.035,-0.997,0.07400000000000001,0.0,-0.11459160000000004,0.11459160000000004,92.46969162,-1.3750992,-18.34038558
0.61,61,-0.038,-0.995,0.077,0.11459160000000004,-0.11459160000000004,0.0,92.46969162,-1.3750992,-18.34038558
0.62,62,-0.039,-0.9940000000000001,0.076,0.11459160000000004,-0.11459160000000004,-0.1718874,92.4754212,-1.3750992,-18.34038558
0.63,63,-0.037000000000000005,-0.9940000000000001,0.078,0.1718874,0.057295800000000015,-0.3437748,92.4754212,-1.36936962,-18.34038558
0.64,64,-0.032,-0.995,0.077,0.2291832000000001,0.2291832000000001,-0.40107059999999994,92.4754212,-1.36364004,-18.334656000000006
0.65,65,-0.031,-1.0,0.077,0.11459160000000004,0.11459160000000004,-0.3437748,92.53844658,-1.3750992,-18.34038558
0.66,66,-0.03,-1.003,0.07400000000000001,0.1718874,0.0,-0.1718874,92.53844658,-1.3750992,-18.34038558
0.67,67,-0.032,-1.0070000000000001,0.07200000000000001,0.1718874,-0.1718874,0.0,92.53844658,-1.3750992,-18.34038558
0.68,68,-0.034,-1.006,0.071,0.3437748,-0.2291832000000001,0.057295800000000015,92.54417616,-1.3750992,-18.34611516
0.6900000000000001,69,-0.036000000000000004,-1.005,0.07200000000000001,0.6302538000000001,-0.11459160000000004,0.11459160000000004,92.54990574,-1.3750992,-18.34611516
0.7000000000000001,70,-0.037000000000000005,-1.004,0.07400000000000001,0.9167328000000001,0.0,0.0,92.57855364,-1.39801752,-18.34038558
0.7100000000000001,71,-0.037000000000000005,-1.0070000000000001,0.07400000000000001,0.8594370000000001,0.286479,-0.1718874,92.5900128,-1.39801752,-18.34038558
0.72,72,-0.036000000000000004,-1.0090000000000001,0.073,0.9167328000000001,0.572958,-0.286479,92.60147196,-1.39228794,-18.334656000000006
0.73,73,-0.034,-1.01,0.076,0.9167328000000001,0.6875496,-0.286479,92.60720154,-1.39228794,-18.32319684
0.74,74,-0.033,-1.01,0.078,0.8021411999999999,0.4583664000000001,-0.2291832000000001,92.6186607,-1.38655836,-18.32319684
0.75,75,-0.03,-1.008,0.076,0.6875496,0.11459160000000004,-0.1718874,92.64730859999999,-1.38655836,-18.32319684
0.76,76,-0.027000000000000003,-1.008,0.075,0.7448454000000001,-0.11459160000000004,-0.1718874,92.65303818,-1.38082878,-18.32319684
0.77,77,-0.027000000000000003,-1.0070000000000001,0.076,0.572958,-0.1718874,-0.11459160000000004,92.66449734,-1.38082878,-18.32892642
0.78,78,-0.027000000000000003,-1.0070000000000001,0.075,0.4583664000000001,-0.1718874,-0.11459160000000004,92.66449734,-1.38082878,-18.32892642
0.79,79,-0.027999999999999997,-1.008,0.076,0.3437748,-0.1718874,0.0,92.67022692,-1.38082878,-18.32892642
0.8,80,-0.031,-1.0070000000000001,0.078,0.057295800000000015,-0.2291832000000001,-0.057295800000000015,92.72752272,-1.40947668,-18.334656000000006
0.81,81,-0.034,-1.0070000000000001,0.076,0.1718874,-0.057295800000000015,-0.057295800000000015,92.72752272,-1.4037471000000001,-18.334656000000006
0.8200000000000001,82,-0.035,-1.005,0.078,0.1718874,0.0,-0.057295800000000015,92.72752272,-1.4037471000000001,-18.334656000000006
0.8300000000000001,83,-0.034,-1.004,0.079,0.11459160000000004,0.11459160000000004,0.0,92.7332523,-1.4037471000000001,-18.334656000000006
0.8400000000000001,84,-0.034,-1.004,0.08,0.2291832000000001,0.1718874,0.057295800000000015,92.7332523,-1.4037471000000001,-18.32892642
0.85,85,-0.033,-1.005,0.079,0.11459160000000004,0.1718874,0.11459160000000004,92.79627768,-1.42666542,-18.334656000000006
0.86,86,-0.032,-1.004,0.079,0.11459160000000004,0.1718874,0.1718874,92.79627768,-1.42666542,-18.334656000000006
0.87,87,-0.03,-1.001,0.078,0.2291832000000001,0.11459160000000004,0.2291832000000001,92.80200726,-1.432395,-18.32892642
0.88,88,-0.031,-1.0,0.077,0.40107059999999994,0.0,0.11459160000000004,92.80773684,-1.432395,-18.32892642
0.89,89,-0.03,-0.9990000000000001,0.078,0.572958,-0.11459160000000004,0.1718874,92.81346642,-1.432395,-18.334656000000006
0.9,90,-0.032,-1.001,0.081,0.6875496,-0.057295800000000015,0.057295800000000015,92.85357348,-1.44385416,-18.334656000000006
0.91,91,-0.031,-1.004,0.08,0.572958,0.0,0.057295800000000015,92.85930306,-1.44385416,-18.334656000000006
0.92,92,-0.032,-1.006,0.079,0.5156622000000001,0.057295800000000015,0.0,92.86503264,-1.44385416,-18.334656000000006
0.93,93,-0.033,-1.0070000000000001,0.081,0.6875496,0.11459160000000004,0.1718874,92.87076222,-1.44385416,-18.334656000000006
0.9400000000000001,94,-0.031,-1.0090000000000001,0.081,0.6302538000000001,0.057295800000000015,0.2291832000000001,92.8764918,-1.44958374,-18.334656000000006
0.9500000000000001,95,-0.03,-1.008,0.078,0.2291832000000001,0.0,0.3437748,92.9051397,-1.45531332,-18.334656000000006
0.9600000000000001,96,-0.031,-1.0070000000000001,0.079,0.3437748,-0.3437748,0.4583664000000001,92.91086928,-1.4610428999999998,-18.34038558
0.97,97,-0.031,-1.0070000000000001,0.081,0.2291832000000001,-0.1718874,0.4583664000000001,92.91086928,-1.46677248,-18.34038558
0.98,98,-0.031,-1.005,0.08,0.11459160000000004,0.0,0.3437748,92.91659886,-1.47250206,-18.34038558
0.99,99,-0.031,-1.003,0.078,0.0,0.0,0.2291832000000001,92.91659886,-1.47250206,-18.34038558
1.0,100,-0.032,-1.003,0.077,0.057295800000000015,0.11459160000000004,0.2291832000000001,92.9337876,-1.4896908000000002,-18.34038558
1.01,101,-0.033,-1.004,0.079,0.1718874,0.057295800000000015,0.11459160000000004,92.93951718,-1.4896908000000002,-18.34038558
1.02,102,-0.032,-1.006,0.079,0.1718874,0.0,0.1718874,92.93951718,-1.49542038,-18.34038558
1.03,103,-0.03,-1.0070000000000001,0.078,0.0,0.0,0.1718874,92.93951718,-1.49542038,-18.34038558
1.04,104,-0.031,-1.01,0.078,-0.057295800000000015,-0.5156622000000001,0.3437748,92.93951718,-1.50114996,-18.34611516
1.05,105,-0.033,-1.01,0.079,-0.11459160000000004,-0.6302538000000001,0.1718874,92.95670592,-1.50687954,-18.35184474
1.06,106,-0.037000000000000005,-1.008,0.08199999999999999,-0.286479,-0.6302538000000001,0.0,92.95097633999998,-1.50687954,-18.3633039
1.07,107,-0.036000000000000004,-1.0070000000000001,0.084,-0.572958,-0.3437748,-0.057295800000000015,92.94524676,-1.50114996,-18.3633039
1.08,108,-0.035,-1.0070000000000001,0.084,-0.7448454000000001,-0.11459160000000004,-0.11459160000000004,92.93951718,-1.50114996,-18.36903348
1.09,109,-0.034,-1.008,0.081,-0.9167328000000001,0.2291832000000001,-0.057295800000000015,92.92805802,-1.50114996,-18.3633039
1.1,110,-0.033,-1.0090000000000001,0.079,-1.145916,0.40107059999999994,0.0,92.92805802,-1.50687954,-18.3633039
1.11,111,-0.034,-1.005,0.08,-1.3178034,0.40107059999999994,0.2291832000000001,92.91086928,-1.50687954,-18.35757432
1.12,112,-0.034,-1.003,0.08,-1.0886202,0.057295800000000015,0.3437748,92.89941012,-1.51260912,-18.35757432
1.1300000000000001,113,-0.033,-1.003,0.077,-0.8594370000000001,0.0,0.3437748,92.89368054,-1.51260912,-18.35757432
1.1400000000000001,114,-0.031,-1.004,0.076,-0.8594370000000001,0.057295800000000015,0.40107059999999994,92.88222138,-1.5183387000000002,-18.35757432
1.1500000000000001,115,-0.028999999999999998,-1.006,0.078,-0.6875496,0.11459160000000004,0.572958,92.88795096,-1.5183387000000002,-18.3633039
1.1600000000000001,116,-0.028999999999999998,-1.006,0.08199999999999999,-0.4583664000000001,0.2291832000000001,0.6875496,92.88222138,-1.52406828,-18.35757432
1.17,117,-0.032,-1.006,0.083,-0.40107059999999994,0.2291832000000001,0.6302538000000001,92.88222138,-1.52979786,-18.35757432
1.18,118,-0.035,-1.003,0.083,-0.40107059999999994,0.2291832000000001,0.572958,92.8764918,-1.53552744,-18.35184474
1.19,119,-0.037000000000000005,-1.0,0.083,-0.5156622000000001,0.057295800000000015,0.40107059999999994,92.87076222,-1.5412570200000002,-18.35184474
1.2,120,-0.036000000000000004,-0.998,0.084,-0.6302538000000001,0.286479,0.2291832000000001,92.88795096,-1.5527161800000002,-18.35184474
1.21,121,-0.035,-1.0,0.08199999999999999,-0.6875496,0.11459160000000004,0.11459160000000004,92.88222138,-1.5527161800000002,-18.35184474
1.22,122,-0.034,-1.002,0.08199999999999999,-0.6302538000000001,0.0,0.0,92.8764918,-1.5527161800000002,-18.35184474
1.23,123,-0.035,-1.006,0.081,-0.6302538000000001,-0.11459160000000004,-0.057295800000000015,92.86503264,-1.5527161800000002,-18.35184474
1.24,124,-0.035,-1.0070000000000001,0.078,-0.6302538000000001,-0.286479,-0.11459160000000004,92.85930306,-1.5527161800000002,-18.35757432
1.25,125,-0.038,-1.008,0.077,-0.7448454000000001,-0.286479,-0.057295800000000015,92.86503264,-1.56417534,-18.35757432
1.26,126,-0.038,-1.005,0.078,-0.6302538000000001,-0.1718874,0.0,92.85930306,-1.56417534,-18.35757432
1.27,127,-0.039,-1.004,0.077,-0.572958,0.0,0.0,92.85357348,-1.56417534,-18.35757432
1.28,128,-0.037000000000000005,-1.0070000000000001,0.078,-0.572958,0.572958,0.0,92.8478439,-1.56417534,-18.35184474
1.29,129,-0.037000000000000005,-1.0090000000000001,0.077,-0.6875496,0.6875496,0.11459160000000004,92.84211432,-1.56990492,-18.34611516
1.3,130,-0.037000000000000005,-1.01,0.075,-0.7448454000000001,0.8021411999999999,0.11459160000000004,92.83638474,-1.5756344999999998,-18.34038558
1.31,131,-0.034,-1.011,0.078,-0.7448454000000001,0.8021411999999999,0.057295800000000015,92.83065516000002,-1.5756344999999998,-18.32892642
1.32,132,-0.034,-1.0090000000000001,0.077,-0.8021411999999999,0.572958,0.11459160000000004,92.81919599999999,-1.5813640800000002,-18.32319684
1.33,133,-0.033,-1.0090000000000001,0.077,-0.9740286,0.4583664000000001,0.0,92.80773684,-1.5813640800000002,-18.31746726
1.34,134,-0.032,-1.0090000000000001,0.075,-0.9740286,0.3437748,0.0,92.80200726,-1.5813640800000002,-18.31746726
1.35,135,-0.031,-1.008,0.075,-0.9167328000000001,0.11459160000000004,0.0,92.80773684,-1.5756344999999998,-18.31746726
1.36,136,-0.031,-1.0070000000000001,0.078,-0.9167328000000001,0.057295800000000015,0.1718874,92.79627768,-1.5756344999999998,-18.31746726
1.37,137,-0.031,-1.006,0.079,-0.3437748,-0.057295800000000015,0.11459160000000004,92.79627768,-1.5813640800000002,-18.31746726
1.3800000000000001,138,-0.031,-1.003,0.076,-0.6302538000000001,0.0,0.057295800000000015,92.7905481,-1.5813640800000002,-18.31746726
1.3900000000000001,139,-0.033,-1.002,0.07400000000000001,-0.572958,0.11459160000000004,0.0,92.78481852,-1.5813640800000002,-18.31746726
1.4000000000000001,140,-0.034,-1.001,0.073,-0.40107059999999994,0.0,0.0,92.80200726,-1.59282324,-18.31746726
1.4100000000000001,141,-0.034,-1.002,0.076,-0.2291832000000001,-0.057295800000000015,-0.1718874,92.80200726,-1.59282324,-18.31746726
1.42,142,-0.035,-1.002,0.078,-0.11459160000000004,-0.1718874,-0.11459160000000004,92.79627768,-1.59282324,-18.32319684
1.43,143,-0.033,-1.002,0.08,0.0,-0.057295800000000015,-0.11459160000000004,92.79627768,-1.5870936600000003,-18.32319684
1.44,144,-0.032,-1.0,0.079,0.0,-0.057295800000000015,-0.057295800000000015,92.79627768,-1.5870936600000003,-18.32319684
1.45,145,-0.033,-1.0,0.077,0.11459160000000004,-0.2291832000000001,-0.057295800000000015,92.83638474,-1.59855282,-18.32892642
1.46,146,-0.035,-0.998,0.078,0.1718874,-0.40107059999999994,0.0,92.83638474,-1.59855282,-18.334656000000006
1.47,147,-0.036000000000000004,-1.001,0.078,0.11459160000000004,-0.40107059999999994,0.0,92.84211432,-1.59855282,-18.334656000000006
1.48,148,-0.037000000000000005,-1.003,0.08199999999999999,0.057295800000000015,-0.286479,0.0,92.84211432,-1.59855282,-18.34038558
1.49,149,-0.037000000000000005,-1.004,0.083,0.11459160000000004,-0.11459160000000004,0.0,92.84211432,-1.59855282,-18.34038558
1.5,150,-0.036000000000000004,-1.006,0.081,0.11459160000000004,0.0,0.0,92.89941012,-1.6272007199999998,-18.34038558
1.51,151,-0.036000000000000004,-1.008,0.078,0.1718874,-0.11459160000000004,0.0,92.89941012,-1.6272007199999998,-18.34038558
1.52,152,-0.036000000000000004,-1.008,0.079,0.4583664000000001,-0.057295800000000015,0.0,92.9051397,-1.6272007199999998,-18.34611516
1.53,153,-0.036000000000000004,-1.0090000000000001,0.08,0.572958,-0.11459160000000004,0.0,92.91086928,-1.6272007199999998,-18.34611516
1.54,154,-0.036000000000000004,-1.0090000000000001,0.08199999999999999,0.40107059999999994,-0.057295800000000015,0.0,92.91659886,-1.6272007199999998,-18.34611516
1.55,155,-0.035,-1.0070000000000001,0.081,0.2291832000000001,-0.11459160000000004,0.0,92.9624355,-1.6386598799999998,-18.35184474
1.56,156,-0.034,-1.0070000000000001,0.08,0.2291832000000001,0.0,-0.11459160000000004,92.96816508,-1.6329303,-18.35184474
1.57,157,-0.035,-1.005,0.076,0.057295800000000015,0.0,-0.2291832000000001,92.96816508,-1.6329303,-18.35184474
1.58,158,-0.035,-1.003,0.077,0.11459160000000004,-0.057295800000000015,-0.11459160000000004,92.96816508,-1.6329303,-18.35184474
1.59,159,-0.036000000000000004,-1.004,0.079,0.1718874,-0.057295800000000015,-0.1718874,92.97389466,-1.6272007199999998,-18.35184474
1.6,160,-0.036000000000000004,-1.003,0.077,0.11459160000000004,-0.057295800000000015,-0.1718874,92.9910834,-1.6386598799999998,-18.35184474
1.61,161,-0.036000000000000004,-1.003,0.076,0.1718874,-0.2291832000000001,-0.11459160000000004,92.9910834,-1.6386598799999998,-18.35184474
1.62,162,-0.037000000000000005,-1.004,0.075,0.2291832000000001,-0.1718874,0.0,92.99681298,-1.6386598799999998,-18.35757432
1.6300000000000001,163,-0.039,-1.006,0.07400000000000001,0.3437748,-0.11459160000000004,0.0,92.99681298,-1.6386598799999998,-18.35757432
1.6400000000000001,164,-0.04,-1.008,0.078,0.286479,0.057295800000000015,-0.1718874,93.00254256,-1.6386598799999998,-18.35757432
1.6500000000000001,165,-0.037000000000000005,-1.0090000000000001,0.078,0.286479,0.286479,-0.3437748,93.00827214,-1.6386598799999998,-18.35184474
1.6600000000000001,166,-0.035,-1.012,0.077,0.2291832000000001,0.5156622000000001,-0.40107059999999994,93.00827214,-1.6329303,-18.34611516
1.6700000000000002,167,-0.033,-1.01,0.07400000000000001,0.057295800000000015,0.6875496,-0.3437748,93.01400172,-1.6329303,-18.34038558
1.68,168,-0.035,-1.005,0.077,0.11459160000000004,0.3437748,-0.1718874,93.01400172,-1.6272007199999998,-18.334656000000006
1.69,169,-0.036000000000000004,-1.0,0.075,0.11459160000000004,0.286479,-0.057295800000000015,93.01400172,-1.6272007199999998,-18.32892642
1.7,170,-0.037000000000000005,-1.001,0.073,0.286479,0.0,0.0,93.01400172,-1.65011904,-18.32319684
1.71,171,-0.037000000000000005,-1.004,0.075,0.40107059999999994,-0.2291832000000001,0.057295800000000015,93.01400172,-1.65011904,-18.32892642
1.72,172,-0.036000000000000004,-1.0090000000000001,0.076,0.572958,-0.057295800000000015,0.11459160000000004,93.01973129999999,-1.65011904,-18.32892642
1.73,173,-0.035,-1.012,0.078,0.572958,0.1718874,0.11459160000000004,93.02546088,-1.65011904,-18.32892642
1.74,174,-0.036000000000000004,-1.011,0.08,0.4583664000000001,0.40107059999999994,0.0,93.03119046,-1.65011904,-18.32319684
1.75,175,-0.038,-1.0070000000000001,0.08,0.572958,0.4583664000000001,-0.057295800000000015,93.0483792,-1.6558486199999998,-18.31746726
1.76,176,-0.038,-1.003,0.079,0.572958,0.4583664000000001,-0.2291832000000001,93.05410878,-1.6558486199999998,-18.31173768
1.77,177,-0.037000000000000005,-1.001,0.08,0.7448454000000001,0.40107059999999994,-0.286479,93.05983836,-1.6558486199999998,-18.3060081
1.78,178,-0.034,-1.002,0.079,0.6302538000000001,0.286479,-0.1718874,93.06556794,-1.65011904,-18.3060081
1.79,179,-0.033,-1.006,0.081,0.6302538000000001,0.2291832000000001,-0.1718874,93.0770271,-1.65011904,-18.30027852
1.8,180,-0.033,-1.006,0.08199999999999999,0.40107059999999994,0.1718874,-0.1718874,93.09994542,-1.64438946,-18.3060081
1.81,181,-0.034,-1.005,0.08199999999999999,0.2291832000000001,0.286479,-0.1718874,93.105675,-1.64438946,-18.30027852
1.82,182,-0.036000000000000004,-1.006,0.08,0.1718874,0.40107059999999994,-0.1718874,93.105675,-1.64438946,-18.29454894
1.83,183,-0.038,-1.006,0.077,0.2291832000000001,0.40107059999999994,-0.2291832000000001,93.105675,-1.64438946,-18.28881936
1.84,184,-0.038,-1.004,0.078,0.6302538000000001,0.5156622000000001,-0.2291832000000001,93.11713416,-1.6386598799999998,-18.28881936
1.85,185,-0.037000000000000005,-1.005,0.08,0.9167328000000001,0.6302538000000001,-0.286479,93.12859332,-1.6386598799999998,-18.2773602
1.86,186,-0.037000000000000005,-1.0070000000000001,0.08,0.9740286,0.7448454000000001,-0.3437748,93.14005248,-1.6386598799999998,-18.27163062
1.87,187,-0.037000000000000005,-1.0070000000000001,0.08,0.9167328000000001,0.8021411999999999,-0.3437748,93.14578206000002,-1.6329303,-18.26017146
1.8800000000000001,188,-0.036000000000000004,-1.006,0.08,0.6875496,0.6875496,-0.2291832000000001,93.15724122,-1.6329303,-18.25444188
1.8900000000000001,189,-0.034,-1.0070000000000001,0.08199999999999999,0.4583664000000001,0.5156622000000001,-0.1718874,93.1629708,-1.6329303,-18.2487123
1.9000000000000001,190,-0.034,-1.0070000000000001,0.08199999999999999,0.572958,0.286479,-0.2291832000000001,93.17442996,-1.6272007199999998,-18.2487123
1.9100000000000001,191,-0.033,-1.0090000000000001,0.08,0.4583664000000001,0.2291832000000001,-0.2291832000000001,93.18015954,-1.6272007199999998,-18.24298272
1.9200000000000002,192,-0.033,-1.012,0.08,0.2291832000000001,0.057295800000000015,-0.2291832000000001,93.18588912,-1.6272007199999998,-18.24298272
1.93,193,-0.031,-1.012,0.083,0.1718874,0.0,-0.11459160000000004,93.18588912,-1.62147114,-18.24298272
1.94,194,-0.027999999999999997,-1.01,0.085,0.057295800000000015,0.057295800000000015,-0.057295800000000015,93.18588912,-1.62147114,-18.24298272
1.95,195,-0.03,-1.008,0.085,0.0,0.0,0.0,93.24891449999998,-1.6042824000000002,-18.25444188
1.96,196,-0.032,-1.0070000000000001,0.083,-0.2291832000000001,0.057295800000000015,0.0,93.24891449999998,-1.6042824000000002,-18.25444188
1.97,197,-0.032,-1.005,0.08199999999999999,-0.40107059999999994,0.11459160000000004,0.0,93.24318492,-1.6042824000000002,-18.25444188
1.98,198,-0.032,-1.005,0.08,-0.5156622000000001,0.11459160000000004,0.057295800000000015,93.23745534,-1.61001198,-18.2487123
1.99,199,-0.033,-1.0070000000000001,0.08199999999999999,-0.6302538000000001,-0.057295800000000015,0.2291832000000001,93.23172576,-1.61001198,-18.25444188
2.0,200,-0.033,-1.006,0.083,-0.6875496,-0.11459160000000004,0.286479,93.23172576,-1.61001198,-18.25444188
2.01,201,-0.033,-1.004,0.081,-0.7448454000000001,-0.057295800000000015,0.2291832000000001,93.2202666,-1.6157415599999996,-18.25444188
2.02,202,-0.033,-1.0,0.078,-0.6875496,-0.11459160000000004,0.1718874,93.21453702,-1.6157415599999996,-18.26017146
2.03,203,-0.034,-1.0,0.078,-0.7448454000000001,-0.2291832000000001,0.057295800000000015,93.20880744,-1.6157415599999996,-18.26017146
2.04,204,-0.034,-1.001,0.078,-0.7448454000000001,-0.286479,0.0,93.19734828,-1.6157415599999996,-18.26590104
2.05,205,-0.034,-1.0,0.078,-0.6875496,-0.2291832000000001,0.0,93.1916187,-1.6157415599999996,-18.26590104
2.0599999999999996,206,-0.034,-1.001,0.079,-0.6302538000000001,-0.11459160000000004,0.0,93.18588912,-1.6157415599999996,-18.26590104
2.07,207,-0.035,-1.001,0.078,-0.5156622000000001,-0.2291832000000001,0.11459160000000004,93.18015954,-1.6157415599999996,-18.27163062
2.0799999999999996,208,-0.033,-1.002,0.079,-0.2291832000000001,-0.057295800000000015,0.2291832000000001,93.17442996,-1.62147114,-18.27163062
2.09,209,-0.031,-1.004,0.08,-0.286479,-0.1718874,0.40107059999999994,93.17442996,-1.62147114,-18.27163062
2.0999999999999996,210,-0.033,-1.005,0.08,-0.3437748,-0.3437748,0.4583664000000001,93.17442996,-1.6329303,-18.2773602
2.11,211,-0.034,-1.0070000000000001,0.081,-0.5156622000000001,-0.286479,0.4583664000000001,93.16870038,-1.6386598799999998,-18.28308978
2.1199999999999997,212,-0.033,-1.008,0.079,-0.6875496,-0.286479,0.4583664000000001,93.1629708,-1.64438946,-18.28308978
2.13,213,-0.033,-1.008,0.083,-0.7448454000000001,-0.286479,0.4583664000000001,93.15151164,-1.64438946,-18.28881936
2.1399999999999997,214,-0.034,-1.0070000000000001,0.085,-0.8594370000000001,-0.3437748,0.40107059999999994,93.14578206000002,-1.65011904,-18.29454894
2.15,215,-0.034,-1.006,0.084,-1.0886202,-0.4583664000000001,0.286479,93.14005248,-1.6558486199999998,-18.30027852
2.1599999999999997,216,-0.035,-1.006,0.08199999999999999,-1.3750992,-0.4583664000000001,0.1718874,93.12859332,-1.6558486199999998,-18.3060081
2.17,217,-0.035,-1.006,0.085,-1.5469866,-0.4583664000000001,0.057295800000000015,93.11140458,-1.6558486199999998,-18.3060081
2.1799999999999997,218,-0.035,-1.006,0.085,-1.7761698000000001,-0.5156622000000001,0.057295800000000015,93.09421584,-1.6558486199999998,-18.31173768
2.19,219,-0.034,-1.0070000000000001,0.081,-1.7761698000000001,-0.5156622000000001,0.11459160000000004,93.0770271,-1.6558486199999998,-18.31746726
2.1999999999999997,220,-0.033,-1.01,0.08,-1.7188740000000002,-0.6875496,0.286479,93.06556794,-1.6615782,-18.32892642
2.21,221,-0.036000000000000004,-1.011,0.081,-1.8334656000000005,-0.8594370000000001,0.286479,93.04264962,-1.6615782,-18.334656000000006
2.2199999999999998,222,-0.038,-1.011,0.083,-1.8907614,-0.6875496,0.2291832000000001,93.02546088,-1.6673077799999998,-18.34611516
2.23,223,-0.04,-1.01,0.08199999999999999,-2.1199446,-0.4583664000000001,0.11459160000000004,93.00254256,-1.6673077799999998,-18.35184474
2.2399999999999998,224,-0.038,-1.0090000000000001,0.084,-2.4637194,-0.11459160000000004,0.0,92.97962424,-1.6673077799999998,-18.35184474
2.25,225,-0.037000000000000005,-1.006,0.083,-2.4637194,0.11459160000000004,0.0,92.9624355,-1.6673077799999998,-18.35184474
2.26,226,-0.036000000000000004,-1.002,0.08199999999999999,-2.6356068,0.3437748,0.057295800000000015,92.9337876,-1.67303736,-18.34611516
2.27,227,-0.037000000000000005,-1.001,0.079,-2.7501984,0.3437748,0.286479,92.9051397,-1.67303736,-18.34611516
2.28,228,-0.037000000000000005,-1.0,0.08,-2.5210152000000003,0.11459160000000004,0.572958,92.88222138,-1.6787669399999998,-18.34611516
2.29,229,-0.036000000000000004,-1.005,0.08199999999999999,-2.3491277999999998,0.0,0.6302538000000001,92.85357348,-1.6902260999999998,-18.34611516
2.3,230,-0.035,-1.011,0.081,-2.4637194,0.0,0.8594370000000001,92.83638474,-1.6959556799999995,-18.34611516
2.31,231,-0.033,-1.013,0.08199999999999999,-2.7501984,0.1718874,0.8594370000000001,92.80773684,-1.7074148399999998,-18.34611516
2.32,232,-0.033,-1.012,0.085,-3.0366774,0.572958,0.9167328000000001,92.77908894,-1.7188740000000002,-18.34038558
2.3299999999999996,233,-0.036000000000000004,-1.0090000000000001,0.08800000000000001,-3.3231564,1.0313244000000001,0.9167328000000001,92.74471146,-1.7246035799999997,-18.32892642
2.34,234,-0.04,-1.008,0.087,-3.7242269999999995,1.4896908000000002,0.8594370000000001,92.70460440000001,-1.73606274,-18.31746726
2.3499999999999996,235,-0.040999999999999995,-1.0090000000000001,0.083,-4.3544808,1.6615782,0.8594370000000001,92.66449734,-1.7475218999999995,-18.30027852
2.36,236,-0.039,-1.013,0.084,-4.6982555999999995,1.7761698000000001,0.9740286,92.61293112,-1.75898106,-18.28308978
2.3699999999999997,237,-0.035,-1.016,0.086,-5.1566220000000005,1.8334656000000005,1.0313244000000001,92.56136490000002,-1.7761698000000001,-18.26590104
2.38,238,-0.033,-1.018,0.092,-5.7868758000000025,1.7761698000000001,1.0886202,92.5040691,-1.78762896,-18.2487123
2.3899999999999997,239,-0.032,-1.0190000000000001,0.1,-6.875496000000001,2.1199446,1.4896908000000002,92.42958456,-1.8048177,-18.23152356
2.4,240,-0.033,-1.0190000000000001,0.098,-8.193299399999999,3.0366774,2.1199446,92.35510002,-1.82773602,-18.20287566
2.4099999999999997,241,-0.036000000000000004,-1.024,0.098,-8.7089616,4.1825934,2.7501984,92.26342674,-1.85638392,-18.162768600000003
2.42,242,-0.035,-1.034,0.08800000000000001,-9.8548776,4.4690724,3.6096353999999997,92.1602943,-1.89649098,-18.12266154
2.4299999999999997,243,-0.038,-1.037,0.081,-10.943497800000001,4.4117766,4.0680017999999984,92.0457027,-1.94232762,-18.08255448
2.44,244,-0.039,-1.042,0.08,-11.172680999999999,4.5263682,4.2398892,91.9311111,-1.98816426,-18.03671784
2.4499999999999997,245,-0.038,-1.045,0.081,-11.5164558,4.4690724,4.1252976000000015,91.8165195,-2.0340009,-17.99661078
2.46,246,-0.04,-1.043,0.09300000000000001,-11.8602306,4.5263682,4.010706000000001,91.69619832,-2.07410796,-17.95650372
2.4699999999999998,247,-0.036000000000000004,-1.034,0.10400000000000001,-12.1467096,4.8128472,4.0680017999999984,91.57014756,-2.1199446,-17.91066708
2.48,248,-0.025,-1.03,0.11800000000000001,-13.464512999999998,4.8701430000000006,4.1825934,91.42690806,-2.1657812400000003,-17.86483044
2.4899999999999998,249,-0.019,-1.025,0.13699999999999998,-15.2406828,4.5263682,4.4117766,91.27220940000001,-2.21161788,-17.824723380000005
2.5,250,-0.017,-1.022,0.146,-16.042824000000003,4.1825934,4.6982555999999995,91.11751074,-2.25745452,-17.78461632
2.51,251,-0.015,-1.0290000000000001,0.14800000000000002,-18.048177,3.6096353999999997,4.9274388,90.93416418,-2.3147503200000004,-17.75023884
2.52,252,-0.015,-1.034,0.16,-19.9962342,3.2658606,5.1566220000000005,90.7278993,-2.36631654,-17.72159094
2.53,253,-0.022000000000000002,-1.046,0.162,-21.027558600000006,3.6096353999999997,5.5003968,90.51017526,-2.42361234,-17.69294304
2.54,254,-0.027000000000000003,-1.064,0.134,-23.892348600000002,3.7815228,5.5003968,90.2695329,-2.48090814,-17.65856556
2.55,255,-0.033,-1.078,0.109,-26.4706596,3.3231564,5.6149884000000005,90.00024264,-2.53820394,-17.62991766
2.56,256,-0.040999999999999995,-1.0859999999999999,0.095,-27.4446882,2.9793816000000004,5.3858052,89.72522280000004,-2.59549974,-17.60126976
2.57,257,-0.049,-1.093,0.08800000000000001,-29.0489706,2.7501984,5.1566220000000005,89.42728464000002,-2.65279554,-17.57835144
2.5799999999999996,258,-0.062,-1.085,0.098,-30.366774000000003,2.291832,4.8701430000000006,89.11788732,-2.70436176,-17.55543312
2.59,259,-0.063,-1.0759999999999998,0.099,-31.2835068,2.4637194,4.4690724,88.79703083999998,-2.7501984,-17.5325148
2.5999999999999996,260,-0.063,-1.069,0.077,-33.804522,2.4064236,4.2398892,88.45898561999998,-2.79603504,-17.51532606
2.61,261,-0.064,-1.052,0.079,-36.955791,1.8907614,4.1252976000000015,88.08083334,-2.84187168,-17.498137319999998
2.6199999999999997,262,-0.063,-1.031,0.09300000000000001,-38.159002799999996,1.8907614,4.0680017999999984,87.69695148,-2.88770832,-17.48094858
2.63,263,-0.067,-1.028,0.083,-39.018439799999996,1.9480572,3.7815228,87.29588088,-2.92781538,-17.46375984
2.6399999999999997,264,-0.07,-1.036,0.059000000000000004,-43.3729206,1.0886202,3.6096353999999997,86.85470322,-2.96792244,-17.45803026
2.65,265,-0.07,-1.045,0.032,-47.0971476,0.8021411999999999,3.6096353999999997,86.37914808000002,-3.0080294999999997,-17.45230068
2.6599999999999997,266,-0.073,-1.06,-0.001,-50.47759979999999,0.6302538000000001,3.4950437999999995,85.86921545999998,-3.04813656,-17.45230068
2.67,267,-0.083,-1.068,-0.028999999999999998,-54.43101,-0.286479,2.9793816000000004,85.3134462,-3.0825140400000004,-17.45803026
2.6799999999999997,268,-0.091,-1.07,-0.012,-60.10329419999999,-0.9167328000000001,1.8907614,84.70611072,-3.1054323600000004,-17.46948942
2.69,269,-0.095,-1.0590000000000002,0.02,-67.1506776,-0.11459160000000004,0.6875496,84.0242907,-3.1226211000000004,-17.48094858
2.6999999999999997,270,-0.086,-1.0390000000000001,0.015,-74.2553568,1.6615782,-0.1718874,83.27371572000001,-3.1226211000000004,-17.46948942
2.71,271,-0.07400000000000001,-1.008,-0.027000000000000003,-78.20876700000002,2.6356068,-0.3437748,82.4773041,-3.12835068,-17.45230068
2.7199999999999998,272,-0.062,-0.9890000000000001,-0.059000000000000004,-77.1201468,2.4064236,0.0,81.69235164,-3.12835068,-17.435111940000002
2.73,273,-0.05,-0.996,-0.084,-75.17208959999998,1.6042823999999998,0.5156622000000001,80.9303175,-3.1398098400000003,-17.429382359999998
2.7399999999999998,274,-0.061,-1.005,-0.08,-75.68775179999999,0.7448454000000001,1.2605076000000002,80.16255378,-3.1627281600000003,-17.42365278
2.75,275,-0.073,-1.0270000000000001,-0.08,-79.06820400000002,1.6615782,1.7761698000000001,79.36041258,-3.18564648,-17.412193620000004
2.76,276,-0.07400000000000001,-1.046,-0.099,-84.05293859999998,2.8074942000000003,2.2345362,78.50670516,-3.2085648000000004,-17.3892753
2.77,277,-0.077,-1.053,-0.113,-87.37609499999998,2.291832,2.7501984,77.61862026,-3.24294228,-17.37208656
2.78,278,-0.078,-1.061,-0.115,-89.49603959999996,2.1199446,3.0939732,76.70761704,-3.27731976,-17.34916824
2.79,279,-0.07400000000000001,-1.063,-0.08900000000000001,-92.99108340000001,2.1772404,3.8388186,75.76223634,-3.31742682,-17.326249920000002
2.8,280,-0.071,-1.052,-0.068,-98.09040959999999,3.0939732,3.6669312000000014,74.771019,-3.35753388,-17.29760202
2.81,281,-0.069,-1.031,-0.077,-99.7519878,3.7815228,2.9220858,73.75688333999999,-3.38618178,-17.26322454
2.82,282,-0.064,-1.022,-0.078,-97.975818,6.2452422,2.1772404,72.75993642,-3.40337052,-17.20592874
2.8299999999999996,283,-0.048,-1.031,-0.11,-97.0017894,7.333862400000001,2.4064236,71.76871908,-3.42055926,-17.13717378
2.84,284,-0.048,-1.04,-0.165,-94.99643640000001,4.7555514,3.0366774,70.80042006,-3.44347758,-17.09133714
2.8499999999999996,285,-0.06,-1.051,-0.152,-94.8818448,4.583664,2.6356068,69.83785062,-3.4663959,-17.0455005
2.86,286,-0.059000000000000004,-1.031,-0.183,-92.99108340000001,5.72958,1.7188740000000002,68.89246992,-3.47212548,-16.99393428
2.8699999999999997,287,-0.057,-1.031,-0.203,-88.17823620000001,4.4690724,0.7448454000000001,67.99292586,-3.47785506,-16.95382722
2.88,288,-0.067,-0.998,-0.13699999999999998,-84.62589659999998,3.7242269999999995,-0.9167328000000001,67.13348886,-3.4663959,-16.9309089
2.8899999999999997,289,-0.09,-1.0,-0.14800000000000002,-80.21412,6.7609043999999985,-2.9220858,66.31415892,-3.42055926,-16.88507226
2.9,290,-0.11699999999999999,-1.0170000000000001,-0.10400000000000001,-78.8390208,10.943497800000001,-4.8701430000000006,65.51774730000001,-3.34607472,-16.81058772
2.9099999999999997,291,-0.153,-1.02,-0.18600000000000005,-78.09417540000003,12.2040054,-6.1879464,64.72133568,-3.25440144,-16.7303736
2.92,292,-0.161,-1.024,-0.325,-75.74504759999998,12.261301199999998,-6.0160589999999985,63.94784238,-3.15699858,-16.650159480000006
2.9299999999999997,293,-0.177,-1.046,-0.402,-71.8489332,12.5477802,-5.3858052,63.20872656,-3.0653253000000005,-16.56994536
2.94,294,-0.16899999999999998,-1.079,-0.49,-69.900876,11.401864199999999,-3.9534102,62.49252906,-2.99084076,-16.48973124
2.9499999999999997,295,-0.122,-1.103,-0.542,-68.01011460000001,9.396511199999999,-2.3491277999999998,61.79924988000001,-2.93927454,-16.420976279999998
2.96,296,-0.048,-1.07,-0.541,-64.97343719999999,5.844171599999999,-2.1199446,61.14034818,-2.90489706,-16.38086922
2.9699999999999998,297,0.012,-1.053,-0.58,-63.770225399999994,2.86479,-2.86479,60.48717606,-2.87051958,-16.37513964
2.98,298,0.055999999999999994,-0.992,-0.613,-63.48374640000001,1.145916,-4.5263682,59.8454631,-2.8361421,-16.392328380000002
2.9899999999999998,299,0.071,-0.9490000000000001,-0.64,-59.7595194,1.0313244000000001,-6.875496000000001,59.23812762,-2.7788463,-16.420976279999998
3.0,300,0.052000000000000005,-0.9259999999999999,-0.6729999999999999,-57.86875799999999,2.1199446,-9.1100322,58.64798088,-2.6929026,-16.44962418
3.01,301,0.027000000000000003,-0.94,-0.6920000000000001,-54.25912260000001,1.8907614,-9.8548776,58.0979412,-2.6069589,-16.48973124
3.02,302,-0.006999999999999999,-0.9790000000000001,-0.691,-50.76407879999999,1.8334656000000005,-9.0527364,57.58227900000001,-2.52674478,-16.524108719999994
3.03,303,-0.066,-1.006,-0.695,-47.3836266,0.9740286,-7.5630456000000015,57.10672386,-2.46944898,-16.5584862
3.04,304,-0.091,-1.002,-0.682,-43.315624799999995,-0.2291832000000001,-7.0473834,56.66554620000001,-2.41788276,-16.598593259999998
3.05,305,-0.085,-0.98,-0.665,-40.10706,0.286479,-7.6776372,56.25874602,-2.35485738,-16.6444299
3.06,306,-0.049,-0.958,-0.6659999999999999,-37.1276784,1.0886202,-8.5370742,55.88632332,-2.28610242,-16.68453696
3.07,307,-0.012,-0.9420000000000001,-0.662,-33.1742682,0.8021411999999999,-8.880849000000003,55.54827810000001,-2.21161788,-16.72464402
3.08,308,0.013999999999999999,-0.9179999999999999,-0.608,-30.022999199999997,-0.11459160000000004,-9.3392154,55.24461036,-2.13713334,-16.781939819999998
3.09,309,0.027000000000000003,-0.895,-0.583,-28.418716800000002,-0.9167328000000001,-10.1413566,54.95813136,-2.06837838,-16.850694779999998
3.0999999999999996,310,0.032,-0.863,-0.585,-26.814434400000003,-1.7761698000000001,-10.886202,54.68884110000001,-1.98243468,-16.9309089
3.11,311,0.03,-0.84,-0.591,-23.892348600000002,-2.9220858,-10.7716104,54.44819874,-1.91367972,-17.0168526
3.1199999999999997,312,0.001,-0.8490000000000001,-0.604,-19.4232762,-2.7501984,-10.026765,54.25339302,-1.85065434,-17.09706672
3.13,313,-0.027000000000000003,-0.855,-0.596,-15.813640800000002,-3.1512689999999997,-9.167328,54.09869436,-1.79908812,-17.17728084
3.1399999999999997,314,-0.052000000000000005,-0.8540000000000001,-0.591,-13.407217200000002,-3.4950437999999995,-8.193299399999999,53.96118444,-1.75325148,-17.251765380000002
3.15,315,-0.063,-0.846,-0.606,-11.5737516,-3.2085647999999996,-6.990087599999999,53.84659283999999,-1.7246035799999997,-17.32052034
3.1599999999999997,316,-0.059000000000000004,-0.8340000000000001,-0.616,-9.224623800000002,-2.6929026,-5.6149884000000005,53.74918998,-1.6902260999999998,-17.37781614
3.17,317,-0.049,-0.828,-0.602,-7.5057497999999985,-2.291832,-4.5263682,53.67470544,-1.67303736,-17.42365278
3.1799999999999997,318,-0.040999999999999995,-0.826,-0.621,-7.3911582,-1.9480572,-3.7815228,53.600220900000004,-1.65011904,-17.46375984
3.19,319,-0.037000000000000005,-0.8170000000000001,-0.635,-6.875496000000001,-2.1199446,-3.4950437999999995,53.53719552,-1.6386598799999998,-17.498137319999998
3.1999999999999997,320,-0.025,-0.807,-0.613,-6.3598338,-1.9480572,-3.0939732,53.46271098,-1.62147114,-17.5325148
3.21,321,-0.017,-0.7979999999999999,-0.615,-6.130650599999999,-1.8334656000000005,-2.7501984,53.39968560000001,-1.61001198,-17.566892279999998
3.2199999999999998,322,-0.016,-0.7909999999999999,-0.624,-5.3285094000000015,-2.1199446,-2.4064236,53.34238979999999,-1.6042824000000002,-17.59554018
3.23,323,-0.013000000000000001,-0.782,-0.604,-3.7815228,-3.380452200000001,-2.1772404,53.30801232,-1.6042824000000002,-17.63564724
3.2399999999999998,324,-0.011000000000000001,-0.777,-0.602,-3.380452200000001,-4.1825934,-1.7188740000000002,53.27363484,-1.6157415599999996,-17.68148388
3.25,325,-0.006999999999999999,-0.7759999999999999,-0.606,-3.7242269999999995,-4.8701430000000006,-1.3750992,53.22206862,-1.6272007199999998,-17.733050100000003
3.26,326,-0.004,-0.772,-0.598,-2.3491277999999998,-5.6722842,-0.9167328000000001,53.1991503,-1.65011904,-17.78461632
3.27,327,-0.013000000000000001,-0.772,-0.578,-1.3750992,-5.5003968,-0.1718874,53.18769113999999,-1.6787669399999998,-17.83045296
3.28,328,-0.021,-0.76,-0.5820000000000001,-0.8594370000000001,-4.8701430000000006,0.286479,53.18196156000001,-1.71314442,-17.86483044
3.29,329,-0.033,-0.747,-0.562,0.0,-4.4117766,0.40107059999999994,53.18196156000001,-1.74179232,-17.899207920000006
3.3,330,-0.048,-0.737,-0.5589999999999999,-0.057295800000000015,-4.0680017999999984,0.286479,53.16477282,-1.78189938,-17.927855819999994
3.31,331,-0.053,-0.726,-0.557,0.286479,-3.380452200000001,-0.057295800000000015,53.1705024,-1.79908812,-17.95650372
3.32,332,-0.053,-0.721,-0.5539999999999999,1.3750992,-3.1512689999999997,-0.286479,53.18769113999999,-1.81627686,-17.98515162
3.33,333,-0.045,-0.723,-0.54,2.0626488000000003,-2.291832,-0.1718874,53.21060946,-1.82773602,-18.002340359999994
3.34,334,-0.040999999999999995,-0.721,-0.527,3.0366774,-2.291832,0.057295800000000015,53.23925736,-1.83919518,-18.019529100000003
3.3499999999999996,335,-0.043,-0.723,-0.519,4.297185,-2.5783110000000002,0.4583664000000001,53.285093999999994,-1.8621134999999998,-18.03671784
3.36,336,-0.038,-0.7290000000000001,-0.521,4.5263682,-2.1199446,0.8021411999999999,53.33093064,-1.87930224,-18.048177
3.3699999999999997,337,-0.032,-0.725,-0.508,4.7555514,-1.7761698000000001,1.3750992,53.37676728,-1.90222056,-18.05390658
3.38,338,-0.027000000000000003,-0.721,-0.507,5.2139178,-1.3178034,1.6615782,53.43406308,-1.9194093000000003,-18.05963616
3.3899999999999997,339,-0.024,-0.7190000000000001,-0.514,5.5576926,-0.7448454000000001,2.1199446,53.49135888000001,-1.94232762,-18.05390658
3.4,340,-0.027999999999999997,-0.7140000000000001,-0.51,5.6722842,-0.4583664000000001,2.2345362,53.54292510000001,-1.9595163600000003,-18.04244742
3.4099999999999997,341,-0.031,-0.7070000000000001,-0.505,5.958763200000001,0.3437748,2.2345362,53.60595048,-1.9767051,-18.02525868
3.42,342,-0.031,-0.7070000000000001,-0.4970000000000001,6.0733548,1.145916,2.1199446,53.66897586,-1.98816426,-18.002340359999994
3.4299999999999997,343,-0.034,-0.7090000000000001,-0.507,6.2452422,0.9167328000000001,2.0053530000000004,53.73200124,-1.99389384,-17.98515162
3.44,344,-0.028999999999999998,-0.7140000000000001,-0.491,6.703608600000001,0.8021411999999999,1.8334656000000005,53.79502662,-2.005353,-17.9622333
3.4499999999999997,345,-0.031,-0.72,-0.48100000000000004,6.3598338,1.3178034,2.1772404,53.86378158,-2.01681216,-17.93931498
3.46,346,-0.032,-0.722,-0.4920000000000001,5.844171599999999,1.6615782,2.4064236,53.92107738,-2.02254174,-17.91066708
3.4699999999999998,347,-0.026000000000000002,-0.725,-0.4970000000000001,5.9014674000000005,1.7188740000000002,2.5210152000000003,53.97837317999999,-2.0340009,-17.88201918
3.48,348,-0.024,-0.725,-0.48700000000000004,5.5576926,1.6042823999999998,2.86479,54.03566897999999,-2.04546006,-17.85337128
3.4899999999999998,349,-0.027000000000000003,-0.728,-0.48100000000000004,5.3858052,1.6042823999999998,3.0939732,54.09296478,-2.0626488000000003,-17.818993799999994
3.5,350,-0.022000000000000002,-0.733,-0.5,4.9274388,1.7761698000000001,3.2085647999999996,54.13880142000001,-2.07410796,-17.7903459
3.51,351,-0.018000000000000002,-0.73,-0.486,4.9274388,1.5469866,3.4377480000000005,54.19036764,-2.09702628,-17.755968420000006
3.52,352,-0.019,-0.737,-0.48200000000000004,4.6982555999999995,0.8021411999999999,3.6096353999999997,54.23620428,-2.1199446,-17.72732052
3.53,353,-0.019,-0.725,-0.488,3.1512689999999997,0.8594370000000001,3.7815228,54.26485218000001,-2.14286292,-17.69867262
3.54,354,-0.019,-0.725,-0.47600000000000003,2.7501984,0.6302538000000001,4.1252976000000015,54.29350008,-2.17151082,-17.67002472
3.55,355,-0.02,-0.73,-0.475,2.2345362,0.11459160000000004,4.2398892,54.32214798,-2.2058883,-17.64137682
3.56,356,-0.031,-0.733,-0.491,1.0313244000000001,0.0,3.9534102,54.33360714000001,-2.2345362,-17.6184585
3.57,357,-0.034,-0.7290000000000001,-0.4970000000000001,0.5156622000000001,0.2291832000000001,3.7242269999999995,54.33360714000001,-2.2631841,-17.59554018
3.58,358,-0.03,-0.746,-0.48200000000000004,-0.11459160000000004,0.286479,3.7815228,54.33360714000001,-2.2918320000000003,-17.57262186
3.59,359,-0.026000000000000002,-0.752,-0.47,-1.2605076000000002,0.40107059999999994,3.7242269999999995,54.32214798,-2.3204799,-17.54397396
3.5999999999999996,360,-0.025,-0.7609999999999999,-0.484,-3.0939732,0.1718874,3.2085647999999996,54.29350008,-2.34339822,-17.52678522
3.61,361,-0.027000000000000003,-0.764,-0.489,-3.3231564,-0.057295800000000015,2.7501984,54.25912260000001,-2.36631654,-17.50959648
3.6199999999999997,362,-0.027999999999999997,-0.772,-0.4970000000000001,-3.8388186,-0.2291832000000001,2.2345362,54.21901554,-2.38923486,-17.498137319999998
3.63,363,-0.034,-0.775,-0.5,-4.2398892,-0.4583664000000001,2.0053530000000004,54.17890848,-2.4064236,-17.492407739999994
3.6399999999999997,364,-0.036000000000000004,-0.775,-0.5,-4.3544808,-0.4583664000000001,1.9480572,54.13307184,-2.42361234,-17.48667816
3.65,365,-0.038,-0.778,-0.499,-4.297185,-0.6302538000000001,2.1199446,54.09869436,-2.44653066,-17.48094858
3.6599999999999997,366,-0.037000000000000005,-0.784,-0.4970000000000001,-4.8701430000000006,-0.8021411999999999,2.291832,54.05285772,-2.46944898,-17.475219
3.67,367,-0.027999999999999997,-0.784,-0.5,-6.0160589999999985,-0.6875496,2.291832,53.98983234,-2.4923672999999997,-17.46375984
3.6799999999999997,368,-0.021,-0.785,-0.502,-6.3025379999999975,-1.0886202,2.291832,53.92680696,-2.5210152000000003,-17.46375984
3.69,369,-0.017,-0.7879999999999999,-0.49,-7.2765666,-0.9740286,2.1199446,53.85232241999999,-2.54393352,-17.45803026
3.6999999999999997,370,-0.021,-0.804,-0.495,-8.4224826,-1.145916,2.0626488000000003,53.78356746000001,-2.5611222600000003,-17.45803026
3.71,371,-0.021,-0.8029999999999999,-0.499,-9.740286,-1.3178034,1.7761698000000001,53.68043501999999,-2.58404058,-17.45803026
3.7199999999999998,372,-0.033,-0.8,-0.503,-10.026765,-1.7188740000000002,1.3178034,53.58303216,-2.6069589,-17.46375984
3.73,373,-0.037000000000000005,-0.802,-0.503,-10.313244000000001,-1.7761698000000001,0.6875496,53.47989972000001,-2.62414764,-17.475219
3.7399999999999998,374,-0.040999999999999995,-0.8,-0.498,-11.0007936,-1.5469866,0.11459160000000004,53.36530812,-2.6356068,-17.48667816
3.75,375,-0.042,-0.797,-0.498,-12.032118,-1.6042823999999998,-0.286479,53.25644610000001,-2.64706596,-17.5038669
3.76,376,-0.040999999999999995,-0.797,-0.5,-13.120738199999998,-1.145916,-0.572958,53.124665760000006,-2.64706596,-17.52105564
3.77,377,-0.043,-0.7979999999999999,-0.507,-13.980175199999998,-0.9740286,-0.8594370000000001,52.98715583999999,-2.64706596,-17.5325148
3.78,378,-0.045,-0.8009999999999999,-0.511,-15.011499599999999,-0.7448454000000001,-0.9740286,52.83245718000001,-2.64706596,-17.54397396
3.79,379,-0.048,-0.807,-0.514,-15.6990492,-0.6302538000000001,-1.0313244000000001,52.67202894,-2.64706596,-17.561162699999993
3.8,380,-0.042,-0.81,-0.515,-16.558486199999994,-1.0886202,-1.2605076000000002,52.51733028,-2.6413363800000003,-17.57835144
3.81,381,-0.04,-0.815,-0.507,-17.246035799999998,-1.6615782,-1.432395,52.34544287999999,-2.6413363800000003,-17.60126976
3.82,382,-0.033,-0.8170000000000001,-0.513,-18.449247600000003,-1.6042823999999998,-1.7761698000000001,52.16209632,-2.6413363800000003,-17.62418808
3.83,383,-0.027999999999999997,-0.816,-0.523,-19.4232762,-1.3178034,-1.8907614,51.96156102,-2.6356068,-17.647106400000006
3.84,384,-0.027000000000000003,-0.809,-0.523,-19.9389384,-1.6042823999999998,-1.9480572,51.761025720000006,-2.6356068,-17.6757543
3.8499999999999996,385,-0.03,-0.8,-0.527,-20.5118964,-1.9480572,-2.0053530000000004,51.56622,-2.62987722,-17.704402199999997
3.86,386,-0.032,-0.795,-0.529,-20.912967000000002,-2.0626488000000003,-1.7761698000000001,51.35422554,-2.62987722,-17.733050100000003
3.8699999999999997,387,-0.031,-0.7959999999999999,-0.534,-21.4286292,-2.1772404,-1.4896908000000002,51.1365015,-2.6356068,-17.761698000000006
3.88,388,-0.035,-0.797,-0.5379999999999999,-22.345361999999998,-2.4064236,-1.0313244000000001,50.91304787999999,-2.64706596,-17.78461632
3.8899999999999997,389,-0.045,-0.797,-0.532,-23.0329116,-2.9793816000000004,-0.9167328000000001,50.67813510000001,-2.65852512,-17.818993799999994
3.9,390,-0.052000000000000005,-0.797,-0.522,-23.777757,-2.8074942000000003,-1.0886202,50.45468147999999,-2.67571386,-17.847641699999997
3.9099999999999997,391,-0.053,-0.794,-0.524,-24.809081399999997,-1.9480572,-1.6042823999999998,50.20257996,-2.67571386,-17.8762896
3.92,392,-0.052000000000000005,-0.7909999999999999,-0.525,-26.0122932,-1.432395,-1.9480572,49.93901928,-2.67571386,-17.899207920000006
3.9299999999999997,393,-0.048,-0.7909999999999999,-0.534,-27.6165756,-0.9167328000000001,-2.0053530000000004,49.66399944,-2.6699842800000004,-17.92212624
3.94,394,-0.047,-0.787,-0.545,-28.3041252,-0.8594370000000001,-1.6042823999999998,49.37752044,-2.6642547000000003,-17.93931498
3.9499999999999997,395,-0.044000000000000004,-0.7859999999999999,-0.54,-28.7051958,-0.9740286,-1.2605076000000002,49.09677102000001,-2.6642547000000003,-17.95650372
3.96,396,-0.042,-0.78,-0.532,-29.1062664,-0.572958,-0.7448454000000001,48.79883286,-2.6642547000000003,-17.96796288
3.9699999999999998,397,-0.043,-0.774,-0.534,-29.507337,-0.8594370000000001,-0.40107059999999994,48.5008947,-2.67571386,-17.97942204
3.98,398,-0.046,-0.77,-0.535,-30.022999199999997,-0.572958,-0.40107059999999994,48.19722696000001,-2.67571386,-17.98515162
3.9899999999999998,399,-0.051,-0.764,-0.531,-30.8251404,-0.4583664000000001,-0.40107059999999994,47.88782964,-2.68144344,-17.99661078
4.0,400,-0.052000000000000005,-0.762,-0.5379999999999999,-32.085648000000006,-0.1718874,-0.572958,47.57270274,-2.68717302,-18.002340359999994
4.01,401,-0.055,-0.7609999999999999,-0.532,-32.945085,0.286479,-0.7448454000000001,47.24038710000001,-2.68144344,-18.002340359999994
4.02,402,-0.053,-0.76,-0.531,-33.6326346,0.7448454000000001,-0.8594370000000001,46.896612299999994,-2.67571386,-18.00806994
4.03,403,-0.049,-0.754,-0.54,-34.37748,1.432395,-0.9167328000000001,46.54710792,-2.6642547000000003,-18.002340359999994
4.04,404,-0.046,-0.746,-0.535,-34.3201842,2.291832,-1.0313244000000001,46.19760354,-2.64706596,-17.99661078
4.05,405,-0.046,-0.7440000000000001,-0.552,-35.236917,2.9220858,-0.8594370000000001,45.84809916,-2.62414764,-17.97942204
4.06,406,-0.051,-0.735,-0.5589999999999999,-35.9244666,2.5783110000000002,-0.7448454000000001,45.48713562,-2.6069589,-17.96796288
4.07,407,-0.05,-0.73,-0.5670000000000001,-36.669312,2.3491277999999998,-0.057295800000000015,45.10898334,-2.59549974,-17.95077414
4.08,408,-0.048,-0.725,-0.563,-37.1849742,2.291832,0.9167328000000001,44.73083106,-2.58977016,-17.927855819999994
4.09,409,-0.046,-0.7240000000000001,-0.5479999999999999,-37.52874900000001,1.8907614,1.8907614,44.34694920000001,-2.59549974,-17.9049375
4.1,410,-0.044000000000000004,-0.722,-0.5379999999999999,-38.159002799999996,2.1199446,2.4637194,43.9745265,-2.6012293200000003,-17.870560020000006
4.109999999999999,411,-0.043,-0.7190000000000001,-0.534,-38.3308902,2.1772404,2.4064236,43.58491506,-2.61268848,-17.84191212
4.12,412,-0.04,-0.715,-0.53,-38.10170700000001,2.4637194,1.7188740000000002,43.19530362,-2.61268848,-17.81326422
4.13,413,-0.039,-0.718,-0.529,-38.0444112,2.8074942000000003,0.9167328000000001,42.80569218,-2.6012293200000003,-17.78461632
4.14,414,-0.038,-0.7240000000000001,-0.53,-38.0444112,2.86479,0.3437748,42.41608074,-2.58977016,-17.761698000000006
4.1499999999999995,415,-0.032,-0.732,-0.526,-37.586044799999996,3.0939732,-0.1718874,42.05511720000001,-2.56685184,-17.74450926
4.16,416,-0.028999999999999998,-0.738,-0.524,-37.1849742,3.6096353999999997,0.0,41.67696492,-2.5496631,-17.72159094
4.17,417,-0.033,-0.745,-0.516,-37.1849742,3.4377480000000005,0.3437748,41.29881264,-2.53247436,-17.69867262
4.18,418,-0.037000000000000005,-0.753,-0.511,-37.299565799999996,3.5523396000000003,0.9167328000000001,40.91493078,-2.51528562,-17.66429514
4.1899999999999995,419,-0.04,-0.757,-0.518,-37.0703826,3.4377480000000005,1.8907614,40.5367785,-2.50955604,-17.62991766
4.2,420,-0.043,-0.76,-0.515,-36.4401288,3.5523396000000003,2.9793816000000004,40.1930037,-2.50955604,-17.58408102
4.21,421,-0.047,-0.759,-0.516,-36.2109456,3.5523396000000003,3.9534102,39.820581,-2.50955604,-17.5325148
4.22,422,-0.049,-0.759,-0.522,-35.695283399999994,4.1252976000000015,4.4117766,39.45388788,-2.51528562,-17.46948942
4.2299999999999995,423,-0.046,-0.755,-0.523,-35.4088044,4.6982555999999995,4.297185,39.09292434,-2.50955604,-17.40646404
4.24,424,-0.046,-0.7509999999999999,-0.522,-35.236917,5.3285094000000015,4.0680017999999984,38.7319608,-2.50382646,-17.34343866
4.25,425,-0.044000000000000004,-0.748,-0.51,-35.17962120000001,5.6722842,3.6669312000000014,38.39391558,-2.48663772,-17.280413279999998
4.26,426,-0.04,-0.743,-0.511,-35.3515086,6.0733548,3.2085647999999996,38.03295204,-2.4637194,-17.2173879
4.27,427,-0.04,-0.737,-0.507,-35.4088044,6.589017,2.86479,37.67198850000001,-2.4350715000000003,-17.15436252
4.28,428,-0.035,-0.7340000000000001,-0.505,-35.809875,7.3911582,2.5783110000000002,37.30529538,-2.40069402,-17.085607560000003
4.29,429,-0.028999999999999998,-0.732,-0.494,-35.9817624,8.136003599999999,2.5783110000000002,36.93287268,-2.36058696,-17.0168526
4.3,430,-0.027000000000000003,-0.731,-0.47600000000000003,-36.4401288,8.880849000000003,2.6356068,36.58909788,-2.30902074,-16.94236806
4.31,431,-0.026000000000000002,-0.727,-0.467,-36.6120162,10.026765,2.9793816000000004,36.2109456,-2.25172494,-16.85642436
4.32,432,-0.027000000000000003,-0.726,-0.456,-36.554720399999994,11.172680999999999,3.2085647999999996,35.83279331999999,-2.18869956,-16.764751080000003
4.33,433,-0.031,-0.7190000000000001,-0.43799999999999994,-36.6120162,11.917526400000002,3.4377480000000005,35.45464104,-2.1199446,-16.66161864
4.34,434,-0.036000000000000004,-0.7140000000000001,-0.4320000000000001,-36.6120162,12.834259199999998,3.7815228,35.076488760000004,-2.04546006,-16.5584862
4.35,435,-0.037000000000000005,-0.705,-0.424,-36.32553720000001,14.381245800000002,3.6669312000000014,34.73271396,-1.9595163600000003,-16.4438946
4.36,436,-0.031,-0.6970000000000001,-0.41200000000000003,-35.809875,15.9855282,3.4950437999999995,34.36029126,-1.85638392,-16.323573420000002
4.37,437,-0.025,-0.69,-0.401,-35.5806918,17.589810600000003,3.2658606,33.99359814,-1.74179232,-16.19179308
4.38,438,-0.024,-0.682,-0.389,-35.3515086,19.0222056,2.9220858,33.626905019999995,-1.6042824000000002,-16.060012739999998
4.39,439,-0.02,-0.675,-0.37799999999999995,-35.0650296,20.3973048,2.291832,33.265941479999995,-1.4610428999999998,-15.92250282
4.3999999999999995,440,-0.012,-0.6729999999999999,-0.374,-34.8358464,21.829699800000004,2.3491277999999998,32.92789626,-1.30061466,-15.7849929
4.41,441,-0.006,-0.669,-0.355,-34.66395900000001,22.517249399999997,2.7501984,32.572662300000005,-1.13445684,-15.63602382
4.42,442,0.004,-0.6659999999999999,-0.337,-34.60666320000001,23.204798999999998,2.86479,32.211698760000004,-0.96256944,-15.48132516
4.43,443,0.013999999999999999,-0.6629999999999999,-0.311,-34.262888399999994,24.522602399999997,2.7501984,31.86219438,-0.7792228800000001,-15.326626499999998
4.4399999999999995,444,0.022000000000000002,-0.657,-0.298,-33.5753388,25.84040580000001,2.291832,31.51269000000001,-0.5844171599999999,-15.166198259999998
4.45,445,0.019,-0.642,-0.273,-32.2002396,27.788463,1.6042823999999998,31.20902226,-0.36669312,-15.000040439999998
4.46,446,0.008,-0.623,-0.253,-31.111619399999995,28.877083199999998,0.9167328000000001,30.88816578,-0.13178034,-14.8396122
4.47,447,-0.003,-0.595,-0.24100000000000002,-28.81978740000001,29.507337,0.0,30.59022762,0.10313244,-14.684913540000002
4.4799999999999995,448,-0.016,-0.564,-0.233,-25.78311,29.793815999999996,-0.6875496,30.32093736,0.35523396,-14.53021488
4.49,449,-0.03,-0.53,-0.23,-22.7464326,29.9084076,-1.6042823999999998,30.09175416,0.6073354799999999,-14.39270496
4.5,450,-0.049,-0.501,-0.195,-20.2254174,31.3980984,-2.9220858,29.89694844,0.8823553199999999,-14.25519504
4.51,451,-0.068,-0.496,-0.183,-20.7410796,36.7266078,-4.3544808,29.68495398,1.20894138,-14.10049638
4.52,452,-0.066,-0.524,-0.249,-25.8977016,41.883229799999995,-5.3858052,29.421393300000002,1.5870936600000003,-13.93433856
4.53,453,-0.055999999999999994,-0.586,-0.40299999999999997,-33.6899304,43.7166954,-5.7868758000000025,29.0776185,1.98243468,-13.76245116
4.54,454,-0.036000000000000004,-0.674,-0.563,-43.029145799999995,44.748019799999994,-5.6149884000000005,28.64217042,2.38350528,-13.584834179999998
4.55,455,-0.033,-0.7759999999999999,-0.688,-55.92070079999999,43.65939960000001,-3.6096353999999997,28.09213074,2.76738714,-13.40148762
4.56,456,-0.021,-0.893,-0.8170000000000001,-71.61975,40.90920120000001,-1.0313244000000001,27.37020366,3.11689152,-13.21241148
4.57,457,0.013000000000000001,-1.005,-0.882,-87.1469118,36.4974246,1.7188740000000002,26.49357792,3.4091001000000003,-13.01760576
4.58,458,0.09300000000000001,-1.1340000000000001,-0.9440000000000001,-103.9345812,32.372127,3.2085647999999996,25.44506478,3.666931200000001,-12.839988780000002
4.59,459,0.17800000000000002,-1.208,-0.9840000000000001,-116.65424879999999,28.533308399999996,2.0626488000000003,24.264771300000003,3.896114400000001,-12.691019699999998
4.6,460,0.25,-1.202,-0.946,-122.613012,23.4339822,0.11459160000000004,23.032911600000002,4.09092012,-12.58788726
4.61,461,0.249,-1.12,-0.9670000000000001,-127.3685634,16.4438946,-1.2032118,21.743756100000002,4.22270046,-12.53059146
4.62,462,0.245,-0.991,-0.93,-131.60845260000002,9.7975818,-3.5523396000000003,20.40303438,4.30864416,-12.5191323
4.63,463,0.223,-0.875,-0.894,-139.2860898,1.5469866,-7.448453999999999,18.98782812,4.3315624800000005,-12.576428100000001
4.64,464,0.18600000000000005,-0.76,-0.8370000000000001,-145.0156698,-7.5630456000000015,-12.4904844,17.5038669,4.27999626,-12.7196676
4.6499999999999995,465,0.133,-0.6659999999999999,-0.76,-148.682601,-14.896907999999998,-17.303331600000003,15.99698736,4.17113424,-12.920202899999998
4.66,466,0.053,-0.595,-0.618,-145.93240260000005,-24.637194,-20.9702628,14.501566980000002,3.97059894,-13.18376358
4.67,467,0.040999999999999995,-0.508,-0.461,-138.5412444,-29.335449600000004,-24.2934192,13.07490156,3.73568616,-13.4931609
4.68,468,0.002,-0.451,-0.24100000000000002,-130.7490156,-31.856464799999998,-29.0489706,11.72845026,3.47212548,-13.84266528
4.6899999999999995,469,-0.069,-0.364,-0.114,-126.96749280000002,-30.366774000000003,-34.60666320000001,10.42210602,3.2314831199999987,-14.2380063
4.7,470,-0.094,-0.28800000000000003,-0.084,-121.00872959999998,-30.93973200000001,-38.67466500000001,9.18451674,2.9793816000000004,-14.67345438
4.71,471,-0.075,-0.233,-0.008,-118.315827,-29.1062664,-37.81522800000001,7.9641161999999985,2.73873924,-15.08598414
4.72,472,-0.09699999999999999,-0.12300000000000001,0.027999999999999997,-123.18597,-26.8717302,-31.627281600000003,6.7036086,2.49809688,-15.42975894
4.7299999999999995,473,-0.171,-0.012,0.109,-124.44647759999998,-25.210151999999997,-24.2361234,5.4316418399999975,2.2631841,-15.6990492
4.74,474,-0.326,0.040999999999999995,0.188,-117.2272068,-12.776963400000001,-14.381245800000002,4.23415962,2.13713334,-15.84801828
4.75,475,-0.39299999999999996,0.21100000000000002,0.16,-99.2936214,3.8388186,-7.2192707999999985,3.214294380000001,2.1485925000000003,-15.90531408
4.76,476,-0.385,0.249,0.163,-66.9214944,17.7044022,-0.286479,2.53247436,2.3147503200000004,-15.888125340000002
4.77,477,-0.292,0.363,0.132,-50.9359662,29.2781538,2.86479,2.01681216,2.59549974,-15.83655912
4.78,478,-0.19,0.603,0.005,-46.123119,39.19032720000001,0.4583664000000001,1.5412570200000002,2.9793816000000004,-15.80791122
4.79,479,-0.12300000000000001,0.7390000000000001,0.01,-32.085648000000006,43.3729206,-2.3491277999999998,1.20894138,3.40337052,-15.80791122
4.8,480,-0.069,0.784,-0.01,-23.5485738,50.9359662,-1.6042823999999998,0.91100322,3.90184398,-15.796452060000002
4.81,481,-0.146,0.795,0.20600000000000002,-19.2513888,69.4425096,1.3178034,0.70473834,4.5836640000000015,-15.756345000000001
4.82,482,-0.316,0.836,0.273,-16.902261,94.42347840000001,2.291832,0.52712136,5.51185596,-15.69331962
4.83,483,-0.364,0.934,0.129,1.2032118,121.86816659999998,-1.6615782,0.52712136,6.72079734,-15.66467172
4.84,484,-0.48700000000000004,0.9570000000000001,-0.424,11.0007936,138.1401738,-5.443101,0.61879464,8.08443738,-15.6704013
4.85,485,-1.051,1.022,-2.705,1.3750992,130.5771282,-12.3758928,0.6016058999999999,9.37359288,-15.74488584
4.86,486,-0.823,1.972,-3.9960000000000004,59.35844880000001,102.3302988,-42.91455420000001,1.12299768,10.399187699999999,-16.140226860000002
4.87,487,1.6380000000000001,3.412,-3.9960000000000004,163.12114259999996,94.8818448,-44.8626114,2.68717302,11.3732163,-16.54702704
4.88,488,2.827,1.1640000000000001,-3.9960000000000004,-6.9327918,151.1463204,5.2712136,2.6356068,12.857177520000002,-16.37513964
4.89,489,2.238,0.764,-3.9960000000000004,-68.8695516,157.73533740000005,7.6203414,1.9595163600000003,14.39843454,-16.18033392
4.8999999999999995,490,1.204,0.401,-3.995,-31.856464799999998,140.37471000000002,-16.386598799999998,1.59282324,15.7849929,-16.26627762
4.91,491,0.579,-0.16399999999999998,-3.185,-32.085648000000006,131.207382,-22.1734746,1.20894138,17.085607560000003,-16.420976279999998
4.92,492,0.4920000000000001,-0.307,-2.01,-52.7694318,108.002583,-13.464512999999998,0.6302538000000001,18.14557986,-16.50691998
4.93,493,0.731,-0.258,-1.12,-30.595957199999997,85.1415588,11.2872726,0.35523396,18.982098540000006,-16.35222132
4.9399999999999995,494,0.885,-0.40299999999999997,-0.56,-11.5737516,65.7755784,34.1482968,0.36096354,19.629541080000006,-15.96833946
4.95,495,1.002,-0.3720000000000001,-0.35200000000000004,-14.7250206,46.0658232,30.366774000000003,0.33231564,20.12228496,-15.63029424
4.96,496,1.2,-0.122,-0.364,-15.011499599999999,29.621928600000004,10.3705398,0.21772404,20.41449354,-15.509973059999998
4.97,497,1.0759999999999998,0.271,-0.22899999999999998,8.4224826,21.314037600000002,-6.8182002000000015,0.27501984,20.626488,-15.57872802
4.9799999999999995,498,0.775,0.669,-0.184,6.8182002000000015,13.9228794,-27.043617600000005,0.24064236,20.7697275,-15.859477439999996
4.99,499,0.545,0.775,-0.256,16.1001198,10.5424272,-33.3461556,0.28074942,20.87858952,-16.214711400000002
5.0,500,0.41100000000000003,0.6559999999999999,-0.214,21.4286292,5.042030400000002,-32.7731976,0.31512690000000004,20.95307406,-16.58140452
5.01,501,0.184,0.569,-0.156,17.9335854,0.057295800000000015,-26.8717302,0.39534102,20.95880364,-16.86788352
5.02,502,-0.128,0.55,-0.04,9.7975818,8.8235532,-21.886995600000002,0.40680018,21.04474734,-17.1027963
5.03,503,-0.275,0.423,-0.055999999999999994,8.078707799999998,20.05353,-14.7823164,0.43544808,21.25101222,-17.251765380000002
5.04,504,-0.179,0.23,-0.151,4.8701430000000006,26.069589,-2.4064236,0.47555514,21.50884332,-17.268954119999997
5.05,505,0.037000000000000005,0.145,-0.317,0.572958,30.252182399999995,2.4637194,0.48128472,21.80678148,-17.23457664
5.06,506,0.313,0.11199999999999999,-0.4970000000000001,-1.4896908000000002,28.361421000000004,2.0053530000000004,0.47555514,22.0875309,-17.20019916
5.07,507,0.523,0.131,-0.652,-0.8594370000000001,16.1001198,-1.7188740000000002,0.4583664000000001,22.24795914,-17.21165832
5.08,508,0.745,0.157,-0.737,-0.572958,-1.8334656000000005,-6.990087599999999,0.42398892,22.22504082,-17.286142859999998
5.09,509,0.882,0.231,-0.8029999999999999,3.6096353999999997,-18.5638392,-12.1467096,0.41252976,22.04742384,-17.42365278
5.1,510,0.8959999999999999,0.272,-0.885,6.5317212,-35.6379876,-16.959556799999998,0.39534102,21.7151082,-17.62418808
5.11,511,0.764,0.34600000000000003,-0.95,5.9014674000000005,-46.8106686,-20.6837838,0.3724227000000001,21.2567418,-17.86483044
5.12,512,0.5710000000000001,0.489,-1.022,1.145916,-48.8160216,-23.319390600000002,0.29793816,20.77545708,-18.1341207
5.13,513,0.48100000000000004,0.6,-1.067,-5.0993262,-43.888582799999995,-24.9809688,0.14896908,20.340009,-18.409140540000006
5.14,514,0.484,0.632,-1.0759999999999998,-10.084060800000001,-39.4195104,-24.809081399999997,-0.03437748,19.950397560000006,-18.68416038
5.1499999999999995,515,0.564,0.5379999999999999,-1.052,-8.3651868,-40.5654264,-22.91832,-0.22345362,19.55505654,-18.94199148
5.16,516,0.632,0.418,-1.015,-9.568398599999998,-46.2377106,-20.7410796,-0.38961144,19.09669014,-19.17117468
5.17,517,0.677,0.36,-1.008,-17.6471064,-51.7381074,-20.05353,-0.63598338,18.58102794,-19.3946283
5.18,518,0.638,0.385,-1.005,-25.210151999999997,-53.858052,-17.9335854,-0.9453807,18.048177,-19.58370444
5.1899999999999995,519,0.624,0.429,-1.0490000000000002,-25.3247436,-51.33703679999999,-12.4904844,-1.23758928,17.5325148,-19.72121436
5.2,520,0.552,0.449,-1.051,-23.4339822,-53.571573,-4.9274388,-1.50114996,17.00539344,-19.77851016
5.21,521,0.435,0.42,-1.013,-21.485925,-50.47759979999999,1.5469866,-1.7074148399999998,16.50691998,-19.75559184
5.22,522,0.33799999999999997,0.331,-1.005,-16.959556799999998,-40.04976420000001,7.734933000000002,-1.85065434,16.11157896,-19.67537772
5.2299999999999995,523,0.252,0.19399999999999998,-1.001,-12.2040054,-29.507337,12.4904844,-1.93659804,15.81937038,-19.54359738
5.24,524,0.22,0.044000000000000004,-0.982,-10.3705398,-21.7151082,14.438541599999999,-1.99962342,15.60737592,-19.38889872
5.25,525,0.248,-0.083,-0.9470000000000001,-9.224623800000002,-17.246035799999998,15.6417534,-2.02254174,15.441218099999999,-19.2227409
5.26,526,0.27699999999999997,-0.153,-0.917,-6.1879464,-15.756345,16.329303,-2.03973048,15.29224902,-19.0508535
5.27,527,0.29600000000000004,-0.175,-0.8959999999999999,-2.2345362,-18.6784308,16.902261,-2.01108258,15.10890246,-18.878966100000003
5.28,528,0.316,-0.158,-0.889,0.0,-23.777757,17.303331600000003,-1.96524594,14.879719259999998,-18.69561954
5.29,529,0.28600000000000003,-0.128,-0.8959999999999999,1.2032118,-29.621928600000004,17.589810600000003,-1.90222056,14.593240260000002,-18.51227298
5.3,530,0.265,-0.08800000000000001,-0.889,1.3750992,-36.1536498,17.303331600000003,-1.82773602,14.24373588,-18.334656000000006
5.31,531,0.244,-0.053,-0.8809999999999999,0.8021411999999999,-42.112413000000004,17.0741484,-1.77044022,13.83120612,-18.15703902
5.32,532,0.205,-0.040999999999999995,-0.871,1.6042823999999998,-45.3782736,16.386598799999998,-1.7074148399999998,13.390028460000002,-17.9908812
5.33,533,0.16,-0.05,-0.866,2.4064236,-46.7533728,16.329303,-1.6386598799999998,12.93166206,-17.818993799999994
5.34,534,0.11199999999999999,-0.07,-0.895,2.1199446,-47.0398518,15.126091199999998,-1.5756344999999998,12.46756608,-17.66429514
5.35,535,0.079,-0.096,-0.9259999999999999,1.8334656000000005,-45.4928652,14.667724800000002,-1.50687954,12.00919968,-17.51532606
5.36,536,0.06,-0.109,-0.968,1.145916,-42.05511720000001,13.3499214,-1.4610428999999998,11.59666992,-17.37781614
5.37,537,0.06,-0.11800000000000001,-0.988,-0.1718874,-37.24227,11.802934800000001,-1.432395,11.229976800000001,-17.26322454
5.38,538,0.065,-0.107,-1.0190000000000001,-0.3437748,-32.085648000000006,11.0007936,-1.40947668,10.914849900000002,-17.14863294
5.39,539,0.08199999999999999,-0.1,-1.036,0.7448454000000001,-27.272800800000002,10.026765,-1.38082878,10.64555964,-17.05123008
5.3999999999999995,540,0.08800000000000001,-0.10400000000000001,-1.051,1.7188740000000002,-23.2620948,9.396511199999999,-1.32353298,10.399187699999999,-16.95382722
5.41,541,0.086,-0.122,-1.06,1.8334656000000005,-18.9649098,8.7662574,-1.28342592,10.215841139999998,-16.86215394
5.42,542,0.09699999999999999,-0.14800000000000002,-1.073,-1.3178034,-12.032118,7.906820400000001,-1.28342592,10.09551996,-16.781939819999998
5.43,543,0.078,-0.161,-1.109,-2.4637194,-8.59437,7.0473834,-1.29488508,10.00957626,-16.71318486
5.4399999999999995,544,0.053,-0.158,-1.0859999999999999,0.3437748,-7.3911582,5.0993262,-1.28342592,9.9408213,-16.66161864
5.45,545,0.037000000000000005,-0.157,-1.026,2.6929026,-4.2398892,2.5783110000000002,-1.10580894,9.7689339,-16.61005242
5.46,546,0.042,-0.149,-1.004,1.6042823999999998,1.432395,-0.057295800000000015,-1.09434978,9.78039306,-16.61005242
5.47,547,0.036000000000000004,-0.136,-0.995,-1.0313244000000001,3.7242269999999995,-1.8907614,-1.10580894,9.82050012,-16.62724116
5.4799999999999995,548,0.043,-0.127,-0.9840000000000001,-2.5210152000000003,6.2452422,-3.2658606,-1.14018642,9.8835255,-16.66161864
5.49,549,0.051,-0.113,-0.955,-1.3750992,8.7662574,-4.297185,-1.16310474,9.969469199999999,-16.701725699999994
5.5,550,0.065,-0.105,-0.927,0.11459160000000004,10.886202,-4.9274388,-1.13445684,10.03822416,-16.74183276
5.51,551,0.061,-0.099,-0.9079999999999999,1.2032118,9.5111028,-5.2139178,-1.12872726,10.12989744,-16.79339898
5.52,552,0.057,-0.09300000000000001,-0.8959999999999999,1.432395,8.59437,-5.6722842,-1.12872726,10.215841139999998,-16.850694779999998
5.53,553,0.063,-0.086,-0.898,1.3750992,8.7089616,-6.589017,-1.12299768,10.30178484,-16.919449739999994
5.54,554,0.071,-0.071,-0.909,1.7188740000000002,8.250595200000001,-7.5057497999999985,-1.12299768,10.38199896,-16.99393428
5.55,555,0.083,-0.048,-0.924,2.4637194,6.589017,-8.078707799999998,-1.10007936,10.41064686,-17.0741484
5.56,556,0.096,-0.025,-0.9390000000000001,3.2658606,4.5263682,-8.59437,-1.08289062,10.4564835,-17.1600921
5.57,557,0.11199999999999999,0.0,-0.9490000000000001,4.2398892,3.4950437999999995,-8.8235532,-1.05424272,10.49086098,-17.246035799999998
5.58,558,0.131,0.032,-0.9620000000000001,4.4690724,4.4117766,-8.4224826,-1.0255948199999998,10.53096804,-17.331979500000006
5.59,559,0.152,0.059000000000000004,-0.976,4.3544808,7.0473834,-7.0473834,-0.9969469199999998,10.599723,-17.40646404
5.6,560,0.174,0.075,-0.992,3.7815228,9.9121734,-5.3858052,-0.9969469199999998,10.69139628,-17.46375984
5.61,561,0.19699999999999998,0.077,-1.005,3.2658606,11.802934800000001,-3.6669312000000014,-0.9740286,10.81171746,-17.498137319999998
5.62,562,0.221,0.069,-1.011,2.8074942000000003,12.6623718,-1.8907614,-0.95111028,10.93776822,-17.51532606
5.63,563,0.24600000000000002,0.057,-1.014,2.3491277999999998,12.9488508,-0.5156622000000001,-0.92819196,11.06381898,-17.52105564
5.64,564,0.271,0.040999999999999995,-1.008,2.0053530000000004,12.776963400000001,0.7448454000000001,-0.90527364,11.18986974,-17.51532606
5.6499999999999995,565,0.29100000000000004,0.028999999999999998,-1.002,1.6042823999999998,12.2040054,1.9480572,-0.89954406,11.3445684,-17.498137319999998
5.66,566,0.307,0.019,-0.995,1.2032118,11.172680999999999,3.0366774,-0.8823553199999999,11.45343042,-17.46375984
5.67,567,0.315,0.013999999999999999,-0.993,0.4583664000000001,9.5111028,4.010706000000001,-0.87089616,11.55083328,-17.42365278
5.68,568,0.316,0.012,-0.991,-0.3437748,7.161975,4.7555514,-0.86516658,11.61958824,-17.37208656
5.6899999999999995,569,0.311,0.011000000000000001,-0.98,-0.6302538000000001,5.3285094000000015,5.0993262,-0.8594370000000001,11.67688404,-17.32052034
5.7,570,0.313,0.006,-0.96,-1.2032118,4.8128472,5.3285094000000015,-0.87089616,11.78001648,-17.268954119999997
5.71,571,0.314,0.0,-0.946,-2.5210152000000003,4.6982555999999995,5.6149884000000005,-0.8823553199999999,11.82585312,-17.21165832
5.72,572,0.312,-0.009000000000000001,-0.9359999999999999,-3.0939732,3.9534102,5.844171599999999,-0.90527364,11.86596018,-17.15436252
5.7299999999999995,573,0.309,-0.018000000000000002,-0.9279999999999999,-2.9793816000000004,3.7815228,5.958763200000001,-0.92246238,11.90606724,-17.09133714
5.74,574,0.308,-0.024,-0.929,-2.9793816000000004,4.297185,6.130650599999999,-0.93965112,11.946174300000001,-17.02831176
5.75,575,0.306,-0.027000000000000003,-0.938,-3.1512689999999997,5.0993262,6.3025379999999975,-0.95111028,12.03784758,-16.96528638
5.76,576,0.299,-0.027999999999999997,-0.9490000000000001,-3.3231564,5.1566220000000005,6.3598338,-0.96829902,12.0894138,-16.89653142
5.77,577,0.29,-0.028999999999999998,-0.9540000000000001,-3.3231564,4.9274388,6.3025379999999975,-0.9912173399999998,12.14098002,-16.83350604
5.78,578,0.287,-0.031,-0.955,-3.2085647999999996,4.6982555999999995,6.0733548,-1.00840608,12.186816659999998,-16.77048066
5.79,579,0.28600000000000003,-0.035,-0.955,-2.9793816000000004,4.297185,5.958763200000001,-1.0255948199999998,12.2326533,-16.707455279999998
5.8,580,0.282,-0.037000000000000005,-0.955,-2.7501984,3.2658606,5.6149884000000005,-1.0255948199999998,12.30140826,-16.650159480000006
5.81,581,0.27699999999999997,-0.04,-0.956,-2.5210152000000003,1.8334656000000005,4.8128472,-1.03705398,12.32432658,-16.598593259999998
5.82,582,0.27,-0.044000000000000004,-0.956,-2.291832,0.286479,3.8388186,-1.05424272,12.32432658,-16.5584862
5.83,583,0.262,-0.052000000000000005,-0.956,-1.8907614,-1.5469866,2.6929026,-1.06570188,12.31286742,-16.53556788
5.84,584,0.256,-0.059000000000000004,-0.9540000000000001,-1.5469866,-3.0939732,1.5469866,-1.07716104,12.278489939999998,-16.51837914
5.85,585,0.248,-0.065,-0.953,-1.0886202,-4.297185,0.572958,-1.01413566,12.27276036,-16.501190400000002
5.86,586,0.243,-0.067,-0.95,-0.5156622000000001,-5.2712136,-0.1718874,-1.01986524,12.21546456,-16.501190400000002
5.87,587,0.239,-0.064,-0.9490000000000001,-0.057295800000000015,-6.130650599999999,-0.8021411999999999,-1.01986524,12.15816876,-16.51264956
5.88,588,0.235,-0.057999999999999996,-0.948,0.1718874,-6.6463128000000005,-1.2605076000000002,-1.01986524,12.0894138,-16.524108719999994
5.89,589,0.22899999999999998,-0.052000000000000005,-0.95,0.3437748,-6.875496000000001,-1.6042823999999998,-1.01986524,12.02065884,-16.54702704
5.8999999999999995,590,0.22699999999999998,-0.046,-0.956,0.3437748,-6.9327918,-1.9480572,-0.9912173399999998,11.96336304,-16.5584862
5.91,591,0.22399999999999998,-0.042,-0.96,0.3437748,-7.1046792000000005,-2.1772404,-0.9912173399999998,11.8888785,-16.58140452
5.92,592,0.223,-0.04,-0.963,0.1718874,-7.0473834,-2.5210152000000003,-0.9969469199999998,11.82012354,-16.61005242
5.93,593,0.223,-0.037000000000000005,-0.9640000000000001,0.057295800000000015,-6.9327918,-2.6356068,-0.9969469199999998,11.75136858,-16.638700319999998
5.9399999999999995,594,0.222,-0.037000000000000005,-0.9690000000000001,0.1718874,-6.9327918,-2.7501984,-1.0026765,11.68261362,-16.66734822
5.95,595,0.21899999999999997,-0.035,-0.9690000000000001,0.11459160000000004,-6.9327918,-2.86479,-0.98548776,11.61958824,-16.69599612
5.96,596,0.215,-0.032,-0.971,0.11459160000000004,-6.9327918,-2.9220858,-0.9912173399999998,11.55083328,-16.72464402
5.97,597,0.21100000000000002,-0.027000000000000003,-0.972,0.11459160000000004,-6.589017,-2.9793816000000004,-0.9912173399999998,11.48207832,-16.753291920000002
5.9799999999999995,598,0.20800000000000002,-0.022000000000000002,-0.9740000000000001,0.1718874,-6.1879464,-2.9793816000000004,-0.9969469199999998,11.41905294,-16.787669400000002
5.99,599,0.205,-0.015,-0.9740000000000001,0.1718874,-5.844171599999999,-2.86479,-1.0026765,11.36175714,-16.8163173
6.0,600,0.203,-0.013000000000000001,-0.9740000000000001,0.11459160000000004,-5.5003968,-2.7501984,-0.9969469199999998,11.31019092,-16.844965199999994
6.01,601,0.20199999999999999,-0.011000000000000001,-0.9740000000000001,0.11459160000000004,-5.2139178,-2.4637194,-0.9969469199999998,11.258624699999999,-16.86788352
6.02,602,0.198,-0.01,-0.971,0.0,-4.7555514,-2.2345362,-1.0026765,11.20705848,-16.89653142
6.03,603,0.196,-0.009000000000000001,-0.971,-0.11459160000000004,-4.2398892,-1.8907614,-1.00840608,11.16695142,-16.91372016
6.04,604,0.195,-0.008,-0.97,-0.286479,-3.6096353999999997,-1.4896908000000002,-1.01413566,11.13257394,-16.9309089
6.05,605,0.195,-0.006999999999999999,-0.9690000000000001,-0.3437748,-3.0366774,-1.0886202,-1.01413566,11.09246688,-16.94236806
6.06,606,0.19399999999999998,-0.006999999999999999,-0.9690000000000001,-0.572958,-2.4064236,-0.8021411999999999,-1.01986524,11.06954856,-16.94809764
6.07,607,0.195,-0.006999999999999999,-0.9690000000000001,-0.7448454000000001,-1.8907614,-0.2291832000000001,-1.0313244000000001,11.04663024,-16.95382722
6.08,608,0.19399999999999998,-0.009000000000000001,-0.971,-0.8594370000000001,-1.4896908000000002,-0.057295800000000015,-1.03705398,11.03517108,-16.95382722
6.09,609,0.193,-0.012,-0.973,-0.9167328000000001,-1.432395,0.1718874,-1.04851314,11.01798234,-16.94809764
6.1,610,0.192,-0.015,-0.973,-0.9740286,-1.3750992,0.40107059999999994,-1.0313244000000001,10.98933444,-16.94236806
6.11,611,0.19,-0.017,-0.973,-1.0886202,-1.3750992,0.5156622000000001,-1.03705398,10.97787528,-16.93663848
6.12,612,0.19,-0.021,-0.972,-1.2605076000000002,-1.0886202,0.6302538000000001,-1.04851314,10.96641612,-16.9309089
6.13,613,0.192,-0.025,-0.971,-1.432395,-0.9167328000000001,0.8021411999999999,-1.06570188,10.95495696,-16.919449739999994
6.14,614,0.193,-0.028999999999999998,-0.97,-1.5469866,-0.8594370000000001,0.9167328000000001,-1.07716104,10.94922738,-16.90799058
6.15,615,0.195,-0.03,-0.97,-1.432395,-0.4583664000000001,1.2032118,-1.0313244000000001,10.943497800000001,-16.89080184
6.16,616,0.196,-0.031,-0.9690000000000001,-1.6042823999999998,-0.1718874,1.3750992,-1.04278356,10.93776822,-16.873613100000004
6.17,617,0.198,-0.032,-0.9690000000000001,-1.7761698000000001,0.11459160000000004,1.5469866,-1.0599723,10.93776822,-16.85642436
6.18,618,0.198,-0.034,-0.9670000000000001,-1.9480572,0.40107059999999994,1.4896908000000002,-1.07716104,10.943497800000001,-16.844965199999994
6.1899999999999995,619,0.201,-0.034,-0.9690000000000001,-1.8907614,0.6302538000000001,1.5469866,-1.09434978,10.94922738,-16.82777646
6.2,620,0.205,-0.035,-0.971,-1.7188740000000002,0.9167328000000001,1.6042823999999998,-1.0599723,10.972145699999999,-16.80485814
6.21,621,0.209,-0.037000000000000005,-0.975,-1.4896908000000002,1.0886202,1.5469866,-1.07143146,10.98360486,-16.787669400000002
6.22,622,0.212,-0.035,-0.975,-1.3750992,1.0313244000000001,1.5469866,-1.08289062,10.99506402,-16.77048066
6.2299999999999995,623,0.213,-0.035,-0.972,-1.5469866,0.9740286,1.3750992,-1.09434978,11.00652318,-16.753291920000002
6.24,624,0.213,-0.033,-0.971,-1.6615782,0.8594370000000001,1.2605076000000002,-1.11153852,11.01225276,-16.74183276
6.25,625,0.213,-0.031,-0.966,-1.6615782,0.7448454000000001,1.0313244000000001,-1.07143146,11.05235982,-16.72464402
6.26,626,0.215,-0.031,-0.965,-1.4896908000000002,0.8021411999999999,0.6302538000000001,-1.08289062,11.0580894,-16.71891444
6.27,627,0.218,-0.028999999999999998,-0.968,-1.3178034,0.9740286,0.40107059999999994,-1.10007936,11.06954856,-16.71318486
6.28,628,0.223,-0.025,-0.968,-0.9740286,1.0313244000000001,0.1718874,-1.10580894,11.08100772,-16.71318486
6.29,629,0.228,-0.023,-0.965,-0.8021411999999999,1.0313244000000001,-0.057295800000000015,-1.1172681,11.09246688,-16.71318486
6.3,630,0.231,-0.024,-0.96,-1.0886202,1.0886202,-0.2291832000000001,-1.07143146,11.18986974,-16.71318486
6.31,631,0.23199999999999998,-0.024,-0.956,-1.3750992,0.9740286,-0.286479,-1.0886202,11.19559932,-16.71318486
6.32,632,0.23600000000000002,-0.024,-0.956,-1.2032118,0.4583664000000001,-0.3437748,-1.10007936,11.2013289,-16.71891444
6.33,633,0.24,-0.024,-0.955,-1.0313244000000001,-0.057295800000000015,-0.40107059999999994,-1.11153852,11.2013289,-16.72464402
6.34,634,0.242,-0.023,-0.9590000000000001,-1.0886202,-0.5156622000000001,-0.3437748,-1.12299768,11.19559932,-16.72464402
6.35,635,0.243,-0.019,-0.968,-1.2032118,-0.6875496,-0.3437748,-1.10007936,11.29873176,-16.7303736
6.36,636,0.243,-0.015,-0.9740000000000001,-1.2032118,-0.9740286,-0.3437748,-1.11153852,11.2872726,-16.736103179999994
6.37,637,0.243,-0.013000000000000001,-0.976,-1.0313244000000001,-1.2605076000000002,-0.3437748,-1.12299768,11.27581344,-16.736103179999994
6.38,638,0.24,-0.013000000000000001,-0.976,-0.6302538000000001,-1.6615782,-0.3437748,-1.12872726,11.258624699999999,-16.74183276
6.39,639,0.23800000000000002,-0.013999999999999999,-0.973,-0.40107059999999994,-1.8334656000000005,-0.1718874,-1.13445684,11.24143596,-16.747562339999998
6.4,640,0.23199999999999998,-0.015,-0.9690000000000001,-0.286479,-2.3491277999999998,-0.1718874,-1.10580894,11.27581344,-16.747562339999998
6.41,641,0.226,-0.015,-0.968,-0.3437748,-2.5210152000000003,-0.1718874,-1.11153852,11.25289512,-16.747562339999998
6.42,642,0.223,-0.017,-0.9690000000000001,-0.4583664000000001,-2.4637194,-0.1718874,-1.1172681,11.22424722,-16.753291920000002
6.43,643,0.221,-0.018000000000000002,-0.968,-0.5156622000000001,-2.3491277999999998,-0.11459160000000004,-1.12299768,11.2013289,-16.753291920000002
6.4399999999999995,644,0.21899999999999997,-0.02,-0.9690000000000001,-0.572958,-2.291832,-0.11459160000000004,-1.12872726,11.17841058,-16.753291920000002
6.45,645,0.217,-0.021,-0.9690000000000001,-0.6302538000000001,-2.1772404,-0.11459160000000004,-1.09434978,11.19559932,-16.753291920000002
6.46,646,0.21600000000000005,-0.023,-0.9690000000000001,-0.572958,-2.291832,-0.057295800000000015,-1.10007936,11.172680999999999,-16.753291920000002
6.47,647,0.214,-0.024,-0.9690000000000001,-0.6302538000000001,-2.4064236,0.0,-1.10580894,11.149762679999998,-16.753291920000002
6.4799999999999995,648,0.213,-0.024,-0.9690000000000001,-0.6302538000000001,-2.4637194,0.057295800000000015,-1.11153852,11.12111478,-16.753291920000002
6.49,649,0.21100000000000002,-0.023,-0.9690000000000001,-0.7448454000000001,-2.3491277999999998,0.057295800000000015,-1.12299768,11.09819646,-16.747562339999998
6.5,650,0.20800000000000002,-0.024,-0.972,-0.8594370000000001,-2.291832,0.0,-1.0886202,11.09246688,-16.74183276
6.51,651,0.205,-0.025,-0.972,-1.0313244000000001,-2.1772404,0.0,-1.10007936,11.06954856,-16.74183276
6.52,652,0.203,-0.025,-0.971,-1.0886202,-2.2345362,-0.057295800000000015,-1.11153852,11.04663024,-16.747562339999998
6.53,653,0.201,-0.025,-0.971,-0.9167328000000001,-2.1772404,-0.11459160000000004,-1.1172681,11.029441499999999,-16.747562339999998
6.54,654,0.201,-0.027000000000000003,-0.971,-0.9167328000000001,-2.0626488000000003,-0.11459160000000004,-1.12872726,11.00652318,-16.747562339999998
6.55,655,0.19899999999999998,-0.028999999999999998,-0.968,-0.8021411999999999,-1.9480572,-0.057295800000000015,-1.07143146,10.98933444,-16.736103179999994
6.56,656,0.198,-0.027999999999999997,-0.971,-0.8594370000000001,-1.8907614,0.0,-1.08289062,10.96641612,-16.74183276
6.57,657,0.196,-0.027000000000000003,-0.972,-0.8021411999999999,-1.7188740000000002,0.0,-1.0886202,10.94922738,-16.74183276
6.58,658,0.195,-0.025,-0.972,-0.572958,-1.432395,0.0,-1.09434978,10.93776822,-16.74183276
6.59,659,0.195,-0.023,-0.973,-0.4583664000000001,-1.145916,0.0,-1.10007936,10.92630906,-16.74183276
6.6,660,0.195,-0.021,-0.973,-0.3437748,-0.8021411999999999,-0.11459160000000004,-1.01413566,10.90912032,-16.72464402
6.61,661,0.196,-0.02,-0.971,-0.2291832000000001,-0.4583664000000001,-0.057295800000000015,-1.01413566,10.90339074,-16.72464402
6.62,662,0.198,-0.02,-0.97,-0.2291832000000001,-0.286479,-0.11459160000000004,-1.01986524,10.90339074,-16.7303736
6.63,663,0.20199999999999999,-0.019,-0.97,-0.4583664000000001,0.0,-0.11459160000000004,-1.0255948199999998,10.90339074,-16.7303736
6.64,664,0.203,-0.02,-0.971,-0.572958,0.0,-0.11459160000000004,-1.0313244000000001,10.90339074,-16.7303736
6.65,665,0.205,-0.019,-0.971,-0.5156622000000001,0.1718874,0.0,-0.9453807,10.96641612,-16.71891444
6.66,666,0.207,-0.017,-0.971,-0.4583664000000001,0.1718874,0.0,-0.95111028,10.96641612,-16.71891444
6.67,667,0.209,-0.017,-0.973,-0.3437748,0.2291832000000001,0.11459160000000004,-0.95111028,10.96641612,-16.71891444
6.68,668,0.21,-0.017,-0.973,-0.40107059999999994,0.286479,0.1718874,-0.95683986,10.972145699999999,-16.71891444
6.6899999999999995,669,0.209,-0.017,-0.972,-0.40107059999999994,0.286479,0.2291832000000001,-0.95683986,10.97787528,-16.71318486
6.7,670,0.21,-0.019,-0.971,-0.3437748,0.286479,0.2291832000000001,-0.87662574,11.04090066,-16.701725699999994
6.71,671,0.21100000000000002,-0.021,-0.972,-0.572958,0.1718874,0.2291832000000001,-0.8823553199999999,11.04663024,-16.701725699999994
6.72,672,0.212,-0.021,-0.971,-0.572958,0.1718874,0.2291832000000001,-0.8880849000000001,11.04663024,-16.69599612
6.7299999999999995,673,0.214,-0.022000000000000002,-0.972,-0.572958,0.2291832000000001,0.1718874,-0.89381448,11.04663024,-16.69599612
6.74,674,0.217,-0.02,-0.973,-0.572958,0.2291832000000001,0.3437748,-0.89954406,11.05235982,-16.69026654
6.75,675,0.21899999999999997,-0.02,-0.973,-0.5156622000000001,0.1718874,0.286479,-0.8250595199999999,11.172680999999999,-16.68453696
6.76,676,0.221,-0.021,-0.972,-0.5156622000000001,0.057295800000000015,0.2291832000000001,-0.8307891,11.172680999999999,-16.678807380000002
6.77,677,0.222,-0.021,-0.971,-0.572958,0.0,0.3437748,-0.8307891,11.172680999999999,-16.6730778
6.78,678,0.222,-0.021,-0.973,-0.4583664000000001,-0.057295800000000015,0.40107059999999994,-0.83651868,11.172680999999999,-16.6730778
6.79,679,0.22399999999999998,-0.022000000000000002,-0.976,-0.2291832000000001,-0.1718874,0.3437748,-0.8422482600000001,11.172680999999999,-16.66734822
6.8,680,0.222,-0.023,-0.977,-0.1718874,-0.3437748,0.4583664000000001,-0.76776372,11.25289512,-16.65588906
6.81,681,0.221,-0.022000000000000002,-0.977,-0.057295800000000015,-0.5156622000000001,0.4583664000000001,-0.76776372,11.24716554,-16.650159480000006
6.82,682,0.218,-0.023,-0.973,-0.1718874,-0.6875496,0.3437748,-0.76776372,11.24143596,-16.650159480000006
6.83,683,0.215,-0.022000000000000002,-0.97,-0.286479,-0.7448454000000001,0.3437748,-0.76776372,11.23570638,-16.6444299
6.84,684,0.213,-0.022000000000000002,-0.97,-0.286479,-0.7448454000000001,0.1718874,-0.7734933,11.22424722,-16.6444299
6.85,685,0.212,-0.022000000000000002,-0.972,-0.057295800000000015,-0.6302538000000001,0.057295800000000015,-0.69900876,11.27008386,-16.632970739999998
6.86,686,0.212,-0.02,-0.973,0.0,-0.5156622000000001,0.0,-0.69900876,11.26435428,-16.632970739999998
6.87,687,0.212,-0.019,-0.97,0.057295800000000015,-0.3437748,-0.11459160000000004,-0.69900876,11.26435428,-16.632970739999998
6.88,688,0.21100000000000002,-0.022000000000000002,-0.963,0.11459160000000004,-0.2291832000000001,-0.2291832000000001,-0.69900876,11.258624699999999,-16.638700319999998
6.89,689,0.21100000000000002,-0.027000000000000003,-0.956,-0.11459160000000004,-0.1718874,-0.2291832000000001,-0.69900876,11.258624699999999,-16.638700319999998
6.9,690,0.214,-0.028999999999999998,-0.956,-0.2291832000000001,-0.3437748,-0.1718874,-0.61306506,11.32165008,-16.632970739999998
6.91,691,0.217,-0.027999999999999997,-0.958,-0.2291832000000001,-0.8021411999999999,-0.1718874,-0.61879464,11.31019092,-16.632970739999998
6.92,692,0.22,-0.027000000000000003,-0.963,-0.2291832000000001,-0.9740286,-0.11459160000000004,-0.61879464,11.30446134,-16.632970739999998
6.93,693,0.21899999999999997,-0.023,-0.971,-0.2291832000000001,-1.0886202,0.0,-0.62452422,11.29300218,-16.632970739999998
6.9399999999999995,694,0.214,-0.021,-0.98,-0.2291832000000001,-1.145916,0.0,-0.62452422,11.28154302,-16.632970739999998
6.95,695,0.214,-0.018000000000000002,-0.98,0.0,-1.2605076000000002,0.0,-0.59587632,11.29873176,-16.632970739999998
6.96,696,0.212,-0.02,-0.978,0.286479,-1.145916,0.1718874,-0.59014674,11.2872726,-16.632970739999998
6.97,697,0.21100000000000002,-0.021,-0.976,0.40107059999999994,-1.145916,0.11459160000000004,-0.59014674,11.27581344,-16.62724116
6.9799999999999995,698,0.20800000000000002,-0.021,-0.9740000000000001,0.3437748,-1.2032118,0.1718874,-0.5844171599999999,11.26435428,-16.62724116
6.99,699,0.205,-0.019,-0.973,0.2291832000000001,-1.0886202,0.2291832000000001,-0.5786875800000001,11.25289512,-16.62724116
7.0,700,0.203,-0.019,-0.972,0.057295800000000015,-0.8021411999999999,0.2291832000000001,-0.5443101,11.25289512,-16.615782
7.01,701,0.20199999999999999,-0.019,-0.97,0.0,-0.572958,0.2291832000000001,-0.5443101,11.24716554,-16.615782
7.02,702,0.203,-0.018000000000000002,-0.9690000000000001,0.0,-0.3437748,0.11459160000000004,-0.5443101,11.24143596,-16.615782
7.03,703,0.205,-0.021,-0.9670000000000001,0.2291832000000001,-0.057295800000000015,0.1718874,-0.5443101,11.24143596,-16.61005242
7.04,704,0.20600000000000002,-0.022000000000000002,-0.9670000000000001,0.286479,0.0,0.057295800000000015,-0.53858052,11.24143596,-16.61005242
7.05,705,0.20800000000000002,-0.023,-0.966,0.2291832000000001,-0.057295800000000015,0.0,-0.44690724,11.29300218,-16.598593259999998
7.06,706,0.20800000000000002,-0.023,-0.966,0.1718874,-0.286479,0.11459160000000004,-0.44690724,11.2872726,-16.598593259999998
7.07,707,0.209,-0.023,-0.968,0.11459160000000004,-0.2291832000000001,0.1718874,-0.44117766,11.2872726,-16.59286368
7.08,708,0.209,-0.024,-0.97,0.057295800000000015,-0.11459160000000004,0.2291832000000001,-0.44117766,11.2872726,-16.59286368
7.09,709,0.20800000000000002,-0.026000000000000002,-0.972,0.11459160000000004,-0.11459160000000004,0.2291832000000001,-0.44117766,11.28154302,-16.5871341
7.1,710,0.207,-0.026000000000000002,-0.971,0.057295800000000015,-0.1718874,0.2291832000000001,-0.33804522,11.3159205,-16.56994536
7.11,711,0.20800000000000002,-0.027999999999999997,-0.968,0.057295800000000015,-0.1718874,0.1718874,-0.33804522,11.3159205,-16.56994536
7.12,712,0.20800000000000002,-0.028999999999999998,-0.9670000000000001,0.11459160000000004,-0.1718874,0.2291832000000001,-0.33804522,11.31019092,-16.56421578
7.13,713,0.21,-0.031,-0.9670000000000001,0.057295800000000015,-0.2291832000000001,0.286479,-0.33804522,11.31019092,-16.56421578
7.14,714,0.21,-0.032,-0.966,0.0,-0.1718874,0.40107059999999994,-0.33804522,11.30446134,-16.5584862
7.15,715,0.21100000000000002,-0.032,-0.9690000000000001,0.0,-0.1718874,0.4583664000000001,-0.24064236,11.35602756,-16.541297460000006
7.16,716,0.212,-0.03,-0.971,0.0,-0.057295800000000015,0.4583664000000001,-0.24064236,11.35602756,-16.53556788
7.17,717,0.21100000000000002,-0.027000000000000003,-0.972,0.057295800000000015,0.3437748,0.40107059999999994,-0.24064236,11.35602756,-16.5298383
7.18,718,0.21100000000000002,-0.024,-0.972,0.11459160000000004,0.6302538000000001,0.2291832000000001,-0.23491278,11.36748672,-16.5298383
7.1899999999999995,719,0.212,-0.023,-0.97,0.2291832000000001,0.6302538000000001,0.286479,-0.23491278,11.3732163,-16.524108719999994
7.2,720,0.212,-0.024,-0.9690000000000001,0.2291832000000001,0.6875496,0.1718874,-0.20626488,11.40759378,-16.51837914
7.21,721,0.214,-0.023,-0.968,0.057295800000000015,0.6875496,0.1718874,-0.20053530000000008,11.41332336,-16.51837914
7.22,722,0.213,-0.023,-0.9690000000000001,0.0,0.6302538000000001,0.057295800000000015,-0.20053530000000008,11.41905294,-16.51837914
7.2299999999999995,723,0.214,-0.022000000000000002,-0.9690000000000001,0.057295800000000015,0.6875496,0.057295800000000015,-0.20053530000000008,11.42478252,-16.51837914
7.24,724,0.214,-0.022000000000000002,-0.97,0.1718874,0.6875496,0.11459160000000004,-0.20053530000000008,11.43624168,-16.51264956
7.25,725,0.213,-0.022000000000000002,-0.9670000000000001,0.2291832000000001,0.6875496,0.11459160000000004,-0.18334656,11.470619159999998,-16.51264956
7.26,726,0.213,-0.021,-0.966,0.3437748,0.6875496,0.2291832000000001,-0.17761697999999998,11.47634874,-16.50691998
7.27,727,0.213,-0.023,-0.965,0.286479,0.6302538000000001,0.1718874,-0.1718874,11.48207832,-16.50691998
7.28,728,0.214,-0.024,-0.966,0.11459160000000004,0.572958,0.1718874,-0.1718874,11.4878079,-16.50691998
7.29,729,0.21600000000000005,-0.026000000000000002,-0.966,0.057295800000000015,0.5156622000000001,0.2291832000000001,-0.1718874,11.49353748,-16.501190400000002
7.3,730,0.217,-0.026000000000000002,-0.966,0.0,0.3437748,0.1718874,-0.10886202,11.56802202,-16.495460819999998
7.31,731,0.21600000000000005,-0.027000000000000003,-0.966,-0.057295800000000015,0.286479,0.2291832000000001,-0.10886202,11.5737516,-16.48973124
7.32,732,0.21600000000000005,-0.027000000000000003,-0.965,-0.11459160000000004,0.1718874,0.1718874,-0.11459160000000003,11.5737516,-16.48973124
7.33,733,0.21600000000000005,-0.027999999999999997,-0.9640000000000001,-0.1718874,0.11459160000000004,0.1718874,-0.11459160000000003,11.5737516,-16.48973124
7.34,734,0.215,-0.03,-0.9640000000000001,-0.1718874,0.1718874,0.057295800000000015,-0.11459160000000003,11.579481179999998,-16.484001659999997
7.35,735,0.215,-0.03,-0.9670000000000001,-0.057295800000000015,0.057295800000000015,0.11459160000000004,0.0,11.6596953,-16.466812920000002
7.36,736,0.21600000000000005,-0.03,-0.9690000000000001,-0.11459160000000004,0.0,0.11459160000000004,0.0,11.6596953,-16.466812920000002
7.37,737,0.218,-0.03,-0.972,-0.1718874,-0.057295800000000015,0.057295800000000015,0.0,11.6596953,-16.466812920000002
7.38,738,0.21600000000000005,-0.03,-0.973,-0.1718874,-0.6302538000000001,0.057295800000000015,0.0,11.65396572,-16.466812920000002
7.39,739,0.213,-0.03,-0.972,-0.1718874,-0.8594370000000001,0.11459160000000004,0.0,11.64823614,-16.461083340000002
7.4,740,0.209,-0.03,-0.971,-0.4583664000000001,-0.8594370000000001,0.057295800000000015,0.00572958,11.63677698,-16.461083340000002
7.41,741,0.207,-0.027999999999999997,-0.97,-0.5156622000000001,-0.8594370000000001,0.0,0.0,11.62531782,-16.461083340000002
7.42,742,0.20600000000000002,-0.028999999999999998,-0.97,-0.3437748,-0.6875496,-0.1718874,0.0,11.61958824,-16.461083340000002
7.43,743,0.207,-0.028999999999999998,-0.972,-0.1718874,-0.3437748,-0.3437748,0.0,11.613858660000002,-16.466812920000002
7.4399999999999995,744,0.209,-0.027000000000000003,-0.972,0.0,0.0,-0.40107059999999994,0.0,11.613858660000002,-16.466812920000002
7.45,745,0.21,-0.027999999999999997,-0.965,-0.057295800000000015,0.1718874,-0.3437748,0.03437748,11.631047399999998,-16.466812920000002
7.46,746,0.209,-0.031,-0.958,-0.4583664000000001,0.286479,-0.286479,0.028647900000000007,11.63677698,-16.466812920000002
7.47,747,0.209,-0.034,-0.955,-0.7448454000000001,0.286479,-0.286479,0.02291832,11.63677698,-16.4725425
7.4799999999999995,748,0.212,-0.033,-0.958,-0.6302538000000001,0.1718874,-0.3437748,0.01145916,11.64250656,-16.4725425
7.49,749,0.215,-0.031,-0.963,-0.3437748,-0.1718874,-0.2291832000000001,0.00572958,11.63677698,-16.47827208
7.5,750,0.217,-0.027999999999999997,-0.97,-0.286479,-0.3437748,-0.1718874,0.01718874,11.65396572,-16.47827208
7.51,751,0.217,-0.023,-0.977,-0.4583664000000001,-0.3437748,-0.1718874,0.01145916,11.65396572,-16.47827208
7.52,752,0.213,-0.02,-0.98,-0.286479,-0.3437748,-0.11459160000000004,0.00572958,11.64823614,-16.484001659999997
7.53,753,0.213,-0.022000000000000002,-0.978,0.0,-0.2291832000000001,-0.057295800000000015,0.00572958,11.64823614,-16.484001659999997
7.54,754,0.212,-0.025,-0.976,0.11459160000000004,-0.3437748,-0.057295800000000015,0.00572958,11.64250656,-16.484001659999997
7.55,755,0.21100000000000002,-0.026000000000000002,-0.972,0.1718874,-0.4583664000000001,-0.057295800000000015,0.03437748,11.64250656,-16.484001659999997
7.56,756,0.209,-0.025,-0.97,0.057295800000000015,-0.40107059999999994,0.0,0.03437748,11.63677698,-16.484001659999997
7.57,757,0.20800000000000002,-0.024,-0.97,-0.057295800000000015,-0.2291832000000001,0.0,0.03437748,11.63677698,-16.484001659999997
7.58,758,0.20800000000000002,-0.022000000000000002,-0.968,-0.057295800000000015,0.11459160000000004,0.057295800000000015,0.03437748,11.63677698,-16.47827208
7.59,759,0.21,-0.023,-0.968,-0.057295800000000015,0.286479,0.057295800000000015,0.03437748,11.64250656,-16.47827208
7.6,760,0.21100000000000002,-0.024,-0.968,0.0,0.5156622000000001,0.057295800000000015,0.05156622,11.65396572,-16.47827208
7.61,761,0.21100000000000002,-0.027000000000000003,-0.965,0.057295800000000015,0.572958,0.0,0.05156622,11.6596953,-16.47827208
7.62,762,0.212,-0.028999999999999998,-0.9640000000000001,0.0,0.40107059999999994,0.0,0.05156622,11.66542488,-16.4725425
7.63,763,0.213,-0.03,-0.9640000000000001,-0.11459160000000004,0.3437748,0.0,0.05156622,11.67115446,-16.4725425
7.64,764,0.213,-0.031,-0.9640000000000001,-0.2291832000000001,0.1718874,0.057295800000000015,0.04583664,11.67115446,-16.4725425
7.65,765,0.213,-0.031,-0.963,-0.3437748,0.057295800000000015,0.057295800000000015,0.08021412,11.69407278,-16.466812920000002
7.66,766,0.213,-0.031,-0.9640000000000001,-0.3437748,0.11459160000000004,0.057295800000000015,0.08021412,11.69407278,-16.466812920000002
7.67,767,0.213,-0.032,-0.963,-0.4583664000000001,0.057295800000000015,0.11459160000000004,0.07448454,11.69407278,-16.461083340000002
7.68,768,0.214,-0.032,-0.9620000000000001,-0.5156622000000001,0.0,0.11459160000000004,0.06875496,11.69407278,-16.461083340000002
7.6899999999999995,769,0.214,-0.032,-0.9590000000000001,-0.6302538000000001,-0.057295800000000015,0.1718874,0.06302537999999999,11.69407278,-16.461083340000002
7.7,770,0.213,-0.033,-0.9570000000000001,-0.6875496,-0.2291832000000001,0.11459160000000004,0.0859437,11.699802359999998,-16.45535376
7.71,771,0.212,-0.034,-0.956,-0.7448454000000001,-0.3437748,0.11459160000000004,0.08021412,11.699802359999998,-16.44962418
7.72,772,0.21100000000000002,-0.033,-0.9570000000000001,-0.7448454000000001,-0.286479,0.1718874,0.07448454,11.69407278,-16.44962418
7.7299999999999995,773,0.209,-0.034,-0.9590000000000001,-0.7448454000000001,-0.1718874,0.1718874,0.06302537999999999,11.69407278,-16.44962418
7.74,774,0.209,-0.033,-0.963,-0.6302538000000001,0.0,0.11459160000000004,0.057295800000000015,11.69407278,-16.44962418
7.75,775,0.21,-0.031,-0.966,-0.40107059999999994,0.057295800000000015,0.0,0.09167328,11.70553194,-16.438165020000003
7.76,776,0.21100000000000002,-0.028999999999999998,-0.9690000000000001,-0.286479,0.0,-0.057295800000000015,0.09167328,11.70553194,-16.438165020000003
7.77,777,0.214,-0.03,-0.9690000000000001,-0.1718874,0.0,-0.11459160000000004,0.0859437,11.70553194,-16.4438946
7.78,778,0.215,-0.031,-0.9690000000000001,-0.1718874,-0.11459160000000004,-0.1718874,0.0859437,11.70553194,-16.4438946
7.79,779,0.215,-0.032,-0.97,-0.2291832000000001,-0.2291832000000001,-0.286479,0.08021412,11.70553194,-16.44962418
7.8,780,0.21600000000000005,-0.03,-0.97,-0.3437748,-0.3437748,-0.2291832000000001,0.09740286,11.7169911,-16.44962418
7.81,781,0.21600000000000005,-0.028999999999999998,-0.971,-0.40107059999999994,-0.40107059999999994,-0.2291832000000001,0.09167328,11.71126152,-16.44962418
7.82,782,0.215,-0.027000000000000003,-0.971,-0.4583664000000001,-0.286479,-0.1718874,0.0859437,11.70553194,-16.44962418
7.83,783,0.215,-0.026000000000000002,-0.97,-0.286479,-0.2291832000000001,-0.1718874,0.0859437,11.70553194,-16.45535376
7.84,784,0.214,-0.026000000000000002,-0.968,-0.286479,-0.2291832000000001,-0.1718874,0.08021412,11.699802359999998,-16.45535376
7.85,785,0.214,-0.027000000000000003,-0.968,-0.286479,-0.11459160000000004,-0.11459160000000004,0.09167328,11.7169911,-16.45535376
7.86,786,0.213,-0.027000000000000003,-0.9690000000000001,-0.2291832000000001,-0.11459160000000004,-0.11459160000000004,0.0859437,11.7169911,-16.45535376
7.87,787,0.213,-0.027000000000000003,-0.968,-0.4583664000000001,-0.1718874,-0.11459160000000004,0.0859437,11.7169911,-16.461083340000002
7.88,788,0.214,-0.026000000000000002,-0.968,-0.5156622000000001,-0.286479,-0.11459160000000004,0.08021412,11.71126152,-16.461083340000002
7.89,789,0.214,-0.025,-0.966,-0.3437748,-0.40107059999999994,-0.057295800000000015,0.07448454,11.70553194,-16.461083340000002
7.9,790,0.214,-0.024,-0.966,-0.4583664000000001,-0.572958,-0.057295800000000015,0.07448454,11.71126152,-16.461083340000002
7.91,791,0.214,-0.024,-0.965,-0.40107059999999994,-0.8021411999999999,-0.1718874,0.06875496,11.699802359999998,-16.466812920000002
7.92,792,0.214,-0.023,-0.966,-0.4583664000000001,-0.8594370000000001,-0.1718874,0.06302537999999999,11.69407278,-16.466812920000002
7.93,793,0.214,-0.024,-0.9670000000000001,-0.3437748,-0.8021411999999999,-0.11459160000000004,0.057295800000000015,11.68261362,-16.466812920000002
7.94,794,0.214,-0.025,-0.9690000000000001,-0.3437748,-0.6302538000000001,-0.057295800000000015,0.05156622,11.67688404,-16.466812920000002
7.95,795,0.212,-0.024,-0.973,-0.286479,-0.6302538000000001,0.0,0.057295800000000015,11.67115446,-16.466812920000002
7.96,796,0.21100000000000002,-0.026000000000000002,-0.972,-0.40107059999999994,-0.572958,0.0,0.05156622,11.66542488,-16.466812920000002
7.97,797,0.209,-0.026000000000000002,-0.972,-0.572958,-0.4583664000000001,0.0,0.04583664,11.6596953,-16.466812920000002
7.98,798,0.20800000000000002,-0.026000000000000002,-0.972,-0.6302538000000001,-0.5156622000000001,-0.11459160000000004,0.04010706,11.6596953,-16.4725425
