TimeStamp(s),FrameCounter,AccX,AccY,AccZ,GyrX,GyrY,GyrZ,EulerX,EulerY,EulerZ
0.01,1,0.044000000000000004,-1.013,0.009000000000000001,-1.9480572,-2.7501984,0.5156622000000001,89.71949322,3.18564648,-68.69766419999999
0.02,2,0.044000000000000004,-1.011,0.003,-2.0053530000000004,-2.4637194,0.40107059999999994,89.66219742,3.1627281600000003,-68.72631209999999
0.03,3,0.042,-1.008,0.0,-1.8334656000000005,-2.2345362,0.286479,89.6392791,3.1627281600000003,-68.74350084
0.04,4,0.038,-1.006,0.0,-1.7188740000000002,-2.1199446,0.1718874,89.62209035999999,3.1627281600000003,-68.76641916
0.05,5,0.036000000000000004,-1.004,-0.001,-1.432395,-2.0626488000000003,0.286479,89.60490161999998,3.15699858,-68.78933748
0.060000000000000005,6,0.033,-1.002,-0.001,-1.145916,-2.4064236,0.5156622000000001,89.59344246,3.1512689999999997,-68.8122558
0.06999999999999999,7,0.035,-1.004,0.0,-1.0313244000000001,-2.7501984,0.6875496,89.54760582,3.11116194,-68.84663328
0.08,8,0.04,-1.005,-0.001,-0.8594370000000001,-2.6929026,0.8021411999999999,89.54187624,3.1054323600000004,-68.8695516
0.09,9,0.042,-1.005,-0.002,-0.8594370000000001,-2.6356068,0.8021411999999999,89.53041707999998,3.0997027800000003,-68.8981995
0.09999999999999999,10,0.044000000000000004,-1.003,-0.002,-1.0313244000000001,-2.4064236,0.6875496,89.51895792,3.08824362,-68.92111781999999
0.11,11,0.044000000000000004,-1.005,-0.003,-1.0313244000000001,-2.3491277999999998,0.572958,89.50749876,3.0825140400000004,-68.94403614
0.12,12,0.043,-1.008,-0.003,-0.9740286,-2.291832,0.286479,89.4387438,3.05959572,-68.97268404
0.13,13,0.04,-1.01,-0.004,-0.6875496,-2.2345362,0.1718874,89.43301421999998,3.05386614,-68.99560235999999
0.14,14,0.037000000000000005,-1.008,-0.002,-0.40107059999999994,-2.2345362,0.286479,89.42728464000002,3.05386614,-69.01852068
0.15000000000000002,15,0.035,-1.006,0.0,-0.057295800000000015,-2.3491277999999998,0.4583664000000001,89.42728464000002,3.04813656,-69.041439
0.16,16,0.037000000000000005,-1.006,0.002,-0.2291832000000001,-2.1772404,0.6302538000000001,89.42155505999996,3.04240698,-69.06435732
0.17,17,0.039,-1.006,0.0,-0.6302538000000001,-2.291832,0.7448454000000001,89.38144799999998,3.0137590800000003,-69.09300522
0.18000000000000002,18,0.040999999999999995,-1.0070000000000001,0.0,-0.9167328000000001,-2.3491277999999998,0.6875496,89.36998884,3.00229992,-69.11592354000001
0.19,19,0.045,-1.006,0.0,-0.9167328000000001,-2.291832,0.6875496,89.35852968,2.9965703400000003,-69.13884186
0.2,20,0.045,-1.0070000000000001,0.0,-0.9167328000000001,-2.2345362,0.5156622000000001,89.34707052,2.99084076,-69.16176018
0.21000000000000002,21,0.046,-1.008,0.0,-0.9740286,-2.1199446,0.286479,89.33561136,2.99084076,-69.17894892
0.22,22,0.046,-1.011,-0.002,-0.8594370000000001,-1.9480572,0.057295800000000015,89.27831556,2.9793816000000004,-69.20759682
0.23,23,0.042,-1.0090000000000001,-0.005,-0.9740286,-1.9480572,-0.11459160000000004,89.2668564,2.9793816000000004,-69.22478556000002
0.24000000000000002,24,0.040999999999999995,-1.005,-0.006,-0.9740286,-1.7761698000000001,-0.286479,89.25539724,2.98511118,-69.24197430000001
0.25,25,0.042,-1.004,-0.006,-1.0313244000000001,-1.7188740000000002,-0.2291832000000001,89.24393807999998,2.98511118,-69.25916304
0.26,26,0.045,-1.005,-0.008,-1.145916,-1.6615782,-0.11459160000000004,89.23247891999998,2.98511118,-69.27635178
0.27,27,0.045,-1.005,-0.006999999999999999,-0.8594370000000001,-1.8907614,0.0,89.16372396,2.9793816000000004,-69.29927009999999
0.28,28,0.046,-1.0070000000000001,-0.005,-0.6302538000000001,-2.1199446,-0.057295800000000015,89.15799438,2.9793816000000004,-69.32218842
0.29000000000000004,29,0.045,-1.01,-0.005,-0.5156622000000001,-2.1199446,-0.11459160000000004,89.1522648,2.98511118,-69.33937716
0.3,30,0.045,-1.011,-0.006,-0.286479,-2.1772404,-0.11459160000000004,89.14653522,2.98511118,-69.36229548
0.31,31,0.045,-1.0090000000000001,-0.006999999999999999,-0.11459160000000004,-2.1772404,-0.1718874,89.14653522,2.98511118,-69.38521379999999
0.32,32,0.046,-1.008,-0.008,-0.057295800000000015,-2.2345362,-0.11459160000000004,89.08350984,2.98511118,-69.40813212
0.33,33,0.045,-1.004,-0.008,-0.286479,-2.3491277999999998,-0.11459160000000004,89.07778026000004,2.98511118,-69.43678002
0.34,34,0.043,-1.001,-0.01,-0.6875496,-2.291832,0.0,89.07205067999998,2.98511118,-69.45969834
0.35000000000000003,35,0.042,-1.002,-0.011000000000000001,-0.7448454000000001,-2.3491277999999998,0.11459160000000004,89.06059152,2.98511118,-69.48261666
0.36000000000000004,36,0.045,-1.005,-0.01,-0.5156622000000001,-2.4064236,0.2291832000000001,89.05486194,2.9793816000000004,-69.50553498000001
0.37,37,0.046,-1.01,-0.006999999999999999,-0.057295800000000015,-2.4064236,0.2291832000000001,89.00902529999998,2.98511118,-69.5284533
0.38,38,0.044000000000000004,-1.008,-0.006999999999999999,0.1718874,-2.5210152000000003,0.286479,89.00902529999998,2.9793816000000004,-69.5571012
0.39,39,0.043,-1.0070000000000001,-0.005,0.286479,-2.6929026,0.1718874,89.00902529999998,2.9793816000000004,-69.58001952
0.4,40,0.043,-1.006,-0.004,0.0,-2.5783110000000002,0.11459160000000004,89.00902529999998,2.9793816000000004,-69.60866741999999
0.41000000000000003,41,0.044000000000000004,-1.006,-0.005,-0.40107059999999994,-2.5210152000000003,0.057295800000000015,89.00329572000004,2.9793816000000004,-69.63158574
0.42000000000000004,42,0.045,-1.0070000000000001,-0.003,-0.572958,-2.6929026,0.057295800000000015,88.98037740000002,2.96792244,-69.66023364
0.43,43,0.044000000000000004,-1.0090000000000001,-0.002,-0.9740286,-2.9220858,0.1718874,88.96891824000002,2.96792244,-69.68888154
0.44,44,0.045,-1.01,-0.005,-0.8021411999999999,-2.0053530000000004,0.1718874,88.95745908,2.96792244,-69.71179986
0.45,45,0.05,-1.011,-0.005,-0.1718874,-0.9167328000000001,0.2291832000000001,88.95745908,2.96219286,-69.72325902
0.46,46,0.054000000000000006,-1.012,-0.005,0.2291832000000001,-0.7448454000000001,0.2291832000000001,88.95745908,2.96219286,-69.72898860000001
0.47000000000000003,47,0.053,-1.006,-0.005,0.286479,-0.572958,0.2291832000000001,88.87724496000001,2.9965703400000003,-69.73471817999999
0.48000000000000004,48,0.047,-1.005,-0.003,0.2291832000000001,-0.8021411999999999,0.1718874,88.87724496000001,2.9965703400000003,-69.74044776000001
0.49,49,0.042,-1.006,-0.003,0.11459160000000004,-1.2605076000000002,-0.11459160000000004,88.87724496000001,2.9965703400000003,-69.7576365
0.5,50,0.038,-1.008,-0.002,0.0,-1.3750992,-0.5156622000000001,88.87724496000001,3.00229992,-69.76909565999999
0.51,51,0.037000000000000005,-1.011,-0.001,-0.40107059999999994,-1.3178034,-0.8021411999999999,88.87151537999998,3.0137590800000003,-69.78055481999999
0.52,52,0.044000000000000004,-1.0090000000000001,-0.003,-0.8021411999999999,-1.0313244000000001,-0.9740286,88.8371379,3.01948866,-69.79774356
0.53,53,0.048,-1.0070000000000001,-0.004,-0.9740286,-0.8021411999999999,-0.9167328000000001,88.83140832000002,3.03094782,-69.80347314
0.54,54,0.055,-1.008,-0.006,-1.0886202,-0.7448454000000001,-0.572958,88.81994916,3.0366774000000003,-69.80920272
0.55,55,0.062,-1.012,-0.006999999999999999,-1.5469866,-0.6875496,-0.572958,88.80276042,3.04240698,-69.82066188
0.56,56,0.066,-1.014,-0.008,-1.3178034,-0.9740286,-0.6302538000000001,88.78557168,3.04813656,-69.82639146
0.5700000000000001,57,0.068,-1.015,-0.01,-0.8021411999999999,-1.2032118,-0.6875496,88.73973504,3.11689152,-69.83785062
0.5800000000000001,58,0.067,-1.01,-0.012,-0.7448454000000001,-1.3178034,-0.6875496,88.73400546,3.12835068,-69.84930978
0.59,59,0.065,-1.0090000000000001,-0.013000000000000001,-0.572958,-1.6042823999999998,-0.6875496,88.72827588,3.13408026,-69.86649852000001
0.6,60,0.062,-1.006,-0.009000000000000001,-0.3437748,-1.8907614,-0.9167328000000001,88.7225463,3.14553942,-69.88368726
0.61,61,0.059000000000000004,-1.004,-0.002,-0.40107059999999994,-1.8907614,-1.145916,88.71681672,3.15699858,-69.90660558
0.62,62,0.057,-1.004,-0.002,-1.2605076000000002,-1.6615782,-1.2605076000000002,88.69389840000002,3.18564648,-69.92379432
0.63,63,0.06,-1.004,-0.008,-2.2345362,-1.2032118,-1.145916,88.67098008,3.19710564,-69.93525348
0.64,64,0.065,-1.005,-0.018000000000000002,-2.6929026,-0.6875496,-0.8021411999999999,88.64233218000004,3.20283522,-69.94098306000001
0.65,65,0.07400000000000001,-1.013,-0.018000000000000002,-3.6096353999999997,-0.057295800000000015,-0.286479,88.60222512,3.20283522,-69.94098306000001
0.66,66,0.08,-1.015,-0.027000000000000003,-4.8128472,0.5156622000000001,-0.057295800000000015,88.55638848,3.20283522,-69.94098306000001
0.67,67,0.078,-1.011,-0.028999999999999998,-4.6982555999999995,0.057295800000000015,0.286479,88.47044478000002,3.24294228,-69.93525348
0.68,68,0.07,-1.013,-0.02,-4.0680017999999984,-0.8021411999999999,0.4583664000000001,88.43033772,3.2372127,-69.94671264
0.6900000000000001,69,0.066,-1.012,-0.018000000000000002,-3.5523396000000003,-1.2032118,0.2291832000000001,88.39596024,3.2372127,-69.9581718
0.7000000000000001,70,0.064,-1.006,-0.018000000000000002,-2.4064236,-1.7761698000000001,0.0,88.36731234,3.2372127,-69.97536054
0.7100000000000001,71,0.069,-0.998,-0.016,-1.4896908000000002,-2.4064236,-0.286479,88.35012359999996,3.2372127,-69.99827886
0.72,72,0.071,-0.992,-0.013000000000000001,-1.0886202,-2.9793816000000004,-0.4583664000000001,88.32720528,3.27731976,-70.02692676
0.73,73,0.07200000000000001,-0.9940000000000001,-0.012,-1.0886202,-3.1512689999999997,-0.286479,88.31001654,3.27731976,-70.05557466
0.74,74,0.073,-1.0,-0.012,-1.5469866,-2.9793816000000004,-0.1718874,88.2928278,3.28304934,-70.08995214000001
0.75,75,0.07400000000000001,-1.006,-0.019,-1.7188740000000002,-2.9793816000000004,-0.11459160000000004,88.27563906,3.28304934,-70.11860004
0.76,76,0.069,-1.012,-0.02,-1.5469866,-3.3231564,-0.4583664000000001,88.25845032,3.28877892,-70.15297752000001
0.77,77,0.063,-1.013,-0.017,-1.8334656000000005,-3.380452200000001,-0.9740286,88.22980242,3.3059676599999994,-70.18735500000001
0.78,78,0.057,-1.0070000000000001,-0.011000000000000001,-2.3491277999999998,-2.6929026,-1.5469866,88.2068841,3.3231564,-70.21027332
0.79,79,0.052000000000000005,-1.004,-0.019,-3.0939732,-1.5469866,-2.0053530000000004,88.17250662000002,3.34034514,-70.22746206
0.8,80,0.055,-1.001,-0.028999999999999998,-4.0680017999999984,-0.2291832000000001,-2.1772404,88.13239956,3.36326346,-70.23319164
0.81,81,0.068,-0.996,-0.035,-4.1252976000000015,0.8021411999999999,-2.1199446,88.08656292,3.38618178,-70.22746206
0.8200000000000001,82,0.084,-1.0,-0.032,-3.2658606,1.4896908000000002,-1.9480572,88.02926712000001,3.4492071599999994,-70.21027332
0.8300000000000001,83,0.095,-1.0070000000000001,-0.03,-3.2085647999999996,1.8907614,-1.7761698000000001,88.00061922,3.4663959,-70.19308457999999
0.8400000000000001,84,0.09699999999999999,-1.005,-0.035,-3.6669312000000014,2.291832,-1.8907614,87.96051216,3.48358464,-70.17016626
0.85,85,0.10400000000000001,-1.002,-0.040999999999999995,-4.010706000000001,2.7501984,-1.7761698000000001,87.92040510000002,3.50650296,-70.14151836
0.86,86,0.114,-1.001,-0.051,-4.0680017999999984,3.380452200000001,-1.9480572,87.88029803999999,3.5236917,-70.10714088
0.87,87,0.127,-0.996,-0.057,-3.6669312000000014,4.010706000000001,-1.8334656000000005,87.8058135,3.6096354,-70.06703381999999
0.88,88,0.133,-0.99,-0.059000000000000004,-4.010706000000001,4.9847346,-1.9480572,87.76570644,3.63255372,-70.0154676
0.89,89,0.132,-0.987,-0.063,-4.9847346,6.0160589999999985,-1.9480572,87.7198698,3.64974246,-69.9581718
0.9,90,0.135,-0.987,-0.076,-7.2192707999999985,7.161975,-2.0053530000000004,87.65111484,3.67266078,-69.88941684
0.91,91,0.132,-0.9890000000000001,-0.096,-8.7089616,8.8235532,-2.3491277999999998,87.56517113999998,3.6955791,-69.80347314
0.92,92,0.13,-0.993,-0.114,-9.167328,9.7975818,-2.5783110000000002,87.43912037999998,3.74714532,-69.70607028
0.93,93,0.131,-1.001,-0.121,-9.224623800000002,10.1986524,-2.5210152000000003,87.3474471,3.77579322,-69.60866741999999
0.9400000000000001,94,0.14,-1.012,-0.121,-9.2819196,9.9694692,-1.8907614,87.26150340000002,3.79871154,-69.51126456
0.9500000000000001,95,0.14800000000000002,-1.024,-0.11800000000000001,-10.2559482,8.9381448,-0.9740286,87.15837096,3.80444112,-69.42532086
0.9600000000000001,96,0.132,-1.0270000000000001,-0.125,-12.3758928,6.6463128000000005,-0.3437748,87.03804978000002,3.810170700000002,-69.35656589999999
0.97,97,0.096,-1.013,-0.149,-12.2040054,2.291832,-0.286479,86.82032574,3.83308902,-69.33937716
0.98,98,0.07400000000000001,-0.988,-0.18,-10.599723,-4.8701430000000006,-0.40107059999999994,86.71146372000004,3.83308902,-69.39094338
0.99,99,0.057999999999999996,-0.945,-0.188,-9.224623800000002,-12.0894138,-1.0886202,86.60833127999999,3.8388186000000006,-69.51126456
1.0,100,0.034,-0.8909999999999999,-0.18100000000000002,-6.4744254,-18.048177,-3.2085647999999996,86.53384674,3.8674665,-69.69461112
1.01,101,0.019,-0.833,-0.154,-5.5576926,-21.944291399999997,-7.3911582,86.46509178,3.93049188,-69.91806474
1.02,102,0.025,-0.782,-0.087,-5.5576926,-24.2934192,-12.776963400000001,86.39060724,4.04508348,-70.17016626
1.03,103,0.040999999999999995,-0.7909999999999999,0.002,-4.5263682,-23.319390600000002,-17.589810600000003,86.33331144,4.211241299999998,-70.41080862
1.04,104,0.067,-0.91,0.038,-6.4744254,-21.199446,-18.907614,86.24736774,4.38885828,-70.63426224
1.05,105,0.079,-1.111,0.044000000000000004,-11.2872726,-21.485925,-15.4125702,86.12131698,4.53209778,-70.85771586000001
1.06,106,0.039,-1.2830000000000001,0.025,-14.1520626,-25.0955604,-8.5370742,85.96088874,4.60658232,-71.11554696
1.07,107,-0.013999999999999999,-1.383,0.012,-13.8082878,-27.788463,-1.145916,85.80619008000002,4.6008527400000006,-71.39056679999999
1.08,108,-0.069,-1.375,0.011000000000000001,-8.651665800000002,-29.220858000000003,4.297185,85.69732806,4.54355694,-71.6770458
1.09,109,-0.106,-1.2770000000000001,0.038,-1.6042823999999998,-28.5906042,7.2765666,85.66295058,4.45761324,-71.95779522
1.1,110,-0.138,-1.149,0.09300000000000001,3.9534102,-27.272800800000002,8.479778399999999,85.6858689,4.36021038,-72.2213559
1.11,111,-0.141,-1.04,0.136,6.9327918,-24.923673,8.9954406,85.7431647,4.25707794,-72.46199826
1.12,112,-0.106,-1.025,0.14800000000000002,2.8074942000000003,-20.6837838,10.599723,85.81764924000002,4.102379279999999,-72.65680397999998
1.1300000000000001,113,-0.064,-1.044,0.14800000000000002,-3.8961144,-17.475219,12.318597,85.76608302,3.97059894,-72.8229618
1.1400000000000001,114,-0.03,-1.065,0.13699999999999998,-6.3598338,-16.272007199999994,12.9488508,85.69159848,3.83308902,-72.97766046000002
1.1500000000000001,115,-0.009000000000000001,-1.071,0.135,-7.0473834,-16.8449652,12.9488508,85.61711394,3.6955791,-73.1380887
1.1600000000000001,116,0.01,-1.061,0.131,-8.59437,-19.079501399999998,12.776963400000001,85.51971108000002,3.56379876,-73.31570568
1.17,117,0.012,-1.047,0.10099999999999999,-11.688343199999998,-21.829699800000004,13.178034,85.41657864,3.4091001000000003,-73.52197056
1.18,118,0.01,-1.043,0.077,-13.8655836,-24.4653066,14.209358400000001,85.26760956,3.25440144,-73.75688333999999
1.19,119,0.006999999999999999,-1.037,0.051,-14.8396122,-24.8663772,15.183387000000002,85.10718132,3.08824362,-73.99179612
1.2,120,0.003,-1.013,0.03,-13.0634424,-23.663165399999997,16.157415599999997,84.96394182,2.91635622,-74.21524974
1.21,121,-0.011000000000000001,-0.982,0.019,-10.7143146,-22.058882999999998,16.272007199999994,84.84935021999998,2.73873924,-74.41578503999997
1.22,122,-0.035,-0.96,0.013999999999999999,-9.6256944,-19.7097552,15.527161800000002,84.75767694,2.55539268,-74.59913159999998
1.23,123,-0.054000000000000006,-0.941,0.008,-10.2559482,-16.673077799999998,14.0947668,84.64881491999998,2.40069402,-74.75383026
1.24,124,-0.067,-0.9279999999999999,-0.003,-11.401864199999999,-14.381245800000002,11.802934800000001,84.53422332,2.2746432600000004,-74.88561059999998
1.25,125,-0.068,-0.9279999999999999,-0.002,-12.891555,-12.834259199999998,9.396511199999999,84.39671340000002,2.17151082,-75.00593178
1.26,126,-0.066,-0.9359999999999999,-0.018000000000000002,-13.9228794,-10.3705398,7.6776372,84.25347389999997,2.08556712,-75.10333464
1.27,127,-0.054000000000000006,-0.946,-0.026000000000000002,-12.9488508,-6.990087599999999,6.9327918,84.13888229999998,1.98816426,-75.17208959999998
1.28,128,-0.042,-0.9540000000000001,-0.011000000000000001,-10.2559482,-3.6096353999999997,7.2192707999999985,84.03574986,1.90795014,-75.2007375
1.29,129,-0.037000000000000005,-0.9620000000000001,-0.002,-8.250595200000001,-1.432395,7.906820400000001,83.94980616,1.82773602,-75.20646708
1.3,130,-0.022000000000000002,-0.9790000000000001,0.009000000000000001,-6.875496000000001,0.5156622000000001,9.3392154,83.8810512,1.73606274,-75.19500792
1.31,131,-0.015,-0.987,0.025,-6.1879464,2.5783110000000002,10.599723,83.81802582,1.6329303,-75.15490086000001
1.32,132,-0.018000000000000002,-0.987,0.028999999999999998,-5.7868758000000025,4.9847346,11.1153852,83.80656666,1.50687954,-75.09760506
1.33,133,-0.032,-0.983,0.023,-4.9274388,5.72958,11.5164558,83.75500044,1.39801752,-75.0288501
1.34,134,-0.048,-0.99,0.035,-4.4117766,7.3911582,11.401864199999999,83.71489338,1.2891555,-74.9429064
1.35,135,-0.068,-0.998,0.064,-4.1252976000000015,7.6776372,11.2872726,83.67478632,1.18602306,-74.8569627
1.36,136,-0.09,-1.003,0.059000000000000004,-6.875496000000001,6.8182002000000015,10.657018800000001,83.60030178,1.08289062,-74.77674858
1.37,137,-0.107,-1.002,0.063,-8.136003599999999,7.448453999999999,9.396511199999999,83.57738346,0.95111028,-74.70226404
1.3800000000000001,138,-0.09699999999999999,-0.997,0.068,-9.1100322,8.7662574,7.333862400000001,83.48571018,0.8880849000000001,-74.60486118
1.3900000000000001,139,-0.078,-0.985,0.055999999999999994,-9.682990199999999,10.599723,5.0993262,83.38830732,0.8422482600000001,-74.49599916000003
1.4000000000000001,140,-0.047,-0.9620000000000001,0.065,-7.6776372,12.1467096,3.380452200000001,83.3080932,0.8193299399999999,-74.37567798
1.4100000000000001,141,-0.023,-0.951,0.079,-5.2139178,12.2040054,1.9480572,83.25652698,0.8136003599999999,-74.24962722000002
1.42,142,-0.021,-0.945,0.086,-5.1566220000000005,11.9748222,0.572958,83.28517488,0.8021412000000001,-74.13503562
1.43,143,-0.027000000000000003,-0.945,0.076,-5.7868758000000025,12.776963400000001,-0.4583664000000001,83.2221495,0.8136003599999999,-74.00898486
1.44,144,-0.033,-0.946,0.091,-6.589017,15.068795399999999,-1.7188740000000002,83.15912412,0.8479778399999999,-73.86574535999998
1.45,145,-0.046,-0.9490000000000001,0.10099999999999999,-7.5057497999999985,15.183387000000002,-2.9220858,83.07891,0.8880849000000001,-73.71677628
1.46,146,-0.057,-0.9590000000000001,0.08,-10.886202,16.902261,-3.8388186,82.97004798,0.93965112,-73.55634804
1.47,147,-0.057999999999999996,-0.976,0.045,-13.178034,18.8503182,-4.7555514,82.86691554,0.98548776,-73.37873106
1.48,148,-0.054000000000000006,-1.0,0.019,-13.8082878,21.829699800000004,-4.9847346,82.72940562,1.05424272,-73.17246618
1.49,149,-0.037000000000000005,-1.04,-0.042,-16.4438946,21.5432208,-5.0993262,82.5632478,1.12872726,-72.9662013
1.5,150,-0.018000000000000002,-1.067,-0.11800000000000001,-19.5378678,18.8503182,-4.8128472,82.3627125,1.19175264,-72.78858432000001
1.51,151,0.03,-1.07,-0.151,-16.2147114,17.0741484,-4.6409598,82.20228426,1.25477802,-72.62815608
1.52,152,0.066,-1.0659999999999998,-0.126,-8.59437,12.318597,-5.7868758000000025,82.11061098,1.34072172,-72.51929406000002
1.53,153,0.085,-1.073,-0.158,-6.9327918,10.7716104,-6.4744254,82.04185602,1.41520626,-72.4218912
1.54,154,0.096,-1.11,-0.21899999999999997,-3.2085647999999996,11.5164558,-5.443101,82.00747854,1.48396122,-72.31302918
1.55,155,0.086,-1.1909999999999998,-0.23399999999999999,1.5469866,7.9641161999999985,-1.9480572,82.02466728,1.51260912,-72.23854464
1.56,156,0.062,-1.29,-0.16399999999999998,6.9327918,1.432395,3.0366774,82.09915182,1.48396122,-72.2213559
1.57,157,-0.017,-1.3980000000000001,-0.10800000000000001,5.2139178,-3.0366774,6.7609043999999985,82.15644762000002,1.40947668,-72.23854464
1.58,158,-0.14300000000000002,-1.489,-0.126,-1.6042823999999998,-2.7501984,7.2192707999999985,82.13925888,1.3349921400000002,-72.25573338000002
1.59,159,-0.22399999999999998,-1.581,-0.192,-4.1252976000000015,0.057295800000000015,5.2139178,82.09342224,1.28342592,-72.25000379999999
1.6,160,-0.21600000000000005,-1.6640000000000001,-0.228,-4.4690724,4.583664,0.3437748,82.05331518,1.28342592,-72.20416716
1.61,161,-0.135,-1.715,-0.255,-2.4064236,8.880849000000003,-4.3544808,82.02466728,1.3349921400000002,-72.12395303999998
1.62,162,-0.017,-1.709,-0.23399999999999999,0.3437748,9.9694692,-8.7662574,82.03039686,1.432395,-72.03800934
1.6300000000000001,163,0.068,-1.633,-0.255,2.291832,12.0894138,-10.828906199999999,82.05331518,1.5527161800000002,-71.93487689999998
1.6400000000000001,164,0.08199999999999999,-1.516,-0.292,3.8388186,12.032118,-10.7716104,82.09342224,1.67303736,-71.82601488
1.6500000000000001,165,0.059000000000000004,-1.399,-0.301,5.1566220000000005,11.802934800000001,-10.5424272,82.15071803999999,1.7933585399999998,-71.72288244
1.6600000000000001,166,0.012,-1.2919999999999998,-0.321,4.4117766,13.750992000000002,-10.7143146,82.19655467999998,1.91367972,-71.60256126
1.6700000000000002,167,-0.036000000000000004,-1.178,-0.342,2.4064236,17.0168526,-10.3705398,82.19082510000001,2.02254174,-71.45359218
1.68,168,-0.081,-1.079,-0.358,1.3750992,22.6891368,-9.167328,82.20801384,2.13713334,-71.24159771999999
1.69,169,-0.105,-0.986,-0.349,1.4896908000000002,25.4393352,-7.6203414,82.23093216,2.24026578,-71.00095536
1.7,170,-0.096,-0.9059999999999999,-0.32299999999999995,0.286479,27.6738714,-6.4744254,82.24239132,2.33193906,-70.73739468
1.71,171,-0.067,-0.857,-0.307,-0.8021411999999999,29.9084076,-5.6722842,82.24239132,2.41788276,-70.45091568
1.72,172,-0.027999999999999997,-0.8340000000000001,-0.29,-2.5210152000000003,31.2835068,-5.6149884000000005,82.18509551999998,2.49809688,-70.15297752000001
1.73,173,0.022000000000000002,-0.828,-0.261,-4.297185,31.3980984,-6.2452422,82.15071803999999,2.59549974,-69.84930978
1.74,174,0.076,-0.84,-0.242,-6.3025379999999975,31.3980984,-7.5630456000000015,82.09342224,2.69863218,-69.55137162
1.75,175,0.125,-0.867,-0.24,-8.479778399999999,32.142943800000005,-8.9381448,82.0189377,2.82468294,-69.24770388
1.76,176,0.14,-0.872,-0.23199999999999998,-9.224623800000002,32.658606,-10.084060800000001,81.93299400000002,2.9564632800000004,-68.94403614
1.77,177,0.134,-0.862,-0.225,-7.734933000000002,33.002380800000005,-10.7143146,81.8470503,3.11689152,-68.63463881999999
1.78,178,0.12,-0.846,-0.201,-5.844171599999999,31.51269000000001,-11.172680999999999,81.79548408,3.26013102,-68.33670065999999
1.79,179,0.10099999999999999,-0.8390000000000001,-0.182,-4.6409598,29.2781538,-11.401864199999999,81.76110659999998,3.4091001000000003,-68.0674104
1.8,180,0.08800000000000001,-0.8390000000000001,-0.154,-4.1825934,27.043617600000005,-10.828906199999999,81.73245870000002,3.54661002,-67.81530888
1.81,181,0.083,-0.843,-0.136,-5.0993262,25.84040580000001,-9.9121734,81.69235164,3.67266078,-67.57466652000001
1.82,182,0.08199999999999999,-0.8490000000000001,-0.13,-6.0160589999999985,25.8977016,-9.1100322,81.63505583999998,3.79871154,-67.33402416
1.83,183,0.084,-0.857,-0.136,-7.5630456000000015,26.2987722,-9.5111028,81.57203046,3.9190327200000006,-67.08765222
1.84,184,0.092,-0.855,-0.134,-8.7662574,26.69984280000001,-11.6310474,81.49181634,4.0680017999999984,-66.84700986
1.85,185,0.099,-0.8490000000000001,-0.14300000000000002,-10.3705398,26.1268848,-14.4958374,81.40014306,4.2398892,-66.61209708
1.86,186,0.102,-0.828,-0.13699999999999998,-9.9121734,25.78311,-16.8449652,81.31419936,4.43469492,-66.38291388
1.87,187,0.096,-0.8,-0.107,-8.651665800000002,24.7517856,-19.194093,81.23971482,4.65814854,-66.16518984000001
1.8800000000000001,188,0.075,-0.76,-0.106,-7.8495246,24.4653066,-20.8556712,81.17095986,4.893061319999998,-65.95892496
1.8900000000000001,189,0.069,-0.7240000000000001,-0.11,-8.7089616,24.694489800000003,-21.600516600000002,81.10220489999998,5.13370368,-65.74693049999999
1.9000000000000001,190,0.07200000000000001,-0.705,-0.113,-11.802934800000001,24.0069402,-21.371333399999997,80.99334288,5.37434604,-65.54639519999999
1.9100000000000001,191,0.073,-0.69,-0.1,-15.068795399999999,22.1161788,-20.7983754,80.85583296,5.6035292399999985,-65.36304864
1.9200000000000002,192,0.087,-0.722,-0.105,-18.7357266,19.079501399999998,-19.480572,80.67821597999998,5.82125328,-65.2026204
1.93,193,0.10300000000000001,-0.743,-0.111,-21.0848544,16.558486199999994,-18.277360199999997,80.4719511,6.02178858,-65.07656964
1.94,194,0.128,-0.763,-0.131,-21.944291399999997,15.4125702,-16.8449652,80.25995664,6.2051351399999986,-64.95051888
1.95,195,0.14300000000000002,-0.7659999999999999,-0.155,-20.6837838,14.5531332,-15.3552744,80.06515092,6.3770225400000005,-64.83592727999999
1.96,196,0.145,-0.762,-0.157,-18.1054728,13.636400400000001,-14.209358400000001,79.88753394,6.5317212,-64.72706526
1.97,197,0.159,-0.764,-0.158,-15.5844576,12.6623718,-13.464512999999998,79.73283528,6.69214944,-64.6296624
1.98,198,0.17,-0.765,-0.156,-12.032118,12.776963400000001,-12.5477802,79.61824368,6.83538894,-64.52652996
1.99,199,0.172,-0.784,-0.114,-8.250595200000001,11.5737516,-12.2040054,79.54375913999998,6.972898860000001,-64.43485668000001
2.0,200,0.16899999999999998,-0.83,-0.08900000000000001,-6.0160589999999985,8.193299399999999,-11.917526400000002,79.48646334,7.098949620000001,-64.37756088
2.01,201,0.174,-0.853,-0.098,-7.448453999999999,6.589017,-11.745639,79.41770838,7.225000379999999,-64.33172424
2.02,202,0.18,-0.8809999999999999,-0.086,-6.3598338,4.8701430000000006,-11.0007936,79.37760132,7.36823988,-64.29734676
2.03,203,0.17,-0.917,-0.08900000000000001,-5.443101,2.86479,-10.1986524,79.32603509999998,7.47137232,-64.29161718
2.04,204,0.16399999999999998,-0.941,-0.08199999999999999,-2.4064236,2.3491277999999998,-8.880849000000003,79.2973872,7.5630456000000015,-64.28588760000001
2.05,205,0.158,-0.96,-0.071,2.7501984,1.2605076000000002,-7.2192707999999985,79.32603509999998,7.63180056,-64.28588760000001
2.0599999999999996,206,0.13699999999999998,-0.9590000000000001,-0.053,8.880849000000003,-0.3437748,-5.2139178,79.41770838,7.68336678,-64.29734676
2.07,207,0.10099999999999999,-0.9520000000000001,-0.016,14.896907999999998,-2.0626488000000003,-2.1772404,79.62970284,7.6890963600000015,-64.30880592
2.0799999999999996,208,0.055,-0.9570000000000001,0.031,16.7876694,-3.0939732,1.145916,79.80159024000002,7.671907620000002,-64.33745382
2.09,209,0.019,-0.9670000000000001,0.035,13.2926256,-2.4637194,4.0680017999999984,79.93337058,7.63180056,-64.35464255999999
2.0999999999999996,210,0.016,-0.977,0.003,7.906820400000001,-0.1718874,6.6463128000000005,80.01358470000002,7.56877518,-64.3431834
2.11,211,0.027999999999999997,-1.006,-0.03,4.1252976000000015,1.3750992,8.59437,80.05942134,7.4885610599999985,-64.3145355
2.1199999999999997,212,0.063,-1.05,-0.062,2.4064236,1.7761698000000001,9.8548776,80.13963546,7.3625102999999985,-64.27442844
2.13,213,0.115,-1.092,-0.08800000000000001,2.6356068,1.2605076000000002,10.599723,80.16828336,7.259377859999999,-64.24578054
2.1399999999999997,214,0.152,-1.115,-0.10800000000000001,3.7815228,-1.2605076000000002,10.7716104,80.20839042,7.15624542,-64.24005095999999
2.15,215,0.17800000000000002,-1.139,-0.166,5.2712136,-3.2085647999999996,10.7716104,80.25995664,7.0473833999999975,-64.25151012
2.1599999999999997,216,0.231,-1.157,-0.293,3.4377480000000005,2.5210152000000003,9.9694692,80.3000637,6.94998054,-64.21140306000001
2.17,217,0.24600000000000002,-1.173,-0.389,3.7242269999999995,11.45916,8.021412000000002,80.32871159999998,6.898414319999999,-64.0853523
2.1799999999999997,218,0.196,-1.23,-0.42100000000000004,9.8548776,18.1054728,4.2398892,80.44903278000002,6.8812255800000015,-63.89627615999999
2.19,219,0.134,-1.271,-0.386,15.527161800000002,23.14750320000001,1.6615782,80.62664975999998,6.898414319999999,-63.66709296000001
2.1999999999999997,220,0.055,-1.2670000000000001,-0.272,17.3606274,21.142150199999996,1.3750992,80.82718506,6.9156030600000005,-63.4550985
2.21,221,-0.022000000000000002,-1.2590000000000001,-0.20600000000000002,11.1153852,16.673077799999998,1.0313244000000001,80.95896540000003,6.9270622200000025,-63.2832111
2.2199999999999998,222,-0.036000000000000004,-1.268,-0.23800000000000002,3.4377480000000005,14.5531332,-0.3437748,80.99907246000002,6.9270622200000025,-63.14570118
2.23,223,0.07200000000000001,-1.273,-0.249,-0.6302538000000001,6.589017,-1.3750992,80.99907246000002,6.94998054,-63.08267579999999
2.2399999999999998,224,0.213,-1.276,-0.27,-5.6722842,-1.7188740000000002,-2.291832,80.94177666,6.972898860000001,-63.09986454
2.25,225,0.363,-1.274,-0.35200000000000004,-7.6776372,-6.1879464,-2.4064236,80.85583296,6.98435802,-63.1686195
2.26,226,0.48,-1.287,-0.381,-6.589017,-10.1413566,-2.0626488000000003,80.77561884,6.990087599999999,-63.27175193999999
2.27,227,0.518,-1.297,-0.43,-3.1512689999999997,-15.469866,-1.3178034,80.71259346,7.001546759999999,-63.4264506
2.28,228,0.466,-1.265,-0.45399999999999996,0.5156622000000001,-21.829699800000004,-0.9167328000000001,80.69540472,6.98435802,-63.64417464
2.29,229,0.365,-1.177,-0.475,3.9534102,-28.0176462,-0.5156622000000001,80.70686388,6.94998054,-63.92492406
2.3,230,0.24600000000000002,-1.072,-0.46399999999999997,6.6463128000000005,-32.658606,-0.6875496,80.74124136,6.9156030600000005,-64.24578054
2.31,231,0.128,-0.995,-0.419,7.161975,-35.0077338,-0.9167328000000001,80.77561884,6.8812255800000015,-64.58955533999999
2.32,232,0.05,-0.968,-0.37,5.2139178,-35.9244666,-0.057295800000000015,80.74124136,6.812470620000001,-64.95624846
2.3299999999999996,233,-0.002,-0.968,-0.34,2.6356068,-36.096354,1.7761698000000001,80.7297822,6.74944524,-65.30575284
2.34,234,-0.028999999999999998,-0.988,-0.306,2.1199446,-34.091001,5.1566220000000005,80.71832304,6.65204238,-65.63806847999999
2.3499999999999996,235,-0.033,-1.01,-0.26899999999999996,2.0626488000000003,-31.9710564,8.5370742,80.70686388,6.525991620000001,-65.93600663999999
2.36,236,-0.034,-1.005,-0.254,2.0053530000000004,-29.8511118,10.943497800000001,80.70113429999998,6.3770225400000005,-66.21675606
2.3699999999999997,237,-0.026000000000000002,-0.9740000000000001,-0.257,1.9480572,-27.3873924,12.4331886,80.67248640000003,6.1879464,-66.46885758
2.38,238,-0.024,-0.9420000000000001,-0.231,3.1512689999999997,-26.1268848,13.120738199999998,80.68394556000001,6.0275181600000005,-66.70377036
2.3899999999999997,239,-0.021,-0.9129999999999999,-0.17,4.4117766,-25.0382646,13.2353298,80.70686388,5.861360339999999,-66.93295356
2.4,240,-0.006999999999999999,-0.8909999999999999,-0.139,3.5523396000000003,-21.886995600000002,12.4904844,80.72405262,5.71239126,-67.12775927999999
2.4099999999999997,241,-0.013000000000000001,-0.882,-0.106,2.1199446,-19.8816426,11.802934800000001,80.73551178,5.56915176,-67.30537626
2.42,242,-0.025,-0.8859999999999999,-0.12,0.8594370000000001,-18.3919518,11.917526400000002,80.7297822,5.3972643599999985,-67.47153408
2.4299999999999997,243,-0.023,-0.903,-0.14300000000000002,0.0,-18.162768600000003,13.750992000000002,80.71259346,5.23683612,-67.62623274
2.44,244,-0.009000000000000001,-0.9129999999999999,-0.179,0.5156622000000001,-18.1054728,16.7303736,80.70686388,5.04775998,-67.7809314
2.4499999999999997,245,0.011000000000000001,-0.909,-0.185,3.0939732,-17.9908812,19.480572,80.7297822,4.83576552,-67.92417090000001
2.46,246,0.023,-0.8759999999999999,-0.154,4.9274388,-17.475219,20.454600600000006,80.77561884,4.612311900000001,-68.0674104
2.4699999999999998,247,0.045,-0.823,-0.133,6.1879464,-17.5325148,20.05353,80.82145548,4.38885828,-68.20492032
2.48,248,0.08199999999999999,-0.765,-0.13699999999999998,5.3285094000000015,-16.902261,18.5638392,80.86729212,4.1883229800000015,-68.34243024000001
2.4899999999999998,249,0.09,-0.711,-0.145,4.6982555999999995,-17.9335854,18.3919518,80.91312875999998,3.9820581,-68.49139932
2.5,250,0.106,-0.685,-0.14800000000000002,3.6096353999999997,-19.480572,18.506543399999998,80.94177666,3.77579322,-68.65182755999999
2.51,251,0.07400000000000001,-0.669,-0.152,1.5469866,-21.142150199999996,18.907614,80.94750624,3.56379876,-68.82944454
2.52,252,0.021,-0.657,-0.146,-0.3437748,-21.0848544,19.8816426,80.92458792,3.33461556,-69.00706152000001
2.53,253,-0.021,-0.6559999999999999,-0.14300000000000002,-3.2085647999999996,-18.1054728,20.2254174,80.89021044,3.11689152,-69.1560306
2.54,254,-0.071,-0.6629999999999999,-0.14,-4.6409598,-15.756345,19.8243468,80.83864422,2.89916748,-69.28208136
2.55,255,-0.113,-0.684,-0.153,-5.0993262,-13.6936962,18.6784308,80.78134842,2.69863218,-69.38521379999999
2.56,256,-0.11800000000000001,-0.725,-0.165,-5.2139178,-10.313244000000001,17.9335854,80.7297822,2.50955604,-69.45969834
2.57,257,-0.11699999999999999,-0.762,-0.154,-4.0680017999999984,-7.2765666,17.5325148,80.67821597999998,2.2918320000000003,-69.50553498000001
2.5799999999999996,258,-0.11,-0.794,-0.106,-2.5783110000000002,-2.7501984,16.8449652,80.64956808000002,2.1199446,-69.50553498000001
2.59,259,-0.109,-0.8340000000000001,-0.05,-1.8334656000000005,1.2032118,16.272007199999994,80.63237934,1.9595163600000003,-69.47115749999999
2.5999999999999996,260,-0.10400000000000001,-0.865,-0.05,-4.010706000000001,5.9014674000000005,15.5844576,80.59227228,1.81627686,-69.38521379999999
2.61,261,-0.091,-0.9,-0.023,-4.7555514,9.1100322,14.610429000000002,80.54643564,1.6844965200000002,-69.27635178
2.6199999999999997,262,-0.068,-0.956,-0.035,-6.703608600000001,10.313244000000001,13.0634424,80.50632858,1.5412570200000002,-69.1560306
2.63,263,-0.044000000000000004,-0.977,-0.076,-5.958763200000001,10.943497800000001,11.3445684,80.44903278000002,1.44385416,-69.02997984
2.6399999999999997,264,-0.018000000000000002,-0.966,-0.07400000000000001,-1.7188740000000002,11.0580894,8.9954406,80.43184404,1.36936962,-68.90965865999999
2.65,265,-0.004,-0.9440000000000001,-0.057999999999999996,3.0366774,10.5424272,5.844171599999999,80.46622152,1.32926256,-68.79506706
2.6599999999999997,266,-0.002,-0.927,-0.034,7.2765666,9.740286,2.4064236,80.54070606,1.3178034,-68.69193462000001
2.67,267,0.002,-0.9229999999999999,-0.022000000000000002,9.5111028,8.3651868,-0.7448454000000001,80.68967513999998,1.3349921400000002,-68.61172049999999
2.6799999999999997,268,0.016,-0.935,0.0,10.886202,6.4744254,-3.7815228,80.79853716,1.38082878,-68.5544247
2.69,269,0.02,-0.972,0.0,9.7975818,3.0366774,-6.0160589999999985,80.89594002,1.44385416,-68.53150638
2.6999999999999997,270,0.011000000000000001,-1.014,0.001,8.8235532,-0.1718874,-7.1046792000000005,80.98761329999998,1.51260912,-68.54296554
2.71,271,-0.013999999999999999,-1.064,0.016,7.2765666,-2.8074942000000003,-8.307891,81.06209784,1.59282324,-68.58307260000001
2.7199999999999998,272,-0.046,-1.101,0.026000000000000002,4.583664,-4.0680017999999984,-9.7975818,81.17095986,1.6558486199999998,-68.6403684
2.73,273,-0.083,-1.126,0.0,2.3491277999999998,-2.9793816000000004,-11.745639,81.19387818,1.76471064,-68.68620503999999
2.7399999999999998,274,-0.098,-1.136,-0.039,2.4637194,1.2605076000000002,-13.2353298,81.21679650000002,1.89649098,-68.69193462000001
2.75,275,-0.079,-1.133,-0.048,5.443101,4.8128472,-14.1520626,81.27409229999998,2.04546006,-68.66328672
2.76,276,-0.040999999999999995,-1.139,-0.11,5.72958,7.2765666,-14.9542038,81.3313881,2.20015872,-68.61172049999999
2.77,277,-0.006,-1.146,-0.17,8.021412000000002,8.250595200000001,-15.068795399999999,81.40014306,2.35485738,-68.5544247
2.78,278,0.032,-1.196,-0.304,4.9847346,5.5576926,-13.9228794,81.45170928,2.49809688,-68.52004722
2.79,279,0.076,-1.238,-0.32299999999999995,5.5576926,0.8021411999999999,-11.1153852,81.50900508000002,2.6069589,-68.52577679999999
2.8,280,0.11199999999999999,-1.288,-0.267,8.5370742,-7.1046792000000005,-9.2819196,81.59494878,2.6929026,-68.61172049999999
2.81,281,0.14400000000000002,-1.3230000000000002,-0.226,8.9954406,-12.605075999999999,-7.3911582,81.68089248,2.7501984,-68.74350084
2.82,282,0.16699999999999998,-1.3419999999999999,-0.149,12.9488508,-16.272007199999994,-3.8388186,81.80694324,2.7788463,-68.90965865999999
2.8299999999999996,283,0.10400000000000001,-1.3519999999999999,-0.085,14.896907999999998,-21.314037600000002,-0.5156622000000001,81.95591232000002,2.76165756,-69.11592354000001
2.84,284,0.011000000000000001,-1.3419999999999999,-0.099,14.4958374,-19.9389384,2.6356068,82.09342224,2.71582092,-69.30499968000001
2.8499999999999996,285,-0.106,-1.3430000000000002,-0.111,8.651665800000002,-14.5531332,1.2605076000000002,82.17936594,2.68717302,-69.44823918
2.86,286,-0.21100000000000002,-1.37,-0.207,-0.7448454000000001,-3.1512689999999997,-4.4690724,82.16790678,2.72728008,-69.48834624
2.8699999999999997,287,-0.27899999999999997,-1.419,-0.318,-6.417129599999999,9.6256944,-10.7143146,82.09915182,2.83041252,-69.40813212
2.88,288,-0.265,-1.429,-0.36200000000000004,-7.5057497999999985,19.652459399999998,-14.610429000000002,82.03039686,2.99084076,-69.23624472
2.8899999999999997,289,-0.17800000000000002,-1.361,-0.402,-6.2452422,25.4393352,-16.902261,81.97310106,3.18564648,-69.00706152000001
2.9,290,-0.040999999999999995,-1.23,-0.434,-3.2085647999999996,28.4760126,-16.673077799999998,81.95018274,3.380452200000001,-68.74923042
2.9099999999999997,291,0.059000000000000004,-1.099,-0.449,0.2291832000000001,29.621928600000004,-13.750992000000002,81.96737148,3.5523396000000003,-68.47421058
2.92,292,0.11900000000000001,-1.002,-0.424,4.010706000000001,28.934378999999996,-8.5370742,81.95018274,3.68411994,-68.20492032
2.9299999999999997,293,0.146,-0.943,-0.381,5.7868758000000025,27.7311672,-3.0939732,82.02466728,3.74714532,-67.93563006
2.94,294,0.14300000000000002,-0.9,-0.335,6.417129599999999,26.929026,1.3178034,82.1048814,3.76433406,-67.66633979999999
2.9499999999999997,295,0.131,-0.885,-0.305,4.6409598,26.7571386,3.0366774,82.1621772,3.76433406,-67.39704954
2.96,296,0.111,-0.882,-0.295,1.0313244000000001,27.3873924,1.6042823999999998,82.19082510000001,3.77579322,-67.12775927999999
2.9699999999999998,297,0.095,-0.868,-0.29,-1.6042823999999998,27.7311672,-1.0313244000000001,82.12779972,3.82735944,-66.85846902
2.98,298,0.07400000000000001,-0.87,-0.285,-2.9793816000000004,26.814434400000003,-4.010706000000001,82.11061098,3.896114400000001,-66.60063792000001
2.9899999999999998,299,0.067,-0.885,-0.284,-4.8128472,25.4393352,-6.8182002000000015,82.07050392,3.98778768,-66.35999556
3.0,300,0.075,-0.904,-0.27399999999999997,-5.844171599999999,23.605869600000002,-9.1100322,82.02466728,4.102379279999999,-66.13654194
3.01,301,0.08199999999999999,-0.924,-0.256,-5.1566220000000005,21.485925,-10.4278356,81.98456021999998,4.22843004,-65.94173622000001
3.02,302,0.094,-0.9329999999999999,-0.222,-4.6409598,19.8816426,-10.7716104,81.91580526,4.37166954,-65.76411924
3.03,303,0.11599999999999999,-0.9359999999999999,-0.20600000000000002,-4.7555514,20.05353,-10.4851314,81.88142778,4.4977203,-65.58077268
3.04,304,0.11599999999999999,-0.9329999999999999,-0.191,-5.443101,21.5432208,-9.9121734,81.83559113999998,4.6180414800000005,-65.38023738
3.05,305,0.10800000000000001,-0.9259999999999999,-0.177,-6.1879464,23.491278,-10.084060800000001,81.7897545,4.74409224,-65.16251334
3.06,306,0.094,-0.912,-0.17300000000000001,-6.9327918,25.210151999999997,-11.2299768,81.73245870000002,4.88160216,-64.93333014
3.07,307,0.067,-0.888,-0.175,-7.6203414,27.043617600000005,-12.9488508,81.65797416000002,5.03630082,-64.68695819999999
3.08,308,0.052000000000000005,-0.853,-0.172,-6.703608600000001,29.220858000000003,-14.7250206,81.61213752,5.2139178,-64.41766794
3.09,309,0.04,-0.823,-0.172,-5.72958,30.3094782,-15.928232399999999,81.57203046,5.40299394,-64.1426481
3.0999999999999996,310,0.025,-0.792,-0.138,-5.1566220000000005,30.7678446,-16.673077799999998,81.54338256,5.6035292399999985,-63.86189868
3.11,311,0.012,-0.78,-0.11900000000000001,-6.0160589999999985,31.111619399999995,-16.272007199999994,81.5032755,5.79833496,-63.58114926
3.1199999999999997,312,0.02,-0.7659999999999999,-0.113,-9.453807,31.856464799999998,-14.9542038,81.42879096,5.97595194,-63.28894068
3.13,313,0.028999999999999998,-0.74,-0.10400000000000001,-11.172680999999999,33.74722620000001,-12.776963400000001,81.34284726,6.14210976,-62.97954336
3.1399999999999997,314,0.055,-0.731,-0.11,-12.834259199999998,35.46610020000001,-10.828906199999999,81.2454444,6.29107884,-62.64149814
3.15,315,0.08,-0.73,-0.125,-15.6417534,36.554720399999994,-9.5111028,81.11939364,6.428588760000001,-62.29772333999999
3.1599999999999997,316,0.10800000000000001,-0.73,-0.146,-17.5325148,37.41415739999999,-8.7662574,80.97615413999998,6.560369099999999,-61.94248938
3.17,317,0.124,-0.727,-0.166,-17.6471064,38.0444112,-7.906820400000001,80.82145548,6.69214944,-61.58152584
3.1799999999999997,318,0.125,-0.73,-0.162,-15.4125702,37.41415739999999,-6.703608600000001,80.70113429999998,6.80674104,-61.22629188
3.19,319,0.11900000000000001,-0.736,-0.151,-12.261301199999998,35.236917,-4.7555514,80.61519059999998,6.898414319999999,-60.88824666000001
3.1999999999999997,320,0.11199999999999999,-0.7490000000000001,-0.153,-9.7975818,32.142943800000005,-2.4637194,80.54643564,6.96716928,-60.57311976
3.21,321,0.11599999999999999,-0.748,-0.142,-7.5630456000000015,30.137590799999998,-0.11459160000000004,80.50632858,7.00727634,-60.28091118000001
3.2199999999999998,322,0.111,-0.759,-0.111,-4.8701430000000006,26.9863218,1.6042823999999998,80.48341026,7.030194660000001,-60.01162092
3.23,323,0.115,-0.778,-0.09,-4.8128472,23.835052800000003,2.86479,80.46049194,7.03592424,-59.77097856
3.2399999999999998,324,0.124,-0.802,-0.095,-4.5263682,23.2620948,3.8388186,80.44330319999997,7.030194660000001,-59.53606578
3.25,325,0.134,-0.835,-0.085,-2.6929026,22.7464326,5.3858052,80.43757362,7.00727634,-59.301153
3.26,326,0.138,-0.8759999999999999,-0.043,-0.5156622000000001,19.8243468,6.875496000000001,80.45476235999998,6.96716928,-59.09488811999999
3.27,327,0.145,-0.9229999999999999,-0.044000000000000004,1.0313244000000001,16.902261,8.250595200000001,80.52351732,6.9270622200000025,-58.90581198
3.28,328,0.153,-0.9620000000000001,-0.042,2.7501984,14.610429000000002,10.7143146,80.56935396,6.8411185199999975,-58.74538374
3.29,329,0.157,-0.981,-0.035,5.7868758000000025,10.5424272,14.0947668,80.63810892000002,6.7150677599999975,-58.61933298
3.3,330,0.147,-0.9840000000000001,-0.021,9.5111028,6.0733548,17.761698000000006,80.74697094,6.5546395199999985,-58.52765970000001
3.31,331,0.14,-0.992,-0.004,12.4904844,2.0626488000000003,21.199446,80.87875127999997,6.348374640000001,-58.47609348
3.32,332,0.12,-1.014,0.001,13.464512999999998,-2.0053530000000004,24.1788276,81.05636826,6.113461859999999,-58.45317516
3.33,333,0.096,-1.044,0.01,13.2353298,-4.6409598,26.1841806,81.18814859999998,5.849901179999999,-58.45317516
3.34,334,0.077,-1.082,0.006999999999999999,12.4904844,-6.130650599999999,26.5279554,81.31419936,5.58061092,-58.47609348
3.3499999999999996,335,0.063,-1.119,0.0,10.943497800000001,-7.734933000000002,24.9809688,81.42306138000002,5.3285094000000015,-58.51620054
3.36,336,0.062,-1.1520000000000001,-0.016,8.9954406,-9.5111028,22.6891368,81.51473466,5.0935966200000005,-58.57349634000001
3.3699999999999997,337,0.069,-1.167,-0.07400000000000001,7.333862400000001,-9.3392154,20.05353,81.5892192,4.88160216,-58.63652172
3.38,338,0.10099999999999999,-1.186,-0.21,5.6149884000000005,-2.3491277999999998,16.386598799999998,81.65224458,4.72117392,-58.63652172
3.3899999999999997,339,0.133,-1.2,-0.358,4.8701430000000006,14.32395,11.0580894,81.70954037999998,4.629500640000002,-58.48182306
3.4,340,0.125,-1.234,-0.35600000000000004,8.9954406,30.8251404,4.7555514,81.82413198,4.6180414800000005,-58.16669616
3.4099999999999997,341,0.066,-1.296,-0.285,12.2040054,38.8465524,-0.8021411999999999,81.97310106,4.6696076999999985,-57.78281430000001
3.42,342,-0.040999999999999995,-1.301,-0.16399999999999998,14.8396122,33.231564,-2.291832,82.15071803999999,4.71544434,-57.46195782
3.4299999999999997,343,-0.083,-1.242,-0.141,11.2872726,19.7097552,-1.145916,82.2767688,4.74409224,-57.267152100000004
3.44,344,0.0,-1.244,-0.16,1.3178034,16.386598799999998,0.3437748,82.29968712,4.76128098,-57.10099428
3.4499999999999997,345,0.14800000000000002,-1.2930000000000001,-0.223,-3.0939732,18.793022399999998,2.0626488000000003,82.28249838,4.76128098,-56.91191814
3.46,346,0.305,-1.386,-0.263,-0.9740286,17.8762896,3.8961144,82.28249838,4.73836266,-56.73430116
3.4699999999999998,347,0.413,-1.4380000000000002,-0.322,-0.9167328000000001,19.308684600000007,6.4744254,82.28249838,4.70971476,-56.53376586
3.48,348,0.45799999999999996,-1.405,-0.316,4.1825934,17.761698000000006,11.1153852,82.33979418,4.6180414800000005,-56.34468972
3.4899999999999998,349,0.428,-1.328,-0.319,6.6463128000000005,14.32395,15.011499599999999,82.42000829999998,4.48626114,-56.1785319
3.5,350,0.312,-1.218,-0.3670000000000001,8.9954406,10.1986524,16.042824000000003,82.51741116,4.33729206,-56.05821072
3.51,351,0.191,-1.11,-0.392,13.9228794,6.589017,15.3552744,82.66638024,4.19405256,-55.97226702
3.52,352,0.085,-1.03,-0.384,18.3919518,4.1825934,13.0634424,82.78670142,4.0680017999999984,-55.92070079999999
3.53,353,0.008,-1.0,-0.35,20.3973048,4.7555514,10.5424272,82.99869588,3.97059894,-55.85767542
3.54,354,-0.013999999999999999,-0.9940000000000001,-0.324,19.4232762,6.6463128000000005,8.021412000000002,83.19923118,3.896114400000001,-55.78319088000001
3.55,355,-0.016,-0.992,-0.309,17.8762896,9.7975818,6.3598338,83.38830732,3.84454818,-55.67432886
3.56,356,-0.012,-0.995,-0.29,15.3552744,13.6936962,5.6149884000000005,83.55446514,3.80444112,-55.53108936
3.57,357,-0.01,-0.995,-0.28600000000000003,12.834259199999998,17.9908812,6.6463128000000005,83.64040884,3.7299565800000014,-55.35347237999999
3.58,358,-0.011000000000000001,-1.012,-0.285,11.2299768,22.0015872,8.3651868,83.76645959999998,3.666931200000001,-55.12428918000001
3.59,359,-0.025,-1.0190000000000001,-0.264,10.084060800000001,26.69984280000001,10.1413566,83.8810512,3.59244666,-54.84926934
3.5999999999999996,360,-0.038,-1.012,-0.23,9.224623800000002,30.595957199999997,10.4851314,83.9956428,3.5122325400000003,-54.53414244
3.61,361,-0.046,-0.996,-0.22699999999999998,7.448453999999999,34.4347758,10.1413566,84.08731608000002,3.4377480000000005,-54.18463806000001
3.6199999999999997,362,-0.055999999999999994,-0.973,-0.244,5.958763200000001,38.10170700000001,9.396511199999999,84.12742313999998,3.3518043,-53.8007562
3.63,363,-0.055999999999999994,-0.945,-0.235,5.844171599999999,42.685371,8.59437,84.20763725999998,3.2945085,-53.371037699999995
3.6399999999999997,364,-0.057999999999999996,-0.9159999999999999,-0.23399999999999999,6.8182002000000015,46.7533728,8.307891,84.29931054,3.2486718599999995,-52.89548255999999
3.65,365,-0.063,-0.8959999999999999,-0.23,8.078707799999998,49.5035712,8.7089616,84.40244298,3.19710564,-52.39700910000001
3.6599999999999997,366,-0.076,-0.885,-0.18899999999999997,9.224623800000002,51.9672906,9.8548776,84.51703458,3.13408026,-51.87561732
3.67,367,-0.076,-0.8740000000000001,-0.16899999999999998,8.59437,55.290447,12.5477802,84.61443744,3.03094782,-51.31984806000001
3.6799999999999997,368,-0.063,-0.858,-0.16399999999999998,7.9641161999999985,58.15523699999999,15.126091199999998,84.71756988,2.9220857999999996,-50.72970132
3.69,369,-0.049,-0.846,-0.17300000000000001,7.0473834,60.275181599999996,17.589810600000003,84.81497274,2.78457588,-50.11663626
3.6999999999999997,370,-0.026000000000000002,-0.825,-0.18,6.0160589999999985,61.07732280000001,19.7097552,84.89518686,2.62987722,-49.49784162
3.71,371,-0.011000000000000001,-0.804,-0.19699999999999998,4.5263682,61.1346186,21.2567418,84.96394182,2.45226024,-48.8733174
3.7199999999999998,372,0.001,-0.778,-0.19899999999999998,4.583664,61.36380179999999,21.886995600000002,85.00977845999998,2.2746432600000004,-48.24879317999999
3.73,373,0.004,-0.764,-0.18899999999999997,5.5003968,62.10864720000001,21.772404,85.07853342,2.0912967,-47.61853938
3.7399999999999998,374,-0.006999999999999999,-0.752,-0.17800000000000002,5.9014674000000005,61.764872399999994,21.600516600000002,85.15301796,1.91367972,-46.98828558
3.75,375,-0.013000000000000001,-0.757,-0.165,6.3025379999999975,60.9054354,20.9702628,85.23323208,1.74179232,-46.36949094
3.76,376,-0.016,-0.767,-0.121,4.0680017999999984,62.3951262,19.5378678,85.2847983,1.5813640800000002,-45.73923714
3.77,377,-0.005,-0.758,-0.11,1.6042823999999998,63.88481700000001,18.3919518,85.30198704,1.432395,-45.0917946
3.78,378,0.001,-0.76,-0.11599999999999999,-1.145916,63.3691548,17.246035799999998,85.29625746,1.29488508,-44.45581122
3.79,379,0.0,-0.775,-0.096,-3.4950437999999995,63.4264506,16.329303,85.26760956,1.1688343199999998,-43.81409826
3.8,380,-0.002,-0.8029999999999999,-0.10400000000000001,-6.3025379999999975,62.7961968,15.813640800000002,85.20458418000003,1.04278356,-43.18384446
3.81,381,-0.018000000000000002,-0.8320000000000001,-0.146,-8.9954406,62.22323879999999,16.157415599999997,85.11864048,0.9167328,-42.55359066
3.82,382,-0.032,-0.852,-0.153,-7.448453999999999,62.910788399999994,16.8449652,85.03269678,0.7792228800000001,-41.92333686
3.83,383,-0.046,-0.877,-0.14,-2.1772404,65.4890994,17.761698000000006,85.00977845999998,0.64171296,-41.25870558
3.84,384,-0.057999999999999996,-0.88,-0.125,2.6356068,68.75496,18.3919518,85.03269678,0.4984734599999999,-40.5654264
3.8499999999999996,385,-0.069,-0.873,-0.086,7.333862400000001,72.5937786,18.506543399999998,85.10145173999999,0.36096354,-39.83204016
3.86,386,-0.08900000000000001,-0.875,-0.055,8.307891,75.45856859999998,18.2200644,85.18166586000002,0.22345362,-39.0757356
3.8699999999999997,387,-0.10800000000000001,-0.884,-0.057,6.417129599999999,77.92228800000002,18.449247600000003,85.23896166,0.06875496,-38.29078314
3.88,388,-0.11,-0.9079999999999999,-0.055999999999999994,4.8128472,79.4119788,20.168121600000006,85.27906872,-0.08021412,-37.48864194
3.8899999999999997,389,-0.09300000000000001,-0.9420000000000001,-0.067,2.1199446,80.21412,21.772404,85.2847983,-0.25210152,-36.68077116
3.9,390,-0.078,-0.965,-0.083,-0.3437748,80.7297822,22.86102420000001,85.26760956,-0.43544808,-35.8671708
3.9099999999999997,391,-0.07200000000000001,-0.973,-0.075,0.4583664000000001,83.9956428,22.2307704,85.25615040000002,-0.6073354799999999,-35.01919296
3.92,392,-0.07400000000000001,-0.985,-0.069,2.5210152000000003,86.51665799999998,20.8556712,85.25615040000002,-0.7734933,-34.1482968
3.9299999999999997,393,-0.071,-0.992,-0.059000000000000004,3.4377480000000005,88.5793068,18.8503182,85.26760956,-0.91100322,-33.25448232
3.94,394,-0.076,-0.9840000000000001,-0.07200000000000001,4.4117766,91.9024632,16.558486199999994,85.2847983,-1.0255948199999998,-32.33774952
3.9499999999999997,395,-0.073,-0.9740000000000001,-0.051,6.3598338,94.1942952,14.7823164,85.31917578,-1.12299768,-31.39236882
3.96,396,-0.064,-0.9690000000000001,-0.037000000000000005,4.4690724,94.7099574,13.6936962,85.33636451999998,-1.20894138,-30.44698812
3.9699999999999998,397,-0.037000000000000005,-0.9590000000000001,-0.038,2.1199446,95.6266902,12.9488508,85.32490535999997,-1.28342592,-29.49014826
3.98,398,-0.005,-0.953,-0.059000000000000004,1.6615782,95.2829154,13.0634424,85.30771662,-1.36364004,-28.53903798
3.9899999999999998,399,0.012,-0.938,-0.048,4.2398892,95.111028,13.636400400000001,85.3134462,-1.44958374,-27.593657279999995
4.0,400,0.026000000000000002,-0.935,-0.004,8.021412000000002,94.7672532,14.1520626,85.35928284,-1.53552744,-26.642546999999997
4.01,401,0.002,-0.9359999999999999,0.027999999999999997,9.5111028,95.39750699999999,13.521808800000002,85.41657864,-1.62147114,-25.69143672
4.02,402,-0.042,-0.938,0.05,9.224623800000002,98.2050012,11.5164558,85.47960402,-1.6844965200000002,-24.71167854
4.03,403,-0.069,-0.951,0.078,9.682990199999999,98.77795920000001,8.59437,85.53689982,-1.7188740000000002,-23.72619078
4.04,404,-0.08900000000000001,-0.992,0.085,7.448453999999999,98.09040959999999,6.0733548,85.57127729999998,-1.73033316,-22.75216218
4.05,405,-0.083,-1.004,0.055999999999999994,4.583664,98.1477054,4.8128472,85.57700688,-1.73033316,-21.77813358
4.06,406,-0.077,-1.023,0.034,4.4117766,97.6320432,4.297185,85.57700688,-1.7246035799999997,-20.80983456
4.07,407,-0.073,-1.034,0.016,2.6929026,98.548776,3.4377480000000005,85.57127729999998,-1.7188740000000002,-19.83007638
4.08,408,-0.076,-1.0390000000000001,0.018000000000000002,2.2345362,99.8665794,2.9220858,85.55408856,-1.6959556799999995,-18.844588620000003
4.09,409,-0.077,-1.0390000000000001,0.011000000000000001,1.8907614,102.3302988,2.291832,85.52544065999999,-1.6673077799999998,-17.83045296
4.1,410,-0.063,-1.035,0.012,1.0886202,106.2264132,1.3750992,85.49679276,-1.6329303,-16.781939819999998
4.109999999999999,411,-0.024,-1.022,0.011000000000000001,0.572958,111.6695142,-0.057295800000000015,85.45668570000002,-1.5756344999999998,-15.676130880000002
4.12,412,0.003,-1.015,-0.006,1.2032118,114.1905294,-1.3178034,85.42230822,-1.49542038,-14.54740362
4.13,413,0.006999999999999999,-1.035,-0.054000000000000006,-0.4583664000000001,114.305121,-1.6615782,85.37647158,-1.4209358399999998,-13.42440594
4.14,414,0.027999999999999997,-1.09,-0.141,-3.7242269999999995,113.67486720000001,-0.9740286,85.29625746,-1.35218088,-12.30140826
4.1499999999999995,415,0.037000000000000005,-1.2009999999999998,-0.33,-16.673077799999998,106.97125859999998,1.8334656000000005,85.08426299999998,-1.31207382,-11.24716554
4.16,416,0.091,-1.22,-0.38,-18.277360199999997,102.3302988,5.3285094000000015,84.86653895999999,-1.30634424,-10.23302988
4.17,417,0.14800000000000002,-1.222,-0.364,-12.4904844,97.0017894,5.9014674000000005,84.68892198,-1.29488508,-9.27046044
4.18,418,0.174,-1.24,-0.341,-8.7662574,89.83981440000002,4.6409598,84.56287122,-1.28342592,-8.382375540000002
4.1899999999999995,419,0.27399999999999997,-1.2819999999999998,-0.287,-1.2032118,84.11023440000002,4.1252976000000015,84.52276416000002,-1.26623718,-7.545856859999999
4.2,420,0.324,-1.306,-0.183,6.6463128000000005,75.00020219999998,5.72958,84.56287122,-1.27196676,-6.8010114600000025
4.21,421,0.221,-1.2930000000000001,-0.128,6.6463128000000005,68.41118519999999,7.2192707999999985,84.60870786,-1.30061466,-6.11919144
4.22,422,0.064,-1.284,-0.14,3.7815228,69.6716928,6.3598338,84.61443744,-1.31207382,-5.42591226
4.2299999999999995,423,-0.059000000000000004,-1.2919999999999998,-0.172,-1.6615782,75.2293854,2.7501984,84.57433037999998,-1.29488508,-4.68106686
4.24,424,-0.155,-1.3130000000000002,-0.22399999999999998,-8.479778399999999,81.932994,-0.11459160000000004,84.45973878,-1.23758928,-3.873196080000002
4.25,425,-0.14400000000000002,-1.3259999999999998,-0.267,-11.3445684,88.0063488,-1.9480572,84.31076970000002,-1.1573751600000002,-3.0080294999999997
4.26,426,-0.053,-1.317,-0.26,-10.886202,90.69925140000001,-4.1252976000000015,84.17325978,-1.05424272,-2.1199446
4.27,427,0.052000000000000005,-1.271,-0.22,-8.5370742,92.246238,-5.5003968,84.04720902,-0.92246238,-1.21467096
4.28,428,0.11900000000000001,-1.199,-0.213,-6.589017,94.65266159999999,-5.3285094000000015,83.95553574,-0.79641162,-0.28647900000000004
4.29,429,0.134,-1.126,-0.214,-4.7555514,97.23097259999999,-4.0680017999999984,83.8810512,-0.68182002,0.6589017
4.3,430,0.11699999999999999,-1.06,-0.20199999999999999,-2.5783110000000002,101.2416786,-2.5783110000000002,83.82948498,-0.5786875800000001,1.6558486199999998
4.31,431,0.09300000000000001,-1.014,-0.174,-1.8334656000000005,107.3723292,-1.7188740000000002,83.78937792,-0.47555514,2.71009134
4.32,432,0.036000000000000004,-0.976,-0.157,-2.6356068,114.9926706,-1.7761698000000001,83.73208212,-0.36096354,3.84454818
4.33,433,-0.011000000000000001,-0.943,-0.156,-4.583664,122.7848994,-1.6615782,83.65759758,-0.24637194,5.04775998
4.34,434,-0.038,-0.903,-0.15,-6.875496000000001,130.34794499999998,-1.3178034,83.5659243,-0.12605075999999998,6.3311859
4.35,435,-0.036000000000000004,-0.879,-0.128,-8.651665800000002,137.3380326,-0.1718874,83.45706228,-0.01145916,7.68336678
4.36,436,-0.027999999999999997,-0.87,-0.133,-12.4904844,144.15623280000003,1.3178034,83.31382278,0.09167328,9.10430262
4.37,437,-0.006,-0.862,-0.147,-16.2147114,152.12034899999998,3.6669312000000014,83.13047622,0.19480572,10.60545258
4.38,438,0.028999999999999998,-0.853,-0.138,-17.303331600000003,157.79263319999995,6.4744254,82.9356705,0.27501984,12.16389834
4.39,439,0.073,-0.853,-0.128,-16.1001198,162.31900140000005,9.8548776,82.76378309999998,0.32658606,13.76818074
4.3999999999999995,440,0.113,-0.846,-0.107,-13.6936962,163.6941006,12.7196676,82.60908443999998,0.36096354,15.39538146
4.41,441,0.128,-0.833,-0.08199999999999999,-10.3705398,163.23573420000002,15.4125702,82.49449283999998,0.3724227000000001,17.0168526
4.42,442,0.129,-0.821,-0.048,-6.875496000000001,161.74604340000005,18.2200644,82.41427872,0.3724227000000001,18.63259416
4.43,443,0.135,-0.8190000000000001,-0.019,-4.583664,160.7720148,20.9702628,82.35698292000002,0.32658606,20.23687656
4.4399999999999995,444,0.152,-0.823,-0.013000000000000001,-5.2712136,162.0325224,23.3766864,82.29395754,0.26929026,21.8583477
4.45,445,0.161,-0.838,-0.019,-6.703608600000001,163.46491740000005,25.382039399999996,82.20801384,0.18907614,23.49700758
4.46,446,0.161,-0.8740000000000001,-0.015,-7.3911582,163.4076216,27.6738714,82.11634056,0.09167328,25.14139704
4.47,447,0.18100000000000002,-0.909,0.004,-7.161975,162.433593,29.5646328,82.03039686,-0.00572958,26.77432734000001
4.4799999999999995,448,0.196,-0.9420000000000001,0.011000000000000001,-7.161975,162.720072,31.22621100000001,81.93299400000002,-0.13178034,28.418716800000002
4.49,449,0.20600000000000002,-0.961,0.006999999999999999,-7.161975,163.63680480000005,32.6013102,81.83559113999998,-0.26929026,30.06883584
4.5,450,0.191,-0.975,-0.003,-5.7868758000000025,162.14711400000004,33.804522,81.74391786,-0.41825934,31.70749572
4.51,451,0.165,-0.9740000000000001,-0.006999999999999999,-3.380452200000001,158.36559119999995,34.8358464,81.6751629,-0.5786875800000001,33.31177812
4.52,452,0.15,-0.972,0.001,-0.6302538000000001,153.4381524,35.46610020000001,81.64078542,-0.7391158200000001,34.870223880000005
4.53,453,0.172,-0.963,0.022000000000000002,2.1772404,150.00040439999995,35.46610020000001,81.6178671,-0.91100322,36.38856258
4.54,454,0.207,-0.958,0.034,4.8701430000000006,148.5680094,34.37748,81.62359668,-1.07716104,37.901171700000006
4.55,455,0.23,-0.95,0.037000000000000005,7.0473834,147.42209340000005,32.7731976,81.64651500000002,-1.22613012,39.39659208
4.56,456,0.239,-0.956,0.036000000000000004,8.078707799999998,145.53133200000005,31.340802600000004,81.6751629,-1.36364004,40.86909414
4.57,457,0.231,-0.966,0.03,7.906820400000001,143.1249084,30.4813656,81.70954037999998,-1.4782316400000002,42.31867788
4.58,458,0.21899999999999997,-0.963,0.026000000000000002,7.0473834,140.7757806,30.5386614,81.72672911999999,-1.6157415599999996,43.7453433
4.59,459,0.22,-0.943,0.036000000000000004,6.2452422,139.9736394,30.8251404,81.72672911999999,-1.75898106,45.16054956
4.6,460,0.22899999999999998,-0.9209999999999999,0.044000000000000004,6.0733548,139.4006814,30.5386614,81.72672911999999,-1.89649098,46.57575582
4.61,461,0.23399999999999999,-0.9129999999999999,0.032,5.3858052,138.94231499999998,29.8511118,81.71526996,-2.0340009,47.9852325
4.62,462,0.225,-0.903,0.015,5.443101,138.1974696,28.877083199999998,81.70954037999998,-2.13713334,49.38325002
4.63,463,0.222,-0.904,0.01,6.130650599999999,136.5931872,28.361421000000004,81.7038108,-2.25745452,50.76407879999999
4.64,464,0.222,-0.907,0.008,5.9014674000000005,134.072172,28.418716800000002,81.69235164,-2.38350528,52.12198926
4.6499999999999995,465,0.23399999999999999,-0.905,0.01,6.7609043999999985,131.9522274,28.762491600000004,81.68662206,-2.50955604,53.46271098
4.66,466,0.249,-0.898,0.013000000000000001,8.307891,130.29064920000002,28.934378999999996,81.69235164,-2.6413363800000003,54.78051438
4.67,467,0.261,-0.893,0.006,9.3392154,128.2852962,29.1062664,81.72099954000002,-2.75592798,56.08685862
4.68,468,0.261,-0.879,0.01,10.657018800000001,125.5923936,29.0489706,81.74964744,-2.89916748,57.36455496
4.6899999999999995,469,0.267,-0.875,0.0,10.943497800000001,123.0713784,28.6479,81.77829534,-3.0366774000000003,58.613603399999995
4.7,470,0.276,-0.882,0.001,12.3758928,120.55036319999999,28.361421000000004,81.82413198,-3.1799169000000003,59.83973352
4.71,471,0.27399999999999997,-0.8959999999999999,0.006,12.261301199999998,116.7115446,27.501984000000004,81.86423904,-3.31742682,61.02575657999999
4.72,472,0.266,-0.912,0.008,11.5164558,113.67486720000001,26.814434400000003,81.91007568,-3.42628884,62.18313174
4.7299999999999995,473,0.263,-0.9359999999999999,-0.001,9.453807,111.95599320000001,26.241476399999996,81.92153484,-3.5580691799999995,63.32331816
4.74,474,0.258,-0.9540000000000001,-0.013000000000000001,7.5057497999999985,111.6695142,25.4393352,81.91007568,-3.67839036,64.457775
4.75,475,0.255,-0.9740000000000001,-0.042,6.4744254,111.78410579999999,24.694489800000003,81.88715736,-3.79871154,65.59223184
4.76,476,0.226,-0.99,-0.06,6.703608600000001,111.440331,23.5485738,81.86423904,-3.90184398,66.72095909999999
4.77,477,0.204,-1.015,-0.046,7.1046792000000005,111.5549226,22.631841,81.85277988,-3.97632852,67.84968635999999
4.78,478,0.159,-1.05,-0.071,6.4744254,113.3883882,20.626488000000002,81.82413198,-4.05081306,68.99560235999999
4.79,479,0.11199999999999999,-1.089,-0.095,5.0993262,116.310474,16.959556799999998,81.77829534,-4.08519054,70.16443668000001
4.8,480,0.071,-1.133,-0.105,2.9793816000000004,121.6389834,12.3758928,81.7038108,-4.0680017999999984,71.37910764
4.81,481,0.02,-1.1520000000000001,-0.141,2.0626488000000003,126.45183059999998,7.5057497999999985,81.62359668,-3.99351726,72.63388566
4.82,482,-0.032,-1.145,-0.134,1.4896908000000002,128.91555,3.1512689999999997,81.53192340000003,-3.873196080000002,73.911582
4.83,483,-0.062,-1.137,-0.14300000000000002,-3.2658606,132.23870639999998,0.286479,81.39441348,-3.71849742,75.21219666
4.84,484,-0.054000000000000006,-1.107,-0.136,-9.5111028,137.8536948,-1.0886202,81.19387818,-3.54088044,76.56437754
4.85,485,-0.025,-1.0979999999999999,-0.157,-16.673077799999998,144.15623280000003,-2.6929026,80.91885834,-3.33461556,77.97385421999998
4.86,486,-0.017,-1.068,-0.201,-18.9649098,147.8804598,-5.443101,80.62664975999998,-3.08824362,79.4119788
4.87,487,0.009000000000000001,-1.013,-0.249,-11.5737516,147.6512766,-10.1986524,80.40892572,-2.7788463,80.8443738
4.88,488,0.064,-0.9309999999999999,-0.23600000000000002,1.145916,141.4633302,-11.917526400000002,80.34017076,-2.46944898,82.20801384
4.89,489,0.163,-0.8370000000000001,-0.166,10.2559482,128.7436626,-8.250595200000001,80.37454824,-2.2058883,83.45706228
4.8999999999999995,490,0.267,-0.7440000000000001,-0.095,9.9121734,114.7634874,-0.9740286,80.42038488,-2.03973048,84.58005996
4.91,491,0.302,-0.693,-0.057999999999999996,2.6356068,103.13244,6.7609043999999985,80.39746656,-1.96524594,85.60565478000002
4.92,492,0.305,-0.71,-0.057,-6.990087599999999,95.683986,11.9748222,80.28287496,-1.91367972,86.55676506
4.93,493,0.267,-0.7659999999999999,-0.066,-13.8082878,88.8657858,14.438541599999999,80.09952840000003,-1.93086846,87.45057954
4.9399999999999995,494,0.201,-0.835,-0.069,-16.272007199999994,81.932994,14.32395,79.89899310000001,-1.95378678,88.27563906
4.95,495,0.11,-0.902,-0.059000000000000004,-19.595163600000006,76.31800559999998,11.6310474,79.66408032,-1.9595163600000003,89.03767320000001
4.96,496,0.037000000000000005,-0.941,-0.064,-23.14750320000001,73.96887779999999,9.0527364,79.38906048,-1.93659804,89.77678902
4.97,497,-0.023,-0.9790000000000001,-0.075,-24.8663772,71.5624542,7.2765666,79.11404064,-1.89649098,90.48725694
4.9799999999999995,498,-0.064,-1.0290000000000001,-0.09300000000000001,-26.642546999999997,68.58307260000001,6.703608600000001,78.81610248000001,-1.85638392,91.16907696
4.99,499,-0.09300000000000001,-1.081,-0.10800000000000001,-27.100913399999996,64.97343719999999,7.448453999999999,78.51243473999997,-1.82200644,91.81078992
5.0,500,-0.11199999999999999,-1.137,-0.107,-24.4080108,62.10864720000001,9.224623800000002,78.23168532,-1.8048177,92.43531414
5.01,501,-0.11599999999999999,-1.186,-0.092,-19.480572,61.020027,11.0007936,78.00823170000002,-1.81054728,93.0483792
5.02,502,-0.11699999999999999,-1.213,-0.076,-13.8655836,61.07732280000001,11.745639,77.85353303999999,-1.82200644,93.66717384
5.03,503,-0.095,-1.198,-0.055999999999999994,-6.8182002000000015,62.45242200000001,11.6310474,77.75613018,-1.82200644,94.29742764
5.04,504,-0.055,-1.156,-0.032,-3.6096353999999997,63.1399716,12.6623718,77.6931048,-1.82773602,94.93341102
5.05,505,-0.027999999999999997,-1.1159999999999999,-0.023,-2.86479,62.45242200000001,14.9542038,77.63580900000002,-1.8621134999999998,95.57512398
5.06,506,-0.018000000000000002,-1.0959999999999999,-0.02,-3.7815228,61.4210976,17.589810600000003,77.56705404,-1.9194093000000003,96.20537778
5.07,507,-0.031,-1.079,-0.022000000000000002,-4.6982555999999995,61.020027,19.5378678,77.51548782,-1.99389384,96.84136116
5.08,508,-0.046,-1.054,-0.031,-5.042030400000002,61.4783934,20.912967000000002,77.42954411999997,-2.07983754,97.48307412
5.09,509,-0.06,-1.026,-0.037000000000000005,-4.9847346,62.68160520000001,21.314037600000002,77.34933000000002,-2.17151082,98.13624624
5.1,510,-0.069,-0.995,-0.028999999999999998,-3.4377480000000005,64.9161414,21.199446,77.28057504,-2.25172494,98.81233668
5.11,511,-0.073,-0.9640000000000001,-0.011000000000000001,-0.11459160000000004,66.749607,20.626488000000002,77.24046797999998,-2.32620948,99.50561586
5.12,512,-0.084,-0.937,0.0,2.0626488000000003,68.2392978,19.365980399999998,77.25192713999998,-2.38923486,100.2103542
5.13,513,-0.086,-0.91,0.006999999999999999,2.2345362,69.900876,18.1054728,77.23473840000003,-2.42934192,100.9265517
5.14,514,-0.083,-0.889,0.024,1.3750992,71.1613836,17.131444199999994,77.20609049999999,-2.4637194,101.65420836
5.1499999999999995,515,-0.076,-0.871,0.03,1.0886202,71.90622900000002,16.386598799999998,77.17744259999998,-2.48090814,102.3875946
5.16,516,-0.068,-0.861,0.032,1.2605076000000002,71.90622900000002,15.3552744,77.14879470000002,-2.4923672999999997,103.12098084000002
5.17,517,-0.065,-0.865,0.040999999999999995,0.9740286,72.13541219999998,13.8655836,77.14879470000002,-2.4923672999999997,103.8486375
5.18,518,-0.055999999999999994,-0.88,0.04,1.145916,73.28132819999998,11.688343199999998,77.12014680000001,-2.4637194,104.58775332
5.1899999999999995,519,-0.051,-0.903,0.03,2.1772404,74.42724419999998,9.224623800000002,77.10295806,-2.4064236,105.33259872
5.2,520,-0.05,-0.9209999999999999,0.016,3.1512689999999997,75.17208959999998,6.1879464,77.09722848,-2.3204799,106.07171454000002
5.21,521,-0.049,-0.9359999999999999,-0.003,5.3858052,76.6617804,2.8074942000000003,77.10868764,-2.20015872,106.82228951999998
5.22,522,-0.034,-0.9570000000000001,-0.027999999999999997,8.9381448,77.23473840000003,-0.11459160000000004,77.18890176,-2.04546006,107.57286450000001
5.2299999999999995,523,-0.018000000000000002,-0.9520000000000001,-0.032,13.6936962,76.4325972,-2.9793816000000004,77.2920342,-1.86784308,108.31198032
5.24,524,0.009000000000000001,-0.9470000000000001,-0.019,19.0222056,75.17208959999998,-5.443101,77.45246244,-1.67303736,109.02817782
5.25,525,0.035,-0.927,-0.008,21.600516600000002,73.5678072,-8.3651868,77.64153858,-1.44958374,109.72718658
5.26,526,0.054000000000000006,-0.924,-0.015,20.7410796,71.44786260000002,-11.0007936,77.83061472,-1.20894138,110.40327702
5.27,527,0.055,-0.95,-0.05,16.2147114,68.1247062,-11.8602306,77.99104296,-0.95683986,111.0392604
5.28,528,0.081,-1.01,-0.068,11.917526400000002,65.4318036,-11.917526400000002,78.09417540000003,-0.72765666,111.65805504
5.29,529,0.142,-1.0659999999999998,-0.125,6.5317212,64.11400019999999,-10.886202,78.14574162,-0.5042030399999999,112.25966094
5.3,530,0.18100000000000002,-1.072,-0.185,3.9534102,62.68160520000001,-7.906820400000001,78.17438952,-0.32085648,112.85553726
5.31,531,0.20199999999999999,-1.052,-0.223,5.1566220000000005,65.89017,-2.5783110000000002,78.21449658,-0.17761697999999998,113.49152064
5.32,532,0.195,-1.023,-0.243,8.021412000000002,70.9894962,4.8701430000000006,78.27179238,-0.07448454,114.1905294
5.33,533,0.14400000000000002,-0.9670000000000001,-0.255,10.943497800000001,71.79163740000001,13.464512999999998,78.37492482,-0.08021412,114.91818606
5.34,534,0.066,-0.892,-0.225,13.636400400000001,72.88025760000002,21.944291399999997,78.50097558,-0.16615782,115.66876104
5.35,535,0.017,-0.88,-0.156,11.5737516,74.02617359999998,26.241476399999996,78.60983759999998,-0.29793816,116.44225434
5.36,536,0.006,-0.9159999999999999,-0.114,3.1512689999999997,71.67704579999999,26.7571386,78.62702634000001,-0.43544808,117.19282932000002
5.37,537,0.027000000000000003,-0.981,-0.1,-3.6096353999999997,69.55710119999999,24.1788276,78.58691927999998,-0.55003968,117.92048598
5.38,538,0.038,-1.072,-0.098,-4.297185,69.55710119999999,19.4232762,78.52389389999998,-0.62452422,118.63095389999998
5.39,539,0.059000000000000004,-1.156,-0.083,-0.6875496,68.58307260000001,13.464512999999998,78.50097558,-0.63598338,119.32996266
5.3999999999999995,540,0.07200000000000001,-1.212,-0.066,4.6982555999999995,66.3485364,7.734933000000002,78.53535306,-0.6016058999999999,119.98886436
5.41,541,0.091,-1.216,-0.046,11.2299768,63.3691548,3.6096353999999997,78.63275592,-0.52712136,120.61338858
5.42,542,0.128,-1.176,-0.022000000000000002,17.7044022,59.93140680000001,0.6302538000000001,78.82183205999998,-0.41252976,121.20353532
5.43,543,0.16,-1.122,-0.001,21.772404,56.0925882,-0.40107059999999994,79.03382652,-0.31512690000000004,121.74784542
5.4399999999999995,544,0.175,-1.09,0.01,23.605869600000002,52.8840234,-0.6302538000000001,79.26300972,-0.22345362,122.26350762
5.45,545,0.17600000000000002,-1.073,0.016,23.4339822,50.993262,-0.4583664000000001,79.49219292000002,-0.13178034,122.76771066
5.46,546,0.17300000000000001,-1.065,0.016,22.1161788,49.5035712,-0.4583664000000001,79.70991696000002,-0.05156622,123.24899538
5.47,547,0.168,-1.0490000000000002,0.011000000000000001,20.6837838,48.071176200000004,-0.9167328000000001,79.94482974,0.057295800000000015,123.71882094
5.4799999999999995,548,0.16,-1.023,-0.002,19.308684600000007,46.29500640000001,-1.432395,80.13390588000001,0.13750992,124.17145776
5.49,549,0.146,-0.986,-0.013999999999999999,18.162768600000003,44.404245,-1.8334656000000005,80.31725244,0.22345362,124.60690584
5.5,550,0.147,-0.948,-0.022000000000000002,17.0168526,41.252976000000004,-2.291832,80.48341026,0.30366774,125.00797644000002
5.51,551,0.134,-0.9009999999999999,-0.026000000000000002,16.2147114,37.0703826,-3.0366774,80.64956808000002,0.38388186,125.3632104
5.52,552,0.139,-0.863,-0.021,15.527161800000002,32.830493399999995,-3.6096353999999997,80.82718506,0.4984734599999999,125.68406688
5.53,553,0.14300000000000002,-0.838,-0.012,13.750992000000002,28.361421000000004,-4.010706000000001,80.96469498,0.5786875800000001,125.95335714
5.54,554,0.129,-0.8220000000000001,-0.009000000000000001,10.7143146,24.0069402,-3.380452200000001,81.07355700000002,0.64171296,126.18826992
5.55,555,0.134,-0.8,-0.009000000000000001,6.4744254,19.365980399999998,-1.7188740000000002,81.14231196,0.6875496,126.37734606
5.56,556,0.153,-0.784,-0.024,2.6356068,14.381245800000002,0.5156622000000001,81.16523028,0.69900876,126.51485598
5.57,557,0.16399999999999998,-0.78,-0.06,-0.1718874,9.8548776,3.2085647999999996,81.17095986,0.7448454000000001,126.61225884
5.58,558,0.17300000000000001,-0.762,-0.1,0.3437748,5.2139178,6.990087599999999,81.17668943999998,0.6875496,126.67528422
5.59,559,0.192,-0.7070000000000001,-0.11699999999999999,6.703608600000001,0.1718874,10.5424272,81.2454444,0.5844171599999999,126.69247296
5.6,560,0.213,-0.635,-0.076,16.7303736,-3.0939732,11.1153852,81.4173318,0.46982556,126.6810138
5.61,561,0.21,-0.5770000000000001,-0.025,25.496631,-7.2192707999999985,9.453807,81.6751629,0.3724227000000001,126.62944758
5.62,562,0.187,-0.5539999999999999,0.03,26.9863218,-11.8602306,6.417129599999999,81.96737148,0.32658606,126.52058556
5.63,563,0.165,-0.5710000000000001,0.053,21.944291399999997,-16.042824000000003,4.0680017999999984,82.19082510000001,0.26929026,126.37161648
5.64,564,0.155,-0.624,0.044000000000000004,13.636400400000001,-20.6837838,3.8388186,82.33406459999998,0.21199446,126.17108118000002
5.6499999999999995,565,0.162,-0.708,-0.002,7.333862400000001,-25.8977016,6.417129599999999,82.40854913999998,0.12032118,125.92470924
5.66,566,0.158,-0.789,-0.057,6.4744254,-30.5386614,12.834259199999998,82.4773041,-0.028647900000000007,125.64395982
5.67,567,0.135,-0.85,-0.114,9.7975818,-36.2682414,22.517249399999997,82.58043654000002,-0.26356068,125.31737376
5.68,568,0.1,-0.8240000000000001,-0.1,13.521808800000002,-39.9351726,30.022999199999997,82.72367604,-0.59587632,124.9621398
5.6899999999999995,569,0.047,-0.748,-0.057999999999999996,17.8189938,-40.33624320000001,32.658606,82.91848175999998,-0.95683986,124.60690584
5.7,570,-0.006,-0.662,0.005,22.058882999999998,-38.3308902,28.934378999999996,83.15339454,-1.27769634,124.26313104
5.71,571,-0.068,-0.573,0.083,25.6112226,-39.534102000000004,20.2254174,83.42841438,-1.50687954,123.9021675
5.72,572,-0.10300000000000001,-0.52,0.179,24.1215318,-40.7946096,9.568398599999998,83.72062296,-1.64438946,123.51255606
5.7299999999999995,573,-0.079,-0.504,0.245,18.907614,-37.41415739999999,0.6875496,83.93261742,-1.6787669399999998,123.14586294
5.74,574,-0.013999999999999999,-0.47700000000000004,0.253,14.7250206,-30.7105488,-6.0160589999999985,84.09304566,-1.64438946,122.83646561999998
5.75,575,0.036000000000000004,-0.517,0.293,17.7044022,-25.2674478,-10.4278356,84.2821218,-1.55844576,122.57863452
5.76,576,0.071,-0.653,0.315,19.0222056,-21.772404,-9.568398599999998,84.48838668,-1.4782316400000002,122.3551809
5.77,577,0.057999999999999996,-0.853,0.091,11.1153852,-18.162768600000003,-3.1512689999999997,84.63735576,-1.42666542,122.17183434
5.78,578,-0.018000000000000002,-1.0190000000000001,-0.021,6.703608600000001,-24.8663772,6.990087599999999,84.71756988,-1.51260912,121.93692156
5.79,579,-0.062,-1.156,-0.079,-0.7448454000000001,-31.111619399999995,15.928232399999999,84.72329946,-1.6902260999999998,121.64471298
5.8,580,-0.045,-1.2309999999999999,-0.309,-12.261301199999998,-31.340802600000004,17.246035799999998,84.60870786,-1.87930224,121.34677482
5.81,581,-0.036000000000000004,-1.297,-0.3670000000000001,-13.0061466,-26.069589,8.193299399999999,84.48838668,-1.9767051,121.0946733
5.82,582,-0.040999999999999995,-1.294,-0.35100000000000003,-0.3437748,-21.314037600000002,-8.880849000000003,84.47119794,-1.90222056,120.87694926000002
5.83,583,-0.006999999999999999,-1.2670000000000001,-0.28,15.9855282,-17.303331600000003,-26.5852512,84.64308534,-1.65011904,120.68214354
5.84,584,0.016,-1.287,-0.11199999999999999,18.048177,-12.891555,-39.19032720000001,84.83216148,-1.27196676,120.5217153
5.85,585,0.017,-1.357,-0.11,11.2299768,-4.1825934,-45.3209778,84.94675308000002,-0.8250595199999999,120.44150118
5.86,586,-0.071,-1.528,-0.168,2.5783110000000002,-0.8021411999999999,-45.550160999999996,84.97540097999997,-0.3724227000000001,120.39566454
5.87,587,-0.22399999999999998,-1.821,-0.16899999999999998,-8.3651868,4.583664,-43.20103320000001,84.8837277,0.04583664,120.4071237
5.88,588,-0.3,-2.0380000000000003,-0.12,-7.0473834,13.521808800000002,-37.872523799999996,84.81497274,0.4297185000000001,120.50452656
5.89,589,-0.19,-2.1069999999999998,0.018000000000000002,11.5164558,14.266654199999998,-26.0122932,84.92956434,0.69900876,120.62484774
5.8999999999999995,590,0.096,-1.9709999999999999,0.138,26.2987722,7.2192707999999985,-6.1879464,85.19312502,0.76776372,120.6936027
5.91,591,0.325,-1.7619999999999998,0.21,24.9809688,-1.0313244000000001,16.386598799999998,85.45095612,0.6073354799999999,120.69933228
5.92,592,0.36,-1.5930000000000002,0.20600000000000002,16.959556799999998,-6.5317212,31.627281600000003,85.63430267999998,0.30366774,120.65922522
5.93,593,0.275,-1.474,0.19399999999999998,13.5791046,-10.657018800000001,35.9817624,85.77181259999998,-0.05156622,120.5790111
5.9399999999999995,594,0.152,-1.402,0.195,11.45916,-15.6417534,32.31483119999999,85.89213378,-0.37815228,120.44723076
5.95,595,0.031,-1.3459999999999999,0.18899999999999997,7.161975,-18.9649098,23.7204612,85.9723479,-0.61879464,120.28107294
5.96,596,-0.038,-1.2919999999999998,0.177,0.7448454000000001,-18.449247600000003,12.7196676,85.98380705999998,-0.75630456,120.10345596
5.97,597,-0.087,-1.206,0.138,-6.1879464,-15.870936600000002,1.6615782,85.9723479,-0.8021412000000001,119.94875729999998
5.9799999999999995,598,-0.115,-1.104,0.09699999999999999,-11.1153852,-12.032118,-6.4744254,85.86348588000001,-0.7448454000000001,119.82270653999998
5.99,599,-0.115,-1.0090000000000001,0.047,-13.0634424,-8.651665800000002,-10.4851314,85.73170554,-0.64171296,119.73103325999998
6.0,600,-0.105,-0.9179999999999999,0.021,-11.5737516,-6.417129599999999,-10.4851314,85.61711394,-0.5443101,119.65654872
6.01,601,-0.095,-0.816,0.006,-7.6776372,-3.7242269999999995,-8.078707799999998,85.54262940000002,-0.46409598,119.61644166
6.02,602,-0.084,-0.705,-0.011000000000000001,-2.5783110000000002,0.0,-4.8128472,85.51971108000002,-0.44117766,119.61071208
6.03,603,-0.083,-0.609,-0.012,4.010706000000001,4.4690724,-1.9480572,85.55981814,-0.41825934,119.65654872
6.04,604,-0.095,-0.536,0.016,11.8602306,9.3392154,0.0,85.68013932,-0.41252976,119.74822199999998
6.05,605,-0.10800000000000001,-0.485,0.08,19.9389384,15.183387000000002,0.8594370000000001,85.87494504,-0.41252976,119.90292066
6.06,606,-0.109,-0.473,0.125,24.064236,22.91832,0.6875496,86.11558740000002,-0.40680018,120.13210386
6.07,607,-0.102,-0.47600000000000003,0.138,22.631841,31.6845774,-0.286479,86.36195934,-0.40680018,120.44723076
6.08,608,-0.114,-0.483,0.121,19.0222056,37.6433406,-1.0313244000000001,86.5453059,-0.37815228,120.81965346
6.09,609,-0.12,-0.484,0.107,16.272007199999994,41.9978214,-1.145916,86.70573413999998,-0.35523396,121.2379128
6.1,610,-0.11599999999999999,-0.474,0.08199999999999999,15.469866,44.690723999999996,-1.4896908000000002,86.85470322,-0.32658606,121.67909046
6.11,611,-0.07,-0.47200000000000003,0.077,14.32395,46.7533728,-2.8074942000000003,86.99221314,-0.28074942,122.14318644
6.12,612,-0.015,-0.496,0.085,12.834259199999998,47.0971476,-4.3544808,87.12399348,-0.22345362,122.60728242
6.13,613,0.055999999999999994,-0.546,0.11199999999999999,12.2040054,46.638781200000004,-5.844171599999999,87.23858508000002,-0.15469866,123.06564882
6.14,614,0.095,-0.605,0.13699999999999998,10.4278356,44.51883660000001,-9.568398599999998,87.34171752,-0.05156622,123.50682648
6.15,615,0.09699999999999999,-0.6809999999999999,0.109,5.042030400000002,41.883229799999995,-13.0061466,87.38755416000002,0.08021412,123.91362666
6.16,616,0.055,-0.752,0.061,-2.4064236,38.5600734,-15.527161800000002,87.35890626,0.24064236,124.28604936
6.17,617,0.013999999999999999,-0.7879999999999999,0.039,-8.136003599999999,33.4607472,-16.1001198,87.27869214,0.40680018,124.61263542
6.18,618,0.017,-0.8059999999999999,0.016,-9.9694692,26.241476399999996,-14.1520626,87.17555970000002,0.55003968,124.86473694
6.1899999999999995,619,0.043,-0.8190000000000001,-0.016,-10.657018800000001,19.194093,-11.9748222,87.06669767999998,0.67609044,125.0480835
6.2,620,0.049,-0.828,-0.036000000000000004,-8.59437,15.011499599999999,-11.1153852,86.98075398,0.7906820400000001,125.18559342
6.21,621,0.023,-0.821,-0.027999999999999997,-2.1772404,13.750992000000002,-12.4904844,86.95783566,0.9167328,125.31737376
6.22,622,0.0,-0.8,-0.025,10.7716104,11.802934800000001,-14.266654199999998,87.06669767999998,1.05424272,125.43196536
6.2299999999999995,623,-0.018000000000000002,-0.805,0.02,13.8082878,7.5630456000000015,-13.464512999999998,87.20420759999998,1.19175264,125.50072032
6.24,624,-0.061,-0.873,0.022000000000000002,10.5424272,-0.057295800000000015,-11.0007936,87.31306962,1.30634424,125.49499074
6.25,625,-0.039,-0.9840000000000001,0.013999999999999999,-0.8021411999999999,-8.307891,-8.3651868,87.30161045999998,1.38655836,125.40904704000002
6.26,626,0.073,-1.101,-0.036000000000000004,-17.0741484,-12.318597,-6.3598338,87.12972306,1.44385416,125.28299628
6.27,627,0.139,-1.215,-0.159,-30.882436199999997,-19.9389384,-6.3598338,86.79740741999998,1.51260912,125.0767314
6.28,628,0.19699999999999998,-1.321,-0.215,-35.695283399999994,-25.668518399999996,-5.9014674000000005,86.43071429999998,1.56417534,124.81317072
6.29,629,0.245,-1.422,-0.32899999999999996,-29.8511118,-25.55392680000001,-2.1772404,86.12131698,1.56990492,124.55533962
6.3,630,0.22399999999999998,-1.431,-0.375,-7.2192707999999985,-22.1734746,2.5210152000000003,86.04683244,1.53552744,124.33761558
6.31,631,0.16699999999999998,-1.449,-0.35,4.4690724,-28.1895336,4.6982555999999995,86.0869395,1.4782316400000002,124.06259573999998
6.32,632,0.19,-1.518,-0.249,-0.5156622000000001,-34.8358464,4.0680017999999984,86.07548034,1.432395,123.71882094
6.33,633,0.35100000000000003,-1.6340000000000001,-0.11800000000000001,2.5210152000000003,-33.231564,4.2398892,86.09839866,1.3750992,123.39796446
6.34,634,0.435,-1.7009999999999998,0.057999999999999996,25.668518399999996,-24.7517856,5.72958,86.35622975999998,1.31207382,123.15732210000002
6.35,635,0.261,-1.66,0.26,44.51883660000001,-17.7044022,6.703608600000001,86.80886658,1.24331886,122.99116428
6.36,636,-0.067,-1.5659999999999998,0.33,44.2323576,-5.443101,1.432395,87.25577381999999,1.2318597,122.94532764
6.37,637,-0.345,-1.486,0.24600000000000002,29.793815999999996,10.2559482,-7.2765666,87.57090072000004,1.2891555,123.04846008
6.38,638,-0.4370000000000001,-1.5130000000000001,0.131,10.026765,20.05353,-10.7716104,87.67403316,1.4037471000000001,123.24326580000002
6.39,639,-0.337,-1.61,0.09300000000000001,3.7815228,19.194093,-6.990087599999999,87.71414021999998,1.47250206,123.42661236
6.4,640,-0.13699999999999998,-1.7180000000000002,0.13699999999999998,4.1825934,18.5638392,1.6042823999999998,87.75997686000002,1.4610428999999998,123.6156885
6.41,641,0.07,-1.7269999999999999,0.18,3.6096353999999997,20.1108258,11.9748222,87.80008391999998,1.3464512999999998,123.8162238
6.42,642,0.207,-1.604,0.166,1.6042823999999998,23.0329116,19.365980399999998,87.82300224,1.16310474,124.05113658
6.43,643,0.24600000000000002,-1.4169999999999998,0.12300000000000001,2.6929026,24.4080108,21.2567418,87.85165014,0.95683986,124.3032381
6.4399999999999995,644,0.244,-1.249,0.091,6.9327918,22.517249399999997,17.475219,87.92613467999998,0.7849524600000001,124.53242129999998
6.45,645,0.265,-1.0859999999999999,0.086,9.9121734,18.162768600000003,8.8235532,88.02926712000001,0.69900876,124.71576786
6.46,646,0.28800000000000003,-0.975,0.091,9.1100322,11.9748222,-0.7448454000000001,88.12094040000002,0.70473834,124.83608904
6.47,647,0.294,-0.9259999999999999,0.067,3.0939732,8.7662574,-5.6722842,88.2068841,1.0255948199999998,124.904844
6.4799999999999995,648,0.272,-0.885,0.025,-3.3231564,7.0473834,-7.6203414,88.17250662000002,1.10007936,124.97359896
6.49,649,0.235,-0.831,-0.003,-4.9847346,5.443101,-7.906820400000001,88.12094040000002,1.18029348,125.02516518
6.5,650,0.187,-0.779,-0.013999999999999999,-1.9480572,3.1512689999999997,-7.6776372,88.09802207999998,1.25477802,125.05381308
6.51,651,0.134,-0.75,0.002,-0.11459160000000004,-0.6302538000000001,-7.5057497999999985,88.09802207999998,1.32926256,125.04235392
6.52,652,0.079,-0.731,0.016,-3.6669312000000014,-4.9274388,-6.990087599999999,88.06937418,1.40947668,124.9907877
6.53,653,0.039,-0.713,0.003,-9.8548776,-7.9641161999999985,-6.4744254,87.96624174,1.47250206,124.91057357999998
6.54,654,0.028999999999999998,-0.6829999999999999,-0.027999999999999997,-18.793022399999998,-11.1153852,-6.875496000000001,87.77143602000002,1.5412570200000002,124.79598198
6.55,655,0.049,-0.643,-0.055,-23.14750320000001,-11.688343199999998,-7.7922288,87.53652324,1.6157415599999996,124.67566080000002
6.56,656,0.08900000000000001,-0.588,-0.064,-22.9756158,-11.45916,-8.651665800000002,87.30161045999998,1.6959556799999995,124.55533962
6.57,657,0.132,-0.5539999999999999,-0.057999999999999996,-18.6784308,-11.802934800000001,-9.396511199999999,87.10107516000002,1.81054728,124.42928886
6.58,658,0.159,-0.545,-0.015,-13.178034,-15.6990492,-9.3392154,86.96356524000002,1.89649098,124.26886062
6.59,659,0.17600000000000002,-0.574,0.026000000000000002,-7.2192707999999985,-22.2880662,-6.990087599999999,86.88908070000002,1.9595163600000003,124.04540700000001
6.6,660,0.174,-0.631,0.045,-0.9740286,-27.1582092,-2.6929026,86.87189196,1.9767051,123.77038716
6.61,661,0.165,-0.691,0.078,6.589017,-30.882436199999997,3.6669312000000014,86.92918776,1.93659804,123.46671942
6.62,662,0.16899999999999998,-0.72,0.11800000000000001,13.0061466,-37.586044799999996,10.599723,87.08388642,1.85065434,123.10575588
6.63,663,0.177,-0.737,0.11800000000000001,12.6623718,-42.398892,14.0947668,87.20420759999998,1.70168526,122.69322612
6.64,664,0.179,-0.738,0.091,9.8548776,-45.034498799999994,14.5531332,87.30161045999998,1.5469866,122.25204846
6.65,665,0.161,-0.715,0.071,10.657018800000001,-43.48751220000001,12.2040054,87.4047429,1.4209358399999998,121.82805954
6.66,666,0.10800000000000001,-0.682,0.057,16.1001198,-37.24227,9.2819196,87.56517113999998,1.32353298,121.467096
6.67,667,0.032,-0.642,0.057999999999999996,21.142150199999996,-31.913760600000003,7.734933000000002,87.78862475999998,1.24331886,121.15769868
6.68,668,-0.062,-0.618,0.08900000000000001,21.772404,-31.627281600000003,6.875496000000001,88.0063488,1.1745639,120.84830135999998
6.6899999999999995,669,-0.099,-0.645,0.114,16.7303736,-32.7731976,6.3025379999999975,88.17250662000002,1.11153852,120.52744488
6.7,670,-0.052000000000000005,-0.7120000000000001,0.11599999999999999,9.8548776,-29.220858000000003,6.5317212,88.27563906,1.04278356,120.24096588
6.71,671,0.009000000000000001,-0.789,0.12,8.193299399999999,-24.4080108,9.1100322,88.35585318,0.95683986,120.0060531
6.72,672,0.04,-0.84,0.16699999999999998,7.7922288,-21.199446,12.4331886,88.49909268,0.8479778399999999,119.79978821999998
6.7299999999999995,673,0.076,-0.8909999999999999,0.19399999999999998,1.7761698000000001,-15.3552744,15.469866,88.51628142,0.69327918,119.65081914
6.74,674,0.09,-0.9470000000000001,0.128,-8.880849000000003,-9.568398599999998,18.1054728,88.42460814,0.5099326200000001,119.55914586000002
6.75,675,0.069,-0.968,0.037000000000000005,-16.8449652,-6.3598338,19.0222056,88.25845032,0.32085648,119.50185006
6.76,676,0.055999999999999994,-0.95,-0.028999999999999998,-15.870936600000002,-4.010706000000001,18.8503182,88.09802207999998,0.13178034,119.461743
6.77,677,0.04,-0.9179999999999999,-0.066,-9.568398599999998,-2.2345362,17.475219,87.99488964000004,-0.00572958,119.44455426000002
6.78,678,0.068,-0.945,0.019,-4.9274388,3.2085647999999996,12.9488508,87.94332342,-0.13178034,119.47893174
6.79,679,0.064,-1.0270000000000001,0.038,-15.469866,11.688343199999998,5.6722842,87.78289518,-0.18907614,119.59352334
6.8,680,0.013999999999999999,-1.074,0.032,-27.215505,17.8189938,-2.2345362,87.50787534,-0.16615782,119.76541074
6.81,681,-0.03,-1.103,-0.027999999999999997,-28.0176462,18.9649098,-8.8235532,87.21566676,-0.08021412,119.94875729999998
6.82,682,-0.03,-1.214,-0.191,-24.1788276,17.0741484,-13.3499214,86.95210608,0.04583664,120.10918554
6.83,683,-0.024,-1.348,-0.265,-28.533308399999996,20.05353,-14.4958374,86.6598975,0.19480572,120.29826168
6.84,684,-0.059000000000000004,-1.4069999999999998,-0.28,-29.4500412,23.3766864,-12.9488508,86.35622975999998,0.32658606,120.51598572
6.85,685,-0.016,-1.401,-0.195,-14.610429000000002,28.81978740000001,-8.9954406,86.20726068,0.4297185000000001,120.79673513999998
6.86,686,0.08199999999999999,-1.444,-0.188,3.7815228,28.2468294,-3.8961144,86.24163816000002,0.47555514,121.07175498
6.87,687,0.14800000000000002,-1.5219999999999998,-0.18600000000000005,-0.057295800000000015,20.2254174,0.8021411999999999,86.23590858,0.48128472,121.27229028
6.88,688,0.07,-1.652,-0.18600000000000005,-18.5638392,17.9908812,0.40107059999999994,86.04683244,0.48128472,121.44990726
6.89,689,-0.10400000000000001,-1.765,-0.17300000000000001,-25.210151999999997,29.0489706,-7.734933000000002,85.78900134,0.5729580000000001,121.72492710000002
6.9,690,-0.221,-1.837,-0.209,-7.3911582,41.3102718,-17.6471064,85.70878722,0.76203414,122.12026812
6.91,691,-0.077,-1.761,-0.155,11.172680999999999,38.961144,-24.2934192,85.82337881999999,1.0255948199999998,122.49269082
6.92,692,0.177,-1.5730000000000002,-0.057999999999999996,19.0222056,25.4393352,-23.204798999999998,86.02391412,1.27769634,122.72760360000002
6.93,693,0.431,-1.3530000000000002,0.024,15.469866,11.9748222,-8.250595200000001,86.17861278000002,1.36936962,122.84219520000002
6.9399999999999995,694,0.451,-1.268,0.043,4.583664,1.6615782,7.2765666,86.23017899999998,1.29488508,122.86511352
6.95,695,0.317,-1.263,0.034,-6.4744254,-2.6929026,16.7303736,86.16142404,1.12872726,122.84792478
6.96,696,0.12300000000000001,-1.2990000000000002,0.017,-10.1413566,-4.9847346,19.0222056,86.05829159999998,0.93392154,122.80781772
6.97,697,-0.021,-1.3219999999999998,0.016,-8.651665800000002,-6.1879464,16.386598799999998,85.98380705999998,0.76203414,122.75625149999999
6.9799999999999995,698,-0.106,-1.288,0.002,-7.333862400000001,-5.443101,11.745639,85.90932252,0.64171296,122.71041486
6.99,699,-0.155,-1.21,0.0,-5.6722842,-3.6669312000000014,6.9327918,85.85202672,0.56722842,122.68176696
7.0,700,-0.175,-1.1420000000000001,-0.008,-5.443101,-0.8594370000000001,3.2085647999999996,85.79473092,0.53858052,122.6703078
7.01,701,-0.16399999999999998,-1.07,-0.036000000000000004,-8.307891,2.8074942000000003,1.432395,85.70878722,0.52139178,122.69895569999998
7.02,702,-0.122,-0.9990000000000001,-0.065,-12.0894138,6.9327918,2.1772404,85.57700688,0.43544808,122.77344024
7.03,703,-0.067,-0.93,-0.073,-12.7196676,8.078707799999998,4.1825934,85.44522654,0.4010706000000001,122.85365436
7.04,704,-0.013999999999999999,-0.868,-0.067,-13.2926256,7.1046792000000005,6.4744254,85.30771662,0.33804522,122.9281389
7.05,705,0.032,-0.8190000000000001,-0.063,-13.407217200000002,4.6982555999999995,7.8495246,85.17593628,0.25783110000000004,122.97970512
7.06,706,0.054000000000000006,-0.8,-0.043,-12.776963400000001,1.8334656000000005,8.136003599999999,85.04415594,0.17761697999999998,123.00262344
7.07,707,0.069,-0.7929999999999999,-0.026000000000000002,-13.0061466,-0.40107059999999994,7.448453999999999,84.92383476,0.13178034,123.00262344
7.08,708,0.071,-0.779,-0.019,-13.521808800000002,-1.7188740000000002,6.0733548,84.78632483999998,0.06875496,122.99116428
7.09,709,0.069,-0.757,-0.037000000000000005,-14.266654199999998,-2.4064236,4.1825934,84.64308534,0.02291832,122.96824596
7.1,710,0.046,-0.746,-0.047,-14.1520626,-3.2658606,2.6929026,84.49411626,0.0,122.93959806
7.11,711,0.021,-0.754,-0.040999999999999995,-12.834259199999998,-3.4377480000000005,1.7188740000000002,84.3680655,-0.02291832,122.90522058000002
7.12,712,-0.004,-0.769,-0.027999999999999997,-10.599723,-3.2085647999999996,0.5156622000000001,84.27066264,-0.03437748,122.87084309999999
7.13,713,-0.017,-0.767,-0.025,-7.1046792000000005,-2.0053530000000004,-1.6042823999999998,84.20190768,-0.01718874,122.84792478
7.14,714,-0.022000000000000002,-0.747,-0.011000000000000001,-2.5210152000000003,0.40107059999999994,-4.583664,84.17325978,0.02291832,122.84792478
7.15,715,-0.025,-0.7120000000000001,0.006999999999999999,2.1772404,2.86479,-7.6203414,84.1961781,0.09740286,122.87084309999999
7.16,716,-0.031,-0.688,0.037000000000000005,5.7868758000000025,4.9847346,-10.026765,84.25347389999997,0.20053530000000008,122.91095016
7.17,717,-0.039,-0.685,0.069,9.5111028,7.5630456000000015,-11.5737516,84.37952466,0.31512690000000004,122.97397554
7.18,718,-0.045,-0.711,0.109,15.6990492,10.1413566,-12.318597,84.5399529,0.44117766,123.06564882
7.1899999999999995,719,-0.066,-0.737,0.141,20.626488000000002,11.0580894,-12.6623718,84.75194736,0.5786875800000001,123.16305168
7.2,720,-0.066,-0.746,0.16399999999999998,24.2934192,14.381245800000002,-13.750992000000002,84.99831929999998,0.72765666,123.3005616
7.21,721,-0.057999999999999996,-0.735,0.175,25.668518399999996,19.365980399999998,-15.756345,85.25615040000002,0.89381448,123.47817858
7.22,722,-0.057999999999999996,-0.721,0.16699999999999998,25.210151999999997,25.55392680000001,-17.9908812,85.54835898,1.07716104,123.72455052
7.2299999999999995,723,-0.077,-0.71,0.125,22.5745452,31.340802600000004,-19.079501399999998,85.77754218,1.28342592,124.02248868
7.24,724,-0.081,-0.6940000000000001,0.039,19.595163600000006,35.9817624,-17.9335854,85.97807748,1.4782316400000002,124.36626348
7.25,725,-0.063,-0.627,-0.07400000000000001,21.0848544,38.10170700000001,-14.9542038,86.2015311,1.64438946,124.7329566
7.26,726,-0.034,-0.57,-0.033,28.877083199999998,38.5600734,-11.6310474,86.49946926,1.7761698000000001,125.11110888
7.27,727,-0.013999999999999999,-0.54,0.046,32.658606,35.9244666,-8.651665800000002,86.84897364,1.87357266,125.46634284
7.28,728,-0.016,-0.536,0.08900000000000001,26.7571386,33.231564,-7.2765666,87.12399348,1.95378678,125.79865848
7.29,729,-0.005,-0.563,0.055999999999999994,14.4958374,30.7678446,-7.6203414,87.27869214,2.03973048,126.09659664
7.3,730,0.016,-0.599,-0.013999999999999999,6.3025379999999975,27.7311672,-10.313244000000001,87.3474471,2.14286292,126.37161648
7.31,731,0.026000000000000002,-0.635,0.023,6.875496000000001,20.5691922,-14.209358400000001,87.42193164,2.2918320000000003,126.5664222
7.32,732,0.054000000000000006,-0.7190000000000001,0.054000000000000006,5.844171599999999,10.7143146,-15.9855282,87.50787534,2.4637194,126.66955464
7.33,733,0.08199999999999999,-0.815,0.036000000000000004,-3.0939732,1.6042823999999998,-15.011499599999999,87.47922744,2.61268848,126.67528422
7.34,734,0.1,-0.879,-0.023,-8.59437,-4.6409598,-13.636400400000001,87.38755416000002,2.74446882,126.623718
7.35,735,0.132,-0.894,-0.087,-4.6982555999999995,-4.9274388,-12.834259199999998,87.33598794000002,2.87624916,126.57215178
7.36,736,0.141,-0.899,-0.13,4.2398892,-2.9220858,-12.1467096,87.38182458,2.9965703400000003,126.5377743
7.37,737,0.114,-0.903,-0.155,15.3552744,-3.380452200000001,-10.1986524,87.47349786,3.11689152,126.49766723999998
7.38,738,0.075,-0.9620000000000001,-0.16399999999999998,19.4232762,-8.193299399999999,-7.161975,87.66257399999998,3.18564648,126.41172354
7.39,739,0.091,-1.004,-0.156,15.011499599999999,-7.7922288,-3.6669312000000014,87.81154308,3.2257535399999995,126.337239
7.4,740,0.11699999999999999,-1.061,-0.149,11.2299768,-9.8548776,-1.7761698000000001,87.92613467999998,3.24294228,126.23983614
7.41,741,0.1,-1.133,-0.175,7.8495246,-16.902261,-3.5523396000000003,87.99488964000004,3.27731976,126.07367832
7.42,742,0.055,-1.168,-0.254,11.745639,-17.9335854,-3.380452200000001,88.05791502,3.3059676599999994,125.89033176
7.43,743,0.028999999999999998,-1.188,-0.191,17.131444199999994,-14.7823164,0.8594370000000001,88.22407283999998,3.30023808,125.74709226
7.4399999999999995,744,0.047,-1.263,-0.138,7.9641161999999985,-20.6837838,6.3598338,88.29855738,3.2372127,125.54655696
7.45,745,0.159,-1.444,-0.149,-13.2926256,-29.5646328,11.5737516,88.14958829999998,3.1226211000000004,125.25434838
7.46,746,0.435,-1.733,-0.18100000000000002,-21.944291399999997,-34.8931422,19.652459399999998,87.91467551999996,2.9220857999999996,124.91057357999998
7.47,747,0.711,-1.932,-0.09,6.1879464,-33.116972399999995,30.194886600000004,87.96624174,2.62414764,124.59544667999998
7.4799999999999995,748,0.581,-1.926,0.215,55.92070079999999,-25.210151999999997,34.7212548,88.52774058,2.28610242,124.36053390000002
7.49,749,0.07200000000000001,-1.645,0.374,68.46848100000001,-13.464512999999998,24.350715,89.22101975999998,2.04546006,124.24021272
7.5,750,-0.419,-1.3259999999999998,0.35700000000000004,51.9099948,0.2291832000000001,-1.8907614,89.74814112,2.06837838,124.2459423
7.51,751,-0.551,-1.339,0.316,32.8877892,6.7609043999999985,-19.595163600000006,90.08618634,2.26891368,124.32042684
7.52,752,-0.45299999999999996,-1.496,0.292,9.396511199999999,7.7922288,-26.356068,90.18931878,2.50955604,124.40064096
7.53,753,-0.185,-1.6869999999999998,0.25,-6.5317212,9.5111028,-22.058882999999998,90.1262934,2.72728008,124.49231424
7.54,754,0.051,-1.824,0.223,-9.682990199999999,13.9228794,-10.828906199999999,90.03462012,2.83041252,124.62982416
7.55,755,0.21,-1.817,0.214,-8.3651868,17.8189938,3.1512689999999997,89.95440599999998,2.79603504,124.80744114
7.56,756,0.276,-1.656,0.14400000000000002,-7.0473834,20.6837838,14.0947668,89.89138061999998,2.64706596,125.01370602
7.57,757,0.252,-1.442,0.054000000000000006,-4.0680017999999984,22.517249399999997,18.449247600000003,89.85700313999996,2.46944898,125.23143006
7.58,758,0.187,-1.227,0.0,2.4637194,20.912967000000002,14.5531332,89.88565104,2.3204799,125.43769494
7.59,759,0.16899999999999998,-1.054,-0.011000000000000001,6.3598338,16.272007199999994,6.0733548,89.95440599999998,2.25745452,125.60385276
7.6,760,0.185,-0.9359999999999999,-0.011000000000000001,5.5003968,12.032118,-3.1512689999999997,90.01743138,2.28610242,125.71844436
7.61,761,0.21600000000000005,-0.875,-0.016,1.0313244000000001,11.45916,-9.2819196,90.02889053999998,2.3777757,125.83303596
7.62,762,0.235,-0.84,-0.032,-1.432395,12.7196676,-11.2299768,89.98878348,2.578311,125.95335714
7.63,763,0.226,-0.809,-0.052000000000000005,1.2032118,12.261301199999998,-9.6256944,90.00597222,2.6699842800000004,126.07940790000002
7.64,764,0.184,-0.7879999999999999,-0.033,6.9327918,9.2819196,-5.72958,90.08045676,2.72728008,126.17108118000002
7.65,765,0.12300000000000001,-0.792,0.0,10.5424272,5.7868758000000025,0.0,90.18931878,2.72728008,126.22837697999998
7.66,766,0.07400000000000001,-0.8009999999999999,0.001,9.682990199999999,3.4377480000000005,4.4690724,90.28672164,2.68144344,126.26275446
7.67,767,0.048,-0.794,-0.016,6.3598338,2.6356068,7.5057497999999985,90.33255828,2.61268848,126.29140236
7.68,768,0.042,-0.778,-0.040999999999999995,4.0680017999999984,0.9167328000000001,9.2819196,90.37266534,2.5210152000000003,126.29713194
7.6899999999999995,769,0.048,-0.748,-0.057,4.7555514,-2.1199446,10.2559482,90.41850198,2.41788276,126.27421362
7.7,770,0.078,-0.721,-0.067,8.193299399999999,-5.6722842,11.1153852,90.50444568,2.30902074,126.21691782
7.71,771,0.107,-0.691,-0.05,13.464512999999998,-9.453807,12.3758928,90.63622602,2.18869956,126.12524454
7.72,772,0.135,-0.655,0.006999999999999999,19.079501399999998,-13.8082878,13.8655836,90.83103174,2.08556712,125.98773462
7.7299999999999995,773,0.16899999999999998,-0.609,0.075,22.1734746,-17.9335854,15.183387000000002,91.05448536,1.94232762,125.81011764
7.74,774,0.193,-0.593,0.11,20.6837838,-19.0222056,15.9855282,91.26075024,1.7933585399999998,125.6210415
7.75,775,0.177,-0.597,0.11199999999999999,15.4125702,-16.501190400000002,17.0741484,91.4154489,1.6329303,125.45488368
7.76,776,0.132,-0.6,0.084,8.7089616,-12.9488508,17.5325148,91.5013926,1.46677248,125.32310334000002
7.77,777,0.079,-0.6,0.05,2.0053530000000004,-9.396511199999999,16.558486199999994,91.52431092,1.3178034,125.22570048
7.78,778,0.003,-0.602,0.036000000000000004,-2.9793816000000004,-7.1046792000000005,15.2406828,91.48993344,1.1688343199999998,125.15121594
7.79,779,-0.064,-0.5870000000000001,0.05,-5.6149884000000005,-5.72958,13.521808800000002,91.43263764,1.03705398,125.08819056
7.8,780,-0.106,-0.573,0.08,-5.1566220000000005,-4.8701430000000006,11.1153852,91.38107142,0.92819196,125.03662434
7.81,781,-0.11900000000000001,-0.5820000000000001,0.132,-5.958763200000001,-2.7501984,8.8235532,91.31804604,0.8422482600000001,125.00797644000002
7.82,782,-0.087,-0.618,0.175,-5.042030400000002,2.7501984,7.9641161999999985,91.31231646,0.7391158200000001,125.03089476
7.83,783,-0.044000000000000004,-0.711,0.201,-2.9220858,8.307891,9.740286,91.28366856,0.63598338,125.11110888
7.84,784,0.003,-0.828,0.20600000000000002,-4.6409598,12.4904844,15.183387000000002,91.23210234,0.48128472,125.23143006
7.85,785,0.054000000000000006,-0.909,0.174,-12.891555,14.9542038,21.600516600000002,91.10032199999999,0.25783110000000004,125.37466956
7.86,786,0.08900000000000001,-0.903,0.151,-18.6784308,15.870936600000002,24.637194,90.91124586,0.00572958,125.52363864000002
7.87,787,0.099,-0.868,0.15,-13.521808800000002,13.2353298,24.0069402,90.80811342,-0.20053530000000008,125.64395982
7.88,788,0.106,-0.8759999999999999,0.149,-7.0473834,10.1986524,22.1161788,90.73935846,-0.42398892,125.74136268
7.89,789,0.109,-0.903,0.136,-3.2658606,12.0894138,21.600516600000002,90.6992514,-0.64744254,125.85595428000002
7.9,790,0.069,-0.9129999999999999,0.132,2.7501984,16.7303736,21.4286292,90.7278993,-0.86516658,126.0221121
7.91,791,0.028999999999999998,-0.941,0.20199999999999999,5.1566220000000005,22.2307704,18.5638392,90.77373594,-1.0599723,126.23983614
7.92,792,0.016,-1.002,0.17600000000000002,-5.958763200000001,30.7105488,12.318597,90.7278993,-1.18602306,126.5377743
7.93,793,-0.036000000000000004,-1.004,0.099,-17.0741484,37.872523799999996,4.8701430000000006,90.54455274,-1.24904844,126.910197
7.94,794,-0.094,-1.03,0.07,-17.5325148,42.7999626,-1.3178034,90.34974702,-1.25477802,127.33418592
7.95,795,-0.11199999999999999,-1.133,0.081,-21.142150199999996,46.638781200000004,-5.3858052,90.12056382,-1.21467096,127.79255231999998
7.96,796,-0.10800000000000001,-1.2790000000000001,-0.006,-37.1276784,52.3683612,-6.4744254,89.72522280000004,-1.1688343199999998,128.30248494
7.97,797,-0.115,-1.3459999999999999,-0.177,-52.8840234,62.68160520000001,-8.193299399999999,89.1522648,-1.10580894,128.92127958
7.9799999999999995,798,-0.153,-1.403,-0.248,-42.62807520000001,71.2759752,-12.891555,88.69962798,-0.9912173399999998,129.61455876
7.99,799,-0.20199999999999999,-1.473,-0.267,-19.595163600000006,78.5525418,-18.621135,88.47617436,-0.8078707799999998,130.38805206
8.0,800,-0.19699999999999998,-1.581,-0.201,-3.0939732,89.954406,-24.2934192,88.41887856000002,-0.56722842,131.27040738
8.01,801,-0.16899999999999998,-1.6840000000000002,-0.08800000000000001,-5.3858052,106.7993712,-29.1062664,88.34439402000002,-0.28074942,132.31892052
8.02,802,-0.129,-1.6880000000000002,-0.037000000000000005,-1.8334656000000005,111.3830352,-33.2888598,88.30428696,0.04583664,133.4132703
8.03,803,0.061,-1.6340000000000001,-0.032,13.6936962,108.80472420000001,-31.856464799999998,88.43606729999998,0.36669312,134.47897218
8.04,804,0.315,-1.528,-0.023,22.6891368,96.0850566,-21.4286292,88.65952092,0.5786875800000001,135.42435288
8.05,805,0.47200000000000003,-1.432,0.034,24.064236,77.92228800000002,-7.8495246,88.90016328,0.65317212,136.19784618
8.06,806,0.5329999999999999,-1.405,0.092,18.3919518,63.4264506,3.1512689999999997,89.08923942,0.61879464,136.82809998
8.07,807,0.47200000000000003,-1.449,0.11,10.084060800000001,59.53033620000001,5.3285094000000015,89.19237186000002,0.5729580000000001,137.41824672
8.08,808,0.303,-1.501,0.095,4.8701430000000006,58.0979412,2.6356068,89.2382085,0.53858052,137.99120471999998
8.09,809,0.109,-1.49,0.057999999999999996,4.7555514,58.38442020000001,-3.2658606,89.28404514,0.56722842,138.56989230000002
8.1,810,-0.054000000000000006,-1.4180000000000001,0.022000000000000002,6.1879464,60.7908438,-10.2559482,89.34707052,0.6589017,139.17149819999997
8.11,811,-0.179,-1.331,-0.002,6.0733548,65.4318036,-14.438541599999999,89.4100959,0.7906820400000001,139.81894074
8.12,812,-0.278,-1.2790000000000001,-0.015,4.6982555999999995,71.9635248,-14.7823164,89.45593253999998,0.89954406,140.52940866
8.13,813,-0.33299999999999996,-1.242,-0.004,5.6722842,80.04223259999998,-12.2040054,89.51322834,1.0026765,141.32009069999995
8.14,814,-0.35100000000000003,-1.176,0.0,7.5630456000000015,90.4127724,-8.021412000000002,89.59344246,1.06570188,142.21390518
8.15,815,-0.325,-1.101,0.009000000000000001,6.990087599999999,98.77795920000001,-3.5523396000000003,89.67365658,1.08289062,143.19366336000004
8.16,816,-0.254,-1.025,0.038,3.7815228,106.57018799999999,0.9167328000000001,89.71376364,1.04851314,144.24790607999995
8.17,817,-0.16699999999999998,-0.966,0.039,-1.7761698000000001,113.50297979999999,4.7555514,89.70230448,0.95683986,145.37090376
8.18,818,-0.098,-0.925,0.009000000000000001,-6.9327918,119.5190388,7.0473834,89.6392791,0.86516658,146.55119724
8.19,819,-0.055,-0.892,-0.018000000000000002,-9.0527364,123.9308154,7.9641161999999985,89.54760582,0.75630456,147.77732736000004
8.2,820,-0.018000000000000002,-0.863,-0.001,-8.7662574,127.196676,8.193299399999999,89.45593253999998,0.65317212,149.03210538
8.209999999999999,821,0.011000000000000001,-0.845,0.021,-10.084060800000001,130.2333534,8.078707799999998,89.34707052,0.55003968,150.32126088
8.22,822,0.035,-0.833,0.033,-14.438541599999999,133.0408476,7.333862400000001,89.19810143999999,0.4583664000000001,151.63333469999995
8.23,823,0.040999999999999995,-0.828,0.032,-19.7097552,134.87431320000002,6.2452422,88.99183656,0.37815228,152.96832684
8.24,824,0.04,-0.835,0.037000000000000005,-24.2361234,136.4212998,4.4690724,88.73400546,0.32085648,154.31477814
8.25,825,0.032,-0.861,0.066,-27.215505,137.3380326,1.8907614,88.44752645999998,0.29220857999999994,155.66695902
8.26,826,0.018000000000000002,-0.917,0.078,-31.22621100000001,138.369357,-0.4583664000000001,88.12094040000002,0.29793816,157.03059906
8.27,827,0.003,-0.985,0.051,-36.096354,139.5725688,-1.3178034,87.74278812,0.32085648,158.40569825999995
8.28,828,-0.016,-1.032,0.008,-38.0444112,140.08823099999998,-0.4583664000000001,87.3474471,0.3437748,159.78652704
8.29,829,-0.03,-1.041,-0.011000000000000001,-36.2682414,140.7757806,0.6875496,86.96929482,0.36669312,161.1730854
8.3,830,-0.046,-1.015,-0.012,-32.6013102,141.74980920000004,0.8021411999999999,86.62552002,0.38961144,162.57110292
8.31,831,-0.063,-0.9890000000000001,-0.006999999999999999,-30.7678446,144.2135286,-0.286479,86.30466354,0.44117766,163.99203876
8.32,832,-0.038,-0.955,0.003,-28.7051958,147.59398080000003,-2.0053530000000004,86.01245496,0.5156622000000001,165.44735208
8.33,833,-0.012,-0.904,0.001,-24.0069402,149.9431086,-4.0680017999999984,85.76035343999997,0.61879464,166.92558372000005
8.34,834,0.001,-0.855,0.008,-17.475219,152.63601119999996,-5.7868758000000025,85.58273646,0.7448454000000001,168.42673368
8.35,835,0.012,-0.83,0.047,-9.167328,154.92784319999996,-6.417129599999999,85.49106318,0.8823553199999999,169.95080195999995
8.36,836,0.03,-0.847,0.122,-3.380452200000001,156.5321256,-7.333862400000001,85.46241528,1.03705398,171.4863294
8.37,837,0.036000000000000004,-0.912,0.14800000000000002,-7.448453999999999,158.422887,-8.479778399999999,85.41084906,1.2032117999999998,173.04477516000003
8.38,838,0.009000000000000001,-0.99,0.081,-18.5638392,158.93854919999995,-8.021412000000002,85.23323208,1.36364004,174.60322091999996
8.39,839,-0.043,-1.025,-0.019,-25.4393352,156.99049200000005,-6.2452422,84.99258972,1.51260912,176.15020752
8.4,840,-0.087,-1.024,-0.078,-24.0069402,154.0111104,-3.9534102,84.77486567999998,1.64438946,177.66281664000005
8.41,841,-0.079,-1.0290000000000001,-0.064,-18.449247600000003,152.92249019999997,-1.432395,84.60870786,1.75325148,179.16969618000005
8.42,842,-0.057,-1.04,-0.046,-12.776963400000001,154.18299779999995,1.432395,84.51130500000002,1.8334656000000005,-179.3072061
8.43,843,-0.025,-1.031,-0.021,-8.880849000000003,154.69866000000005,4.297185,84.44827962000002,1.89649098,-177.77740824
8.44,844,0.002,-1.005,0.027000000000000003,-6.3025379999999975,154.29758940000005,6.417129599999999,84.41390214,1.93659804,-176.24761038
8.45,845,0.003,-0.997,0.043,-8.021412000000002,153.6673356,7.161975,84.36233591999998,1.9767051,-174.72354209999997
8.459999999999999,846,-0.005,-1.002,0.035,-13.9228794,154.6413642,6.4744254,84.25347389999997,2.01681216,-173.19374424
8.47,847,0.004,-1.03,0.02,-17.8189938,155.271618,4.9847346,84.11596397999998,2.07983754,-171.65821680000005
8.48,848,0.052000000000000005,-1.114,0.008,-20.5118964,154.5840684,3.2658606,83.94407658,2.16005166,-170.13414852
8.49,849,0.131,-1.215,-0.044000000000000004,-24.5798982,154.2402936,2.0053530000000004,83.73208212,2.25745452,-168.61580981999995
8.5,850,0.19,-1.262,-0.08900000000000001,-27.960350399999996,151.7765742,2.2345362,83.49143975999998,2.36058696,-167.12038944
8.51,851,0.22899999999999998,-1.253,-0.124,-23.319390600000002,146.84913540000005,3.8388186,83.29090446000002,2.44653066,-165.67080570000005
8.52,852,0.24100000000000002,-1.2009999999999998,-0.142,-15.5844576,142.60924619999997,4.6982555999999995,83.17631286,2.53820394,-164.26132902
8.53,853,0.237,-1.102,-0.159,-10.1413566,137.22344099999998,4.9847346,83.11328748,2.61268848,-162.90341856
8.54,854,0.23,-1.001,-0.128,-6.3025379999999975,131.89493159999998,3.6669312000000014,83.09036916,2.69863218,-161.59707432
8.55,855,0.231,-0.965,-0.087,-5.3858052,126.96749280000002,1.432395,83.07891,2.80176462,-160.34802588
8.56,856,0.214,-0.981,-0.057,-7.2765666,124.7329566,-1.3178034,83.0502621,2.92781538,-159.12189575999997
8.57,857,0.17600000000000002,-1.016,-0.043,-8.021412000000002,125.0194356,-2.6929026,83.02734378,3.07678446,-157.89003606
8.58,858,0.099,-1.047,-0.013000000000000001,-10.1413566,128.1134088,-3.1512689999999997,82.97577756,3.2314831199999987,-156.63525804
8.59,859,0.036000000000000004,-1.047,-0.006,-14.266654199999998,133.8429888,-4.2398892,82.88983386,3.39764094,-155.32318422
8.6,860,0.013000000000000001,-0.975,-0.038,-20.1108258,139.4006814,-4.297185,82.74659436,3.56952834,-153.95381460000004
8.61,861,0.06,-0.8959999999999999,-0.073,-25.0955604,143.4113874,-3.0939732,82.5632478,3.74141574,-152.54433792
8.62,862,0.133,-0.835,-0.10099999999999999,-28.418716800000002,144.27082439999995,-1.7188740000000002,82.34552376,3.91330314,-151.12913165999996
8.63,863,0.18600000000000005,-0.809,-0.114,-30.65325300000001,144.44271179999996,0.1718874,82.11634056,4.06227222,-149.70819582
8.64,864,0.22,-0.79,-0.11599999999999999,-30.997027799999998,144.958374,2.6929026,81.88142778,4.19405256,-148.2815304
8.65,865,0.221,-0.7959999999999999,-0.091,-28.132237800000002,144.958374,4.8128472,81.68662206,4.30864416,-146.8491354
8.66,866,0.205,-0.821,-0.068,-26.0122932,145.0729656,6.2452422,81.50900508000002,4.4117766000000005,-145.4167404
8.67,867,0.185,-0.863,-0.044000000000000004,-25.78311,146.4480648,7.5630456000000015,81.34857683999998,4.5206386200000015,-143.96715666
8.68,868,0.163,-0.934,-0.013999999999999999,-26.241476399999996,149.8858128,8.8235532,81.18241902,4.6180414800000005,-142.48319543999997
8.69,869,0.133,-0.99,0.0,-25.496631,155.9591676,10.7143146,81.02772036,4.703985179999999,-140.93047926000003
8.7,870,0.107,-1.025,0.008,-23.7204612,161.6887476,12.318597,80.90166959999998,4.78992888,-139.32619686
8.71,871,0.09699999999999999,-1.038,0.012,-21.657812399999997,165.298383,13.8655836,80.79280758000002,4.86441342,-137.6818074
8.72,872,0.10099999999999999,-1.034,0.016,-20.2254174,167.017257,15.297978599999999,80.72405262,4.93316838,-136.01449962
8.73,873,0.11199999999999999,-1.014,0.027000000000000003,-18.793022399999998,168.163173,16.4438946,80.65529766,4.99619376,-134.33573268
8.74,874,0.128,-1.001,0.049,-17.246035799999998,169.25179319999995,17.589810600000003,80.60373144,5.04775998,-132.64550658000002
8.75,875,0.154,-1.004,0.064,-16.558486199999994,171.2571462,19.194093,80.56362438,5.08786704,-130.93236216
8.76,876,0.18600000000000005,-1.015,0.068,-16.272007199999994,173.7208656,21.199446,80.5292469,5.11078536,-129.19056984
8.77,877,0.21,-1.012,0.052000000000000005,-15.3552744,176.06999340000004,24.1788276,80.52351732,5.1222445200000015,-127.4258592
8.78,878,0.225,-1.003,0.047,-12.776963400000001,177.6742758,25.84040580000001,80.5292469,5.11078536,-125.63823024
8.79,879,0.23399999999999999,-0.996,0.064,-9.2819196,178.41912119999995,26.5279554,80.56935396,5.08786704,-123.83914212
8.8,880,0.23800000000000002,-0.997,0.067,-7.5630456000000015,179.2212624,26.41336380000001,80.63237934,5.0706783,-122.03432442
8.81,881,0.239,-0.99,0.062,-6.589017,180.195291,26.069589,80.70113429999998,5.05348956,-120.22377714
8.82,882,0.237,-0.98,0.057,-4.8128472,180.3671784,25.668518399999996,80.79853716,5.04775998,-118.40750028
8.83,883,0.237,-0.971,0.05,-2.4637194,180.0234036,25.668518399999996,80.91312875999998,5.03057124,-116.596953
8.84,884,0.23600000000000002,-0.9590000000000001,0.042,0.1718874,178.8201918,25.78311,81.04490909999998,5.00765292,-114.79786488
8.85,885,0.22699999999999998,-0.9540000000000001,0.04,3.6669312000000014,175.9554018,26.5279554,81.21679650000002,4.96754586,-113.02742466
8.86,886,0.226,-0.951,0.036000000000000004,5.2139178,172.9760202,27.559279800000002,81.39441348,4.91025006,-111.27990276
8.87,887,0.228,-0.945,0.027000000000000003,6.0733548,170.0539344,28.361421000000004,81.59494878,4.84722468,-109.56675834
8.88,888,0.228,-0.951,0.013000000000000001,6.0733548,166.3297074,28.3041252,81.77256575999998,4.76128098,-107.88226182
8.89,889,0.233,-0.9590000000000001,0.016,6.703608600000001,161.860635,27.6165756,81.95591232000002,4.6696076999999985,-106.24933152
8.9,890,0.24600000000000002,-0.977,0.013000000000000001,7.1046792000000005,158.8239576,26.642546999999997,82.13925888,4.5836640000000015,-104.6507787
8.91,891,0.256,-0.988,0.013000000000000001,7.5630456000000015,156.76130880000005,25.6112226,82.31687586000002,4.4977203,-103.06941462
8.92,892,0.256,-0.9940000000000001,0.003,8.8235532,155.4435054,25.210151999999997,82.51741116,4.42323576,-101.4995097
8.93,893,0.252,-0.992,0.006,12.318597,154.46947680000005,25.152856200000002,82.74086478000002,4.3315624800000005,-99.94679352
8.94,894,0.24600000000000002,-0.9890000000000001,0.013999999999999999,14.667724800000002,153.55274400000005,25.55392680000001,82.98723672,4.22843004,-98.39407734
8.95,895,0.242,-0.99,0.016,14.7823164,151.83387,25.9549974,83.22787908000002,4.11383844,-96.86427948
8.96,896,0.235,-0.998,0.0,12.834259199999998,148.4534178,26.2987722,83.44560312,3.9820581,-95.3688591
8.97,897,0.22699999999999998,-1.011,0.0,9.682990199999999,143.0103168,25.78311,83.63467926,3.86173692,-93.92500494
8.98,898,0.23199999999999998,-1.042,-0.003,7.2765666,137.5672158,24.7517856,83.77791876,3.7299565800000014,-92.54417616
8.99,899,0.245,-1.075,-0.017,5.1566220000000005,134.0148762,23.5485738,83.90396952,3.60390582,-91.19199528
9.0,900,0.26,-1.094,-0.039,4.8701430000000006,130.9781988,21.829699800000004,84.01856111999999,3.48931422,-89.87992145999998
9.01,901,0.262,-1.0979999999999999,-0.062,5.6722842,125.5923936,18.506543399999998,84.13315272,3.40337052,-88.61941386
9.02,902,0.259,-1.097,-0.049,8.4224826,121.4098002,14.1520626,84.27639222,3.3689930400000003,-87.4047429
9.03,903,0.26,-1.122,-0.027000000000000003,9.6256944,120.49306740000002,8.307891,84.43109088,3.37472262,-86.2015311
9.04,904,0.261,-1.172,-0.06,6.3025379999999975,124.7902524,2.2345362,84.55141205999998,3.43201842,-84.96967140000002
9.05,905,0.25,-1.1840000000000002,-0.13699999999999998,1.8907614,130.17605759999998,-2.2345362,84.63162618,3.54088044,-83.68624548
9.06,906,0.214,-1.128,-0.209,1.4896908000000002,131.493861,-3.4377480000000005,84.71184029999998,3.66120162,-82.38563081999997
9.07,907,0.195,-1.006,-0.222,6.130650599999999,123.7016322,-0.40107059999999994,84.81497274,3.76433406,-81.16523028
9.08,908,0.20800000000000002,-0.882,-0.16899999999999998,8.9954406,110.580894,4.9274388,84.96394182,3.7815228,-80.06515092
9.09,909,0.21100000000000002,-0.831,-0.13699999999999998,8.3651868,93.4494498,8.479778399999999,85.10145173999999,3.752874900000001,-79.13122938000002
9.1,910,0.21,-0.81,-0.11199999999999999,10.084060800000001,83.7091638,9.3392154,85.24469124,3.70703826,-78.29471070000002
9.11,911,0.207,-0.8240000000000001,-0.096,12.3758928,74.59913159999998,7.8495246,85.41084906,3.67266078,-77.5498653
9.12,912,0.204,-0.836,-0.1,14.266654199999998,67.7809314,4.6982555999999995,85.57700688,3.68984952,-76.87377486
9.13,913,0.20199999999999999,-0.8220000000000001,-0.106,18.8503182,64.17129600000001,1.3750992,85.8004605,3.70703826,-76.23779148
9.14,914,0.182,-0.8140000000000001,-0.092,25.2674478,63.59833800000001,-2.1199446,86.09266908,3.75860448,-75.60180809999999
9.15,915,0.154,-0.843,-0.042,26.2987722,65.2599162,-6.0160589999999985,86.39060724,3.84454818,-74.96009513999998
9.16,916,0.11800000000000001,-0.9159999999999999,0.016,18.048177,68.41118519999999,-9.3392154,86.61406086000002,3.95913978,-74.2840047
9.17,917,0.055,-0.995,-0.006999999999999999,0.40107059999999994,73.1667366,-11.172680999999999,86.6598975,4.08519054,-73.5678072
9.18,918,-0.024,-1.065,-0.061,-6.2452422,73.51051140000001,-10.1413566,86.63697918,4.211241299999998,-72.84588012
9.19,919,-0.08199999999999999,-1.133,-0.077,-6.703608600000001,72.3645954,-6.6463128000000005,86.61406086000002,4.297185000000002,-72.12968262000003
9.2,920,-0.133,-1.175,-0.055999999999999994,-6.130650599999999,70.18735500000001,-1.145916,86.59114253999998,4.3315624800000005,-71.43640344
9.21,921,-0.149,-1.1740000000000002,-0.02,-7.6203414,69.8435802,4.010706000000001,86.55676506,4.30864416,-70.74312426
9.22,922,-0.134,-1.147,-0.015,-10.657018800000001,70.7030172,7.734933000000002,86.49373968,4.22843004,-70.03838592
9.23,923,-0.094,-1.126,-0.019,-12.1467096,70.93220040000001,9.6256944,86.41352556000002,4.1539455,-69.33364758
9.24,924,-0.032,-1.138,-0.021,-12.5477802,70.5884256,10.886202,86.32758186,4.0680017999999984,-68.62890924
9.25,925,0.028999999999999998,-1.163,-0.017,-12.3758928,69.4998054,12.3758928,86.24163816000002,3.97059894,-67.93563006
9.26,926,0.07400000000000001,-1.173,-0.015,-11.2299768,66.463128,13.636400400000001,86.16715362,3.86173692,-67.27099878
9.27,927,0.094,-1.181,-0.018000000000000002,-9.396511199999999,61.994055599999996,15.126091199999998,86.10412824,3.73568616,-66.64647456
9.28,928,0.10300000000000001,-1.173,-0.039,-8.136003599999999,57.2385042,16.902261,86.05256202000002,3.59244666,-66.06778698000001
9.29,929,0.10099999999999999,-1.139,-0.07400000000000001,-6.4744254,51.6235158,18.506543399999998,86.01245496,3.43201842,-65.54639519999999
9.3,930,0.07400000000000001,-1.101,-0.09699999999999999,-3.6669312000000014,45.1490904,19.8816426,85.99526621999998,3.2486718599999995,-65.08802879999999
9.31,931,0.038,-1.06,-0.09300000000000001,-0.8594370000000001,38.7892566,21.0848544,86.00672538,3.05959572,-64.68695819999999
9.32,932,-0.009000000000000001,-1.01,-0.07400000000000001,-0.286479,33.6326346,22.058882999999998,86.01245496,2.83041252,-64.3431834
9.33,933,-0.037000000000000005,-0.97,-0.055,-0.9740286,29.163562199999998,22.6891368,86.01245496,2.61841806,-64.03951565999999
9.34,934,-0.061,-0.938,-0.04,-2.86479,26.356068,22.7464326,85.98953664,2.40069402,-63.76449582
9.35,935,-0.096,-0.9259999999999999,-0.036000000000000004,-5.1566220000000005,24.522602399999997,22.7464326,85.9437,2.18869956,-63.50666471999999
9.36,936,-0.113,-0.929,-0.031,-5.6149884000000005,23.663165399999997,22.631841,85.89213378,1.97097552,-63.25456319999999
9.37,937,-0.102,-0.9309999999999999,-0.027999999999999997,-4.583664,24.637194,21.0848544,85.85775629999998,1.73606274,-63.00246168
9.38,938,-0.073,-0.9229999999999999,-0.026000000000000002,-3.9534102,26.5279554,18.6784308,85.82337881999999,1.55844576,-62.72744184
9.39,939,-0.071,-0.9129999999999999,-0.026000000000000002,-3.2085647999999996,27.960350399999996,15.928232399999999,85.79473092,1.41520626,-62.44096284
9.4,940,-0.063,-0.9,-0.013000000000000001,-1.3750992,30.137590799999998,13.5791046,85.78327176,1.29488508,-62.13156552
9.41,941,-0.044000000000000004,-0.9009999999999999,0.0,2.9793816000000004,33.403451399999994,11.172680999999999,85.81764924000002,1.19748222,-61.7935203
9.42,942,-0.024,-0.897,-0.006999999999999999,5.958763200000001,35.4088044,8.7662574,85.89213378,1.1172681,-61.43828634000001
9.43,943,-0.025,-0.89,0.0,8.193299399999999,37.81522800000001,5.844171599999999,85.97807748,1.07716104,-61.06013406
9.44,944,-0.036000000000000004,-0.8859999999999999,-0.004,10.4851314,41.4821592,2.7501984,86.0869395,1.06570188,-60.64187472
9.45,945,-0.038,-0.885,-0.006,13.6936962,44.9199072,-0.2291832000000001,86.23017899999998,1.0886202,-60.20069706
9.46,946,-0.028999999999999998,-0.893,0.006,16.329303,46.8679644,-2.9220858,86.39633682,1.13445684,-59.73660108
9.47,947,-0.004,-0.9059999999999999,0.019,17.3606274,47.498218200000004,-5.1566220000000005,86.59114253999998,1.19748222,-59.26677552
9.48,948,0.015,-0.919,0.017,17.0168526,47.269035,-7.333862400000001,86.76875952,1.2891555,-58.80267954
9.49,949,0.024,-0.924,-0.001,15.6990492,46.1804148,-9.7975818,86.92918776,1.39801752,-58.35004272
9.5,950,0.028999999999999998,-0.937,-0.023,14.8396122,45.034498799999994,-11.3445684,87.08388642,1.52406828,-57.90886506
