TimeStamp(s),FrameCounter,AccX,AccY,AccZ,GyrX,GyrY,GyrZ,EulerX,EulerY,EulerZ
0.01,1,0.013000000000000001,-1.003,0.094,-0.8594370000000001,0.057295800000000015,0.2291832000000001,95.04227304,1.44385416,-15.50424348
0.02,2,0.006,-0.995,0.08800000000000001,-1.2605076000000002,0.057295800000000015,-0.3437748,95.03081388,1.44958374,-15.50424348
0.03,3,0.005,-0.9940000000000001,0.094,-1.0313244000000001,0.057295800000000015,-0.7448454000000001,95.01935472,1.45531332,-15.50424348
0.04,4,0.004,-0.997,0.098,-0.9167328000000001,0.4583664000000001,-0.8021411999999999,95.00789556,1.4610428999999998,-15.498513899999999
0.05,5,0.005,-1.002,0.094,-1.0313244000000001,0.6302538000000001,-0.7448454000000001,94.9677885,1.44958374,-15.492784320000002
0.060000000000000005,6,0.006,-1.003,0.09,-0.6302538000000001,0.8594370000000001,-0.3437748,94.96205892,1.44958374,-15.48705474
0.06999999999999999,7,0.006999999999999999,-1.0,0.092,-0.3437748,1.2032118,0.11459160000000004,94.96205892,1.44958374,-15.469866
0.08,8,0.01,-1.0,0.092,-0.11459160000000004,1.432395,0.572958,94.95632934,1.43812458,-15.45840684
0.09,9,0.011000000000000001,-0.997,0.09300000000000001,0.0,1.3750992,1.0313244000000001,94.95632934,1.42666542,-15.44694768
0.09999999999999999,10,0.006999999999999999,-0.993,0.102,0.0,1.2605076000000002,1.0886202,94.96205892,1.39801752,-15.435488519999998
0.11,11,0.002,-0.986,0.11,0.40107059999999994,1.2032118,1.0886202,94.96205892,1.38655836,-15.42402936
0.12,12,0.0,-0.983,0.107,1.145916,1.2032118,0.8594370000000001,94.97351808,1.3750992,-15.4125702
0.13,13,-0.001,-0.982,0.113,1.6042823999999998,1.6615782,0.572958,94.99070682,1.36364004,-15.39538146
0.14,14,0.001,-0.985,0.105,2.291832,2.5783110000000002,0.3437748,95.01935472,1.3579104599999998,-15.36673356
0.15000000000000002,15,0.009000000000000001,-0.991,0.095,2.8074942000000003,3.1512689999999997,0.286479,95.03654346,1.3464512999999998,-15.33808566
0.16,16,0.015,-0.998,0.09300000000000001,2.9793816000000004,3.380452200000001,0.4583664000000001,95.06519136,1.34072172,-15.303708179999996
0.17,17,0.018000000000000002,-1.001,0.094,3.2085647999999996,3.3231564,0.572958,95.09956884,1.32926256,-15.2693307
0.18000000000000002,18,0.019,-1.006,0.098,3.3231564,3.2658606,0.572958,95.13394632,1.3178034,-15.240682800000002
0.19,19,0.023,-1.011,0.099,2.9220858,3.2085647999999996,0.5156622000000001,95.16259422,1.31207382,-15.206305319999998
0.2,20,0.025,-1.0170000000000001,0.092,2.6356068,2.7501984,0.572958,95.17405338,1.30634424,-15.183387
0.21000000000000002,21,0.026000000000000002,-1.022,0.08800000000000001,2.6356068,2.0053530000000004,0.7448454000000001,95.20270128,1.29488508,-15.166198259999998
0.22,22,0.023,-1.023,0.08800000000000001,2.4064236,0.9740286,0.8594370000000001,95.2256196,1.2891555,-15.1547391
0.23,23,0.017,-1.0170000000000001,0.092,1.8907614,0.572958,0.6875496,95.24853792,1.27769634,-15.149009520000002
0.24000000000000002,24,0.012,-1.013,0.096,1.145916,0.40107059999999994,0.3437748,95.25999708,1.27769634,-15.14327994
0.25,25,0.006,-1.004,0.1,0.8021411999999999,0.286479,-0.11459160000000004,95.2256196,1.24904844,-15.149009520000002
0.26,26,0.003,-1.001,0.091,0.8021411999999999,0.9740286,-0.572958,95.23707876,1.25477802,-15.13755036
0.27,27,0.002,-1.002,0.085,0.6875496,1.3178034,-0.7448454000000001,95.24280834,1.2605076000000002,-15.12036162
0.28,28,0.004,-1.005,0.083,0.40107059999999994,1.6615782,-0.6302538000000001,95.24853792,1.26623718,-15.10317288
0.29000000000000004,29,0.006999999999999999,-1.0090000000000001,0.081,0.286479,1.6615782,-0.2291832000000001,95.24853792,1.26623718,-15.08598414
0.3,30,0.01,-1.012,0.083,0.0,1.6042823999999998,0.286479,95.1969717,1.24904844,-15.08025456
0.31,31,0.012,-1.014,0.086,-0.40107059999999994,1.3750992,0.9740286,95.19124212,1.23758928,-15.0687954
0.32,32,0.015,-1.012,0.091,-1.0313244000000001,1.2032118,1.3750992,95.17978295999998,1.22613012,-15.05733624
0.33,33,0.016,-1.0070000000000001,0.087,-1.3750992,0.8021411999999999,1.4896908000000002,95.1683238,1.20894138,-15.05160666
0.34,34,0.015,-1.004,0.09300000000000001,-1.5469866,0.0,1.432395,95.15113506,1.19175264,-15.05160666
0.35000000000000003,35,0.011000000000000001,-0.9990000000000001,0.094,-1.7761698000000001,-0.1718874,0.9167328000000001,95.10529842,1.1745639,-15.05733624
0.36000000000000004,36,0.006999999999999999,-1.0,0.09,-1.7761698000000001,0.0,0.2291832000000001,95.08810968,1.1745639,-15.05733624
0.37,37,0.005,-1.002,0.08800000000000001,-1.7761698000000001,0.1718874,0.0,95.06519136,1.1745639,-15.05733624
0.38,38,0.004,-1.0070000000000001,0.087,-1.8907614,0.3437748,-0.11459160000000004,95.04800262,1.1745639,-15.05160666
0.39,39,0.006,-1.0090000000000001,0.085,-2.0053530000000004,0.40107059999999994,0.057295800000000015,95.0250843,1.1745639,-15.04587708
0.4,40,0.006999999999999999,-1.0090000000000001,0.085,-2.0053530000000004,0.11459160000000004,0.5156622000000001,94.97924766,1.1573751600000002,-15.05160666
0.41000000000000003,41,0.008,-1.0090000000000001,0.092,-2.0626488000000003,-0.40107059999999994,1.0886202,94.95632934,1.1459160000000002,-15.05733624
0.42000000000000004,42,0.008,-1.006,0.092,-2.1772404,-0.9167328000000001,1.6042823999999998,94.9391406,1.12872726,-15.0687954
0.43,43,0.009000000000000001,-1.004,0.08800000000000001,-2.1772404,-0.8594370000000001,1.7188740000000002,94.91622228,1.1172681,-15.08025456
0.44,44,0.011000000000000001,-1.002,0.087,-2.2345362,-0.8021411999999999,1.7761698000000001,94.89330396,1.10007936,-15.08598414
0.45,45,0.013000000000000001,-1.0,0.086,-2.2345362,-0.8594370000000001,1.7188740000000002,94.8531969,1.08289062,-15.10317288
0.46,46,0.013000000000000001,-0.997,0.08800000000000001,-2.2345362,-0.9740286,1.4896908000000002,94.83027858,1.06570188,-15.11463204
0.47000000000000003,47,0.013000000000000001,-0.996,0.08800000000000001,-2.2345362,-1.2032118,1.145916,94.80736026,1.05424272,-15.126091199999998
0.48000000000000004,48,0.015,-0.996,0.09,-1.8907614,-1.6042823999999998,0.9167328000000001,94.78444194,1.04851314,-15.14327994
0.49,49,0.012,-0.998,0.091,-1.432395,-1.8907614,0.9167328000000001,94.77298278,1.04278356,-15.16046868
0.5,50,0.009000000000000001,-0.998,0.09,-1.0886202,-2.1199446,0.9167328000000001,94.74433488,1.0313244000000001,-15.18911658
0.51,51,0.006999999999999999,-0.9990000000000001,0.08800000000000001,-0.8021411999999999,-2.291832,1.0886202,94.73860529999999,1.01986524,-15.212034899999995
0.52,52,0.003,-1.001,0.08800000000000001,-0.572958,-2.3491277999999998,1.2032118,94.73287572,1.01413566,-15.23495322
0.53,53,0.0,-1.002,0.091,-0.3437748,-2.291832,1.2032118,94.72714614,1.0026765,-15.25787154
0.54,54,-0.003,-1.002,0.10099999999999999,-0.40107059999999994,-2.2345362,1.2605076000000002,94.72141656,0.9912173399999998,-15.28078986
0.55,55,-0.005,-1.001,0.096,-0.1718874,-1.9480572,1.0313244000000001,94.69849824,0.95683986,-15.303708179999996
0.56,56,-0.005,-1.003,0.091,0.40107059999999994,-1.8334656000000005,0.8021411999999999,94.70422782,0.95111028,-15.32089692
0.5700000000000001,57,-0.003,-1.003,0.09,0.572958,-1.7761698000000001,0.572958,94.7099574,0.95111028,-15.34381524
0.5800000000000001,58,-0.001,-1.004,0.087,0.5156622000000001,-1.7188740000000002,0.3437748,94.71568698,0.9453807,-15.36100398
0.59,59,0.001,-1.004,0.083,0.7448454000000001,-1.6042823999999998,0.3437748,94.72714614,0.9453807,-15.37246314
0.6,60,0.002,-1.003,0.083,0.8021411999999999,-1.6042823999999998,0.286479,94.70422782,0.92819196,-15.39538146
0.61,61,0.001,-1.003,0.084,0.8021411999999999,-1.6042823999999998,0.1718874,94.7099574,0.92819196,-15.4125702
0.62,62,-0.002,-1.003,0.085,0.7448454000000001,-1.3750992,0.0,94.72141656,0.93392154,-15.42402936
0.63,63,-0.004,-1.0070000000000001,0.086,0.6875496,-1.5469866,-0.1718874,94.72714614,0.93392154,-15.441218099999999
0.64,64,-0.004,-1.008,0.086,0.5156622000000001,-2.0053530000000004,-0.2291832000000001,94.73287572,0.93965112,-15.45840684
0.65,65,-0.005,-1.005,0.087,0.40107059999999994,-1.6615782,-0.3437748,94.70422782,0.92246238,-15.47559558
0.66,66,-0.003,-1.006,0.085,0.286479,-1.145916,-0.5156622000000001,94.7099574,0.92819196,-15.48705474
0.67,67,-0.003,-1.005,0.084,0.1718874,-0.572958,-0.6302538000000001,94.7099574,0.93392154,-15.492784320000002
0.68,68,-0.001,-1.005,0.083,0.0,-0.40107059999999994,-0.7448454000000001,94.7099574,0.93965112,-15.498513899999999
0.6900000000000001,69,0.0,-1.003,0.079,-0.057295800000000015,-0.572958,-0.6302538000000001,94.7099574,0.95111028,-15.50424348
0.7000000000000001,70,0.001,-1.003,0.077,0.0,-0.6875496,-0.40107059999999994,94.60682496,0.92246238,-15.52143222
0.7100000000000001,71,0.002,-1.002,0.079,0.0,-0.572958,-0.4583664000000001,94.60109538,0.92819196,-15.527161799999998
0.72,72,0.004,-1.004,0.085,-0.11459160000000004,-0.572958,-0.4583664000000001,94.60109538,0.93392154,-15.53289138
0.73,73,0.003,-1.0070000000000001,0.091,-0.40107059999999994,-0.8594370000000001,-0.5156622000000001,94.5953658,0.93965112,-15.53862096
0.74,74,0.001,-1.01,0.08800000000000001,-0.6875496,-0.6302538000000001,-0.5156622000000001,94.58963622,0.9453807,-15.54435054
0.75,75,0.0,-1.011,0.085,-0.8021411999999999,-0.40107059999999994,-0.6302538000000001,94.54379958,0.92819196,-15.555809699999998
0.76,76,0.0,-1.011,0.085,-0.6302538000000001,-0.3437748,-0.6302538000000001,94.53806999999999,0.93392154,-15.555809699999998
0.77,77,0.001,-1.01,0.083,-0.6302538000000001,-0.2291832000000001,-0.6302538000000001,94.52661084,0.93965112,-15.555809699999998
0.78,78,0.003,-1.0070000000000001,0.086,-0.572958,-0.1718874,-0.6302538000000001,94.52088126,0.9453807,-15.561539280000002
0.79,79,0.003,-1.004,0.087,-0.6302538000000001,-0.2291832000000001,-0.5156622000000001,94.51515168,0.95111028,-15.561539280000002
0.8,80,0.005,-1.002,0.08199999999999999,-0.572958,0.0,-0.572958,94.44639672,0.95111028,-15.567268860000002
0.81,81,0.009000000000000001,-1.0,0.081,-0.5156622000000001,0.11459160000000004,-0.5156622000000001,94.44066714,0.95111028,-15.567268860000002
0.8200000000000001,82,0.009000000000000001,-0.997,0.084,-0.2291832000000001,0.0,-0.40107059999999994,94.43493756,0.95683986,-15.567268860000002
0.8300000000000001,83,0.01,-0.996,0.084,-0.057295800000000015,0.0,-0.4583664000000001,94.43493756,0.96256944,-15.567268860000002
0.8400000000000001,84,0.012,-0.996,0.08900000000000001,0.0,-0.057295800000000015,-0.40107059999999994,94.43493756,0.96829902,-15.567268860000002
0.85,85,0.013000000000000001,-0.995,0.08800000000000001,0.0,-0.11459160000000004,-0.3437748,94.37764176,0.9740286,-15.57299844
0.86,86,0.012,-0.995,0.087,0.3437748,-0.11459160000000004,-0.40107059999999994,94.38337134,0.97975818,-15.57299844
0.87,87,0.01,-0.997,0.08800000000000001,0.5156622000000001,0.0,-0.6302538000000001,94.38910092,0.98548776,-15.57299844
0.88,88,0.01,-0.998,0.08800000000000001,0.572958,-0.057295800000000015,-0.7448454000000001,94.3948305,0.9912173399999998,-15.57299844
0.89,89,0.01,-0.9990000000000001,0.09,0.7448454000000001,-0.3437748,-0.7448454000000001,94.40056008,0.9969469199999998,-15.57872802
0.9,90,0.01,-1.0,0.08900000000000001,1.0313244000000001,-0.572958,-0.6302538000000001,94.3948305,1.00840608,-15.584457600000002
0.91,91,0.011000000000000001,-1.002,0.087,1.2032118,-0.40107059999999994,-0.6302538000000001,94.40628966,1.01413566,-15.59018718
0.92,92,0.012,-1.004,0.08900000000000001,1.2032118,-0.3437748,-0.6875496,94.41774882,1.01986524,-15.59018718
0.93,93,0.013000000000000001,-1.005,0.087,1.145916,-0.286479,-0.7448454000000001,94.43493756,1.0255948199999998,-15.59018718
0.9400000000000001,94,0.015,-1.0070000000000001,0.087,1.145916,-0.2291832000000001,-0.9167328000000001,94.44639672,1.03705398,-15.59591676
0.9500000000000001,95,0.016,-1.0090000000000001,0.087,1.2032118,-0.5156622000000001,-0.9167328000000001,94.44066714,1.05424272,-15.60164634
0.9600000000000001,96,0.015,-1.008,0.08800000000000001,1.145916,-0.6302538000000001,-0.9740286,94.45212629999999,1.06570188,-15.60737592
0.97,97,0.012,-1.0070000000000001,0.08800000000000001,1.2032118,-0.6875496,-1.0886202,94.46358546,1.07716104,-15.6131055
0.98,98,0.011000000000000001,-1.0070000000000001,0.091,1.0313244000000001,-1.0313244000000001,-1.2032118,94.47504462,1.0886202,-15.62456466
0.99,99,0.012,-1.0070000000000001,0.087,0.9740286,-1.145916,-1.2605076000000002,94.48650378,1.10007936,-15.63029424
1.0,100,0.012,-1.0070000000000001,0.085,0.8594370000000001,-1.0886202,-1.145916,94.47504462,1.11153852,-15.647482979999998
1.01,101,0.013000000000000001,-1.006,0.084,0.8021411999999999,-1.145916,-0.9740286,94.48077420000001,1.12299768,-15.65321256
1.02,102,0.013000000000000001,-1.006,0.085,0.8021411999999999,-1.2032118,-0.8594370000000001,94.49223336,1.13445684,-15.66467172
1.03,103,0.013000000000000001,-1.006,0.08800000000000001,0.7448454000000001,-1.2032118,-0.7448454000000001,94.49796294,1.1459160000000002,-15.676130880000002
1.04,104,0.011000000000000001,-1.006,0.09,0.6875496,-1.0886202,-0.7448454000000001,94.50369252,1.15164558,-15.68759004
1.05,105,0.01,-1.005,0.09,0.6302538000000001,-1.0313244000000001,-0.8594370000000001,94.49796294,1.1573751600000002,-15.6990492
1.06,106,0.011000000000000001,-1.0070000000000001,0.08900000000000001,0.40107059999999994,-0.7448454000000001,-0.9740286,94.49796294,1.1688343199999998,-15.704778780000002
1.07,107,0.011000000000000001,-1.008,0.08900000000000001,0.4583664000000001,-0.6302538000000001,-0.9740286,94.50369252,1.18029348,-15.71050836
1.08,108,0.01,-1.006,0.091,0.5156622000000001,-0.6302538000000001,-0.8021411999999999,94.5094221,1.18602306,-15.71623794
1.09,109,0.008,-1.004,0.09,0.40107059999999994,-0.6302538000000001,-0.7448454000000001,94.51515168,1.19748222,-15.721967520000002
1.1,110,0.009000000000000001,-1.003,0.09,0.1718874,-0.572958,-0.4583664000000001,94.48650378,1.18029348,-15.73342668
1.11,111,0.008,-1.003,0.08900000000000001,0.2291832000000001,-0.572958,-0.2291832000000001,94.49223336,1.18602306,-15.739156259999998
1.12,112,0.01,-1.004,0.09,0.2291832000000001,-0.6302538000000001,-0.057295800000000015,94.49223336,1.18602306,-15.74488584
1.1300000000000001,113,0.011000000000000001,-1.005,0.09300000000000001,0.3437748,-1.0313244000000001,0.11459160000000004,94.49796294,1.18602306,-15.756345000000001
1.1400000000000001,114,0.011000000000000001,-1.004,0.094,0.11459160000000004,-1.2032118,0.286479,94.49796294,1.18602306,-15.76780416
1.1500000000000001,115,0.013999999999999999,-1.003,0.095,-0.2291832000000001,-0.9740286,0.40107059999999994,94.47504462,1.18602306,-15.779263320000002
1.1600000000000001,116,0.017,-1.002,0.08800000000000001,-0.11459160000000004,-0.9167328000000001,0.572958,94.47504462,1.18029348,-15.79072248
1.17,117,0.019,-1.003,0.086,0.11459160000000004,-0.9740286,0.6875496,94.47504462,1.1745639,-15.80218164
1.18,118,0.018000000000000002,-1.004,0.08900000000000001,0.057295800000000015,-0.9167328000000001,0.6875496,94.47504462,1.1688343199999998,-15.80791122
1.19,119,0.016,-1.003,0.092,0.057295800000000015,-0.9167328000000001,0.5156622000000001,94.47504462,1.16310474,-15.81937038
1.2,120,0.013000000000000001,-1.002,0.09,0.0,-0.9167328000000001,0.2291832000000001,94.44639672,1.1573751600000002,-15.83082954
1.21,121,0.013999999999999999,-1.004,0.09300000000000001,0.1718874,-1.0886202,0.0,94.44639672,1.1573751600000002,-15.8422887
1.22,122,0.011000000000000001,-1.004,0.092,0.1718874,-1.432395,0.1718874,94.44639672,1.1573751600000002,-15.859477439999996
1.23,123,0.009000000000000001,-1.005,0.091,0.40107059999999994,-1.4896908000000002,0.3437748,94.45212629999999,1.15164558,-15.8709366
1.24,124,0.011000000000000001,-1.0070000000000001,0.094,0.40107059999999994,-1.3750992,0.5156622000000001,94.45785588,1.15164558,-15.888125340000002
1.25,125,0.011000000000000001,-1.0070000000000001,0.094,0.3437748,-1.7188740000000002,0.6875496,94.45212629999999,1.14018642,-15.90531408
1.26,126,0.01,-1.0070000000000001,0.094,0.4583664000000001,-1.6042823999999998,0.8594370000000001,94.45785588,1.13445684,-15.92250282
1.27,127,0.01,-1.0070000000000001,0.09699999999999999,0.3437748,-1.2032118,0.7448454000000001,94.45785588,1.12872726,-15.93396198
1.28,128,0.01,-1.005,0.095,0.286479,-0.7448454000000001,0.572958,94.46358546,1.12299768,-15.94542114
1.29,129,0.012,-1.006,0.09300000000000001,0.2291832000000001,-0.3437748,0.3437748,94.46358546,1.1172681,-15.94542114
1.3,130,0.013000000000000001,-1.008,0.09,0.11459160000000004,-0.286479,0.40107059999999994,94.41201924,1.1172681,-15.956880300000002
1.31,131,0.013000000000000001,-1.005,0.08800000000000001,0.1718874,-0.40107059999999994,0.6302538000000001,94.41201924,1.11153852,-15.96260988
1.32,132,0.011000000000000001,-1.003,0.092,0.3437748,-0.5156622000000001,0.8021411999999999,94.41774882,1.10580894,-15.96833946
1.33,133,0.008,-1.003,0.092,0.40107059999999994,-0.2291832000000001,0.6875496,94.42347840000001,1.10007936,-15.96833946
1.34,134,0.006,-1.005,0.09,0.40107059999999994,0.0,0.572958,94.42347840000001,1.09434978,-15.96833946
1.35,135,0.006999999999999999,-1.006,0.091,0.3437748,-0.057295800000000015,0.4583664000000001,94.40628966,1.06570188,-15.974069039999998
1.36,136,0.008,-1.005,0.091,0.2291832000000001,-0.11459160000000004,0.6875496,94.41201924,1.0599723,-15.974069039999998
1.37,137,0.009000000000000001,-1.003,0.09,0.4583664000000001,-0.057295800000000015,0.7448454000000001,94.41201924,1.04851314,-15.97979862
1.3800000000000001,138,0.012,-1.003,0.09300000000000001,0.5156622000000001,0.0,0.9167328000000001,94.41774882,1.04278356,-15.97979862
1.3900000000000001,139,0.012,-1.001,0.09300000000000001,0.572958,-0.057295800000000015,0.9740286,94.42347840000001,1.0313244000000001,-15.97979862
1.4000000000000001,140,0.011000000000000001,-1.0,0.095,0.6875496,0.057295800000000015,0.8594370000000001,94.42920798000002,1.01986524,-15.97979862
1.4100000000000001,141,0.011000000000000001,-1.003,0.095,0.6875496,0.286479,0.8021411999999999,94.44066714,1.00840608,-15.97979862
1.42,142,0.011000000000000001,-1.003,0.08800000000000001,0.6875496,0.286479,0.6875496,94.44639672,1.0026765,-15.974069039999998
1.43,143,0.011000000000000001,-1.002,0.08800000000000001,0.6302538000000001,0.2291832000000001,0.6875496,94.45212629999999,0.9912173399999998,-15.974069039999998
1.44,144,0.01,-1.002,0.08800000000000001,0.6875496,0.2291832000000001,0.7448454000000001,94.45785588,0.98548776,-15.96833946
1.45,145,0.008,-1.001,0.096,0.6302538000000001,0.3437748,0.6875496,94.45785588,0.9740286,-15.96833946
1.46,146,0.008,-0.998,0.091,0.7448454000000001,0.4583664000000001,0.6302538000000001,94.46358546,0.96256944,-15.96260988
1.47,147,0.008,-1.001,0.086,1.0886202,0.4583664000000001,0.6302538000000001,94.47504462,0.95683986,-15.956880300000002
1.48,148,0.006999999999999999,-1.002,0.086,1.0886202,0.40107059999999994,0.6302538000000001,94.48650378,0.95111028,-15.956880300000002
1.49,149,0.005,-1.002,0.08800000000000001,1.0313244000000001,0.4583664000000001,0.572958,94.49796294,0.9453807,-15.951150719999998
1.5,150,0.005,-1.003,0.087,1.0886202,0.4583664000000001,0.4583664000000001,94.48650378,0.92819196,-15.951150719999998
1.51,151,0.005,-1.005,0.087,1.145916,0.5156622000000001,0.5156622000000001,94.49796294,0.92246238,-15.94542114
1.52,152,0.006,-1.005,0.087,1.0313244000000001,0.4583664000000001,0.572958,94.5094221,0.9167328,-15.93969156
1.53,153,0.006999999999999999,-1.006,0.08800000000000001,1.0313244000000001,0.286479,0.6875496,94.52088126,0.91100322,-15.93969156
1.54,154,0.006,-1.0070000000000001,0.08800000000000001,1.145916,0.2291832000000001,0.6302538000000001,94.53234042,0.90527364,-15.93396198
1.55,155,0.006,-1.0090000000000001,0.087,1.0886202,0.2291832000000001,0.6875496,94.51515168,0.8880849000000001,-15.93396198
1.56,156,0.004,-1.01,0.09,0.9167328000000001,0.2291832000000001,0.6302538000000001,94.52661084,0.8823553199999999,-15.93396198
1.57,157,0.005,-1.0090000000000001,0.09,0.6875496,0.3437748,0.6875496,94.53234042,0.87662574,-15.9282324
1.58,158,0.008,-1.01,0.09300000000000001,0.40107059999999994,0.3437748,0.8021411999999999,94.53806999999999,0.86516658,-15.9282324
1.59,159,0.008,-1.008,0.092,0.2291832000000001,0.286479,0.8021411999999999,94.53806999999999,0.8594370000000001,-15.92250282
1.6,160,0.009000000000000001,-1.0070000000000001,0.091,0.286479,0.1718874,0.8594370000000001,94.51515168,0.8479778399999999,-15.9282324
1.61,161,0.01,-1.003,0.09300000000000001,0.3437748,0.0,0.9167328000000001,94.51515168,0.83651868,-15.9282324
1.62,162,0.01,-1.003,0.091,0.1718874,-0.11459160000000004,1.0313244000000001,94.52088126,0.8307891,-15.9282324
1.6300000000000001,163,0.006,-1.002,0.08800000000000001,0.11459160000000004,-0.7448454000000001,1.432395,94.52088126,0.8136003599999999,-15.93969156
1.6400000000000001,164,0.005,-1.002,0.08900000000000001,0.11459160000000004,-1.2032118,1.7761698000000001,94.52088126,0.79641162,-15.951150719999998
1.6500000000000001,165,0.004,-1.002,0.094,0.057295800000000015,-1.3178034,2.0053530000000004,94.51515168,0.7734933,-15.96833946
1.6600000000000001,166,0.005,-1.004,0.096,-0.1718874,-1.4896908000000002,2.1199446,94.51515168,0.75630456,-15.985528200000001
1.6700000000000002,167,0.006999999999999999,-1.006,0.095,-0.6302538000000001,-1.7761698000000001,2.0053530000000004,94.5094221,0.7391158200000001,-16.002716940000006
1.68,168,0.009000000000000001,-1.006,0.1,-0.40107059999999994,-2.0626488000000003,1.8334656000000005,94.50369252,0.72192708,-16.02563526
1.69,169,0.006999999999999999,-1.004,0.10099999999999999,-0.6875496,-2.7501984,1.8907614,94.49796294,0.70473834,-16.05428316
1.7,170,0.002,-0.998,0.099,-0.286479,-2.7501984,1.8334656000000005,94.49223336,0.68182002,-16.08293106
1.71,171,0.004,-0.998,0.10099999999999999,0.5156622000000001,-2.1199446,1.7188740000000002,94.49796294,0.6703608600000001,-16.105849380000002
1.72,172,0.005,-0.9990000000000001,0.1,0.572958,-1.5469866,1.6042823999999998,94.50369252,0.65317212,-16.12303812
1.73,173,0.005,-1.002,0.099,0.572958,-1.4896908000000002,1.8334656000000005,94.5094221,0.63598338,-16.140226860000002
1.74,174,0.003,-1.004,0.102,0.5156622000000001,-1.9480572,2.3491277999999998,94.51515168,0.61879464,-16.1574156
1.75,175,0.002,-1.006,0.102,0.40107059999999994,-2.1772404,2.8074942000000003,94.52088126,0.59014674,-16.18033392
1.76,176,0.004,-1.01,0.105,0.286479,-1.9480572,2.8074942000000003,94.52661084,0.56149884,-16.20325224
1.77,177,0.006999999999999999,-1.01,0.102,-0.11459160000000004,-1.8907614,2.7501984,94.52661084,0.53858052,-16.22617056
1.78,178,0.009000000000000001,-1.012,0.09699999999999999,-0.4583664000000001,-1.6615782,2.4637194,94.52088126,0.5156622000000001,-16.243359299999998
1.79,179,0.009000000000000001,-1.013,0.09300000000000001,-0.6875496,-1.432395,2.0053530000000004,94.5094221,0.49274388,-16.26054804
1.8,180,0.005,-1.015,0.092,-0.9740286,-1.432395,1.6042823999999998,94.49223336,0.48128472,-16.27773678
1.81,181,0.002,-1.016,0.09300000000000001,-1.0886202,-1.145916,1.2032118,94.48077420000001,0.46982556,-16.28919594
1.82,182,0.0,-1.0170000000000001,0.095,-1.432395,-1.145916,1.145916,94.46358546,0.4583664000000001,-16.3006551
1.83,183,-0.002,-1.015,0.096,-1.8907614,-1.6615782,1.4896908000000002,94.44639672,0.44690724,-16.317843840000002
1.84,184,-0.004,-1.011,0.1,-2.1199446,-1.7761698000000001,1.9480572,94.42347840000001,0.4297185000000001,-16.34076216
1.85,185,-0.003,-1.008,0.099,-2.3491277999999998,-1.432395,2.1199446,94.40056008,0.40680018,-16.3579509
1.86,186,-0.003,-1.0090000000000001,0.09699999999999999,-2.5210152000000003,-0.572958,1.9480572,94.37764176,0.38388186,-16.36368048
1.87,187,-0.003,-1.01,0.096,-2.6929026,0.0,1.6615782,94.34899386,0.3724227000000001,-16.36368048
1.8800000000000001,188,-0.001,-1.012,0.09300000000000001,-2.8074942000000003,0.2291832000000001,1.4896908000000002,94.32034596,0.35523396,-16.36368048
1.8900000000000001,189,-0.003,-1.01,0.09300000000000001,-2.8074942000000003,0.0,1.432395,94.29169806,0.33804522,-16.36368048
1.9000000000000001,190,-0.008,-1.006,0.106,-2.6929026,0.057295800000000015,1.4896908000000002,94.27450932,0.31512690000000004,-16.36368048
1.9100000000000001,191,-0.009000000000000001,-1.002,0.10400000000000001,-2.291832,0.4583664000000001,1.3750992,94.251591,0.30366774,-16.36368048
1.9200000000000002,192,-0.006,-1.004,0.10300000000000001,-2.2345362,0.9167328000000001,1.0886202,94.22867268000002,0.29220857999999994,-16.35222132
1.93,193,-0.004,-1.005,0.1,-2.6929026,1.8907614,0.6875496,94.20002478,0.28074942,-16.33503258
1.94,194,-0.001,-1.004,0.08800000000000001,-2.8074942000000003,2.4064236,0.6875496,94.17137688,0.26929026,-16.312114259999998
1.95,195,-0.001,-1.004,0.08900000000000001,-2.86479,2.2345362,0.6875496,94.1369994,0.25783110000000004,-16.28919594
1.96,196,-0.004,-1.002,0.092,-2.6929026,2.3491277999999998,0.572958,94.1083515,0.25210152,-16.26627762
1.97,197,-0.004,-1.004,0.091,-2.4637194,2.4637194,0.286479,94.08543318,0.24637194,-16.243359299999998
1.98,198,-0.003,-1.006,0.09300000000000001,-2.7501984,2.1199446,0.40107059999999994,94.05678528,0.24064236,-16.22617056
1.99,199,-0.002,-1.006,0.1,-3.3231564,1.0313244000000001,0.7448454000000001,94.0224078,0.22918320000000006,-16.214711400000002
2.0,200,0.001,-1.0090000000000001,0.092,-3.8961144,-0.3437748,1.145916,93.98230074,0.22345362,-16.22044098
2.01,201,0.002,-1.01,0.092,-4.4117766,-1.0886202,1.4896908000000002,93.9364641,0.20626488,-16.23190014
2.02,202,0.0,-1.013,0.096,-5.2712136,-1.6615782,1.6615782,93.88489788,0.18907614,-16.24908888
2.03,203,0.0,-1.014,0.102,-6.0160589999999985,-2.0626488000000003,1.7761698000000001,93.8218725,0.17761697999999998,-16.272007199999994
2.04,204,-0.003,-1.016,0.111,-6.9327918,-2.7501984,2.0626488000000003,93.75311754,0.15469866,-16.3006551
2.05,205,-0.005,-1.0170000000000001,0.11,-8.651665800000002,-4.010706000000001,2.6929026,93.67290342,0.13178034,-16.34649174
2.0599999999999996,206,-0.006999999999999999,-1.01,0.114,-10.026765,-3.4950437999999995,3.0366774,93.56977098,0.10313244,-16.38086922
2.07,207,-0.01,-1.016,0.091,-11.802934800000001,-1.6615782,2.6356068,93.4494498,0.08021412,-16.40378754
2.0799999999999996,208,-0.017,-1.036,0.069,-13.464512999999998,-1.2032118,2.3491277999999998,93.31193988,0.057295800000000015,-16.4152467
2.09,209,-0.021,-1.055,0.075,-14.0947668,-1.7761698000000001,2.5210152000000003,93.16870038,0.028647900000000007,-16.438165020000003
2.0999999999999996,210,-0.02,-1.063,0.092,-15.6990492,-2.9220858,3.2658606,93.01400172,0.0,-16.4725425
2.11,211,-0.013999999999999999,-1.054,0.09,-17.131444199999994,-3.4377480000000005,3.7815228,92.84211432,-0.03437748,-16.50691998
2.1199999999999997,212,-0.009000000000000001,-1.047,0.084,-17.8189938,-3.1512689999999997,4.0680017999999984,92.65876776,-0.07448454,-16.54702704
2.13,213,-0.005,-1.0390000000000001,0.084,-18.506543399999998,-2.4064236,4.1252976000000015,92.4754212,-0.11459160000000003,-16.56994536
2.1399999999999997,214,-0.01,-1.038,0.085,-18.621135,-1.9480572,3.8388186,92.28634506,-0.15469866,-16.598593259999998
2.15,215,-0.017,-1.042,0.087,-19.136797199999997,-1.6042823999999998,3.4377480000000005,92.09726892,-0.18907614,-16.615782
2.1599999999999997,216,-0.026000000000000002,-1.035,0.102,-19.8243468,-1.2032118,2.7501984,91.89100404,-0.21772404,-16.632970739999998
2.17,217,-0.03,-1.0290000000000001,0.11199999999999999,-20.340009,-0.6302538000000001,2.1199446,91.68473916,-0.24064236,-16.638700319999998
2.1799999999999997,218,-0.033,-1.025,0.11900000000000001,-21.0848544,0.1718874,1.6042823999999998,91.4727447,-0.25783110000000004,-16.6444299
2.19,219,-0.032,-1.02,0.11599999999999999,-21.4286292,1.5469866,1.145916,91.25502066,-0.26929026,-16.62724116
2.1999999999999997,220,-0.03,-1.02,0.11900000000000001,-21.7151082,3.2085647999999996,0.4583664000000001,91.04875578,-0.28074942,-16.598593259999998
2.21,221,-0.031,-1.025,0.11699999999999999,-22.7464326,4.5263682,-0.2291832000000001,90.813843,-0.28647900000000004,-16.5584862
2.2199999999999998,222,-0.034,-1.034,0.107,-24.2934192,5.7868758000000025,-0.9740286,90.56747106,-0.28074942,-16.501190400000002
2.23,223,-0.035,-1.052,0.096,-26.241476399999996,6.8182002000000015,-1.6042823999999998,90.2981808,-0.26929026,-16.438165020000003
2.2399999999999998,224,-0.036000000000000004,-1.06,0.105,-28.1895336,6.9327918,-1.9480572,90.0117018,-0.25210152,-16.36941006
2.25,225,-0.033,-1.058,0.107,-30.137590799999998,7.2192707999999985,-2.2345362,89.71376364,-0.23491278,-16.3006551
2.26,226,-0.023,-1.057,0.096,-31.6845774,7.3911582,-2.3491277999999998,89.39290716000002,-0.21772404,-16.23190014
2.27,227,-0.016,-1.052,0.084,-33.2888598,6.3598338,-2.0626488000000003,89.04913236,-0.20053530000000008,-16.17460434
2.28,228,-0.012,-1.044,0.085,-34.7785506,5.042030400000002,-1.2605076000000002,88.69389840000002,-0.18907614,-16.1287677
2.29,229,-0.011000000000000001,-1.038,0.08199999999999999,-36.6120162,4.1825934,-0.8021411999999999,88.32720528,-0.18334656,-16.088660639999997
2.3,230,-0.011000000000000001,-1.033,0.07200000000000001,-37.81522800000001,4.1825934,-0.7448454000000001,87.94905299999998,-0.17761697999999998,-16.05428316
2.31,231,-0.012,-1.037,0.062,-38.0444112,5.2712136,-0.8594370000000001,87.55944156000002,-0.1718874,-16.002716940000006
2.32,232,-0.013000000000000001,-1.04,0.06,-39.018439799999996,6.3025379999999975,-1.2605076000000002,87.16410053999998,-0.16615782,-15.94542114
2.3299999999999996,233,-0.015,-1.037,0.053,-39.9351726,5.9014674000000005,-1.5469866,86.75730036,-0.14896908,-15.89385492
2.34,234,-0.017,-1.041,0.051,-40.7373138,4.6982555999999995,-1.8334656000000005,86.34477059999998,-0.13178034,-15.85374786
2.3499999999999996,235,-0.022000000000000002,-1.041,0.036000000000000004,-42.05511720000001,4.8128472,-2.291832,85.92078168,-0.11459160000000003,-15.80791122
2.36,236,-0.019,-1.0490000000000002,0.032,-43.20103320000001,6.130650599999999,-2.7501984,85.47960402,-0.0859437,-15.756345000000001
2.3699999999999997,237,-0.012,-1.055,0.023,-45.2063862,7.0473834,-3.2085647999999996,85.02123762,-0.057295800000000015,-15.69331962
2.38,238,-0.002,-1.054,0.004,-46.8679644,7.448453999999999,-3.0366774,84.54568248000002,-0.02291832,-15.63029424
2.3899999999999997,239,-0.001,-1.051,-0.004,-48.414951,7.8495246,-2.9793816000000004,84.05293859999998,0.0,-15.555809699999998
2.4,240,-0.003,-1.042,-0.012,-49.847346,8.3651868,-3.2085647999999996,83.54873556,0.03437748,-15.48132516
2.4099999999999997,241,-0.004,-1.037,-0.019,-51.3943326,7.6203414,-3.3231564,83.02734378,0.06875496,-15.418299779999998
2.42,242,-0.005,-1.031,-0.021,-53.22779820000001,7.5630456000000015,-3.4377480000000005,82.48876326,0.10313244,-15.355274400000004
2.4299999999999997,243,-0.004,-1.022,-0.015,-54.4883058,7.333862400000001,-3.4377480000000005,81.93299400000002,0.14323950000000002,-15.29224902
2.44,244,-0.002,-1.016,-0.025,-55.2331512,7.2192707999999985,-3.3231564,81.37149516,0.17761697999999998,-15.22922364
2.4499999999999997,245,0.0,-1.014,-0.023,-55.40503860000001,8.193299399999999,-3.2085647999999996,80.8157259,0.21772404,-15.16046868
2.46,246,0.003,-1.01,-0.043,-55.6915176,8.9954406,-3.2658606,80.24849748,0.25210152,-15.08025456
2.4699999999999998,247,0.006,-1.0170000000000001,-0.075,-55.5196302,8.4224826,-3.1512689999999997,79.68699864,0.29220857999999994,-15.011499600000002
2.48,248,0.003,-1.03,-0.092,-56.3217714,7.0473834,-2.86479,79.11404064,0.32658606,-14.954203799999998
2.4899999999999998,249,-0.011000000000000001,-1.033,-0.09300000000000001,-57.9833496,5.72958,-3.2658606,78.52389389999998,0.36096354,-14.90836716
2.5,250,-0.033,-1.028,-0.095,-58.842786600000004,4.9847346,-4.1825934,77.93374716000002,0.4010706000000001,-14.87398968
2.51,251,-0.054000000000000006,-1.033,-0.069,-58.49901179999999,4.6409598,-4.8128472,77.33787084,0.4526368200000001,-14.845341780000002
2.52,252,-0.061,-1.058,-0.091,-58.6136034,5.1566220000000005,-5.3285094000000015,76.74199452,0.5042030399999999,-14.810964300000002
2.53,253,-0.057,-1.103,-0.122,-58.9000824,7.7922288,-6.3025379999999975,76.14611819999998,0.5786875800000001,-14.7536685
2.54,254,-0.04,-1.16,-0.165,-60.10329419999999,11.0580894,-6.990087599999999,75.53305314,0.66463128,-14.667724799999998
2.55,255,-0.015,-1.2109999999999999,-0.203,-62.10864720000001,13.464512999999998,-6.5317212,74.90279934,0.75057498,-14.564592359999995
2.56,256,0.001,-1.2309999999999999,-0.193,-63.4264506,14.32395,-4.7555514,74.26108638000002,0.8193299399999999,-14.444271179999998
2.57,257,0.013999999999999999,-1.2209999999999999,-0.221,-65.030733,14.037471,-2.7501984,73.60218468000002,0.87662574,-14.32395
2.5799999999999996,258,0.032,-1.219,-0.263,-66.4058322,13.0061466,-2.0626488000000003,72.92609424,0.92246238,-14.209358400000001
2.59,259,0.038,-1.215,-0.309,-66.69231119999999,9.682990199999999,-2.291832,72.25000379999999,0.96256944,-14.12914428
2.5999999999999996,260,0.036000000000000004,-1.2329999999999999,-0.39799999999999996,-66.86419860000001,7.7922288,-2.6356068,71.56818378,1.0026765,-14.0661189
2.61,261,0.044000000000000004,-1.248,-0.439,-69.041439,6.6463128000000005,-3.1512689999999997,70.86917502,1.04278356,-14.020282259999998
2.6199999999999997,262,0.051,-1.2329999999999999,-0.45899999999999996,-70.76031300000002,5.6149884000000005,-2.9220858,70.14724794,1.08289062,-13.980175199999998
2.63,263,0.057,-1.1840000000000002,-0.473,-69.61439700000001,6.3598338,-2.7501984,69.4425096,1.1172681,-13.94006814
2.6399999999999997,264,0.065,-1.12,-0.489,-67.322565,6.7609043999999985,-2.291832,68.76068957999999,1.1573751600000002,-13.88850192
2.65,265,0.077,-1.0759999999999998,-0.515,-62.910788399999994,6.0733548,-1.9480572,68.11324704,1.19175264,-13.84266528
2.6599999999999997,266,0.085,-1.042,-0.532,-58.2698286,4.8701430000000006,-1.8334656000000005,67.5231003,1.21467096,-13.8082878
2.67,267,0.09699999999999999,-1.01,-0.5329999999999999,-54.0299394,2.9220858,-1.2032118,66.97306062,1.2318597,-13.79109906
2.6799999999999997,268,0.094,-0.986,-0.5489999999999999,-49.90464179999999,1.0886202,0.11459160000000004,66.46885758,1.22613012,-13.78536948
2.69,269,0.08900000000000001,-0.9620000000000001,-0.5529999999999999,-45.9512316,-0.5156622000000001,1.2032118,65.99903202,1.20894138,-13.78536948
2.6999999999999997,270,0.08800000000000001,-0.9520000000000001,-0.5479999999999999,-41.19568020000001,-1.432395,1.9480572,65.56931352000001,1.18602306,-13.796828639999998
2.71,271,0.08900000000000001,-0.96,-0.542,-36.4974246,-1.8907614,2.0626488000000003,65.2026204,1.1573751600000002,-13.8082878
2.7199999999999998,272,0.096,-0.98,-0.521,-31.9710564,-2.4637194,2.0053530000000004,64.87603434,1.12299768,-13.82547654
2.73,273,0.099,-0.996,-0.498,-27.3300966,-3.3231564,1.8907614,64.60101449999999,1.0886202,-13.84839486
2.7399999999999998,274,0.094,-0.9940000000000001,-0.483,-22.9756158,-3.8961144,1.7188740000000002,64.36610171999999,1.05424272,-13.87704276
2.75,275,0.085,-0.988,-0.488,-19.0222056,-4.4690724,1.2032118,64.16556641999999,1.03705398,-13.91714982
2.76,276,0.071,-0.977,-0.4920000000000001,-15.068795399999999,-5.042030400000002,0.6875496,64.01086776000001,1.00840608,-13.95725688
2.77,277,0.059000000000000004,-0.971,-0.493,-10.599723,-4.8701430000000006,0.11459160000000004,63.90773531999999,0.98548776,-14.003093519999998
2.78,278,0.048,-0.963,-0.47200000000000003,-6.0733548,-4.7555514,0.0,63.84470994000001,0.96256944,-14.04893016
2.79,279,0.045,-0.9490000000000001,-0.456,-2.4064236,-4.4117766,0.1718874,63.81606204,0.9453807,-14.08903722
2.8,280,0.051,-0.924,-0.45399999999999996,1.3750992,-4.1252976000000015,0.572958,63.81033246000001,0.9453807,-14.123414699999998
2.81,281,0.064,-0.903,-0.457,4.5263682,-3.7242269999999995,0.9167328000000001,63.86189868,0.92246238,-14.152062600000002
2.82,282,0.078,-0.898,-0.46,6.8182002000000015,-3.6096353999999997,1.145916,63.93065363999999,0.89954406,-14.180710500000002
2.8299999999999996,283,0.09,-0.903,-0.455,8.479778399999999,-3.6669312000000014,1.3178034,64.01659734,0.87662574,-14.209358400000001
2.84,284,0.099,-0.9079999999999999,-0.442,10.084060800000001,-3.8961144,1.5469866,64.11972978,0.8479778399999999,-14.232276719999998
2.8499999999999996,285,0.105,-0.909,-0.433,11.8602306,-4.5263682,1.6615782,64.23432138000001,0.83651868,-14.266654199999998
2.86,286,0.10400000000000001,-0.9059999999999999,-0.43,13.750992000000002,-4.583664,1.4896908000000002,64.3718313,0.8078707799999998,-14.30103168
2.8699999999999997,287,0.113,-0.9,-0.406,16.386598799999998,-4.4690724,1.0886202,64.53798911999999,0.7792228800000001,-14.335409159999998
2.88,288,0.11800000000000001,-0.888,-0.39,19.2513888,-4.8128472,0.7448454000000001,64.73852442,0.75630456,-14.37551622
2.8899999999999997,289,0.12,-0.8690000000000001,-0.3720000000000001,22.345361999999998,-4.9847346,0.5156622000000001,64.96197803999999,0.73338624,-14.41562328
2.9,290,0.121,-0.848,-0.361,24.8663772,-5.6149884000000005,0.4583664000000001,65.21407955999999,0.72765666,-14.467189499999998
2.9099999999999997,291,0.12,-0.8270000000000001,-0.35100000000000003,27.3873924,-6.589017,0.6302538000000001,65.49482898,0.69900876,-14.5244853
2.92,292,0.122,-0.8109999999999999,-0.35,29.736520199999998,-7.6776372,1.0313244000000001,65.79849672,0.66463128,-14.58751068
2.9299999999999997,293,0.12300000000000001,-0.79,-0.325,32.142943800000005,-8.7662574,1.5469866,66.12508278,0.61879464,-14.656265639999996
2.94,294,0.127,-0.778,-0.315,33.8618178,-8.9381448,2.0626488000000003,66.46885758,0.5729580000000001,-14.73075018
2.9499999999999997,295,0.133,-0.772,-0.322,35.2942128,-9.396511199999999,2.6929026,66.82409154000001,0.53285094,-14.80523472
2.96,296,0.14,-0.76,-0.302,37.586044799999996,-9.7975818,3.3231564,67.2079734,0.46982556,-14.879719259999998
2.9699999999999998,297,0.14800000000000002,-0.754,-0.29100000000000004,39.9924684,-10.4278356,4.010706000000001,67.61477357999999,0.4010706000000001,-14.954203799999998
2.98,298,0.156,-0.748,-0.26899999999999996,42.2270046,-11.8602306,4.6409598,68.04449208,0.32085648,-15.04587708
2.9899999999999998,299,0.165,-0.746,-0.259,44.0031744,-12.9488508,5.1566220000000005,68.49139932,0.23491278,-15.14327994
3.0,300,0.171,-0.74,-0.242,44.690723999999996,-14.32395,5.5576926,68.94976572,0.14896908,-15.25214196
3.01,301,0.172,-0.721,-0.218,45.4928652,-14.8396122,5.72958,69.41386170000001,0.057295800000000015,-15.36673356
3.02,302,0.17300000000000001,-0.705,-0.213,45.550160999999996,-15.011499599999999,5.6722842,69.87795768,-0.03437748,-15.48705474
3.03,303,0.179,-0.6990000000000001,-0.23199999999999998,45.7793442,-16.1001198,5.5003968,70.34778324,-0.13178034,-15.6131055
3.04,304,0.18100000000000002,-0.69,-0.213,46.5241896,-18.162768600000003,5.5576926,70.82333838000002,-0.23491278,-15.762074579999998
3.05,305,0.17600000000000002,-0.6759999999999999,-0.193,46.638781200000004,-20.2254174,5.5576926,71.29889352000002,-0.33231564,-15.93396198
3.06,306,0.174,-0.6709999999999999,-0.19399999999999998,46.638781200000004,-21.371333399999997,5.3858052,71.78017824,-0.43544808,-16.117308540000003
3.07,307,0.17300000000000001,-0.677,-0.19,46.2377106,-22.86102420000001,5.2139178,72.25000379999999,-0.5443101,-16.312114259999998
3.08,308,0.17300000000000001,-0.6779999999999999,-0.2,45.2063862,-23.892348600000002,4.9274388,72.71409978,-0.65317212,-16.524108719999994
3.09,309,0.175,-0.6809999999999999,-0.203,44.2323576,-25.210151999999997,4.7555514,73.17246618,-0.75630456,-16.747562339999998
3.0999999999999996,310,0.177,-0.679,-0.179,43.77399120000001,-26.814434400000003,4.583664,73.625103,-0.8537074199999999,-16.98247512
3.11,311,0.179,-0.6779999999999999,-0.17800000000000002,42.7999626,-27.043617600000005,4.010706000000001,74.06628065999998,-0.95683986,-17.22884706
3.1199999999999997,312,0.185,-0.6859999999999999,-0.195,41.6540466,-27.960350399999996,3.7242269999999995,74.49599916000003,-1.05424272,-17.48094858
3.13,313,0.19399999999999998,-0.693,-0.196,40.04976420000001,-30.5386614,3.4950437999999995,74.91425849999997,-1.1573751600000002,-17.761698000000006
3.1399999999999997,314,0.19899999999999998,-0.6970000000000001,-0.18899999999999997,37.872523799999996,-34.950438,3.6096353999999997,75.30959952,-1.26623718,-18.08828406
3.15,315,0.20600000000000002,-0.705,-0.179,36.7839036,-38.159002799999996,2.9793816000000004,75.69348138000002,-1.3579104599999998,-18.44351802
3.1599999999999997,316,0.212,-0.72,-0.17600000000000002,35.5806918,-39.3622146,2.0053530000000004,76.07163366,-1.4610428999999998,-18.81594072
3.17,317,0.21600000000000005,-0.73,-0.161,33.9191136,-40.680018,0.8021411999999999,76.4325972,-1.5469866,-19.20555216
3.1799999999999997,318,0.21899999999999997,-0.7340000000000001,-0.149,31.856464799999998,-42.1697088,-0.2291832000000001,76.77064241999999,-1.6272007199999998,-19.61235234
3.19,319,0.231,-0.753,-0.17,29.621928600000004,-42.742666799999995,-0.8021411999999999,77.0914989,-1.70168526,-20.024882100000006
3.1999999999999997,320,0.24,-0.77,-0.18,27.215505,-43.9458786,-0.9740286,77.38370748,-1.75325148,-20.454600600000006
3.21,321,0.235,-0.779,-0.172,23.777757,-48.4722468,-1.6042823999999998,77.64726816,-1.82773602,-20.924426160000003
3.2199999999999998,322,0.226,-0.765,-0.171,21.371333399999997,-52.425657,-2.6356068,77.88791051999998,-1.89649098,-21.44008836
3.23,323,0.223,-0.759,-0.163,19.365980399999998,-55.80610920000001,-4.0680017999999984,78.11136413999998,-1.95378678,-21.99012804
3.2399999999999998,324,0.22399999999999998,-0.75,-0.161,18.1054728,-58.5563076,-5.6149884000000005,78.32335859999998,-1.99962342,-22.56881562
3.25,325,0.237,-0.754,-0.16,16.902261,-61.07732280000001,-7.2765666,78.52389389999998,-2.01108258,-23.176151100000002
3.26,326,0.225,-0.7490000000000001,-0.165,14.5531332,-63.1972674,-8.880849000000003,78.70151088,-2.02827132,-23.8064049
3.27,327,0.213,-0.737,-0.175,12.2040054,-64.3431834,-10.886202,78.85620954,-2.02827132,-24.45384744
3.28,328,0.212,-0.736,-0.16699999999999998,11.2299768,-63.9994086,-13.2926256,78.99944904,-2.005353,-25.10701956
3.29,329,0.23,-0.752,-0.146,8.8235532,-63.4264506,-16.272007199999994,79.11977021999998,-1.94232762,-25.7544621
3.3,330,0.22899999999999998,-0.7559999999999999,-0.128,7.333862400000001,-62.16594300000001,-18.162768600000003,79.22290266,-1.85065434,-26.39044548
3.31,331,0.231,-0.76,-0.131,6.0733548,-61.764872399999994,-19.9389384,79.31457594,-1.75325148,-27.03215844
3.32,332,0.233,-0.762,-0.135,5.1566220000000005,-62.3951262,-20.5691922,79.39479005999998,-1.64438946,-27.679600980000004
3.33,333,0.213,-0.763,-0.131,2.2345362,-66.4058322,-21.371333399999997,79.44635628,-1.5412570200000002,-28.36715058
3.34,334,0.203,-0.7559999999999999,-0.136,1.4896908000000002,-69.900876,-22.86102420000001,79.49219292000002,-1.42666542,-29.08907766
3.3499999999999996,335,0.196,-0.747,-0.121,1.7761698000000001,-71.1040878,-25.152856200000002,79.53229998,-1.27769634,-29.828193480000003
3.36,336,0.193,-0.7340000000000001,-0.12300000000000001,0.6875496,-71.1613836,-27.8457588,79.56667746000002,-1.11153852,-30.57303888
3.3699999999999997,337,0.19399999999999998,-0.716,-0.138,-0.3437748,-70.4165382,-31.111619399999995,79.5838662,-0.9167328,-31.31788428
3.38,338,0.19699999999999998,-0.69,-0.14400000000000002,0.057295800000000015,-69.4998054,-33.9764094,79.60678451999998,-0.6875496,-32.0570001
3.3899999999999997,339,0.21100000000000002,-0.6579999999999999,-0.12,1.432395,-67.2079734,-36.38283300000001,79.63543242,-0.4297185000000001,-32.77892718
3.4,340,0.223,-0.636,-0.087,2.9793816000000004,-65.4318036,-38.7892566,79.67553948,-0.13750992,-33.48366552
3.4099999999999997,341,0.212,-0.642,-0.09,3.9534102,-64.17129600000001,-41.0810886,79.72710570000002,0.16042824,-34.18267428
3.42,342,0.212,-0.632,-0.10800000000000001,2.86479,-62.738901,-42.456187799999995,79.76148318,0.48128472,-34.870223880000005
3.4299999999999997,343,0.204,-0.607,-0.107,1.145916,-63.770225399999994,-42.742666799999995,79.77294234,0.8078707799999998,-35.56923264
3.44,344,0.221,-0.619,-0.107,-0.40107059999999994,-64.11400019999999,-41.4821592,79.76148318,1.1172681,-36.2682414
3.4499999999999997,345,0.19699999999999998,-0.615,-0.132,0.286479,-61.994055599999996,-38.67466500000001,79.75575359999998,1.40947668,-36.93860226
3.46,346,0.237,-0.606,-0.157,1.0313244000000001,-63.88481700000001,-34.37748,79.75575359999998,1.6558486199999998,-37.62615186
3.4699999999999998,347,0.249,-0.583,-0.153,2.86479,-66.9214944,-30.252182399999995,79.77294234,1.85065434,-38.330890200000006
3.48,348,0.252,-0.5670000000000001,-0.111,5.6149884000000005,-67.036086,-25.668518399999996,79.81304940000003,2.005353,-39.02989896
3.4899999999999998,349,0.278,-0.491,-0.073,6.6463128000000005,-65.4318036,-20.5691922,79.86461562,2.10848544,-39.7059894
3.5,350,0.285,-0.45399999999999996,-0.062,11.2299768,-60.9054354,-15.5844576,79.96201848,2.18869956,-40.33051362
3.51,351,0.276,-0.447,-0.084,14.896907999999998,-57.2958,-9.453807,80.09952840000003,2.20015872,-40.90347162
3.52,352,0.145,-0.48,-0.040999999999999995,15.4125702,-55.00396800000001,-4.583664,80.2427679,2.1657812400000003,-41.44778172
3.53,353,0.10400000000000001,-0.391,-0.051,-1.2032118,-53.68616460000001,2.9793816000000004,80.21984957999999,2.0626488000000003,-41.9691735
3.54,354,0.047,-0.36,-0.006999999999999999,-2.3491277999999998,-51.5089242,11.802934800000001,80.18547209999998,1.87357266,-42.4561878
3.55,355,0.001,-0.33299999999999996,0.015,-3.4950437999999995,-45.893935799999994,19.2513888,80.14536504,1.62147114,-42.87444714
3.56,356,-0.049,-0.295,0.027999999999999997,-4.7555514,-38.67466500000001,26.69984280000001,80.09952840000003,1.30061466,-43.20676278000001
3.57,357,-0.055999999999999994,-0.249,0.017,-4.4117766,-26.642546999999997,34.4920716,80.05369175999998,0.92819196,-43.40729808
3.58,358,-0.017,-0.231,-0.03,-3.380452200000001,-14.8396122,43.029145799999995,80.01931427999997,0.48128472,-43.48178262
3.59,359,0.043,-0.218,-0.1,-4.0680017999999984,-7.8495246,52.54024860000001,79.97920722,-0.04010706,-43.47032346
3.5999999999999996,360,0.11699999999999999,-0.21100000000000002,-0.133,-2.86479,-5.443101,63.311859,79.94482974,-0.6589017,-43.41875724000001
3.61,361,0.18600000000000005,-0.263,-0.175,-0.8021411999999999,-2.86479,75.4012728,79.93910016,-1.39801752,-43.3156248
3.6199999999999997,362,0.223,-0.369,-0.243,-3.0939732,-0.9167328000000001,86.45936219999999,79.89899310000001,-2.24599536,-43.17811488
3.63,363,0.222,-0.499,-0.32299999999999995,-5.958763200000001,-6.0733548,98.6060718,79.83596772,-3.22002396,-43.06925286
3.6399999999999997,364,0.161,-0.5720000000000001,-0.395,-7.161975,-11.6310474,111.78410579999999,79.76148318,-4.3315624800000005,-42.98903874
3.65,365,0.066,-0.617,-0.396,-7.3911582,-13.3499214,124.904844,79.66980989999998,-5.56915176,-42.90309504
3.6599999999999997,366,-0.009000000000000001,-0.63,-0.47200000000000003,-11.5164558,-19.8816426,137.3380326,79.55521829999998,-6.94425096,-42.8572584
3.67,367,-0.064,-0.581,-0.5579999999999999,-12.2040054,-25.0382646,147.3075018,79.43489712,-8.422482599999999,-42.84006966
3.6799999999999997,368,-0.172,-0.48200000000000004,-0.632,-8.9954406,-32.830493399999995,153.15167340000005,79.354683,-9.969469199999999,-42.885906299999995
3.69,369,-0.305,-0.42,-0.65,-3.2658606,-45.0917946,154.6413642,79.36614216000002,-11.55083328,-43.05206412
3.6999999999999997,370,-0.374,-0.4,-0.6609999999999999,-2.86479,-53.11320660000001,154.69866000000005,79.37760132,-13.1493861,-43.29270648
3.71,371,-0.415,-0.441,-0.65,1.7761698000000001,-59.35844880000001,155.6726886,79.48073375999998,-14.76512766,-43.602103799999995
3.7199999999999998,372,-0.364,-0.5670000000000001,-0.48,12.261301199999998,-63.5410422,155.7299844,79.70991696000002,-16.38086922,-43.95733776
3.73,373,-0.33399999999999996,-0.715,-0.499,14.209358400000001,-60.6189564,158.709366,79.96774806,-18.019529100000003,-44.28965340000001
3.7399999999999998,374,-0.40700000000000003,-0.946,-0.5539999999999999,17.7044022,-56.5509546,160.42824,80.25422705999998,-19.66964814,-44.59332114
3.75,375,-0.509,-1.188,-0.619,20.454600600000006,-61.36380179999999,163.579509,80.59227228,-21.35414466,-44.94282552
3.76,376,-0.73,-1.5430000000000001,-0.705,21.2567418,-69.9581718,170.455005,80.98761329999998,-23.11312572,-45.39546234
3.77,377,-0.99,-1.902,-0.6729999999999999,26.4706596,-82.2767688,183.9768138,81.50900508000002,-25.02107586,-45.979879499999996
3.78,378,-1.281,-2.189,-0.584,35.0650296,-87.7198698,199.102905,82.16790678,-27.072265500000004,-46.62732204
3.79,379,-1.67,-2.4930000000000003,-0.33,47.9565846,-88.5793068,211.421502,82.98723672,-29.23804674,-47.30914206
3.8,380,-2.219,-2.9330000000000003,-0.087,59.93140680000001,-84.2821218,217.09378619999998,83.95553574,-31.44966462,-47.9852325
3.81,381,-2.7539999999999996,-3.3339999999999996,-0.017,61.07732280000001,-72.4218912,215.83327859999997,84.91237559999998,-33.626905019999995,-48.58683840000001
3.82,382,-3.032,-3.2710000000000004,0.423,59.7595194,-59.93140680000001,214.2289962,85.81764924000002,-35.77549752,-49.09677102000001
3.83,383,-2.479,-2.506,1.235,56.66554620000001,-33.116972399999995,215.2030248,86.53957632,-37.91263086,-49.32595422
3.84,384,-1.5759999999999998,-1.5659999999999998,1.482,40.8519054,-4.010706000000001,216.005166,86.89481028,-40.05549378,-49.22282178
3.8499999999999996,385,-1.139,-0.8690000000000001,1.045,21.657812399999997,22.9756158,224.886015,86.82032574,-42.27857082,-48.77018496
3.86,386,-1.4280000000000002,-0.6509999999999999,0.8690000000000001,37.1849742,49.274388,230.2145244,86.61406086000002,-44.54175492,-47.92220712
3.8699999999999997,387,-1.48,-0.8759999999999999,0.863,27.960350399999996,84.56860079999998,222.6514788,85.89213378,-46.71899532,-46.52418959999999
3.88,388,-1.354,-0.47200000000000003,0.555,-49.9619376,110.5235982,239.2672608,83.94980616,-49.02228648,-44.604780299999994
3.8899999999999997,389,-1.07,0.377,0.5579999999999999,-34.7212548,77.5785132,277.2543762,82.28822796,-51.686541180000006,-42.90882462
3.9,390,-1.137,0.38,0.495,41.1383844,38.445481799999996,288.8281278,81.68089248,-54.49403537999999,-41.61966912000001
3.9099999999999997,391,-1.368,-0.17600000000000002,0.20600000000000002,73.45321560000002,13.6936962,271.1237256,81.65224458,-57.13537176,-40.68574758
3.92,392,-1.338,-0.664,-0.034,45.4355694,19.136797199999997,241.78827599999997,81.23971482,-59.48449956,-39.65442318
3.9299999999999997,393,-1.119,-0.32299999999999995,-0.18100000000000002,19.8243468,55.00396800000001,237.89216159999998,79.79586065999997,-61.73622450000001,-37.76939136
3.94,394,-0.919,-0.10099999999999999,-0.005,58.9000824,68.182002,247.3459686,78.17438952,-64.03378608,-35.28275364
3.9499999999999997,395,-0.7829999999999999,-0.11599999999999999,0.023,79.9849368,68.1247062,256.3414092,76.33519434,-66.38291388,-32.36639742
3.96,396,-0.621,-0.28800000000000003,0.054000000000000006,74.02617359999998,63.5410422,256.112226,74.02617359999998,-68.69193462000001,-29.06615934
3.9699999999999998,397,-0.733,-0.384,0.17300000000000001,51.33703679999999,49.90464179999999,246.88760219999998,71.27597519999998,-70.89209334,-25.5825747
3.98,398,-0.851,-0.43,0.131,13.750992000000002,18.7357266,238.1786406,68.39399646,-73.05787458,-22.39692822
3.9899999999999998,399,-1.023,-0.309,-0.03,-13.0061466,1.3750992,238.1786406,64.9447893,-75.2293854,-18.94772106
4.0,400,-1.063,-0.16399999999999998,-0.24,-4.4690724,-2.3491277999999998,243.793629,60.43560984,-77.39516663999999,-14.3525979
4.01,401,-1.216,0.047,-0.366,4.3544808,11.2299768,252.7317738,53.35384895999999,-79.44635628,-7.076031300000001
4.02,402,-1.409,0.265,-0.259,-1.432395,19.079501399999998,257.14355040000004,42.4561878,-81.22825566,3.95913978
4.03,403,-1.653,0.294,-0.083,-2.0053530000000004,6.8182002000000015,248.31999720000002,27.94316166,-82.61481402000003,18.59821668
4.04,404,-1.614,0.358,0.052000000000000005,0.3437748,-25.2674478,231.99069419999998,10.61691174,-83.62322009999998,36.05624694
4.05,405,-1.484,0.415,0.073,5.2712136,-54.3164184,210.562065,-8.857930679999997,-84.20763725999998,55.71443592000001
4.06,406,-1.535,0.6,0.095,13.521808800000002,-72.9948492,182.3725314,-28.02337578,-84.33368802,75.12052338000002
4.07,407,-1.405,0.654,-0.026000000000000002,20.626488000000002,-76.31800559999998,151.49009519999996,-44.03755188,-84.07012734,91.4440968
4.08,408,-1.382,0.591,-0.121,44.2323576,-68.52577679999999,117.45638999999998,-55.25606952,-83.63467926,103.18973580000002
4.09,409,-1.3769999999999998,0.664,-0.095,54.20182679999999,-60.2178858,85.9437,-62.82484469999999,-83.2221495,111.37157604
4.1,410,-1.298,0.672,-0.152,65.603691,-62.0513514,63.25456320000001,-68.76641916,-82.90702259999998,118.03507757999998
4.109999999999999,411,-1.2770000000000001,0.631,-0.157,80.95896540000003,-57.754166399999995,36.7266078,-73.05787458,-82.76951268,123.20315874
4.12,412,-1.21,0.6509999999999999,-0.062,91.5586884,-45.607456799999994,15.928232399999999,-75.76223634,-82.75232394,126.87008994
4.13,413,-1.058,0.5670000000000001,-0.054000000000000006,90.2981808,-39.4195104,3.0939732,-77.78477808,-82.82680848,129.83801238
4.14,414,-0.9229999999999999,0.45899999999999996,-0.069,87.4333908,-37.013086799999996,-6.0733548,-79.57240704,-82.97577756,132.53664456
4.1499999999999995,415,-0.8059999999999999,0.373,-0.073,92.3608296,-35.0077338,-12.261301199999998,-81.14804154,-83.15339454,135.07484849999997
4.16,416,-0.667,0.24600000000000002,-0.08,97.5747474,-31.913760600000003,-19.7097552,-82.45438578,-83.41122564,137.38959882
4.17,417,-0.67,0.255,-0.094,88.2928278,-25.210151999999997,-27.960350399999996,-83.33101152,-83.72635254,139.17722778
4.18,418,-0.691,0.307,-0.087,76.9482594,-15.3552744,-31.79916900000001,-83.52581724,-84.07012734,140.15698596
4.1899999999999995,419,-0.745,0.379,-0.111,66.9214944,-4.7555514,-30.8251404,-82.86118596,-84.38525424,140.1741747
4.2,420,-0.7859999999999999,0.441,-0.109,65.3745078,-1.145916,-28.0176462,-81.80694324,-84.63735576,139.77883368
4.21,421,-0.847,0.503,-0.066,70.18735500000001,-1.3178034,-26.1841806,-80.70113429999998,-84.90091644,139.38922224
4.22,422,-0.8690000000000001,0.531,-0.043,74.59913159999998,2.4637194,-25.0955604,-79.05101526000001,-85.1415588,138.48967818
4.2299999999999995,423,-0.879,0.534,-0.033,79.641162,8.3651868,-26.642546999999997,-76.46124510000001,-85.38793074,136.70204922
4.24,424,-0.883,0.46799999999999997,0.0,83.9956428,13.636400400000001,-30.3094782,-72.79431389999998,-85.64003226,133.8716367
4.25,425,-0.878,0.354,-0.002,82.1048814,19.308684600000007,-34.262888399999994,-67.91271173999999,-85.8864042,129.81509406
4.26,426,-0.861,0.221,-0.032,78.49524600000002,25.382039399999996,-36.2109456,-61.55860752,-86.09839866,124.23448314
4.27,427,-0.8440000000000001,0.08800000000000001,-0.054000000000000006,75.00020219999998,33.6899304,-37.3568616,-53.53719552,-86.22444942,116.95791654
4.28,428,-0.8420000000000001,-0.048,-0.061,67.49445240000001,42.97185,-37.41415739999999,-44.26673508,-86.21299026,108.34635779999999
4.29,429,-0.835,-0.14,-0.099,55.86340500000001,50.305712400000004,-35.7525792,-34.99627464,-86.04683244,99.61447788
4.3,430,-0.8490000000000001,-0.18100000000000002,-0.106,49.7327544,47.841993,-32.945085,-27.02642886,-85.80619008000002,92.12591682
4.31,431,-0.894,-0.188,-0.031,45.3209778,42.34159620000001,-29.5646328,-20.84994162,-85.53117024000002,86.38487766
4.32,432,-0.9179999999999999,-0.14400000000000002,-0.046,35.0077338,37.7006364,-24.694489800000003,-16.208981819999998,-85.25042082,82.08196308000002
4.33,433,-0.93,-0.08900000000000001,-0.062,27.043617600000005,32.658606,-20.7983754,-12.71393802,-84.98113056000003,78.84475038
4.34,434,-0.9490000000000001,-0.006999999999999999,-0.084,22.803728399999997,28.418716800000002,-19.365980399999998,-9.83195928,-84.74048819999999,76.18049568
4.35,435,-0.968,0.02,-0.114,24.522602399999997,25.668518399999996,-19.136797199999997,-7.2479187000000005,-84.51130500000002,73.83136787999999
4.36,436,-0.992,0.027000000000000003,-0.125,23.605869600000002,25.7258142,-19.4232762,-4.83003594,-84.27066264,71.63693874
4.37,437,-1.026,0.036000000000000004,-0.13699999999999998,22.345361999999998,25.55392680000001,-19.5378678,-2.6012293200000003,-84.03002028,69.62012658
4.38,438,-1.069,0.038,-0.11699999999999999,24.5798982,23.3766864,-20.2827132,-0.44690724,-83.80083708,67.70071728
4.39,439,-1.094,0.004,-0.136,20.626488000000002,22.0015872,-20.7983754,1.56417534,-83.57738346,65.87871084
4.3999999999999995,440,-1.103,0.004,-0.18600000000000005,14.037471,20.7410796,-19.079501399999998,3.214294380000001,-83.35392984,64.36037214000001
4.41,441,-1.09,0.008,-0.184,14.4958374,19.308684600000007,-17.761698000000006,4.703985179999999,-83.14766496,63.00819126
4.42,442,-1.074,-0.016,-0.153,13.9228794,21.199446,-17.9908812,6.1020027,-82.92421134,61.74195407999999
4.43,443,-1.038,-0.059000000000000004,-0.187,7.9641161999999985,22.4026578,-17.18874,7.270837019999999,-82.68356897999998,60.63614514
4.4399999999999995,444,-0.9670000000000001,-0.076,-0.287,2.4064236,20.168121600000006,-15.6417534,8.22767688,-82.46011536,59.69649402
4.45,445,-0.903,-0.057999999999999996,-0.324,5.9014674000000005,15.928232399999999,-15.813640800000002,9.24754212,-82.24239132,58.722465420000006
4.46,446,-0.8440000000000001,-0.063,-0.29600000000000004,10.3705398,8.8235532,-16.272007199999994,10.38772854,-82.12779972,57.67395228
4.47,447,-0.828,-0.063,-0.223,14.4958374,0.5156622000000001,-15.5844576,11.631047399999998,-82.09342224,56.56814333999999
4.4799999999999995,448,-0.823,-0.102,-0.20800000000000002,11.5737516,-6.8182002000000015,-14.1520626,12.8629071,-82.12779972,55.44514566
4.49,449,-0.835,-0.11800000000000001,-0.213,7.448453999999999,-13.521808800000002,-12.0894138,14.04893016,-82.22520258,54.32787755999999
4.5,450,-0.857,-0.12,-0.19899999999999998,2.291832,-17.3606274,-10.4278356,15.25787154,-82.33979418,53.13612492
4.51,451,-0.893,-0.111,-0.17800000000000002,-0.8021411999999999,-19.652459399999998,-9.6256944,16.38086922,-82.50022242,51.9959385
4.52,452,-0.9259999999999999,-0.121,-0.146,-2.9793816000000004,-20.168121600000006,-9.167328,17.50959648,-82.66065066,50.827104180000006
4.53,453,-0.946,-0.127,-0.141,-5.72958,-19.5378678,-8.136003599999999,18.5638392,-82.81534932000002,49.70410650000001
4.54,454,-0.9520000000000001,-0.127,-0.149,-8.7662574,-19.4232762,-6.7609043999999985,19.53213822,-82.97577756,48.6441342
4.55,455,-0.958,-0.114,-0.132,-10.7716104,-19.9389384,-5.7868758000000025,20.55200346,-83.1362058,47.50967736
4.56,456,-0.963,-0.09,-0.11800000000000001,-11.2299768,-19.595163600000006,-5.0993262,21.46300668,-83.29663404,46.48408254
4.57,457,-0.968,-0.077,-0.11599999999999999,-9.8548776,-20.5691922,-4.4117766,22.41411696,-83.46852143999998,45.42411024
4.58,458,-0.97,-0.077,-0.114,-9.453807,-20.5118964,-3.6096353999999997,23.35949766,-83.64040884,44.38132668
4.59,459,-0.968,-0.07200000000000001,-0.122,-9.7975818,-19.9962342,-2.4637194,24.236123400000004,-83.80656666,43.401568499999996
4.6,460,-0.977,-0.07200000000000001,-0.122,-9.8548776,-19.7097552,-1.2605076000000002,25.07264208,-83.97272448,42.46191738
4.61,461,-0.9890000000000001,-0.078,-0.109,-9.8548776,-19.595163600000006,0.057295800000000015,25.8117579,-84.14461188,41.61966912000001
4.62,462,-1.0070000000000001,-0.08,-0.1,-10.943497800000001,-20.05353,2.1772404,26.41909338,-84.33368802,40.90347162
4.63,463,-1.026,-0.078,-0.09699999999999999,-11.745639,-21.142150199999996,4.297185,26.91756684,-84.53422332,40.27894740000001
4.64,464,-1.044,-0.066,-0.096,-12.032118,-21.829699800000004,6.3025379999999975,27.31290786000001,-84.75767694,39.7632852
4.6499999999999995,465,-1.056,-0.055999999999999994,-0.08800000000000001,-12.834259199999998,-22.0015872,7.5057497999999985,27.62230518,-84.98113056000003,39.32783712
4.66,466,-1.061,-0.038,-0.08,-13.6936962,-21.371333399999997,8.021412000000002,27.86867712,-85.20458418000003,38.94395526
4.67,467,-1.057,-0.024,-0.07400000000000001,-13.8655836,-19.8243468,8.193299399999999,28.02910536,-85.41657864,38.6460171
4.68,468,-1.046,-0.015,-0.07400000000000001,-13.0634424,-18.793022399999998,8.4224826,28.120778640000005,-85.61711394,38.4168339
4.6899999999999995,469,-1.033,-0.009000000000000001,-0.055999999999999994,-12.318597,-18.506543399999998,8.880849000000003,28.17234486,-85.82337881999999,38.24494650000001
4.7,470,-1.022,0.004,-0.047,-11.9748222,-18.048177,9.1100322,28.06348284,-86.02391412,38.23348734
4.71,471,-1.014,0.017,-0.05,-8.3651868,-16.959556799999998,8.880849000000003,28.05202368,-86.21299026,38.16473238
4.72,472,-1.004,0.016,-0.057,-5.3285094000000015,-15.011499599999999,8.250595200000001,28.01191662,-86.38487766,38.14754364
4.7299999999999995,473,-1.004,0.037000000000000005,-0.062,-1.6042823999999998,-13.6936962,6.9327918,28.10358990000001,-86.53384674,38.0444112
4.74,474,-1.003,0.04,-0.037000000000000005,1.3178034,-14.32395,5.6149884000000005,28.48174218,-86.68281582,37.68344766
4.75,475,-0.992,0.044000000000000004,-0.03,2.0626488000000003,-15.183387000000002,4.5263682,28.791139500000003,-86.84897364,37.39123908
4.76,476,-0.9840000000000001,0.044000000000000004,-0.027999999999999997,3.2658606,-15.4125702,3.1512689999999997,29.77089768,-86.99794272,36.44585838
4.77,477,-0.9840000000000001,0.035,-0.031,4.1825934,-15.469866,1.5469866,31.1402673,-87.13545264000004,35.11659582
4.78,478,-0.995,0.024,-0.027999999999999997,4.8701430000000006,-14.896907999999998,0.11459160000000004,32.836222979999995,-87.25577381999999,33.472206359999994
4.79,479,-1.005,0.013000000000000001,-0.022000000000000002,5.5576926,-13.750992000000002,-0.9740286,34.75563228,-87.36463583999998,31.61582244
4.8,480,-1.016,0.001,-0.008,6.3025379999999975,-12.4904844,-1.7188740000000002,36.74379654,-87.46203870000002,29.68495398
4.81,481,-1.024,-0.008,-0.001,6.6463128000000005,-11.0580894,-1.7188740000000002,38.72050164,-87.53652324,27.77700384
4.82,482,-1.0270000000000001,-0.016,-0.008,6.3025379999999975,-10.4278356,-1.4896908000000002,40.66282926,-87.59954862,25.8977016
4.83,483,-1.028,-0.016,-0.008,6.2452422,-9.6256944,-0.9740286,42.48483570000001,-87.66257399999998,24.13872054
4.84,484,-1.03,-0.013000000000000001,-0.004,6.5317212,-9.1100322,-0.5156622000000001,44.23808718,-87.72559937999998,22.45422402
4.85,485,-1.031,-0.011000000000000001,0.0,6.9327918,-9.224623800000002,-0.40107059999999994,46.10593026,-87.79435434000001,20.66086548
4.86,486,-1.032,-0.01,0.0,6.8182002000000015,-9.224623800000002,-0.5156622000000001,48.08263536,-87.85165014,18.75291534
4.87,487,-1.033,0.002,0.003,7.5057497999999985,-8.4224826,-0.9740286,50.05934046,-87.8917572,16.850694779999998
4.88,488,-1.0270000000000001,0.0,0.009000000000000001,8.4224826,-6.1879464,-1.7188740000000002,51.76675529999999,-87.91467551999996,15.22922364
4.89,489,-1.018,-0.003,0.0,8.078707799999998,-4.1252976000000015,-2.1199446,53.10174744000001,-87.92040510000002,13.97444562
4.8999999999999995,490,-1.014,-0.005,-0.011000000000000001,8.250595200000001,-3.5523396000000003,-2.5210152000000003,54.22474512,-87.92613467999998,12.93166206
4.91,491,-1.013,-0.016,-0.016,8.4224826,-3.4377480000000005,-2.5783110000000002,55.49098230000001,-87.92613467999998,11.75136858
4.92,492,-1.016,-0.021,-0.018000000000000002,8.307891,-3.7815228,-2.8074942000000003,56.87181108,-87.92040510000002,10.4564835
4.93,493,-1.0270000000000001,-0.026000000000000002,-0.02,8.136003599999999,-4.3544808,-2.9220858,58.40733852000001,-87.91467551999996,9.00689976
4.9399999999999995,494,-1.043,-0.028999999999999998,-0.027000000000000003,8.021412000000002,-4.9274388,-3.4377480000000005,60.13767168,-87.90894594,7.3567807200000015
4.95,495,-1.041,-0.037000000000000005,-0.001,7.5630456000000015,-4.6409598,-3.8961144,62.11437678,-87.89748678,5.46028974
4.96,496,-1.036,-0.036000000000000004,0.011000000000000001,3.6669312000000014,-3.4950437999999995,-3.4377480000000005,63.42072102000001,-87.88029803999999,4.1883229800000015
4.97,497,-1.012,-0.025,0.015,0.9740286,-1.2032118,-3.6096353999999997,64.15983684,-87.85165014,3.46066632
4.9799999999999995,498,-0.9840000000000001,-0.025,-0.006,1.3750992,0.40107059999999994,-3.5523396000000003,64.47496373999999,-87.81727266,3.1512689999999997
4.99,499,-0.966,-0.027000000000000003,-0.021,2.7501984,1.2605076000000002,-3.2085647999999996,64.56090744000001,-87.78289518,3.0997027800000003
5.0,500,-0.973,-0.027000000000000003,-0.022000000000000002,3.380452200000001,0.9167328000000001,-3.7242269999999995,64.44058626,-87.75424728,3.25440144
5.01,501,-0.9840000000000001,-0.023,-0.026000000000000002,2.9220858,-0.1718874,-4.9847346,65.04219216,-87.70841064,2.68144344
5.02,502,-0.998,-0.034,-0.026000000000000002,2.3491277999999998,-0.3437748,-5.3285094000000015,65.68963470000001,-87.66257399999998,2.05691922
5.03,503,-1.0070000000000001,-0.027999999999999997,-0.03,0.9167328000000001,0.0,-4.9847346,66.19956732,-87.61673736,1.55844576
5.04,504,-1.011,-0.03,-0.022000000000000002,1.3178034,0.2291832000000001,-4.7555514,66.60063792000001,-87.57090072000004,1.1688343199999998
5.05,505,-1.006,-0.038,-0.023,1.3750992,0.2291832000000001,-4.1252976000000015,66.56053086,-87.52506408,1.22040054
5.06,506,-0.9990000000000001,-0.037000000000000005,-0.012,1.8334656000000005,-0.057295800000000015,-3.380452200000001,66.89857608,-87.49641618000004,0.89954406
5.07,507,-0.992,-0.046,-0.009000000000000001,1.8334656000000005,0.2291832000000001,-2.86479,67.11630012,-87.46776828,0.70473834
5.08,508,-0.988,-0.048,-0.026000000000000002,1.0886202,1.0313244000000001,-2.4637194,67.1220297,-87.43912037999998,0.7104679199999999
5.09,509,-0.99,-0.044000000000000004,-0.037000000000000005,1.0886202,1.3750992,-2.0626488000000003,67.01889725999999,-87.41620206,0.8193299399999999
5.1,510,-0.9940000000000001,-0.043,-0.032,1.432395,1.2032118,-1.6615782,66.15373068,-87.37609499999998,1.6959556799999995
5.11,511,-0.996,-0.047,-0.036000000000000004,1.0313244000000001,0.6302538000000001,-1.0313244000000001,66.1193532,-87.35890626,1.74179232
5.12,512,-0.997,-0.043,-0.038,0.572958,0.0,-0.3437748,66.17091941999999,-87.35890626,1.70168526
5.13,513,-0.995,-0.043,-0.034,0.40107059999999994,-0.3437748,0.0,66.24540396,-87.35890626,1.6272007199999998
5.14,514,-0.997,-0.043,-0.035,0.2291832000000001,-0.057295800000000015,0.11459160000000004,66.25113354,-87.35890626,1.6272007199999998
5.1499999999999995,515,-0.998,-0.044000000000000004,-0.032,0.0,0.11459160000000004,0.286479,63.05402790000001,-87.28442172,4.812847199999998
5.16,516,-1.001,-0.043,-0.034,-0.6875496,0.0,0.5156622000000001,62.98527294,-87.29015129999998,4.87587258
5.17,517,-1.002,-0.040999999999999995,-0.034,-0.9167328000000001,-0.4583664000000001,0.9167328000000001,62.97954336,-87.30161045999998,4.8701430000000006
5.18,518,-1.001,-0.04,-0.035,-1.0313244000000001,-0.6302538000000001,1.145916,62.99100252,-87.31306962,4.85295426
5.1899999999999995,519,-0.9990000000000001,-0.039,-0.032,-1.0886202,-0.3437748,1.2605076000000002,62.92224756,-87.33025836,4.90452048
5.2,520,-0.998,-0.034,-0.032,-1.2605076000000002,-0.057295800000000015,1.3178034,61.8221682,-87.3474471,5.9931406800000016
5.21,521,-0.998,-0.03,-0.024,-1.4896908000000002,0.8594370000000001,0.9740286,61.54141878,-87.35317668,6.25670136
5.22,522,-0.998,-0.026000000000000002,-0.033,-1.7188740000000002,1.5469866,0.7448454000000001,61.14607776,-87.35317668,6.63485364
5.2299999999999995,523,-0.997,-0.024,-0.036000000000000004,-1.3750992,1.5469866,0.4583664000000001,60.78511422,-87.35317668,6.98435802
5.24,524,-0.995,-0.027000000000000003,-0.034,-1.2032118,1.0886202,0.3437748,60.52155354,-87.3474471,7.23645954
5.25,525,-0.996,-0.027999999999999997,-0.028999999999999998,-1.6042823999999998,0.6875496,0.2291832000000001,59.27823468,-87.35890626,8.45686008
5.26,526,-0.993,-0.027000000000000003,-0.031,-2.0053530000000004,0.8594370000000001,0.0,59.09488811999999,-87.35317668,8.623017899999999
5.27,527,-0.99,-0.022000000000000002,-0.028999999999999998,-1.8334656000000005,1.145916,-0.2291832000000001,58.88289365999999,-87.3474471,8.81209404
5.28,528,-0.992,-0.025,-0.028999999999999998,-0.9167328000000001,1.5469866,-0.6302538000000001,58.65944003999999,-87.33025836,9.02981808
5.29,529,-0.9990000000000001,-0.027999999999999997,-0.027000000000000003,-0.6875496,1.8907614,-0.8594370000000001,58.40160894,-87.31306962,9.27619002
5.3,530,-1.002,-0.031,-0.023,-0.5156622000000001,1.8907614,-0.8594370000000001,57.72551850000001,-87.30734004,9.95228046
5.31,531,-1.0070000000000001,-0.031,-0.021,-0.40107059999999994,2.1199446,-0.8021411999999999,57.43330992,-87.29015129999998,10.23875946
5.32,532,-1.011,-0.03,-0.021,-0.3437748,2.6929026,-0.8594370000000001,57.04369848,-87.26723297999996,10.62264132
5.33,533,-1.014,-0.027999999999999997,-0.025,-0.11459160000000004,3.7242269999999995,-0.8594370000000001,56.48219964,-87.24431466,11.18414016
5.34,534,-1.016,-0.025,-0.03,0.057295800000000015,4.4117766,-1.0313244000000001,55.82902752,-87.20993718,11.83731228
5.35,535,-1.014,-0.021,-0.028999999999999998,0.286479,4.5263682,-1.145916,54.76332563999999,-87.19274844,12.903014159999998
5.36,536,-1.0070000000000001,-0.019,-0.028999999999999998,0.6875496,4.010706000000001,-1.2032118,54.24193386,-87.15837096,13.43013552
5.37,537,-0.9990000000000001,-0.019,-0.028999999999999998,1.145916,2.8074942000000003,-1.145916,53.92680696,-87.12972306,13.76245116
5.38,538,-0.9940000000000001,-0.022000000000000002,-0.031,1.7188740000000002,2.0626488000000003,-1.3178034,53.76064914,-87.11253432000002,13.945797720000002
5.39,539,-0.993,-0.025,-0.04,1.7761698000000001,1.8907614,-1.5469866,53.65178712000001,-87.08388642,14.07184848
5.3999999999999995,540,-0.995,-0.028999999999999998,-0.044000000000000004,1.6042823999999998,1.7761698000000001,-1.8334656000000005,53.00434458,-87.05523852,14.73075018
5.41,541,-0.9990000000000001,-0.031,-0.042,1.2032118,1.8907614,-2.1199446,52.9699671,-87.02659062000002,14.7823164
5.42,542,-1.001,-0.028999999999999998,-0.043,1.0313244000000001,2.0053530000000004,-2.3491277999999998,52.9413192,-86.99794272,14.82242346
5.43,543,-1.003,-0.027000000000000003,-0.038,1.4896908000000002,2.0626488000000003,-2.4637194,52.91840088,-86.96356524000002,14.85680094
5.4399999999999995,544,-1.005,-0.032,-0.036000000000000004,1.8907614,1.9480572,-2.5783110000000002,52.92413046,-86.93491734,14.868260099999999
5.45,545,-1.004,-0.033,-0.032,2.0626488000000003,1.8334656000000005,-2.5783110000000002,52.68348810000001,-86.90626943999996,15.131820780000002
5.46,546,-1.002,-0.034,-0.035,2.5210152000000003,1.4896908000000002,-2.4064236,52.74651348,-86.87762153999998,15.091713719999998
5.47,547,-0.998,-0.042,-0.038,3.0366774,1.6042823999999998,-2.4064236,52.80953886,-86.84897364,15.06306582
5.4799999999999995,548,-0.9990000000000001,-0.045,-0.039,2.5783110000000002,2.3491277999999998,-2.3491277999999998,52.740783900000004,-86.81459616,15.1547391
5.49,549,-1.003,-0.044000000000000004,-0.039,2.0626488000000003,3.6669312000000014,-2.4064236,52.49441196,-86.7744891,15.42402936
5.5,550,-1.003,-0.04,-0.043,2.291832,4.6409598,-2.4064236,51.90999480000001,-86.72292288,16.031364840000002
5.51,551,-1.001,-0.04,-0.038,2.9793816000000004,4.583664,-2.1772404,51.5375721,-86.68281582,16.438165020000003
5.52,552,-0.998,-0.040999999999999995,-0.035,2.86479,4.010706000000001,-1.9480572,51.21671562,-86.64270875999998,16.781939819999998
5.53,553,-0.9940000000000001,-0.04,-0.039,2.6929026,2.5210152000000003,-1.7761698000000001,51.09066486,-86.60833127999999,16.93663848
5.54,554,-0.993,-0.044000000000000004,-0.043,2.9793816000000004,1.5469866,-1.6615782,51.09066486,-86.58541296,16.96528638
5.55,555,-0.992,-0.047,-0.047,2.291832,1.0886202,-1.5469866,50.80418586,-86.55103548,17.2746837
5.56,556,-0.992,-0.048,-0.05,1.2032118,1.0886202,-1.3178034,50.80991544000001,-86.53384674,17.280413279999998
5.57,557,-0.9940000000000001,-0.047,-0.052000000000000005,0.286479,1.4896908000000002,-1.145916,50.735430900000004,-86.51665799999998,17.3606274
5.58,558,-0.993,-0.045,-0.051,0.0,1.6615782,-0.9740286,50.62083930000001,-86.49946926,17.475219
5.59,559,-0.9940000000000001,-0.046,-0.051,-0.057295800000000015,1.432395,-0.8594370000000001,50.52343644,-86.48228051999996,17.57262186
5.6,560,-0.995,-0.048,-0.05,-0.3437748,0.9740286,-0.6875496,49.65254028,-86.42498472,18.43778844
5.61,561,-0.9940000000000001,-0.046,-0.053,-0.7448454000000001,0.40107059999999994,-0.4583664000000001,49.64108112,-86.41925513999998,18.43778844
5.62,562,-0.996,-0.045,-0.055,-0.9740286,0.2291832000000001,-0.40107059999999994,49.64108112,-86.41352556000002,18.42632928
5.63,563,-0.995,-0.042,-0.059000000000000004,-0.8594370000000001,0.4583664000000001,-0.5156622000000001,49.62962196,-86.40779597999996,18.43205886
5.64,564,-0.992,-0.040999999999999995,-0.057,-0.6875496,0.6302538000000001,-0.5156622000000001,49.59524448000001,-86.40206640000002,18.45497718
5.6499999999999995,565,-0.99,-0.042,-0.055,-0.4583664000000001,0.4583664000000001,-0.40107059999999994,47.9852325,-86.35050018,20.05925958
5.66,566,-0.99,-0.040999999999999995,-0.049,-0.286479,0.057295800000000015,-0.286479,48.00242124,-86.34477059999998,20.03634126
5.67,567,-0.9940000000000001,-0.043,-0.05,0.0,-0.5156622000000001,-0.1718874,48.08263536,-86.35050018,19.95612714
5.68,568,-0.997,-0.042,-0.048,-0.057295800000000015,-0.6875496,-0.2291832000000001,48.19149738,-86.35050018,19.84153554
5.6899999999999995,569,-0.9990000000000001,-0.042,-0.048,-0.8594370000000001,-0.4583664000000001,-0.2291832000000001,48.2717115,-86.35050018,19.76132142
5.7,570,-1.0,-0.038,-0.044000000000000004,-1.0313244000000001,-0.3437748,-0.1718874,47.45811113999999,-86.36768892,20.55773304
5.71,571,-1.001,-0.037000000000000005,-0.042,-0.8594370000000001,-0.1718874,-0.286479,47.498218200000004,-86.36195934,20.50616682
5.72,572,-1.001,-0.038,-0.037000000000000005,-0.6875496,0.0,-0.3437748,47.53259568,-86.36195934,20.46605976
5.7299999999999995,573,-1.0,-0.038,-0.032,-0.8594370000000001,-0.3437748,-0.286479,47.60135064,-86.36195934,20.39157522
5.74,574,-0.9990000000000001,-0.037000000000000005,-0.02,-1.7761698000000001,-1.8907614,-0.286479,47.841993,-86.37341849999999,20.12801454
5.75,575,-1.004,-0.034,-0.02,-2.9793816000000004,-4.6982555999999995,-0.3437748,48.40349184,-86.41352556000002,19.53213822
5.76,576,-1.0070000000000001,-0.036000000000000004,-0.03,-3.3231564,-6.703608600000001,-0.286479,49.23428094000001,-86.45363262000002,18.67270122
5.77,577,-1.005,-0.034,-0.038,-1.8907614,-6.8182002000000015,-0.1718874,50.09371794,-86.49373968,17.7903459
5.78,578,-1.002,-0.039,-0.040999999999999995,-0.9740286,-5.2712136,-0.286479,50.7927267,-86.52238758000001,17.085607560000003
5.79,579,-0.9990000000000001,-0.042,-0.040999999999999995,-0.8021411999999999,-3.7242269999999995,-0.4583664000000001,51.31984806000001,-86.53957632,16.54702704
5.8,580,-0.998,-0.043,-0.036000000000000004,-1.0313244000000001,-2.86479,-0.5156622000000001,51.52611294,-86.55676506,16.323573420000002
5.81,581,-0.997,-0.042,-0.036000000000000004,-1.145916,-2.7501984,-0.3437748,51.92718354,-86.56822422,15.91104366
5.82,582,-0.9990000000000001,-0.044000000000000004,-0.036000000000000004,-1.145916,-2.6356068,-0.1718874,52.29387666,-86.57968338,15.53289138
5.83,583,-1.0,-0.045,-0.038,-1.2605076000000002,-1.7761698000000001,-0.2291832000000001,52.54597818,-86.59114253999998,15.26360112
5.84,584,-1.001,-0.045,-0.044000000000000004,-1.145916,-0.9167328000000001,-0.057295800000000015,52.67202894,-86.59687212,15.131820780000002
5.85,585,-0.9990000000000001,-0.043,-0.036000000000000004,-0.8021411999999999,-0.9740286,0.11459160000000004,52.41992742,-86.59687212,15.37246314
5.86,586,-0.998,-0.044000000000000004,-0.038,-1.0313244000000001,-1.2032118,0.286479,52.54024860000001,-86.60833127999999,15.240682800000002
5.87,587,-0.992,-0.046,-0.049,-1.145916,-1.3750992,0.5156622000000001,52.66629936,-86.61979044,15.10317288
5.88,588,-0.988,-0.046,-0.047,-0.8021411999999999,-1.6615782,0.572958,52.82672760000001,-86.63697918,14.93128548
5.89,589,-0.99,-0.047,-0.043,-1.0886202,-1.9480572,0.572958,53.0272629,-86.65416791999998,14.7250206
5.8999999999999995,590,-0.992,-0.049,-0.04,-1.8334656000000005,-2.0053530000000004,0.5156622000000001,52.98715583999999,-86.6598975,14.74220934
5.91,591,-0.993,-0.047,-0.038,-2.3491277999999998,-1.9480572,0.572958,53.18196156000001,-86.67135666,14.5244853
5.92,592,-0.993,-0.046,-0.036000000000000004,-2.3491277999999998,-1.6042823999999998,0.7448454000000001,53.30228274000001,-86.68854540000002,14.381245800000002
5.93,593,-0.997,-0.047,-0.04,-2.5210152000000003,-0.7448454000000001,0.8594370000000001,53.30228274000001,-86.70000456,14.35832748
5.9399999999999995,594,-1.001,-0.046,-0.04,-2.5783110000000002,-0.11459160000000004,0.8594370000000001,53.21060946,-86.71146372000004,14.42135286
5.95,595,-1.003,-0.043,-0.039,-2.5210152000000003,-0.057295800000000015,0.8594370000000001,52.68348810000001,-86.71719329999998,14.919826320000002
5.96,596,-1.006,-0.039,-0.037000000000000005,-2.2345362,-0.057295800000000015,0.9740286,52.57462608,-86.72292288,15.00577002
5.97,597,-1.004,-0.036000000000000004,-0.039,-1.9480572,-0.057295800000000015,1.145916,52.44284574000001,-86.73438204,15.12036162
5.9799999999999995,598,-0.998,-0.034,-0.034,-1.3178034,-0.286479,1.2605076000000002,52.33971329999999,-86.7458412,15.206305319999998
5.99,599,-0.996,-0.034,-0.037000000000000005,-0.9167328000000001,-0.6875496,1.2605076000000002,52.28814708,-86.75730036,15.24641238
6.0,600,-0.997,-0.033,-0.040999999999999995,-0.6875496,-1.0886202,1.145916,51.52611294,-86.78021868,15.99698736
6.01,601,-0.998,-0.03,-0.039,-0.1718874,-1.2032118,1.0313244000000001,51.58913832,-86.79740741999998,15.93969156
6.02,602,-0.995,-0.032,-0.040999999999999995,0.0,-1.0313244000000001,0.8594370000000001,51.64070454,-86.80886658,15.888125340000002
6.03,603,-0.997,-0.031,-0.042,0.4583664000000001,-1.0313244000000001,0.8594370000000001,51.70372992,-86.82032574,15.83082954
6.04,604,-0.997,-0.033,-0.036000000000000004,0.9167328000000001,-1.145916,0.6302538000000001,51.81259193999999,-86.83178489999996,15.727697099999999
6.05,605,-1.001,-0.035,-0.036000000000000004,0.9740286,-1.3178034,0.5156622000000001,51.41725092,-86.84897364,16.1287677
6.06,606,-1.003,-0.034,-0.036000000000000004,0.8594370000000001,-1.3178034,0.4583664000000001,51.57194958,-86.8604328,15.985528200000001
6.07,607,-1.002,-0.035,-0.034,0.7448454000000001,-1.0886202,0.1718874,51.71518908,-86.86616238,15.85374786
6.08,608,-1.002,-0.035,-0.037000000000000005,0.572958,-0.572958,0.057295800000000015,51.80113278,-86.87189196,15.76780416
6.09,609,-0.9990000000000001,-0.034,-0.037000000000000005,0.6302538000000001,-0.1718874,-0.057295800000000015,51.84696941999999,-86.87189196,15.73342668
6.1,610,-1.0,-0.033,-0.034,0.7448454000000001,0.11459160000000004,-0.286479,50.706783,-86.87762153999998,16.87934268
6.11,611,-0.9990000000000001,-0.033,-0.036000000000000004,0.6302538000000001,0.3437748,-0.40107059999999994,50.706783,-86.87189196,16.88507226
6.12,612,-0.997,-0.033,-0.035,0.9167328000000001,0.4583664000000001,-0.4583664000000001,50.70105342,-86.86616238,16.902261000000006
6.13,613,-0.996,-0.035,-0.037000000000000005,1.145916,0.3437748,-0.5156622000000001,50.71824216,-86.8604328,16.89080184
6.14,614,-0.9940000000000001,-0.037000000000000005,-0.042,1.3178034,0.2291832000000001,-0.6302538000000001,50.77553796,-86.85470322,16.850694779999998
6.15,615,-0.993,-0.042,-0.042,1.0313244000000001,-0.057295800000000015,-0.6875496,50.0765292,-86.81459616,17.55543312
6.16,616,-0.992,-0.044000000000000004,-0.04,0.6875496,-0.4583664000000001,-0.5156622000000001,50.2197687,-86.81459616,17.42365278
6.17,617,-0.993,-0.045,-0.038,0.11459160000000004,-0.5156622000000001,-0.3437748,50.34008988,-86.81459616,17.303331600000003
6.18,618,-0.997,-0.044000000000000004,-0.039,-0.1718874,-0.8021411999999999,-0.2291832000000001,50.48332938,-86.81459616,17.1600921
6.1899999999999995,619,-1.0,-0.043,-0.040999999999999995,-0.40107059999999994,-1.2605076000000002,-0.11459160000000004,50.67240552,-86.82605532,16.959556799999998
6.2,620,-1.005,-0.043,-0.038,-0.3437748,-1.8907614,0.0,50.58073224,-86.82032574,17.05123008
6.21,621,-1.0070000000000001,-0.045,-0.040999999999999995,-0.5156622000000001,-2.291832,0.057295800000000015,50.89012956,-86.83178489999996,16.736103179999994
6.22,622,-1.003,-0.045,-0.037000000000000005,-0.6875496,-2.0626488000000003,0.1718874,51.15941982,-86.84897364,16.461083340000002
6.2299999999999995,623,-0.9990000000000001,-0.045,-0.036000000000000004,-0.8021411999999999,-1.9480572,0.3437748,51.39433260000001,-86.86616238,16.214711400000002
6.24,624,-0.998,-0.043,-0.038,-0.7448454000000001,-1.9480572,0.6875496,51.59486790000001,-86.88335112,16.00844652
6.25,625,-0.9940000000000001,-0.044000000000000004,-0.037000000000000005,-0.8021411999999999,-2.1199446,0.8021411999999999,51.57767916,-86.88908070000002,16.0141761
6.26,626,-0.992,-0.040999999999999995,-0.037000000000000005,-0.6875496,-2.6356068,1.0313244000000001,51.84696941999999,-86.91199902000002,15.73342668
6.27,627,-0.99,-0.040999999999999995,-0.042,-0.6875496,-3.0939732,1.0313244000000001,52.18501464000001,-86.94064691999998,15.39538146
6.28,628,-0.991,-0.044000000000000004,-0.044000000000000004,-0.8021411999999999,-3.1512689999999997,1.2032118,52.51733028,-86.96929482,15.05160666
6.29,629,-0.991,-0.043,-0.043,-1.3750992,-3.0939732,1.2032118,52.84391634000001,-86.99794272,14.71356144
6.3,630,-0.992,-0.04,-0.04,-1.8334656000000005,-2.7501984,0.9740286,52.86110508,-87.01513145999998,14.67345438
6.31,631,-0.991,-0.039,-0.034,-2.0053530000000004,-2.5210152000000003,1.0313244000000001,53.1132066,-87.03804978000002,14.39843454
6.32,632,-0.991,-0.04,-0.032,-2.0626488000000003,-2.4064236,0.9740286,53.36530812,-87.0609681,14.12914428
6.33,633,-0.9940000000000001,-0.04,-0.027000000000000003,-2.1772404,-2.0626488000000003,1.0886202,53.55438425999999,-87.08388642,13.91714982
6.34,634,-0.993,-0.04,-0.031,-2.5783110000000002,-1.7761698000000001,1.0313244000000001,53.69762376,-87.10107516000002,13.74526242
6.35,635,-0.993,-0.036000000000000004,-0.034,-2.5210152000000003,-1.9480572,1.145916,53.58303216,-87.1182639,13.836935700000002
6.36,636,-0.995,-0.034,-0.031,-2.0053530000000004,-2.0053530000000004,1.0886202,53.76064914,-87.14118221999998,13.636400400000001
6.37,637,-0.998,-0.033,-0.027999999999999997,-1.8907614,-2.0053530000000004,1.0886202,53.94972528000001,-87.16410053999998,13.43013552
6.38,638,-1.0,-0.032,-0.026000000000000002,-1.7188740000000002,-2.1199446,0.9740286,54.16744932,-87.18128928,13.19522274
6.39,639,-1.004,-0.031,-0.022000000000000002,-1.4896908000000002,-2.4637194,0.8594370000000001,54.4596579,-87.20420759999998,12.88582542
6.4,640,-1.006,-0.03,-0.022000000000000002,-1.3178034,-2.6356068,0.9167328000000001,54.57424949999999,-87.2328555,12.75404508
6.41,641,-1.008,-0.031,-0.025,-1.3178034,-2.3491277999999998,0.8021411999999999,54.87791724,-87.25577381999999,12.438918179999998
6.42,642,-1.01,-0.028999999999999998,-0.031,-0.6302538000000001,-1.8334656000000005,0.572958,55.12428918000001,-87.26723297999996,12.186816659999998
6.43,643,-1.01,-0.028999999999999998,-0.025,-0.1718874,-1.3750992,0.2291832000000001,55.33628364,-87.27869214,11.9748222
6.4399999999999995,644,-1.0090000000000001,-0.028999999999999998,-0.026000000000000002,0.0,-1.3178034,0.057295800000000015,55.55973726,-87.28442172,11.75136858
6.45,645,-1.006,-0.028999999999999998,-0.027000000000000003,0.572958,-1.432395,0.057295800000000015,55.23888078,-87.31306962,12.07222506
6.46,646,-1.002,-0.031,-0.023,0.9740286,-1.3750992,0.11459160000000004,55.47952314000001,-87.31879920000002,11.84877144
6.47,647,-1.0,-0.032,-0.027999999999999997,1.0886202,-1.2605076000000002,0.057295800000000015,55.708706340000006,-87.32452878000002,11.62531782
6.4799999999999995,648,-0.9990000000000001,-0.032,-0.025,1.6615782,-1.4896908000000002,0.0,55.99518534,-87.33598794000002,11.35602756
6.49,649,-0.9990000000000001,-0.033,-0.022000000000000002,1.7188740000000002,-1.3750992,-0.057295800000000015,56.28166434,-87.34171752,11.09246688
6.5,650,-1.0,-0.032,-0.023,1.3750992,-1.2032118,-0.1718874,56.16134316,-87.35317668,11.22424722
6.51,651,-1.0,-0.035,-0.02,1.0886202,-1.0313244000000001,-0.2291832000000001,56.39625594,-87.35317668,10.99506402
6.52,652,-0.997,-0.036000000000000004,-0.017,0.7448454000000001,-1.0886202,-0.2291832000000001,56.63116872000001,-87.35890626,10.76588082
6.53,653,-0.998,-0.039,-0.016,0.572958,-1.0313244000000001,-0.11459160000000004,56.84316318,-87.36463583999998,10.55961594
6.54,654,-0.9990000000000001,-0.040999999999999995,-0.019,0.40107059999999994,-0.4583664000000001,-0.1718874,56.95775478,-87.36463583999998,10.4564835
6.55,655,-1.006,-0.040999999999999995,-0.022000000000000002,0.2291832000000001,0.6302538000000001,-0.1718874,56.51657712,-87.34171752,10.89193158
6.56,656,-1.0070000000000001,-0.039,-0.023,0.3437748,1.5469866,-0.057295800000000015,56.25301644,-87.33025836,11.16695142
6.57,657,-1.005,-0.039,-0.025,0.8021411999999999,1.5469866,0.1718874,55.94934870000001,-87.32452878000002,11.47634874
6.58,658,-1.003,-0.04,-0.025,1.0313244000000001,1.2605076000000002,0.40107059999999994,55.67432886,-87.31879920000002,11.76282774
6.59,659,-0.9990000000000001,-0.039,-0.027999999999999997,0.9167328000000001,1.145916,0.6875496,55.38784986,-87.31879920000002,12.05503632
6.6,660,-0.997,-0.037000000000000005,-0.028999999999999998,1.0313244000000001,1.0886202,0.7448454000000001,54.70602984,-87.31306962,12.7483155
6.61,661,-0.996,-0.039,-0.03,1.0886202,1.2032118,0.6875496,54.41382126,-87.31306962,13.051983240000002
6.62,662,-0.992,-0.039,-0.034,0.7448454000000001,0.8594370000000001,0.6875496,54.16744932,-87.31306962,13.30408476
6.63,663,-0.99,-0.038,-0.033,0.4583664000000001,0.4583664000000001,0.7448454000000001,53.98983234,-87.31306962,13.487431320000002
6.64,664,-0.992,-0.038,-0.031,-0.057295800000000015,0.2291832000000001,0.6875496,53.858052,-87.31879920000002,13.624941240000002
6.65,665,-0.995,-0.035,-0.027999999999999997,-0.572958,0.1718874,0.6302538000000001,53.124665760000006,-87.31306962,14.34686832
6.66,666,-0.9990000000000001,-0.035,-0.03,-0.8594370000000001,0.2291832000000001,0.40107059999999994,53.02153331999999,-87.31306962,14.444271179999998
6.67,667,-1.003,-0.033,-0.028999999999999998,-1.145916,0.11459160000000004,0.286479,52.94704878,-87.31879920000002,14.501566980000002
6.68,668,-1.005,-0.031,-0.033,-1.2032118,0.0,0.2291832000000001,52.90121214000001,-87.31879920000002,14.53594446
6.6899999999999995,669,-1.004,-0.03,-0.031,-1.0313244000000001,0.057295800000000015,0.057295800000000015,52.86683466000001,-87.31879920000002,14.558862779999998
6.7,670,-1.0,-0.03,-0.031,-0.9167328000000001,0.057295800000000015,0.057295800000000015,51.32557764000001,-87.31879920000002,16.088660639999997
6.71,671,-0.998,-0.03,-0.028999999999999998,-0.8021411999999999,0.0,-0.057295800000000015,51.33130722,-87.31879920000002,16.071471900000002
6.72,672,-0.997,-0.03,-0.031,-0.6302538000000001,-0.057295800000000015,-0.286479,51.37714386,-87.31879920000002,16.01990568
6.7299999999999995,673,-0.997,-0.031,-0.033,-0.40107059999999994,-0.11459160000000004,-0.5156622000000001,51.47454672,-87.31306962,15.92250282
6.74,674,-0.998,-0.033,-0.031,-0.1718874,-0.1718874,-0.6302538000000001,51.59486790000001,-87.30734004,15.796452060000002
6.75,675,-0.9990000000000001,-0.036000000000000004,-0.028999999999999998,-0.2291832000000001,0.057295800000000015,-0.6875496,51.15369024,-87.27869214,16.23190014
6.76,676,-1.0,-0.04,-0.028999999999999998,-0.5156622000000001,0.2291832000000001,-0.6302538000000001,51.18806772,-87.27296256,16.197522659999994
6.77,677,-0.998,-0.043,-0.031,-0.8021411999999999,0.5156622000000001,-0.4583664000000001,51.15369024,-87.26150340000002,16.22044098
6.78,678,-0.995,-0.044000000000000004,-0.03,-0.9740286,0.4583664000000001,-0.1718874,51.09066486,-87.26150340000002,16.27773678
6.79,679,-0.996,-0.043,-0.027999999999999997,-1.2032118,0.5156622000000001,0.0,50.98753242,-87.25577381999999,16.36368048
6.8,680,-1.002,-0.039,-0.027999999999999997,-1.432395,0.3437748,0.11459160000000004,50.65521678,-87.25004424,16.678807380000002
6.81,681,-1.006,-0.035,-0.026000000000000002,-1.6042823999999998,0.572958,0.1718874,50.52343644,-87.24431466,16.79912856
6.82,682,-1.006,-0.033,-0.028999999999999998,-1.3750992,0.4583664000000001,0.286479,50.3916561,-87.24431466,16.91372016
6.83,683,-1.005,-0.032,-0.028999999999999998,-0.6875496,0.1718874,0.3437748,50.305712400000004,-87.25004424,16.999663860000002
6.84,684,-1.003,-0.033,-0.028999999999999998,-0.2291832000000001,0.4583664000000001,0.2291832000000001,50.18539122,-87.24431466,17.108525880000002
6.85,685,-0.9990000000000001,-0.032,-0.033,-0.11459160000000004,0.8594370000000001,0.11459160000000004,49.02801606000001,-87.2328555,18.26590104
6.86,686,-0.998,-0.032,-0.036000000000000004,0.057295800000000015,1.2605076000000002,0.0,48.83321034,-87.22712592,18.46643634
6.87,687,-0.997,-0.033,-0.032,0.057295800000000015,1.3750992,-0.11459160000000004,48.63267504,-87.21566676,18.66697164
6.88,688,-0.996,-0.03,-0.028999999999999998,-0.057295800000000015,0.8594370000000001,-0.3437748,48.53527218,-87.20420759999998,18.75864492
6.89,689,-0.998,-0.03,-0.027999999999999997,-0.057295800000000015,0.8021411999999999,-0.40107059999999994,48.455058060000006,-87.19847802,18.83885904
6.9,690,-0.9990000000000001,-0.028999999999999998,-0.024,0.0,0.057295800000000015,-0.5156622000000001,48.23733402000001,-87.22139634,19.056583080000006
