TimeStamp(s),FrameCounter,AccX,AccY,AccZ,GyrX,GyrY,GyrZ,EulerX,EulerY,EulerZ
0.01,1,-0.01,-1.015,0.039,1.4896908000000002,2.7501984,0.286479,92.88222138,-0.14323950000000002,-20.11655538
0.02,2,-0.013000000000000001,-1.016,0.036000000000000004,0.9167328000000001,2.1199446,0.3437748,92.88795096,-0.14896908,-20.09363706
0.03,3,-0.015,-1.013,0.037000000000000005,0.8021411999999999,2.1199446,0.3437748,92.89941012,-0.15469866,-20.07644832
0.04,4,-0.017,-1.012,0.040999999999999995,0.6302538000000001,2.0053530000000004,0.3437748,92.9051397,-0.16042824,-20.05353
0.05,5,-0.015,-1.011,0.042,0.2291832000000001,1.8334656000000005,0.40107059999999994,92.81919599999999,-0.21199446,-19.9962342
0.060000000000000005,6,-0.013999999999999999,-1.011,0.039,-0.057295800000000015,1.8907614,0.4583664000000001,92.81919599999999,-0.21772404,-19.97904546
0.06999999999999999,7,-0.015,-1.013,0.038,-0.9740286,1.7761698000000001,0.4583664000000001,92.80773684,-0.22345362,-19.96185672
0.08,8,-0.016,-1.016,0.038,-2.0053530000000004,1.8907614,0.4583664000000001,92.7905481,-0.22918320000000006,-19.94466798
0.09,9,-0.017,-1.0190000000000001,0.036000000000000004,-2.7501984,1.8907614,0.3437748,92.7619002,-0.23491278,-19.92174966
0.09999999999999999,10,-0.021,-1.0190000000000001,0.034,-2.86479,2.2345362,0.1718874,92.68741566,-0.26929026,-19.8816426
0.11,11,-0.022000000000000002,-1.021,0.037000000000000005,-2.86479,2.5210152000000003,0.057295800000000015,92.65876776,-0.26929026,-19.8529947
0.12,12,-0.023,-1.026,0.04,-3.7815228,2.5210152000000003,0.2291832000000001,92.6186607,-0.27501984,-19.83007638
0.13,13,-0.025,-1.0290000000000001,0.034,-4.9274388,2.4064236,0.40107059999999994,92.56709448,-0.28074942,-19.80715806
0.14,14,-0.025,-1.032,0.032,-5.7868758000000025,2.0053530000000004,0.7448454000000001,92.50979868,-0.29220857999999994,-19.78996932
0.15000000000000002,15,-0.027000000000000003,-1.035,0.038,-7.0473834,1.7188740000000002,1.2032118,92.42385498,-0.32085648,-19.76132142
0.16,16,-0.031,-1.038,0.043,-8.193299399999999,1.3178034,1.8334656000000005,92.33791128,-0.33804522,-19.74986226
0.17,17,-0.034,-1.043,0.04,-9.224623800000002,0.8021411999999999,2.8074942000000003,92.24050842,-0.3724227000000001,-19.74413268
0.18000000000000002,18,-0.034,-1.048,0.031,-10.4851314,1.0313244000000001,3.5523396000000003,92.13737598,-0.40680018,-19.73267352
0.19,19,-0.035,-1.051,0.023,-12.032118,1.8907614,3.7815228,92.01132522,-0.44690724,-19.72121436
0.2,20,-0.035,-1.041,0.023,-13.3499214,2.9793816000000004,3.6096353999999997,91.86808572,-0.4984734599999999,-19.68683688
0.21000000000000002,21,-0.039,-1.0270000000000001,0.017,-13.636400400000001,3.7242269999999995,3.3231564,91.72484622,-0.53285094,-19.652459399999998
0.22,22,-0.043,-1.0170000000000001,0.017,-12.9488508,3.3231564,3.0366774,91.59306588,-0.56722842,-19.61808192
0.23,23,-0.049,-1.01,0.024,-12.776963400000001,2.7501984,2.9793816000000004,91.46128554,-0.6016058999999999,-19.595163600000006
0.24000000000000002,24,-0.057999999999999996,-1.006,0.026000000000000002,-13.407217200000002,2.6929026,3.0939732,91.3295052,-0.63598338,-19.57224528
0.25,25,-0.062,-0.996,0.024,-14.610429000000002,3.0366774,3.2085647999999996,91.16907696,-0.6875496,-19.53213822
0.26,26,-0.063,-0.987,0.017,-15.9855282,3.380452200000001,3.1512689999999997,91.00864872,-0.72192708,-19.49776074
0.27,27,-0.062,-0.9790000000000001,0.015,-15.756345,3.0366774,3.2085647999999996,90.84249090000002,-0.75630456,-19.47484242
0.28,28,-0.063,-0.98,0.023,-15.126091199999998,2.6929026,3.2658606,90.68779224,-0.7906820400000001,-19.44619452
0.29000000000000004,29,-0.064,-0.9840000000000001,0.027999999999999997,-14.4958374,2.8074942000000003,3.2085647999999996,90.54455274,-0.8250595199999999,-19.4232762
0.3,30,-0.065,-0.992,0.032,-14.209358400000001,3.1512689999999997,3.0939732,90.39558366,-0.87662574,-19.38316914
0.31,31,-0.064,-0.9990000000000001,0.028999999999999998,-14.0947668,3.6096353999999997,2.5210152000000003,90.25234416,-0.90527364,-19.34879166
0.32,32,-0.065,-1.004,0.026000000000000002,-13.750992000000002,3.9534102,1.9480572,90.10910466,-0.92819196,-19.308684600000007
0.33,33,-0.066,-1.0090000000000001,0.034,-13.750992000000002,4.2398892,1.2605076000000002,89.97159474,-0.9453807,-19.268577540000006
0.34,34,-0.065,-1.008,0.036000000000000004,-14.381245800000002,3.9534102,0.7448454000000001,89.82262566,-0.95111028,-19.23420006
0.35000000000000003,35,-0.065,-1.003,0.036000000000000004,-14.7823164,3.0366774,0.2291832000000001,89.67365658,-0.97975818,-19.194093
0.36000000000000004,36,-0.063,-1.003,0.037000000000000005,-15.126091199999998,1.3178034,-0.2291832000000001,89.51895792,-0.9740286,-19.18263384
0.37,37,-0.06,-1.004,0.037000000000000005,-15.870936600000002,-0.3437748,-0.572958,89.35852968,-0.9740286,-19.18836342
0.38,38,-0.055999999999999994,-1.003,0.031,-16.2147114,-1.8907614,-0.8021411999999999,89.19810143999999,-0.96256944,-19.21128174
0.39,39,-0.052000000000000005,-1.002,0.025,-15.6417534,-3.2658606,-0.9167328000000001,89.03767320000001,-0.95683986,-19.24565922
0.4,40,-0.047,-1.004,0.023,-15.011499599999999,-4.8701430000000006,-0.8594370000000001,88.88870412,-0.95683986,-19.29149586
0.41000000000000003,41,-0.047,-1.011,0.013000000000000001,-14.7250206,-6.990087599999999,-1.0886202,88.74546462,-0.9453807,-19.3659804
0.42000000000000004,42,-0.047,-1.0090000000000001,-0.003,-14.667724800000002,-8.7662574,-1.8334656000000005,88.59649553999998,-0.92819196,-19.4519241
0.43,43,-0.045,-0.993,-0.013999999999999999,-13.636400400000001,-9.8548776,-2.86479,88.45898561999998,-0.89954406,-19.54932696
0.44,44,-0.044000000000000004,-0.981,-0.011000000000000001,-11.8602306,-10.657018800000001,-3.6096353999999997,88.34439402000002,-0.86516658,-19.65818898
0.45,45,-0.046,-0.972,-0.013000000000000001,-10.313244000000001,-11.688343199999998,-4.1252976000000015,88.24126158,-0.83651868,-19.77278058
0.46,46,-0.049,-0.9620000000000001,-0.012,-9.1100322,-11.9748222,-4.297185,88.14958829999998,-0.79641162,-19.89310176
0.47000000000000003,47,-0.053,-0.955,-0.012,-7.448453999999999,-12.261301199999998,-4.010706000000001,88.07510376,-0.75630456,-20.01915252
0.48000000000000004,48,-0.055999999999999994,-0.956,-0.011000000000000001,-5.5003968,-12.776963400000001,-3.7242269999999995,88.02353753999998,-0.72192708,-20.14520328
0.49,49,-0.057,-0.9590000000000001,-0.016,-4.1825934,-12.605075999999999,-3.6096353999999997,87.98343048000002,-0.6875496,-20.27125404
0.5,50,-0.061,-0.9590000000000001,-0.022000000000000002,-2.86479,-11.8602306,-3.4377480000000005,87.94905299999998,-0.67609044,-20.38011606
0.51,51,-0.064,-0.9620000000000001,-0.023,-1.9480572,-9.9694692,-3.2658606,87.93186426,-0.64171296,-20.47751892
0.52,52,-0.062,-0.965,-0.018000000000000002,-2.3491277999999998,-7.5057497999999985,-3.380452200000001,87.90894594,-0.61306506,-20.55200346
0.53,53,-0.057999999999999996,-0.973,-0.013999999999999999,-3.9534102,-4.5263682,-3.6669312000000014,87.86883888,-0.5729580000000001,-20.597840100000006
0.54,54,-0.053,-0.976,-0.022000000000000002,-5.3858052,-1.145916,-3.8961144,87.81727266,-0.53858052,-20.61502884
0.55,55,-0.046,-0.971,-0.033,-6.0160589999999985,2.7501984,-4.0680017999999984,87.74278812,-0.5156622000000001,-20.57492178
0.56,56,-0.034,-0.955,-0.045,-5.6149884000000005,7.1046792000000005,-3.7242269999999995,87.68549232000002,-0.48128472,-20.50616682
0.5700000000000001,57,-0.013000000000000001,-0.935,-0.055,-4.6982555999999995,11.5164558,-2.5783110000000002,87.6339261,-0.4526368200000001,-20.3973048
0.5800000000000001,58,0.009000000000000001,-0.922,-0.052000000000000005,-4.9847346,14.896907999999998,-0.6302538000000001,87.57663029999998,-0.44690724,-20.24833572
0.59,59,0.034,-0.9259999999999999,-0.034,-6.9327918,15.756345,2.0626488000000003,87.50787534,-0.46409598,-20.09363706
0.6,60,0.042,-0.9470000000000001,-0.022000000000000002,-10.599723,14.037471,4.7555514,87.39901332,-0.49274388,-19.96185672
0.61,61,0.035,-0.9790000000000001,-0.017,-14.610429000000002,12.891555,6.875496000000001,87.24431466,-0.56149884,-19.83007638
0.62,62,0.018000000000000002,-1.0190000000000001,-0.004,-16.673077799999998,12.3758928,8.021412000000002,87.07242726,-0.64171296,-19.704025620000003
0.63,63,0.0,-1.054,0.027000000000000003,-15.756345,12.0894138,7.6776372,86.91199902000002,-0.7161975,-19.58370444
0.64,64,-0.013000000000000001,-1.078,0.051,-12.3758928,10.828906199999999,6.0733548,86.78021868,-0.7734933,-19.47484242
0.65,65,-0.017,-1.088,0.063,-8.136003599999999,8.8235532,3.8388186,86.72865246,-0.8021412000000001,-19.40035788
0.66,66,-0.012,-1.082,0.07200000000000001,-3.6669312000000014,7.2765666,0.9167328000000001,86.68854540000002,-0.8078707799999998,-19.32587334
0.67,67,0.0,-1.071,0.096,1.2032118,7.2192707999999985,-2.9220858,86.70000456,-0.7792228800000001,-19.25711838
0.68,68,0.017,-1.067,0.11199999999999999,5.042030400000002,8.307891,-6.0160589999999985,86.7458412,-0.7161975,-19.17690426
0.6900000000000001,69,0.034,-1.064,0.11699999999999999,7.6776372,9.8548776,-8.651665800000002,86.82032574,-0.62452422,-19.079501399999998
0.7000000000000001,70,0.048,-1.068,0.114,9.682990199999999,11.401864199999999,-10.3705398,86.94637650000001,-0.4984734599999999,-18.98782812
0.7100000000000001,71,0.052000000000000005,-1.071,0.115,10.7716104,12.1467096,-11.5164558,87.05523852,-0.37815228,-18.87323652
0.72,72,0.05,-1.075,0.107,10.2559482,13.0634424,-12.261301199999998,87.15264138,-0.25210152,-18.74718576
0.73,73,0.044000000000000004,-1.08,0.098,7.734933000000002,13.8655836,-13.0061466,87.2328555,-0.12032118,-18.61540542
0.74,74,0.035,-1.074,0.081,3.9534102,14.896907999999998,-14.037471,87.26723297999996,0.01718874,-18.47216592
0.75,75,0.025,-1.05,0.057999999999999996,0.3437748,16.157415599999997,-15.2406828,87.29015129999998,0.17761697999999998,-18.32892642
0.76,76,0.024,-1.0190000000000001,0.048,-1.4896908000000002,17.4179232,-15.813640800000002,87.27296256,0.33804522,-18.162768600000003
0.77,77,0.032,-0.99,0.052000000000000005,-2.4064236,17.761698000000006,-15.928232399999999,87.24431466,0.5042030399999999,-17.99661078
0.78,78,0.036000000000000004,-0.972,0.048,-3.1512689999999997,16.7876694,-15.527161800000002,87.20993718,0.6589017,-17.83618254
0.79,79,0.043,-0.9540000000000001,0.043,-4.4117766,15.068795399999999,-15.011499599999999,87.16410053999998,0.8136003599999999,-17.69294304
0.8,80,0.042,-0.9359999999999999,0.037000000000000005,-5.7868758000000025,13.2926256,-14.0947668,87.1182639,0.96256944,-17.57835144
0.81,81,0.040999999999999995,-0.919,0.039,-6.3598338,11.6310474,-13.120738199999998,87.05523852,1.09434978,-17.46948942
0.8200000000000001,82,0.039,-0.912,0.052000000000000005,-6.703608600000001,10.3705398,-11.745639,86.98648356,1.21467096,-17.37208656
0.8300000000000001,83,0.036000000000000004,-0.9109999999999999,0.075,-7.0473834,8.307891,-9.682990199999999,86.91772859999998,1.31207382,-17.29760202
0.8400000000000001,84,0.042,-0.9129999999999999,0.08199999999999999,-7.5057497999999985,6.9327918,-7.3911582,86.84324405999998,1.38655836,-17.23457664
0.85,85,0.061,-0.909,0.083,-7.3911582,6.130650599999999,-4.7555514,86.80313699999998,1.46677248,-17.19446958
0.86,86,0.078,-0.9109999999999999,0.087,-5.9014674000000005,5.6149884000000005,-2.1772404,86.7458412,1.4896908000000002,-17.14290336
0.87,87,0.098,-0.912,0.091,-4.2398892,5.3858052,0.1718874,86.70573413999998,1.48396122,-17.085607560000003
0.88,88,0.11900000000000001,-0.917,0.10099999999999999,-2.86479,4.4690724,2.0626488000000003,86.67708624000002,1.46677248,-17.039770920000002
0.89,89,0.136,-0.9279999999999999,0.109,-1.8334656000000005,2.4064236,3.6669312000000014,86.65416791999998,1.432395,-17.0168526
0.9,90,0.149,-0.9359999999999999,0.111,-1.6042823999999998,-0.3437748,4.9847346,86.75157078,1.5183387000000002,-17.09706672
0.91,91,0.158,-0.943,0.113,-1.6615782,-4.583664,6.3598338,86.73438204,1.45531332,-17.14290336
0.92,92,0.158,-0.95,0.11699999999999999,-1.432395,-8.59437,7.6776372,86.72292288,1.3750992,-17.22311748
0.93,93,0.14800000000000002,-0.958,0.12300000000000001,-0.9167328000000001,-12.4904844,8.9954406,86.71146372000004,1.28342592,-17.34343866
0.9400000000000001,94,0.128,-0.9640000000000001,0.14300000000000002,0.6302538000000001,-16.272007199999994,9.9694692,86.71719329999998,1.1745639,-17.498137319999998
0.9500000000000001,95,0.10800000000000001,-0.976,0.163,2.4064236,-21.027558600000006,10.5424272,86.78021868,1.09434978,-17.72159094
0.9600000000000001,96,0.095,-0.996,0.17600000000000002,4.1252976000000015,-26.929026,10.7143146,86.82032574,0.97975818,-17.97942204
0.97,97,0.092,-1.0170000000000001,0.18100000000000002,5.5003968,-32.2002396,10.313244000000001,86.87762153999998,0.87089616,-18.29454894
0.98,98,0.09699999999999999,-1.0390000000000001,0.184,8.021412000000002,-36.2682414,10.026765,86.95783566,0.76203414,-18.6497829
0.99,99,0.102,-1.069,0.17800000000000002,10.2559482,-38.445481799999996,9.9694692,87.06669767999998,0.65317212,-19.0222056
1.0,100,0.11199999999999999,-1.097,0.16899999999999998,11.688343199999998,-38.38818600000001,10.026765,87.20420759999998,0.56722842,-19.40608746
1.01,101,0.111,-1.12,0.153,12.605075999999999,-37.81522800000001,10.026765,87.33598794000002,0.4583664000000001,-19.77278058
1.02,102,0.092,-1.139,0.14800000000000002,14.7823164,-37.757932200000006,9.7975818,87.49068659999998,0.35523396,-20.14520328
1.03,103,0.073,-1.162,0.16399999999999998,16.959556799999998,-35.46610020000001,9.0527364,87.66257399999998,0.26356068,-20.488978080000006
1.04,104,0.063,-1.186,0.179,18.048177,-29.220858000000003,7.448453999999999,87.85165014,0.18907614,-20.77545708
1.05,105,0.055999999999999994,-1.216,0.214,14.667724800000002,-20.1108258,5.6149884000000005,88.02353753999998,0.13750992,-20.97599238
1.06,106,0.027000000000000003,-1.22,0.251,4.7555514,-12.0894138,4.1825934,88.07510376,0.09740286,-21.09631356
1.07,107,-0.019,-1.204,0.26,-1.0313244000000001,-4.4117766,2.8074942000000003,88.0636446,0.06875496,-21.136420620000006
1.08,108,-0.055,-1.195,0.205,4.3544808,1.8907614,1.2605076000000002,88.10948124000002,0.057295800000000015,-21.11923188
1.09,109,-0.062,-1.181,0.1,17.761698000000006,3.6096353999999997,-0.9167328000000001,88.28709822,0.06875496,-21.07912482
1.1,110,-0.049,-1.173,0.019,31.856464799999998,0.0,-3.6669312000000014,88.61368428,0.10313244,-21.07339524
1.11,111,-0.034,-1.192,0.042,38.8465524,-2.7501984,-6.8182002000000015,89.00902529999998,0.1718874,-21.10204314
1.12,112,-0.009000000000000001,-1.238,0.046,38.159002799999996,-3.4377480000000005,-10.313244000000001,89.39290716000002,0.28074942,-21.13069104
1.1300000000000001,113,0.025,-1.273,-0.034,35.0077338,-2.9793816000000004,-13.9228794,89.74814112,0.42398892,-21.15933894
1.1400000000000001,114,0.057,-1.29,-0.086,35.4088044,-1.5469866,-17.475219,90.10910466,0.59587632,-21.170798100000006
1.1500000000000001,115,0.092,-1.3130000000000002,-0.10099999999999999,38.8465524,-2.6929026,-18.9649098,90.4987161,0.79641162,-21.19371642
1.1600000000000001,116,0.12,-1.2890000000000001,-0.111,39.820581,-6.3025379999999975,-17.246035799999998,90.90551628,0.9740286,-21.245282640000006
1.17,117,0.13,-1.205,-0.125,38.731960799999996,-10.886202,-13.980175199999998,91.29512772,1.12299768,-21.34841508
1.18,118,0.132,-1.0859999999999999,-0.168,36.1536498,-15.5844576,-10.657018800000001,91.66182084,1.23758928,-21.49165458
1.19,119,0.12,-0.9590000000000001,-0.226,31.627281600000003,-20.8556712,-7.8495246,91.98267732,1.32926256,-21.69218988
1.2,120,0.092,-0.845,-0.254,26.69984280000001,-26.5852512,-6.0160589999999985,92.2175901,1.41520626,-21.95002098
1.21,121,0.055999999999999994,-0.753,-0.22,21.829699800000004,-32.085648000000006,-5.3858052,92.43531414,1.4896908000000002,-22.259418300000004
1.22,122,0.033,-0.696,-0.18,15.527161800000002,-34.8358464,-6.2452422,92.5900128,1.5813640800000002,-22.59746352
1.23,123,0.033,-0.6659999999999999,-0.14400000000000002,10.5424272,-35.5806918,-8.136003599999999,92.69314524,1.6902260999999998,-22.9469679
1.24,124,0.051,-0.677,-0.114,8.8235532,-36.096354,-9.7975818,92.77335936,1.81054728,-23.29647228
1.25,125,0.066,-0.743,-0.113,7.6776372,-35.236917,-11.0580894,92.82492558,1.95378678,-23.634517499999998
1.26,126,0.048,-0.841,-0.12,6.130650599999999,-33.002380800000005,-12.4331886,92.88222138,2.10275586,-23.95537398
1.27,127,0.01,-0.935,-0.10300000000000001,3.8961144,-29.0489706,-14.037471,92.91659886,2.2631841,-24.236123400000004
1.28,128,-0.037000000000000005,-1.011,-0.08,1.3750992,-23.3766864,-14.667724800000002,92.92232844,2.42934192,-24.45957702
1.29,129,-0.079,-1.078,-0.069,0.3437748,-17.3606274,-13.6936962,92.92232844,2.578311,-24.62000526
1.3,130,-0.099,-1.123,-0.076,-0.286479,-10.313244000000001,-10.4278356,92.87076222,2.6356068,-24.68876022
1.31,131,-0.107,-1.123,-0.078,-1.9480572,-2.86479,-5.844171599999999,92.85357348,2.69863218,-24.71740812
1.32,132,-0.12300000000000001,-1.085,-0.057999999999999996,-2.1772404,2.9220858,-1.7761698000000001,92.83065516000002,2.71582092,-24.68876022
1.33,133,-0.14800000000000002,-1.0490000000000002,-0.059000000000000004,-1.3178034,7.6776372,0.8594370000000001,92.81919599999999,2.69863218,-24.61427568
1.34,134,-0.177,-1.016,-0.062,-0.1718874,11.2299768,1.9480572,92.81919599999999,2.6699842800000004,-24.49968408
1.35,135,-0.203,-1.0,-0.049,0.572958,14.610429000000002,2.1772404,92.77908894,2.50955604,-24.29914878
1.36,136,-0.215,-0.9940000000000001,-0.027999999999999997,0.6302538000000001,17.8762896,1.6042823999999998,92.7905481,2.47517856,-24.1215318
1.37,137,-0.204,-1.002,0.0,0.40107059999999994,20.3973048,1.0313244000000001,92.80200726,2.45226024,-23.9209965
1.3800000000000001,138,-0.18100000000000002,-1.012,0.022000000000000002,-0.572958,23.204798999999998,1.5469866,92.80200726,2.41788276,-23.6918133
1.3900000000000001,139,-0.146,-1.0170000000000001,0.028999999999999998,-1.2032118,25.8977016,3.5523396000000003,92.79627768,2.36058696,-23.439711780000003
1.4000000000000001,140,-0.106,-1.018,0.028999999999999998,-1.2032118,27.501984000000004,6.0733548,92.77908894,2.25172494,-23.15896236
1.4100000000000001,141,-0.066,-1.018,0.028999999999999998,-1.2605076000000002,28.762491600000004,8.479778399999999,92.77335936,2.14286292,-22.87821294
1.42,142,-0.039,-1.01,0.036000000000000004,-2.1772404,29.220858000000003,10.1413566,92.75617062,2.02254174,-22.59746352
1.43,143,-0.01,-0.9940000000000001,0.057,-2.8074942000000003,28.934378999999996,10.886202,92.7332523,1.8907614,-22.3167141
1.44,144,0.022000000000000002,-0.971,0.075,-3.380452200000001,28.074942,11.0007936,92.70460440000001,1.75898106,-22.04169426
1.45,145,0.045,-0.9359999999999999,0.095,-3.5523396000000003,26.9863218,9.9121734,92.68168608,1.65011904,-21.78959274
1.46,146,0.05,-0.899,0.109,-3.1512689999999997,26.069589,7.6776372,92.65303818,1.5527161800000002,-21.53176164
1.47,147,0.038,-0.87,0.113,-3.3231564,25.78311,4.583664,92.62439028,1.4896908000000002,-21.27966012
1.48,148,0.011000000000000001,-0.858,0.115,-3.6669312000000014,25.84040580000001,1.2032118,92.5900128,1.4610428999999998,-21.027558600000006
1.49,149,-0.016,-0.861,0.115,-3.9534102,26.2987722,-2.2345362,92.54990574,1.4610428999999998,-20.7697275
1.5,150,-0.047,-0.88,0.11900000000000001,-4.8128472,27.215505,-5.443101,92.51552826,1.4782316400000002,-20.49470766
1.51,151,-0.071,-0.904,0.131,-5.958763200000001,28.934378999999996,-8.250595200000001,92.45823246,1.5412570200000002,-20.20249908
1.52,152,-0.085,-0.924,0.145,-6.2452422,30.194886600000004,-10.3705398,92.39520708,1.62147114,-19.89883134
1.53,153,-0.084,-0.9279999999999999,0.161,-6.3025379999999975,30.7105488,-11.6310474,92.33791128,1.7188740000000002,-19.595163600000006
1.54,154,-0.08199999999999999,-0.922,0.162,-5.958763200000001,29.2781538,-12.2040054,92.28061548,1.81627686,-19.29722544
1.55,155,-0.08199999999999999,-0.905,0.154,-5.0993262,29.1062664,-13.178034,92.246238,1.90795014,-18.99928728
1.56,156,-0.078,-0.879,0.146,-4.297185,31.340802600000004,-14.5531332,92.21186052,2.0340009,-18.68988996
1.57,157,-0.07200000000000001,-0.855,0.14,-4.7555514,36.2109456,-16.386598799999998,92.17175346,2.17151082,-18.32319684
1.58,158,-0.07,-0.8340000000000001,0.12300000000000001,-4.7555514,41.9978214,-18.334656,92.13164640000001,2.32620948,-17.899207920000006
1.59,159,-0.07200000000000001,-0.821,0.11,-2.86479,45.607456799999994,-19.5378678,92.11445766,2.4923672999999997,-17.4465711
1.6,160,-0.081,-0.833,0.113,-0.8594370000000001,47.3836266,-19.652459399999998,92.12591682,2.6413363800000003,-16.96528638
1.61,161,-0.102,-0.8640000000000001,0.136,-0.5156622000000001,47.784697200000004,-18.6784308,92.13737598,2.79603504,-16.484001659999997
1.62,162,-0.11800000000000001,-0.898,0.153,-0.8021411999999999,46.5814854,-17.18874,92.14310556,2.93927454,-16.0141761
1.6300000000000001,163,-0.10300000000000001,-0.9620000000000001,0.154,-1.0313244000000001,45.034498799999994,-15.3552744,92.15456472,3.05959572,-15.567268860000002
1.6400000000000001,164,-0.053,-1.026,0.134,-0.6875496,44.977203,-13.9228794,92.16602387999998,3.16845774,-15.11463204
1.6500000000000001,165,0.016,-1.075,0.128,1.432395,44.748019799999994,-12.891555,92.20613094,3.2658606,-14.667724799999998
1.6600000000000001,166,0.084,-1.119,0.133,1.8334656000000005,41.3102718,-11.401864199999999,92.24050842,3.35753388,-14.25519504
1.6700000000000002,167,0.126,-1.125,0.157,0.286479,33.6326346,-9.7975818,92.25769716,3.43201842,-13.91714982
1.68,168,0.157,-1.129,0.18600000000000005,-1.145916,25.668518399999996,-9.0527364,92.25769716,3.50077338,-13.659318719999998
1.69,169,0.182,-1.169,0.192,-2.1772404,18.907614,-8.136003599999999,92.246238,3.56952834,-13.47024258
1.7,170,0.204,-1.248,0.16399999999999998,-5.0993262,12.318597,-5.5576926,92.20613094,3.63255372,-13.355650979999998
1.71,171,0.22,-1.325,0.11599999999999999,-4.9847346,4.4690724,-0.1718874,92.1602943,3.63255372,-13.30981434
1.72,172,0.209,-1.368,0.107,0.0,-0.7448454000000001,6.130650599999999,92.1602943,3.57525792,-13.321273499999998
1.73,173,0.168,-1.375,0.102,4.6409598,0.057295800000000015,11.45916,92.20613094,3.46066632,-13.32700308
1.74,174,0.122,-1.4580000000000002,0.003,1.2605076000000002,4.6982555999999995,16.558486199999994,92.22331968,3.28877892,-13.28689602
1.75,175,0.11199999999999999,-1.636,-0.15,-9.5111028,1.8334656000000005,25.84040580000001,92.12018724,3.03094782,-13.275436860000005
1.76,176,0.19,-1.8130000000000002,-0.156,-11.3445684,-9.0527364,38.27359439999999,92.00559564,2.65852512,-13.38429888
1.77,177,0.305,-1.808,-0.08199999999999999,3.380452200000001,-13.0634424,47.498218200000004,92.03424354,2.19442914,-13.52753838
1.78,178,0.326,-1.528,-0.107,18.162768600000003,-7.734933000000002,48.8160216,92.2175901,1.7188740000000002,-13.624941240000002
1.79,179,0.163,-1.165,-0.187,28.418716800000002,-4.6982555999999995,42.97185,92.5040691,1.29488508,-13.687966619999996
1.8,180,-0.098,-0.88,-0.14,35.9817624,-2.9220858,31.741873200000004,92.8478439,0.95683986,-13.71088494
1.81,181,-0.268,-0.698,-0.071,37.24227,-0.286479,13.464512999999998,93.22599618,0.8250595199999999,-13.716614520000002
1.82,182,-0.36200000000000004,-0.638,-0.042,29.392745399999995,-0.1718874,-4.4690724,93.52393434,0.87089616,-13.71088494
1.83,183,-0.376,-0.62,-0.07400000000000001,16.1001198,4.9274388,-18.449247600000003,93.69009216,1.05424272,-13.64785956
1.84,184,-0.32799999999999996,-0.62,-0.13,5.443101,17.303331600000003,-25.668518399999996,93.74738796,1.29488508,-13.464513
1.85,185,-0.222,-0.669,-0.142,0.3437748,29.8511118,-23.4339822,93.73019922,1.46677248,-13.13792694
1.86,186,-0.11,-0.736,-0.12300000000000001,-2.4637194,37.9871154,-13.750992000000002,93.7072809,1.56990492,-12.75404508
1.87,187,-0.002,-0.7979999999999999,-0.10099999999999999,-5.3285094000000015,39.4195104,-2.9793816000000004,93.65571468,1.56417534,-12.36443364
1.8800000000000001,188,0.084,-0.8370000000000001,-0.098,-9.167328,36.4401288,5.2139178,93.56977098,1.4782316400000002,-12.00919968
1.8900000000000001,189,0.142,-0.871,-0.11699999999999999,-12.891555,31.9710564,11.3445684,93.44372022,1.3349921400000002,-11.70553194
1.9000000000000001,190,0.196,-0.9109999999999999,-0.159,-17.5325148,25.3247436,15.527161800000002,93.23745534,1.19175264,-11.470619159999998
1.9100000000000001,191,0.237,-0.937,-0.193,-20.626488000000002,16.558486199999994,18.793022399999998,93.02546088,0.98548776,-11.32165008
1.9200000000000002,192,0.249,-0.9470000000000001,-0.19699999999999998,-20.3973048,6.3598338,20.7410796,92.81919599999999,0.7734933,-11.27008386
1.93,193,0.23399999999999999,-0.9390000000000001,-0.17,-17.131444199999994,-3.0366774,21.142150199999996,92.64730859999999,0.56722842,-11.3159205
1.94,194,0.204,-0.924,-0.125,-10.943497800000001,-11.6310474,18.5638392,92.53844658,0.38961144,-11.43624168
1.95,195,0.162,-0.909,-0.071,-5.443101,-17.8189938,13.6936962,92.45823246,0.29793816,-11.631047399999998
1.96,196,0.125,-0.909,-0.036000000000000004,-2.0626488000000003,-20.5691922,7.5057497999999985,92.44104372,0.24064236,-11.83731228
1.97,197,0.10800000000000001,-0.945,-0.011000000000000001,1.4896908000000002,-21.5432208,1.4896908000000002,92.45823246,0.24064236,-12.049306740000002
1.98,198,0.109,-1.001,0.003,4.4117766,-21.944291399999997,-2.9793816000000004,92.5040691,0.28647900000000004,-12.26703078
1.99,199,0.105,-1.045,0.012,7.0473834,-21.4286292,-5.6722842,92.57855364,0.36096354,-12.473295660000002
2.0,200,0.09699999999999999,-1.067,0.023,8.307891,-19.652459399999998,-6.990087599999999,92.65876776,0.46409598,-12.66810138
2.01,201,0.07400000000000001,-1.071,0.044000000000000004,7.906820400000001,-17.475219,-7.2765666,92.73898188,0.55003968,-12.839988780000002
2.02,202,0.055999999999999994,-1.061,0.057999999999999996,6.4744254,-14.209358400000001,-7.2765666,92.80773684,0.6302538000000001,-12.97176912
2.03,203,0.045,-1.033,0.066,4.7555514,-11.917526400000002,-6.2452422,92.85357348,0.70473834,-13.086360719999998
2.04,204,0.038,-1.001,0.059000000000000004,4.3544808,-10.943497800000001,-4.7555514,92.89941012,0.76203414,-13.18949316
2.05,205,0.038,-0.976,0.049,4.010706000000001,-10.313244000000001,-3.0939732,92.92805802,0.8136003599999999,-13.2926256
2.0599999999999996,206,0.047,-0.9590000000000001,0.038,3.380452200000001,-9.682990199999999,-1.8334656000000005,92.9624355,0.8422482600000001,-13.390028460000002
2.07,207,0.057999999999999996,-0.941,0.028999999999999998,1.8907614,-9.568398599999998,-0.4583664000000001,92.98535382,0.8537074199999999,-13.48170174
2.0799999999999996,208,0.055,-0.9259999999999999,0.022000000000000002,0.8594370000000001,-9.7975818,0.4583664000000001,92.9910834,0.8594370000000001,-13.5791046
2.09,209,0.071,-0.9079999999999999,0.028999999999999998,-0.3437748,-10.599723,1.6042823999999998,92.9910834,0.8479778399999999,-13.687966619999996
2.0999999999999996,210,0.085,-0.897,0.044000000000000004,-1.9480572,-12.3758928,3.3231564,92.96816508,0.8594370000000001,-13.82547654
2.11,211,0.10099999999999999,-0.89,0.064,-3.5523396000000003,-14.32395,4.6409598,92.92805802,0.8250595199999999,-13.96871604
2.1199999999999997,212,0.11599999999999999,-0.895,0.08900000000000001,-6.0733548,-16.386598799999998,5.844171599999999,92.87076222,0.7792228800000001,-14.13487386
2.13,213,0.132,-0.907,0.099,-9.224623800000002,-18.8503182,7.6776372,92.77335936,0.7161975,-14.32395
2.1399999999999997,214,0.14300000000000002,-0.9179999999999999,0.096,-12.0894138,-21.944291399999997,9.568398599999998,92.65303818,0.63598338,-14.54740362
2.15,215,0.14400000000000002,-0.914,0.096,-14.5531332,-25.4393352,11.688343199999998,92.51552826,0.56149884,-14.81669388
2.1599999999999997,216,0.14,-0.887,0.11199999999999999,-14.610429000000002,-28.0176462,13.3499214,92.36655918,0.44690724,-15.10317288
2.17,217,0.127,-0.856,0.138,-11.8602306,-29.2781538,15.068795399999999,92.25196758,0.32085648,-15.39538146
2.1799999999999997,218,0.111,-0.835,0.156,-7.9641161999999985,-31.1689152,17.131444199999994,92.17175346,0.16615782,-15.71623794
2.19,219,0.10400000000000001,-0.8270000000000001,0.163,-4.4690724,-32.31483119999999,19.136797199999997,92.13164640000001,0.0,-16.042824
2.1999999999999997,220,0.096,-0.8420000000000001,0.165,-2.5210152000000003,-33.002380800000005,20.7983754,92.12591682,-0.16042824,-16.386598799999998
2.21,221,0.09300000000000001,-0.868,0.175,-2.291832,-33.231564,22.1734746,92.10872808,-0.36096354,-16.72464402
2.2199999999999998,222,0.087,-0.894,0.17600000000000002,-3.4377480000000005,-32.4867186,23.204798999999998,92.08580976,-0.5729580000000001,-17.05123008
2.23,223,0.091,-0.919,0.17600000000000002,-4.0680017999999984,-32.257535399999995,24.0069402,92.05143228,-0.7906820400000001,-17.383545719999994
2.2399999999999998,224,0.09300000000000001,-0.9390000000000001,0.163,-5.0993262,-33.231564,24.7517856,92.01132522,-1.01413566,-17.72159094
2.25,225,0.11199999999999999,-0.9420000000000001,0.153,-6.0733548,-33.518043,24.809081399999997,91.97694774,-1.21467096,-18.0768249
2.26,226,0.128,-0.9259999999999999,0.155,-4.6982555999999995,-33.6326346,24.1215318,91.94257026,-1.432395,-18.41487012
2.27,227,0.13699999999999998,-0.93,0.161,-2.9220858,-36.38283300000001,23.319390600000002,91.92538152,-1.64438946,-18.78156324
2.28,228,0.136,-0.94,0.16899999999999998,-3.2085647999999996,-40.680018,21.944291399999997,91.91392236,-1.8334656000000005,-19.194093
2.29,229,0.09,-0.951,0.157,-4.0680017999999984,-43.831286999999996,20.05353,91.89100404,-2.005353,-19.63527066
2.3,230,0.040999999999999995,-0.9670000000000001,0.13,-6.130650599999999,-43.7166954,18.2200644,91.86235614,-2.15432208,-20.0821779
2.31,231,0.005,-0.987,0.078,-8.59437,-37.013086799999996,14.896907999999998,91.79360118,-2.28037284,-20.44887102
2.32,232,-0.008,-0.995,0.053,-8.078707799999998,-22.86102420000001,10.7716104,91.72484622,-2.37204612,-20.6837838
2.3299999999999996,233,-0.047,-1.028,0.159,-4.9274388,-8.4224826,5.958763200000001,91.67900958,-2.42934192,-20.7697275
2.34,234,-0.129,-1.074,0.184,-6.2452422,-0.1718874,0.11459160000000004,91.6159842,-2.42934192,-20.7697275
2.3499999999999996,235,-0.204,-1.122,0.094,-12.318597,-6.0160589999999985,-5.9014674000000005,91.49566302,-2.40069402,-20.82129372
2.36,236,-0.215,-1.165,0.17300000000000001,-22.7464326,-15.9855282,-10.657018800000001,91.27220940000001,-2.28610242,-20.97599238
2.3699999999999997,237,-0.17800000000000002,-1.232,0.14400000000000002,-30.93973200000001,-21.600516600000002,-13.8082878,90.96854166,-2.14286292,-21.19371642
2.38,238,-0.10800000000000001,-1.308,-0.03,-30.366774000000003,-22.91832,-15.6417534,90.6706035,-1.9767051,-21.42289962
2.3899999999999997,239,-0.053,-1.3780000000000001,-0.196,-7.161975,-14.8396122,-18.621135,90.60184854,-1.78762896,-21.56613912
2.4,240,-0.037000000000000005,-1.565,-0.24,23.835052800000003,-8.4224826,-27.6738714,90.84249090000002,-1.50687954,-21.64062366
2.4099999999999997,241,0.008,-1.8130000000000002,-0.254,39.5913978,-2.86479,-43.4302164,91.24929108,-1.07143146,-21.6578124
2.42,242,0.037000000000000005,-1.7919999999999998,-0.233,34.60666320000001,0.9740286,-56.149884,91.59879546,-0.5156622000000001,-21.6291645
2.4299999999999997,243,0.051,-1.681,-0.22,32.372127,-5.3285094000000015,-58.2698286,91.92538152,0.06302537999999999,-21.6578124
2.44,244,0.064,-1.585,-0.217,31.627281600000003,-14.1520626,-53.285093999999994,92.246238,0.6073354799999999,-21.772404
2.4499999999999997,245,0.086,-1.439,-0.184,21.199446,-19.4232762,-44.2896534,92.45250288,1.0599723,-21.93856182
2.46,246,0.086,-1.222,-0.20800000000000002,5.443101,-26.1268848,-34.2055926,92.5040691,1.4209358399999998,-22.18493376
2.4699999999999998,247,0.085,-1.0,-0.25,-7.0473834,-34.8358464,-23.14750320000001,92.42958456,1.67303736,-22.517249399999997
2.48,248,0.076,-0.871,-0.259,-14.266654199999998,-40.966497,-14.381245800000002,92.2748859,1.84492476,-22.91832
2.4899999999999998,249,0.068,-0.818,-0.233,-19.7097552,-46.1804148,-8.479778399999999,92.06862102,1.95378678,-23.37095682
2.5,250,0.065,-0.7979999999999999,-0.21600000000000005,-25.382039399999996,-51.0505578,-4.6982555999999995,91.77068286,2.0340009,-23.87515986
2.51,251,0.07200000000000001,-0.794,-0.19899999999999998,-27.788463,-54.4883058,-2.0626488000000003,91.47847428,2.08556712,-24.41946996
2.52,252,0.086,-0.8290000000000001,-0.191,-27.215505,-54.08723520000001,0.2291832000000001,91.19199528,2.10848544,-24.95805048
2.53,253,0.08,-0.889,-0.168,-27.1582092,-52.0818822,1.5469866,90.8997867,2.11421502,-25.47371268
2.54,254,0.052000000000000005,-0.94,-0.136,-30.3094782,-50.133825,1.4896908000000002,90.57893022,2.11421502,-25.97218614
2.55,255,0.002,-0.965,-0.11900000000000001,-36.2109456,-48.128472,1.145916,90.18931878,2.10848544,-26.447741279999995
2.56,256,-0.057,-0.975,-0.131,-41.9405256,-44.117765999999996,1.6042823999999998,89.75387070000002,2.10275586,-26.88891894
2.57,257,-0.132,-0.9940000000000001,-0.146,-45.263682,-40.4508348,3.2658606,89.28404514,2.07410796,-27.29571912
2.5799999999999996,258,-0.192,-1.0,-0.124,-47.3836266,-38.5600734,6.130650599999999,88.79130126,2.01108258,-27.68533056
2.59,259,-0.243,-0.983,-0.128,-45.7793442,-35.17962120000001,8.4224826,88.3214757,1.92513888,-28.03483494
2.5999999999999996,260,-0.28300000000000003,-0.968,-0.133,-40.8519054,-32.8877892,10.1413566,87.88602762000002,1.7761698000000001,-28.34423226
2.61,261,-0.3,-0.9690000000000001,-0.121,-37.013086799999996,-30.93973200000001,11.2872726,87.50787534,1.6558486199999998,-28.65362958
2.6199999999999997,262,-0.28800000000000003,-0.99,-0.125,-36.32553720000001,-28.533308399999996,11.802934800000001,87.13545264000004,1.52979786,-28.934378999999996
2.63,263,-0.255,-1.0070000000000001,-0.113,-39.3622146,-25.668518399999996,11.917526400000002,86.72865246,1.4037471000000001,-29.186480520000003
2.6399999999999997,264,-0.21100000000000002,-1.0070000000000001,-0.081,-42.742666799999995,-23.4339822,12.3758928,86.29320437999998,1.26623718,-29.415663720000005
2.65,265,-0.14300000000000002,-1.024,-0.067,-43.77399120000001,-22.803728399999997,14.32395,85.84629714,1.09434978,-29.627658180000005
2.6599999999999997,266,-0.07,-1.045,-0.067,-43.029145799999995,-20.7410796,17.303331600000003,85.41084906,0.91100322,-29.828193480000003
2.67,267,0.001,-1.067,-0.07,-44.5761324,-17.5325148,18.8503182,84.95821224,0.7104679199999999,-29.98862172
2.6799999999999997,268,0.057999999999999996,-1.069,-0.07200000000000001,-47.8992888,-13.980175199999998,18.3919518,84.47119794,0.5156622000000001,-30.11467248000001
2.69,269,0.1,-1.0390000000000001,-0.048,-51.6235158,-10.943497800000001,16.272007199999994,83.94980616,0.33804522,-30.212075339999995
2.6999999999999997,270,0.102,-0.987,-0.068,-52.425657,-11.2299768,13.2353298,83.41695522,0.21199446,-30.32093736
2.71,271,0.063,-0.915,-0.087,-49.1597964,-11.2872726,9.8548776,82.91848175999998,0.09740286,-30.424069799999995
2.7199999999999998,272,0.008,-0.853,-0.063,-44.06047020000001,-10.1986524,6.8182002000000015,82.4773041,0.01718874,-30.52147266
2.73,273,-0.063,-0.823,-0.059000000000000004,-41.5967508,-8.7662574,5.3858052,82.05331518,-0.04583664,-30.607416359999995
2.7399999999999998,274,-0.136,-0.8009999999999999,-0.064,-41.5967508,-6.4744254,5.7868758000000025,81.63505583999998,-0.11459160000000003,-30.66471216
2.75,275,-0.213,-0.787,-0.069,-40.90920120000001,-3.6669312000000014,6.6463128000000005,81.22252608,-0.23491278,-30.68190090000001
2.76,276,-0.282,-0.789,-0.081,-38.0444112,1.5469866,7.2765666,80.83291464,-0.30366774,-30.65898258
2.77,277,-0.337,-0.7959999999999999,-0.065,-34.2055926,7.9641161999999985,6.9327918,80.48341026,-0.36669312,-30.57303888
2.78,278,-0.361,-0.8,-0.04,-30.080295,15.6417534,6.1879464,80.17401294,-0.40680018,-30.41261064
2.79,279,-0.366,-0.8059999999999999,-0.02,-25.496631,23.4339822,5.5576926,79.91045226,-0.4297185000000001,-30.17769786
2.8,280,-0.3670000000000001,-0.815,-0.023,-21.944291399999997,30.080295,5.443101,79.69272822,-0.5099326200000001,-29.8511118
2.81,281,-0.348,-0.831,-0.044000000000000004,-19.365980399999998,37.013086799999996,5.443101,79.48646334,-0.5042030399999999,-29.48441868
2.82,282,-0.311,-0.847,-0.034,-14.381245800000002,46.5814854,4.8701430000000006,79.33176468,-0.48128472,-29.0203227
2.8299999999999996,283,-0.252,-0.88,-0.031,-10.1986524,52.425657,4.297185,79.21717308,-0.44690724,-28.49893092000001
2.84,284,-0.17300000000000001,-0.9209999999999999,-0.03,-8.59437,56.72284200000001,3.5523396000000003,79.11977021999998,-0.38961144,-27.94316166
2.8499999999999996,285,-0.076,-0.968,-0.043,-10.3705398,60.16059,2.4637194,79.01090819999997,-0.32085648,-27.35301492
2.86,286,0.016,-1.021,-0.096,-14.9542038,62.6243094,1.6042823999999998,78.85047996,-0.24064236,-26.73994986000001
2.8699999999999997,287,0.09699999999999999,-1.0979999999999999,-0.153,-20.05353,62.22323879999999,2.0053530000000004,78.63275592,-0.15469866,-26.13261438
2.88,288,0.16899999999999998,-1.178,-0.17600000000000002,-22.631841,57.2385042,3.8388186,78.39784313999998,-0.09740286,-25.56538596
2.8899999999999997,289,0.209,-1.212,-0.155,-22.4026578,51.33703679999999,6.130650599999999,78.16293035999998,-0.07448454,-25.055453340000003
2.9,290,0.20600000000000002,-1.129,-0.11199999999999999,-20.5118964,43.7166954,8.3651868,77.95666548,-0.05156622,-24.62573484
2.9099999999999997,291,0.174,-1.003,-0.096,-18.6784308,39.0757356,9.3392154,77.76185976,-0.07448454,-24.23039382
2.92,292,0.12,-0.897,-0.111,-16.673077799999998,34.950438,9.7975818,77.58997236,-0.10313244,-23.869430280000003
2.9299999999999997,293,0.051,-0.8190000000000001,-0.115,-15.183387000000002,31.6845774,8.9954406,77.42954411999997,-0.13178034,-23.548573800000003
2.94,294,-0.012,-0.7659999999999999,-0.107,-14.7250206,30.7105488,6.3598338,77.27484546000002,-0.13750992,-23.2334469
2.9499999999999997,295,-0.057999999999999996,-0.75,-0.096,-15.068795399999999,30.7105488,2.86479,77.12587638,-0.12032118,-22.92977916
2.96,296,-0.076,-0.778,-0.079,-14.7823164,31.1689152,0.1718874,76.97117771999999,-0.06302537999999999,-22.631841
2.9699999999999998,297,-0.071,-0.847,-0.075,-14.4958374,31.856464799999998,-0.057295800000000015,76.81647905999998,0.0,-22.32244368
2.98,298,-0.064,-0.9129999999999999,-0.086,-14.32395,31.5699858,2.6929026,76.66750998,0.028647900000000007,-22.01304636
2.9899999999999998,299,-0.063,-0.9590000000000001,-0.084,-13.6936962,30.7105488,6.417129599999999,76.52427048,0.028647900000000007,-21.69791946
3.0,300,-0.055999999999999994,-0.9690000000000001,-0.083,-14.7250206,30.882436199999997,9.6256944,76.39249013999998,-0.00572958,-21.38279256
3.01,301,-0.057,-0.9440000000000001,-0.086,-17.0741484,31.22621100000001,11.5164558,76.21487316,-0.057295800000000015,-21.05047692
3.02,302,-0.046,-0.892,-0.08199999999999999,-19.194093,32.4294228,12.032118,76.01433786,-0.10313244,-20.712431700000003
3.03,303,-0.034,-0.8290000000000001,-0.071,-19.7097552,33.9764094,11.1153852,75.80807297999998,-0.14323950000000002,-20.35719774
3.04,304,-0.02,-0.7809999999999999,-0.07,-18.5638392,35.4088044,9.2819196,75.61326726,-0.15469866,-19.9962342
3.05,305,0.003,-0.758,-0.07,-16.615782,35.52339600000001,7.1046792000000005,75.45283902,-0.14323950000000002,-19.64100024
3.06,306,0.026000000000000002,-0.758,-0.064,-14.4958374,36.1536498,4.1825934,75.29814036,-0.10886202,-19.28576628
3.07,307,0.038,-0.7659999999999999,-0.059000000000000004,-14.209358400000001,35.9817624,1.9480572,75.14917127999998,-0.04583664,-18.9362619
3.08,308,0.042,-0.778,-0.067,-15.011499599999999,36.2109456,0.057295800000000015,74.99447262,0.028647900000000007,-18.58675752
3.09,309,0.042,-0.7859999999999999,-0.079,-17.0741484,37.1849742,-1.8334656000000005,74.81685564,0.13178034,-18.23725314
3.0999999999999996,310,0.032,-0.787,-0.085,-18.9649098,37.52874900000001,-3.9534102,74.63350908,0.25783110000000004,-17.88774876
3.11,311,0.017,-0.7759999999999999,-0.083,-19.194093,37.1849742,-6.5317212,74.43297378,0.40680018,-17.549703540000007
3.1199999999999997,312,0.006,-0.763,-0.069,-18.449247600000003,37.1276784,-9.2819196,74.24389764,0.5844171599999999,-17.22311748
3.13,313,-0.012,-0.755,-0.055,-17.5325148,37.757932200000006,-11.5737516,74.06628065999998,0.7849524600000001,-16.89080184
3.1399999999999997,314,-0.026000000000000002,-0.742,-0.06,-15.469866,39.9924684,-13.8082878,73.90585242,1.01413566,-16.54702704
3.15,315,-0.037000000000000005,-0.716,-0.065,-12.1467096,41.76863820000001,-15.2406828,73.79699040000001,1.25477802,-16.19179308
3.1599999999999997,316,-0.040999999999999995,-0.6859999999999999,-0.052000000000000005,-8.5370742,42.5134836,-16.1001198,73.71677628,1.5183387000000002,-15.83082954
3.17,317,-0.032,-0.66,-0.019,-6.3598338,41.4821592,-16.673077799999998,73.6537509,1.78189938,-15.48132516
3.1799999999999997,318,-0.016,-0.638,-0.01,-6.0733548,40.680018,-17.246035799999998,73.5964551,2.04546006,-15.13755036
3.19,319,0.012,-0.61,0.01,-6.0733548,40.1643558,-17.4179232,73.53915930000002,2.3147503200000004,-14.80523472
3.1999999999999997,320,0.055999999999999994,-0.595,0.021,-6.4744254,38.5600734,-17.3606274,73.49905224,2.58404058,-14.49010782
3.21,321,0.09699999999999999,-0.583,0.016,-6.6463128000000005,34.262888399999994,-16.673077799999998,73.44175643999998,2.83041252,-14.209358400000001
3.2199999999999998,322,0.13699999999999998,-0.588,0.024,-5.3858052,28.361421000000004,-15.6990492,73.3959198,3.05386614,-13.980175199999998
3.23,323,0.16399999999999998,-0.608,0.027000000000000003,-4.1252976000000015,24.0069402,-15.011499599999999,73.36154232,3.25440144,-13.796828639999998
3.2399999999999998,324,0.18600000000000005,-0.631,0.042,-2.86479,20.9702628,-14.381245800000002,73.33862400000002,3.4492071599999994,-13.636400400000001
3.25,325,0.205,-0.649,0.062,-2.0626488000000003,17.589810600000003,-13.5791046,73.36154232,3.66120162,-13.521808800000002
3.26,326,0.218,-0.66,0.066,-1.6615782,13.407217200000002,-12.6623718,73.35008316,3.81590028,-13.43013552
3.27,327,0.217,-0.6629999999999999,0.052000000000000005,-1.3178034,8.307891,-11.917526400000002,73.33862400000002,3.94768062,-13.38429888
3.28,328,0.188,-0.6629999999999999,0.012,-0.6302538000000001,1.8907614,-11.5164558,73.32716484,4.06227222,-13.39575804
3.29,329,0.147,-0.662,-0.040999999999999995,-0.9167328000000001,-4.297185,-11.745639,73.31570568,4.16540466,-13.47024258
3.3,330,0.132,-0.645,-0.084,-2.291832,-8.59437,-12.7196676,73.29278736,4.27999626,-13.596293340000004
3.31,331,0.14,-0.614,-0.08900000000000001,-2.291832,-12.4331886,-14.0947668,73.25840988,4.3831287,-13.75672158
3.32,332,0.168,-0.583,-0.059000000000000004,-3.4950437999999995,-15.068795399999999,-15.813640800000002,73.21257324000003,4.49199072,-13.945797720000002
3.33,333,0.18100000000000002,-0.539,-0.027000000000000003,-5.2139178,-17.9335854,-17.589810600000003,73.14381828,4.612311900000001,-14.16925134
3.34,334,0.162,-0.511,-0.01,-7.2765666,-20.9702628,-19.079501399999998,73.052145,4.73836266,-14.427082439999998
3.3499999999999996,335,0.129,-0.506,-0.033,-10.313244000000001,-22.4026578,-19.9389384,72.93182382,4.87587258,-14.70210228
3.36,336,0.122,-0.515,-0.105,-12.605075999999999,-24.1788276,-18.907614,72.78285473999998,4.99046418,-14.98858128
3.3699999999999997,337,0.132,-0.501,-0.158,-14.266654199999998,-24.809081399999997,-17.0741484,72.61669692,5.08786704,-15.28078986
3.38,338,0.12,-0.446,-0.15,-13.120738199999998,-24.5798982,-15.068795399999999,72.46199826,5.16235158,-15.561539280000002
3.3899999999999997,339,0.127,-0.402,0.037000000000000005,-12.6623718,-20.626488000000002,-13.5791046,72.31302918,5.231106540000001,-15.796452060000002
3.4,340,0.161,-0.349,0.22699999999999998,-14.209358400000001,-13.2353298,-11.802934800000001,72.192708,5.3285094000000015,-15.974069039999998
3.4099999999999997,341,0.133,-0.319,0.28800000000000003,-15.2406828,-13.120738199999998,-8.9381448,72.02655018,5.37434604,-16.1287677
3.42,342,0.053,-0.304,0.285,-15.183387000000002,-19.595163600000006,-4.1252976000000015,71.85466278,5.3571573,-16.329303000000003
3.4299999999999997,343,-0.052000000000000005,-0.327,0.364,-16.272007199999994,-33.804522,1.9480572,71.66558663999999,5.2425657,-16.6444299
3.44,344,-0.087,-0.40700000000000003,0.48700000000000004,-26.2987722,-45.4355694,7.9641161999999985,71.36764848,5.03630082,-17.05123008
3.4499999999999997,345,-0.063,-0.593,0.569,-37.7006364,-47.67010560000001,12.605075999999999,71.02960326,4.77274014,-17.48094858
3.46,346,0.055,-0.792,0.53,-62.5097178,-47.269035,17.5325148,70.37070156,4.45761324,-17.8762896
3.4699999999999998,347,0.259,-1.087,0.377,-89.6106312,-43.65939960000001,24.064236,69.4425096,4.08519054,-18.20860524
3.48,348,0.42200000000000004,-1.4280000000000002,0.2,-108.2317662,-41.0237928,30.080295,68.33097108000001,3.66120162,-18.49508424
3.4899999999999998,349,0.526,-1.8359999999999999,0.063,-129.8895786,-46.0658232,31.3980984,67.00170852,3.19710564,-18.81021114
3.5,350,0.552,-2.1109999999999998,-0.087,-158.2509996,-44.6334282,29.1062664,65.38596696,2.74446882,-19.11960846
3.51,351,0.391,-1.861,-0.247,-162.6054804,-34.8358464,20.454600600000006,63.73011834,2.40069402,-19.36025082
3.52,352,0.196,-1.422,-0.35700000000000004,-135.4472712,-17.8189938,1.3750992,62.35501913999999,2.29756158,-19.52067906
3.53,353,-0.013000000000000001,-1.155,-0.361,-116.596953,-11.2872726,-18.506543399999998,61.16326650000001,2.39496444,-19.71548478
3.54,354,-0.16899999999999998,-0.743,-0.24600000000000002,-146.5053606,-18.5638392,-25.7258142,59.66211654,2.51528562,-20.01342294
3.55,355,-0.251,-0.25,-0.239,-197.097552,-24.7517856,-18.907614,57.63957480000001,2.50955604,-20.32854984
3.56,356,-0.262,0.157,-0.336,-233.4230892,-20.9702628,-11.688343199999998,55.26179910000001,2.46944898,-20.58065136
3.57,357,-0.243,0.435,-0.27,-262.128285,-9.5111028,-4.9274388,52.5975444,2.41788276,-20.70097254
3.58,358,-0.233,0.391,-0.39799999999999996,-296.792244,2.5210152000000003,-2.8074942000000003,49.5895149,2.41788276,-20.70670212
3.59,359,-0.228,0.136,-0.754,-336.7274166,14.266654199999998,-4.8701430000000006,46.16895564,2.49809688,-20.64367674
3.5999999999999996,360,-0.14800000000000002,-0.18100000000000002,-1.1520000000000001,-363.5991468,27.559279800000002,-10.4851314,42.47337654,2.71009134,-20.52908514
3.61,361,0.031,-0.444,-1.758,-376.5479976,43.544808,-16.673077799999998,38.65174668,3.0825140400000004,-20.368656899999998
3.6199999999999997,362,0.418,-0.629,-2.338,-370.417347,48.8160216,-15.183387000000002,34.89887178,3.50077338,-20.19103992
3.63,363,0.754,-0.818,-2.87,-361.9948644,24.350715,-14.1520626,31.22048142,3.7242269999999995,-20.168121600000006
3.6399999999999997,364,0.066,-0.9279999999999999,-2.841,-358.385229,1.6615782,-9.6256944,27.58219812,3.73568616,-20.24260614
3.65,365,0.081,-0.713,-2.633,-344.46234960000015,9.568398599999998,-11.2872726,24.07569516,3.82162986,-20.28844278
3.6599999999999997,366,0.494,-0.316,-2.556,-361.3073148,-22.517249399999997,-5.3858052,20.40876396,3.58671708,-20.42022312
3.67,367,-0.157,0.213,-3.18,-402.9040656,-25.2674478,2.5783110000000002,16.317843840000002,3.2945085,-20.46033018
3.6799999999999997,368,-0.28300000000000003,0.775,-3.917,-376.3761102,-29.5646328,10.1986524,12.507673139999998,2.93927454,-20.4259527
3.69,369,-0.456,1.294,-3.9960000000000004,-320.16893039999997,-33.2888598,24.1788276,9.27046044,2.52674478,-20.24260614
3.6999999999999997,370,-0.287,1.99,-3.9960000000000004,-220.47423840000002,-3.7815228,26.1268848,7.0416538200000005,2.42934192,-19.97904546
3.71,371,0.055,2.214,-3.931,-131.89493159999998,21.600516600000002,11.5737516,5.70666168,2.6069589,-19.8243468
3.7199999999999998,372,0.319,1.739,-2.9139999999999997,-102.6167778,41.0237928,-3.1512689999999997,4.66387812,3.00229992,-19.80142848
3.73,373,-0.01,1.248,-1.929,-116.1385866,49.4462754,-10.5424272,3.47212548,3.48358464,-19.84726512
3.7399999999999998,374,-0.04,0.6940000000000001,-1.4280000000000002,-98.09040959999999,47.4409224,-22.345361999999998,2.45798982,3.94768062,-20.024882100000006
3.75,375,-0.062,0.233,-1.0959999999999999,-61.9367598,38.445481799999996,-29.8511118,1.7933585399999998,4.3201033199999985,-20.28844278
3.76,376,-0.096,-0.096,-0.991,-35.9244666,27.788463,-38.5027776,1.39801752,4.6008527400000006,-20.6551359
3.77,377,0.011000000000000001,-0.41700000000000004,-1.012,-16.7303736,21.199446,-46.982556,1.18602306,4.81857678,-21.10777272
3.78,378,0.16,-0.552,-1.043,-4.9847346,16.1001198,-47.67010560000001,1.0886202,4.99046418,-21.57759828
3.79,379,0.267,-0.529,-0.978,-8.880849000000003,3.6669312000000014,-35.8671708,0.96829902,5.03057124,-21.93283224
3.8,380,0.29600000000000004,-0.384,-0.8640000000000001,-17.8189938,-9.3392154,-20.2827132,0.8307891,4.99619376,-22.15628586
3.81,381,0.22899999999999998,-0.126,-0.812,-30.4813656,-12.9488508,-3.6669312000000014,0.5156622000000001,4.86441342,-22.19639292
3.82,382,0.08,0.161,-0.799,-41.4248634,-6.0160589999999985,7.906820400000001,0.10313244,4.80138804,-22.1161788
3.83,383,0.053,0.418,-0.7759999999999999,-48.7587258,-0.4583664000000001,10.4851314,-0.37815228,4.78992888,-22.007316780000004
3.84,384,-0.001,0.642,-0.6759999999999999,-57.2958,-4.1252976000000015,6.4744254,-0.95111028,4.74409224,-21.93856182
3.8499999999999996,385,-0.025,0.8240000000000001,-0.62,-64.62966239999999,-13.407217200000002,-1.7188740000000002,-1.6959556799999995,4.5836640000000015,-21.95002098
3.86,386,-0.019,1.032,-0.445,-57.2958,-28.418716800000002,-8.7089616,-2.28037284,4.297185000000002,-22.0302351
3.8699999999999997,387,-0.01,1.095,-0.15,-38.2162986,-20.9702628,-9.453807,-2.6699842800000004,4.0794609600000005,-22.1161788
3.88,388,-0.068,1.031,-0.135,-19.136797199999997,-7.5630456000000015,-8.4224826,-2.87051958,3.99924684,-22.19639292
3.8899999999999997,389,-0.066,0.8759999999999999,-0.22699999999999998,6.8182002000000015,-2.4064236,-8.078707799999998,-2.8074942000000003,3.97059894,-22.27660704
3.9,390,-0.079,0.6709999999999999,-0.251,30.93973200000001,-2.6356068,-6.1879464,-2.578311,3.93049188,-22.33963242
3.9099999999999997,391,-0.07,0.485,-0.18600000000000005,38.67466500000001,6.1879464,-3.3231564,-2.18869956,3.99351726,-22.3740099
3.92,392,-0.10400000000000001,0.41100000000000003,-0.22,35.8671708,15.6417534,-0.5156622000000001,-1.82773602,4.1539455,-22.38546906
3.9299999999999997,393,-0.159,0.414,-0.29100000000000004,36.7839036,21.142150199999996,2.9220858,-1.44958374,4.36593996,-22.35682116000001
3.94,394,-0.16,0.42200000000000004,-0.3720000000000001,40.33624320000001,26.1841806,5.5003968,-1.04278356,4.629500640000002,-22.30525494
3.9499999999999997,395,-0.08900000000000001,0.451,-0.544,41.76863820000001,24.2361234,6.0733548,-0.68182002,4.85295426,-22.23649998
3.96,396,-0.039,0.465,-0.8190000000000001,47.4409224,14.896907999999998,6.1879464,-0.19480572,5.0019233399999985,-22.17920418
3.9699999999999998,397,-0.044000000000000004,0.462,-1.011,51.7954032,3.8961144,7.448453999999999,0.33231564,5.04775998,-22.10471964000001
3.98,398,0.057,0.369,-1.062,53.628868800000006,3.0939732,12.5477802,0.8880849000000001,5.08213746,-21.98439846
3.9899999999999998,399,0.29,0.217,-1.21,51.10785360000001,7.5057497999999985,21.5432208,1.4209358399999998,5.16235158,-21.76667442
4.0,400,0.52,0.023,-1.3880000000000001,44.175061799999995,8.193299399999999,28.3041252,1.89649098,5.24829528,-21.49165458
4.01,401,0.62,-0.13699999999999998,-1.489,30.93973200000001,15.527161800000002,27.6738714,2.2345362,5.3972643599999985,-21.20517558
4.02,402,0.597,-0.17600000000000002,-1.5019999999999998,6.0733548,23.9496444,23.3766864,2.3204799,5.62644756,-20.95880364
4.03,403,0.462,-0.151,-1.484,-5.3858052,19.7097552,18.907614,2.28037284,5.80979412,-20.75253876
4.04,404,0.35700000000000004,-0.1,-1.393,-11.172680999999999,14.4958374,9.6256944,2.1772404,5.9473040400000015,-20.64940632
4.05,405,0.28,-0.06,-1.3030000000000002,-14.896907999999998,15.3552744,-2.291832,2.02254174,6.1077322800000005,-20.66659506
4.06,406,0.29100000000000004,-0.017,-1.252,-15.870936600000002,18.907614,-11.3445684,1.84492476,6.3025379999999975,-20.76399792
4.07,407,0.28,0.019,-1.1840000000000002,-14.7250206,18.162768600000003,-15.297978599999999,1.6787669399999998,6.48015498,-20.90723742
4.08,408,0.237,0.045,-1.07,-15.126091199999998,15.126091199999998,-15.3552744,1.50687954,6.63485364,-21.05047692
4.09,409,0.193,0.066,-0.922,-17.7044022,11.8602306,-13.464512999999998,1.31207382,6.7551748200000015,-21.17652768
4.1,410,0.142,0.086,-0.8109999999999999,-18.3919518,8.021412000000002,-11.802934800000001,1.08289062,6.83538894,-21.29111928
4.109999999999999,411,0.087,0.076,-0.752,-15.126091199999998,6.875496000000001,-11.45916,0.9167328,6.9041438999999984,-21.3999813
4.12,412,0.057,0.034,-0.731,-11.1153852,8.136003599999999,-11.401864199999999,0.7849524600000001,6.98435802,-21.5145729
4.13,413,0.053,-0.013000000000000001,-0.746,-7.5630456000000015,10.3705398,-9.7975818,0.69900876,7.0874904600000015,-21.60624618
4.14,414,0.052000000000000005,-0.042,-0.769,-4.9274388,12.261301199999998,-6.417129599999999,0.63598338,7.213541219999999,-21.66354198
4.1499999999999995,415,0.062,-0.047,-0.8059999999999999,-3.0366774,13.750992000000002,-2.291832,0.6073354799999999,7.328132819999999,-21.67500114
4.16,416,0.073,-0.03,-0.841,-0.9167328000000001,14.438541599999999,1.0313244000000001,0.59587632,7.47137232,-21.6578124
4.17,417,0.08900000000000001,0.0,-0.861,1.2605076000000002,14.610429000000002,3.5523396000000003,0.61306506,7.61461182,-21.61770534
4.18,418,0.105,0.03,-0.8740000000000001,4.8701430000000006,14.438541599999999,4.9274388,0.6703608600000001,7.75785132,-21.56040954
4.1899999999999995,419,0.114,0.051,-0.898,8.7662574,13.2926256,5.5576926,0.76776372,7.889631660000001,-21.50311374
4.2,420,0.138,0.059000000000000004,-0.9329999999999999,13.8655836,11.172680999999999,5.9014674000000005,0.8823553199999999,7.99849368,-21.44008836
4.21,421,0.16699999999999998,0.047,-0.9790000000000001,19.308684600000007,8.136003599999999,6.130650599999999,1.0886202,8.0787078,-21.37706298
4.22,422,0.19899999999999998,0.024,-1.016,23.0902074,4.297185,6.0733548,1.32926256,8.12454444,-21.314037600000002
4.2299999999999995,423,0.22699999999999998,-0.005,-1.032,25.4393352,-0.5156622000000001,5.6722842,1.59855282,8.11881486,-21.26247138
4.24,424,0.23399999999999999,-0.037000000000000005,-1.0270000000000001,26.9863218,-4.8701430000000006,5.2139178,1.87930224,8.07297822,-21.21090516
4.25,425,0.222,-0.084,-1.016,27.7311672,-7.906820400000001,4.583664,2.1772404,8.015682420000001,-21.18225726
4.26,426,0.212,-0.133,-1.024,26.642546999999997,-10.3705398,3.2085647999999996,2.45226024,7.91254998,-21.15360936
4.27,427,0.18899999999999997,-0.171,-1.036,23.5485738,-11.172680999999999,1.6615782,2.6929026,7.80941754,-21.14787978
4.28,428,0.166,-0.198,-1.052,19.308684600000007,-11.688343199999998,-0.2291832000000001,2.88770832,7.6948259399999985,-21.15933894
4.29,429,0.14400000000000002,-0.203,-1.06,15.183387000000002,-12.032118,-2.2345362,3.04240698,7.58023434,-21.19371642
4.3,430,0.113,-0.193,-1.042,10.828906199999999,-11.5737516,-4.1252976000000015,3.1799169000000003,7.448453999999999,-21.245282640000006
4.31,431,0.081,-0.17,-1.0190000000000001,6.417129599999999,-10.1986524,-5.5576926,3.24294228,7.3567807200000015,-21.30830802
4.32,432,0.064,-0.138,-1.0070000000000001,2.1772404,-8.479778399999999,-6.3025379999999975,3.25440144,7.2765666,-21.37706298
4.33,433,0.048,-0.10099999999999999,-0.9990000000000001,-1.0313244000000001,-7.333862400000001,-6.417129599999999,3.2372127,7.20781164,-21.44581794
4.34,434,0.039,-0.064,-0.9940000000000001,-4.0680017999999984,-5.6149884000000005,-5.3858052,3.1913760600000005,7.15051584,-21.50884332
4.35,435,0.038,-0.037000000000000005,-0.99,-6.3025379999999975,-3.1512689999999997,-4.1252976000000015,3.07678446,7.03592424,-21.52603206
4.36,436,0.046,-0.01,-0.993,-8.250595200000001,-0.5156622000000001,-2.9220858,2.98511118,7.030194660000001,-21.55467996
4.37,437,0.054000000000000006,0.016,-0.987,-9.167328,1.6042823999999998,-2.1772404,2.88770832,7.0473833999999975,-21.571868700000003
4.38,438,0.068,0.036000000000000004,-0.972,-9.167328,3.7815228,-2.1199446,2.79603504,7.08176088,-21.58905744
4.39,439,0.087,0.051,-0.9490000000000001,-8.7089616,5.9014674000000005,-2.5210152000000003,2.70436176,7.144786260000001,-21.61197576
4.3999999999999995,440,0.105,0.064,-0.938,-7.6776372,7.734933000000002,-3.1512689999999997,2.54393352,7.20781164,-21.63489408
4.41,441,0.125,0.073,-0.941,-6.130650599999999,9.0527364,-3.6669312000000014,2.48090814,7.29375534,-21.66354198
4.42,442,0.141,0.076,-0.948,-4.5263682,9.568398599999998,-3.7815228,2.42934192,7.3911582,-21.69791946
4.43,443,0.149,0.08199999999999999,-0.9540000000000001,-3.2658606,8.8235532,-3.3231564,2.38923486,7.477101899999999,-21.72083778
4.4399999999999995,444,0.154,0.08800000000000001,-0.9590000000000001,-1.6615782,7.8495246,-2.5210152000000003,2.36631654,7.55731602,-21.743756100000002
4.45,445,0.158,0.091,-0.956,0.5156622000000001,6.6463128000000005,-1.6042823999999998,2.18869956,7.64325972,-21.76667442
4.46,446,0.163,0.09,-0.9490000000000001,2.6356068,4.8128472,-0.40107059999999994,2.21161788,7.6948259399999985,-21.76667442
4.47,447,0.16399999999999998,0.085,-0.946,4.010706000000001,2.7501984,0.5156622000000001,2.25172494,7.72347384,-21.76094484
4.4799999999999995,448,0.162,0.08,-0.9520000000000001,4.9274388,0.572958,1.432395,2.30329116,7.72920342,-21.743756100000002
4.49,449,0.157,0.075,-0.9670000000000001,5.5576926,-0.8021411999999999,2.0626488000000003,2.36631654,7.717744259999999,-21.72656736
4.5,450,0.151,0.069,-0.977,6.0733548,-1.7188740000000002,2.5210152000000003,2.30329116,7.70055552,-21.70364904
4.51,451,0.147,0.061,-0.981,6.0733548,-2.0053530000000004,2.6929026,2.37204612,7.68336678,-21.68073072
4.52,452,0.14300000000000002,0.047,-0.987,5.5003968,-1.4896908000000002,2.3491277999999998,2.42934192,7.66617804,-21.6578124
4.53,453,0.136,0.028999999999999998,-0.9940000000000001,4.6409598,-0.40107059999999994,1.8907614,2.48090814,7.66044846,-21.64062366
4.54,454,0.133,0.013000000000000001,-1.003,4.0680017999999984,0.8594370000000001,1.3178034,2.5210152000000003,7.671907620000002,-21.6291645
4.55,455,0.132,-0.001,-1.013,3.4950437999999995,2.0053530000000004,0.9740286,2.47517856,7.66044846,-21.61197576
4.56,456,0.131,-0.018000000000000002,-1.016,2.6356068,2.8074942000000003,0.9167328000000001,2.50382646,7.6890963600000015,-21.600516600000002
4.57,457,0.134,-0.033,-1.0170000000000001,1.2605076000000002,3.3231564,1.0886202,2.51528562,7.72347384,-21.58332786
4.58,458,0.138,-0.043,-1.013,-0.6875496,3.3231564,1.3178034,2.50955604,7.75785132,-21.56613912
4.59,459,0.141,-0.045,-1.002,-1.8334656000000005,2.9220858,1.3750992,2.49809688,7.78649922,-21.55467996
4.6,460,0.145,-0.040999999999999995,-0.9890000000000001,-2.1199446,2.5210152000000003,1.2605076000000002,2.4350715000000003,7.815147120000002,-21.53749122
4.61,461,0.151,-0.033,-0.977,-1.9480572,2.3491277999999998,1.2032118,2.41788276,7.8323358600000015,-21.52603206
4.62,462,0.155,-0.022000000000000002,-0.972,-1.6042823999999998,2.4064236,1.0313244000000001,2.40069402,7.85525418,-21.5145729
4.63,463,0.161,-0.011000000000000001,-0.97,-1.3178034,2.2345362,0.9167328000000001,2.38923486,7.8781725000000025,-21.50311374
4.64,464,0.165,-0.003,-0.9690000000000001,-1.0313244000000001,1.7761698000000001,0.8021411999999999,2.3777757,7.89536124,-21.49165458
4.6499999999999995,465,0.166,0.002,-0.966,-0.8021411999999999,1.432395,0.572958,2.13713334,7.9927641000000005,-21.5145729
4.66,466,0.163,0.005,-0.961,-0.286479,0.9740286,0.3437748,2.13713334,8.00422326,-21.50884332
4.67,467,0.159,0.006999999999999999,-0.9640000000000001,0.3437748,0.8021411999999999,0.11459160000000004,2.13713334,8.00995284,-21.50884332
4.68,468,0.156,0.006999999999999999,-0.965,1.0886202,0.40107059999999994,0.0,2.1485925000000003,8.015682420000001,-21.50884332
4.6899999999999995,469,0.157,0.003,-0.966,1.3750992,0.11459160000000004,0.0,2.1657812400000003,8.015682420000001,-21.50884332
4.7,470,0.154,0.0,-0.9740000000000001,1.4896908000000002,0.0,0.1718874,1.8907614,8.03287116,-21.52030248
4.71,471,0.152,0.0,-0.9840000000000001,1.6615782,0.11459160000000004,0.1718874,1.90795014,8.03287116,-21.52030248
4.72,472,0.151,-0.002,-0.975,1.2032118,0.4583664000000001,0.11459160000000004,1.9194093000000003,8.03860074,-21.52030248
4.7299999999999995,473,0.14400000000000002,-0.006999999999999999,-0.968,0.3437748,0.3437748,0.0,1.92513888,8.044330319999998,-21.52030248
4.74,474,0.146,-0.002,-0.976,0.286479,0.057295800000000015,0.1718874,1.92513888,8.044330319999998,-21.5145729
4.75,475,0.153,0.002,-0.98,0.5156622000000001,-0.1718874,0.6302538000000001,1.59282324,8.0787078,-21.53176164
4.76,476,0.159,0.008,-0.98,1.0313244000000001,-0.11459160000000004,0.8021411999999999,1.6042824000000002,8.0787078,-21.52030248
4.77,477,0.16399999999999998,0.009000000000000001,-0.9890000000000001,1.432395,0.11459160000000004,0.8021411999999999,1.62147114,8.0787078,-21.5145729
4.78,478,0.16399999999999998,0.01,-0.997,1.432395,0.286479,0.4583664000000001,1.6329303,8.0787078,-21.50884332
4.79,479,0.162,0.011000000000000001,-0.9990000000000001,1.4896908000000002,0.057295800000000015,-0.11459160000000004,1.65011904,8.0787078,-21.50884332
4.8,480,0.161,0.011000000000000001,-0.9940000000000001,1.8334656000000005,-0.2291832000000001,-0.7448454000000001,1.50114996,8.10162612,-21.53176164
4.81,481,0.158,0.012,-0.986,1.9480572,-0.40107059999999994,-1.145916,1.5183387000000002,8.09589654,-21.5432208
4.82,482,0.155,0.013000000000000001,-0.98,1.4896908000000002,-0.3437748,-1.2032118,1.52979786,8.09589654,-21.55467996
4.83,483,0.152,0.015,-0.982,1.2605076000000002,-0.5156622000000001,-1.0313244000000001,1.5412570200000002,8.09016696,-21.56613912
4.84,484,0.14800000000000002,0.018000000000000002,-0.982,1.145916,-0.8594370000000001,-0.9740286,1.5527161800000002,8.08443738,-21.57759828
4.85,485,0.14300000000000002,0.018000000000000002,-0.9790000000000001,0.6875496,-1.0313244000000001,-0.8594370000000001,1.32353298,8.03287116,-21.58332786
4.86,486,0.141,0.016,-0.973,0.11459160000000004,-0.8594370000000001,-0.8021411999999999,1.32353298,8.02714158,-21.59478702
4.87,487,0.14,0.016,-0.97,-0.11459160000000004,-0.6302538000000001,-0.8021411999999999,1.32353298,8.015682420000001,-21.600516600000002
4.88,488,0.141,0.017,-0.9690000000000001,0.2291832000000001,-0.286479,-0.6302538000000001,1.32353298,8.015682420000001,-21.61197576
4.89,489,0.141,0.017,-0.968,0.4583664000000001,0.057295800000000015,-0.40107059999999994,1.32926256,8.015682420000001,-21.61197576
4.8999999999999995,490,0.14400000000000002,0.016,-0.9740000000000001,0.6302538000000001,0.6302538000000001,-0.057295800000000015,1.0255948199999998,8.00422326,-21.61770534
4.91,491,0.147,0.016,-0.98,0.6302538000000001,0.9167328000000001,0.2291832000000001,1.0313244000000001,8.00995284,-21.61770534
4.92,492,0.147,0.013000000000000001,-0.985,0.4583664000000001,0.9167328000000001,0.286479,1.03705398,8.021412,-21.61197576
4.93,493,0.146,0.009000000000000001,-0.986,0.40107059999999994,1.0886202,0.2291832000000001,1.04278356,8.03287116,-21.61197576
4.9399999999999995,494,0.146,0.003,-0.9840000000000001,0.6302538000000001,0.9740286,0.2291832000000001,1.04851314,8.044330319999998,-21.60624618
4.95,495,0.145,-0.002,-0.981,0.9167328000000001,0.8594370000000001,0.0,0.90527364,8.021412,-21.60624618
4.96,496,0.14400000000000002,-0.008,-0.981,1.0886202,0.7448454000000001,0.0,0.9167328,8.03287116,-21.60624618
4.97,497,0.14400000000000002,-0.012,-0.9840000000000001,1.0886202,0.6875496,-0.057295800000000015,0.92819196,8.03860074,-21.60624618
4.9799999999999995,498,0.145,-0.012,-0.986,0.8594370000000001,0.5156622000000001,0.0,0.93965112,8.044330319999998,-21.60624618
4.99,499,0.146,-0.011000000000000001,-0.987,0.6875496,0.286479,0.1718874,0.9453807,8.044330319999998,-21.600516600000002
5.0,500,0.146,-0.009000000000000001,-0.9840000000000001,0.6302538000000001,-0.057295800000000015,0.286479,0.7849524600000001,8.03287116,-21.600516600000002
5.01,501,0.146,-0.008,-0.982,0.6875496,-0.5156622000000001,0.286479,0.7906820400000001,8.02714158,-21.600516600000002
5.02,502,0.145,-0.008,-0.977,0.6875496,-0.6875496,0.3437748,0.8021412000000001,8.021412,-21.59478702
5.03,503,0.14400000000000002,-0.006999999999999999,-0.9740000000000001,0.7448454000000001,-0.6302538000000001,0.4583664000000001,0.8078707799999998,8.015682420000001,-21.58905744
5.04,504,0.141,-0.005,-0.9740000000000001,0.572958,-0.286479,0.5156622000000001,0.8136003599999999,8.00995284,-21.58332786
5.05,505,0.14,-0.003,-0.9790000000000001,0.40107059999999994,0.11459160000000004,0.572958,0.63598338,7.9641161999999985,-21.571868700000003
5.06,506,0.139,-0.001,-0.983,0.1718874,0.572958,0.5156622000000001,0.64171296,7.96984578,-21.56613912
5.07,507,0.14,0.001,-0.986,-0.057295800000000015,0.8021411999999999,0.3437748,0.64171296,7.9813049399999985,-21.56613912
5.08,508,0.142,0.003,-0.986,-0.3437748,0.8021411999999999,0.1718874,0.63598338,7.987034519999999,-21.56040954
5.09,509,0.146,0.004,-0.982,-0.6875496,0.572958,0.0,0.6302538000000001,7.9927641000000005,-21.56040954
5.1,510,0.151,0.004,-0.983,-0.8021411999999999,0.1718874,0.057295800000000015,0.3724227000000001,8.03287116,-21.57759828
5.11,511,0.156,0.006,-0.982,-1.145916,-0.5156622000000001,0.1718874,0.36096354,8.02714158,-21.57759828
5.12,512,0.158,0.006,-0.9790000000000001,-1.8907614,-1.9480572,0.3437748,0.33804522,8.00422326,-21.571868700000003
5.13,513,0.158,0.005,-0.976,-2.86479,-3.380452200000001,0.6875496,0.30939732,7.975575359999999,-21.56613912
5.14,514,0.155,0.01,-0.983,-3.4950437999999995,-4.6409598,0.9740286,0.28074942,7.92400914,-21.56040954
5.1499999999999995,515,0.151,0.015,-0.988,-3.3231564,-4.8701430000000006,1.2032118,0.21199446,7.8781725000000025,-21.54895038
5.16,516,0.14800000000000002,0.019,-0.991,-2.6929026,-4.1825934,1.145916,0.18907614,7.838065440000001,-21.53749122
5.17,517,0.146,0.023,-0.99,-2.0053530000000004,-3.2658606,1.0313244000000001,0.16615782,7.80368796,-21.52603206
5.18,518,0.147,0.025,-0.988,-1.2605076000000002,-2.5210152000000003,0.8594370000000001,0.15469866,7.780769640000001,-21.52030248
5.1899999999999995,519,0.14800000000000002,0.023,-0.985,-0.7448454000000001,-1.8907614,0.572958,0.14896908,7.75785132,-21.5145729
5.2,520,0.15,0.02,-0.981,-0.3437748,-1.7188740000000002,0.3437748,0.00572958,7.763580899999999,-21.52030248
5.21,521,0.149,0.015,-0.9790000000000001,-0.11459160000000004,-1.6042823999999998,0.0,0.00572958,7.75212174,-21.52030248
5.22,522,0.14800000000000002,0.009000000000000001,-0.9790000000000001,0.0,-1.3178034,-0.2291832000000001,0.00572958,7.734933000000002,-21.52603206
5.2299999999999995,523,0.145,0.006999999999999999,-0.98,0.0,-0.8594370000000001,-0.40107059999999994,0.00572958,7.72920342,-21.53176164
5.24,524,0.14300000000000002,0.006,-0.9790000000000001,0.057295800000000015,-0.1718874,-0.3437748,0.00572958,7.72347384,-21.53176164
5.25,525,0.14,0.006,-0.982,0.057295800000000015,0.6875496,-0.2291832000000001,-0.15469866,7.71201468,-21.53749122
5.26,526,0.142,0.006999999999999999,-0.983,-0.1718874,1.3178034,0.0,-0.16042824,7.72347384,-21.53749122
5.27,527,0.147,0.006999999999999999,-0.982,-0.286479,1.432395,0.1718874,-0.16042824,7.734933000000002,-21.53176164
5.28,528,0.152,0.008,-0.981,-0.40107059999999994,1.2605076000000002,0.40107059999999994,-0.16615782,7.75212174,-21.52603206
5.29,529,0.155,0.008,-0.975,-0.1718874,1.2605076000000002,0.3437748,-0.16615782,7.763580899999999,-21.52603206
5.3,530,0.153,0.005,-0.96,-0.2291832000000001,1.3750992,0.11459160000000004,-0.24064236,7.80941754,-21.53176164
5.31,531,0.147,0.003,-0.9620000000000001,-0.286479,1.3178034,-0.11459160000000004,-0.24637194,7.82660628,-21.53176164
5.32,532,0.14400000000000002,0.004,-0.9690000000000001,0.3437748,0.8594370000000001,-0.2291832000000001,-0.24064236,7.8323358600000015,-21.53749122
5.33,533,0.145,0.006999999999999999,-0.972,0.6302538000000001,0.4583664000000001,-0.1718874,-0.23491278,7.838065440000001,-21.53749122
5.34,534,0.147,0.009000000000000001,-0.975,0.572958,0.1718874,0.057295800000000015,-0.22918320000000006,7.838065440000001,-21.53749122
5.35,535,0.146,0.006,-0.983,0.3437748,0.2291832000000001,0.3437748,-0.36669312,7.8495246,-21.53749122
5.36,536,0.14400000000000002,0.004,-0.991,0.572958,0.2291832000000001,0.40107059999999994,-0.35523396,7.8495246,-21.53749122
5.37,537,0.139,0.0,-0.995,1.3178034,0.0,0.2291832000000001,-0.3437748,7.8495246,-21.53176164
5.38,538,0.136,-0.003,-0.9940000000000001,2.1772404,-0.6302538000000001,-0.057295800000000015,-0.32085648,7.84379502,-21.53176164
5.39,539,0.135,-0.006999999999999999,-0.9890000000000001,2.1772404,-0.8021411999999999,-0.4583664000000001,-0.29793816,7.838065440000001,-21.53749122
5.3999999999999995,540,0.135,-0.006999999999999999,-0.9840000000000001,1.145916,-0.8594370000000001,-0.572958,-0.31512690000000004,7.80368796,-21.5432208
5.41,541,0.135,-0.004,-0.9790000000000001,-0.11459160000000004,-1.2032118,-0.4583664000000001,-0.31512690000000004,7.792228800000001,-21.54895038
5.42,542,0.135,0.002,-0.972,-1.5469866,-1.9480572,-0.3437748,-0.33231564,7.7750400599999985,-21.54895038
5.43,543,0.134,0.011000000000000001,-0.9690000000000001,-2.5210152000000003,-2.6929026,-0.2291832000000001,-0.36096354,7.746392160000001,-21.55467996
5.4399999999999995,544,0.131,0.02,-0.9740000000000001,-2.5783110000000002,-2.6929026,-0.3437748,-0.38961144,7.717744259999999,-21.56040954
5.45,545,0.129,0.026000000000000002,-0.98,-1.8334656000000005,-1.8334656000000005,-0.4583664000000001,-0.49274388,7.677637200000001,-21.56040954
5.46,546,0.131,0.027999999999999997,-0.983,-0.6875496,-0.6875496,-0.572958,-0.5042030399999999,7.66617804,-21.56613912
5.47,547,0.133,0.027000000000000003,-0.9840000000000001,0.057295800000000015,-0.11459160000000004,-0.4583664000000001,-0.5042030399999999,7.66617804,-21.571868700000003
5.4799999999999995,548,0.136,0.026000000000000002,-0.9840000000000001,0.40107059999999994,-0.057295800000000015,-0.40107059999999994,-0.4984734599999999,7.66617804,-21.57759828
5.49,549,0.139,0.022000000000000002,-0.983,0.6302538000000001,0.0,-0.286479,-0.49274388,7.66617804,-21.57759828
5.5,550,0.14,0.016,-0.9840000000000001,0.7448454000000001,0.0,-0.1718874,-0.63598338,7.65471888,-21.58332786
5.51,551,0.142,0.011000000000000001,-0.987,0.8594370000000001,0.1718874,-0.1718874,-0.62452422,7.65471888,-21.58905744
5.52,552,0.145,0.006999999999999999,-0.988,0.9167328000000001,0.057295800000000015,-0.11459160000000004,-0.61879464,7.66044846,-21.58905744
5.53,553,0.146,0.003,-0.9840000000000001,0.9167328000000001,0.11459160000000004,-0.057295800000000015,-0.6073354799999999,7.66044846,-21.58905744
5.54,554,0.146,0.003,-0.982,0.8021411999999999,0.3437748,-0.057295800000000015,-0.6016058999999999,7.66617804,-21.58905744
5.55,555,0.145,0.005,-0.985,0.8594370000000001,0.5156622000000001,0.057295800000000015,-0.64744254,7.68336678,-21.59478702
5.56,556,0.142,0.005,-0.982,0.8021411999999999,0.6875496,0.2291832000000001,-0.63598338,7.6890963600000015,-21.58905744
5.57,557,0.14,0.006999999999999999,-0.98,0.8021411999999999,0.8021411999999999,0.1718874,-0.6302538000000001,7.6948259399999985,-21.58905744
5.58,558,0.139,0.006999999999999999,-0.977,0.8021411999999999,0.9740286,0.2291832000000001,-0.61879464,7.7062851,-21.58905744
5.59,559,0.139,0.006999999999999999,-0.975,0.9740286,1.2032118,0.11459160000000004,-0.6073354799999999,7.717744259999999,-21.58332786
5.6,560,0.141,0.006,-0.975,1.0313244000000001,1.432395,0.057295800000000015,-0.63598338,7.734933000000002,-21.58332786
5.61,561,0.146,0.005,-0.976,1.0886202,1.6042823999999998,0.057295800000000015,-0.62452422,7.75212174,-21.58332786
5.62,562,0.14800000000000002,0.006,-0.98,0.9167328000000001,1.6615782,0.1718874,-0.61306506,7.76931048,-21.58332786
5.63,563,0.15,0.006999999999999999,-0.9790000000000001,0.8021411999999999,1.7761698000000001,0.286479,-0.6073354799999999,7.78649922,-21.57759828
5.64,564,0.152,0.006999999999999999,-0.9790000000000001,0.7448454000000001,1.6615782,0.40107059999999994,-0.59587632,7.80368796,-21.57759828
5.6499999999999995,565,0.152,0.006,-0.977,0.8021411999999999,1.7188740000000002,0.3437748,-0.61879464,7.838065440000001,-21.57759828
5.66,566,0.151,0.006,-0.975,0.9167328000000001,1.6615782,0.3437748,-0.6073354799999999,7.85525418,-21.571868700000003
5.67,567,0.152,0.006,-0.976,1.0886202,1.6615782,0.286479,-0.59587632,7.87244292,-21.56613912
5.68,568,0.152,0.006999999999999999,-0.977,1.2605076000000002,1.7188740000000002,0.2291832000000001,-0.5844171599999999,7.889631660000001,-21.56613912
5.6899999999999995,569,0.153,0.008,-0.9790000000000001,1.0886202,1.432395,0.3437748,-0.5729580000000001,7.906820399999999,-21.56040954
5.7,570,0.153,0.01,-0.976,0.6302538000000001,1.0313244000000001,0.4583664000000001,-0.63598338,7.94119788,-21.56613912
5.71,571,0.152,0.01,-0.975,0.1718874,0.6302538000000001,0.4583664000000001,-0.63598338,7.94692746,-21.56040954
5.72,572,0.149,0.01,-0.975,0.0,0.40107059999999994,0.4583664000000001,-0.63598338,7.95265704,-21.55467996
5.7299999999999995,573,0.14400000000000002,0.01,-0.9740000000000001,0.1718874,0.4583664000000001,0.3437748,-0.6302538000000001,7.9583866200000015,-21.54895038
5.74,574,0.142,0.009000000000000001,-0.975,0.4583664000000001,0.572958,0.057295800000000015,-0.6302538000000001,7.9641161999999985,-21.54895038
5.75,575,0.141,0.006999999999999999,-0.978,0.6875496,0.7448454000000001,-0.057295800000000015,-0.67609044,7.95265704,-21.54895038
5.76,576,0.141,0.006999999999999999,-0.98,0.572958,0.9167328000000001,-0.057295800000000015,-0.6703608600000001,7.9583866200000015,-21.54895038
5.77,577,0.146,0.009000000000000001,-0.9840000000000001,0.2291832000000001,0.8594370000000001,0.057295800000000015,-0.66463128,7.96984578,-21.54895038
5.78,578,0.14800000000000002,0.011000000000000001,-0.9790000000000001,-0.2291832000000001,0.3437748,0.3437748,-0.6703608600000001,7.975575359999999,-21.54895038
5.79,579,0.14800000000000002,0.01,-0.975,-1.145916,0.0,0.4583664000000001,-0.68182002,7.975575359999999,-21.5432208
5.8,580,0.14300000000000002,0.011000000000000001,-0.971,-1.8334656000000005,-0.1718874,0.286479,-0.7448454000000001,7.9583866200000015,-21.53749122
5.81,581,0.139,0.012,-0.976,-1.8334656000000005,-0.057295800000000015,-0.1718874,-0.76203414,7.9583866200000015,-21.53749122
5.82,582,0.14,0.009000000000000001,-0.976,-1.2032118,-0.057295800000000015,-0.5156622000000001,-0.7734933,7.9583866200000015,-21.5432208
5.83,583,0.142,0.006999999999999999,-0.9790000000000001,-0.4583664000000001,0.0,-0.6302538000000001,-0.7792228800000001,7.9583866200000015,-21.54895038
5.84,584,0.14300000000000002,0.008,-0.98,-0.057295800000000015,0.057295800000000015,-0.5156622000000001,-0.7849524600000001,7.9583866200000015,-21.55467996
5.85,585,0.147,0.009000000000000001,-0.968,0.0,0.1718874,-0.40107059999999994,-0.87662574,7.975575359999999,-21.56613912
5.86,586,0.14300000000000002,0.01,-0.958,-0.4583664000000001,0.057295800000000015,-0.40107059999999994,-0.8823553199999999,7.975575359999999,-21.571868700000003
5.87,587,0.141,0.011000000000000001,-0.9590000000000001,-0.1718874,-0.057295800000000015,-0.40107059999999994,-0.8880849000000001,7.975575359999999,-21.57759828
5.88,588,0.14300000000000002,0.01,-0.963,0.8021411999999999,-0.1718874,-0.40107059999999994,-0.87662574,7.96984578,-21.58332786
5.89,589,0.149,0.012,-0.966,1.432395,0.0,-0.3437748,-0.86516658,7.96984578,-21.58332786
5.8999999999999995,590,0.152,0.009000000000000001,-0.9740000000000001,1.6042823999999998,0.0,-0.1718874,-0.8880849000000001,7.9927641000000005,-21.59478702
5.91,591,0.154,0.006999999999999999,-0.983,1.3178034,-0.057295800000000015,-0.11459160000000004,-0.87662574,7.9927641000000005,-21.59478702
5.92,592,0.152,0.005,-0.993,1.2605076000000002,-0.5156622000000001,-0.057295800000000015,-0.86516658,7.987034519999999,-21.59478702
5.93,593,0.15,0.0,-0.995,1.5469866,-1.145916,0.0,-0.8479778399999999,7.975575359999999,-21.59478702
5.9399999999999995,594,0.149,-0.003,-0.988,1.7761698000000001,-1.6615782,0.0,-0.8307891,7.9583866200000015,-21.59478702
5.95,595,0.14800000000000002,-0.006999999999999999,-0.983,1.3750992,-1.432395,-0.057295800000000015,-0.8136003599999999,7.94692746,-21.600516600000002
5.96,596,0.147,-0.006,-0.983,0.8021411999999999,-1.145916,-0.1718874,-0.8078707799999998,7.935468299999997,-21.600516600000002
5.97,597,0.145,0.0,-0.983,0.3437748,-0.8594370000000001,-0.1718874,-0.8021412000000001,7.929738719999999,-21.600516600000002
5.9799999999999995,598,0.142,0.005,-0.985,0.1718874,-0.5156622000000001,-0.40107059999999994,-0.8021412000000001,7.92400914,-21.60624618
5.99,599,0.141,0.012,-0.983,0.11459160000000004,-0.2291832000000001,-0.4583664000000001,-0.8021412000000001,7.918279559999997,-21.61197576
6.0,600,0.14,0.017,-0.98,-0.057295800000000015,0.0,-0.40107059999999994,-1.0026765,7.866713339999999,-21.61770534
6.01,601,0.142,0.02,-0.9790000000000001,-0.1718874,0.11459160000000004,-0.1718874,-1.0026765,7.87244292,-21.61770534
6.02,602,0.14400000000000002,0.021,-0.981,-0.1718874,0.2291832000000001,0.057295800000000015,-1.0026765,7.87244292,-21.61770534
6.03,603,0.145,0.019,-0.982,0.0,0.1718874,0.2291832000000001,-1.0026765,7.87244292,-21.61770534
6.04,604,0.147,0.018000000000000002,-0.981,0.2291832000000001,-0.11459160000000004,0.3437748,-1.0026765,7.87244292,-21.61197576
6.05,605,0.14800000000000002,0.016,-0.98,0.11459160000000004,0.0,0.286479,-1.1745639,7.90109082,-21.62343492
6.06,606,0.149,0.015,-0.981,0.0,0.0,0.286479,-1.1745639,7.90109082,-21.61770534
6.07,607,0.15,0.011000000000000001,-0.9840000000000001,-0.11459160000000004,0.057295800000000015,0.2291832000000001,-1.1745639,7.90109082,-21.61770534
6.08,608,0.149,0.01,-0.983,-0.057295800000000015,-0.286479,0.1718874,-1.1745639,7.89536124,-21.61197576
6.09,609,0.14800000000000002,0.009000000000000001,-0.98,0.0,-0.4583664000000001,0.11459160000000004,-1.1745639,7.89536124,-21.61197576
6.1,610,0.147,0.008,-0.978,-0.057295800000000015,-0.4583664000000001,0.0,-1.23758928,7.90109082,-21.61770534
6.11,611,0.146,0.009000000000000001,-0.977,0.0,-0.6875496,0.0,-1.23758928,7.89536124,-21.61770534
6.12,612,0.145,0.01,-0.978,0.057295800000000015,-0.6302538000000001,0.0,-1.23758928,7.889631660000001,-21.61770534
6.13,613,0.14300000000000002,0.01,-0.977,0.1718874,-0.7448454000000001,0.1718874,-1.23758928,7.88390208,-21.61770534
6.14,614,0.14300000000000002,0.009000000000000001,-0.976,0.2291832000000001,-0.8594370000000001,0.286479,-1.2318597,7.87244292,-21.61770534
6.15,615,0.141,0.006999999999999999,-0.975,0.40107059999999994,-1.0313244000000001,0.1718874,-1.24331886,7.85525418,-21.61197576
6.16,616,0.139,0.004,-0.975,0.6302538000000001,-1.2032118,0.2291832000000001,-1.23758928,7.84379502,-21.61197576
6.17,617,0.14,0.0,-0.977,0.6302538000000001,-1.145916,0.11459160000000004,-1.22613012,7.8323358600000015,-21.60624618
6.18,618,0.139,0.0,-0.981,0.40107059999999994,-0.6875496,0.0,-1.22613012,7.820876699999999,-21.60624618
6.1899999999999995,619,0.141,0.0,-0.985,0.1718874,-0.572958,0.0,-1.22040054,7.815147120000002,-21.60624618
6.2,620,0.141,0.002,-0.985,-0.11459160000000004,-0.4583664000000001,-0.11459160000000004,-1.2318597,7.79795838,-21.60624618
6.21,621,0.141,0.004,-0.982,-0.572958,-0.40107059999999994,-0.057295800000000015,-1.23758928,7.792228800000001,-21.61197576
6.22,622,0.141,0.005,-0.9790000000000001,-0.7448454000000001,-0.11459160000000004,-0.057295800000000015,-1.24904844,7.792228800000001,-21.61197576
6.2299999999999995,623,0.142,0.006999999999999999,-0.9790000000000001,-0.6875496,-0.11459160000000004,0.0,-1.25477802,7.792228800000001,-21.61197576
6.24,624,0.141,0.008,-0.978,-0.40107059999999994,-0.11459160000000004,0.0,-1.2605076000000002,7.792228800000001,-21.61197576
6.25,625,0.142,0.011000000000000001,-0.98,-0.1718874,-0.11459160000000004,-0.057295800000000015,-1.4896908000000002,7.78649922,-21.62343492
6.26,626,0.14300000000000002,0.013999999999999999,-0.978,-0.11459160000000004,0.0,0.0,-1.4896908000000002,7.78649922,-21.62343492
6.27,627,0.145,0.017,-0.977,-0.286479,0.057295800000000015,0.0,-1.49542038,7.78649922,-21.62343492
6.28,628,0.145,0.02,-0.977,-0.3437748,0.0,0.0,-1.50114996,7.78649922,-21.62343492
6.29,629,0.145,0.02,-0.976,-0.11459160000000004,-0.2291832000000001,0.11459160000000004,-1.50114996,7.780769640000001,-21.62343492
6.3,630,0.145,0.018000000000000002,-0.975,0.0,-0.40107059999999994,0.2291832000000001,-1.5412570200000002,7.78649922,-21.62343492
6.31,631,0.146,0.016,-0.973,0.286479,-0.7448454000000001,0.2291832000000001,-1.5412570200000002,7.7750400599999985,-21.62343492
6.32,632,0.145,0.013000000000000001,-0.973,0.286479,-0.5156622000000001,0.286479,-1.53552744,7.7750400599999985,-21.61770534
6.33,633,0.146,0.013999999999999999,-0.977,0.4583664000000001,-0.4583664000000001,0.286479,-1.52979786,7.76931048,-21.61197576
6.34,634,0.146,0.013000000000000001,-0.983,0.5156622000000001,-0.286479,0.3437748,-1.52406828,7.763580899999999,-21.61197576
6.35,635,0.146,0.015,-0.985,0.6302538000000001,-0.1718874,0.3437748,-1.55844576,7.76931048,-21.61197576
6.36,636,0.142,0.016,-0.986,0.6875496,0.0,0.286479,-1.5469866,7.76931048,-21.60624618
6.37,637,0.14,0.012,-0.983,0.6875496,0.057295800000000015,0.2291832000000001,-1.5412570200000002,7.76931048,-21.60624618
6.38,638,0.141,0.01,-0.983,0.7448454000000001,0.1718874,0.11459160000000004,-1.53552744,7.7750400599999985,-21.600516600000002
6.39,639,0.14,0.006999999999999999,-0.985,0.6302538000000001,0.2291832000000001,0.2291832000000001,-1.52406828,7.7750400599999985,-21.600516600000002
6.4,640,0.141,0.006,-0.983,0.7448454000000001,0.40107059999999994,0.40107059999999994,-1.5183387000000002,7.780769640000001,-21.59478702
6.41,641,0.141,0.004,-0.9740000000000001,0.286479,0.6875496,0.40107059999999994,-1.5183387000000002,7.78649922,-21.59478702
6.42,642,0.13699999999999998,0.005,-0.9740000000000001,-0.286479,0.572958,0.5156622000000001,-1.5183387000000002,7.792228800000001,-21.58905744
6.43,643,0.135,0.005,-0.978,-0.057295800000000015,0.1718874,0.4583664000000001,-1.5183387000000002,7.79795838,-21.58332786
6.4399999999999995,644,0.13699999999999998,0.006,-0.977,0.2291832000000001,-0.2291832000000001,0.40107059999999994,-1.5183387000000002,7.792228800000001,-21.57759828
6.45,645,0.139,0.004,-0.976,0.1718874,-0.1718874,0.3437748,-1.51260912,7.780769640000001,-21.571868700000003
6.46,646,0.141,0.004,-0.98,0.057295800000000015,0.1718874,0.2291832000000001,-1.51260912,7.78649922,-21.571868700000003
6.47,647,0.142,0.003,-0.986,0.0,0.4583664000000001,0.11459160000000004,-1.51260912,7.792228800000001,-21.56613912
6.4799999999999995,648,0.142,0.006,-0.988,0.11459160000000004,0.40107059999999994,0.0,-1.50687954,7.792228800000001,-21.56613912
6.49,649,0.141,0.009000000000000001,-0.986,0.3437748,0.286479,-0.2291832000000001,-1.50687954,7.79795838,-21.571868700000003
6.5,650,0.14,0.01,-0.985,0.5156622000000001,0.0,-0.40107059999999994,-1.52406828,7.78649922,-21.571868700000003
6.51,651,0.14,0.012,-0.982,0.2291832000000001,-0.057295800000000015,-0.40107059999999994,-1.5183387000000002,7.78649922,-21.57759828
6.52,652,0.139,0.013999999999999999,-0.981,0.0,0.0,-0.286479,-1.5183387000000002,7.78649922,-21.58332786
6.53,653,0.13699999999999998,0.016,-0.981,0.057295800000000015,0.0,-0.11459160000000004,-1.5183387000000002,7.78649922,-21.58332786
6.54,654,0.13699999999999998,0.018000000000000002,-0.981,0.11459160000000004,0.11459160000000004,-0.057295800000000015,-1.5183387000000002,7.78649922,-21.58332786
6.55,655,0.13699999999999998,0.019,-0.981,0.1718874,0.40107059999999994,-0.057295800000000015,-1.56990492,7.76931048,-21.58332786
6.56,656,0.139,0.021,-0.98,0.286479,0.5156622000000001,-0.057295800000000015,-1.56417534,7.7750400599999985,-21.58332786
6.57,657,0.141,0.019,-0.977,0.4583664000000001,0.6302538000000001,-0.11459160000000004,-1.55844576,7.780769640000001,-21.58905744
6.58,658,0.14300000000000002,0.017,-0.975,0.8021411999999999,0.9167328000000001,-0.057295800000000015,-1.5527161800000002,7.792228800000001,-21.58905744
6.59,659,0.14400000000000002,0.013999999999999999,-0.975,0.9740286,0.8594370000000001,0.0,-1.5412570200000002,7.79795838,-21.58905744
6.6,660,0.14400000000000002,0.011000000000000001,-0.9740000000000001,0.8594370000000001,0.8021411999999999,-0.057295800000000015,-1.5469866,7.80941754,-21.58905744
6.61,661,0.145,0.009000000000000001,-0.9740000000000001,0.6875496,0.8594370000000001,-0.057295800000000015,-1.5412570200000002,7.815147120000002,-21.58905744
6.62,662,0.14400000000000002,0.008,-0.98,0.40107059999999994,1.0886202,-0.286479,-1.53552744,7.82660628,-21.59478702
6.63,663,0.14300000000000002,0.006,-0.9840000000000001,0.11459160000000004,0.9740286,-0.40107059999999994,-1.53552744,7.838065440000001,-21.600516600000002
6.64,664,0.14400000000000002,0.006,-0.9840000000000001,-0.057295800000000015,0.6302538000000001,-0.3437748,-1.53552744,7.84379502,-21.600516600000002
6.65,665,0.14400000000000002,0.005,-0.983,-0.11459160000000004,0.4583664000000001,-0.40107059999999994,-1.5412570200000002,7.84379502,-21.60624618
6.66,666,0.14400000000000002,0.006,-0.983,-0.057295800000000015,0.286479,-0.1718874,-1.5469866,7.84379502,-21.60624618
6.67,667,0.14400000000000002,0.005,-0.983,0.0,0.057295800000000015,0.0,-1.5469866,7.84379502,-21.60624618
6.68,668,0.142,0.005,-0.983,0.0,-0.11459160000000004,0.286479,-1.5469866,7.84379502,-21.60624618
6.6899999999999995,669,0.141,0.005,-0.983,-0.1718874,-0.1718874,0.40107059999999994,-1.5469866,7.84379502,-21.600516600000002
6.7,670,0.14300000000000002,0.008,-0.981,-0.3437748,-0.2291832000000001,0.4583664000000001,-1.5527161800000002,7.838065440000001,-21.59478702
6.71,671,0.142,0.008,-0.9790000000000001,-0.40107059999999994,-0.286479,0.4583664000000001,-1.55844576,7.8323358600000015,-21.58905744
6.72,672,0.14300000000000002,0.009000000000000001,-0.9790000000000001,-0.2291832000000001,-0.2291832000000001,0.2291832000000001,-1.55844576,7.8323358600000015,-21.58905744
6.7299999999999995,673,0.142,0.008,-0.9790000000000001,0.057295800000000015,-0.2291832000000001,0.057295800000000015,-1.55844576,7.8323358600000015,-21.58905744
6.74,674,0.141,0.006999999999999999,-0.981,0.2291832000000001,-0.286479,-0.057295800000000015,-1.55844576,7.82660628,-21.58905744
6.75,675,0.14,0.008,-0.981,0.1718874,-0.11459160000000004,-0.11459160000000004,-1.56990492,7.80941754,-21.58905744
6.76,676,0.14,0.006999999999999999,-0.982,0.2291832000000001,-0.1718874,-0.057295800000000015,-1.56417534,7.80368796,-21.58905744
6.77,677,0.14,0.006999999999999999,-0.981,0.2291832000000001,-0.40107059999999994,-0.11459160000000004,-1.56417534,7.79795838,-21.58905744
6.78,678,0.14,0.008,-0.982,0.1718874,-0.4583664000000001,-0.11459160000000004,-1.55844576,7.79795838,-21.58905744
6.79,679,0.139,0.01,-0.981,0.11459160000000004,-0.4583664000000001,-0.057295800000000015,-1.55844576,7.792228800000001,-21.58905744
6.8,680,0.14,0.012,-0.983,0.11459160000000004,-0.40107059999999994,0.0,-1.6157415599999996,7.76931048,-21.59478702
