TimeStamp(s),FrameCounter,AccX,AccY,AccZ,GyrX,GyrY,GyrZ,EulerX,EulerY,EulerZ
0.01,1,-0.063,-1.004,-0.021,1.6042823999999998,1.9480572,-0.3437748,86.79167784,-2.578311,-55.77746129999999
0.019999999999999997,2,-0.059000000000000004,-1.006,-0.033,1.7761698000000001,1.8334656000000005,-0.40107059999999994,86.80886658,-2.57258142,-55.75454298
0.03,3,-0.057,-1.006,-0.032,1.7761698000000001,1.7188740000000002,-0.3437748,86.82605532,-2.57258142,-55.73735424
0.039999999999999994,4,-0.052000000000000005,-1.005,-0.031,1.7188740000000002,1.3750992,-0.40107059999999994,86.84324405999998,-2.56685184,-55.72589508000001
0.049999999999999996,5,-0.049,-1.006,-0.031,1.6615782,1.2032118,-0.5156622000000001,86.8604328,-2.55539268,-55.71443592000001
0.05999999999999999,6,-0.05,-1.0070000000000001,-0.032,1.432395,1.145916,-0.4583664000000001,86.87189196,-2.5496631,-55.70297676
0.06999999999999999,7,-0.055999999999999994,-1.0090000000000001,-0.03,1.432395,1.3750992,-0.2291832000000001,86.88908070000002,-2.5496631,-55.68578802
0.07999999999999999,8,-0.059000000000000004,-1.006,-0.027000000000000003,1.3750992,1.3178034,-0.1718874,86.90053986000002,-2.54393352,-55.67432886
0.08999999999999998,9,-0.06,-1.001,-0.027999999999999997,1.2032118,1.3178034,-0.1718874,86.91199902000002,-2.54393352,-55.6628697
0.09999999999999998,10,-0.055999999999999994,-1.004,-0.03,1.0886202,1.3178034,-0.1718874,86.92918776,-2.5611222600000003,-55.64568095999999
0.10999999999999997,11,-0.052000000000000005,-1.012,-0.027999999999999997,0.9167328000000001,0.9167328000000001,-0.3437748,86.93491734,-2.55539268,-55.63995138
0.11999999999999998,12,-0.054000000000000006,-1.015,-0.026000000000000002,0.7448454000000001,0.572958,-0.4583664000000001,86.94637650000001,-2.5496631,-55.6342218
0.12999999999999998,13,-0.055,-1.014,-0.025,0.6875496,0.4583664000000001,-0.4583664000000001,86.95210608,-2.54393352,-55.62849222
0.13999999999999999,14,-0.055999999999999994,-1.014,-0.025,0.4583664000000001,0.5156622000000001,-0.3437748,86.95783566,-2.54393352,-55.62276264
0.15,15,-0.055,-1.011,-0.026000000000000002,0.3437748,0.9740286,-0.2291832000000001,86.96356524000002,-2.57258142,-55.61130347999999
0.15999999999999998,16,-0.055999999999999994,-1.0090000000000001,-0.027999999999999997,0.40107059999999994,1.145916,-0.057295800000000015,86.96929482,-2.57258142,-55.59984432
0.16999999999999998,17,-0.057,-1.006,-0.027000000000000003,0.5156622000000001,1.2032118,0.0,86.97502440000002,-2.57258142,-55.58838516
0.18,18,-0.057,-1.002,-0.026000000000000002,0.6875496,1.2032118,0.057295800000000015,86.98075398,-2.57258142,-55.57692599999999
0.18999999999999997,19,-0.055999999999999994,-0.9990000000000001,-0.027999999999999997,0.9740286,0.9167328000000001,0.11459160000000004,86.99221314,-2.57258142,-55.56546684
0.19999999999999998,20,-0.057,-1.0,-0.027999999999999997,0.9167328000000001,0.9740286,0.11459160000000004,87.0036723,-2.61268848,-55.55400768
0.20999999999999996,21,-0.057999999999999996,-1.001,-0.026000000000000002,1.0313244000000001,0.9167328000000001,0.057295800000000015,87.01513145999998,-2.61268848,-55.54827810000001
0.21999999999999997,22,-0.057,-1.001,-0.028999999999999998,0.9740286,0.8021411999999999,-0.057295800000000015,87.02659062000002,-2.61268848,-55.53681894
0.22999999999999998,23,-0.057999999999999996,-1.001,-0.031,0.7448454000000001,0.6875496,-0.11459160000000004,87.03232019999999,-2.6069589,-55.53108936
0.23999999999999996,24,-0.057999999999999996,-0.9990000000000001,-0.028999999999999998,0.9740286,0.6875496,-0.057295800000000015,87.04377936,-2.6069589,-55.52535978000001
0.24999999999999997,25,-0.059000000000000004,-0.9990000000000001,-0.031,1.0313244000000001,0.6875496,0.0,87.03804978000002,-2.65279554,-55.51390062
0.25999999999999995,26,-0.057,-1.001,-0.028999999999999998,1.0313244000000001,0.8594370000000001,0.0,87.04950894,-2.65279554,-55.50817104
0.26999999999999996,27,-0.057999999999999996,-1.003,-0.03,1.0886202,1.0313244000000001,0.0,87.0609681,-2.65279554,-55.49671188
0.27999999999999997,28,-0.059000000000000004,-1.004,-0.032,1.0886202,1.0886202,0.0,87.07242726,-2.65279554,-55.48525271999999
0.29,29,-0.06,-1.005,-0.032,1.0886202,1.2032118,0.11459160000000004,87.07815683999998,-2.65279554,-55.47379356
0.3,30,-0.061,-1.004,-0.032,1.2032118,1.0886202,0.11459160000000004,87.07815683999998,-2.68717302,-55.4623344
0.30999999999999994,31,-0.06,-1.005,-0.031,1.145916,1.0886202,0.057295800000000015,87.089616,-2.6929026,-55.45087524
0.31999999999999995,32,-0.059000000000000004,-1.006,-0.03,1.145916,1.0313244000000001,0.0,87.10107516000002,-2.6929026,-55.43941608
0.32999999999999996,33,-0.057,-1.0070000000000001,-0.032,1.0313244000000001,0.8021411999999999,0.0,87.11253432000002,-2.6929026,-55.4336865
0.33999999999999997,34,-0.057,-1.0090000000000001,-0.032,0.9167328000000001,0.7448454000000001,0.0,87.12399348,-2.6929026,-55.42222733999999
0.35,35,-0.059000000000000004,-1.0090000000000001,-0.032,1.0313244000000001,1.0313244000000001,0.0,87.11253432000002,-2.71582092,-55.41076817999999
0.35999999999999993,36,-0.06,-1.0070000000000001,-0.031,0.9740286,1.2605076000000002,0.11459160000000004,87.12399348,-2.71582092,-55.39930902
0.36999999999999994,37,-0.061,-1.008,-0.031,0.9740286,1.3178034,0.1718874,87.13545264000004,-2.7215505,-55.38784986
0.37999999999999995,38,-0.06,-1.008,-0.031,0.9740286,1.2605076000000002,0.1718874,87.14118221999998,-2.7215505,-55.37066112
0.38999999999999996,39,-0.057999999999999996,-1.008,-0.032,0.6302538000000001,1.2605076000000002,0.057295800000000015,87.14691180000001,-2.7215505,-55.35920196000001
0.39999999999999997,40,-0.057999999999999996,-1.0070000000000001,-0.032,0.5156622000000001,1.145916,0.0,87.13545264000004,-2.7501984,-55.347742800000006
0.4099999999999999,41,-0.057999999999999996,-1.004,-0.03,0.6875496,1.0886202,-0.057295800000000015,87.14118221999998,-2.7501984,-55.33628364
0.41999999999999993,42,-0.057,-1.005,-0.032,-0.11459160000000004,-0.057295800000000015,0.0,87.14118221999998,-2.7501984,-55.33628364
0.42999999999999994,43,-0.057,-1.004,-0.027999999999999997,-0.1718874,0.057295800000000015,0.0,87.13545264000004,-2.7501984,-55.33628364
0.43999999999999995,44,-0.055999999999999994,-1.005,-0.025,-0.286479,0.1718874,0.11459160000000004,87.13545264000004,-2.7501984,-55.33628364
0.44999999999999996,45,-0.057999999999999996,-1.004,-0.03,-0.5156622000000001,0.286479,0.1718874,87.10680474,-2.79030546,-55.33055406
0.45999999999999996,46,-0.057,-1.005,-0.028999999999999998,-0.6302538000000001,0.1718874,0.1718874,87.10107516000002,-2.79603504,-55.32482448
0.4699999999999999,47,-0.057999999999999996,-1.003,-0.03,-0.3437748,0.11459160000000004,0.1718874,87.09534558,-2.79603504,-55.32482448
0.4799999999999999,48,-0.057,-1.002,-0.03,-0.2291832000000001,0.0,0.1718874,87.09534558,-2.79603504,-55.32482448
0.48999999999999994,49,-0.057,-1.003,-0.027000000000000003,-0.11459160000000004,0.0,0.1718874,87.09534558,-2.80176462,-55.32482448
0.49999999999999994,50,-0.057999999999999996,-1.002,-0.027999999999999997,-0.1718874,-0.11459160000000004,0.2291832000000001,87.089616,-2.85333084,-55.32482448
0.5099999999999999,51,-0.057999999999999996,-1.004,-0.027000000000000003,-0.1718874,-0.11459160000000004,0.286479,87.08388642,-2.85333084,-55.33055406
0.5199999999999999,52,-0.055,-1.005,-0.027999999999999997,-0.1718874,-0.1718874,0.057295800000000015,87.08388642,-2.85906042,-55.33055406
0.5299999999999999,53,-0.055,-1.006,-0.027000000000000003,-0.1718874,-0.11459160000000004,0.11459160000000004,87.08388642,-2.85906042,-55.33055406
0.5399999999999999,54,-0.055,-1.006,-0.027000000000000003,-0.2291832000000001,-0.1718874,0.2291832000000001,87.07815683999998,-2.85906042,-55.33055406
0.5499999999999999,55,-0.054000000000000006,-1.005,-0.027000000000000003,-0.1718874,-0.2291832000000001,0.286479,87.09534558,-2.85333084,-55.33628364
0.5599999999999999,56,-0.054000000000000006,-1.006,-0.026000000000000002,-0.11459160000000004,-0.2291832000000001,0.3437748,87.089616,-2.85333084,-55.33628364
0.57,57,-0.055999999999999994,-1.006,-0.027000000000000003,-0.2291832000000001,-0.1718874,0.40107059999999994,87.089616,-2.85906042,-55.34201322
0.58,58,-0.057,-1.006,-0.026000000000000002,-0.11459160000000004,-0.11459160000000004,0.40107059999999994,87.089616,-2.86479,-55.34201322
0.59,59,-0.057999999999999996,-1.004,-0.026000000000000002,-0.057295800000000015,0.0,0.286479,87.089616,-2.86479,-55.34201322
0.5999999999999999,60,-0.057,-1.004,-0.027000000000000003,0.0,-0.057295800000000015,0.2291832000000001,87.1182639,-2.89916748,-55.34201322
0.6099999999999999,61,-0.057,-1.006,-0.026000000000000002,-0.057295800000000015,-0.2291832000000001,0.286479,87.1182639,-2.89916748,-55.347742800000006
0.6199999999999999,62,-0.057999999999999996,-1.005,-0.027000000000000003,0.0,-0.3437748,0.2291832000000001,87.1182639,-2.90489706,-55.347742800000006
0.6299999999999999,63,-0.057999999999999996,-1.006,-0.027000000000000003,0.0,-0.40107059999999994,0.1718874,87.1182639,-2.90489706,-55.35347237999999
0.6399999999999999,64,-0.057999999999999996,-1.005,-0.027999999999999997,0.0,-0.2291832000000001,0.11459160000000004,87.1182639,-2.90489706,-55.35347237999999
0.6499999999999999,65,-0.059000000000000004,-1.006,-0.027999999999999997,-0.11459160000000004,-0.057295800000000015,0.1718874,87.10680474,-2.9507337000000002,-55.35920196000001
0.6599999999999999,66,-0.057999999999999996,-1.006,-0.03,-0.11459160000000004,0.0,0.2291832000000001,87.10680474,-2.9507337000000002,-55.35920196000001
0.6699999999999999,67,-0.057999999999999996,-1.006,-0.03,-0.286479,0.0,0.286479,87.10680474,-2.9564632800000004,-55.35920196000001
0.6799999999999999,68,-0.059000000000000004,-1.006,-0.031,-0.4583664000000001,0.0,0.40107059999999994,87.10107516000002,-2.96219286,-55.35347237999999
0.69,69,-0.059000000000000004,-1.005,-0.028999999999999998,-0.3437748,-0.1718874,0.4583664000000001,87.09534558,-2.96792244,-55.35920196000001
0.7,70,-0.059000000000000004,-1.005,-0.03,-0.40107059999999994,-0.1718874,0.4583664000000001,87.07242726,-2.9793816000000004,-55.35920196000001
0.7099999999999999,71,-0.059000000000000004,-1.005,-0.032,-0.3437748,-0.2291832000000001,0.4583664000000001,87.06669767999998,-2.98511118,-55.35920196000001
0.7199999999999999,72,-0.06,-1.005,-0.028999999999999998,-0.1718874,-0.1718874,0.4583664000000001,87.06669767999998,-2.99084076,-55.36493154
0.7299999999999999,73,-0.059000000000000004,-1.005,-0.03,0.0,0.0,0.3437748,87.06669767999998,-2.9965703400000003,-55.35920196000001
0.7399999999999999,74,-0.06,-1.006,-0.03,-0.1718874,0.057295800000000015,0.3437748,87.06669767999998,-2.9965703400000003,-55.35920196000001
0.7499999999999999,75,-0.059000000000000004,-1.0070000000000001,-0.031,-0.11459160000000004,0.0,0.40107059999999994,87.04377936,-3.03094782,-55.35920196000001
0.7599999999999999,76,-0.06,-1.006,-0.027999999999999997,-0.11459160000000004,0.0,0.5156622000000001,87.04377936,-3.0366774000000003,-55.35920196000001
0.7699999999999999,77,-0.061,-1.004,-0.028999999999999998,-0.2291832000000001,0.0,0.5156622000000001,87.04377936,-3.04240698,-55.35920196000001
0.7799999999999999,78,-0.06,-1.004,-0.028999999999999998,-0.2291832000000001,0.0,0.5156622000000001,87.03804978000002,-3.04813656,-55.35920196000001
0.7899999999999999,79,-0.06,-1.005,-0.028999999999999998,-0.2291832000000001,0.11459160000000004,0.5156622000000001,87.03804978000002,-3.05386614,-55.35920196000001
0.7999999999999999,80,-0.062,-1.006,-0.027999999999999997,-0.11459160000000004,0.11459160000000004,0.4583664000000001,87.03804978000002,-3.0939732,-55.35347237999999
0.8099999999999998,81,-0.062,-1.006,-0.027999999999999997,-0.1718874,0.1718874,0.4583664000000001,87.03804978000002,-3.0939732,-55.35347237999999
0.8199999999999998,82,-0.062,-1.006,-0.027000000000000003,-0.286479,0.0,0.4583664000000001,87.03232019999999,-3.0997027800000003,-55.35347237999999
0.8299999999999998,83,-0.063,-1.004,-0.027000000000000003,-0.286479,0.0,0.11459160000000004,87.03232019999999,-3.1054323600000004,-55.35347237999999
0.8399999999999999,84,-0.062,-1.002,-0.027000000000000003,-0.2291832000000001,0.057295800000000015,0.11459160000000004,87.02659062000002,-3.1054323600000004,-55.35347237999999
0.8499999999999999,85,-0.062,-1.003,-0.025,-0.1718874,0.11459160000000004,0.1718874,87.06669767999998,-3.1398098400000003,-55.35347237999999
0.8599999999999999,86,-0.063,-1.006,-0.027000000000000003,-0.2291832000000001,0.2291832000000001,0.2291832000000001,87.06669767999998,-3.1398098400000003,-55.347742800000006
0.8699999999999999,87,-0.063,-1.005,-0.028999999999999998,-0.286479,0.3437748,0.1718874,87.0609681,-3.14553942,-55.347742800000006
0.8799999999999999,88,-0.064,-1.006,-0.027999999999999997,-0.286479,0.2291832000000001,0.11459160000000004,87.05523852,-3.14553942,-55.34201322
0.8899999999999999,89,-0.063,-1.004,-0.027000000000000003,-0.1718874,0.057295800000000015,0.11459160000000004,87.05523852,-3.14553942,-55.34201322
0.8999999999999999,90,-0.062,-1.003,-0.027999999999999997,-0.057295800000000015,0.0,0.11459160000000004,87.08388642,-3.19710564,-55.34201322
0.9099999999999999,91,-0.063,-1.004,-0.027999999999999997,0.0,0.057295800000000015,0.11459160000000004,87.08388642,-3.19710564,-55.34201322
0.9199999999999998,92,-0.063,-1.005,-0.027999999999999997,0.0,0.286479,0.2291832000000001,87.08388642,-3.20283522,-55.34201322
0.9299999999999998,93,-0.062,-1.005,-0.026000000000000002,0.0,0.1718874,0.11459160000000004,87.08388642,-3.20283522,-55.33628364
0.9399999999999998,94,-0.062,-1.006,-0.027999999999999997,-0.11459160000000004,0.2291832000000001,0.0,87.08388642,-3.20283522,-55.33628364
0.9499999999999998,95,-0.064,-1.004,-0.028999999999999998,-0.1718874,0.0,0.0,87.05523852,-3.28877892,-55.33055406
0.9599999999999999,96,-0.065,-1.004,-0.027999999999999997,0.0,-0.057295800000000015,0.0,87.05523852,-3.28877892,-55.33055406
0.9699999999999999,97,-0.064,-1.006,-0.027999999999999997,-0.057295800000000015,-0.11459160000000004,0.0,87.05523852,-3.28877892,-55.33628364
0.9799999999999999,98,-0.064,-1.0070000000000001,-0.03,-0.1718874,-0.1718874,-0.057295800000000015,87.05523852,-3.28877892,-55.33628364
0.9899999999999999,99,-0.064,-1.006,-0.028999999999999998,-0.2291832000000001,-0.1718874,0.0,87.04950894,-3.28877892,-55.33628364
0.9999999999999999,100,-0.063,-1.005,-0.028999999999999998,-0.286479,-0.11459160000000004,0.0,87.04377936,-3.30023808,-55.34201322
1.0099999999999998,101,-0.064,-1.006,-0.03,-0.1718874,-0.11459160000000004,0.0,87.03804978000002,-3.30023808,-55.34201322
1.0199999999999998,102,-0.066,-1.005,-0.031,-0.2291832000000001,-0.1718874,-0.11459160000000004,87.03804978000002,-3.30023808,-55.34201322
1.0299999999999998,103,-0.066,-1.004,-0.031,-0.11459160000000004,-0.057295800000000015,-0.2291832000000001,87.03804978000002,-3.30023808,-55.34201322
1.0399999999999998,104,-0.064,-1.006,-0.028999999999999998,0.0,0.0,-0.1718874,87.03804978000002,-3.2945085,-55.34201322
1.0499999999999998,105,-0.063,-1.0070000000000001,-0.03,-0.2291832000000001,-0.057295800000000015,-0.11459160000000004,87.02659062000002,-3.30023808,-55.347742800000006
1.0599999999999998,106,-0.064,-1.005,-0.03,-0.286479,-0.2291832000000001,-0.057295800000000015,87.02086104,-3.30023808,-55.347742800000006
1.0699999999999998,107,-0.064,-1.004,-0.032,-0.286479,-0.11459160000000004,-0.057295800000000015,87.02086104,-3.30023808,-55.347742800000006
1.0799999999999998,108,-0.064,-1.002,-0.032,-0.3437748,-0.11459160000000004,-0.1718874,87.01513145999998,-3.2945085,-55.35347237999999
1.0899999999999999,109,-0.063,-1.003,-0.031,-0.1718874,-0.1718874,-0.11459160000000004,87.01513145999998,-3.2945085,-55.35347237999999
1.0999999999999999,110,-0.064,-1.005,-0.03,-0.11459160000000004,-0.2291832000000001,-0.11459160000000004,87.01513145999998,-3.3059676599999994,-55.35347237999999
1.1099999999999999,111,-0.065,-1.005,-0.027000000000000003,-0.40107059999999994,-0.2291832000000001,-0.11459160000000004,87.00940188,-3.30023808,-55.35920196000001
1.1199999999999999,112,-0.062,-1.005,-0.027999999999999997,-0.4583664000000001,-0.286479,-0.057295800000000015,87.0036723,-3.30023808,-55.35920196000001
1.13,113,-0.063,-1.005,-0.031,-0.572958,-0.2291832000000001,-0.057295800000000015,86.99794272,-3.30023808,-55.36493154
1.14,114,-0.063,-1.006,-0.03,-0.4583664000000001,-0.1718874,0.0,86.99221314,-3.30023808,-55.36493154
1.15,115,-0.066,-1.003,-0.03,-0.286479,-0.2291832000000001,0.0,86.98648356,-3.33461556,-55.36493154
1.16,116,-0.067,-1.001,-0.028999999999999998,0.0,-0.2291832000000001,0.0,86.98648356,-3.33461556,-55.37066112
1.17,117,-0.068,-1.001,-0.027999999999999997,-0.057295800000000015,-0.1718874,-0.057295800000000015,86.98648356,-3.33461556,-55.37066112
1.18,118,-0.069,-1.002,-0.031,-0.1718874,0.0,-0.11459160000000004,86.98075398,-3.32888598,-55.37066112
1.1899999999999997,119,-0.069,-1.003,-0.031,-0.286479,0.0,-0.057295800000000015,86.98075398,-3.32888598,-55.37066112
1.1999999999999997,120,-0.068,-1.003,-0.032,-0.11459160000000004,0.0,-0.1718874,86.94637650000001,-3.36326346,-55.37066112
1.2099999999999997,121,-0.063,-1.005,-0.033,0.0,-0.11459160000000004,-0.2291832000000001,86.94637650000001,-3.36326346,-55.37066112
1.2199999999999998,122,-0.062,-1.003,-0.032,0.057295800000000015,-0.4583664000000001,-0.3437748,86.94637650000001,-3.35753388,-55.37639069999999
1.2299999999999998,123,-0.065,-1.002,-0.032,0.057295800000000015,-0.40107059999999994,-0.3437748,86.94637650000001,-3.3518043,-55.38212028
1.2399999999999998,124,-0.068,-1.005,-0.027999999999999997,0.1718874,0.11459160000000004,-0.057295800000000015,86.94637650000001,-3.3518043,-55.37639069999999
1.2499999999999998,125,-0.07,-1.003,-0.031,0.0,0.5156622000000001,0.0,86.94637650000001,-3.380452200000001,-55.37066112
1.2599999999999998,126,-0.068,-1.002,-0.034,-0.1718874,0.3437748,0.057295800000000015,86.94064691999998,-3.380452200000001,-55.37066112
1.2699999999999998,127,-0.065,-1.004,-0.032,0.0,0.057295800000000015,0.0,86.94064691999998,-3.380452200000001,-55.37066112
1.2799999999999998,128,-0.064,-1.01,-0.031,0.0,-0.1718874,-0.057295800000000015,86.94064691999998,-3.380452200000001,-55.37066112
1.2899999999999998,129,-0.066,-1.012,-0.031,0.057295800000000015,-0.286479,-0.2291832000000001,86.94064691999998,-3.380452200000001,-55.37639069999999
1.2999999999999998,130,-0.065,-1.011,-0.03,0.057295800000000015,-0.286479,-0.286479,86.95210608,-3.38618178,-55.37639069999999
1.3099999999999998,131,-0.068,-1.0070000000000001,-0.03,0.0,-0.057295800000000015,-0.1718874,86.95210608,-3.38618178,-55.37639069999999
1.3199999999999998,132,-0.07,-1.004,-0.032,-0.11459160000000004,0.057295800000000015,-0.1718874,86.94637650000001,-3.38618178,-55.37639069999999
1.3299999999999998,133,-0.068,-1.0,-0.031,0.057295800000000015,0.286479,-0.1718874,86.94637650000001,-3.380452200000001,-55.37639069999999
1.3399999999999999,134,-0.067,-0.9990000000000001,-0.034,0.3437748,0.40107059999999994,-0.11459160000000004,86.95210608,-3.380452200000001,-55.37066112
1.3499999999999999,135,-0.067,-0.998,-0.036000000000000004,0.40107059999999994,0.286479,-0.11459160000000004,86.94064691999998,-3.3919113599999995,-55.36493154
1.3599999999999999,136,-0.067,-0.997,-0.034,0.572958,0.286479,-0.057295800000000015,86.94637650000001,-3.3919113599999995,-55.36493154
1.3699999999999999,137,-0.067,-0.998,-0.033,0.6875496,0.1718874,-0.057295800000000015,86.95783566,-3.3919113599999995,-55.35920196000001
1.38,138,-0.068,-0.996,-0.033,0.6875496,0.0,-0.1718874,86.96356524000002,-3.3919113599999995,-55.35920196000001
1.39,139,-0.067,-0.997,-0.033,0.6875496,0.0,-0.1718874,86.96929482,-3.38618178,-55.35920196000001
1.3999999999999997,140,-0.067,-0.9990000000000001,-0.036000000000000004,0.7448454000000001,0.11459160000000004,-0.1718874,86.95783566,-3.39764094,-55.35920196000001
1.4099999999999997,141,-0.067,-1.0,-0.038,0.6875496,0.2291832000000001,-0.1718874,86.96929482,-3.39764094,-55.35920196000001
1.4199999999999997,142,-0.069,-1.001,-0.035,0.9740286,0.1718874,-0.1718874,86.97502440000002,-3.3919113599999995,-55.35347237999999
1.4299999999999997,143,-0.07,-1.002,-0.034,1.0886202,0.286479,-0.1718874,86.98648356,-3.3919113599999995,-55.35347237999999
1.4399999999999997,144,-0.071,-1.001,-0.032,1.2032118,0.057295800000000015,-0.2291832000000001,87.0036723,-3.38618178,-55.347742800000006
1.4499999999999997,145,-0.071,-1.002,-0.031,1.0313244000000001,0.057295800000000015,-0.40107059999999994,87.00940188,-3.39764094,-55.347742800000006
1.4599999999999997,146,-0.07,-1.005,-0.027999999999999997,0.9167328000000001,-0.11459160000000004,-0.4583664000000001,87.02086104,-3.3919113599999995,-55.347742800000006
1.4699999999999998,147,-0.07,-1.005,-0.027000000000000003,0.6875496,-0.1718874,-0.5156622000000001,87.02659062000002,-3.38618178,-55.35347237999999
1.4799999999999998,148,-0.068,-1.0070000000000001,-0.028999999999999998,0.4583664000000001,-0.11459160000000004,-0.6302538000000001,87.03232019999999,-3.380452200000001,-55.35347237999999
1.4899999999999998,149,-0.067,-1.008,-0.033,0.286479,0.0,-0.572958,87.03232019999999,-3.37472262,-55.35347237999999
1.4999999999999998,150,-0.066,-1.0090000000000001,-0.035,0.286479,0.0,-0.5156622000000001,87.01513145999998,-3.37472262,-55.35347237999999
1.5099999999999998,151,-0.067,-1.0070000000000001,-0.036000000000000004,0.3437748,-0.286479,-0.40107059999999994,87.02086104,-3.37472262,-55.35920196000001
1.5199999999999998,152,-0.069,-1.004,-0.034,0.6302538000000001,-0.3437748,-0.4583664000000001,87.02659062000002,-3.3689930400000003,-55.35920196000001
1.5299999999999998,153,-0.07,-1.002,-0.032,0.8021411999999999,-0.2291832000000001,-0.4583664000000001,87.03804978000002,-3.36326346,-55.36493154
1.5399999999999998,154,-0.07,-1.002,-0.031,0.8021411999999999,0.057295800000000015,-0.40107059999999994,87.04377936,-3.35753388,-55.36493154
1.5499999999999998,155,-0.069,-1.006,-0.031,0.6302538000000001,0.3437748,-0.40107059999999994,87.04377936,-3.36326346,-55.35920196000001
1.5599999999999998,156,-0.065,-1.006,-0.032,0.4583664000000001,0.11459160000000004,-0.40107059999999994,87.04950894,-3.35753388,-55.35920196000001
1.5699999999999998,157,-0.063,-1.006,-0.032,0.5156622000000001,-0.11459160000000004,-0.572958,87.05523852,-3.3518043,-55.35920196000001
1.5799999999999998,158,-0.064,-1.006,-0.034,0.572958,-0.1718874,-0.572958,87.0609681,-3.34607472,-55.35920196000001
1.5899999999999999,159,-0.067,-1.004,-0.031,0.4583664000000001,-0.286479,-0.5156622000000001,87.06669767999998,-3.34034514,-55.36493154
1.5999999999999999,160,-0.068,-1.004,-0.027999999999999997,0.4583664000000001,-0.286479,-0.5156622000000001,87.07242726,-3.34607472,-55.36493154
1.6099999999999997,161,-0.068,-1.005,-0.026000000000000002,-0.11459160000000004,-0.11459160000000004,-0.2291832000000001,87.07242726,-3.34607472,-55.37066112
1.6199999999999997,162,-0.067,-1.005,-0.027000000000000003,-0.40107059999999994,0.0,-0.1718874,87.06669767999998,-3.34607472,-55.37066112
1.6299999999999997,163,-0.067,-1.004,-0.03,-0.3437748,0.057295800000000015,-0.1718874,87.0609681,-3.34034514,-55.37066112
1.6399999999999997,164,-0.067,-1.003,-0.028999999999999998,-0.2291832000000001,0.11459160000000004,-0.1718874,87.0609681,-3.34034514,-55.36493154
1.6499999999999997,165,-0.068,-1.002,-0.027999999999999997,-0.057295800000000015,0.057295800000000015,-0.1718874,87.0609681,-3.380452200000001,-55.36493154
1.6599999999999997,166,-0.068,-1.001,-0.027000000000000003,0.057295800000000015,0.11459160000000004,-0.3437748,87.0609681,-3.37472262,-55.36493154
1.6699999999999997,167,-0.067,-1.002,-0.027000000000000003,0.0,0.11459160000000004,-0.3437748,87.0609681,-3.3689930400000003,-55.36493154
1.6799999999999997,168,-0.066,-1.001,-0.024,-0.11459160000000004,0.0,-0.2291832000000001,87.0609681,-3.3689930400000003,-55.36493154
1.6899999999999997,169,-0.066,-1.004,-0.024,-0.40107059999999994,0.1718874,-0.2291832000000001,87.05523852,-3.36326346,-55.36493154
1.6999999999999997,170,-0.066,-1.006,-0.023,-0.6302538000000001,0.40107059999999994,-0.11459160000000004,87.06669767999998,-3.3689930400000003,-55.35920196000001
1.7099999999999997,171,-0.066,-1.008,-0.021,-0.7448454000000001,0.4583664000000001,0.0,87.05523852,-3.3689930400000003,-55.35347237999999
1.7199999999999998,172,-0.066,-1.006,-0.025,-0.9740286,0.40107059999999994,0.057295800000000015,87.04377936,-3.3689930400000003,-55.35347237999999
1.7299999999999998,173,-0.067,-1.005,-0.03,-0.8594370000000001,0.057295800000000015,0.0,87.03804978000002,-3.3689930400000003,-55.347742800000006
1.7399999999999998,174,-0.07,-1.004,-0.028999999999999998,-0.572958,0.057295800000000015,-0.057295800000000015,87.03232019999999,-3.3689930400000003,-55.347742800000006
1.7499999999999998,175,-0.071,-1.006,-0.03,-0.572958,0.11459160000000004,-0.2291832000000001,87.02086104,-3.38618178,-55.347742800000006
1.7599999999999998,176,-0.07200000000000001,-1.004,-0.031,-0.572958,0.2291832000000001,-0.286479,87.00940188,-3.38618178,-55.347742800000006
1.7699999999999998,177,-0.07,-1.004,-0.032,-0.40107059999999994,0.4583664000000001,-0.40107059999999994,87.00940188,-3.380452200000001,-55.34201322
1.7799999999999998,178,-0.068,-1.003,-0.031,-0.2291832000000001,0.286479,-0.286479,87.0036723,-3.37472262,-55.33628364
1.7899999999999998,179,-0.067,-1.002,-0.032,0.0,0.057295800000000015,-0.286479,87.0036723,-3.37472262,-55.33628364
1.7999999999999998,180,-0.068,-1.003,-0.032,0.11459160000000004,0.0,-0.2291832000000001,86.98648356,-3.3919113599999995,-55.33628364
1.8099999999999998,181,-0.068,-1.004,-0.032,0.11459160000000004,0.0,-0.2291832000000001,86.98648356,-3.3919113599999995,-55.33628364
1.8199999999999998,182,-0.069,-1.004,-0.033,0.2291832000000001,0.057295800000000015,-0.1718874,86.99221314,-3.38618178,-55.33628364
1.8299999999999996,183,-0.068,-1.005,-0.035,0.2291832000000001,0.1718874,-0.1718874,86.99221314,-3.38618178,-55.33055406
1.8399999999999996,184,-0.067,-1.004,-0.034,0.286479,0.0,-0.1718874,86.99794272,-3.38618178,-55.33055406
1.8499999999999996,185,-0.067,-1.004,-0.031,0.286479,-0.057295800000000015,-0.11459160000000004,86.99221314,-3.39764094,-55.33055406
1.8599999999999997,186,-0.068,-1.005,-0.034,0.057295800000000015,-0.11459160000000004,-0.11459160000000004,86.99221314,-3.39764094,-55.33628364
1.8699999999999997,187,-0.068,-1.002,-0.034,0.057295800000000015,-0.057295800000000015,-0.11459160000000004,86.99221314,-3.39764094,-55.33628364
1.8799999999999997,188,-0.068,-1.002,-0.032,0.1718874,-0.057295800000000015,-0.1718874,86.99794272,-3.3919113599999995,-55.33628364
1.8899999999999997,189,-0.067,-1.006,-0.032,0.057295800000000015,-0.11459160000000004,-0.1718874,86.99794272,-3.3919113599999995,-55.33628364
1.8999999999999997,190,-0.067,-1.005,-0.031,-0.057295800000000015,-0.11459160000000004,-0.286479,86.99221314,-3.4091001000000003,-55.33628364
1.9099999999999997,191,-0.067,-1.004,-0.033,0.0,0.0,-0.2291832000000001,86.99221314,-3.40337052,-55.33628364
1.9199999999999997,192,-0.066,-1.004,-0.032,0.1718874,0.0,-0.057295800000000015,86.99221314,-3.40337052,-55.34201322
1.9299999999999997,193,-0.066,-1.003,-0.028999999999999998,0.3437748,-0.1718874,0.0,86.99794272,-3.40337052,-55.34201322
1.9399999999999997,194,-0.067,-1.003,-0.03,0.286479,-0.2291832000000001,0.0,86.99794272,-3.40337052,-55.34201322
1.9499999999999997,195,-0.068,-1.005,-0.027000000000000003,0.3437748,-0.286479,-0.057295800000000015,87.01513145999998,-3.42055926,-55.347742800000006
1.9599999999999997,196,-0.066,-1.005,-0.028999999999999998,0.1718874,-0.286479,-0.1718874,87.01513145999998,-3.4148296799999995,-55.35347237999999
1.9699999999999998,197,-0.067,-1.004,-0.031,0.11459160000000004,-0.40107059999999994,-0.1718874,87.01513145999998,-3.4148296799999995,-55.35347237999999
1.9799999999999998,198,-0.067,-1.002,-0.027000000000000003,0.3437748,-0.4583664000000001,-0.11459160000000004,87.02086104,-3.4148296799999995,-55.35920196000001
1.9899999999999998,199,-0.066,-1.003,-0.028999999999999998,0.40107059999999994,-0.40107059999999994,-0.11459160000000004,87.02659062000002,-3.4148296799999995,-55.36493154
1.9999999999999998,200,-0.067,-1.004,-0.027999999999999997,0.3437748,-0.2291832000000001,-0.057295800000000015,87.04377936,-3.42628884,-55.37066112
2.01,201,-0.067,-1.005,-0.027999999999999997,0.40107059999999994,-0.286479,-0.11459160000000004,87.04950894,-3.42055926,-55.37066112
2.0199999999999996,202,-0.067,-1.005,-0.031,0.1718874,-0.3437748,-0.11459160000000004,87.04950894,-3.42055926,-55.37639069999999
2.0299999999999994,203,-0.067,-1.004,-0.03,0.286479,-0.5156622000000001,-0.11459160000000004,87.05523852,-3.42055926,-55.38212028
2.0399999999999996,204,-0.067,-1.004,-0.03,0.3437748,-0.4583664000000001,-0.1718874,87.05523852,-3.42055926,-55.38784986
2.0499999999999994,205,-0.066,-1.002,-0.028999999999999998,0.4583664000000001,-0.40107059999999994,-0.057295800000000015,87.0609681,-3.42055926,-55.38784986
2.0599999999999996,206,-0.065,-1.003,-0.027999999999999997,0.572958,-0.3437748,-0.057295800000000015,87.06669767999998,-3.42055926,-55.39357944
2.0699999999999994,207,-0.064,-1.002,-0.027000000000000003,0.572958,-0.286479,0.0,87.07242726,-3.42055926,-55.39930902
2.0799999999999996,208,-0.064,-1.0,-0.027000000000000003,0.7448454000000001,-0.1718874,0.057295800000000015,87.08388642,-3.42055926,-55.39930902
2.0899999999999994,209,-0.065,-1.003,-0.031,0.572958,0.0,0.057295800000000015,87.089616,-3.42055926,-55.39930902
2.0999999999999996,210,-0.066,-1.005,-0.03,0.5156622000000001,-0.1718874,0.0,87.089616,-3.42628884,-55.39930902
2.1099999999999994,211,-0.065,-1.006,-0.027999999999999997,0.6875496,-0.286479,-0.057295800000000015,87.09534558,-3.42628884,-55.40503860000001
2.1199999999999997,212,-0.065,-1.005,-0.028999999999999998,0.4583664000000001,-0.11459160000000004,0.0,87.10107516000002,-3.42628884,-55.40503860000001
2.1299999999999994,213,-0.064,-1.005,-0.03,0.3437748,0.11459160000000004,0.11459160000000004,87.10107516000002,-3.42628884,-55.40503860000001
2.1399999999999997,214,-0.064,-1.005,-0.028999999999999998,0.286479,0.1718874,0.11459160000000004,87.10680474,-3.42628884,-55.39930902
2.1499999999999995,215,-0.064,-1.005,-0.027000000000000003,0.1718874,0.0,0.11459160000000004,87.09534558,-3.42628884,-55.39930902
2.1599999999999993,216,-0.064,-1.005,-0.028999999999999998,-0.11459160000000004,0.0,0.057295800000000015,87.09534558,-3.42628884,-55.39930902
2.1699999999999995,217,-0.066,-1.005,-0.027999999999999997,-0.11459160000000004,0.0,0.0,87.09534558,-3.42628884,-55.39930902
2.1799999999999993,218,-0.065,-1.005,-0.027999999999999997,0.0,0.0,0.057295800000000015,87.09534558,-3.42628884,-55.39930902
2.1899999999999995,219,-0.065,-1.006,-0.027000000000000003,0.0,0.1718874,0.0,87.09534558,-3.42628884,-55.39930902
2.1999999999999993,220,-0.064,-1.008,-0.027000000000000003,-0.057295800000000015,0.11459160000000004,0.057295800000000015,87.10680474,-3.43201842,-55.39930902
2.2099999999999995,221,-0.065,-1.006,-0.027000000000000003,0.0,0.11459160000000004,0.1718874,87.10680474,-3.43201842,-55.39357944
2.2199999999999993,222,-0.066,-1.006,-0.027999999999999997,-0.1718874,0.1718874,0.1718874,87.10680474,-3.43201842,-55.39357944
2.2299999999999995,223,-0.066,-1.005,-0.027000000000000003,-0.2291832000000001,0.11459160000000004,0.11459160000000004,87.10107516000002,-3.4377480000000005,-55.39357944
2.2399999999999993,224,-0.066,-1.004,-0.027999999999999997,-0.11459160000000004,0.11459160000000004,0.057295800000000015,87.10107516000002,-3.4377480000000005,-55.38784986
2.2499999999999996,225,-0.066,-1.003,-0.027000000000000003,-0.057295800000000015,0.1718874,0.0,87.10680474,-3.4492071599999994,-55.38784986
2.2599999999999993,226,-0.067,-1.004,-0.026000000000000002,0.057295800000000015,0.2291832000000001,0.0,87.10680474,-3.4492071599999994,-55.38784986
2.2699999999999996,227,-0.067,-1.005,-0.025,-0.057295800000000015,0.2291832000000001,0.057295800000000015,87.10680474,-3.4492071599999994,-55.38212028
2.2799999999999994,228,-0.065,-1.006,-0.027000000000000003,-0.11459160000000004,0.11459160000000004,0.057295800000000015,87.10107516000002,-3.4492071599999994,-55.38212028
2.2899999999999996,229,-0.063,-1.004,-0.027999999999999997,-0.11459160000000004,0.0,0.0,87.10107516000002,-3.4492071599999994,-55.38212028
2.2999999999999994,230,-0.062,-1.003,-0.026000000000000002,-0.1718874,-0.057295800000000015,-0.057295800000000015,87.12399348,-3.44347758,-55.38212028
2.3099999999999996,231,-0.064,-1.006,-0.024,-0.1718874,0.11459160000000004,0.057295800000000015,87.1182639,-3.44347758,-55.38212028
2.3199999999999994,232,-0.066,-1.005,-0.025,-0.2291832000000001,0.1718874,0.2291832000000001,87.1182639,-3.44347758,-55.38212028
2.3299999999999996,233,-0.066,-1.004,-0.026000000000000002,-0.11459160000000004,0.1718874,0.286479,87.11253432000002,-3.4492071599999994,-55.37639069999999
2.3399999999999994,234,-0.064,-1.004,-0.026000000000000002,-0.11459160000000004,0.2291832000000001,0.40107059999999994,87.11253432000002,-3.45493674,-55.37639069999999
2.3499999999999996,235,-0.063,-1.006,-0.025,-0.1718874,0.11459160000000004,0.4583664000000001,87.11253432000002,-3.45493674,-55.37639069999999
2.3599999999999994,236,-0.062,-1.0090000000000001,-0.023,-0.2291832000000001,0.0,0.3437748,87.11253432000002,-3.46066632,-55.37639069999999
2.369999999999999,237,-0.063,-1.0090000000000001,-0.022000000000000002,-0.3437748,-0.1718874,0.1718874,87.10680474,-3.46066632,-55.37639069999999
2.3799999999999994,238,-0.063,-1.0070000000000001,-0.025,-0.6302538000000001,-0.3437748,0.057295800000000015,87.10107516000002,-3.46066632,-55.38212028
2.3899999999999992,239,-0.065,-1.005,-0.026000000000000002,-0.572958,-0.2291832000000001,0.1718874,87.09534558,-3.4663959,-55.38212028
2.3999999999999995,240,-0.065,-1.005,-0.027999999999999997,-0.40107059999999994,-0.057295800000000015,0.2291832000000001,87.089616,-3.4663959,-55.38212028
2.4099999999999993,241,-0.065,-1.005,-0.027999999999999997,-0.11459160000000004,0.057295800000000015,0.286479,87.089616,-3.4663959,-55.38212028
2.4199999999999995,242,-0.061,-1.003,-0.027000000000000003,0.3437748,0.1718874,0.4583664000000001,87.09534558,-3.47212548,-55.38212028
2.4299999999999993,243,-0.062,-1.002,-0.027000000000000003,0.5156622000000001,0.0,0.40107059999999994,87.10107516000002,-3.47785506,-55.38212028
2.4399999999999995,244,-0.063,-1.001,-0.027000000000000003,0.572958,-0.11459160000000004,0.286479,87.10680474,-3.47785506,-55.38212028
2.4499999999999993,245,-0.064,-1.002,-0.027000000000000003,0.572958,-0.11459160000000004,0.3437748,87.1182639,-3.48358464,-55.38212028
2.4599999999999995,246,-0.064,-1.002,-0.023,0.8021411999999999,-0.1718874,0.3437748,87.12399348,-3.48931422,-55.38212028
2.4699999999999993,247,-0.066,-1.003,-0.024,0.8594370000000001,-0.057295800000000015,0.3437748,87.13545264000004,-3.4950437999999995,-55.38784986
2.4799999999999995,248,-0.068,-1.003,-0.027000000000000003,0.7448454000000001,0.0,0.286479,87.14118221999998,-3.4950437999999995,-55.38784986
2.4899999999999993,249,-0.069,-1.003,-0.027000000000000003,0.6302538000000001,0.057295800000000015,0.1718874,87.14691180000001,-3.4950437999999995,-55.38212028
2.4999999999999996,250,-0.069,-1.005,-0.027999999999999997,0.6875496,0.11459160000000004,0.0,87.15264138,-3.50650296,-55.38212028
2.5099999999999993,251,-0.069,-1.003,-0.027000000000000003,0.8594370000000001,0.1718874,-0.057295800000000015,87.15837096,-3.50650296,-55.38212028
2.5199999999999996,252,-0.067,-1.003,-0.026000000000000002,0.8021411999999999,0.1718874,0.0,87.16983012,-3.50650296,-55.37639069999999
2.5299999999999994,253,-0.067,-1.003,-0.024,0.6875496,0.286479,0.0,87.17555970000002,-3.50650296,-55.37639069999999
2.5399999999999996,254,-0.066,-1.003,-0.022000000000000002,0.4583664000000001,0.286479,0.0,87.18128928,-3.50650296,-55.37066112
2.5499999999999994,255,-0.065,-1.005,-0.025,0.2291832000000001,0.286479,0.0,87.18128928,-3.50650296,-55.37066112
2.5599999999999996,256,-0.067,-1.004,-0.027000000000000003,0.1718874,0.286479,0.0,87.18701886,-3.50650296,-55.36493154
2.5699999999999994,257,-0.066,-1.006,-0.026000000000000002,0.286479,0.1718874,0.057295800000000015,87.18701886,-3.50650296,-55.36493154
2.579999999999999,258,-0.065,-1.006,-0.026000000000000002,0.3437748,0.057295800000000015,0.0,87.19274844,-3.50650296,-55.36493154
2.5899999999999994,259,-0.066,-1.004,-0.025,0.40107059999999994,0.0,-0.057295800000000015,87.19847802,-3.50650296,-55.36493154
2.599999999999999,260,-0.068,-1.004,-0.024,0.286479,0.1718874,-0.11459160000000004,87.20420759999998,-3.5122325400000003,-55.35920196000001
2.6099999999999994,261,-0.067,-1.004,-0.024,0.3437748,0.5156622000000001,-0.057295800000000015,87.20993718,-3.5122325400000003,-55.35347237999999
2.619999999999999,262,-0.067,-1.005,-0.025,0.3437748,0.572958,0.057295800000000015,87.20993718,-3.5122325400000003,-55.347742800000006
2.6299999999999994,263,-0.067,-1.006,-0.025,0.3437748,0.40107059999999994,0.057295800000000015,87.21566676,-3.5122325400000003,-55.347742800000006
2.6399999999999992,264,-0.065,-1.008,-0.026000000000000002,0.286479,0.40107059999999994,0.0,87.21566676,-3.5122325400000003,-55.34201322
2.6499999999999995,265,-0.065,-1.006,-0.024,0.1718874,0.1718874,0.0,87.22712592,-3.50650296,-55.34201322
2.6599999999999993,266,-0.065,-1.004,-0.023,0.3437748,0.0,-0.11459160000000004,87.22712592,-3.50650296,-55.34201322
2.6699999999999995,267,-0.066,-1.002,-0.02,0.5156622000000001,0.0,-0.11459160000000004,87.2328555,-3.50650296,-55.34201322
2.6799999999999993,268,-0.067,-1.004,-0.018000000000000002,0.40107059999999994,0.0,-0.1718874,87.23858508000002,-3.50077338,-55.34201322
2.6899999999999995,269,-0.067,-1.0070000000000001,-0.018000000000000002,0.11459160000000004,0.2291832000000001,-0.1718874,87.23858508000002,-3.50077338,-55.33628364
2.6999999999999993,270,-0.066,-1.0070000000000001,-0.018000000000000002,0.0,0.2291832000000001,-0.1718874,87.28442172,-3.4950437999999995,-55.33628364
2.7099999999999995,271,-0.064,-1.005,-0.021,0.0,0.3437748,-0.1718874,87.27869214,-3.4950437999999995,-55.33628364
2.7199999999999993,272,-0.066,-1.003,-0.021,0.0,0.3437748,-0.1718874,87.28442172,-3.48931422,-55.33055406
2.7299999999999995,273,-0.066,-1.003,-0.017,0.2291832000000001,0.1718874,-0.1718874,87.28442172,-3.48931422,-55.33055406
2.7399999999999993,274,-0.065,-1.003,-0.018000000000000002,0.1718874,0.0,-0.1718874,87.28442172,-3.48358464,-55.33055406
2.7499999999999996,275,-0.064,-1.003,-0.018000000000000002,-0.057295800000000015,-0.1718874,-0.057295800000000015,87.30734004,-3.48358464,-55.33055406
2.7599999999999993,276,-0.064,-1.004,-0.019,0.0,-0.2291832000000001,-0.11459160000000004,87.30734004,-3.48358464,-55.33628364
2.7699999999999996,277,-0.065,-1.005,-0.018000000000000002,-0.057295800000000015,-0.11459160000000004,-0.1718874,87.30734004,-3.47785506,-55.33628364
2.7799999999999994,278,-0.065,-1.006,-0.019,-0.057295800000000015,-0.2291832000000001,-0.11459160000000004,87.30734004,-3.47785506,-55.34201322
2.789999999999999,279,-0.064,-1.005,-0.018000000000000002,-0.057295800000000015,-0.11459160000000004,-0.11459160000000004,87.30734004,-3.47785506,-55.34201322
2.7999999999999994,280,-0.063,-1.006,-0.019,-0.057295800000000015,-0.057295800000000015,-0.11459160000000004,87.31879920000002,-3.4663959,-55.34201322
2.809999999999999,281,-0.065,-1.005,-0.018000000000000002,-0.11459160000000004,-0.11459160000000004,-0.057295800000000015,87.31879920000002,-3.4663959,-55.347742800000006
2.8199999999999994,282,-0.064,-1.006,-0.018000000000000002,-0.057295800000000015,-0.3437748,-0.11459160000000004,87.31879920000002,-3.46066632,-55.347742800000006
2.829999999999999,283,-0.063,-1.006,-0.016,-0.057295800000000015,-0.286479,-0.1718874,87.31879920000002,-3.46066632,-55.35347237999999
2.8399999999999994,284,-0.064,-1.005,-0.017,-0.057295800000000015,-0.286479,-0.2291832000000001,87.31879920000002,-3.45493674,-55.35347237999999
2.849999999999999,285,-0.064,-1.006,-0.018000000000000002,-0.11459160000000004,-0.1718874,-0.1718874,87.35317668,-3.46066632,-55.35920196000001
2.8599999999999994,286,-0.065,-1.0070000000000001,-0.019,-0.1718874,-0.1718874,-0.1718874,87.35317668,-3.46066632,-55.36493154
2.869999999999999,287,-0.065,-1.0070000000000001,-0.021,-0.286479,-0.2291832000000001,-0.1718874,87.3474471,-3.45493674,-55.36493154
2.8799999999999994,288,-0.064,-1.0070000000000001,-0.019,-0.11459160000000004,-0.2291832000000001,-0.1718874,87.3474471,-3.45493674,-55.36493154
2.8899999999999992,289,-0.064,-1.006,-0.019,0.0,-0.2291832000000001,-0.11459160000000004,87.3474471,-3.45493674,-55.37066112
2.8999999999999995,290,-0.065,-1.004,-0.02,0.0,-0.057295800000000015,-0.057295800000000015,87.37609499999998,-3.46066632,-55.37639069999999
2.9099999999999993,291,-0.065,-1.002,-0.019,0.057295800000000015,0.0,0.0,87.38182458,-3.46066632,-55.37639069999999
2.9199999999999995,292,-0.066,-1.004,-0.018000000000000002,-0.11459160000000004,0.0,-0.1718874,87.37609499999998,-3.46066632,-55.37639069999999
2.9299999999999993,293,-0.065,-1.004,-0.019,-0.1718874,-0.1718874,-0.11459160000000004,87.37609499999998,-3.46066632,-55.37639069999999
2.9399999999999995,294,-0.065,-1.006,-0.017,-0.2291832000000001,-0.40107059999999994,-0.057295800000000015,87.37609499999998,-3.46066632,-55.38212028
2.9499999999999993,295,-0.066,-1.005,-0.017,-0.2291832000000001,-0.286479,-0.057295800000000015,87.39901332,-3.46066632,-55.38212028
2.9599999999999995,296,-0.065,-1.006,-0.018000000000000002,-0.2291832000000001,-0.11459160000000004,0.0,87.39328374,-3.46066632,-55.38784986
2.9699999999999993,297,-0.067,-1.004,-0.019,-0.286479,-0.2291832000000001,0.0,87.39328374,-3.46066632,-55.38784986
2.9799999999999995,298,-0.066,-1.003,-0.019,-0.1718874,-0.1718874,-0.057295800000000015,87.38755416000002,-3.46066632,-55.39357944
2.9899999999999993,299,-0.065,-1.003,-0.018000000000000002,0.0,0.0,-0.057295800000000015,87.38755416000002,-3.46066632,-55.39357944
2.999999999999999,300,-0.066,-1.005,-0.018000000000000002,-0.11459160000000004,-0.057295800000000015,-0.057295800000000015,87.41620206,-3.4663959,-55.39357944
3.0099999999999993,301,-0.066,-1.006,-0.019,-0.1718874,0.0,0.0,87.41620206,-3.4663959,-55.39357944
3.019999999999999,302,-0.065,-1.0070000000000001,-0.018000000000000002,-0.11459160000000004,0.0,0.0,87.41047248,-3.4663959,-55.39357944
3.0299999999999994,303,-0.066,-1.0070000000000001,-0.015,-0.057295800000000015,0.057295800000000015,0.0,87.41047248,-3.4663959,-55.39357944
3.039999999999999,304,-0.065,-1.006,-0.016,-0.11459160000000004,0.2291832000000001,0.057295800000000015,87.41047248,-3.4663959,-55.39357944
3.0499999999999994,305,-0.065,-1.0070000000000001,-0.015,-0.2291832000000001,0.286479,0.057295800000000015,87.4333908,-3.4663959,-55.38784986
3.059999999999999,306,-0.065,-1.0070000000000001,-0.015,-0.40107059999999994,0.11459160000000004,0.11459160000000004,87.42766122,-3.47212548,-55.38784986
3.0699999999999994,307,-0.064,-1.0070000000000001,-0.016,-0.6302538000000001,0.0,0.11459160000000004,87.42193164,-3.47212548,-55.38784986
3.079999999999999,308,-0.064,-1.006,-0.015,-0.5156622000000001,0.11459160000000004,0.11459160000000004,87.41620206,-3.47212548,-55.38784986
3.0899999999999994,309,-0.066,-1.0070000000000001,-0.013999999999999999,-0.5156622000000001,0.1718874,0.11459160000000004,87.41047248,-3.47785506,-55.38212028
3.099999999999999,310,-0.065,-1.0070000000000001,-0.016,-0.6302538000000001,0.2291832000000001,0.11459160000000004,87.41620206,-3.47212548,-55.38212028
3.1099999999999994,311,-0.064,-1.0070000000000001,-0.016,-0.6875496,0.1718874,0.057295800000000015,87.4047429,-3.47785506,-55.38212028
3.119999999999999,312,-0.063,-1.0070000000000001,-0.013999999999999999,-0.6875496,0.1718874,0.11459160000000004,87.39901332,-3.47785506,-55.37639069999999
3.1299999999999994,313,-0.064,-1.005,-0.013999999999999999,-0.6875496,0.1718874,0.11459160000000004,87.39328374,-3.47785506,-55.37639069999999
3.1399999999999992,314,-0.065,-1.005,-0.015,-0.7448454000000001,0.057295800000000015,0.2291832000000001,87.38182458,-3.48358464,-55.37639069999999
3.1499999999999995,315,-0.066,-1.005,-0.015,-0.6875496,0.0,0.2291832000000001,87.39328374,-3.48358464,-55.37639069999999
3.1599999999999993,316,-0.064,-1.006,-0.016,-0.5156622000000001,0.057295800000000015,0.1718874,87.38755416000002,-3.48358464,-55.37639069999999
3.1699999999999995,317,-0.064,-1.006,-0.015,-0.4583664000000001,0.057295800000000015,0.1718874,87.38182458,-3.48931422,-55.37639069999999
3.1799999999999993,318,-0.065,-1.004,-0.013999999999999999,-0.1718874,0.11459160000000004,0.1718874,87.37609499999998,-3.48931422,-55.37639069999999
3.1899999999999995,319,-0.065,-1.003,-0.012,0.0,0.1718874,0.1718874,87.37609499999998,-3.48931422,-55.37066112
3.1999999999999993,320,-0.066,-1.004,-0.011000000000000001,-0.1718874,0.2291832000000001,0.11459160000000004,87.4047429,-3.4950437999999995,-55.37066112
3.209999999999999,321,-0.065,-1.005,-0.013000000000000001,-0.2291832000000001,0.11459160000000004,0.057295800000000015,87.39901332,-3.4950437999999995,-55.37066112
3.2199999999999993,322,-0.063,-1.006,-0.012,-0.40107059999999994,-0.057295800000000015,0.057295800000000015,87.39901332,-3.4950437999999995,-55.37066112
3.229999999999999,323,-0.064,-1.006,-0.012,-0.5156622000000001,-0.1718874,0.057295800000000015,87.39328374,-3.50077338,-55.37066112
3.2399999999999993,324,-0.065,-1.006,-0.013999999999999999,-0.6875496,-0.057295800000000015,0.0,87.38182458,-3.50077338,-55.37066112
3.249999999999999,325,-0.066,-1.0070000000000001,-0.013999999999999999,-0.8021411999999999,0.11459160000000004,0.0,87.39328374,-3.4950437999999995,-55.37066112
3.2599999999999993,326,-0.064,-1.006,-0.016,-0.572958,0.11459160000000004,-0.057295800000000015,87.38755416000002,-3.4950437999999995,-55.37066112
3.269999999999999,327,-0.062,-1.008,-0.016,-0.6875496,0.057295800000000015,-0.057295800000000015,87.38182458,-3.4950437999999995,-55.37066112
3.2799999999999994,328,-0.062,-1.0070000000000001,-0.013999999999999999,-0.6875496,-0.11459160000000004,0.0,87.37036542000001,-3.4950437999999995,-55.37066112
3.289999999999999,329,-0.063,-1.005,-0.015,-0.5156622000000001,-0.3437748,0.11459160000000004,87.37036542000001,-3.50077338,-55.37639069999999
3.2999999999999994,330,-0.063,-1.006,-0.018000000000000002,-0.6302538000000001,-0.1718874,0.0,87.37609499999998,-3.4950437999999995,-55.38212028
3.309999999999999,331,-0.065,-1.006,-0.015,-0.5156622000000001,-0.11459160000000004,0.0,87.37036542000001,-3.4950437999999995,-55.38212028
3.3199999999999994,332,-0.066,-1.006,-0.016,-0.5156622000000001,-0.1718874,0.057295800000000015,87.36463583999998,-3.4950437999999995,-55.38212028
3.329999999999999,333,-0.063,-1.0070000000000001,-0.017,-0.6875496,-0.11459160000000004,0.0,87.35890626,-3.4950437999999995,-55.38212028
3.3399999999999994,334,-0.062,-1.0070000000000001,-0.017,-0.7448454000000001,0.0,0.0,87.35317668,-3.4950437999999995,-55.38212028
3.349999999999999,335,-0.062,-1.006,-0.017,-0.7448454000000001,0.0,0.0,87.35317668,-3.48931422,-55.38784986
3.3599999999999994,336,-0.062,-1.006,-0.02,-0.6302538000000001,0.057295800000000015,0.057295800000000015,87.3474471,-3.48931422,-55.38784986
3.369999999999999,337,-0.063,-1.005,-0.018000000000000002,-0.40107059999999994,0.0,0.1718874,87.34171752,-3.48931422,-55.38212028
3.3799999999999994,338,-0.065,-1.004,-0.016,-0.2291832000000001,0.0,0.11459160000000004,87.34171752,-3.48931422,-55.38212028
3.3899999999999992,339,-0.065,-1.004,-0.017,-0.286479,0.0,0.2291832000000001,87.33598794000002,-3.4950437999999995,-55.38212028
3.3999999999999995,340,-0.063,-1.004,-0.016,-0.3437748,0.0,0.2291832000000001,87.35317668,-3.48931422,-55.38784986
3.4099999999999993,341,-0.063,-1.004,-0.018000000000000002,-0.4583664000000001,0.0,0.2291832000000001,87.3474471,-3.4950437999999995,-55.38784986
3.4199999999999995,342,-0.065,-1.004,-0.019,-0.40107059999999994,0.0,0.2291832000000001,87.34171752,-3.4950437999999995,-55.38212028
3.4299999999999993,343,-0.065,-1.004,-0.019,-0.286479,0.057295800000000015,0.11459160000000004,87.34171752,-3.4950437999999995,-55.38212028
3.439999999999999,344,-0.067,-1.005,-0.018000000000000002,-0.1718874,0.2291832000000001,0.11459160000000004,87.33598794000002,-3.50077338,-55.38212028
3.4499999999999993,345,-0.065,-1.005,-0.017,0.0,0.40107059999999994,0.1718874,87.35890626,-3.50077338,-55.37639069999999
3.459999999999999,346,-0.064,-1.005,-0.017,0.0,0.4583664000000001,0.40107059999999994,87.35890626,-3.50650296,-55.37066112
3.4699999999999993,347,-0.064,-1.006,-0.018000000000000002,0.057295800000000015,0.5156622000000001,0.40107059999999994,87.35890626,-3.50650296,-55.37066112
3.479999999999999,348,-0.064,-1.0070000000000001,-0.017,0.11459160000000004,0.3437748,0.5156622000000001,87.35890626,-3.5122325400000003,-55.36493154
3.4899999999999993,349,-0.065,-1.006,-0.019,0.11459160000000004,0.286479,0.6875496,87.35890626,-3.5236917,-55.35920196000001
3.499999999999999,350,-0.064,-1.005,-0.019,-0.057295800000000015,0.286479,0.6302538000000001,87.37036542000001,-3.52942128,-55.35920196000001
3.5099999999999993,351,-0.066,-1.003,-0.016,0.0,0.40107059999999994,0.5156622000000001,87.37036542000001,-3.5351508600000003,-55.35347237999999
3.519999999999999,352,-0.066,-1.005,-0.016,0.11459160000000004,0.6302538000000001,0.5156622000000001,87.37036542000001,-3.5351508600000003,-55.347742800000006
3.5299999999999994,353,-0.067,-1.0070000000000001,-0.018000000000000002,0.0,0.8021411999999999,0.572958,87.37036542000001,-3.54661002,-55.33628364
3.539999999999999,354,-0.065,-1.0070000000000001,-0.02,0.0,0.8021411999999999,0.6875496,87.37036542000001,-3.5523396000000003,-55.33055406
3.5499999999999994,355,-0.064,-1.008,-0.018000000000000002,0.0,0.5156622000000001,0.6302538000000001,87.38182458,-3.5523396000000003,-55.32482448
3.559999999999999,356,-0.064,-1.008,-0.015,0.0,0.2291832000000001,0.40107059999999994,87.38182458,-3.5580691799999995,-55.32482448
3.5699999999999994,357,-0.063,-1.0090000000000001,-0.013999999999999999,0.0,-0.057295800000000015,0.1718874,87.38182458,-3.5580691799999995,-55.32482448
3.579999999999999,358,-0.065,-1.008,-0.015,-0.057295800000000015,-0.057295800000000015,0.11459160000000004,87.38182458,-3.5580691799999995,-55.32482448
3.5899999999999994,359,-0.065,-1.008,-0.017,-0.057295800000000015,0.0,0.1718874,87.38182458,-3.56379876,-55.32482448
3.599999999999999,360,-0.065,-1.0070000000000001,-0.021,-0.057295800000000015,0.11459160000000004,0.1718874,87.38755416000002,-3.5580691799999995,-55.32482448
3.6099999999999994,361,-0.064,-1.003,-0.023,0.11459160000000004,0.11459160000000004,0.11459160000000004,87.38755416000002,-3.5580691799999995,-55.3190949
3.619999999999999,362,-0.065,-0.9990000000000001,-0.023,0.6875496,0.0,0.2291832000000001,87.39328374,-3.56379876,-55.3190949
3.6299999999999994,363,-0.064,-0.9990000000000001,-0.022000000000000002,1.2032118,-0.1718874,0.3437748,87.4047429,-3.56952834,-55.32482448
3.6399999999999992,364,-0.065,-1.0,-0.021,1.432395,-0.3437748,0.286479,87.42193164,-3.56952834,-55.32482448
3.649999999999999,365,-0.066,-1.0,-0.016,1.4896908000000002,-0.2291832000000001,0.11459160000000004,87.44484996,-3.56952834,-55.33055406
3.6599999999999993,366,-0.069,-1.0,-0.016,1.3750992,-0.057295800000000015,0.0,87.45630911999999,-3.56952834,-55.33055406
3.669999999999999,367,-0.067,-0.998,-0.015,1.2032118,0.0,-0.057295800000000015,87.47349786,-3.56952834,-55.33055406
3.6799999999999993,368,-0.066,-1.0,-0.016,0.9740286,0.11459160000000004,0.0,87.47922744,-3.56952834,-55.33055406
3.689999999999999,369,-0.064,-1.001,-0.019,1.0886202,0.0,0.11459160000000004,87.49068659999998,-3.56952834,-55.33055406
3.6999999999999993,370,-0.064,-1.005,-0.019,0.8021411999999999,-0.057295800000000015,0.2291832000000001,87.50214575999998,-3.56952834,-55.33055406
3.709999999999999,371,-0.065,-1.005,-0.016,0.8594370000000001,-0.11459160000000004,0.1718874,87.51360492,-3.57525792,-55.33055406
3.7199999999999993,372,-0.065,-1.006,-0.016,0.8021411999999999,-0.1718874,0.11459160000000004,87.5193345,-3.57525792,-55.33055406
3.729999999999999,373,-0.067,-1.006,-0.013999999999999999,0.6875496,-0.2291832000000001,0.057295800000000015,87.53079366,-3.57525792,-55.33628364
3.7399999999999993,374,-0.067,-1.008,-0.015,0.6302538000000001,-0.11459160000000004,0.1718874,87.53652324,-3.57525792,-55.33628364
3.749999999999999,375,-0.067,-1.0090000000000001,-0.013999999999999999,0.40107059999999994,-0.1718874,0.1718874,87.55944156000002,-3.5809875,-55.33628364
3.7599999999999993,376,-0.067,-1.0090000000000001,-0.013999999999999999,0.3437748,-0.057295800000000015,0.1718874,87.56517113999998,-3.58671708,-55.34201322
3.769999999999999,377,-0.068,-1.0090000000000001,-0.015,0.286479,-0.057295800000000015,0.057295800000000015,87.56517113999998,-3.58671708,-55.34201322
3.7799999999999994,378,-0.065,-1.008,-0.017,0.40107059999999994,0.0,0.057295800000000015,87.57090072000004,-3.58671708,-55.34201322
3.789999999999999,379,-0.066,-1.006,-0.018000000000000002,0.40107059999999994,-0.1718874,0.11459160000000004,87.57663029999998,-3.58671708,-55.34201322
3.7999999999999994,380,-0.068,-1.004,-0.017,0.40107059999999994,-0.2291832000000001,0.1718874,87.58235988,-3.59817624,-55.347742800000006
3.809999999999999,381,-0.07,-1.004,-0.019,0.5156622000000001,-0.1718874,0.11459160000000004,87.58808946,-3.59817624,-55.347742800000006
3.8199999999999994,382,-0.07,-1.004,-0.018000000000000002,0.5156622000000001,0.0,0.11459160000000004,87.59381904,-3.59817624,-55.347742800000006
3.829999999999999,383,-0.069,-1.003,-0.017,0.3437748,0.0,0.1718874,87.59954862,-3.60390582,-55.347742800000006
3.8399999999999994,384,-0.07,-1.002,-0.018000000000000002,0.40107059999999994,-0.057295800000000015,0.2291832000000001,87.6052782,-3.60390582,-55.347742800000006
3.849999999999999,385,-0.07,-1.003,-0.015,0.40107059999999994,-0.1718874,0.057295800000000015,87.62246694,-3.61536498,-55.347742800000006
3.859999999999999,386,-0.069,-1.005,-0.013999999999999999,0.4583664000000001,-0.11459160000000004,0.0,87.62819652,-3.61536498,-55.35347237999999
3.869999999999999,387,-0.07,-1.005,-0.015,0.40107059999999994,-0.057295800000000015,0.0,87.6339261,-3.61536498,-55.35347237999999
3.879999999999999,388,-0.069,-1.004,-0.013999999999999999,0.2291832000000001,0.0,0.11459160000000004,87.6339261,-3.61536498,-55.35347237999999
3.8899999999999992,389,-0.07,-1.005,-0.011000000000000001,0.1718874,0.0,0.2291832000000001,87.6339261,-3.61536498,-55.35347237999999
3.899999999999999,390,-0.071,-1.005,-0.013999999999999999,0.0,-0.057295800000000015,0.286479,87.64538526,-3.6382833,-55.35347237999999
3.9099999999999993,391,-0.07200000000000001,-1.003,-0.012,0.0,0.0,0.2291832000000001,87.64538526,-3.6382833,-55.35347237999999
3.919999999999999,392,-0.073,-1.003,-0.013000000000000001,0.1718874,0.0,0.286479,87.64538526,-3.644012880000001,-55.35347237999999
3.9299999999999993,393,-0.07200000000000001,-1.004,-0.013999999999999999,0.2291832000000001,0.0,0.2291832000000001,87.65111484,-3.644012880000001,-55.35347237999999
3.939999999999999,394,-0.07,-1.004,-0.015,0.11459160000000004,0.11459160000000004,0.1718874,87.65111484,-3.64974246,-55.35347237999999
3.9499999999999993,395,-0.069,-1.005,-0.013999999999999999,0.286479,0.0,0.11459160000000004,87.67403316,-3.64974246,-55.35347237999999
3.959999999999999,396,-0.069,-1.003,-0.013000000000000001,0.286479,0.0,0.1718874,87.67976274,-3.64974246,-55.35347237999999
3.9699999999999993,397,-0.069,-1.004,-0.016,0.286479,0.057295800000000015,0.2291832000000001,87.67976274,-3.64974246,-55.35347237999999
3.979999999999999,398,-0.069,-1.005,-0.015,0.4583664000000001,0.0,0.3437748,87.68549232000002,-3.65547204,-55.347742800000006
3.9899999999999993,399,-0.069,-1.004,-0.013999999999999999,0.40107059999999994,0.0,0.11459160000000004,87.69122189999999,-3.65547204,-55.347742800000006
3.999999999999999,400,-0.07,-1.005,-0.013999999999999999,0.11459160000000004,0.1718874,0.0,87.70841064,-3.666931200000001,-55.347742800000006
4.01,401,-0.071,-1.004,-0.013999999999999999,0.11459160000000004,0.286479,0.0,87.71414021999998,-3.666931200000001,-55.347742800000006
4.02,402,-0.071,-1.006,-0.013999999999999999,0.057295800000000015,0.3437748,-0.057295800000000015,87.71414021999998,-3.666931200000001,-55.34201322
4.029999999999999,403,-0.07,-1.005,-0.013999999999999999,0.0,0.11459160000000004,-0.057295800000000015,87.71414021999998,-3.666931200000001,-55.34201322
4.039999999999999,404,-0.069,-1.006,-0.012,-0.057295800000000015,-0.1718874,-0.1718874,87.71414021999998,-3.66120162,-55.34201322
4.049999999999999,405,-0.066,-1.0070000000000001,-0.013999999999999999,-0.11459160000000004,-0.1718874,-0.286479,87.7198698,-3.64974246,-55.347742800000006
4.06,406,-0.068,-1.0070000000000001,-0.015,-0.286479,-0.11459160000000004,-0.2291832000000001,87.7198698,-3.64974246,-55.347742800000006
4.069999999999999,407,-0.068,-1.0070000000000001,-0.013999999999999999,-0.057295800000000015,-0.11459160000000004,-0.1718874,87.7198698,-3.64974246,-55.347742800000006
4.079999999999999,408,-0.069,-1.006,-0.013999999999999999,-0.057295800000000015,-0.11459160000000004,-0.2291832000000001,87.71414021999998,-3.644012880000001,-55.35347237999999
4.089999999999999,409,-0.07,-1.006,-0.015,0.0,0.0,-0.2291832000000001,87.71414021999998,-3.644012880000001,-55.35347237999999
4.099999999999999,410,-0.069,-1.0070000000000001,-0.013999999999999999,-0.1718874,0.0,-0.1718874,87.7198698,-3.644012880000001,-55.35347237999999
4.109999999999999,411,-0.067,-1.008,-0.017,-0.3437748,0.0,-0.1718874,87.7198698,-3.6382833,-55.35347237999999
4.119999999999999,412,-0.068,-1.0070000000000001,-0.015,-0.2291832000000001,-0.11459160000000004,-0.2291832000000001,87.71414021999998,-3.6382833,-55.35347237999999
4.129999999999999,413,-0.069,-1.005,-0.017,-0.1718874,-0.057295800000000015,-0.2291832000000001,87.71414021999998,-3.6382833,-55.35347237999999
4.139999999999999,414,-0.069,-1.005,-0.015,-0.2291832000000001,0.0,-0.2291832000000001,87.71414021999998,-3.63255372,-55.35347237999999
4.1499999999999995,415,-0.069,-1.004,-0.016,0.0,-0.11459160000000004,-0.2291832000000001,87.71414021999998,-3.6382833,-55.35347237999999
4.159999999999999,416,-0.069,-1.005,-0.017,-0.2291832000000001,-0.11459160000000004,-0.2291832000000001,87.71414021999998,-3.6382833,-55.35920196000001
4.169999999999999,417,-0.069,-1.004,-0.017,-0.2291832000000001,-0.057295800000000015,-0.286479,87.70841064,-3.63255372,-55.35920196000001
4.179999999999999,418,-0.068,-1.003,-0.015,-0.11459160000000004,-0.2291832000000001,-0.2291832000000001,87.70841064,-3.63255372,-55.35920196000001
4.1899999999999995,419,-0.067,-1.001,-0.016,-0.057295800000000015,-0.11459160000000004,-0.2291832000000001,87.70841064,-3.62682414,-55.36493154
4.199999999999999,420,-0.067,-1.002,-0.013999999999999999,0.0,-0.11459160000000004,-0.11459160000000004,87.72559937999998,-3.63255372,-55.36493154
4.209999999999999,421,-0.069,-1.002,-0.015,0.0,-0.2291832000000001,-0.11459160000000004,87.72559937999998,-3.62682414,-55.36493154
4.219999999999999,422,-0.069,-1.003,-0.015,0.0,-0.1718874,-0.057295800000000015,87.72559937999998,-3.62682414,-55.37066112
4.2299999999999995,423,-0.068,-1.004,-0.016,0.0,0.0,-0.057295800000000015,87.72559937999998,-3.62682414,-55.37066112
4.239999999999999,424,-0.069,-1.006,-0.016,-0.1718874,-0.11459160000000004,0.0,87.72559937999998,-3.62682414,-55.37066112
4.249999999999999,425,-0.071,-1.004,-0.016,-0.1718874,-0.057295800000000015,0.0,87.73132896,-3.6382833,-55.37066112
4.259999999999999,426,-0.069,-1.005,-0.016,-0.1718874,-0.11459160000000004,-0.057295800000000015,87.73132896,-3.6382833,-55.37066112
4.27,427,-0.07,-1.004,-0.015,-0.2291832000000001,-0.11459160000000004,-0.11459160000000004,87.72559937999998,-3.6382833,-55.37639069999999
4.279999999999999,428,-0.07,-1.005,-0.015,-0.2291832000000001,0.0,-0.11459160000000004,87.72559937999998,-3.63255372,-55.37639069999999
4.289999999999999,429,-0.069,-1.004,-0.013000000000000001,-0.1718874,0.0,-0.11459160000000004,87.7198698,-3.63255372,-55.37639069999999
4.299999999999999,430,-0.07,-1.005,-0.015,-0.1718874,0.057295800000000015,0.0,87.73132896,-3.644012880000001,-55.37639069999999
4.309999999999999,431,-0.07,-1.006,-0.017,-0.286479,0.0,0.0,87.72559937999998,-3.644012880000001,-55.37639069999999
4.319999999999999,432,-0.07,-1.005,-0.016,-0.2291832000000001,0.0,-0.057295800000000015,87.72559937999998,-3.644012880000001,-55.37639069999999
4.329999999999999,433,-0.07,-1.006,-0.015,-0.11459160000000004,-0.057295800000000015,-0.057295800000000015,87.72559937999998,-3.644012880000001,-55.37639069999999
4.339999999999999,434,-0.071,-1.005,-0.015,-0.11459160000000004,0.057295800000000015,-0.057295800000000015,87.7198698,-3.6382833,-55.37639069999999
4.349999999999999,435,-0.071,-1.005,-0.015,-0.057295800000000015,0.11459160000000004,0.0,87.72559937999998,-3.65547204,-55.37639069999999
4.359999999999999,436,-0.07200000000000001,-1.006,-0.015,-0.2291832000000001,0.286479,0.0,87.7198698,-3.65547204,-55.37066112
4.369999999999999,437,-0.071,-1.006,-0.013999999999999999,-0.1718874,0.40107059999999994,0.0,87.7198698,-3.65547204,-55.36493154
4.379999999999999,438,-0.071,-1.003,-0.015,-0.1718874,0.2291832000000001,0.0,87.71414021999998,-3.65547204,-55.36493154
4.389999999999999,439,-0.071,-1.004,-0.015,-0.2291832000000001,0.11459160000000004,0.0,87.71414021999998,-3.65547204,-55.36493154
4.3999999999999995,440,-0.071,-1.004,-0.016,-0.11459160000000004,0.2291832000000001,0.0,87.7198698,-3.666931200000001,-55.35920196000001
4.409999999999999,441,-0.07200000000000001,-1.003,-0.016,-0.057295800000000015,0.2291832000000001,0.057295800000000015,87.7198698,-3.666931200000001,-55.35920196000001
4.419999999999999,442,-0.071,-1.004,-0.013000000000000001,-0.1718874,0.2291832000000001,0.0,87.71414021999998,-3.666931200000001,-55.35347237999999
4.429999999999999,443,-0.07200000000000001,-1.004,-0.013999999999999999,-0.11459160000000004,0.1718874,0.0,87.71414021999998,-3.666931200000001,-55.35347237999999
4.4399999999999995,444,-0.071,-1.003,-0.018000000000000002,-0.286479,0.1718874,0.0,87.71414021999998,-3.666931200000001,-55.35347237999999
4.449999999999999,445,-0.069,-1.004,-0.016,-0.2291832000000001,0.1718874,0.0,87.71414021999998,-3.666931200000001,-55.347742800000006
4.459999999999999,446,-0.069,-1.004,-0.015,-0.11459160000000004,0.11459160000000004,0.0,87.70841064,-3.666931200000001,-55.347742800000006
4.469999999999999,447,-0.069,-1.004,-0.015,-0.057295800000000015,0.0,0.0,87.70841064,-3.666931200000001,-55.347742800000006
4.4799999999999995,448,-0.069,-1.003,-0.016,-0.11459160000000004,0.0,0.0,87.70841064,-3.666931200000001,-55.347742800000006
4.489999999999999,449,-0.071,-1.002,-0.013000000000000001,0.0,0.057295800000000015,0.0,87.70841064,-3.666931200000001,-55.347742800000006
4.499999999999999,450,-0.07,-1.005,-0.013999999999999999,-0.286479,0.0,0.0,87.71414021999998,-3.67839036,-55.347742800000006
4.509999999999999,451,-0.071,-1.005,-0.016,-0.40107059999999994,-0.057295800000000015,0.0,87.70841064,-3.67839036,-55.347742800000006
4.519999999999999,452,-0.071,-1.006,-0.016,-0.3437748,-0.11459160000000004,0.0,87.70841064,-3.67839036,-55.347742800000006
4.529999999999999,453,-0.069,-1.004,-0.018000000000000002,-0.2291832000000001,0.0,0.0,87.70268106,-3.67839036,-55.347742800000006
4.539999999999999,454,-0.069,-1.004,-0.017,-0.3437748,0.0,0.0,87.70268106,-3.67839036,-55.347742800000006
4.549999999999999,455,-0.07,-1.006,-0.017,-0.11459160000000004,-0.057295800000000015,0.0,87.69695148,-3.68984952,-55.347742800000006
4.559999999999999,456,-0.07200000000000001,-1.003,-0.019,-0.057295800000000015,0.0,0.0,87.69695148,-3.68984952,-55.347742800000006
4.569999999999999,457,-0.07200000000000001,-1.002,-0.019,0.0,0.057295800000000015,-0.057295800000000015,87.69695148,-3.68411994,-55.347742800000006
4.579999999999999,458,-0.073,-1.001,-0.016,0.057295800000000015,0.40107059999999994,-0.11459160000000004,87.69695148,-3.68411994,-55.347742800000006
4.589999999999999,459,-0.07200000000000001,-1.002,-0.02,0.0,0.5156622000000001,0.0,87.69695148,-3.68411994,-55.34201322
4.599999999999999,460,-0.067,-1.003,-0.02,-0.2291832000000001,0.0,0.0,87.68549232000002,-3.67839036,-55.34201322
4.609999999999999,461,-0.063,-1.005,-0.018000000000000002,-0.11459160000000004,-0.572958,-0.1718874,87.68549232000002,-3.67839036,-55.347742800000006
4.619999999999999,462,-0.067,-1.004,-0.015,-0.1718874,-0.5156622000000001,-0.286479,87.68549232000002,-3.67266078,-55.35347237999999
4.629999999999999,463,-0.07200000000000001,-1.004,-0.015,-0.4583664000000001,-0.2291832000000001,-0.1718874,87.67976274,-3.67266078,-55.35347237999999
4.639999999999999,464,-0.075,-1.005,-0.018000000000000002,-0.40107059999999994,-0.11459160000000004,-0.057295800000000015,87.67403316,-3.67266078,-55.35347237999999
4.6499999999999995,465,-0.07200000000000001,-1.008,-0.019,-0.4583664000000001,-0.1718874,0.0,87.66830358,-3.67839036,-55.35920196000001
4.659999999999999,466,-0.071,-1.01,-0.021,-0.572958,-0.1718874,-0.11459160000000004,87.66257399999998,-3.67839036,-55.35920196000001
4.669999999999999,467,-0.068,-1.008,-0.02,-0.4583664000000001,-0.11459160000000004,-0.11459160000000004,87.65684442,-3.67266078,-55.35920196000001
4.679999999999999,468,-0.068,-1.008,-0.018000000000000002,-0.11459160000000004,-0.40107059999999994,0.0,87.65684442,-3.67266078,-55.36493154
4.6899999999999995,469,-0.068,-1.0070000000000001,-0.017,0.0,-0.5156622000000001,-0.057295800000000015,87.65684442,-3.67266078,-55.37066112
4.699999999999999,470,-0.07,-1.008,-0.013000000000000001,-0.2291832000000001,-0.40107059999999994,-0.057295800000000015,87.66830358,-3.68411994,-55.37639069999999
4.709999999999999,471,-0.071,-1.0090000000000001,-0.012,-0.3437748,-0.1718874,0.0,87.66830358,-3.68411994,-55.37639069999999
4.719999999999999,472,-0.073,-1.006,-0.019,-0.572958,0.0,0.057295800000000015,87.66257399999998,-3.68411994,-55.37639069999999
4.729999999999999,473,-0.073,-1.0,-0.02,-0.3437748,0.0,-0.057295800000000015,87.65684442,-3.68411994,-55.37639069999999
4.739999999999999,474,-0.073,-0.998,-0.02,0.057295800000000015,0.0,-0.1718874,87.65684442,-3.67839036,-55.37639069999999
4.749999999999999,475,-0.07,-0.996,-0.02,0.2291832000000001,-0.057295800000000015,-0.1718874,87.65684442,-3.68411994,-55.37639069999999
4.759999999999999,476,-0.07,-0.996,-0.019,0.286479,-0.11459160000000004,0.0,87.66257399999998,-3.68411994,-55.38212028
4.769999999999999,477,-0.07,-0.996,-0.019,0.40107059999999994,-0.3437748,0.0,87.66257399999998,-3.68411994,-55.38212028
4.779999999999999,478,-0.07,-0.997,-0.019,0.40107059999999994,-0.286479,0.0,87.66830358,-3.68411994,-55.38784986
4.789999999999999,479,-0.07200000000000001,-1.0,-0.018000000000000002,0.40107059999999994,-0.3437748,0.0,87.67403316,-3.68411994,-55.38784986
4.799999999999999,480,-0.07200000000000001,-1.001,-0.021,0.3437748,-0.3437748,0.0,87.66830358,-3.6955791,-55.39357944
4.809999999999999,481,-0.07200000000000001,-1.004,-0.02,0.3437748,-0.286479,0.057295800000000015,87.67403316,-3.6955791,-55.39357944
4.819999999999999,482,-0.07200000000000001,-1.005,-0.02,0.4583664000000001,0.2291832000000001,0.0,87.67976274,-3.6955791,-55.39357944
4.829999999999999,483,-0.071,-1.003,-0.019,0.4583664000000001,0.40107059999999994,0.0,87.68549232000002,-3.6955791,-55.38784986
4.839999999999999,484,-0.071,-1.003,-0.022000000000000002,0.40107059999999994,0.40107059999999994,0.0,87.68549232000002,-3.6955791,-55.38784986
4.849999999999999,485,-0.071,-1.005,-0.019,0.4583664000000001,0.2291832000000001,0.0,87.69122189999999,-3.6955791,-55.38212028
4.859999999999999,486,-0.071,-1.0070000000000001,-0.019,0.572958,0.1718874,-0.057295800000000015,87.69695148,-3.6955791,-55.38212028
4.869999999999999,487,-0.071,-1.008,-0.018000000000000002,0.4583664000000001,0.057295800000000015,-0.057295800000000015,87.70268106,-3.6955791,-55.38212028
4.879999999999999,488,-0.07,-1.0090000000000001,-0.019,0.2291832000000001,0.11459160000000004,-0.057295800000000015,87.70268106,-3.6955791,-55.37639069999999
4.889999999999999,489,-0.07,-1.0090000000000001,-0.019,0.286479,0.0,-0.057295800000000015,87.70841064,-3.6955791,-55.37639069999999
4.8999999999999995,490,-0.069,-1.006,-0.02,0.057295800000000015,-0.1718874,-0.11459160000000004,87.69695148,-3.70130868,-55.38212028
4.909999999999999,491,-0.07,-1.004,-0.022000000000000002,-0.11459160000000004,-0.057295800000000015,-0.1718874,87.69695148,-3.6955791,-55.38212028
4.919999999999999,492,-0.073,-1.003,-0.021,0.0,0.0,-0.2291832000000001,87.69695148,-3.6955791,-55.38212028
4.929999999999999,493,-0.073,-1.004,-0.019,0.0,0.11459160000000004,-0.1718874,87.69695148,-3.68984952,-55.38212028
4.939999999999999,494,-0.073,-1.005,-0.02,0.11459160000000004,0.0,-0.11459160000000004,87.69695148,-3.68984952,-55.38212028
4.949999999999999,495,-0.07,-1.006,-0.021,0.0,-0.11459160000000004,-0.1718874,87.68549232000002,-3.68984952,-55.38212028
4.959999999999999,496,-0.068,-1.006,-0.021,0.0,-0.2291832000000001,-0.3437748,87.68549232000002,-3.68411994,-55.38212028
4.969999999999999,497,-0.067,-1.004,-0.02,0.057295800000000015,-0.1718874,-0.4583664000000001,87.68549232000002,-3.67839036,-55.38784986
4.979999999999999,498,-0.069,-1.003,-0.019,0.2291832000000001,-0.2291832000000001,-0.286479,87.68549232000002,-3.67839036,-55.38784986
4.989999999999999,499,-0.07,-1.001,-0.017,0.057295800000000015,-0.2291832000000001,-0.286479,87.68549232000002,-3.67266078,-55.38784986
4.999999999999999,500,-0.07200000000000001,-1.003,-0.015,-0.057295800000000015,-0.3437748,-0.286479,87.69122189999999,-3.67839036,-55.39357944
5.009999999999999,501,-0.073,-1.004,-0.016,-0.057295800000000015,-0.1718874,-0.3437748,87.69122189999999,-3.67839036,-55.39357944
5.019999999999999,502,-0.07200000000000001,-1.004,-0.018000000000000002,-0.1718874,-0.11459160000000004,-0.2291832000000001,87.69122189999999,-3.67266078,-55.39930902
5.029999999999999,503,-0.071,-1.004,-0.019,-0.11459160000000004,-0.11459160000000004,-0.2291832000000001,87.68549232000002,-3.67266078,-55.39930902
5.039999999999999,504,-0.071,-1.001,-0.019,0.0,-0.11459160000000004,-0.286479,87.69122189999999,-3.666931200000001,-55.39930902
5.049999999999999,505,-0.071,-0.9990000000000001,-0.017,0.1718874,-0.11459160000000004,-0.2291832000000001,87.69122189999999,-3.67266078,-55.39930902
5.059999999999999,506,-0.07,-1.002,-0.018000000000000002,0.286479,-0.3437748,-0.2291832000000001,87.69695148,-3.67266078,-55.40503860000001
5.069999999999999,507,-0.069,-1.003,-0.016,0.3437748,-0.40107059999999994,-0.2291832000000001,87.70268106,-3.666931200000001,-55.41076817999999
5.079999999999999,508,-0.071,-1.004,-0.017,0.1718874,-0.3437748,-0.2291832000000001,87.70268106,-3.666931200000001,-55.41076817999999
5.089999999999999,509,-0.073,-1.004,-0.018000000000000002,0.1718874,-0.3437748,-0.2291832000000001,87.70841064,-3.666931200000001,-55.41649776000001
5.099999999999999,510,-0.07200000000000001,-1.005,-0.019,0.2291832000000001,-0.11459160000000004,-0.2291832000000001,87.70841064,-3.67266078,-55.41649776000001
5.109999999999999,511,-0.07,-1.0070000000000001,-0.019,0.1718874,0.0,-0.2291832000000001,87.70841064,-3.67266078,-55.41649776000001
5.119999999999999,512,-0.068,-1.0090000000000001,-0.019,0.1718874,0.0,-0.11459160000000004,87.70841064,-3.67266078,-55.41649776000001
5.129999999999999,513,-0.068,-1.01,-0.019,0.0,0.0,-0.11459160000000004,87.70841064,-3.67266078,-55.41649776000001
5.139999999999999,514,-0.069,-1.008,-0.019,-0.057295800000000015,0.0,0.0,87.70841064,-3.666931200000001,-55.41649776000001
5.149999999999999,515,-0.069,-1.006,-0.021,-0.1718874,0.0,-0.057295800000000015,87.69122189999999,-3.67266078,-55.41649776000001
5.159999999999999,516,-0.07,-1.005,-0.023,-0.2291832000000001,0.11459160000000004,-0.057295800000000015,87.68549232000002,-3.67266078,-55.41649776000001
5.169999999999999,517,-0.07,-1.005,-0.023,0.0,0.11459160000000004,-0.057295800000000015,87.68549232000002,-3.666931200000001,-55.41649776000001
5.179999999999999,518,-0.068,-1.004,-0.02,-0.057295800000000015,0.11459160000000004,-0.11459160000000004,87.68549232000002,-3.666931200000001,-55.41076817999999
5.189999999999999,519,-0.068,-1.003,-0.019,0.0,0.11459160000000004,-0.1718874,87.68549232000002,-3.666931200000001,-55.41076817999999
5.199999999999999,520,-0.068,-1.002,-0.021,0.0,0.057295800000000015,-0.057295800000000015,87.66830358,-3.666931200000001,-55.41076817999999
5.209999999999999,521,-0.068,-1.002,-0.022000000000000002,0.0,0.11459160000000004,0.0,87.66830358,-3.666931200000001,-55.41076817999999
5.219999999999999,522,-0.068,-1.004,-0.021,0.057295800000000015,0.11459160000000004,0.057295800000000015,87.66830358,-3.666931200000001,-55.40503860000001
5.229999999999999,523,-0.068,-1.005,-0.021,0.057295800000000015,0.11459160000000004,0.057295800000000015,87.66830358,-3.666931200000001,-55.40503860000001
5.239999999999999,524,-0.069,-1.004,-0.02,0.11459160000000004,0.11459160000000004,0.057295800000000015,87.66830358,-3.666931200000001,-55.40503860000001
5.249999999999999,525,-0.07,-1.005,-0.019,0.11459160000000004,0.11459160000000004,0.0,87.66830358,-3.67839036,-55.39930902
5.259999999999999,526,-0.068,-1.005,-0.02,0.057295800000000015,0.11459160000000004,0.0,87.66830358,-3.67839036,-55.39930902
5.269999999999999,527,-0.067,-1.006,-0.018000000000000002,0.0,0.1718874,-0.11459160000000004,87.66830358,-3.67839036,-55.39930902
5.279999999999999,528,-0.068,-1.005,-0.019,0.11459160000000004,0.057295800000000015,0.0,87.67403316,-3.67839036,-55.39930902
5.289999999999999,529,-0.068,-1.004,-0.019,0.0,0.0,-0.057295800000000015,87.67403316,-3.67266078,-55.39930902
5.299999999999999,530,-0.068,-1.003,-0.019,0.11459160000000004,0.0,0.0,87.67403316,-3.67839036,-55.39930902
5.309999999999999,531,-0.069,-1.004,-0.02,0.0,0.0,0.0,87.67403316,-3.67266078,-55.39930902
5.319999999999999,532,-0.069,-1.005,-0.019,0.0,0.0,-0.057295800000000015,87.67403316,-3.67266078,-55.39930902
5.329999999999999,533,-0.067,-1.004,-0.019,0.0,0.11459160000000004,0.0,87.67403316,-3.67266078,-55.39357944
5.339999999999999,534,-0.068,-1.006,-0.019,0.0,0.0,0.0,87.67403316,-3.67266078,-55.39357944
5.349999999999999,535,-0.069,-1.005,-0.019,0.057295800000000015,0.0,0.0,87.66257399999998,-3.67266078,-55.39357944
5.3599999999999985,536,-0.068,-1.005,-0.02,0.1718874,0.057295800000000015,0.0,87.66830358,-3.67266078,-55.39357944
5.369999999999999,537,-0.067,-1.005,-0.02,0.1718874,0.0,0.0,87.66830358,-3.67266078,-55.39357944
5.379999999999999,538,-0.067,-1.004,-0.019,0.1718874,0.0,0.0,87.66830358,-3.67266078,-55.39357944
5.389999999999999,539,-0.067,-1.006,-0.018000000000000002,0.1718874,0.0,0.0,87.67403316,-3.67266078,-55.39357944
5.399999999999999,540,-0.068,-1.006,-0.017,0.057295800000000015,0.0,0.0,87.67976274,-3.666931200000001,-55.39357944
5.409999999999999,541,-0.068,-1.0070000000000001,-0.018000000000000002,0.0,0.0,0.0,87.67976274,-3.666931200000001,-55.39357944
5.419999999999999,542,-0.068,-1.006,-0.019,-0.286479,0.0,0.0,87.67403316,-3.666931200000001,-55.39357944
5.429999999999999,543,-0.069,-1.003,-0.019,-0.286479,-0.1718874,-0.057295800000000015,87.67403316,-3.666931200000001,-55.39357944
5.439999999999999,544,-0.067,-1.002,-0.02,-0.1718874,-0.1718874,-0.11459160000000004,87.67403316,-3.666931200000001,-55.39930902
5.449999999999999,545,-0.066,-1.002,-0.018000000000000002,-0.11459160000000004,-0.286479,-0.1718874,87.67403316,-3.66120162,-55.39930902
5.459999999999999,546,-0.066,-1.003,-0.021,0.0,-0.286479,-0.1718874,87.67403316,-3.66120162,-55.40503860000001
5.469999999999999,547,-0.067,-1.004,-0.021,0.0,-0.286479,0.0,87.67403316,-3.66120162,-55.40503860000001
5.479999999999999,548,-0.067,-1.005,-0.02,0.0,-0.2291832000000001,0.057295800000000015,87.67403316,-3.66120162,-55.41076817999999
5.489999999999999,549,-0.068,-1.002,-0.02,0.0,-0.40107059999999994,0.0,87.67976274,-3.66120162,-55.41649776000001
5.499999999999999,550,-0.071,-1.003,-0.019,0.11459160000000004,-0.40107059999999994,0.0,87.67976274,-3.67266078,-55.41649776000001
5.509999999999999,551,-0.07200000000000001,-1.003,-0.019,0.1718874,-0.286479,-0.11459160000000004,87.67976274,-3.67266078,-55.42222733999999
5.519999999999999,552,-0.071,-1.003,-0.018000000000000002,0.1718874,-0.2291832000000001,-0.11459160000000004,87.68549232000002,-3.666931200000001,-55.42222733999999
5.529999999999999,553,-0.071,-1.006,-0.019,0.057295800000000015,-0.1718874,0.0,87.68549232000002,-3.67266078,-55.42795692
5.539999999999999,554,-0.068,-1.008,-0.021,0.0,-0.11459160000000004,0.057295800000000015,87.68549232000002,-3.67266078,-55.42795692
5.549999999999999,555,-0.067,-1.0070000000000001,-0.02,0.11459160000000004,-0.1718874,0.0,87.67403316,-3.666931200000001,-55.42795692
5.559999999999999,556,-0.068,-1.006,-0.022000000000000002,0.1718874,0.0,0.0,87.67976274,-3.666931200000001,-55.42795692
5.5699999999999985,557,-0.069,-1.005,-0.021,0.2291832000000001,0.11459160000000004,0.0,87.67976274,-3.666931200000001,-55.42795692
5.579999999999999,558,-0.071,-1.005,-0.022000000000000002,0.3437748,0.286479,0.057295800000000015,87.68549232000002,-3.666931200000001,-55.42222733999999
5.589999999999999,559,-0.07,-1.006,-0.021,0.1718874,0.286479,0.0,87.68549232000002,-3.666931200000001,-55.42222733999999
5.599999999999999,560,-0.068,-1.005,-0.021,0.2291832000000001,0.3437748,0.11459160000000004,87.67976274,-3.666931200000001,-55.41649776000001
5.6099999999999985,561,-0.067,-1.006,-0.022000000000000002,0.2291832000000001,0.5156622000000001,0.1718874,87.68549232000002,-3.666931200000001,-55.41076817999999
5.619999999999999,562,-0.065,-1.0070000000000001,-0.023,0.3437748,0.572958,0.1718874,87.68549232000002,-3.67266078,-55.40503860000001
5.629999999999999,563,-0.064,-1.005,-0.022000000000000002,0.3437748,0.11459160000000004,0.11459160000000004,87.69122189999999,-3.67266078,-55.40503860000001
5.639999999999999,564,-0.065,-1.003,-0.02,0.3437748,-0.057295800000000015,0.0,87.69122189999999,-3.67266078,-55.40503860000001
5.649999999999999,565,-0.065,-1.004,-0.016,0.2291832000000001,0.0,-0.11459160000000004,87.70841064,-3.65547204,-55.40503860000001
5.659999999999999,566,-0.066,-1.006,-0.017,0.057295800000000015,0.2291832000000001,-0.1718874,87.70841064,-3.64974246,-55.40503860000001
5.669999999999999,567,-0.068,-1.006,-0.018000000000000002,-0.11459160000000004,0.4583664000000001,0.0,87.70268106,-3.64974246,-55.39930902
5.679999999999999,568,-0.066,-1.004,-0.02,-0.2291832000000001,0.5156622000000001,0.11459160000000004,87.70268106,-3.65547204,-55.39357944
5.689999999999999,569,-0.063,-1.005,-0.02,-0.11459160000000004,0.3437748,0.11459160000000004,87.70268106,-3.65547204,-55.38784986
5.699999999999999,570,-0.06,-1.0070000000000001,-0.017,-0.11459160000000004,0.0,0.2291832000000001,87.70268106,-3.63255372,-55.38784986
5.709999999999999,571,-0.06,-1.008,-0.016,-0.1718874,-0.40107059999999994,0.11459160000000004,87.69695148,-3.63255372,-55.39357944
5.719999999999999,572,-0.063,-1.008,-0.017,-0.1718874,-0.572958,0.0,87.69695148,-3.63255372,-55.39930902
5.729999999999999,573,-0.066,-1.0070000000000001,-0.016,-0.4583664000000001,-0.3437748,0.0,87.69122189999999,-3.63255372,-55.40503860000001
5.739999999999999,574,-0.068,-1.0090000000000001,-0.017,-0.4583664000000001,-0.1718874,0.11459160000000004,87.68549232000002,-3.6382833,-55.40503860000001
5.749999999999999,575,-0.069,-1.006,-0.017,-0.2291832000000001,0.0,0.11459160000000004,87.69122189999999,-3.644012880000001,-55.40503860000001
5.759999999999999,576,-0.066,-1.004,-0.017,-0.057295800000000015,0.1718874,0.2291832000000001,87.69122189999999,-3.644012880000001,-55.40503860000001
5.769999999999999,577,-0.065,-1.004,-0.018000000000000002,0.0,0.1718874,0.3437748,87.69122189999999,-3.64974246,-55.39930902
5.7799999999999985,578,-0.062,-1.003,-0.018000000000000002,0.1718874,0.0,0.5156622000000001,87.69122189999999,-3.65547204,-55.39930902
5.789999999999999,579,-0.064,-1.002,-0.018000000000000002,0.286479,-0.286479,0.4583664000000001,87.69695148,-3.66120162,-55.40503860000001
5.799999999999999,580,-0.067,-1.003,-0.016,0.286479,-0.4583664000000001,0.40107059999999994,87.70268106,-3.66120162,-55.41076817999999
5.809999999999999,581,-0.067,-1.003,-0.017,0.11459160000000004,-0.572958,0.3437748,87.70268106,-3.666931200000001,-55.41649776000001
5.8199999999999985,582,-0.068,-1.002,-0.019,0.0,-0.6302538000000001,0.2291832000000001,87.70268106,-3.666931200000001,-55.42222733999999
5.829999999999999,583,-0.067,-1.002,-0.02,0.0,-0.6875496,0.11459160000000004,87.70268106,-3.666931200000001,-55.42795692
5.839999999999999,584,-0.068,-1.003,-0.022000000000000002,-0.057295800000000015,-0.4583664000000001,0.0,87.70268106,-3.67266078,-55.4336865
5.849999999999999,585,-0.067,-1.003,-0.023,-0.057295800000000015,-0.2291832000000001,0.057295800000000015,87.67976274,-3.67266078,-55.4336865
5.8599999999999985,586,-0.067,-1.003,-0.021,0.057295800000000015,0.057295800000000015,0.057295800000000015,87.67976274,-3.67266078,-55.4336865
5.869999999999999,587,-0.067,-1.001,-0.021,0.057295800000000015,0.2291832000000001,0.286479,87.67976274,-3.67839036,-55.42795692
5.879999999999999,588,-0.067,-1.001,-0.022000000000000002,0.1718874,0.2291832000000001,0.286479,87.68549232000002,-3.67839036,-55.42795692
5.889999999999999,589,-0.067,-1.002,-0.021,0.286479,0.2291832000000001,0.286479,87.68549232000002,-3.68411994,-55.42222733999999
5.899999999999999,590,-0.068,-1.005,-0.022000000000000002,0.40107059999999994,0.057295800000000015,0.286479,87.68549232000002,-3.68411994,-55.42222733999999
5.909999999999999,591,-0.069,-1.0070000000000001,-0.02,0.3437748,-0.057295800000000015,0.11459160000000004,87.68549232000002,-3.68411994,-55.42222733999999
5.919999999999999,592,-0.067,-1.0090000000000001,-0.022000000000000002,0.1718874,0.057295800000000015,0.057295800000000015,87.69122189999999,-3.68411994,-55.42222733999999
5.929999999999999,593,-0.065,-1.006,-0.023,0.11459160000000004,0.0,0.057295800000000015,87.69122189999999,-3.68411994,-55.42222733999999
5.939999999999999,594,-0.066,-1.006,-0.022000000000000002,0.3437748,0.057295800000000015,0.0,87.69122189999999,-3.68411994,-55.42222733999999
5.949999999999999,595,-0.068,-1.006,-0.021,0.286479,0.2291832000000001,-0.057295800000000015,87.68549232000002,-3.68411994,-55.41649776000001
5.959999999999999,596,-0.07,-1.005,-0.021,0.3437748,0.2291832000000001,0.0,87.69122189999999,-3.68411994,-55.41649776000001
5.969999999999999,597,-0.069,-1.004,-0.023,0.286479,0.4583664000000001,0.0,87.69695148,-3.68411994,-55.41076817999999
5.979999999999999,598,-0.066,-1.004,-0.023,0.2291832000000001,0.4583664000000001,0.0,87.69695148,-3.68411994,-55.40503860000001
5.989999999999998,599,-0.065,-1.005,-0.022000000000000002,0.286479,0.286479,0.0,87.69695148,-3.68411994,-55.40503860000001
5.999999999999999,600,-0.065,-1.004,-0.018000000000000002,0.6302538000000001,0.0,-0.057295800000000015,87.70841064,-3.68411994,-55.39930902
6.009999999999999,601,-0.069,-1.003,-0.018000000000000002,0.4583664000000001,-0.11459160000000004,-0.11459160000000004,87.71414021999998,-3.67839036,-55.40503860000001
6.019999999999999,602,-0.07,-1.004,-0.019,0.1718874,0.0,-0.286479,87.71414021999998,-3.67839036,-55.40503860000001
6.0299999999999985,603,-0.069,-1.004,-0.018000000000000002,0.057295800000000015,0.2291832000000001,-0.286479,87.71414021999998,-3.67266078,-55.39930902
6.039999999999999,604,-0.066,-1.005,-0.017,0.057295800000000015,0.4583664000000001,-0.2291832000000001,87.71414021999998,-3.67266078,-55.39930902
6.049999999999999,605,-0.065,-1.003,-0.018000000000000002,0.0,0.5156622000000001,-0.1718874,87.71414021999998,-3.66120162,-55.39357944
6.059999999999999,606,-0.065,-1.004,-0.018000000000000002,0.11459160000000004,0.572958,-0.057295800000000015,87.71414021999998,-3.66120162,-55.38784986
6.0699999999999985,607,-0.063,-1.004,-0.018000000000000002,0.1718874,0.40107059999999994,-0.057295800000000015,87.71414021999998,-3.66120162,-55.38212028
6.079999999999999,608,-0.065,-1.003,-0.018000000000000002,0.2291832000000001,0.11459160000000004,0.0,87.71414021999998,-3.66120162,-55.38212028
6.089999999999999,609,-0.065,-1.004,-0.017,0.3437748,0.11459160000000004,0.0,87.7198698,-3.66120162,-55.37639069999999
6.099999999999999,610,-0.066,-1.006,-0.016,0.4583664000000001,0.11459160000000004,0.0,87.72559937999998,-3.65547204,-55.37639069999999
6.1099999999999985,611,-0.066,-1.005,-0.016,0.40107059999999994,0.0,0.0,87.72559937999998,-3.65547204,-55.37639069999999
6.119999999999999,612,-0.067,-1.006,-0.015,0.3437748,-0.057295800000000015,0.0,87.73132896,-3.64974246,-55.37639069999999
6.129999999999999,613,-0.066,-1.006,-0.015,0.286479,0.057295800000000015,0.0,87.73705853999998,-3.64974246,-55.37639069999999
6.139999999999999,614,-0.065,-1.008,-0.016,0.11459160000000004,0.11459160000000004,-0.057295800000000015,87.73705853999998,-3.64974246,-55.37639069999999
6.149999999999999,615,-0.063,-1.006,-0.017,0.0,0.11459160000000004,0.0,87.73132896,-3.62109456,-55.37639069999999
6.159999999999999,616,-0.065,-1.005,-0.018000000000000002,0.057295800000000015,0.057295800000000015,-0.057295800000000015,87.73132896,-3.61536498,-55.37066112
6.169999999999999,617,-0.064,-1.005,-0.02,0.11459160000000004,0.0,-0.11459160000000004,87.73132896,-3.61536498,-55.37066112
6.179999999999999,618,-0.066,-1.003,-0.018000000000000002,0.286479,0.0,-0.057295800000000015,87.73705853999998,-3.61536498,-55.37066112
6.189999999999999,619,-0.065,-1.003,-0.015,0.572958,0.0,-0.11459160000000004,87.74278812,-3.61536498,-55.37066112
6.199999999999998,620,-0.063,-1.002,-0.013999999999999999,0.572958,-0.1718874,0.0,87.75424728,-3.60390582,-55.37639069999999
6.209999999999999,621,-0.063,-1.003,-0.013000000000000001,0.40107059999999994,-0.286479,0.0,87.75424728,-3.60390582,-55.37639069999999
6.219999999999999,622,-0.063,-1.005,-0.013999999999999999,0.3437748,-0.5156622000000001,-0.057295800000000015,87.75997686000002,-3.60390582,-55.38212028
6.229999999999999,623,-0.064,-1.0070000000000001,-0.015,0.11459160000000004,-0.4583664000000001,-0.057295800000000015,87.76570644,-3.60390582,-55.38784986
6.239999999999998,624,-0.066,-1.006,-0.015,0.0,-0.6302538000000001,-0.057295800000000015,87.76570644,-3.60390582,-55.39357944
6.249999999999999,625,-0.067,-1.006,-0.017,-0.1718874,-0.572958,-0.11459160000000004,87.75997686000002,-3.59817624,-55.39930902
6.259999999999999,626,-0.068,-1.006,-0.017,-0.1718874,-0.286479,-0.057295800000000015,87.75997686000002,-3.59817624,-55.40503860000001
6.269999999999999,627,-0.066,-1.005,-0.017,-0.1718874,-0.1718874,-0.057295800000000015,87.75424728,-3.59817624,-55.40503860000001
6.2799999999999985,628,-0.067,-1.004,-0.015,-0.1718874,-0.057295800000000015,0.057295800000000015,87.75424728,-3.59817624,-55.40503860000001
6.289999999999999,629,-0.066,-1.005,-0.016,-0.3437748,0.0,0.1718874,87.74851770000002,-3.60390582,-55.40503860000001
6.299999999999999,630,-0.066,-1.004,-0.017,-0.40107059999999994,0.11459160000000004,0.1718874,87.74278812,-3.60390582,-55.40503860000001
6.309999999999999,631,-0.067,-1.005,-0.02,-0.40107059999999994,0.286479,0.1718874,87.73705853999998,-3.60390582,-55.39930902
6.3199999999999985,632,-0.066,-1.004,-0.018000000000000002,-0.286479,0.3437748,0.1718874,87.73132896,-3.6096354,-55.39930902
6.329999999999999,633,-0.066,-1.004,-0.017,-0.2291832000000001,0.3437748,0.286479,87.73132896,-3.6096354,-55.39357944
6.339999999999999,634,-0.066,-1.005,-0.018000000000000002,-0.3437748,0.3437748,0.4583664000000001,87.72559937999998,-3.61536498,-55.38784986
6.349999999999999,635,-0.066,-1.004,-0.018000000000000002,-0.1718874,0.3437748,0.4583664000000001,87.7198698,-3.62109456,-55.38784986
6.3599999999999985,636,-0.066,-1.004,-0.018000000000000002,0.0,0.40107059999999994,0.40107059999999994,87.7198698,-3.62109456,-55.38212028
6.369999999999999,637,-0.065,-1.006,-0.018000000000000002,0.0,0.4583664000000001,0.3437748,87.7198698,-3.62682414,-55.37639069999999
6.379999999999999,638,-0.064,-1.0070000000000001,-0.019,0.0,0.572958,0.3437748,87.7198698,-3.63255372,-55.37066112
6.389999999999999,639,-0.065,-1.0070000000000001,-0.017,0.11459160000000004,0.5156622000000001,0.286479,87.7198698,-3.63255372,-55.36493154
6.399999999999999,640,-0.067,-1.008,-0.018000000000000002,0.0,0.5156622000000001,0.286479,87.7198698,-3.63255372,-55.35920196000001
6.409999999999998,641,-0.065,-1.008,-0.016,0.0,0.572958,0.286479,87.7198698,-3.6382833,-55.35347237999999
6.419999999999999,642,-0.065,-1.0070000000000001,-0.015,0.0,0.5156622000000001,0.2291832000000001,87.71414021999998,-3.6382833,-55.347742800000006
6.429999999999999,643,-0.064,-1.005,-0.016,-0.1718874,0.572958,0.3437748,87.71414021999998,-3.644012880000001,-55.34201322
6.439999999999999,644,-0.063,-1.005,-0.013999999999999999,-0.057295800000000015,0.572958,0.3437748,87.71414021999998,-3.64974246,-55.33628364
6.449999999999998,645,-0.064,-1.005,-0.015,0.0,0.5156622000000001,0.3437748,87.7198698,-3.644012880000001,-55.33055406
6.459999999999999,646,-0.065,-1.004,-0.013000000000000001,0.0,0.40107059999999994,0.3437748,87.71414021999998,-3.644012880000001,-55.32482448
6.469999999999999,647,-0.064,-1.005,-0.013999999999999999,-0.057295800000000015,0.40107059999999994,0.3437748,87.71414021999998,-3.64974246,-55.32482448
6.479999999999999,648,-0.065,-1.005,-0.015,0.0,0.3437748,0.3437748,87.71414021999998,-3.65547204,-55.3190949
6.489999999999998,649,-0.065,-1.005,-0.016,0.1718874,0.4583664000000001,0.286479,87.7198698,-3.65547204,-55.31336532
6.499999999999999,650,-0.065,-1.005,-0.013000000000000001,0.286479,0.4583664000000001,0.2291832000000001,87.72559937999998,-3.64974246,-55.30763574
6.509999999999999,651,-0.066,-1.005,-0.013000000000000001,0.3437748,0.286479,0.286479,87.73132896,-3.65547204,-55.30763574
6.519999999999999,652,-0.067,-1.004,-0.013000000000000001,0.3437748,0.1718874,0.40107059999999994,87.73705853999998,-3.66120162,-55.30190616
6.5299999999999985,653,-0.067,-1.006,-0.012,0.2291832000000001,0.286479,0.3437748,87.73705853999998,-3.66120162,-55.30190616
6.539999999999999,654,-0.066,-1.006,-0.013999999999999999,0.286479,0.3437748,0.286479,87.73705853999998,-3.666931200000001,-55.29617658
6.549999999999999,655,-0.067,-1.0070000000000001,-0.012,0.286479,0.1718874,0.286479,87.75424728,-3.65547204,-55.29617658
6.559999999999999,656,-0.067,-1.004,-0.012,0.5156622000000001,0.0,0.1718874,87.75997686000002,-3.66120162,-55.29617658
6.5699999999999985,657,-0.067,-1.005,-0.013999999999999999,0.3437748,0.057295800000000015,0.0,87.76570644,-3.66120162,-55.29617658
6.579999999999999,658,-0.067,-1.006,-0.013000000000000001,0.2291832000000001,0.0,0.0,87.76570644,-3.66120162,-55.29617658
6.589999999999999,659,-0.067,-1.006,-0.012,0.1718874,-0.057295800000000015,0.0,87.77143602000002,-3.66120162,-55.29617658
6.599999999999999,660,-0.066,-1.0070000000000001,-0.013999999999999999,0.11459160000000004,-0.1718874,-0.057295800000000015,87.79435434000001,-3.64974246,-55.29617658
6.6099999999999985,661,-0.066,-1.0070000000000001,-0.012,0.057295800000000015,-0.057295800000000015,-0.057295800000000015,87.79435434000001,-3.64974246,-55.30190616
6.619999999999999,662,-0.066,-1.0070000000000001,-0.013000000000000001,0.057295800000000015,-0.1718874,0.0,87.79435434000001,-3.64974246,-55.30190616
6.629999999999999,663,-0.067,-1.0070000000000001,-0.011000000000000001,0.057295800000000015,-0.3437748,0.0,87.79435434000001,-3.64974246,-55.30763574
6.639999999999999,664,-0.067,-1.004,-0.012,0.0,-0.1718874,0.057295800000000015,87.80008391999998,-3.64974246,-55.30763574
6.649999999999999,665,-0.065,-1.005,-0.013000000000000001,0.11459160000000004,-0.286479,0.0,87.81727266,-3.63255372,-55.31336532
6.659999999999998,666,-0.065,-1.004,-0.013999999999999999,0.0,-0.40107059999999994,0.0,87.81727266,-3.63255372,-55.31336532
6.669999999999999,667,-0.066,-1.0070000000000001,-0.013999999999999999,0.0,-0.3437748,0.057295800000000015,87.81727266,-3.63255372,-55.3190949
6.679999999999999,668,-0.068,-1.0070000000000001,-0.012,0.0,-0.572958,0.0,87.81727266,-3.63255372,-55.32482448
6.689999999999999,669,-0.068,-1.0090000000000001,-0.012,-0.1718874,-0.572958,0.0,87.81727266,-3.63255372,-55.33055406
6.699999999999998,670,-0.068,-1.0070000000000001,-0.013999999999999999,-0.3437748,-0.40107059999999994,0.0,87.81154308,-3.63255372,-55.33628364
6.709999999999999,671,-0.068,-1.004,-0.013000000000000001,-0.40107059999999994,-0.3437748,0.057295800000000015,87.81154308,-3.6382833,-55.34201322
6.719999999999999,672,-0.069,-1.006,-0.013000000000000001,-0.4583664000000001,-0.40107059999999994,0.0,87.8058135,-3.6382833,-55.34201322
6.729999999999999,673,-0.07,-1.005,-0.013999999999999999,-0.286479,-0.3437748,0.0,87.80008391999998,-3.6382833,-55.347742800000006
6.739999999999998,674,-0.07,-1.003,-0.016,-0.40107059999999994,-0.11459160000000004,0.0,87.80008391999998,-3.63255372,-55.347742800000006
6.749999999999999,675,-0.069,-1.004,-0.013999999999999999,-0.286479,-0.057295800000000015,-0.057295800000000015,87.79435434000001,-3.6382833,-55.347742800000006
6.759999999999999,676,-0.068,-1.005,-0.012,-0.286479,0.0,0.0,87.79435434000001,-3.6382833,-55.347742800000006
6.769999999999999,677,-0.067,-1.005,-0.012,-0.2291832000000001,-0.057295800000000015,0.057295800000000015,87.78862475999998,-3.6382833,-55.35347237999999
6.7799999999999985,678,-0.067,-1.003,-0.015,-0.3437748,-0.11459160000000004,0.11459160000000004,87.78862475999998,-3.6382833,-55.35347237999999
6.789999999999999,679,-0.069,-1.003,-0.015,-0.4583664000000001,-0.1718874,0.11459160000000004,87.78289518,-3.644012880000001,-55.35347237999999
6.799999999999999,680,-0.068,-1.001,-0.011000000000000001,-0.40107059999999994,-0.1718874,0.1718874,87.79435434000001,-3.64974246,-55.35920196000001
6.809999999999999,681,-0.071,-1.004,-0.01,-0.6302538000000001,0.11459160000000004,0.11459160000000004,87.78862475999998,-3.64974246,-55.35347237999999
6.8199999999999985,682,-0.07200000000000001,-1.005,-0.013000000000000001,-0.7448454000000001,0.3437748,0.11459160000000004,87.77716559999998,-3.64974246,-55.35347237999999
6.829999999999999,683,-0.07,-1.005,-0.013000000000000001,-0.8021411999999999,0.4583664000000001,0.286479,87.77143602000002,-3.65547204,-55.347742800000006
6.839999999999999,684,-0.066,-1.006,-0.012,-0.7448454000000001,0.3437748,0.1718874,87.75997686000002,-3.65547204,-55.34201322
6.849999999999999,685,-0.067,-1.008,-0.011000000000000001,-0.6875496,0.0,0.1718874,87.75997686000002,-3.65547204,-55.347742800000006
6.8599999999999985,686,-0.067,-1.01,-0.012,-0.6875496,-0.11459160000000004,0.057295800000000015,87.75424728,-3.66120162,-55.347742800000006
6.869999999999998,687,-0.067,-1.01,-0.01,-0.6875496,-0.1718874,0.057295800000000015,87.74851770000002,-3.66120162,-55.347742800000006
6.879999999999999,688,-0.069,-1.008,-0.012,-0.6875496,-0.1718874,0.11459160000000004,87.74278812,-3.66120162,-55.347742800000006
6.889999999999999,689,-0.069,-1.004,-0.013000000000000001,-0.572958,0.2291832000000001,0.2291832000000001,87.73705853999998,-3.66120162,-55.347742800000006
6.899999999999999,690,-0.07,-1.001,-0.013999999999999999,-0.40107059999999994,0.3437748,0.2291832000000001,87.73705853999998,-3.67266078,-55.34201322
6.909999999999998,691,-0.069,-1.001,-0.013999999999999999,-0.286479,0.40107059999999994,0.286479,87.73132896,-3.67266078,-55.34201322
6.919999999999999,692,-0.067,-0.9990000000000001,-0.016,-0.057295800000000015,0.40107059999999994,0.286479,87.73132896,-3.67839036,-55.33628364
6.929999999999999,693,-0.068,-1.0,-0.013999999999999999,0.0,0.3437748,0.286479,87.73132896,-3.67839036,-55.33055406
6.939999999999999,694,-0.069,-1.0,-0.013999999999999999,0.0,0.11459160000000004,0.1718874,87.73132896,-3.68411994,-55.33055406
6.949999999999998,695,-0.07,-1.0,-0.013999999999999999,0.0,0.0,0.11459160000000004,87.74278812,-3.68411994,-55.33055406
6.959999999999999,696,-0.068,-1.001,-0.015,0.057295800000000015,0.0,0.11459160000000004,87.74278812,-3.68984952,-55.33055406
6.969999999999999,697,-0.067,-1.002,-0.017,0.11459160000000004,-0.2291832000000001,0.057295800000000015,87.74278812,-3.68984952,-55.33055406
6.979999999999999,698,-0.068,-1.004,-0.016,0.1718874,-0.1718874,0.0,87.74278812,-3.68984952,-55.33628364
6.989999999999998,699,-0.069,-1.005,-0.016,0.2291832000000001,-0.057295800000000015,0.0,87.74851770000002,-3.68984952,-55.33628364
6.999999999999999,700,-0.071,-1.005,-0.018000000000000002,0.11459160000000004,0.0,0.0,87.73705853999998,-3.70130868,-55.33628364
7.009999999999999,701,-0.071,-1.005,-0.015,0.11459160000000004,0.0,0.0,87.74278812,-3.70130868,-55.33628364
7.019999999999999,702,-0.07200000000000001,-1.003,-0.016,0.11459160000000004,-0.057295800000000015,0.0,87.74278812,-3.70130868,-55.33628364
7.0299999999999985,703,-0.071,-1.003,-0.016,0.11459160000000004,-0.1718874,0.0,87.74278812,-3.70130868,-55.33628364
7.039999999999999,704,-0.071,-1.003,-0.013999999999999999,0.057295800000000015,-0.286479,-0.11459160000000004,87.74278812,-3.70130868,-55.34201322
7.049999999999999,705,-0.07,-1.005,-0.013999999999999999,0.1718874,-0.3437748,-0.2291832000000001,87.75424728,-3.6955791,-55.347742800000006
7.059999999999999,706,-0.069,-1.006,-0.015,0.2291832000000001,-0.1718874,-0.2291832000000001,87.75424728,-3.6955791,-55.347742800000006
7.0699999999999985,707,-0.068,-1.0070000000000001,-0.015,0.3437748,-0.057295800000000015,-0.1718874,87.75997686000002,-3.6955791,-55.347742800000006
7.079999999999998,708,-0.069,-1.004,-0.013999999999999999,0.40107059999999994,-0.2291832000000001,-0.1718874,87.76570644,-3.68984952,-55.35347237999999
7.089999999999999,709,-0.07200000000000001,-1.004,-0.016,0.40107059999999994,-0.057295800000000015,-0.1718874,87.77143602000002,-3.68984952,-55.35347237999999
7.099999999999999,710,-0.073,-1.005,-0.015,0.4583664000000001,0.0,-0.2291832000000001,87.77716559999998,-3.6955791,-55.35347237999999
7.1099999999999985,711,-0.07200000000000001,-1.006,-0.013999999999999999,0.286479,0.2291832000000001,-0.11459160000000004,87.78289518,-3.6955791,-55.347742800000006
7.119999999999998,712,-0.071,-1.005,-0.013000000000000001,0.1718874,0.0,0.0,87.78289518,-3.6955791,-55.347742800000006
7.129999999999999,713,-0.07,-1.005,-0.015,0.0,-0.286479,-0.057295800000000015,87.78289518,-3.6955791,-55.35347237999999
7.139999999999999,714,-0.069,-1.006,-0.013000000000000001,0.057295800000000015,-0.2291832000000001,-0.2291832000000001,87.78289518,-3.68984952,-55.35347237999999
7.149999999999999,715,-0.069,-1.008,-0.012,0.0,-0.2291832000000001,-0.286479,87.79435434000001,-3.68984952,-55.35920196000001
7.159999999999998,716,-0.07,-1.008,-0.012,0.0,-0.286479,-0.2291832000000001,87.79435434000001,-3.68411994,-55.35920196000001
7.169999999999999,717,-0.07200000000000001,-1.008,-0.011000000000000001,-0.11459160000000004,-0.1718874,-0.11459160000000004,87.79435434000001,-3.68411994,-55.36493154
7.179999999999999,718,-0.071,-1.005,-0.01,-0.11459160000000004,0.0,-0.057295800000000015,87.78862475999998,-3.68411994,-55.36493154
7.189999999999999,719,-0.07200000000000001,-1.004,-0.011000000000000001,-0.2291832000000001,0.057295800000000015,-0.11459160000000004,87.78862475999998,-3.68411994,-55.35920196000001
7.199999999999998,720,-0.073,-1.004,-0.01,0.0,0.11459160000000004,0.0,87.81154308,-3.70703826,-55.35920196000001
7.209999999999999,721,-0.07200000000000001,-1.005,-0.011000000000000001,0.0,0.11459160000000004,-0.057295800000000015,87.81154308,-3.70703826,-55.35920196000001
7.219999999999999,722,-0.071,-1.005,-0.009000000000000001,-0.057295800000000015,0.057295800000000015,-0.057295800000000015,87.81154308,-3.70703826,-55.35920196000001
7.229999999999999,723,-0.071,-1.004,-0.01,-0.057295800000000015,0.11459160000000004,-0.057295800000000015,87.8058135,-3.70703826,-55.35920196000001
7.239999999999998,724,-0.069,-1.003,-0.011000000000000001,-0.1718874,0.1718874,-0.057295800000000015,87.8058135,-3.70130868,-55.35347237999999
7.249999999999999,725,-0.069,-1.003,-0.011000000000000001,-0.1718874,0.11459160000000004,-0.057295800000000015,87.82873182,-3.70703826,-55.35347237999999
7.259999999999999,726,-0.07,-1.003,-0.01,-0.11459160000000004,-0.11459160000000004,0.0,87.82300224,-3.70703826,-55.35920196000001
7.269999999999999,727,-0.07,-1.004,-0.011000000000000001,-0.057295800000000015,-0.11459160000000004,0.0,87.82300224,-3.70703826,-55.35920196000001
7.2799999999999985,728,-0.07,-1.0070000000000001,-0.012,-0.2291832000000001,0.0,0.0,87.82300224,-3.70703826,-55.35920196000001
7.289999999999998,729,-0.069,-1.01,-0.01,-0.4583664000000001,0.1718874,0.057295800000000015,87.81727266,-3.70703826,-55.35920196000001
7.299999999999999,730,-0.07,-1.008,-0.011000000000000001,-0.6302538000000001,0.3437748,0.1718874,87.81727266,-3.70703826,-55.35347237999999
7.309999999999999,731,-0.07,-1.006,-0.013000000000000001,-0.6302538000000001,0.3437748,0.11459160000000004,87.81154308,-3.71276784,-55.35347237999999
7.3199999999999985,732,-0.069,-1.006,-0.013999999999999999,-0.5156622000000001,0.40107059999999994,0.1718874,87.8058135,-3.71276784,-55.347742800000006
7.329999999999998,733,-0.071,-1.006,-0.013000000000000001,-0.6875496,0.40107059999999994,0.1718874,87.79435434000001,-3.71276784,-55.34201322
7.339999999999999,734,-0.07200000000000001,-1.003,-0.012,-0.8021411999999999,0.40107059999999994,0.11459160000000004,87.78862475999998,-3.71849742,-55.33628364
7.349999999999999,735,-0.07200000000000001,-1.004,-0.012,-0.8021411999999999,0.11459160000000004,0.057295800000000015,87.78289518,-3.7242269999999995,-55.33628364
7.3599999999999985,736,-0.073,-1.005,-0.011000000000000001,-0.9167328000000001,0.0,0.0,87.77716559999998,-3.7242269999999995,-55.33628364
7.369999999999998,737,-0.07200000000000001,-1.006,-0.012,-0.9740286,-0.1718874,-0.057295800000000015,87.76570644,-3.7242269999999995,-55.34201322
7.379999999999999,738,-0.07,-1.008,-0.011000000000000001,-1.0313244000000001,0.0,0.0,87.75424728,-3.7242269999999995,-55.34201322
7.389999999999999,739,-0.069,-1.0070000000000001,-0.012,-1.145916,0.0,0.11459160000000004,87.74278812,-3.7242269999999995,-55.34201322
7.399999999999999,740,-0.07,-1.006,-0.013999999999999999,-1.0886202,-0.057295800000000015,0.1718874,87.73705853999998,-3.7299565800000014,-55.34201322
7.409999999999998,741,-0.069,-1.005,-0.015,-1.2605076000000002,0.0,0.11459160000000004,87.7198698,-3.7299565800000014,-55.34201322
7.419999999999999,742,-0.069,-1.005,-0.016,-1.145916,0.0,0.11459160000000004,87.70841064,-3.7299565800000014,-55.34201322
7.429999999999999,743,-0.07,-1.003,-0.015,-0.9167328000000001,-0.057295800000000015,0.057295800000000015,87.70268106,-3.73568616,-55.34201322
7.439999999999999,744,-0.069,-1.003,-0.017,-0.6875496,0.0,0.2291832000000001,87.69122189999999,-3.73568616,-55.34201322
7.449999999999998,745,-0.068,-1.004,-0.016,-0.7448454000000001,0.0,0.1718874,87.69122189999999,-3.73568616,-55.34201322
7.459999999999999,746,-0.069,-1.004,-0.013999999999999999,-0.6875496,-0.057295800000000015,0.2291832000000001,87.67976274,-3.73568616,-55.34201322
7.469999999999999,747,-0.071,-1.003,-0.017,-0.7448454000000001,-0.286479,0.057295800000000015,87.67403316,-3.73568616,-55.347742800000006
7.479999999999999,748,-0.071,-1.001,-0.018000000000000002,-0.572958,-0.3437748,0.0,87.66830358,-3.73568616,-55.347742800000006
7.489999999999998,749,-0.07200000000000001,-1.001,-0.017,-0.572958,-0.40107059999999994,-0.057295800000000015,87.66257399999998,-3.73568616,-55.35347237999999
7.499999999999998,750,-0.07200000000000001,-1.002,-0.017,-0.5156622000000001,-0.3437748,-0.11459160000000004,87.66257399999998,-3.74141574,-55.35920196000001
7.509999999999999,751,-0.07200000000000001,-1.002,-0.018000000000000002,-0.6302538000000001,-0.40107059999999994,-0.1718874,87.65111484,-3.74141574,-55.36493154
7.519999999999999,752,-0.07400000000000001,-1.003,-0.017,-0.572958,-0.40107059999999994,-0.11459160000000004,87.64538526,-3.74141574,-55.36493154
7.5299999999999985,753,-0.075,-1.003,-0.015,-0.572958,-0.5156622000000001,-0.057295800000000015,87.63965568,-3.74141574,-55.37066112
7.539999999999998,754,-0.075,-1.002,-0.017,-0.6302538000000001,-0.572958,-0.1718874,87.6339261,-3.73568616,-55.37639069999999
7.549999999999999,755,-0.076,-1.001,-0.018000000000000002,-0.572958,-0.5156622000000001,-0.1718874,87.6339261,-3.74141574,-55.38212028
7.559999999999999,756,-0.075,-1.0,-0.017,-0.40107059999999994,-0.5156622000000001,-0.1718874,87.62819652,-3.74141574,-55.38784986
7.5699999999999985,757,-0.076,-1.003,-0.016,-0.3437748,-0.40107059999999994,-0.2291832000000001,87.62246694,-3.74141574,-55.39357944
7.579999999999998,758,-0.075,-1.001,-0.018000000000000002,-0.40107059999999994,-0.2291832000000001,-0.286479,87.61673736,-3.73568616,-55.39930902
7.589999999999999,759,-0.076,-1.001,-0.02,-0.3437748,-0.286479,-0.2291832000000001,87.61673736,-3.73568616,-55.39930902
7.599999999999999,760,-0.077,-1.002,-0.019,-0.11459160000000004,-0.1718874,-0.2291832000000001,87.61673736,-3.76433406,-55.40503860000001
7.6099999999999985,761,-0.077,-1.003,-0.018000000000000002,0.286479,-0.2291832000000001,-0.286479,87.61673736,-3.76433406,-55.40503860000001
7.619999999999998,762,-0.078,-1.004,-0.018000000000000002,0.572958,-0.2291832000000001,-0.40107059999999994,87.62246694,-3.75860448,-55.40503860000001
7.629999999999999,763,-0.078,-1.003,-0.019,0.5156622000000001,-0.057295800000000015,-0.40107059999999994,87.62819652,-3.752874900000001,-55.41076817999999
7.639999999999999,764,-0.077,-1.003,-0.02,0.572958,0.0,-0.40107059999999994,87.6339261,-3.74714532,-55.41076817999999
7.649999999999999,765,-0.076,-1.002,-0.018000000000000002,0.6875496,0.11459160000000004,-0.4583664000000001,87.63965568,-3.752874900000001,-55.40503860000001
7.659999999999998,766,-0.075,-1.004,-0.019,0.7448454000000001,0.11459160000000004,-0.286479,87.65111484,-3.74714532,-55.40503860000001
7.669999999999999,767,-0.075,-1.005,-0.019,0.6302538000000001,0.057295800000000015,-0.40107059999999994,87.65684442,-3.74714532,-55.40503860000001
7.679999999999999,768,-0.076,-1.006,-0.017,0.6302538000000001,0.1718874,-0.286479,87.66257399999998,-3.74141574,-55.40503860000001
7.689999999999999,769,-0.076,-1.004,-0.021,0.572958,0.2291832000000001,-0.286479,87.66830358,-3.74141574,-55.39930902
7.699999999999998,770,-0.077,-1.004,-0.019,0.6875496,0.286479,-0.40107059999999994,87.67403316,-3.74714532,-55.39930902
7.709999999999998,771,-0.07400000000000001,-1.003,-0.019,0.7448454000000001,0.40107059999999994,-0.40107059999999994,87.68549232000002,-3.74141574,-55.39357944
7.719999999999999,772,-0.075,-1.001,-0.021,0.4583664000000001,0.6302538000000001,-0.2291832000000001,87.68549232000002,-3.74141574,-55.38784986
7.729999999999999,773,-0.07400000000000001,-1.001,-0.019,0.5156622000000001,0.6875496,-0.2291832000000001,87.69122189999999,-3.73568616,-55.37639069999999
7.739999999999998,774,-0.071,-1.003,-0.019,0.5156622000000001,0.40107059999999994,-0.1718874,87.69695148,-3.73568616,-55.37639069999999
7.749999999999998,775,-0.066,-1.005,-0.02,0.5156622000000001,0.0,-0.286479,87.69695148,-3.7242269999999995,-55.37639069999999
7.759999999999999,776,-0.066,-1.006,-0.019,0.572958,-0.057295800000000015,-0.40107059999999994,87.70268106,-3.71849742,-55.37639069999999
7.769999999999999,777,-0.07200000000000001,-1.002,-0.017,0.572958,0.0,-0.2291832000000001,87.70841064,-3.71276784,-55.37639069999999
7.7799999999999985,778,-0.07400000000000001,-1.002,-0.015,0.572958,0.11459160000000004,-0.11459160000000004,87.71414021999998,-3.71276784,-55.37066112
7.789999999999998,779,-0.075,-1.004,-0.016,0.572958,-0.057295800000000015,-0.1718874,87.7198698,-3.71276784,-55.37639069999999
7.799999999999999,780,-0.07200000000000001,-1.006,-0.017,0.286479,0.0,-0.3437748,87.72559937999998,-3.70703826,-55.37639069999999
7.809999999999999,781,-0.071,-1.01,-0.02,0.1718874,0.0,-0.2291832000000001,87.72559937999998,-3.70703826,-55.37639069999999
7.8199999999999985,782,-0.07,-1.01,-0.017,0.0,-0.11459160000000004,-0.11459160000000004,87.72559937999998,-3.70703826,-55.37639069999999
7.829999999999998,783,-0.069,-1.01,-0.015,0.11459160000000004,-0.11459160000000004,-0.2291832000000001,87.72559937999998,-3.70130868,-55.37639069999999
7.839999999999999,784,-0.069,-1.0070000000000001,-0.016,0.0,-0.11459160000000004,-0.3437748,87.72559937999998,-3.70130868,-55.37639069999999
7.849999999999999,785,-0.07,-1.006,-0.013999999999999999,0.11459160000000004,0.0,-0.286479,87.74851770000002,-3.6955791,-55.38212028
7.8599999999999985,786,-0.071,-1.005,-0.016,0.057295800000000015,0.1718874,-0.11459160000000004,87.74851770000002,-3.68984952,-55.37639069999999
7.869999999999998,787,-0.07200000000000001,-1.002,-0.016,0.1718874,0.1718874,-0.286479,87.74851770000002,-3.68984952,-55.37639069999999
7.879999999999999,788,-0.071,-1.0,-0.017,0.3437748,0.1718874,-0.286479,87.75424728,-3.68411994,-55.37639069999999
7.889999999999999,789,-0.07,-0.9990000000000001,-0.016,0.3437748,0.057295800000000015,-0.2291832000000001,87.75997686000002,-3.68411994,-55.37639069999999
7.899999999999999,790,-0.071,-0.9990000000000001,-0.016,0.4583664000000001,-0.2291832000000001,-0.2291832000000001,87.76570644,-3.68411994,-55.37639069999999
7.909999999999998,791,-0.071,-0.9990000000000001,-0.015,0.572958,-0.40107059999999994,-0.2291832000000001,87.77143602000002,-3.67839036,-55.38212028
7.919999999999998,792,-0.07,-1.001,-0.017,0.286479,-0.572958,-0.11459160000000004,87.77716559999998,-3.67839036,-55.38784986
7.929999999999999,793,-0.071,-1.001,-0.018000000000000002,0.11459160000000004,-0.5156622000000001,0.0,87.77716559999998,-3.67839036,-55.39357944
7.939999999999999,794,-0.07200000000000001,-1.003,-0.017,0.2291832000000001,-0.40107059999999994,0.0,87.77716559999998,-3.67839036,-55.39930902
7.949999999999998,795,-0.073,-1.004,-0.017,0.2291832000000001,-0.3437748,0.057295800000000015,87.77716559999998,-3.6955791,-55.39930902
7.959999999999998,796,-0.073,-1.005,-0.018000000000000002,0.11459160000000004,-0.286479,0.0,87.77716559999998,-3.6955791,-55.40503860000001
7.969999999999999,797,-0.07200000000000001,-1.005,-0.018000000000000002,0.0,-0.057295800000000015,0.057295800000000015,87.77716559999998,-3.6955791,-55.40503860000001
7.979999999999999,798,-0.073,-1.006,-0.019,0.11459160000000004,0.0,0.11459160000000004,87.78289518,-3.70130868,-55.40503860000001
7.989999999999998,799,-0.07,-1.0070000000000001,-0.018000000000000002,0.1718874,-0.057295800000000015,0.11459160000000004,87.78289518,-3.70130868,-55.40503860000001
7.999999999999998,800,-0.07,-1.006,-0.018000000000000002,0.3437748,-0.11459160000000004,0.2291832000000001,87.78289518,-3.70703826,-55.40503860000001
8.01,801,-0.07200000000000001,-1.006,-0.018000000000000002,0.3437748,-0.286479,0.11459160000000004,87.78862475999998,-3.70703826,-55.41076817999999
8.019999999999998,802,-0.07200000000000001,-1.008,-0.017,0.2291832000000001,-0.286479,0.1718874,87.78862475999998,-3.70703826,-55.41076817999999
8.03,803,-0.07200000000000001,-1.008,-0.017,0.11459160000000004,-0.286479,0.057295800000000015,87.79435434000001,-3.70703826,-55.41649776000001
8.04,804,-0.07,-1.0070000000000001,-0.019,0.11459160000000004,-0.2291832000000001,0.0,87.79435434000001,-3.70703826,-55.41649776000001
8.049999999999999,805,-0.071,-1.004,-0.019,0.0,-0.1718874,0.057295800000000015,87.78289518,-3.7299565800000014,-55.41649776000001
8.059999999999999,806,-0.07200000000000001,-1.003,-0.015,0.0,-0.1718874,0.0,87.78289518,-3.7299565800000014,-55.42222733999999
8.069999999999999,807,-0.073,-1.002,-0.016,0.1718874,0.057295800000000015,0.0,87.78289518,-3.7299565800000014,-55.41649776000001
8.079999999999998,808,-0.07200000000000001,-1.003,-0.02,0.0,0.1718874,0.1718874,87.78289518,-3.7299565800000014,-55.41649776000001
8.089999999999998,809,-0.07200000000000001,-1.006,-0.02,-0.11459160000000004,0.0,0.2291832000000001,87.78289518,-3.7299565800000014,-55.41649776000001
8.099999999999998,810,-0.071,-1.006,-0.02,0.0,-0.11459160000000004,0.11459160000000004,87.76570644,-3.73568616,-55.41649776000001
8.11,811,-0.071,-1.004,-0.019,0.057295800000000015,-0.1718874,0.0,87.76570644,-3.73568616,-55.41649776000001
8.12,812,-0.07200000000000001,-1.001,-0.017,0.11459160000000004,-0.2291832000000001,-0.057295800000000015,87.76570644,-3.7299565800000014,-55.42222733999999
8.129999999999999,813,-0.07200000000000001,-1.0,-0.017,0.057295800000000015,0.1718874,-0.1718874,87.76570644,-3.7299565800000014,-55.42222733999999
8.139999999999999,814,-0.07200000000000001,-1.003,-0.016,-0.1718874,0.1718874,-0.11459160000000004,87.76570644,-3.7299565800000014,-55.41649776000001
8.149999999999999,815,-0.071,-1.004,-0.015,-0.1718874,0.1718874,-0.057295800000000015,87.77143602000002,-3.74141574,-55.41649776000001
8.159999999999998,816,-0.07,-1.004,-0.017,-0.057295800000000015,0.057295800000000015,0.0,87.76570644,-3.74141574,-55.41649776000001
8.169999999999998,817,-0.07200000000000001,-1.004,-0.018000000000000002,0.057295800000000015,0.11459160000000004,0.0,87.76570644,-3.74141574,-55.41076817999999
8.179999999999998,818,-0.07200000000000001,-1.004,-0.017,0.1718874,0.1718874,0.0,87.77143602000002,-3.74141574,-55.41076817999999
8.189999999999998,819,-0.073,-1.003,-0.018000000000000002,0.2291832000000001,0.0,0.0,87.77143602000002,-3.74141574,-55.41076817999999
8.2,820,-0.07400000000000001,-1.003,-0.013999999999999999,0.3437748,-0.11459160000000004,0.0,87.78289518,-3.752874900000001,-55.41076817999999
8.209999999999999,821,-0.073,-1.004,-0.016,0.40107059999999994,-0.11459160000000004,-0.11459160000000004,87.78289518,-3.752874900000001,-55.41649776000001
8.219999999999999,822,-0.071,-1.006,-0.017,0.1718874,-0.11459160000000004,-0.11459160000000004,87.78862475999998,-3.752874900000001,-55.41649776000001
8.229999999999999,823,-0.07,-1.004,-0.016,0.11459160000000004,0.0,-0.11459160000000004,87.78862475999998,-3.752874900000001,-55.41649776000001
8.239999999999998,824,-0.071,-1.004,-0.017,0.3437748,0.11459160000000004,0.0,87.79435434000001,-3.752874900000001,-55.41649776000001
8.249999999999998,825,-0.071,-1.005,-0.017,0.3437748,0.286479,0.057295800000000015,87.79435434000001,-3.752874900000001,-55.41076817999999
8.259999999999998,826,-0.071,-1.006,-0.019,0.2291832000000001,0.3437748,0.0,87.80008391999998,-3.752874900000001,-55.40503860000001
8.269999999999998,827,-0.07,-1.006,-0.021,0.2291832000000001,0.2291832000000001,0.0,87.80008391999998,-3.752874900000001,-55.40503860000001
8.28,828,-0.07,-1.004,-0.02,0.3437748,0.2291832000000001,-0.057295800000000015,87.8058135,-3.752874900000001,-55.39930902
8.29,829,-0.071,-1.0,-0.019,0.8021411999999999,0.0,0.0,87.81154308,-3.752874900000001,-55.39930902
8.299999999999999,830,-0.07200000000000001,-0.9990000000000001,-0.013999999999999999,1.2605076000000002,-0.1718874,-0.11459160000000004,87.82873182,-3.752874900000001,-55.40503860000001
8.309999999999999,831,-0.07200000000000001,-1.0,-0.013999999999999999,1.3750992,-0.286479,-0.057295800000000015,87.84592056,-3.752874900000001,-55.40503860000001
8.319999999999999,832,-0.07200000000000001,-1.003,-0.015,1.3178034,-0.2291832000000001,-0.1718874,87.85737972,-3.752874900000001,-55.41076817999999
8.329999999999998,833,-0.073,-1.006,-0.016,1.0886202,-0.11459160000000004,-0.1718874,87.86883888,-3.74714532,-55.41076817999999
8.339999999999998,834,-0.07200000000000001,-1.008,-0.015,0.9740286,-0.11459160000000004,-0.2291832000000001,87.88029803999999,-3.74714532,-55.41076817999999
8.349999999999998,835,-0.07200000000000001,-1.0070000000000001,-0.013999999999999999,0.8594370000000001,-0.057295800000000015,-0.2291832000000001,87.8917572,-3.74714532,-55.41076817999999
8.359999999999998,836,-0.07200000000000001,-1.006,-0.012,0.7448454000000001,0.0,-0.11459160000000004,87.89748678,-3.74714532,-55.41076817999999
8.37,837,-0.07200000000000001,-1.0070000000000001,-0.013999999999999999,0.4583664000000001,0.057295800000000015,-0.057295800000000015,87.90321636,-3.74141574,-55.41076817999999
8.379999999999999,838,-0.07200000000000001,-1.006,-0.013000000000000001,0.40107059999999994,0.057295800000000015,-0.11459160000000004,87.90894594,-3.74141574,-55.41076817999999
8.389999999999999,839,-0.07200000000000001,-1.0070000000000001,-0.015,0.3437748,0.11459160000000004,-0.11459160000000004,87.91467551999996,-3.74141574,-55.41076817999999
8.399999999999999,840,-0.07200000000000001,-1.008,-0.015,0.1718874,0.286479,-0.11459160000000004,87.91467551999996,-3.74714532,-55.40503860000001
8.409999999999998,841,-0.07200000000000001,-1.006,-0.015,0.40107059999999994,0.40107059999999994,-0.057295800000000015,87.92040510000002,-3.74141574,-55.39930902
8.419999999999998,842,-0.071,-1.006,-0.015,0.3437748,0.40107059999999994,-0.057295800000000015,87.92040510000002,-3.74141574,-55.39930902
8.429999999999998,843,-0.07,-1.005,-0.013000000000000001,0.572958,0.4583664000000001,0.0,87.92613467999998,-3.74141574,-55.39357944
8.439999999999998,844,-0.07,-1.006,-0.011000000000000001,0.4583664000000001,0.40107059999999994,0.0,87.93186426,-3.74141574,-55.38784986
8.45,845,-0.068,-1.005,-0.012,0.2291832000000001,0.3437748,0.0,87.93759384,-3.73568616,-55.38212028
8.459999999999999,846,-0.068,-1.0070000000000001,-0.011000000000000001,0.11459160000000004,0.3437748,0.0,87.93759384,-3.73568616,-55.38212028
8.469999999999999,847,-0.068,-1.0070000000000001,-0.011000000000000001,0.2291832000000001,0.40107059999999994,0.0,87.94332342,-3.73568616,-55.37639069999999
8.479999999999999,848,-0.069,-1.005,-0.011000000000000001,0.2291832000000001,0.4583664000000001,0.0,87.94332342,-3.73568616,-55.37066112
8.489999999999998,849,-0.069,-1.005,-0.011000000000000001,0.2291832000000001,0.572958,0.057295800000000015,87.94332342,-3.73568616,-55.36493154
8.499999999999998,850,-0.067,-1.004,-0.01,0.2291832000000001,0.572958,0.057295800000000015,87.95478258,-3.73568616,-55.35920196000001
8.509999999999998,851,-0.067,-1.004,-0.011000000000000001,0.11459160000000004,0.572958,0.057295800000000015,87.95478258,-3.73568616,-55.35347237999999
8.519999999999998,852,-0.067,-1.005,-0.013000000000000001,0.057295800000000015,0.572958,0.11459160000000004,87.95478258,-3.73568616,-55.347742800000006
8.53,853,-0.068,-1.004,-0.011000000000000001,0.1718874,0.4583664000000001,0.0,87.95478258,-3.73568616,-55.34201322
8.54,854,-0.069,-1.004,-0.013000000000000001,0.286479,0.5156622000000001,0.0,87.96051216,-3.73568616,-55.33628364
8.549999999999999,855,-0.07,-1.002,-0.012,-0.057295800000000015,0.2291832000000001,0.057295800000000015,87.96624174,-3.74141574,-55.33628364
8.559999999999999,856,-0.07,-1.002,-0.011000000000000001,0.0,0.286479,0.0,87.96624174,-3.74141574,-55.33055406
8.569999999999999,857,-0.069,-1.004,-0.012,0.0,0.40107059999999994,0.057295800000000015,87.96624174,-3.74141574,-55.33055406
8.579999999999998,858,-0.069,-1.004,-0.017,0.057295800000000015,0.286479,0.057295800000000015,87.96624174,-3.74141574,-55.32482448
8.589999999999998,859,-0.069,-1.004,-0.02,0.057295800000000015,0.40107059999999994,0.057295800000000015,87.96624174,-3.74141574,-55.3190949
8.599999999999998,860,-0.069,-0.9990000000000001,-0.019,0.6875496,0.2291832000000001,0.057295800000000015,87.96624174,-3.74141574,-55.3190949
8.609999999999998,861,-0.068,-0.997,-0.013000000000000001,1.3750992,0.2291832000000001,0.0,87.98343048000002,-3.74141574,-55.31336532
8.62,862,-0.068,-0.996,-0.011000000000000001,1.6615782,0.1718874,0.11459160000000004,88.00061922,-3.74141574,-55.31336532
8.629999999999999,863,-0.068,-1.0,-0.013000000000000001,1.5469866,0.057295800000000015,0.2291832000000001,88.01780796,-3.74714532,-55.31336532
8.639999999999999,864,-0.069,-1.003,-0.011000000000000001,1.4896908000000002,-0.057295800000000015,0.1718874,88.02926712000001,-3.74714532,-55.31336532
8.649999999999999,865,-0.071,-1.006,-0.011000000000000001,1.3750992,-0.11459160000000004,0.1718874,88.04645586000002,-3.752874900000001,-55.31336532
8.659999999999998,866,-0.07200000000000001,-1.0090000000000001,-0.009000000000000001,1.2605076000000002,0.0,0.057295800000000015,88.05791502,-3.752874900000001,-55.31336532
8.669999999999998,867,-0.07200000000000001,-1.01,-0.006,0.7448454000000001,-0.2291832000000001,0.0,88.0636446,-3.752874900000001,-55.31336532
8.679999999999998,868,-0.07200000000000001,-1.01,-0.004,0.286479,-0.5156622000000001,-0.057295800000000015,88.06937418,-3.752874900000001,-55.3190949
8.689999999999998,869,-0.071,-1.01,-0.009000000000000001,0.057295800000000015,-0.5156622000000001,-0.057295800000000015,88.06937418,-3.752874900000001,-55.32482448
