TimeStamp(s),FrameCounter,AccX,AccY,AccZ,GyrX,GyrY,GyrZ,EulerX,EulerY,EulerZ
0.01,1,-0.066,-1.0170000000000001,0.049,-2.3491277999999998,-5.3858052,2.7501984,92.68741566,-3.1512689999999997,-45.26941158
0.02,2,-0.09300000000000001,-1.03,0.054000000000000006,-2.4637194,-4.4690724,4.1252976000000015,92.66449734,-3.1913760600000005,-45.31524822
0.03,3,-0.099,-1.035,0.052000000000000005,-3.2085647999999996,-2.6929026,3.9534102,92.63584944,-3.2257535399999995,-45.34389612
0.04,4,-0.096,-1.037,0.055,-3.6669312000000014,-1.3178034,4.1825934,92.59574238000002,-3.2658606,-45.36108486
0.05,5,-0.083,-1.036,0.054000000000000006,-4.5263682,-0.3437748,5.042030400000002,92.54417616,-3.3231564,-45.37254402
0.060000000000000005,6,-0.067,-1.032,0.044000000000000004,-5.0993262,-0.057295800000000015,6.5317212,92.49260994,-3.38618178,-45.3782736
0.06999999999999999,7,-0.054000000000000006,-1.025,0.033,-4.8128472,-0.286479,8.4224826,92.44104372,-3.47212548,-45.38400318
0.08,8,-0.040999999999999995,-1.013,0.025,-3.8388186,-0.9167328000000001,10.1413566,92.40666624,-3.57525792,-45.39546234
0.09,9,-0.037000000000000005,-0.998,0.019,-2.3491277999999998,-2.1772404,11.2299768,92.38374792,-3.68411994,-45.42411024
0.09999999999999999,10,-0.035,-0.983,0.022000000000000002,-0.4583664000000001,-4.0680017999999984,11.917526400000002,92.36082960000002,-3.7815228,-45.48140604
0.11,11,-0.037000000000000005,-0.977,0.026000000000000002,0.5156622000000001,-5.3285094000000015,12.318597,92.37228876,-3.90184398,-45.54443142
0.12,12,-0.048,-0.98,0.03,1.2605076000000002,-6.703608600000001,12.6623718,92.3894775,-4.022165159999999,-45.61318638
0.13,13,-0.064,-0.988,0.032,1.0313244000000001,-8.651665800000002,13.120738199999998,92.40666624,-4.14821592,-45.70485966
0.14,14,-0.07200000000000001,-1.003,0.03,0.2291832000000001,-10.313244000000001,13.8082878,92.41812540000001,-4.27426668,-45.81372168
0.15000000000000002,15,-0.07400000000000001,-1.0270000000000001,0.015,-1.3750992,-12.0894138,14.7250206,92.40093666,-4.4117766000000005,-45.94550202
0.16,16,-0.07,-1.041,-0.003,-3.380452200000001,-14.438541599999999,15.5844576,92.38374792,-4.5550161000000005,-46.0944711
0.17,17,-0.061,-1.04,-0.02,-5.2139178,-18.7357266,15.469866,92.34937044,-4.6982556,-46.28927682000001
0.18000000000000002,18,-0.051,-1.0290000000000001,-0.021,-6.990087599999999,-24.4653066,14.381245800000002,92.29780422000002,-4.82430636,-46.54137834
0.19,19,-0.044000000000000004,-1.008,-0.013000000000000001,-9.5111028,-29.5646328,12.4331886,92.23477884,-4.9274388,-46.83931650000001
0.2,20,-0.044000000000000004,-0.981,-0.006,-11.9748222,-34.7212548,9.9694692,92.13737598,-4.99619376,-47.19455046
0.21000000000000002,21,-0.046,-0.9540000000000001,0.032,-12.891555,-39.1330314,7.0473834,92.0457027,-5.042030400000002,-47.5841619
0.22,22,-0.059000000000000004,-0.946,0.077,-14.0947668,-40.7373138,3.9534102,91.94257026,-5.05921914,-47.99096208
0.23,23,-0.073,-0.953,0.109,-15.126091199999998,-39.9924684,1.3750992,91.82797866,-5.05348956,-48.39203268
0.24000000000000002,24,-0.091,-0.981,0.14800000000000002,-13.9228794,-37.81522800000001,-0.1718874,91.72484622,-5.03057124,-48.77018496
0.25,25,-0.114,-1.011,0.158,-13.2353298,-34.8358464,-0.5156622000000001,91.6446321,-5.0133825000000005,-49.10823018
0.26,26,-0.145,-1.04,0.16399999999999998,-11.5164558,-31.79916900000001,0.3437748,91.56441798,-4.99619376,-49.42335708
0.27,27,-0.172,-1.054,0.171,-9.9694692,-28.132237800000002,1.6615782,91.48993344,-5.0019233399999985,-49.70410650000001
0.28,28,-0.193,-1.056,0.16899999999999998,-8.9381448,-23.319390600000002,2.7501984,91.42117848,-5.0133825000000005,-49.93901928
0.29000000000000004,29,-0.207,-1.0490000000000002,0.163,-7.906820400000001,-17.761698000000006,3.7815228,91.3581531,-5.04775998,-50.11663626
0.3,30,-0.209,-1.046,0.152,-6.9327918,-12.032118,5.0993262,91.34096436,-5.1222445200000015,-50.21403912
0.31,31,-0.203,-1.038,0.142,-6.990087599999999,-6.9327918,6.4744254,91.27793898,-5.1852699,-50.28852366
0.32,32,-0.188,-1.015,0.132,-7.2192707999999985,-2.6356068,7.734933000000002,91.20345444,-5.25975444,-50.31717156000001
0.33,33,-0.175,-0.991,0.127,-7.2765666,0.9740286,8.250595200000001,91.1289699,-5.3456981400000005,-50.305712400000004
0.34,34,-0.161,-0.972,0.11699999999999999,-7.906820400000001,3.8961144,7.7922288,91.04875578,-5.42591226,-50.27133492
0.35000000000000003,35,-0.145,-0.956,0.1,-8.7089616,5.6722842,6.703608600000001,90.97427124,-5.51185596,-50.20257996
0.36000000000000004,36,-0.13,-0.941,0.086,-8.59437,6.8182002000000015,5.3285094000000015,90.88259796,-5.56915176,-50.13955458
0.37,37,-0.11800000000000001,-0.924,0.086,-7.6776372,7.2192707999999985,4.010706000000001,90.79665426,-5.6149884000000005,-50.07079962
0.38,38,-0.107,-0.909,0.099,-7.2192707999999985,8.021412000000002,2.86479,90.71644014,-5.6436363,-49.9905855
0.39,39,-0.102,-0.893,0.10400000000000001,-6.1879464,9.0527364,2.291832,90.6419556,-5.6722842,-49.90464180000001
0.4,40,-0.102,-0.885,0.11900000000000001,-3.0939732,9.740286,2.0626488000000003,90.6419556,-5.70666168,-49.7900502
0.41000000000000003,41,-0.102,-0.888,0.138,0.1718874,10.3705398,1.4896908000000002,90.63049644,-5.72958,-49.68691776000001
0.42000000000000004,42,-0.11,-0.904,0.16,2.1772404,11.1153852,0.9740286,90.6419556,-5.74103916,-49.57232616
0.43,43,-0.11900000000000001,-0.9159999999999999,0.179,3.2085647999999996,11.688343199999998,-0.2291832000000001,90.66487392,-5.74103916,-49.45773456
0.44,44,-0.124,-0.932,0.193,3.9534102,12.7196676,-1.9480572,90.68779224,-5.72958,-49.33168379999999
0.45,45,-0.12,-0.946,0.20600000000000002,4.4690724,14.610429000000002,-3.7242269999999995,90.78519509999998,-5.71239126,-49.1597964
0.46,46,-0.11699999999999999,-0.9620000000000001,0.22399999999999998,5.0993262,17.475219,-5.6722842,90.813843,-5.66082504,-48.98217942
0.47000000000000003,47,-0.11199999999999999,-0.9740000000000001,0.235,5.3858052,20.168121600000006,-7.2765666,90.84822048,-5.59779966,-48.78164412
0.48000000000000004,48,-0.10099999999999999,-0.9740000000000001,0.237,5.5003968,21.772404,-8.5370742,90.87686838,-5.52331512,-48.56392008
0.49,49,-0.1,-0.9790000000000001,0.24100000000000002,6.0733548,22.9756158,-8.9954406,90.91697544,-5.443101,-48.33473688
0.5,50,-0.098,-0.985,0.24,5.6722842,22.9756158,-8.8235532,90.99718956,-5.36861646,-48.08263536
0.51,51,-0.091,-0.9840000000000001,0.23800000000000002,4.5263682,22.2880662,-8.7089616,91.02010788,-5.29413192,-47.85918174
0.52,52,-0.077,-0.968,0.23800000000000002,3.3231564,21.944291399999997,-9.167328,91.02583746,-5.2139178,-47.641457700000004
0.53,53,-0.071,-0.9490000000000001,0.239,2.9793816000000004,22.0015872,-10.313244000000001,91.03729662,-5.1222445200000015,-47.41800408
0.54,54,-0.078,-0.938,0.245,2.9220858,22.345361999999998,-11.5164558,91.0430262,-5.0133825000000005,-47.19455046
0.55,55,-0.086,-0.941,0.243,2.3491277999999998,22.6891368,-12.4904844,91.08886284,-4.91025006,-46.948178520000006
0.56,56,-0.08800000000000001,-0.945,0.23800000000000002,1.8907614,21.772404,-13.178034,91.08886284,-4.78992888,-46.73045448000001
0.5700000000000001,57,-0.087,-0.9470000000000001,0.24,2.291832,20.1108258,-13.636400400000001,91.09459242,-4.66387812,-46.52991918
0.5800000000000001,58,-0.08800000000000001,-0.95,0.244,2.2345362,19.5378678,-13.6936962,91.09459242,-4.53209778,-46.32938388
0.59,59,-0.09300000000000001,-0.953,0.251,1.4896908000000002,19.2513888,-13.2926256,91.09459242,-4.4117766000000005,-46.14030774
0.6,60,-0.098,-0.958,0.251,0.9167328000000001,18.8503182,-13.178034,91.14615864,-4.30291458,-45.9225837
0.61,61,-0.10300000000000001,-0.955,0.244,0.11459160000000004,18.7357266,-13.120738199999998,91.1289699,-4.1825934,-45.73923714
0.62,62,-0.107,-0.9570000000000001,0.233,-0.11459160000000004,18.6784308,-12.9488508,91.11178116,-4.06227222,-45.550160999999996
0.63,63,-0.11900000000000001,-0.968,0.228,-1.432395,19.308684600000007,-13.0634424,91.08313326,-3.94195104,-45.35535528000001
0.64,64,-0.13,-0.981,0.235,-5.6149884000000005,22.2307704,-13.2353298,91.00864872,-3.82162986,-45.13190166
0.65,65,-0.149,-0.976,0.20800000000000002,-9.1100322,25.382039399999996,-13.0634424,90.92270502,-3.71849742,-44.86261140000001
0.66,66,-0.172,-0.976,0.204,-9.6256944,27.6165756,-12.3758928,90.80238384,-3.6096354,-44.58759156
0.67,67,-0.2,-0.97,0.2,-9.5111028,28.6479,-11.5164558,90.68779224,-3.50650296,-44.30684214
0.68,68,-0.22699999999999998,-0.9640000000000001,0.196,-9.1100322,30.137590799999998,-10.828906199999999,90.57320064,-3.4148296799999995,-44.00890398
0.6900000000000001,69,-0.23199999999999998,-0.978,0.174,-11.1153852,33.804522,-10.7143146,90.43569072,-3.31742682,-43.67085876
0.7000000000000001,70,-0.215,-1.032,0.073,-17.0741484,35.9244666,-9.3392154,90.24088499999999,-3.25440144,-43.30989522
0.7100000000000001,71,-0.179,-1.111,-0.027000000000000003,-17.5325148,33.002380800000005,-5.5576926,90.03462012,-3.2085648000000004,-42.98903874
0.72,72,-0.11,-1.246,-0.06,-11.917526400000002,22.1734746,1.6042823999999998,89.90283978,-3.2314831199999987,-42.76558512
0.73,73,-0.022000000000000002,-1.314,-0.055,-7.6203414,9.3392154,9.8548776,89.81689608,-3.33461556,-42.67391184
0.74,74,0.031,-1.281,0.071,1.8334656000000005,-5.5003968,13.750992000000002,89.83981440000002,-3.47212548,-42.73120764
0.75,75,0.021,-1.212,0.175,10.4851314,-16.615782,10.084060800000001,89.97732432000002,-3.5580691799999995,-42.89163588
0.76,76,-0.037000000000000005,-1.1420000000000001,0.22699999999999998,13.178034,-18.449247600000003,-0.4583664000000001,90.1262934,-3.54661002,-43.06925286
0.77,77,-0.115,-1.1059999999999999,0.25,13.9228794,-12.1467096,-15.011499599999999,90.27526248,-3.39764094,-43.18957404
0.78,78,-0.17300000000000001,-1.161,0.209,13.980175199999998,-2.9793816000000004,-27.8457588,90.41850198,-3.11689152,-43.21249236
0.79,79,-0.19399999999999998,-1.28,0.141,11.0007936,3.6096353999999997,-34.0337052,90.527364,-2.7788463,-43.172385299999995
0.8,80,-0.175,-1.413,0.055,5.6722842,9.9121734,-34.5493674,90.57893022,-2.44080108,-43.06925286
0.81,81,-0.141,-1.45,0.027999999999999997,1.5469866,15.813640800000002,-30.8251404,90.5846598,-2.14286292,-42.90882462
0.8200000000000001,82,-0.11900000000000001,-1.4040000000000001,-0.003,-0.057295800000000015,19.7097552,-25.8977016,90.57320064,-1.8907614,-42.70828932
0.8300000000000001,83,-0.079,-1.318,-0.07200000000000001,-0.9740286,27.788463,-22.0015872,90.55028232,-1.6844965200000002,-42.43326947999999
0.8400000000000001,84,-0.015,-1.2309999999999999,-0.10099999999999999,-1.0886202,36.669312,-20.340009,90.527364,-1.49542038,-42.06657636
0.85,85,0.02,-1.129,-0.124,-4.4690724,44.6334282,-20.05353,90.44714988,-1.30061466,-41.63112828
0.86,86,0.012,-1.002,-0.122,-6.0160589999999985,50.76407879999999,-19.5378678,90.36693576,-1.12872726,-41.12692524
0.87,87,-0.053,-0.888,-0.10400000000000001,-8.078707799999998,52.3683612,-17.3606274,90.26380332,-0.9740286,-40.61126304
0.88,88,-0.135,-0.8079999999999999,-0.096,-10.7716104,48.6441342,-13.178034,90.14348214,-0.8594370000000001,-40.12997832
0.89,89,-0.138,-0.797,-0.064,-12.1467096,44.0031744,-9.5111028,90.00597222,-0.7734933,-39.69453024
0.9,90,-0.07,-0.873,-0.032,-12.891555,43.48751220000001,-10.5424272,89.85700313999996,-0.6875496,-39.27054132
0.91,91,-0.005,-0.987,-0.054000000000000006,-15.527161800000002,47.1544434,-15.2406828,89.69084532,-0.5443101,-38.80644534
0.92,92,0.016,-1.061,-0.08800000000000001,-17.0168526,50.0192334,-19.652459399999998,89.50749876,-0.36096354,-38.31370146
0.93,93,0.028999999999999998,-1.065,-0.096,-14.1520626,51.68081160000001,-21.7151082,89.3528001,-0.15469866,-37.80376884
0.9400000000000001,94,0.04,-1.022,-0.064,-8.880849000000003,52.3683612,-22.1161788,89.25539724,0.05156622,-37.29383622
0.9500000000000001,95,0.040999999999999995,-0.9620000000000001,-0.019,-4.1252976000000015,52.3110654,-21.657812399999997,89.20383102000002,0.26356068,-36.77817402
0.9600000000000001,96,0.034,-0.904,0.031,-0.6302538000000001,51.279740999999994,-20.1108258,89.19237186000002,0.4526368200000001,-36.27397098
0.97,97,0.033,-0.873,0.051,-0.6875496,48.4722468,-16.558486199999994,89.1809127,0.61306506,-35.79841584000001
0.98,98,0.049,-0.85,0.054000000000000006,-2.0053530000000004,47.0398518,-13.2926256,89.15799438,0.7391158200000001,-35.33431986
0.99,99,0.075,-0.835,0.052000000000000005,-2.4064236,45.4355694,-11.0007936,89.13507606,0.8422482600000001,-34.887412620000006
1.0,100,0.107,-0.83,0.05,-2.5783110000000002,42.62807520000001,-9.568398599999998,89.11215774000001,0.9453807,-34.46915328
1.01,101,0.138,-0.825,0.044000000000000004,-3.0366774,37.6433406,-8.136003599999999,89.08350984,1.0255948199999998,-34.09673058
1.02,102,0.177,-0.8079999999999999,0.043,-3.7815228,31.1689152,-6.7609043999999985,89.04340278,1.0886202,-33.79306284
1.03,103,0.207,-0.7979999999999999,0.046,-3.0939732,24.2934192,-5.6149884000000005,89.01475488,1.14018642,-33.55242048
1.04,104,0.21600000000000005,-0.7859999999999999,0.047,-2.6356068,17.303331600000003,-4.9847346,88.98610698,1.18602306,-33.38053308
1.05,105,0.233,-0.7659999999999999,0.055999999999999994,-0.2291832000000001,7.3911582,-4.9847346,88.99183656,1.30061466,-33.32896686
1.06,106,0.24,-0.7559999999999999,0.079,0.6875496,-0.3437748,-4.5263682,88.99756613999998,1.3464512999999998,-33.33469644
1.07,107,0.223,-0.754,0.102,1.6615782,-7.2192707999999985,-3.6669312000000014,89.01475488,1.38655836,-33.403451399999994
1.08,108,0.20800000000000002,-0.75,0.128,2.5210152000000003,-13.2353298,-2.9793816000000004,89.03767320000001,1.41520626,-33.53523174
1.09,109,0.183,-0.76,0.135,2.7501984,-18.907614,-2.6356068,89.06632110000002,1.44385416,-33.72430788
1.1,110,0.18,-0.787,0.14400000000000002,1.7188740000000002,-24.0069402,-1.7761698000000001,89.10069858,1.49542038,-33.96495024
1.11,111,0.182,-0.8270000000000001,0.15,2.3491277999999998,-27.7311672,-0.40107059999999994,89.12361690000002,1.50114996,-34.23997008
1.12,112,0.172,-0.8490000000000001,0.14800000000000002,3.380452200000001,-30.080295,1.3178034,89.1522648,1.49542038,-34.53217866
1.1300000000000001,113,0.16,-0.868,0.149,5.6722842,-33.0596766,3.7815228,89.20956059999996,1.4610428999999998,-34.85876472
1.1400000000000001,114,0.145,-0.882,0.165,7.6776372,-35.0650296,5.2139178,89.28404514,1.41520626,-35.20826909999999
1.1500000000000001,115,0.124,-0.872,0.17800000000000002,10.313244000000001,-36.7266078,7.448453999999999,89.40436632,1.3579104599999998,-35.56350306
1.1600000000000001,116,0.115,-0.858,0.193,13.5791046,-38.2162986,10.886202,89.54187624,1.2605076000000002,-35.94165534
1.17,117,0.109,-0.855,0.19399999999999998,16.7303736,-40.966497,14.896907999999998,89.70803406,1.1172681,-36.34272594
1.18,118,0.10300000000000001,-0.87,0.19,19.2513888,-44.6334282,18.793022399999998,89.90283978,0.9453807,-36.7839036
1.19,119,0.10800000000000001,-0.8959999999999999,0.18899999999999997,21.5432208,-48.529542600000006,21.600516600000002,90.12056382,0.7448454000000001,-37.25945874
1.2,120,0.111,-0.972,0.205,23.9496444,-52.3683612,22.2307704,90.37839492,0.55003968,-37.77512094
1.21,121,0.11599999999999999,-1.048,0.228,22.9756158,-58.0406454,20.8556712,90.61903728,0.36669312,-38.34807894
1.22,122,0.121,-1.124,0.261,21.600516600000002,-62.6243094,18.8503182,90.84249090000002,0.20626488,-38.96687358000001
1.23,123,0.128,-1.195,0.297,17.8189938,-61.9367598,15.870936600000002,91.03156704,0.07448454,-39.57993864
1.24,124,0.127,-1.263,0.342,14.037471,-59.014674,11.688343199999998,91.18053612,-0.00572958,-40.1643558
1.25,125,0.12,-1.321,0.385,9.453807,-56.8947294,7.161975,91.3008573,-0.04583664,-40.72012506
1.26,126,0.11199999999999999,-1.341,0.4270000000000001,3.6096353999999997,-55.6342218,3.1512689999999997,91.34096436,-0.05156622,-41.27016474
1.27,127,0.081,-1.314,0.466,-0.11459160000000004,-55.40503860000001,1.3178034,91.35242352,-0.03437748,-41.81447484
1.28,128,0.046,-1.268,0.489,-0.4583664000000001,-54.20182679999999,1.6042823999999998,91.35242352,-0.02291832,-42.35305536
1.29,129,0.034,-1.239,0.45799999999999996,2.2345362,-50.6494872,3.6669312000000014,91.38107142,-0.03437748,-42.85152882
1.3,130,0.003,-1.237,0.335,4.1825934,-45.6647526,5.1566220000000005,91.44982638,-0.06875496,-43.29843606
1.31,131,-0.066,-1.274,0.258,0.9740286,-40.1643558,5.042030400000002,91.46701512,-0.09740286,-43.69950666
1.32,132,-0.162,-1.344,0.47700000000000004,-10.828906199999999,-32.4867186,1.2605076000000002,91.3581531,-0.09167328,-44.02036314
1.33,133,-0.18600000000000005,-1.39,0.574,-28.132237800000002,-9.9121734,-3.4950437999999995,91.07740368,-0.05156622,-44.117765999999996
1.34,134,-0.09,-1.364,0.22399999999999998,-28.6479,6.990087599999999,-4.8128472,90.78519509999998,-0.01145916,-44.05474062
1.35,135,0.05,-1.2670000000000001,-0.259,-5.6149884000000005,1.9480572,-2.1772404,90.67633308,0.02291832,-44.06047020000001
1.36,136,0.09,-1.237,-0.161,15.6990492,-12.2040054,-0.6302538000000001,90.83676132,0.03437748,-44.1750618
1.37,137,0.021,-1.218,-0.263,8.307891,-17.9908812,-2.86479,90.92270502,0.07448454,-44.35267878
1.3800000000000001,138,-0.095,-1.199,-0.542,4.583664,-21.829699800000004,-3.7242269999999995,90.97427124,0.12032118,-44.57040282
1.3900000000000001,139,-0.242,-1.199,-0.606,1.7761698000000001,-17.9335854,-8.9381448,90.99145998,0.21772404,-44.74229022
1.4000000000000001,140,-0.34600000000000003,-1.165,-0.602,-1.6615782,-2.9220858,-17.131444199999994,90.9284346,0.3724227000000001,-44.78239728
1.4100000000000001,141,-0.361,-1.147,-0.579,-1.9480572,14.8396122,-24.9809688,90.91124586,0.61306506,-44.62769862
1.42,142,-0.254,-1.131,-0.524,-0.7448454000000001,28.0176462,-28.7051958,90.8997867,0.8880849000000001,-44.34694920000001
1.43,143,-0.065,-1.085,-0.44799999999999995,1.3750992,34.7785506,-24.7517856,90.91697544,1.1172681,-43.99744482000001
1.44,144,0.147,-1.003,-0.359,4.9274388,35.0650296,-13.750992000000002,90.96854166,1.23758928,-43.64794044
1.45,145,0.281,-0.9570000000000001,-0.305,8.250595200000001,27.6165756,1.0313244000000001,90.96854166,1.2891555,-43.4302164
1.46,146,0.33899999999999997,-0.94,-0.26899999999999996,8.021412000000002,17.8189938,11.9748222,91.04875578,1.16310474,-43.25259942
1.47,147,0.326,-0.94,-0.182,7.2192707999999985,8.136003599999999,20.2827132,91.12324032,0.95683986,-43.17811488
1.48,148,0.262,-0.985,-0.133,7.0473834,0.057295800000000015,25.3247436,91.19772486,0.7104679199999999,-43.17811488
1.49,149,0.155,-1.048,-0.11699999999999999,7.0473834,-4.8701430000000006,28.1895336,91.27220940000001,0.4297185000000001,-43.23541068
1.5,150,0.028999999999999998,-1.071,-0.109,6.7609043999999985,-6.3025379999999975,27.6165756,91.30658688,0.16615782,-43.3156248
1.51,151,-0.075,-1.04,-0.08800000000000001,7.0473834,-5.2139178,23.777757,91.38107142,-0.06302537999999999,-43.3729206
1.52,152,-0.156,-0.975,-0.05,8.250595200000001,-3.1512689999999997,17.8762896,91.46701512,-0.24064236,-43.40729808
1.53,153,-0.162,-0.915,-0.035,9.167328,-0.057295800000000015,11.9748222,91.5586884,-0.35523396,-43.40729808
1.54,154,-0.124,-0.873,-0.023,9.224623800000002,2.0626488000000003,8.651665800000002,91.65036168,-0.44117766,-43.39010934
1.55,155,-0.083,-0.83,0.002,9.453807,3.7815228,6.0733548,91.74203496,-0.52139178,-43.35573186000001
1.56,156,-0.07200000000000001,-0.7809999999999999,0.018000000000000002,9.8548776,3.5523396000000003,3.7815228,91.83943782,-0.56149884,-43.3156248
1.57,157,-0.066,-0.7390000000000001,0.01,8.9954406,5.7868758000000025,0.8594370000000001,91.9311111,-0.5729580000000001,-43.258329
1.58,158,-0.031,-0.7,-0.018000000000000002,7.333862400000001,14.5531332,-1.8907614,91.99986606,-0.56149884,-43.1150895
1.59,159,-0.040999999999999995,-0.72,-0.011000000000000001,8.250595200000001,17.9908812,-4.010706000000001,92.08008018,-0.53285094,-42.93174294000001
1.6,160,-0.08199999999999999,-0.775,-0.011000000000000001,7.7922288,16.558486199999994,-3.9534102,92.14883514,-0.5156622000000001,-42.76558512
1.61,161,-0.08800000000000001,-0.851,0.035,7.9641161999999985,19.4232762,-0.6302538000000001,92.22331968,-0.52139178,-42.57650898
1.62,162,-0.059000000000000004,-0.877,0.024,4.7555514,21.886995600000002,2.3491277999999998,92.26915632,-0.56149884,-42.35878494
1.6300000000000001,163,-0.031,-0.89,-0.051,0.057295800000000015,20.626488000000002,3.8388186,92.26342674,-0.61306506,-42.15824964
1.6400000000000001,164,-0.015,-0.895,-0.10400000000000001,-3.3231564,16.2147114,5.6722842,92.22904926,-0.68182002,-41.9978214
1.6500000000000001,165,-0.013999999999999999,-0.9129999999999999,-0.151,-5.6722842,14.610429000000002,6.9327918,92.09726892,-0.75057498,-41.8832298
1.6600000000000001,166,-0.037000000000000005,-0.9259999999999999,-0.13699999999999998,-4.8701430000000006,18.277360199999997,7.6203414,92.0457027,-0.83651868,-41.70561282
1.6700000000000002,167,-0.061,-0.92,-0.07,-2.4064236,19.136797199999997,7.8495246,92.0170548,-0.92819196,-41.51653668
1.68,168,-0.083,-0.88,0.001,-1.0313244000000001,19.365980399999998,6.703608600000001,91.99986606,-1.00840608,-41.32746054
1.69,169,-0.083,-0.8440000000000001,0.051,2.6929026,21.199446,5.6149884000000005,92.0170548,-1.07716104,-41.12119566
1.7,170,-0.079,-0.846,0.09699999999999999,4.8128472,22.4599536,5.1566220000000005,92.08008018,-1.15164558,-40.89201246
1.71,171,-0.067,-0.868,0.138,6.8182002000000015,23.4339822,4.1825934,92.13737598,-1.20894138,-40.66282926
1.72,172,-0.066,-0.9109999999999999,0.14800000000000002,7.734933000000002,22.4026578,2.291832,92.21186052,-1.24904844,-40.43937564
1.73,173,-0.047,-0.9309999999999999,0.135,8.250595200000001,21.600516600000002,-0.40107059999999994,92.28634506,-1.25477802,-40.22738118
1.74,174,-0.024,-0.937,0.132,12.1467096,21.829699800000004,-2.4064236,92.40093666,-1.24904844,-40.00965714
1.75,175,-0.032,-0.924,0.141,16.902261,21.5432208,-4.7555514,92.58428322,-1.22040054,-39.78620352
1.76,176,-0.06,-0.897,0.14300000000000002,22.631841,21.600516600000002,-8.5370742,92.80773684,-1.1459160000000002,-39.56847947999999
1.77,177,-0.1,-0.8590000000000001,0.154,30.252182399999995,22.6891368,-12.7196676,93.105675,-1.03705398,-39.3335667
1.78,178,-0.136,-0.8170000000000001,0.188,36.8411994,23.605869600000002,-15.813640800000002,93.47236812,-0.89954406,-39.08719476
1.79,179,-0.149,-0.7909999999999999,0.23399999999999999,43.315624799999995,26.0122932,-18.8503182,93.90208662,-0.73338624,-38.81217492
1.8,180,-0.136,-0.7829999999999999,0.306,45.3209778,31.1689152,-21.314037600000002,94.38337134,-0.56149884,-38.46840012
1.81,181,-0.11800000000000001,-0.7709999999999999,0.363,43.258328999999996,37.4714532,-22.517249399999997,94.81308984,-0.37815228,-38.07878868
1.82,182,-0.09699999999999999,-0.7759999999999999,0.38299999999999995,40.33624320000001,42.112413000000004,-22.2880662,95.21416044,-0.20053530000000008,-37.63761102
1.83,183,-0.076,-0.8079999999999999,0.354,35.809875,45.3782736,-20.5118964,95.56939440000001,-0.05156622,-37.16778546
1.84,184,-0.045,-0.873,0.307,29.67922440000001,49.61816279999999,-18.048177,95.86733256,0.06302537999999999,-36.66358242
1.85,185,-0.027000000000000003,-0.925,0.282,23.204798999999998,54.0299394,-15.527161800000002,96.1137045,0.14323950000000002,-36.10781315999999
1.86,186,-0.026000000000000002,-0.958,0.293,21.7151082,54.6028974,-14.4958374,96.32569896,0.21199446,-35.5520439
1.87,187,-0.013000000000000001,-0.9690000000000001,0.305,20.340009,53.628868800000006,-13.521808800000002,96.52623426,0.27501984,-35.0077338
1.8800000000000001,188,0.013000000000000001,-0.978,0.34600000000000003,19.7097552,53.285093999999994,-12.0894138,96.72676956,0.32085648,-34.46915328
1.8900000000000001,189,0.051,-0.981,0.373,16.558486199999994,54.25912260000001,-10.4278356,96.8871978,0.34950438,-33.92484318
1.9000000000000001,190,0.08800000000000001,-0.972,0.3720000000000001,16.7303736,51.33703679999999,-8.8235532,97.08200352,0.36669312,-33.403451399999994
1.9100000000000001,191,0.105,-0.9890000000000001,0.402,18.907614,46.7533728,-6.990087599999999,97.27107966,0.36669312,-32.93935542
1.9200000000000002,192,0.09,-1.015,0.406,17.4179232,44.0031744,-5.443101,97.44296706000002,0.35523396,-32.49817776
1.93,193,0.027999999999999997,-1.046,0.386,14.610429000000002,37.6433406,-5.5576926,97.59193614,0.34950438,-32.120025479999995
1.94,194,-0.048,-1.085,0.354,10.026765,31.627281600000003,-7.9641161999999985,97.689339,0.37815228,-31.799169
1.95,195,-0.1,-1.105,0.335,6.2452422,27.1582092,-11.45916,97.7752827,0.4297185000000001,-31.506960419999995
1.96,196,-0.098,-1.102,0.3720000000000001,6.5317212,19.5378678,-14.7250206,97.84403766,0.5443101,-31.294965959999995
1.97,197,-0.057999999999999996,-1.1320000000000001,0.313,5.958763200000001,8.880849000000003,-16.4438946,97.90133346,0.69327918,-31.18037436
1.98,198,0.011000000000000001,-1.187,0.153,-1.145916,2.1772404,-15.870936600000002,97.8898743,0.8422482600000001,-31.1402673
1.99,199,0.153,-1.262,-0.023,-9.5111028,0.0,-12.5477802,97.79247144,0.96829902,-31.123078560000003
2.0,200,0.3720000000000001,-1.4040000000000001,-0.221,-26.1268848,-5.0993262,-5.443101,97.51172202,1.04278356,-31.18037436
2.01,201,0.5539999999999999,-1.6230000000000002,-0.49,-48.9306132,-22.6891368,8.7662574,97.01324856,0.98548776,-31.42101672
2.02,202,0.685,-1.855,-0.8059999999999999,-67.66633979999999,-45.3782736,26.642546999999997,96.32569896,0.7849524600000001,-31.902301439999995
2.03,203,0.7879999999999999,-1.92,-0.943,-59.473040399999995,-68.6403684,43.7166954,95.72409306,0.44117766,-32.6299581
2.04,204,0.8240000000000001,-1.771,-0.812,-26.1268848,-80.09952840000003,51.10785360000001,95.46626196,0.028647900000000007,-33.46647678
2.05,205,0.5770000000000001,-1.389,-0.657,10.313244000000001,-90.9857304,44.34694920000001,95.56939440000001,-0.27501984,-34.41185748
2.0599999999999996,206,0.195,-1.015,-0.36200000000000004,27.6165756,-104.4502434,27.1582092,95.86733256,-0.41252976,-35.46037062
2.07,207,-0.11800000000000001,-0.838,-0.10099999999999999,22.9756158,-104.39294759999999,5.5003968,96.12516366,-0.32658606,-36.48596544
2.0799999999999996,208,-0.36,-0.86,-0.031,1.3178034,-94.65266159999999,-11.5164558,96.15381156,-0.0859437,-37.40269823999999
2.09,209,-0.513,-0.953,-0.061,-7.0473834,-81.5892192,-25.2674478,96.09078618,0.26356068,-38.17619154000001
2.0999999999999996,210,-0.511,-1.025,-0.023,-10.1413566,-70.30194660000001,-32.085648000000006,95.98765374,0.64171296,-38.82363408
2.11,211,-0.424,-1.0959999999999999,0.008,-14.4958374,-59.35844880000001,-31.913760600000003,95.83868466,1.0313244000000001,-39.37367376
2.1199999999999997,212,-0.27399999999999997,-1.159,0.019,-17.589810600000003,-50.5348956,-27.215505,95.6553381,1.36364004,-39.84349932
2.13,213,-0.10400000000000001,-1.2329999999999999,0.024,-19.079501399999998,-42.5707794,-20.6837838,95.4548028,1.62147114,-40.24456992
2.1399999999999997,214,0.038,-1.29,-0.006,-19.767051000000002,-36.7839036,-14.1520626,95.24853792,1.8048177,-40.594074299999996
2.15,215,0.129,-1.2830000000000001,-0.043,-16.959556799999998,-34.091001,-9.740286,95.0537322,1.9480572000000005,-40.93211952
2.1599999999999997,216,0.17,-1.195,-0.026000000000000002,-13.5791046,-33.6899304,-7.2192707999999985,94.9104927,2.05691922,-41.25870558
2.17,217,0.171,-1.0859999999999999,-0.057999999999999996,-11.1153852,-32.6013102,-6.703608600000001,94.79017152,2.16005166,-41.57383248
2.1799999999999997,218,0.179,-0.9990000000000001,-0.09,-9.6256944,-33.74722620000001,-7.906820400000001,94.68130949999998,2.2746432600000004,-41.90041854
2.19,219,0.185,-0.9359999999999999,-0.09300000000000001,-8.193299399999999,-35.0077338,-11.2299768,94.58963622,2.42361234,-42.23846376
2.1999999999999997,220,0.172,-0.897,-0.076,-7.7922288,-35.9817624,-15.813640800000002,94.46931504,2.6413363800000003,-42.59369772
2.21,221,0.149,-0.857,-0.067,-8.880849000000003,-36.8411994,-19.4232762,94.37191218,2.87051958,-42.9432021
2.2199999999999998,222,0.11900000000000001,-0.8190000000000001,-0.062,-8.078707799999998,-38.0444112,-21.2567418,94.27450932,3.11689152,-43.30416564
2.23,223,0.095,-0.795,-0.027999999999999997,-5.6722842,-40.10706,-21.657812399999997,94.20002478,3.37472262,-43.68231792
2.2399999999999998,224,0.085,-0.792,-0.027999999999999997,-4.6982555999999995,-42.1697088,-21.2567418,94.13126982,3.62682414,-44.08338852
2.25,225,0.096,-0.8220000000000001,-0.046,-5.844171599999999,-44.6334282,-21.142150199999996,94.03386695999998,3.89038482,-44.51883660000001
2.26,226,0.102,-0.8809999999999999,-0.054000000000000006,-7.333862400000001,-46.2377106,-21.0848544,93.93073452,4.14248634,-44.96001426
2.27,227,0.099,-0.9179999999999999,-0.071,-7.906820400000001,-47.498218200000004,-21.0848544,93.8218725,4.39458786,-45.41265108
2.28,228,0.111,-0.932,-0.061,-8.136003599999999,-48.128472,-20.912967000000002,93.7072809,4.64668938,-45.87674706
2.29,229,0.122,-0.924,-0.081,-8.3651868,-47.211739200000004,-19.7097552,93.59268929999999,4.88160216,-46.32938388
2.3,230,0.121,-0.9159999999999999,-0.07400000000000001,-6.703608600000001,-46.1804148,-17.9908812,93.46663854,5.11078536,-46.78775028
2.31,231,0.113,-0.92,-0.07200000000000001,-5.0993262,-44.5761324,-15.6417534,93.38069484,5.30559108,-47.22319836000001
2.32,232,0.09699999999999999,-0.9359999999999999,-0.042,-3.4950437999999995,-43.315624799999995,-12.776963400000001,93.31193988,5.466019319999999,-47.641457700000004
2.3299999999999996,233,0.078,-0.9470000000000001,-0.011000000000000001,-2.291832,-43.20103320000001,-9.740286,93.25464408,5.6035292399999985,-48.06544662
2.34,234,0.043,-0.953,0.022000000000000002,-1.432395,-44.117765999999996,-7.5057497999999985,93.20307786,5.71239126,-48.49516512
2.3499999999999996,235,0.024,-0.9520000000000001,0.051,-1.6615782,-43.544808,-6.417129599999999,93.14578206000002,5.79833496,-48.92488362
2.36,236,0.018000000000000002,-0.9520000000000001,0.083,-2.5783110000000002,-43.029145799999995,-5.844171599999999,93.08275668,5.89000824,-49.34314296
2.3699999999999997,237,0.013000000000000001,-0.956,0.085,-4.0680017999999984,-41.76863820000001,-5.042030400000002,93.00254256,5.97595194,-49.75567271999999
2.38,238,0.017,-0.9540000000000001,0.08,-6.130650599999999,-41.4248634,-3.4950437999999995,92.9051397,6.0447069,-50.16820248000001
2.3899999999999997,239,0.036000000000000004,-0.955,0.079,-8.078707799999998,-41.3675676,-1.432395,92.78481852,6.09054354,-50.57500266
2.4,240,0.068,-0.955,0.06,-10.3705398,-41.539455,1.0886202,92.63584944,6.1077322800000005,-50.993262
2.4099999999999997,241,0.096,-0.945,0.039,-12.3758928,-41.76863820000001,4.4690724,92.4754212,6.09054354,-51.41152134
2.42,242,0.11599999999999999,-0.9359999999999999,0.022000000000000002,-13.0061466,-42.685371,7.161975,92.3035338,6.0447069,-51.84123984
2.4299999999999997,243,0.122,-0.935,0.025,-12.3758928,-43.315624799999995,8.880849000000003,92.13737598,5.9874111,-52.27095833999999
2.44,244,0.11599999999999999,-0.9420000000000001,0.042,-11.5737516,-43.20103320000001,9.740286,91.97694774,5.9129265600000025,-52.70640641999999
2.4499999999999997,245,0.091,-0.9490000000000001,0.052000000000000005,-11.3445684,-41.5967508,10.4278356,91.82797866,5.83271244,-53.124665760000006
2.46,246,0.07,-0.961,0.057999999999999996,-11.1153852,-37.9871154,11.172680999999999,91.67900958,5.7467687399999985,-53.50854762
2.4699999999999998,247,0.053,-0.9790000000000001,0.068,-11.802934800000001,-33.403451399999994,11.745639,91.5300405,5.6436363,-53.840863260000006
2.48,248,0.04,-0.986,0.061,-13.464512999999998,-28.1895336,12.318597,91.36961226,5.53477428,-54.12734226
2.4899999999999998,249,0.028999999999999998,-0.975,0.059000000000000004,-14.381245800000002,-23.0329116,13.8655836,91.20345444,5.40872352,-54.36225504
2.5,250,0.028999999999999998,-0.9590000000000001,0.052000000000000005,-15.126091199999998,-20.340009,16.386598799999998,91.03729662,5.24829528,-54.56851991999999
2.51,251,0.040999999999999995,-0.953,0.05,-16.902261,-20.454600600000006,19.5378678,90.85395006,5.05921914,-54.7747848
2.52,252,0.062,-0.956,0.039,-20.1108258,-22.631841,22.9756158,90.63049644,4.83576552,-55.00396800000001
2.53,253,0.094,-0.966,0.0,-23.204798999999998,-24.2361234,25.668518399999996,90.37839492,4.58939358,-55.25033994
2.54,254,0.114,-0.981,-0.021,-25.210151999999997,-26.41336380000001,27.100913399999996,90.10337508,4.325832900000001,-55.5196302
2.55,255,0.11800000000000001,-0.99,-0.04,-26.9863218,-28.9916748,27.501984000000004,89.80543692,4.06227222,-55.81756836000001
2.56,256,0.11599999999999999,-0.9940000000000001,-0.068,-28.877083199999998,-30.595957199999997,28.0176462,89.49603959999996,3.79298196,-56.121236100000004
2.57,257,0.114,-0.988,-0.10800000000000001,-30.4240698,-30.252182399999995,28.1895336,89.16945354,3.5122325400000003,-56.41917426
2.5799999999999996,258,0.096,-0.977,-0.134,-29.507337,-27.8457588,27.559279800000002,88.86005622,3.2372127,-56.69419409999999
2.59,259,0.05,-0.968,-0.126,-26.8717302,-26.642546999999997,26.642546999999997,88.57357721999998,2.9736520200000003,-56.95775478
2.5999999999999996,260,-0.002,-0.953,-0.105,-24.2934192,-27.4446882,26.1841806,88.31001654,2.70436176,-57.23277462000001
2.61,261,-0.04,-0.9440000000000001,-0.068,-22.803728399999997,-28.361421000000004,26.69984280000001,88.06937418,2.4350715000000003,-57.50779446
2.6199999999999997,262,-0.046,-0.95,-0.040999999999999995,-23.663165399999997,-26.8717302,27.4446882,87.82300224,2.16005166,-57.76562556
2.63,263,-0.032,-0.976,-0.006,-25.78311,-23.5485738,27.788463,87.55371198,1.87930224,-57.99480876
2.6399999999999997,264,-0.004,-1.021,0.025,-30.595957199999997,-20.7983754,28.533308399999996,87.24431466,1.59282324,-58.18961448
2.65,265,0.028999999999999998,-1.07,-0.017,-37.52874900000001,-16.329303,30.4813656,86.8604328,1.28342592,-58.33858356
2.6599999999999997,266,0.068,-1.117,-0.07200000000000001,-43.1437374,-13.2926256,32.2002396,86.41925513999998,0.95683986,-58.45890474
2.67,267,0.095,-1.149,-0.126,-46.696077,-9.9121734,34.3201842,85.94942957999999,0.6073354799999999,-58.53911886000001
2.6799999999999997,268,0.1,-1.165,-0.147,-48.529542600000006,-6.2452422,36.4974246,85.45668570000002,0.24064236,-58.58495550000001
2.69,269,0.10300000000000001,-1.163,-0.17800000000000002,-51.9099948,-3.7242269999999995,39.820581,84.92956434,-0.15469866,-58.59068508
2.6999999999999997,270,0.10099999999999999,-1.145,-0.19699999999999998,-55.1758554,-4.6409598,44.748019799999994,84.36233591999998,-0.59587632,-58.60787382
2.71,271,0.11,-1.122,-0.191,-58.0979412,-10.886202,51.9672906,83.77791876,-1.12299768,-58.67089920000001
2.7199999999999998,272,0.16699999999999998,-1.12,-0.187,-61.6502808,-20.7983754,62.738901,83.15912412,-1.77044022,-58.8141387
2.73,273,0.24,-1.127,-0.174,-68.1247062,-36.38283300000001,74.1407652,82.48303368,-2.54393352,-59.08915854000001
2.7399999999999998,274,0.299,-1.12,-0.222,-79.1254998,-50.6494872,83.0216142,81.70954037999998,-3.42055926,-59.48449956
2.75,275,0.358,-1.089,-0.281,-85.1988546,-65.66098679999999,88.98037740000002,80.88448086000002,-4.37166954,-60.01162092
2.76,276,0.38,-1.08,-0.33899999999999997,-89.4387438,-83.76645959999998,91.5013926,80.04796218,-5.39153478,-60.69344094
2.77,277,0.38,-1.048,-0.3670000000000001,-95.51209859999999,-103.2470316,90.06899759999996,79.18279559999998,-6.43431834,-61.55860752
2.78,278,0.435,-0.992,-0.366,-103.8199896,-119.5190388,84.4540092,78.27179238,-7.47137232,-62.57847276
2.79,279,0.639,-0.9009999999999999,-0.29100000000000004,-113.67486720000001,-125.5350978,74.3699484,77.28630462,-8.43394176,-63.66709296000001
2.8,280,0.976,-0.767,-0.14400000000000002,-107.9452872,-137.22344099999998,64.9161414,76.39249013999998,-9.32202666,-64.87603434
2.81,281,0.982,-0.605,-0.065,-99.0071424,-168.736131,64.5723666,75.67056306,-10.313244,-66.38291388
2.82,282,0.693,-0.525,0.009000000000000001,-86.40206640000002,-198.1861722,71.21867940000001,75.15490086000001,-11.44770084,-68.15908368000001
2.8299999999999996,283,0.491,-0.527,0.079,-77.80769640000003,-208.3848246,81.1308528,74.78247816,-12.71393802,-69.99827886
2.84,284,0.3720000000000001,-0.428,0.126,-67.5517482,-210.96313560000002,84.62589659999998,74.55329496,-14.02601184,-71.86039236
2.8499999999999996,285,0.233,-0.311,0.289,-53.858052,-217.2656736,82.67783940000002,74.54756538,-15.33235608,-73.79699040000001
2.86,286,0.14300000000000002,-0.201,0.38799999999999996,-46.00852740000001,-216.69271559999999,77.6931048,74.65069782,-16.59286368,-75.75650676000002
2.8699999999999997,287,0.081,-0.079,0.446,-41.0810886,-209.12967,69.041439,74.82831479999999,-17.75023884,-77.67591605999998
2.88,288,-0.059000000000000004,0.032,0.433,-38.27359439999999,-204.6605976,58.15523699999999,75.06895716,-18.78156324,-79.59532535999998
2.8899999999999997,289,-0.222,0.055,0.424,-37.4714532,-201.5666244,49.9619376,75.35543616,-19.72121436,-81.52046424
2.9,290,-0.27699999999999997,0.081,0.384,-36.096354,-190.4512392,46.00852740000001,75.66483348,-20.60356968,-83.35965941999999
2.9099999999999997,291,-0.262,0.091,0.335,-35.0077338,-169.93934280000005,40.5654264,75.92839416000002,-21.36560382,-85.01550804
2.92,292,-0.302,0.071,0.249,-33.5753388,-152.80789860000004,34.60666320000001,76.16330694,-22.02450552,-86.51665799999998
2.9299999999999997,293,-0.371,0.039,0.235,-30.8251404,-138.77042759999998,28.533308399999996,76.39249013999998,-22.59173394,-87.89748678
2.94,294,-0.373,-0.021,0.23,-28.2468294,-125.477802,22.058882999999998,76.61594376000002,-23.0615595,-89.16372396
2.9499999999999997,295,-0.308,-0.094,0.114,-28.533308399999996,-110.6381898,15.9855282,76.79356074,-23.45690052,-90.29245122
2.96,296,-0.273,-0.204,-0.008,-26.5852512,-92.99108340000001,11.3445684,76.9196115,-23.75483868,-91.24929108
2.9699999999999998,297,-0.308,-0.36200000000000004,-0.12300000000000001,-23.892348600000002,-69.7862844,11.3445684,76.97690730000002,-24.00694020000001,-91.96548857999998
2.98,298,-0.35600000000000004,-0.534,-0.215,-26.642546999999997,-47.0398518,14.8396122,76.90242276000002,-24.24185298,-92.43531414
2.9899999999999998,299,-0.38799999999999996,-0.7,-0.21,-33.1742682,-25.55392680000001,19.7097552,76.66178040000001,-24.48822492,-92.65876776
3.0,300,-0.41600000000000004,-0.795,-0.245,-35.3515086,-12.1467096,25.496631,76.31800559999998,-24.768974340000003,-92.72752272
3.01,301,-0.457,-0.8490000000000001,-0.263,-29.220858000000003,5.0993262,29.9084076,75.96850122000002,-25.04972376,-92.59574238000002
3.02,302,-0.526,-0.8240000000000001,-0.17,-23.605869600000002,14.4958374,35.0077338,75.61899684,-25.35912108,-92.34937044
3.03,303,-0.495,-0.723,-0.03,-17.8762896,13.0634424,41.825934000000004,75.33251784000002,-25.73154378,-92.09726892
3.04,304,-0.43,-0.569,-0.102,-17.8189938,11.745639,48.128472,75.03457968000002,-26.17272144,-91.83943782
3.05,305,-0.348,-0.42100000000000004,-0.071,-13.8655836,14.896907999999998,52.998615,74.75955984,-26.65400616,-91.5300405
3.06,306,-0.278,-0.324,0.022000000000000002,-7.333862400000001,12.891555,52.5975444,74.54756538,-27.129561300000002,-91.23783192
3.07,307,-0.146,-0.264,0.256,4.4690724,11.917526400000002,44.690723999999996,74.47308084,-27.5306319,-90.98000082
3.08,308,0.026000000000000002,-0.297,0.336,1.2032118,17.9335854,32.0283522,74.35275966,-27.79419258,-90.68779224
3.09,309,0.11900000000000001,-0.33,0.18899999999999997,-4.2398892,23.14750320000001,21.657812399999997,74.15795394,-27.94316166,-90.37266534
3.0999999999999996,310,0.10099999999999999,-0.46,0.19899999999999998,-5.3285094000000015,20.7983754,18.6784308,74.00898486,-28.04056452,-90.09191592
3.11,311,0.079,-0.6940000000000001,-0.191,-17.9908812,15.527161800000002,24.809081399999997,73.70531712,-28.24109982,-89.85127356000002
3.1199999999999997,312,0.153,-0.9490000000000001,-0.429,-30.3094782,2.5210152000000003,40.680018,73.32716484,-28.62498168,-89.6965749
3.13,313,0.272,-1.1059999999999999,-0.6779999999999999,-48.8733174,-28.7051958,59.1292656,72.89744634,-29.26669464,-89.82262566
3.1399999999999997,314,0.424,-1.14,-0.8170000000000001,-59.24385720000001,-45.72204840000001,67.609044,72.43907994,-30.04018794000001,-90.0976455
3.15,315,0.44299999999999995,-1.038,-0.737,-58.49901179999999,-58.327124399999995,65.4318036,72.05519808,-30.79076292,-90.51590484
3.1599999999999997,316,0.28800000000000003,-0.868,-0.478,-51.852699,-64.11400019999999,56.837433600000004,71.80309656,-31.51841958,-91.02583746
3.17,317,0.078,-0.693,-0.397,-48.128472,-67.609044,46.925260200000004,71.63120916,-32.15440296,-91.6159842
3.1799999999999997,318,-0.078,-0.578,-0.10400000000000001,-37.299565799999996,-66.69231119999999,41.19568020000001,71.58537251999998,-32.73882012,-92.2175901
3.19,319,-0.20199999999999999,-0.565,0.133,-28.5906042,-64.8015498,40.1643558,71.62547958,-33.30604854,-92.80200726
3.1999999999999997,320,-0.23600000000000002,-0.653,0.109,-22.517249399999997,-72.93755340000001,52.3110654,71.79163739999998,-33.999327720000004,-93.44372022
3.21,321,-0.243,-0.752,0.106,-15.297978599999999,-93.67863299999999,74.82831479999999,72.10103472,-34.97335632,-94.24586142
3.2199999999999998,322,-0.212,-0.9309999999999999,-0.213,-18.277360199999997,-106.45559640000002,95.111028,72.45053909999999,-36.16510896000001,-95.13967590000001
3.23,323,-0.13,-1.056,-0.45899999999999996,-19.8816426,-119.28985559999998,110.6381898,72.87452801999999,-37.54020816,-96.15381156
3.2399999999999998,324,-0.29,-0.9670000000000001,0.142,-16.7303736,-126.05076,116.25317820000001,73.41310854000002,-38.97260316,-97.26535008
3.25,325,-0.3,-0.9279999999999999,-0.552,-30.93973200000001,-105.25238459999998,127.94152140000001,73.63656216000003,-40.45656438,-98.10759834
3.26,326,-0.92,-1.094,-0.88,-45.607456799999994,-101.35627020000001,147.59398080000003,73.68812838,-42.12387216000001,-98.85817332
3.27,327,-1.841,-1.4380000000000002,-1.099,-46.2377106,-102.3875946,183.91951799999998,73.67666922,-44.14068432,-99.51134544
3.28,328,-3.338,-2.019,-0.875,-34.66395900000001,-99.80928359999999,232.334469,73.65948048,-46.6101333,-99.95825268000002
3.29,329,-3.9989999999999997,-2.6660000000000004,-0.6809999999999999,-47.326330799999994,-88.06364459999998,284.4163512,73.2526803,-49.54940784,-100.03273722
3.3,330,-3.971,-2.957,-0.496,-56.264475600000004,-70.93220040000001,319.5959724,72.38751372,-52.77516138,-99.63166662
3.31,331,-3.971,-2.517,-0.105,-56.0352924,-38.27359439999999,331.9718652,70.89782292,-56.02383324,-98.49720978
3.32,332,-3.133,-1.31,0.10099999999999999,-75.51586440000001,10.943497800000001,326.18498939999995,68.22210906000001,-59.03759232,-96.2282961
3.33,333,-2.239,0.031,0.12,-56.66554620000001,68.6976642,353.801565,64.03378608,-61.99978518,-92.08580976
3.34,334,-1.2009999999999998,0.263,0.379,-61.191914399999995,70.1300592,343.8893916,58.95164862,-64.70414694,-87.10107516000002
3.3499999999999996,335,-0.741,0.102,0.125,-53.9153478,40.4508348,319.3094934,53.73773082,-67.15067760000001,-81.9902898
3.36,336,-0.956,0.052000000000000005,0.049,-74.9429064,18.2200644,304.5844728,47.84772258,-69.40240254,-76.46697467999998
3.3699999999999997,337,-1.193,0.289,0.11599999999999999,-81.5892192,-20.168121600000006,306.1314594,41.32173096,-71.69423454,-70.41653819999998
3.38,338,-1.253,0.4920000000000001,-0.081,-84.3394176,-40.90920120000001,293.9847498000001,33.8618178,-73.81417914,-63.48947598
3.3899999999999997,339,-1.29,0.807,-0.12,-86.40206640000002,-36.32553720000001,281.9526318,24.768974340000003,-75.51586440000001,-54.96386094
3.4,340,-1.476,0.95,-0.203,-73.73969459999998,-43.77399120000001,265.33684980000004,14.53594446,-76.82793822,-45.19492704
3.4099999999999997,341,-1.482,0.992,-0.254,-51.5089242,-59.53033620000001,236.345175,4.211241299999998,-77.80196682,-35.133784559999995
3.42,342,-1.6469999999999998,0.9159999999999999,-0.221,-31.9710564,-82.39136040000002,207.2962044,-5.92438572,-78.59837844,-25.08983082
3.4299999999999997,343,-1.85,0.746,-0.28600000000000003,-20.2254174,-96.19964820000001,180.195291,-15.888125340000002,-79.2114435,-15.131820780000002
3.44,344,-1.806,0.6659999999999999,-0.29,-10.4851314,-99.0644382,145.244853,-24.93513216,-79.641162,-6.016058999999999
3.4499999999999997,345,-1.558,0.664,-0.22399999999999998,2.0053530000000004,-101.0697912,110.6381898,-32.859141300000005,-79.99066638000002,2.05691922
3.46,346,-1.37,0.6709999999999999,-0.203,14.381245800000002,-98.1477054,86.7458412,-39.877876799999996,-80.28287496,9.34494498
3.4699999999999998,347,-1.187,0.7,-0.163,16.8449652,-90.4700682,70.35924240000001,-46.19760354,-80.47768067999998,15.94542114
3.48,348,-1.028,0.679,-0.14800000000000002,15.756345,-87.26150340000002,55.06126379999999,-52.00739766,-80.64383849999999,22.007316780000004
3.4899999999999998,349,-0.9470000000000001,0.59,-0.141,15.6417534,-83.76645959999998,41.4248634,-57.34736622000001,-80.80999632,27.5879277
3.5,350,-0.872,0.48200000000000004,-0.158,16.7303736,-80.90166959999998,32.7731976,-62.40658536,-80.91312875999998,32.89351878
3.51,351,-0.846,0.41100000000000003,-0.145,20.8556712,-73.3959198,27.7311672,-66.97879019999999,-80.99334288,37.74647304
3.52,352,-0.7609999999999999,0.361,-0.027999999999999997,20.7410796,-70.7030172,24.7517856,-71.38483722,-81.03344994,42.4275399
3.53,353,-0.619,0.348,0.013000000000000001,15.126091199999998,-67.49445240000001,22.1734746,-75.63045600000002,-81.02772036,46.896612299999994
3.54,354,-0.561,0.34600000000000003,0.08,13.464512999999998,-63.59833800000001,21.4286292,-79.62397326,-80.97042456,51.0792057
3.55,355,-0.606,0.341,0.08800000000000001,10.599723,-60.10329419999999,21.7151082,-83.41122564,-80.83864422,55.03261590000001
3.56,356,-0.623,0.35200000000000004,0.01,3.6096353999999997,-54.54560160000001,21.485925,-86.78021868,-80.68967513999998,58.48755264
3.57,357,-0.596,0.36,-0.08,-3.7242269999999995,-47.0971476,20.2254174,-89.66219742,-80.51205816,61.38099053999999
3.58,358,-0.491,0.332,-0.209,-11.8602306,-45.3782736,20.7983754,-92.42385498,-80.31152286,64.06243398
3.59,359,-0.485,0.28600000000000003,-0.363,-6.990087599999999,-51.10785360000001,24.350715,-95.32302246,-80.04796218,66.93868314
3.5999999999999996,360,-0.495,0.24,-0.376,4.2398892,-66.2912406,27.960350399999996,-98.50866894,-79.6984578,70.22173248
3.61,361,-0.5479999999999999,0.263,-0.157,8.8235532,-86.45936219999999,30.8251404,-102.65115528,-79.26300972,74.5418358
3.6199999999999997,362,-0.6890000000000001,0.316,0.10800000000000001,5.042030400000002,-89.3241522,28.132237800000002,-106.66759086,-78.79318416,78.6957813
3.63,363,-0.805,0.385,0.273,-6.2452422,-83.36538900000002,19.136797199999997,-110.33452206,-78.36919524,82.37990124000002
3.6399999999999997,364,-0.774,0.42,0.21,-21.886995600000002,-75.17208959999998,6.589017,-113.77227006,-78.04833876000002,85.68013932
3.65,365,-0.6920000000000001,0.382,0.055999999999999994,-23.14750320000001,-61.994055599999996,-4.9274388,-116.62560090000001,-77.82488514,88.36158276
3.6599999999999997,366,-0.6859999999999999,0.29600000000000004,-0.035,-13.521808800000002,-51.3943326,-11.0580894,-119.09504988,-77.6931048,90.7565472
3.67,367,-0.733,0.231,-0.015,-5.72958,-52.3683612,-11.172680999999999,-121.47282558,-77.53840613999998,93.1343229
3.6799999999999997,368,-0.82,0.228,0.053,-2.5210152000000003,-62.2805346,-10.084060800000001,-124.09697322,-77.30349336,95.80430718
3.69,369,-0.934,0.262,0.149,1.3750992,-72.76566600000002,-11.6310474,-126.98468154,-76.99982562,98.78941836
3.6999999999999997,370,-1.058,0.28600000000000003,0.257,4.010706000000001,-73.28132819999998,-14.610429000000002,-129.82082364,-76.66750998,101.7573408
3.71,371,-1.104,0.327,0.395,2.5783110000000002,-68.46848100000001,-18.334656,-132.46216002,-76.37530140000001,104.5075392
3.7199999999999998,372,-1.1079999999999999,0.348,0.45799999999999996,2.2345362,-59.014674,-23.4339822,-134.86285404,-76.15184778,107.01136566
3.73,373,-1.093,0.315,0.425,1.5469866,-47.211739200000004,-30.8251404,-137.07447192,-76.03725618000001,109.31465682
3.7399999999999998,374,-1.043,0.276,0.376,-1.432395,-36.7839036,-37.757932200000006,-139.21160526,-76.02579702,111.50335638
3.75,375,-1.03,0.23,0.33,-4.0680017999999984,-28.934378999999996,-41.9405256,-141.33154986000002,-76.06590408,113.6462193
3.76,376,-1.056,0.195,0.34600000000000003,-5.9014674000000005,-24.9809688,-43.602103799999995,-143.39992823999995,-76.13465904,115.72032726
3.77,377,-1.1,0.182,0.371,-8.136003599999999,-23.605869600000002,-43.20103320000001,-145.4740362,-76.20341400000002,117.7715169
3.78,378,-1.145,0.175,0.384,-8.250595200000001,-24.064236,-41.539455,-147.51376667999997,-76.23206189999998,119.78832906
3.79,379,-1.17,0.174,0.415,-8.250595200000001,-25.0382646,-40.5081306,-149.542038,-76.23779148,121.79368206
3.8,380,-1.18,0.184,0.43,-8.7089616,-24.2361234,-40.393539000000004,-151.58176848,-76.21487316,123.80476464
3.81,381,-1.1420000000000001,0.213,0.45399999999999996,-10.7143146,-20.9702628,-43.029145799999995,-153.63868770000005,-76.22633232000003,125.81584722
3.82,382,-1.0859999999999999,0.233,0.45399999999999996,-11.802934800000001,-15.756345,-47.9565846,-155.80446894000005,-76.28935770000002,127.92433266
3.83,383,-1.0390000000000001,0.218,0.41,-13.464512999999998,-8.880849000000003,-52.5975444,-158.07338262,-76.41540846000002,130.11303221999998
3.84,384,-1.034,0.18600000000000005,0.361,-13.178034,-3.7815228,-55.11855960000001,-160.39386252,-76.57583670000002,132.36475716
3.8499999999999996,385,-1.078,0.154,0.345,-10.7143146,0.5156622000000001,-56.149884,-162.70861284,-76.74199452,134.63367084
3.86,386,-1.0979999999999999,0.159,0.325,-8.479778399999999,5.443101,-56.66554620000001,-165.0405519,-76.95398897999998,136.93696200000002
3.8699999999999997,387,-1.074,0.175,0.285,-5.7868758000000025,11.45916,-58.38442020000001,-167.4183276,-77.20036092000002,139.3147377
3.88,388,-1.099,0.19,0.27699999999999997,-0.2291832000000001,17.4179232,-61.07732280000001,-169.90496532,-77.4925695,141.85294163999995
3.8899999999999997,389,-1.183,0.19,0.295,3.2658606,21.7151082,-64.457775,-172.58640875999996,-77.80196682,144.63178793999995
3.9,390,-1.2309999999999999,0.17,0.304,6.130650599999999,24.5798982,-66.86419860000001,-175.4397396,-78.11136413999998,147.61116954000005
3.9099999999999997,391,-1.255,0.11699999999999999,0.33299999999999996,10.7143146,29.2781538,-67.895523,-178.47068742000005,-78.4379502,150.81400476
3.92,392,-1.248,0.055,0.336,13.0634424,35.809875,-67.3798608,178.36755498,-78.79891374,154.16007947999995
3.9299999999999997,393,-1.176,0.027999999999999997,0.313,18.621135,44.2323576,-65.89017,175.11315353999996,-79.19998434,157.66085286
3.94,394,-1.089,-0.009000000000000001,0.27399999999999997,20.6837838,53.5142772,-64.8588456,171.62383932,-79.65835074,161.41372776
3.9499999999999997,395,-1.045,-0.028999999999999998,0.23,19.8816426,60.10329419999999,-63.02538000000001,167.84804609999995,-80.13390588000001,165.44735208
3.96,396,-1.109,-0.023,0.249,23.663165399999997,63.4264506,-60.9627312,163.79723304,-80.60373144,169.79037372
3.9699999999999998,397,-1.2009999999999998,0.013000000000000001,0.303,30.882436199999997,62.7961968,-57.9833496,159.58599174,-81.02199078,174.36257856
3.98,398,-1.275,0.071,0.3720000000000001,40.10706,60.9627312,-53.858052,155.36329128,-81.38295432,179.03791584
3.9899999999999998,399,-1.2919999999999998,0.114,0.44299999999999995,50.420303999999994,61.764872399999994,-50.1911208,151.07183586000005,-81.71526996,-176.10437088
4.0,400,-1.24,0.174,0.474,59.64492779999999,63.9421128,-46.925260200000004,146.72308464,-82.02466728,-171.10817712
4.01,401,-1.18,0.184,0.45799999999999996,68.41118519999999,68.98414319999999,-44.06047020000001,141.96180366000004,-82.33979418,-165.60778032000005
4.02,402,-1.119,0.18899999999999997,0.369,66.69231119999999,71.5051584,-36.4401288,137.08593108,-82.66065066,-160.02143982
4.03,403,-1.053,0.16899999999999998,0.27899999999999997,60.3324774,71.39056679999999,-22.517249399999997,132.48507834,-83.01588462000002,-154.77887412
4.04,404,-1.125,0.057999999999999996,0.162,62.45242200000001,68.1247062,-13.407217200000002,128.1134088,-83.35965941999999,-149.7425733
4.05,405,-1.043,-0.174,0.135,70.87490460000002,68.2392978,-21.485925,122.91095016,-83.58311304,-143.79526926
4.06,406,-0.966,-0.375,0.145,77.9795838,79.92764100000002,-46.29500640000001,115.54271028,-83.58884262000002,-135.59051069999998
4.07,407,-0.57,-0.316,0.084,60.6189564,95.7985776,-57.06661679999999,106.57591757999998,-83.4226848,-125.95908672
4.08,408,-0.391,-0.22,0.026000000000000002,43.20103320000001,113.84675459999998,-47.3836266,96.75541746,-83.21641991999998,-115.64584272
4.09,409,-0.55,-0.159,0.02,36.1536498,119.5190388,-19.5378678,87.16983012,-83.09036916,-105.64199604
4.1,410,-0.763,-0.308,0.012,44.34694920000001,109.148499,-0.8021411999999999,78.8390208,-82.95858882,-96.8012541
4.109999999999999,411,-0.95,-0.504,0.019,45.83664,93.27756240000001,11.1153852,71.80882614,-82.84972680000001,-89.2668564
4.12,412,-1.093,-0.654,0.04,45.550160999999996,86.63124959999998,20.5118964,65.26564578,-82.74659436,-82.21374342
4.13,413,-1.136,-0.7659999999999999,0.086,45.2063862,85.9437,23.319390600000002,58.94018946,-82.56897738,-75.38408405999998
4.14,414,-1.073,-0.752,0.098,40.7946096,87.66257399999998,22.803728399999997,52.87256424,-82.28249838,-68.85809244000001
4.1499999999999995,415,-0.985,-0.614,0.035,30.595957199999997,88.7511942,20.340009,47.4695703,-81.8756982,-63.08840538
4.16,416,-0.912,-0.366,-0.061,15.870936600000002,86.5739538,16.558486199999994,42.59369772,-81.40014306,-58.006267920000006
4.17,417,-0.85,-0.098,-0.138,-3.4377480000000005,80.04223259999998,11.5164558,38.57726214,-80.89021044,-53.98983234
4.18,418,-0.821,0.031,-0.209,-13.0061466,73.6823988,7.6203414,35.31140154000001,-80.36881866,-50.827104180000006
4.1899999999999995,419,-0.826,0.045,-0.27399999999999997,-17.0741484,67.7236356,6.130650599999999,32.6013102,-79.85888604,-48.26025234
4.2,420,-0.85,-0.016,-0.33299999999999996,-17.303331600000003,60.50436480000001,5.7868758000000025,30.22926408,-79.36041258,-46.04863446
4.21,421,-0.872,-0.094,-0.387,-15.813640800000002,51.33703679999999,6.130650599999999,28.418716800000002,-78.95934198,-44.3755971
4.22,422,-0.8740000000000001,-0.14800000000000002,-0.434,-14.266654199999998,42.742666799999995,8.136003599999999,26.86027104,-78.63275592,-42.9432021
4.2299999999999995,423,-0.8690000000000001,-0.182,-0.462,-8.59437,35.0077338,11.45916,25.47371268,-78.37492482,-41.61966912000001
4.24,424,-0.8420000000000001,-0.20600000000000002,-0.462,-1.432395,29.1062664,15.297978599999999,24.17309802,-78.1801191,-40.31332488
4.25,425,-0.809,-0.212,-0.418,4.8128472,25.2674478,18.277360199999997,22.91259042,-77.96239505999998,-38.99552148
4.26,426,-0.789,-0.185,-0.3720000000000001,4.9847346,24.637194,20.454600600000006,21.6291645,-77.81342598,-37.62615186
4.27,427,-0.794,-0.11800000000000001,-0.341,1.3178034,26.8717302,20.9702628,20.27125404,-77.64726816,-36.23386392
4.28,428,-0.7979999999999999,-0.04,-0.309,-2.0626488000000003,31.1689152,20.6837838,18.86750694,-77.42954411999997,-34.81865766
4.29,429,-0.795,0.013999999999999999,-0.29600000000000004,-4.2398892,36.03905820000001,19.9962342,17.4465711,-77.15452428,-33.40918098
4.3,430,-0.7809999999999999,0.036000000000000004,-0.302,-6.3025379999999975,40.4508348,18.277360199999997,15.96833946,-76.80501989999998,-31.982515560000003
4.31,431,-0.772,0.033,-0.32,-8.136003599999999,43.1437374,16.7876694,14.67918396,-76.44405636,-30.74492628
4.32,432,-0.7809999999999999,0.018000000000000002,-0.348,-11.0007936,42.8572584,16.2147114,13.45305384,-76.07736324,-29.60473986
4.33,433,-0.812,0.003,-0.375,-13.6936962,39.7632852,16.7303736,12.26703078,-75.73358843999998,-28.53330840000001
4.34,434,-0.838,-0.003,-0.39899999999999997,-14.7250206,34.4347758,17.303331600000003,11.149762679999998,-75.44137986,-27.54209106
4.35,435,-0.866,0.011000000000000001,-0.41700000000000004,-13.8082878,27.100913399999996,17.246035799999998,10.04395374,-75.17208959999998,-26.562332880000003
4.36,436,-0.895,0.025,-0.408,-11.8602306,18.6784308,16.7303736,9.167328,-75.01739094,-25.78311
4.37,437,-0.9279999999999999,0.054000000000000006,-0.392,-9.2819196,10.4851314,15.527161800000002,8.43394176,-74.9429064,-25.11847872
4.38,438,-0.9540000000000001,0.08199999999999999,-0.369,-7.0473834,2.9793816000000004,13.407217200000002,7.8495246,-74.93144724,-24.59135736
4.39,439,-0.9690000000000001,0.095,-0.341,-3.9534102,-3.0939732,10.5424272,7.43699484,-74.97728388,-24.2074755
4.3999999999999995,440,-0.988,0.086,-0.312,-1.145916,-8.307891,6.130650599999999,6.92133264,-75.04030925999999,-23.73192036
4.41,441,-1.013,0.07400000000000001,-0.29100000000000004,-0.6875496,-12.605075999999999,2.291832,6.9041438999999984,-75.16636002,-23.71473162
4.42,442,-1.03,0.07400000000000001,-0.275,-1.9480572,-14.4958374,-0.1718874,6.972898860000001,-75.30386994,-23.8064049
4.43,443,-1.048,0.07,-0.26,-3.2658606,-14.8396122,-2.1772404,7.1046792000000005,-75.44710943999998,-23.9782923
4.4399999999999995,444,-1.0590000000000002,0.054000000000000006,-0.255,-4.8128472,-13.636400400000001,-4.010706000000001,7.29375534,-75.57888978000003,-24.21893466
4.45,445,-1.047,0.037000000000000005,-0.25,-6.1879464,-10.886202,-6.0160589999999985,7.402617360000002,-75.68775179999999,-24.4080108
4.46,446,-1.024,0.032,-0.22,-5.1566220000000005,-7.7922288,-8.078707799999998,7.71201468,-75.75077718,-24.7804335
4.47,447,-1.031,0.022000000000000002,-0.215,-6.130650599999999,-4.8701430000000006,-10.313244000000001,8.0787078,-75.78515466,-25.227340739999995
4.4799999999999995,448,-0.963,0.027000000000000003,-0.214,-7.8495246,-2.2345362,-12.4904844,8.50269672,-75.79088424,-25.743002940000004
4.49,449,-0.877,0.024,-0.207,-5.7868758000000025,0.4583664000000001,-14.0947668,8.98398144,-75.76796592000002,-26.2987722
4.5,450,-0.852,0.0,-0.20600000000000002,-3.4377480000000005,2.7501984,-16.157415599999997,9.49964364,-75.71067012,-26.87745978
4.51,451,-0.8320000000000001,-0.021,-0.207,-2.4064236,2.0053530000000004,-18.048177,10.15281576,-75.66483348,-27.57646854
4.52,452,-0.8059999999999999,-0.016,-0.203,-0.8021411999999999,-1.6042823999999998,-19.0222056,10.88047242,-75.64191516,-28.33850268
4.53,453,-0.8059999999999999,-0.005,-0.204,1.0313244000000001,-4.6409598,-19.079501399999998,11.6596953,-75.65337432,-29.129184719999994
4.54,454,-0.8240000000000001,-0.002,-0.215,2.9793816000000004,-5.443101,-18.5638392,12.45037734,-75.66483348,-29.9084076
4.55,455,-0.853,-0.017,-0.223,5.9014674000000005,-6.0733548,-18.1054728,13.21241148,-75.67629264,-30.64179384
4.56,456,-0.888,-0.042,-0.228,8.5370742,-7.3911582,-18.162768600000003,14.0661189,-75.70494054,-31.43247588
4.57,457,-0.925,-0.062,-0.235,10.026765,-9.3392154,-18.449247600000003,14.97139254,-75.74504759999998,-32.2575354
4.58,458,-0.966,-0.07200000000000001,-0.24,10.084060800000001,-10.5424272,-18.5638392,15.8995845,-75.79088424,-33.10551324
4.59,459,-0.9990000000000001,-0.078,-0.245,9.9121734,-11.401864199999999,-17.9908812,16.8163173,-75.84818004,-33.953491080000006
4.6,460,-1.0290000000000001,-0.085,-0.25,10.3705398,-11.6310474,-16.329303,17.687213460000006,-75.90547584,-34.74417312
4.61,461,-1.063,-0.09,-0.249,11.45916,-11.3445684,-15.011499599999999,18.52946172,-75.96277164,-35.48328894
4.62,462,-1.09,-0.096,-0.24600000000000002,12.318597,-10.4851314,-13.8655836,19.32587334,-76.01433786,-36.17656812
4.63,463,-1.107,-0.111,-0.242,12.1467096,-8.8235532,-12.7196676,20.05925958,-76.04871534,-36.80109234
4.64,464,-1.113,-0.132,-0.242,10.7716104,-6.7609043999999985,-10.1986524,20.6551359,-76.07163366,-37.2995658
4.6499999999999995,465,-1.102,-0.152,-0.24100000000000002,8.880849000000003,-4.0680017999999984,-8.078707799999998,21.199446,-76.07736324,-37.757932200000006
4.66,466,-1.087,-0.17,-0.235,6.2452422,-2.0626488000000003,-5.844171599999999,21.5145729,-76.07736324,-38.02149288
4.67,467,-1.0659999999999998,-0.171,-0.23199999999999998,3.2658606,-0.6875496,-3.9534102,21.70937862000001,-76.06590408,-38.187650700000006
4.68,468,-1.045,-0.16399999999999998,-0.223,0.572958,0.6875496,-2.291832,21.78959274,-76.05444492,-38.26213524
4.6899999999999995,469,-1.016,-0.14800000000000002,-0.217,-1.8334656000000005,2.0626488000000003,-0.6302538000000001,21.76094484,-76.03152659999998,-38.25640566
4.7,470,-0.992,-0.132,-0.214,-3.4377480000000005,2.4064236,1.145916,21.79532232,-76.00860828,-38.30797188
4.71,471,-0.9640000000000001,-0.11199999999999999,-0.212,-4.2398892,1.8334656000000005,2.6356068,21.62343492,-76.00287870000002,-38.17619154000001
4.72,472,-0.943,-0.10099999999999999,-0.21100000000000002,-4.1252976000000015,0.572958,3.7242269999999995,21.43435878,-76.01433786,-38.02722246
4.7299999999999995,473,-0.92,-0.08900000000000001,-0.213,-3.8388186,-1.145916,3.9534102,21.26247138,-76.03725618000001,-37.88971254000001
4.74,474,-0.9109999999999999,-0.076,-0.209,-3.380452200000001,-2.4637194,3.6669312000000014,21.13069104,-76.07736324,-37.7865801
4.75,475,-0.9,-0.07,-0.205,-2.1772404,-3.6669312000000014,3.1512689999999997,20.98172196,-76.11747030000002,-37.66625892
4.76,476,-0.893,-0.069,-0.204,-1.0313244000000001,-4.9274388,2.5210152000000003,20.95307406,-76.1747661,-37.6433406
4.77,477,-0.892,-0.07,-0.20800000000000002,-0.2291832000000001,-5.6722842,2.1772404,20.95307406,-76.23206189999998,-37.64907018
4.78,478,-0.898,-0.071,-0.214,0.0,-5.6149884000000005,1.8907614,20.9702628,-76.28935770000002,-37.66625892
4.79,479,-0.907,-0.075,-0.22399999999999998,0.0,-4.6982555999999995,1.6042823999999998,20.98172196,-76.34092392,-37.67771808
4.8,480,-0.917,-0.08,-0.22899999999999998,-0.11459160000000004,-3.6096353999999997,1.5469866,20.83275288,-76.31800559999998,-37.55166732
4.81,481,-0.9329999999999999,-0.08199999999999999,-0.231,-0.6302538000000001,-2.291832,1.8334656000000005,20.79264582,-76.34665349999999,-37.51728984
4.82,482,-0.95,-0.08,-0.235,-1.145916,-1.3178034,2.2345362,20.712431700000003,-76.36957182,-37.44853488
4.83,483,-0.97,-0.078,-0.23800000000000002,-1.6615782,-0.4583664000000001,2.5783110000000002,20.60356968,-76.38103097999998,-37.35113202
4.84,484,-0.988,-0.076,-0.239,-2.2345362,0.0,2.86479,20.47178934,-76.39249013999998,-37.23654042
4.85,485,-1.004,-0.07200000000000001,-0.235,-2.6929026,0.11459160000000004,3.2658606,20.168121600000006,-76.39249013999998,-36.97297974
4.86,486,-1.021,-0.071,-0.23,-2.6356068,0.1718874,3.6669312000000014,19.9962342,-76.40394930000002,-36.82401066
4.87,487,-1.034,-0.069,-0.226,-1.9480572,0.286479,4.0680017999999984,19.812887640000003,-76.41540846000002,-36.65785284
4.88,488,-1.034,-0.07,-0.223,-1.3178034,0.11459160000000004,4.4690724,19.6238115,-76.42686762000002,-36.47450628
4.89,489,-1.028,-0.069,-0.218,-1.0886202,-0.1718874,4.9847346,19.4232762,-76.44405636,-36.27970056
4.8999999999999995,490,-1.0190000000000001,-0.066,-0.218,-0.7448454000000001,-0.1718874,5.2712136,19.10241972,-76.47843384000002,-35.97030324
4.91,491,-1.012,-0.061,-0.21899999999999997,-0.11459160000000004,-0.057295800000000015,5.3858052,18.89042526,-76.49562258,-35.7525792
4.92,492,-1.006,-0.057,-0.218,0.3437748,0.286479,5.3285094000000015,18.68416038,-76.51281132,-35.53485516
4.93,493,-0.998,-0.052000000000000005,-0.21600000000000005,0.6302538000000001,0.6875496,4.7555514,18.48935466,-76.5185409,-35.32859028
4.9399999999999995,494,-0.988,-0.046,-0.214,1.0886202,1.145916,4.1825934,18.32319684,-76.52427048,-35.14524372
4.95,495,-0.975,-0.043,-0.214,1.2605076000000002,1.6615782,3.3231564,17.9335854,-76.52427048,-34.75563228
4.96,496,-0.9640000000000001,-0.04,-0.218,1.2032118,2.0626488000000003,2.3491277999999998,17.824723380000005,-76.51281132,-34.62958152
4.97,497,-0.9540000000000001,-0.039,-0.221,1.3178034,2.4637194,1.3178034,17.75023884,-76.49562258,-34.54363782
4.9799999999999995,498,-0.951,-0.039,-0.225,1.6042823999999998,2.5210152000000003,0.5156622000000001,17.71013178,-76.47270426,-34.48634202
4.99,499,-0.9490000000000001,-0.04,-0.22699999999999998,1.8907614,2.4064236,-0.057295800000000015,17.69867262,-76.44978594,-34.45196454
5.0,500,-0.9470000000000001,-0.042,-0.228,2.0626488000000003,2.291832,-0.6875496,17.40073446,-76.39821972,-34.16548554000001
5.01,501,-0.945,-0.047,-0.231,2.1199446,2.1199446,-1.0886202,17.44084152,-76.37530140000001,-34.18267428
5.02,502,-0.9440000000000001,-0.052000000000000005,-0.23600000000000002,1.8334656000000005,2.2345362,-1.4896908000000002,17.48667816,-76.35238308000002,-34.21132218
5.03,503,-0.9420000000000001,-0.057,-0.245,1.3178034,2.5783110000000002,-1.7761698000000001,17.538244380000002,-76.32373518,-34.24569966
5.04,504,-0.941,-0.06,-0.251,0.8594370000000001,3.0366774,-1.8334656000000005,17.57835144,-76.28935770000002,-34.28007714
5.05,505,-0.94,-0.065,-0.259,0.3437748,2.9220858,-1.9480572,17.383545719999994,-76.15757735999998,-34.1196489
5.06,506,-0.941,-0.065,-0.263,0.0,2.6356068,-2.0053530000000004,17.42365278,-76.12319987999999,-34.16548554000001
5.07,507,-0.946,-0.067,-0.262,0.0,2.2345362,-2.0626488000000003,17.475219,-76.10028156,-34.217051760000004
5.08,508,-0.9520000000000001,-0.069,-0.259,0.0,1.8334656000000005,-2.1199446,17.538244380000002,-76.07736324,-34.28007714
5.09,509,-0.956,-0.07400000000000001,-0.26,-0.11459160000000004,1.3178034,-2.0053530000000004,17.59554018,-76.05444492,-34.343102519999995
5.1,510,-0.96,-0.076,-0.257,-0.1718874,0.7448454000000001,-1.9480572,17.42365278,-75.89974626,-34.22278134
5.11,511,-0.963,-0.076,-0.254,-0.057295800000000015,0.0,-1.7188740000000002,17.492407739999994,-75.89974626,-34.291536300000004
5.12,512,-0.965,-0.076,-0.252,0.057295800000000015,-0.9167328000000001,-1.4896908000000002,17.561162699999993,-75.89974626,-34.36029126
5.13,513,-0.9670000000000001,-0.076,-0.25,0.2291832000000001,-2.2345362,-1.2605076000000002,17.64137682,-75.916935,-34.44623496
5.14,514,-0.9690000000000001,-0.07400000000000001,-0.248,0.4583664000000001,-3.0939732,-1.2032118,17.733050100000003,-75.9455829,-34.53217866
5.1499999999999995,515,-0.972,-0.07400000000000001,-0.244,0.6302538000000001,-3.5523396000000003,-1.0313244000000001,17.75023884,-75.93985332,-34.555096979999995
5.16,516,-0.975,-0.07400000000000001,-0.23800000000000002,0.572958,-3.6096353999999997,-1.2032118,17.847641699999997,-75.96850122000002,-34.652499840000004
5.17,517,-0.972,-0.076,-0.23399999999999999,0.2291832000000001,-2.9793816000000004,-1.145916,17.9335854,-75.99141954000002,-34.73844354
5.18,518,-0.9690000000000001,-0.077,-0.23,-0.1718874,-2.4064236,-0.8594370000000001,17.99661078,-76.01433786,-34.8071985
5.1899999999999995,519,-0.966,-0.07400000000000001,-0.226,-0.3437748,-1.9480572,-0.6875496,18.048177,-76.03152659999998,-34.864494300000004
5.2,520,-0.9640000000000001,-0.07200000000000001,-0.226,-0.40107059999999994,-1.6615782,-0.4583664000000001,17.9335854,-76.01433786,-34.767091439999994
5.21,521,-0.965,-0.069,-0.228,-0.286479,-1.8907614,-0.2291832000000001,17.96796288,-76.03152659999998,-34.8071985
5.22,522,-0.966,-0.069,-0.225,-0.057295800000000015,-1.6615782,-0.2291832000000001,17.99661078,-76.04871534,-34.84157598
5.2299999999999995,523,-0.9640000000000001,-0.071,-0.22399999999999998,0.057295800000000015,-1.2605076000000002,-0.1718874,18.02525868,-76.0601745,-34.864494300000004
5.24,524,-0.963,-0.07200000000000001,-0.22699999999999998,0.0,-0.8594370000000001,-0.11459160000000004,18.04244742,-76.06590408,-34.88168304
5.25,525,-0.963,-0.071,-0.23,0.057295800000000015,-0.8594370000000001,0.11459160000000004,17.72732052,-76.01433786,-34.61239278000001
5.26,526,-0.9640000000000001,-0.07,-0.23,0.4583664000000001,-1.145916,0.3437748,17.733050100000003,-76.02579702,-34.61239278000001
5.27,527,-0.9670000000000001,-0.065,-0.22899999999999998,0.9167328000000001,-1.432395,0.572958,17.74450926,-76.04298576,-34.60666320000001
5.28,528,-0.972,-0.064,-0.22699999999999998,1.3178034,-1.5469866,0.572958,17.755968420000006,-76.0601745,-34.60666320000001
5.29,529,-0.9740000000000001,-0.065,-0.22399999999999998,1.6042823999999998,-1.432395,0.40107059999999994,17.77315716,-76.07163366,-34.60666320000001
5.3,530,-0.973,-0.068,-0.225,1.6042823999999998,-0.9740286,0.3437748,17.606999339999994,-76.07163366,-34.440505380000005
5.31,531,-0.973,-0.069,-0.228,1.3178034,-0.40107059999999994,0.286479,17.61272892,-76.07163366,-34.4347758
5.32,532,-0.973,-0.068,-0.22899999999999998,1.0313244000000001,0.286479,0.3437748,17.606999339999994,-76.07163366,-34.41758706
5.33,533,-0.971,-0.068,-0.23399999999999999,0.9167328000000001,0.9740286,0.286479,17.589810600000003,-76.06590408,-34.38893916
5.34,534,-0.972,-0.068,-0.233,0.9740286,1.0886202,0.286479,17.57262186,-76.05444492,-34.36029126
5.35,535,-0.976,-0.066,-0.233,1.145916,0.6302538000000001,0.3437748,17.32052034,-76.02006744,-34.1196489
5.36,536,-0.98,-0.062,-0.231,1.4896908000000002,0.0,0.286479,17.326249920000002,-76.02006744,-34.10818974
5.37,537,-0.9790000000000001,-0.063,-0.228,1.432395,0.0,0.0,17.33770908,-76.02006744,-34.10818974
5.38,538,-0.9740000000000001,-0.066,-0.228,1.0886202,0.0,-0.2291832000000001,17.3606274,-76.02006744,-34.1196489
5.39,539,-0.9690000000000001,-0.071,-0.226,0.6302538000000001,0.057295800000000015,-0.3437748,17.383545719999994,-76.02006744,-34.131108059999995
5.3999999999999995,540,-0.966,-0.07200000000000001,-0.22399999999999998,0.40107059999999994,0.40107059999999994,-0.3437748,17.29187244,-75.97996038,-34.050893939999995
5.41,541,-0.966,-0.07400000000000001,-0.22899999999999998,0.3437748,0.9740286,-0.057295800000000015,17.286142859999998,-75.96850122000002,-34.04516436
5.42,542,-0.963,-0.075,-0.23600000000000002,0.3437748,1.3178034,0.11459160000000004,17.268954119999997,-75.95704206,-34.02224604
5.43,543,-0.96,-0.07400000000000001,-0.239,0.057295800000000015,0.9740286,0.2291832000000001,17.246035799999998,-75.95131248,-33.999327720000004
5.4399999999999995,544,-0.955,-0.071,-0.24,-0.2291832000000001,0.572958,0.40107059999999994,17.2173879,-75.9455829,-33.97067982
5.45,545,-0.9540000000000001,-0.068,-0.242,-0.1718874,0.572958,0.4583664000000001,16.83350604,-75.82526172,-33.63836418
5.46,546,-0.9570000000000001,-0.066,-0.24100000000000002,0.0,0.6302538000000001,0.3437748,16.81058772,-75.81953214,-33.61544586
5.47,547,-0.9570000000000001,-0.068,-0.242,0.1718874,0.8021411999999999,0.1718874,16.79912856,-75.80807297999998,-33.59825712
5.4799999999999995,548,-0.9570000000000001,-0.069,-0.243,0.1718874,0.7448454000000001,0.1718874,16.781939819999998,-75.80234340000001,-33.58106838
5.49,549,-0.958,-0.068,-0.243,0.286479,0.2291832000000001,0.1718874,16.77048066,-75.80234340000001,-33.569609220000004
5.5,550,-0.9620000000000001,-0.068,-0.242,0.4583664000000001,-0.2291832000000001,0.1718874,16.392328380000002,-75.68202222,-33.23729358
5.51,551,-0.9640000000000001,-0.069,-0.243,0.4583664000000001,-0.1718874,0.11459160000000004,16.392328380000002,-75.68202222,-33.231564
5.52,552,-0.966,-0.068,-0.24,0.5156622000000001,-0.4583664000000001,0.11459160000000004,16.39805796,-75.68775179999999,-33.231564
5.53,553,-0.9640000000000001,-0.069,-0.239,0.6302538000000001,-0.6875496,0.11459160000000004,16.409517119999997,-75.69348138000002,-33.23729358
5.54,554,-0.966,-0.068,-0.237,0.6302538000000001,-1.0313244000000001,0.057295800000000015,16.420976279999998,-75.70494054,-33.24302315999999
5.55,555,-0.9670000000000001,-0.069,-0.235,0.5156622000000001,-1.145916,0.0,16.329303000000003,-75.69921095999999,-33.15707946
5.56,556,-0.9670000000000001,-0.068,-0.23399999999999999,0.40107059999999994,-0.9167328000000001,-0.057295800000000015,16.34649174,-75.71067012,-33.1742682
5.57,557,-0.968,-0.07,-0.23600000000000002,0.1718874,-0.572958,-0.1718874,16.36368048,-75.7163997,-33.18572736
5.58,558,-0.968,-0.071,-0.23800000000000002,-0.057295800000000015,-0.286479,-0.1718874,16.37513964,-75.7163997,-33.197186519999995
5.59,559,-0.965,-0.07,-0.23600000000000002,-0.2291832000000001,-0.2291832000000001,-0.1718874,16.38086922,-75.7163997,-33.208645680000004
5.6,560,-0.963,-0.068,-0.23600000000000002,-0.286479,-0.3437748,-0.1718874,16.18033392,-75.65337432,-33.04248786
5.61,561,-0.9620000000000001,-0.066,-0.23800000000000002,-0.11459160000000004,-0.5156622000000001,-0.11459160000000004,16.19179308,-75.6591039,-33.053947019999995
5.62,562,-0.9620000000000001,-0.065,-0.23800000000000002,0.0,-0.8594370000000001,-0.1718874,16.208981819999998,-75.66483348,-33.07113576
5.63,563,-0.963,-0.067,-0.237,0.11459160000000004,-0.9740286,-0.3437748,16.23762972,-75.67629264,-33.09978366
5.64,564,-0.966,-0.069,-0.235,0.1718874,-1.0313244000000001,-0.3437748,16.26627762,-75.68202222,-33.12270198
5.6499999999999995,565,-0.966,-0.071,-0.233,0.057295800000000015,-0.9740286,-0.3437748,16.208981819999998,-75.67056306,-33.07686534
5.66,566,-0.966,-0.07,-0.233,0.11459160000000004,-0.6302538000000001,-0.3437748,16.23190014,-75.67629264,-33.09978366
5.67,567,-0.965,-0.071,-0.23199999999999998,0.11459160000000004,-0.4583664000000001,-0.2291832000000001,16.24908888,-75.68202222,-33.1169724
5.68,568,-0.9620000000000001,-0.071,-0.23399999999999999,-0.11459160000000004,-0.4583664000000001,-0.11459160000000004,16.254818460000006,-75.68775179999999,-33.12843156
5.6899999999999995,569,-0.961,-0.07,-0.23399999999999999,-0.2291832000000001,-0.40107059999999994,0.0,16.26054804,-75.68775179999999,-33.13416114
5.7,570,-0.963,-0.07200000000000001,-0.23199999999999998,-0.11459160000000004,-0.3437748,0.057295800000000015,16.208981819999998,-75.6591039,-33.09405408
5.71,571,-0.966,-0.073,-0.231,-0.057295800000000015,-0.286479,0.11459160000000004,16.208981819999998,-75.66483348,-33.09405408
5.72,572,-0.9670000000000001,-0.071,-0.23399999999999999,-0.057295800000000015,-0.286479,0.2291832000000001,16.197522659999994,-75.66483348,-33.08832450000001
5.7299999999999995,573,-0.9670000000000001,-0.07200000000000001,-0.23399999999999999,0.0,-0.286479,0.286479,16.19179308,-75.67056306,-33.07686534
5.74,574,-0.965,-0.071,-0.235,0.0,-0.5156622000000001,0.2291832000000001,16.1860635,-75.67629264,-33.07686534
5.75,575,-0.966,-0.071,-0.23600000000000002,0.0,-0.7448454000000001,0.286479,16.042824,-75.64191516,-32.95081458
5.76,576,-0.966,-0.07,-0.237,0.0,-0.5156622000000001,0.286479,16.042824,-75.64764474,-32.945085
5.77,577,-0.9670000000000001,-0.073,-0.23800000000000002,0.0,-0.1718874,0.2291832000000001,16.031364840000002,-75.64764474,-32.93935542
5.78,578,-0.9670000000000001,-0.071,-0.237,-0.057295800000000015,0.0,0.286479,16.01990568,-75.64764474,-32.92789626
5.79,579,-0.968,-0.07200000000000001,-0.23600000000000002,-0.11459160000000004,-0.11459160000000004,0.3437748,16.00844652,-75.65337432,-32.91070752
5.8,580,-0.968,-0.07,-0.235,0.0,-0.286479,0.40107059999999994,15.956880300000002,-75.63618558,-32.87060046000001
5.81,581,-0.9690000000000001,-0.069,-0.235,0.0,-0.40107059999999994,0.40107059999999994,15.94542114,-75.64191516,-32.859141300000005
5.82,582,-0.9690000000000001,-0.069,-0.235,0.057295800000000015,-0.2291832000000001,0.40107059999999994,15.93396198,-75.64191516,-32.84768214
5.83,583,-0.9670000000000001,-0.069,-0.23800000000000002,0.0,-0.057295800000000015,0.40107059999999994,15.92250282,-75.64764474,-32.8304934
5.84,584,-0.965,-0.07,-0.23600000000000002,0.0,-0.11459160000000004,0.40107059999999994,15.90531408,-75.64764474,-32.81330466
5.85,585,-0.963,-0.069,-0.23600000000000002,0.0,-0.286479,0.4583664000000001,15.74488584,-75.60753768,-32.67006516
5.86,586,-0.9640000000000001,-0.067,-0.23600000000000002,0.0,-0.40107059999999994,0.4583664000000001,15.727697099999999,-75.61326726,-32.658606000000006
5.87,587,-0.9670000000000001,-0.066,-0.237,0.057295800000000015,-0.2291832000000001,0.4583664000000001,15.71623794,-75.61899684,-32.641417260000004
5.88,588,-0.966,-0.07,-0.23800000000000002,-0.11459160000000004,0.057295800000000015,0.286479,15.6990492,-75.61899684,-32.6299581
5.89,589,-0.9640000000000001,-0.069,-0.237,-0.2291832000000001,0.286479,0.2291832000000001,15.68759004,-75.61899684,-32.618498939999995
5.8999999999999995,590,-0.9640000000000001,-0.066,-0.23800000000000002,-0.057295800000000015,0.0,0.2291832000000001,15.36100398,-75.56170104,-32.32629036
5.91,591,-0.965,-0.063,-0.237,0.1718874,-0.6302538000000001,0.057295800000000015,15.36673356,-75.56743062000002,-32.332019939999995
5.92,592,-0.9640000000000001,-0.065,-0.237,0.2291832000000001,-0.8021411999999999,-0.11459160000000004,15.3839223,-75.57888978000003,-32.3434791
5.93,593,-0.9640000000000001,-0.069,-0.237,0.0,-0.6302538000000001,-0.286479,15.40111104,-75.57888978000003,-32.36639742
5.9399999999999995,594,-0.9640000000000001,-0.073,-0.23399999999999999,-0.11459160000000004,-0.5156622000000001,-0.3437748,15.418299779999998,-75.58461936,-32.38358616
5.95,595,-0.9640000000000001,-0.075,-0.23399999999999999,-0.40107059999999994,-0.057295800000000015,-0.2291832000000001,15.527161799999998,-75.54451230000002,-32.49817776
5.96,596,-0.966,-0.073,-0.237,-0.286479,0.2291832000000001,0.0,15.527161799999998,-75.53878272,-32.49817776
5.97,597,-0.965,-0.07400000000000001,-0.23800000000000002,-0.1718874,0.2291832000000001,0.057295800000000015,15.51570264,-75.53878272,-32.486718599999996
5.9799999999999995,598,-0.9620000000000001,-0.075,-0.235,-0.5156622000000001,0.0,0.11459160000000004,15.50424348,-75.53878272,-32.48098902
5.99,599,-0.956,-0.07200000000000001,-0.23800000000000002,-0.572958,-0.11459160000000004,0.2291832000000001,15.492784320000002,-75.53878272,-32.47525944
6.0,600,-0.956,-0.067,-0.24,-0.286479,-0.3437748,0.2291832000000001,15.30943776,-75.49867565999998,-32.32056078
6.01,601,-0.9620000000000001,-0.063,-0.24,0.057295800000000015,-0.7448454000000001,0.1718874,15.31516734,-75.51013481999998,-32.32056078
6.02,602,-0.9690000000000001,-0.062,-0.239,0.3437748,-0.6875496,0.0,15.326626499999998,-75.51586440000001,-32.332019939999995
6.03,603,-0.972,-0.065,-0.23600000000000002,0.6302538000000001,-0.7448454000000001,-0.2291832000000001,15.355274400000004,-75.52159398,-32.34920868
6.04,604,-0.9740000000000001,-0.069,-0.23199999999999998,0.4583664000000001,-0.8594370000000001,-0.286479,15.37819272,-75.52732356,-32.372127
6.05,605,-0.971,-0.07200000000000001,-0.231,0.1718874,-0.572958,-0.2291832000000001,15.469866,-75.53878272,-32.45234112
6.06,606,-0.968,-0.07200000000000001,-0.23199999999999998,0.0,-0.2291832000000001,-0.057295800000000015,15.47559558,-75.53878272,-32.4580707
6.07,607,-0.968,-0.07,-0.23399999999999999,0.057295800000000015,0.11459160000000004,0.0,15.469866,-75.53878272,-32.4580707
6.08,608,-0.9670000000000001,-0.069,-0.233,0.11459160000000004,0.4583664000000001,0.057295800000000015,15.46413642,-75.53305314,-32.446611540000006
6.09,609,-0.9670000000000001,-0.068,-0.233,0.11459160000000004,0.6302538000000001,0.11459160000000004,15.452677260000002,-75.52732356,-32.43515238
6.1,610,-0.968,-0.067,-0.233,0.057295800000000015,0.4583664000000001,0.057295800000000015,15.36673356,-75.52159398,-32.34920868
6.11,611,-0.9690000000000001,-0.067,-0.23399999999999999,0.0,0.286479,0.0,15.36100398,-75.52159398,-32.34920868
6.12,612,-0.97,-0.069,-0.23399999999999999,0.11459160000000004,0.11459160000000004,0.0,15.36100398,-75.52159398,-32.34920868
6.13,613,-0.97,-0.07,-0.235,0.1718874,0.11459160000000004,0.0,15.36100398,-75.51586440000001,-32.3434791
6.14,614,-0.966,-0.071,-0.237,0.286479,0.286479,0.11459160000000004,15.355274400000004,-75.51586440000001,-32.33774952
6.15,615,-0.9620000000000001,-0.071,-0.23800000000000002,0.2291832000000001,0.3437748,0.1718874,15.326626499999998,-75.48148692,-32.30910162
6.16,616,-0.961,-0.07,-0.239,0.2291832000000001,-0.057295800000000015,0.4583664000000001,15.30943776,-75.4872165,-32.29191288
6.17,617,-0.961,-0.069,-0.24100000000000002,0.40107059999999994,-0.3437748,0.572958,15.2979786,-75.49294608,-32.274724140000004
6.18,618,-0.961,-0.069,-0.243,0.4583664000000001,-0.9167328000000001,0.572958,15.29224902,-75.50440524000003,-32.26326498
6.1899999999999995,619,-0.961,-0.069,-0.242,0.6302538000000001,-1.4896908000000002,0.6302538000000001,15.29224902,-75.51586440000001,-32.25180582
6.2,620,-0.963,-0.069,-0.239,0.9167328000000001,-2.0053530000000004,0.572958,15.29224902,-75.53305314,-32.24607624
6.21,621,-0.9640000000000001,-0.07,-0.24100000000000002,1.0886202,-2.4637194,0.6302538000000001,15.30943776,-75.55597146,-32.25180582
6.22,622,-0.961,-0.071,-0.242,0.9740286,-3.0366774,0.6302538000000001,15.326626499999998,-75.58461936,-32.2575354
6.2299999999999995,623,-0.9570000000000001,-0.071,-0.24100000000000002,0.7448454000000001,-3.7242269999999995,0.9167328000000001,15.34381524,-75.62472642,-32.26899456
6.24,624,-0.961,-0.068,-0.239,0.7448454000000001,-4.3544808,1.2605076000000002,15.355274400000004,-75.67056306,-32.26899456
6.25,625,-0.966,-0.067,-0.235,0.9740286,-4.5263682,1.2605076000000002,15.36100398,-75.71067012,-32.26326498
6.26,626,-0.9690000000000001,-0.068,-0.233,1.145916,-4.5263682,1.2605076000000002,15.37819272,-75.75650676000002,-32.26899456
6.27,627,-0.9670000000000001,-0.07,-0.233,0.8594370000000001,-4.297185,1.0886202,15.39538146,-75.80234340000001,-32.274724140000004
6.28,628,-0.96,-0.07,-0.23600000000000002,0.286479,-4.1252976000000015,0.8594370000000001,15.4125702,-75.84245046,-32.29191288
6.29,629,-0.9570000000000001,-0.068,-0.23600000000000002,0.0,-3.8961144,0.6875496,15.42975894,-75.88255752,-32.30910162
6.3,630,-0.958,-0.067,-0.235,-0.057295800000000015,-3.5523396000000003,0.572958,15.42975894,-75.90547584,-32.3148312
6.31,631,-0.9620000000000001,-0.064,-0.233,-0.11459160000000004,-2.9220858,0.4583664000000001,15.44694768,-75.93412373999998,-32.332019939999995
6.32,632,-0.968,-0.062,-0.228,-0.11459160000000004,-2.0053530000000004,0.2291832000000001,15.45840684,-75.95704206,-32.3434791
6.33,633,-0.975,-0.064,-0.223,-0.40107059999999994,-1.0313244000000001,0.0,15.469866,-75.96850122000002,-32.36066784
6.34,634,-0.976,-0.064,-0.21899999999999997,-0.7448454000000001,-0.11459160000000004,-0.2291832000000001,15.469866,-75.96850122000002,-32.372127
6.35,635,-0.978,-0.062,-0.214,-1.0313244000000001,0.1718874,-0.3437748,15.42402936,-76.00860828,-32.33774952
6.36,636,-0.977,-0.061,-0.215,-1.0886202,0.40107059999999994,-0.5156622000000001,15.435488519999998,-76.00287870000002,-32.35493826
6.37,637,-0.9740000000000001,-0.061,-0.21600000000000005,-0.9740286,0.40107059999999994,-0.6302538000000001,15.441218099999999,-75.99714911999997,-32.372127
6.38,638,-0.9740000000000001,-0.061,-0.22,-0.6302538000000001,0.286479,-0.6875496,15.45840684,-75.99141954000002,-32.395045319999994
6.39,639,-0.975,-0.062,-0.221,-0.40107059999999994,0.0,-0.8021411999999999,15.48705474,-75.98568996,-32.429422800000005
6.4,640,-0.975,-0.064,-0.218,-0.057295800000000015,0.0,-0.8021411999999999,15.48132516,-76.01433786,-32.423693220000004
6.41,641,-0.9740000000000001,-0.065,-0.21899999999999997,0.0,-0.1718874,-0.8594370000000001,15.51570264,-76.01433786,-32.4580707
6.42,642,-0.973,-0.066,-0.22,0.0,-0.1718874,-0.8594370000000001,15.55008012,-76.01433786,-32.49817776
6.43,643,-0.973,-0.068,-0.223,-0.057295800000000015,0.1718874,-0.8021411999999999,15.57872802,-76.00860828,-32.52682566
6.4399999999999995,644,-0.973,-0.069,-0.226,-0.2291832000000001,0.6875496,-0.6875496,15.59591676,-76.00287870000002,-32.544014399999995
6.45,645,-0.972,-0.071,-0.22699999999999998,-0.2291832000000001,0.9740286,-0.572958,15.63029424,-75.98568996,-32.58412146
6.46,646,-0.971,-0.07,-0.226,-0.286479,1.0886202,-0.5156622000000001,15.63602382,-75.9742308,-32.58985104
6.47,647,-0.97,-0.069,-0.225,-0.1718874,0.9167328000000001,-0.40107059999999994,15.6417534,-75.96277164,-32.59558062
6.4799999999999995,648,-0.97,-0.069,-0.23,-0.2291832000000001,1.145916,-0.40107059999999994,15.63602382,-75.95131248,-32.6013102
6.49,649,-0.9690000000000001,-0.071,-0.23,-0.40107059999999994,0.8594370000000001,-0.3437748,15.6417534,-75.93985332,-32.6013102
6.5,650,-0.97,-0.073,-0.22699999999999998,-0.4583664000000001,0.7448454000000001,-0.3437748,15.65894214,-75.93412373999998,-32.6299581
6.51,651,-0.97,-0.07400000000000001,-0.226,-0.5156622000000001,0.9167328000000001,-0.11459160000000004,15.647482979999998,-75.92266457999997,-32.62422852
6.52,652,-0.968,-0.076,-0.22899999999999998,-0.3437748,1.145916,0.0,15.63029424,-75.91120542,-32.607039779999994
6.53,653,-0.966,-0.075,-0.231,-0.1718874,1.0313244000000001,0.2291832000000001,15.60164634,-75.90547584,-32.58412146
6.54,654,-0.9590000000000001,-0.07400000000000001,-0.23,-0.4583664000000001,0.4583664000000001,0.4583664000000001,15.57299844,-75.89974626,-32.55547356
6.55,655,-0.955,-0.071,-0.23,-0.6875496,0.057295800000000015,0.6302538000000001,15.555809699999998,-75.88255752,-32.544014399999995
6.56,656,-0.9570000000000001,-0.068,-0.23199999999999998,-0.8594370000000001,0.2291832000000001,0.6875496,15.51570264,-75.88255752,-32.5153665
6.57,657,-0.961,-0.065,-0.23600000000000002,-0.8594370000000001,0.5156622000000001,0.8021411999999999,15.46413642,-75.87682794,-32.47525944
