TimeStamp(s),FrameCounter,AccX,AccY,AccZ,GyrX,GyrY,GyrZ,EulerX,EulerY,EulerZ
0.01,1,0.146,-0.96,0.297,0.1718874,-0.572958,-0.6302538000000001,105.92847504,9.36213372,-47.63572812
0.02,2,0.139,-0.961,0.302,0.572958,-1.7188740000000002,-1.5469866,105.92847504,9.38505204,-47.64718728
0.03,3,0.141,-0.961,0.303,0.5156622000000001,-1.6615782,-1.5469866,105.93420462000002,9.40224078,-47.65864644
0.04,4,0.14,-0.96,0.302,0.40107059999999994,-1.5469866,-1.432395,105.9399342,9.4251591,-47.67010560000001
0.05,5,0.141,-0.961,0.302,0.40107059999999994,-1.3750992,-1.3750992,105.95139336,9.4251591,-47.67583517999999
0.060000000000000005,6,0.14400000000000002,-0.9590000000000001,0.302,0.5156622000000001,-1.2605076000000002,-1.3178034,105.95139336,9.44234784,-47.68156476
0.06999999999999999,7,0.146,-0.9570000000000001,0.304,0.5156622000000001,-1.3750992,-1.145916,105.95712294,9.45953658,-47.69302392
0.08,8,0.147,-0.955,0.304,0.4583664000000001,-1.3750992,-1.0313244000000001,105.96285252,9.47099574,-47.70448308
0.09,9,0.146,-0.9520000000000001,0.302,0.4583664000000001,-1.2605076000000002,-0.9740286,105.96285252,9.4824549,-47.71021266
0.09999999999999999,10,0.145,-0.951,0.3,0.40107059999999994,-1.2032118,-0.9167328000000001,105.98004126,9.4824549,-47.71594224
0.11,11,0.147,-0.95,0.301,0.6875496,-1.0313244000000001,-0.9167328000000001,105.98577084,9.49391406,-47.72167182000001
0.12,12,0.149,-0.95,0.302,0.8021411999999999,-0.9740286,-0.9740286,105.99150042,9.50537322,-47.72740140000001
0.13,13,0.152,-0.9490000000000001,0.302,0.9740286,-1.145916,-0.9167328000000001,106.00295958,9.51683238,-47.73313098
0.14,14,0.154,-0.9490000000000001,0.302,0.9740286,-1.2605076000000002,-0.8594370000000001,106.00868916,9.52829154,-47.74459014
0.15000000000000002,15,0.157,-0.95,0.302,1.0313244000000001,-1.3178034,-0.9167328000000001,106.02587790000001,9.539750699999999,-47.75031972
0.16,16,0.157,-0.951,0.302,1.0313244000000001,-1.2605076000000002,-0.8594370000000001,106.03733706,9.55120986,-47.76177888
0.17,17,0.159,-0.951,0.302,1.0313244000000001,-1.6615782,-0.8021411999999999,106.04879622,9.568398599999998,-47.77323804
0.18000000000000002,18,0.162,-0.9520000000000001,0.3,0.9740286,-1.9480572,-0.6302538000000001,106.0545258,9.57985776,-47.79042678
0.19,19,0.162,-0.9520000000000001,0.299,1.145916,-2.1199446,-0.4583664000000001,106.06025538,9.59131692,-47.81334510000001
0.2,20,0.161,-0.953,0.299,1.2032118,-2.291832,-0.40107059999999994,106.07744412,9.5970465,-47.83053384
0.21000000000000002,21,0.159,-0.9520000000000001,0.301,1.145916,-2.4637194,-0.3437748,106.0831737,9.60850566,-47.85345216
0.22,22,0.158,-0.9520000000000001,0.301,1.2032118,-2.5210152000000003,-0.3437748,106.09463286,9.61996482,-47.87637048
0.23,23,0.157,-0.951,0.304,1.2032118,-2.4637194,-0.3437748,106.10036244,9.63142398,-47.8992888
0.24000000000000002,24,0.157,-0.951,0.305,1.0313244000000001,-2.4064236,-0.5156622000000001,106.1118216,9.64288314,-47.91647754
0.25,25,0.157,-0.951,0.304,1.0313244000000001,-2.4064236,-0.5156622000000001,106.12328076,9.654342300000001,-47.93939586000001
0.26,26,0.158,-0.951,0.305,0.9167328000000001,-2.1199446,-0.5156622000000001,106.13473992000002,9.66580146,-47.9565846
0.27,27,0.159,-0.951,0.303,0.9167328000000001,-2.0626488000000003,-0.4583664000000001,106.14046950000001,9.67726062,-47.97377334
0.28,28,0.156,-0.9520000000000001,0.304,1.0313244000000001,-2.1199446,-0.5156622000000001,106.14619908,9.68871978,-47.99096208
0.29000000000000004,29,0.155,-0.953,0.305,0.9740286,-2.1772404,-0.40107059999999994,106.15192866,9.70017894,-48.01388040000001
0.3,30,0.159,-0.953,0.304,0.8594370000000001,-1.8907614,-0.286479,106.1691174,9.70017894,-48.02533956
0.31,31,0.159,-0.951,0.303,0.8021411999999999,-1.8334656000000005,-0.1718874,106.17484697999998,9.7116381,-48.0425283
0.32,32,0.158,-0.951,0.302,0.9740286,-2.0053530000000004,-0.057295800000000015,106.18057656,9.71736768,-48.05971704
0.33,33,0.155,-0.95,0.304,0.9740286,-2.291832,-0.11459160000000004,106.18630614,9.72882684,-48.08263536
0.34,34,0.151,-0.95,0.303,1.0886202,-2.3491277999999998,-0.1718874,106.1977653,9.73455642,-48.10555368
0.35000000000000003,35,0.151,-0.9520000000000001,0.304,1.2605076000000002,-2.1772404,-0.286479,106.21495404,9.73455642,-48.12274242
0.36000000000000004,36,0.153,-0.955,0.305,1.145916,-1.8334656000000005,-0.3437748,106.22068362,9.746015580000002,-48.13993116
0.37,37,0.155,-0.956,0.307,1.0313244000000001,-1.4896908000000002,-0.40107059999999994,106.23214278,9.75174516,-48.15139032
0.38,38,0.157,-0.9570000000000001,0.308,0.7448454000000001,-1.3178034,-0.40107059999999994,106.23787236,9.76320432,-48.16284948000001
0.39,39,0.157,-0.956,0.305,0.572958,-1.3178034,-0.4583664000000001,106.24360194,9.7689339,-48.17430864
0.4,40,0.153,-0.956,0.303,0.40107059999999994,-1.4896908000000002,-0.40107059999999994,106.2550611,9.76320432,-48.18003822000001
0.41000000000000003,41,0.15,-0.955,0.304,0.3437748,-1.432395,-0.40107059999999994,106.2550611,9.7689339,-48.19722696000001
0.42000000000000004,42,0.147,-0.951,0.302,0.2291832000000001,-1.2032118,-0.40107059999999994,106.2550611,9.78039306,-48.20295654
0.43,43,0.14300000000000002,-0.9490000000000001,0.303,0.11459160000000004,-1.2605076000000002,-0.572958,106.2550611,9.78612264,-48.2144157
0.44,44,0.139,-0.9490000000000001,0.305,-0.057295800000000015,-1.4896908000000002,-0.6875496,106.2550611,9.797581800000001,-48.22587486
0.45,45,0.147,-0.95,0.307,-0.11459160000000004,-1.2032118,-0.8021411999999999,106.26652026,9.79185222,-48.22587486
0.46,46,0.155,-0.953,0.307,0.11459160000000004,-0.8021411999999999,-0.9740286,106.26652026,9.80331138,-48.23160444
0.47000000000000003,47,0.154,-0.9540000000000001,0.308,0.0,-0.5156622000000001,-0.9740286,106.26652026,9.81477054,-48.23733402000001
0.48000000000000004,48,0.155,-0.953,0.309,-0.11459160000000004,-0.4583664000000001,-0.9167328000000001,106.26652026,9.826229699999999,-48.23733402000001
0.49,49,0.153,-0.951,0.307,-0.11459160000000004,-0.057295800000000015,-0.8594370000000001,106.26652026,9.83195928,-48.23733402000001
0.5,50,0.152,-0.9490000000000001,0.307,-0.11459160000000004,0.2291832000000001,-0.8594370000000001,106.30089774,9.80331138,-48.2144157
0.51,51,0.15,-0.95,0.307,-0.057295800000000015,0.1718874,-0.7448454000000001,106.30089774,9.80904096,-48.20868612
0.52,52,0.15,-0.9490000000000001,0.309,-0.2291832000000001,0.286479,-0.6875496,106.29516816,9.81477054,-48.20295654
0.53,53,0.156,-0.95,0.311,-0.057295800000000015,0.5156622000000001,-0.6875496,106.29516816,9.82050012,-48.19722696000001
0.54,54,0.162,-0.951,0.309,-0.057295800000000015,0.7448454000000001,-0.6875496,106.29516816,9.826229699999999,-48.185767799999994
0.55,55,0.161,-0.9540000000000001,0.307,-0.057295800000000015,0.40107059999999994,-0.572958,106.32381605999998,9.80904096,-48.16857906
0.56,56,0.155,-0.953,0.307,-0.1718874,0.057295800000000015,-0.5156622000000001,106.31808648,9.81477054,-48.16857906
0.5700000000000001,57,0.152,-0.951,0.305,0.0,-0.057295800000000015,-0.3437748,106.31808648,9.82050012,-48.16857906
0.5800000000000001,58,0.153,-0.9520000000000001,0.306,0.1718874,0.057295800000000015,-0.286479,106.32381605999998,9.82050012,-48.16284948000001
0.59,59,0.153,-0.9520000000000001,0.307,0.057295800000000015,0.1718874,-0.286479,106.32381605999998,9.82050012,-48.16284948000001
0.6,60,0.153,-0.953,0.308,0.1718874,0.1718874,-0.286479,106.36392312,9.78612264,-48.13993116
0.61,61,0.155,-0.953,0.309,0.11459160000000004,0.3437748,-0.2291832000000001,106.36392312,9.78612264,-48.13993116
0.62,62,0.152,-0.9540000000000001,0.308,0.0,0.286479,-0.11459160000000004,106.36392312,9.78612264,-48.13420158
0.63,63,0.152,-0.955,0.307,-0.1718874,0.286479,-0.057295800000000015,106.36392312,9.78612264,-48.128471999999995
0.64,64,0.154,-0.956,0.305,-0.1718874,0.4583664000000001,-0.057295800000000015,106.36392312,9.78612264,-48.128471999999995
0.65,65,0.156,-0.955,0.305,-0.2291832000000001,0.40107059999999994,0.0,106.3983006,9.71736768,-48.09982409999999
0.66,66,0.157,-0.9540000000000001,0.305,-0.286479,0.286479,0.0,106.3983006,9.71736768,-48.09409452
0.67,67,0.158,-0.953,0.306,-0.286479,0.3437748,0.11459160000000004,106.3983006,9.7116381,-48.09409452
0.68,68,0.158,-0.9520000000000001,0.305,-0.2291832000000001,0.1718874,0.1718874,106.39257102,9.7116381,-48.09409452
0.6900000000000001,69,0.157,-0.951,0.305,-0.286479,0.11459160000000004,0.1718874,106.39257102,9.70590852,-48.08836494000001
0.7000000000000001,70,0.156,-0.9520000000000001,0.306,-0.2291832000000001,0.1718874,0.11459160000000004,106.41548934,9.67153104,-48.07690578
0.7100000000000001,71,0.157,-0.95,0.306,-0.286479,0.1718874,0.1718874,106.41548934,9.66580146,-48.0711762
0.72,72,0.157,-0.95,0.305,-0.11459160000000004,0.1718874,0.1718874,106.41548934,9.66580146,-48.0711762
0.73,73,0.157,-0.95,0.305,0.0,0.2291832000000001,0.057295800000000015,106.41548934,9.66007188,-48.0711762
0.74,74,0.158,-0.95,0.304,0.1718874,0.2291832000000001,0.11459160000000004,106.41548934,9.66007188,-48.06544662
0.75,75,0.157,-0.95,0.304,0.286479,0.11459160000000004,0.057295800000000015,106.43840766,9.63715356,-48.05971704
0.76,76,0.157,-0.9490000000000001,0.305,0.3437748,0.0,0.057295800000000015,106.44413724,9.63715356,-48.05971704
0.77,77,0.158,-0.948,0.305,0.40107059999999994,0.0,0.0,106.44413724,9.63715356,-48.05971704
0.78,78,0.157,-0.9470000000000001,0.303,0.40107059999999994,-0.057295800000000015,-0.11459160000000004,106.44986682,9.63715356,-48.05971704
0.79,79,0.157,-0.946,0.305,0.5156622000000001,0.057295800000000015,-0.1718874,106.45559640000002,9.64288314,-48.05398746
0.8,80,0.158,-0.946,0.304,0.3437748,0.5156622000000001,-0.286479,106.46705556,9.63715356,-48.04825788
0.81,81,0.158,-0.946,0.304,0.0,0.40107059999999994,-0.2291832000000001,106.46705556,9.63715356,-48.0425283
0.8200000000000001,82,0.151,-0.9490000000000001,0.306,-0.1718874,-0.1718874,-0.2291832000000001,106.46705556,9.64288314,-48.0425283
0.8300000000000001,83,0.147,-0.951,0.307,0.11459160000000004,-0.5156622000000001,-0.286479,106.46705556,9.64288314,-48.04825788
0.8400000000000001,84,0.14400000000000002,-0.9540000000000001,0.308,0.3437748,-0.6302538000000001,-0.3437748,106.46705556,9.64861272,-48.05398746
0.85,85,0.147,-0.955,0.305,0.057295800000000015,-0.3437748,-0.5156622000000001,106.47851472,9.60277608,-48.04825788
0.86,86,0.146,-0.955,0.306,0.3437748,-0.572958,-0.4583664000000001,106.47851472,9.60850566,-48.05398746
0.87,87,0.14300000000000002,-0.9570000000000001,0.309,0.1718874,-0.7448454000000001,-0.3437748,106.4842443,9.61423524,-48.05971704
0.88,88,0.147,-0.956,0.313,0.11459160000000004,-0.6875496,-0.2291832000000001,106.4842443,9.61996482,-48.06544662
0.89,89,0.151,-0.956,0.311,-0.057295800000000015,-0.1718874,-0.2291832000000001,106.4842443,9.6256944,-48.06544662
0.9,90,0.14800000000000002,-0.956,0.31,-0.11459160000000004,-0.11459160000000004,-0.11459160000000004,106.53581052,9.45953658,-48.03106913999999
0.91,91,0.14400000000000002,-0.956,0.307,-0.3437748,-0.2291832000000001,0.0,106.53008094,9.45953658,-48.03679872
0.92,92,0.146,-0.9590000000000001,0.305,-0.5156622000000001,-0.057295800000000015,0.057295800000000015,106.52435136,9.45953658,-48.03679872
0.93,93,0.153,-0.9590000000000001,0.305,-0.4583664000000001,0.11459160000000004,0.0,106.51862178000002,9.45953658,-48.03679872
0.9400000000000001,94,0.154,-0.956,0.306,-0.4583664000000001,0.0,0.0,106.5128922,9.45953658,-48.03679872
0.9500000000000001,95,0.151,-0.953,0.307,-0.40107059999999994,-0.286479,0.057295800000000015,106.53008094,9.43088868,-48.03106913999999
0.9600000000000001,96,0.151,-0.9520000000000001,0.307,-0.40107059999999994,-0.2291832000000001,0.1718874,106.52435136,9.43088868,-48.03106913999999
0.97,97,0.153,-0.9540000000000001,0.31,-0.40107059999999994,0.286479,0.1718874,106.51862178000002,9.43088868,-48.03106913999999
0.98,98,0.156,-0.953,0.308,-0.4583664000000001,0.572958,0.2291832000000001,106.5128922,9.4251591,-48.02533956
0.99,99,0.155,-0.9520000000000001,0.307,-0.5156622000000001,0.5156622000000001,0.2291832000000001,106.50716262,9.41942952,-48.01960998
1.0,100,0.154,-0.95,0.305,-0.6302538000000001,0.40107059999999994,0.286479,106.5128922,9.407970359999998,-48.01388040000001
1.01,101,0.155,-0.948,0.304,-0.286479,0.2291832000000001,0.4583664000000001,106.50716262,9.40224078,-48.01388040000001
1.02,102,0.155,-0.951,0.304,-0.2291832000000001,0.0,0.4583664000000001,106.50143304,9.3965112,-48.01388040000001
1.03,103,0.155,-0.951,0.304,-0.11459160000000004,-0.2291832000000001,0.5156622000000001,106.50143304,9.3965112,-48.01960998
1.04,104,0.152,-0.9520000000000001,0.305,-0.057295800000000015,-0.4583664000000001,0.6302538000000001,106.50143304,9.39078162,-48.02533956
1.05,105,0.152,-0.951,0.307,0.1718874,-0.6302538000000001,0.6302538000000001,106.51862178000002,9.37359288,-48.02533956
1.06,106,0.149,-0.95,0.308,0.2291832000000001,-0.3437748,0.6302538000000001,106.51862178000002,9.3678633,-48.03106913999999
1.07,107,0.14800000000000002,-0.948,0.305,0.3437748,-0.057295800000000015,0.572958,106.52435136,9.36213372,-48.03679872
1.08,108,0.146,-0.948,0.306,0.4583664000000001,-0.057295800000000015,0.572958,106.52435136,9.35640414,-48.03679872
1.09,109,0.14400000000000002,-0.9470000000000001,0.305,0.40107059999999994,-0.1718874,0.5156622000000001,106.53008094,9.350674559999998,-48.0425283
1.1,110,0.142,-0.9470000000000001,0.301,0.7448454000000001,-0.4583664000000001,0.4583664000000001,106.53581052,9.32775624,-48.04825788
1.11,111,0.141,-0.951,0.301,0.9740286,-0.9740286,0.40107059999999994,106.54154009999998,9.32775624,-48.05971704
1.12,112,0.141,-0.9520000000000001,0.306,1.145916,-1.3750992,0.2291832000000001,106.55299926,9.32775624,-48.0711762
1.1300000000000001,113,0.141,-0.953,0.309,1.145916,-1.2032118,0.11459160000000004,106.56445842,9.33348582,-48.08263536
1.1400000000000001,114,0.14300000000000002,-0.953,0.31,0.9740286,-0.572958,0.0,106.57591757999998,9.33348582,-48.08836494000001
1.1500000000000001,115,0.145,-0.956,0.31,0.9167328000000001,-0.1718874,0.0,106.59883590000001,9.29910834,-48.08263536
1.1600000000000001,116,0.145,-0.9570000000000001,0.31,0.8021411999999999,0.0,0.1718874,106.61029506,9.29910834,-48.08263536
1.17,117,0.146,-0.9590000000000001,0.309,0.4583664000000001,0.3437748,0.286479,106.61602464,9.29337876,-48.07690578
1.18,118,0.149,-0.9590000000000001,0.308,0.286479,0.4583664000000001,0.40107059999999994,106.61602464,9.28764918,-48.07690578
1.19,119,0.15,-0.958,0.309,0.2291832000000001,0.4583664000000001,0.40107059999999994,106.62175422,9.2819196,-48.0711762
1.2,120,0.152,-0.9570000000000001,0.306,0.057295800000000015,0.6302538000000001,0.40107059999999994,106.62175422,9.27046044,-48.06544662
1.21,121,0.151,-0.9570000000000001,0.307,0.286479,0.2291832000000001,0.4583664000000001,106.6274838,9.26473086,-48.06544662
1.22,122,0.14800000000000002,-0.955,0.309,0.11459160000000004,-0.11459160000000004,0.40107059999999994,106.6274838,9.25900128,-48.06544662
1.23,123,0.14400000000000002,-0.9540000000000001,0.308,0.0,-0.2291832000000001,0.3437748,106.6274838,9.25900128,-48.0711762
1.24,124,0.14300000000000002,-0.951,0.306,-0.1718874,-0.3437748,0.40107059999999994,106.62175422,9.253271699999999,-48.07690578
1.25,125,0.14400000000000002,-0.9520000000000001,0.309,-0.3437748,-0.286479,0.286479,106.63321338,9.224623800000002,-48.07690578
1.26,126,0.147,-0.953,0.31,-0.572958,-0.057295800000000015,0.1718874,106.6274838,9.224623800000002,-48.07690578
1.27,127,0.153,-0.9520000000000001,0.309,-0.572958,0.0,0.11459160000000004,106.62175422,9.224623800000002,-48.07690578
1.28,128,0.154,-0.9520000000000001,0.309,-0.6302538000000001,0.0,0.11459160000000004,106.61029506,9.21889422,-48.07690578
1.29,129,0.153,-0.95,0.306,-0.5156622000000001,0.0,0.1718874,106.61029506,9.21889422,-48.07690578
1.3,130,0.151,-0.95,0.309,-0.2291832000000001,0.0,0.2291832000000001,106.63321338,9.20170548,-48.06544662
1.31,131,0.153,-0.951,0.31,-0.286479,0.057295800000000015,0.286479,106.6274838,9.20170548,-48.06544662
1.32,132,0.153,-0.9520000000000001,0.308,-0.40107059999999994,-0.11459160000000004,0.40107059999999994,106.6274838,9.1959759,-48.0711762
1.33,133,0.151,-0.95,0.309,-0.8021411999999999,-0.3437748,0.4583664000000001,106.61602464,9.19024632,-48.07690578
1.34,134,0.152,-0.95,0.311,-1.0313244000000001,-0.4583664000000001,0.572958,106.60456548000002,9.19024632,-48.08263536
1.35,135,0.15,-0.9490000000000001,0.309,-1.0886202,-0.572958,0.5156622000000001,106.59883590000001,9.17878716,-48.08836494000001
1.36,136,0.149,-0.948,0.305,-1.2032118,-0.3437748,0.286479,106.58164716000002,9.17878716,-48.09409452
1.37,137,0.146,-0.948,0.302,-1.0313244000000001,-0.1718874,0.1718874,106.57018799999999,9.17878716,-48.09409452
1.3800000000000001,138,0.145,-0.9490000000000001,0.303,-0.8594370000000001,0.057295800000000015,0.0,106.56445842,9.17878716,-48.09409452
1.3900000000000001,139,0.149,-0.9490000000000001,0.305,-0.6302538000000001,0.40107059999999994,-0.057295800000000015,106.55872884,9.17305758,-48.08836494000001
1.4000000000000001,140,0.14800000000000002,-0.9520000000000001,0.304,-0.5156622000000001,0.0,-0.1718874,106.55299926,9.15586884,-48.08836494000001
1.4100000000000001,141,0.146,-0.953,0.305,-0.4583664000000001,-0.3437748,-0.057295800000000015,106.54726968,9.15586884,-48.08836494000001
1.42,142,0.14400000000000002,-0.955,0.308,-0.286479,-0.7448454000000001,0.0,106.54726968,9.16159842,-48.09982409999999
1.43,143,0.141,-0.956,0.308,-0.3437748,-0.8021411999999999,0.0,106.54154009999998,9.16159842,-48.10555368
1.44,144,0.139,-0.955,0.31,-0.572958,-0.9740286,0.1718874,106.53008094,9.16159842,-48.11701284
1.45,145,0.136,-0.955,0.311,-0.5156622000000001,-1.0313244000000001,0.2291832000000001,106.53581052,9.138680099999998,-48.12274242
1.46,146,0.135,-0.956,0.313,-0.572958,-0.7448454000000001,0.2291832000000001,106.53008094,9.138680099999998,-48.128471999999995
1.47,147,0.13699999999999998,-0.9570000000000001,0.313,-0.6875496,-0.3437748,0.2291832000000001,106.52435136,9.13295052,-48.13420158
1.48,148,0.139,-0.9570000000000001,0.312,-0.7448454000000001,-0.057295800000000015,0.3437748,106.5128922,9.13295052,-48.13420158
1.49,149,0.14400000000000002,-0.958,0.311,-0.6302538000000001,0.0,0.2291832000000001,106.50716262,9.12722094,-48.13420158
1.5,150,0.145,-0.958,0.308,-0.6302538000000001,0.0,0.2291832000000001,106.50716262,9.10430262,-48.13420158
1.51,151,0.145,-0.958,0.306,-0.8021411999999999,-0.1718874,0.2291832000000001,106.50143304,9.098573040000002,-48.13420158
1.52,152,0.14800000000000002,-0.958,0.307,-0.8594370000000001,-0.2291832000000001,0.3437748,106.48997388,9.098573040000002,-48.13993116
1.53,153,0.152,-0.956,0.308,-0.9167328000000001,-0.286479,0.5156622000000001,106.47851472,9.09284346,-48.14566074
1.54,154,0.15,-0.956,0.306,-1.2605076000000002,-0.7448454000000001,0.5156622000000001,106.46705556,9.09284346,-48.15139032
1.55,155,0.14800000000000002,-0.9540000000000001,0.307,-1.432395,-1.145916,0.6875496,106.45559640000002,9.081384300000002,-48.16284948000001
1.56,156,0.147,-0.953,0.305,-1.5469866,-1.3750992,0.6302538000000001,106.43840766,9.081384300000002,-48.18003822000001
1.57,157,0.147,-0.9520000000000001,0.304,-1.4896908000000002,-1.0886202,0.572958,106.42121892,9.081384300000002,-48.19149738
1.58,158,0.149,-0.9490000000000001,0.302,-1.4896908000000002,-0.8021411999999999,0.4583664000000001,106.40403018000002,9.07565472,-48.20295654
1.59,159,0.151,-0.9490000000000001,0.304,-1.432395,-0.8021411999999999,0.572958,106.38684144,9.07565472,-48.20868612
1.6,160,0.14800000000000002,-0.951,0.307,-1.3750992,-1.0886202,0.5156622000000001,106.38111186,9.06419556,-48.22014528
1.61,161,0.146,-0.951,0.308,-1.432395,-0.8021411999999999,0.4583664000000001,106.36392312,9.06419556,-48.23160444
1.62,162,0.145,-0.95,0.307,-1.432395,-0.3437748,0.40107059999999994,106.34673438,9.06419556,-48.23733402000001
1.6300000000000001,163,0.14300000000000002,-0.95,0.306,-1.4896908000000002,0.0,0.3437748,106.32954564,9.05846598,-48.23733402000001
1.6400000000000001,164,0.145,-0.9490000000000001,0.304,-1.2605076000000002,0.2291832000000001,0.3437748,106.31808648,9.0527364,-48.23733402000001
1.6500000000000001,165,0.149,-0.951,0.305,-1.0886202,0.2291832000000001,0.5156622000000001,106.31808648,9.04700682,-48.23160444
1.6600000000000001,166,0.147,-0.955,0.303,-1.145916,0.0,0.4583664000000001,106.30662732,9.04127724,-48.23733402000001
1.6700000000000002,167,0.149,-0.9570000000000001,0.303,-1.3178034,0.0,0.5156622000000001,106.28943858,9.03554766,-48.23733402000001
1.68,168,0.14800000000000002,-0.958,0.303,-1.5469866,0.0,0.5156622000000001,106.27224984,9.02981808,-48.23733402000001
1.69,169,0.14400000000000002,-0.955,0.303,-1.4896908000000002,0.11459160000000004,0.5156622000000001,106.26079068,9.0240885,-48.23733402000001
1.7,170,0.145,-0.951,0.305,-1.3178034,0.286479,0.5156622000000001,106.2550611,9.01262934,-48.23160444
1.71,171,0.14400000000000002,-0.948,0.306,-1.432395,0.8594370000000001,0.2291832000000001,106.24360194,9.00689976,-48.22587486
1.72,172,0.136,-0.9490000000000001,0.29100000000000004,-1.8907614,0.7448454000000001,0.2291832000000001,106.22068362,9.001170179999997,-48.22014528
1.73,173,0.13,-0.946,0.284,-3.2085647999999996,-1.2605076000000002,0.40107059999999994,106.18630614,9.001170179999997,-48.23160444
1.74,174,0.142,-0.9440000000000001,0.316,-2.9220858,-0.8021411999999999,0.2291832000000001,106.15765824,9.001170179999997,-48.2430636
1.75,175,0.16699999999999998,-0.953,0.326,-3.8961144,1.2605076000000002,0.11459160000000004,106.12901034,9.00689976,-48.22587486
1.76,176,0.17300000000000001,-0.9640000000000001,0.318,-4.297185,3.6669312000000014,0.3437748,106.08890328,8.98971102,-48.19722696000001
1.77,177,0.149,-0.966,0.302,-3.9534102,5.3285094000000015,0.4583664000000001,106.06025538,8.97252228,-48.14566074
1.78,178,0.128,-0.9590000000000001,0.292,-3.7815228,5.2139178,0.3437748,106.02587790000001,8.949603960000003,-48.09982409999999
1.79,179,0.115,-0.9490000000000001,0.295,-3.2085647999999996,4.583664,0.2291832000000001,105.99723,8.93241522,-48.05398746
1.8,180,0.11900000000000001,-0.9470000000000001,0.295,-2.8074942000000003,4.1252976000000015,0.1718874,105.97431168,8.909496899999997,-48.01388040000001
1.81,181,0.125,-0.9490000000000001,0.29100000000000004,-2.8074942000000003,3.8961144,-0.1718874,105.95139336,8.89803774,-47.97950292
1.82,182,0.13699999999999998,-0.9490000000000001,0.294,-2.6929026,3.8388186,-0.5156622000000001,105.92847504,8.89230816,-47.93939586000001
1.83,183,0.145,-0.953,0.293,-2.3491277999999998,3.0366774,-0.6302538000000001,105.91128629999999,8.88657858,-47.91074796
1.84,184,0.149,-0.9570000000000001,0.294,-1.9480572,2.1199446,-0.6875496,105.89409756,8.88657858,-47.88782964
1.85,185,0.146,-0.961,0.295,-1.4896908000000002,0.8021411999999999,-0.4583664000000001,105.8826384,8.880849000000003,-47.87637048
1.86,186,0.136,-0.965,0.297,-1.5469866,-0.1718874,-0.1718874,105.86544966,8.880849000000003,-47.87637048
1.87,187,0.131,-0.968,0.303,-1.9480572,-0.5156622000000001,0.0,105.84253134,8.88657858,-47.88210005999999
1.8800000000000001,188,0.129,-0.9670000000000001,0.307,-2.1199446,-0.572958,0.11459160000000004,105.81961302,8.88657858,-47.88782964
1.8900000000000001,189,0.13,-0.966,0.311,-2.2345362,-0.8594370000000001,0.2291832000000001,105.7966947,8.88657858,-47.8992888
1.9000000000000001,190,0.126,-0.966,0.313,-2.6929026,-1.6042823999999998,0.286479,105.77950596,8.86938984,-47.91074796
1.9100000000000001,191,0.11699999999999999,-0.9690000000000001,0.32299999999999995,-3.3231564,-2.6356068,0.3437748,105.74512848,8.87511942,-47.93939586000001
1.9200000000000002,192,0.10400000000000001,-0.9740000000000001,0.325,-4.010706000000001,-3.2658606,0.11459160000000004,105.69929184,8.880849000000003,-47.96804376
1.93,193,0.102,-0.977,0.318,-5.9014674000000005,-2.9793816000000004,0.057295800000000015,105.63053688,8.89230816,-48.00242124
1.94,194,0.102,-0.978,0.314,-6.4744254,-2.6929026,0.057295800000000015,105.56178192,8.89803774,-48.02533956
1.95,195,0.122,-0.985,0.306,-6.875496000000001,-2.2345362,-0.1718874,105.49302696,8.89803774,-48.04825788
1.96,196,0.13699999999999998,-0.991,0.305,-7.734933000000002,-2.4064236,-0.2291832000000001,105.41281284,8.909496899999997,-48.0711762
1.97,197,0.141,-0.992,0.311,-9.1100322,-3.1512689999999997,0.0,105.31540998,8.91522648,-48.10555368
1.98,198,0.14,-0.99,0.319,-9.740286,-4.4117766,0.2291832000000001,105.20654796,8.92668564,-48.14566074
1.99,199,0.121,-0.987,0.326,-10.2559482,-5.844171599999999,0.6302538000000001,105.09768594,8.9381448,-48.20868612
2.0,200,0.106,-0.981,0.322,-11.0580894,-6.703608600000001,1.0886202,104.97736476,8.9381448,-48.2717115
2.01,201,0.115,-0.983,0.313,-11.688343199999998,-6.7609043999999985,1.6042823999999998,104.851314,8.9381448,-48.34619604
2.02,202,0.128,-0.985,0.311,-12.318597,-7.1046792000000005,1.8907614,104.71380408,8.9381448,-48.42068058
2.03,203,0.14,-0.985,0.299,-12.032118,-7.7922288,2.0053530000000004,104.58202374,8.94387438,-48.5008947
2.04,204,0.162,-0.982,0.309,-12.5477802,-8.078707799999998,2.6929026,104.43878424000002,8.9381448,-48.58683840000001
2.05,205,0.174,-0.9740000000000001,0.295,-13.521808800000002,-8.651665800000002,3.8961144,104.29554474,8.92668564,-48.68424126
2.0599999999999996,206,0.171,-0.972,0.285,-12.776963400000001,-9.453807,4.583664,104.14657566,8.90376732,-48.7873737
2.07,207,0.16899999999999998,-0.9740000000000001,0.27899999999999997,-13.120738199999998,-9.682990199999999,5.2712136,103.99760658,8.880849000000003,-48.89623572000001
2.0799999999999996,208,0.165,-0.9670000000000001,0.272,-13.0061466,-10.1986524,6.130650599999999,103.8486375,8.84647152,-49.01082732
2.09,209,0.156,-0.9620000000000001,0.26899999999999996,-12.7196676,-9.9694692,6.5317212,103.70539800000002,8.81209404,-49.12541892
2.0999999999999996,210,0.152,-0.9570000000000001,0.276,-12.6623718,-9.8548776,6.7609043999999985,103.56215849999998,8.77198698,-49.24001052
2.11,211,0.15,-0.955,0.275,-12.9488508,-9.453807,6.8182002000000015,103.41891899999999,8.73187992,-49.34887254
2.1199999999999997,212,0.158,-0.9590000000000001,0.285,-14.381245800000002,-10.1986524,6.990087599999999,103.25276118,8.68604328,-49.46346414
2.13,213,0.16399999999999998,-0.956,0.271,-15.870936600000002,-12.605075999999999,7.2765666,103.0751442,8.64593622,-49.60670363999999
2.1399999999999997,214,0.16399999999999998,-0.958,0.257,-16.2147114,-14.0947668,7.2192707999999985,102.88606806,8.61155874,-49.7614023
2.15,215,0.17,-0.966,0.23800000000000002,-17.3606274,-14.037471,6.703608600000001,102.69126233999998,8.58291084,-49.91610096
2.1599999999999997,216,0.16399999999999998,-0.97,0.228,-17.4179232,-12.834259199999998,6.0160589999999985,102.49645662,8.554262940000001,-50.05361088
2.17,217,0.154,-0.978,0.223,-17.4179232,-10.828906199999999,5.3858052,102.30165090000001,8.52561504,-50.17393206
2.1799999999999997,218,0.156,-0.976,0.222,-18.449247600000003,-8.9381448,5.5003968,102.1011156,8.49123756,-50.2770645
2.19,219,0.154,-0.987,0.22399999999999998,-18.7357266,-8.021412000000002,6.1879464,101.89485072,8.451130500000001,-50.36873778
2.1999999999999997,220,0.156,-0.996,0.233,-19.767051000000002,-9.3392154,6.990087599999999,101.68285626,8.39956428,-50.47759979999999
2.21,221,0.136,-1.001,0.228,-20.2254174,-10.4278356,7.906820400000001,101.45940264,8.34799806,-50.59792098
2.2199999999999998,222,0.13699999999999998,-1.001,0.21600000000000005,-20.2254174,-9.5111028,8.59437,101.2416786,8.28497268,-50.71251258
2.23,223,0.133,-0.9940000000000001,0.209,-19.8816426,-7.6776372,9.1100322,101.02395456,8.210488139999999,-50.80991544000001
2.2399999999999998,224,0.121,-0.982,0.21,-19.308684600000007,-6.417129599999999,9.3392154,100.81768968,8.13027402,-50.89012956
2.25,225,0.12300000000000001,-0.9690000000000001,0.222,-18.5638392,-5.844171599999999,8.9381448,100.62288396,8.0500599,-50.9646141
2.26,226,0.11699999999999999,-0.958,0.22399999999999998,-17.9335854,-5.0993262,8.9381448,100.43380782,7.975575359999999,-51.03336906
2.27,227,0.121,-0.9670000000000001,0.203,-18.6784308,-3.3231564,9.167328,100.23327252,7.889631660000001,-51.09066486
2.28,228,0.124,-0.9790000000000001,0.18600000000000005,-19.4232762,-2.8074942000000003,9.9121734,100.03273722,7.79795838,-51.1365015
2.29,229,0.135,-0.997,0.179,-19.480572,-2.6929026,10.7716104,99.82647233999998,7.6948259399999985,-51.18233814
2.3,230,0.142,-1.006,0.17,-19.9962342,-3.1512689999999997,11.6310474,99.61447788,7.5916935,-51.23963394
2.31,231,0.158,-1.006,0.17,-20.05353,-3.9534102,12.2040054,99.40248342,7.477101899999999,-51.30265932
2.32,232,0.14800000000000002,-1.004,0.16,-20.5691922,-4.3544808,12.834259199999998,99.18475938,7.3567807200000015,-51.3656847
2.3299999999999996,233,0.145,-1.0,0.171,-20.454600600000006,-5.3858052,13.2353298,98.97276492,7.23645954,-51.44589881999999
2.34,234,0.113,-0.991,0.158,-20.8556712,-5.3858052,13.6936962,98.7493113,7.11040878,-51.52038336
2.3499999999999996,235,0.12,-0.982,0.157,-20.5691922,-4.1825934,13.980175199999998,98.53158726,6.97862844,-51.58913832
2.36,236,0.1,-0.973,0.162,-20.05353,-2.5783110000000002,14.209358400000001,98.32532238000002,6.8411185199999975,-51.63497496
2.3699999999999997,237,0.11199999999999999,-0.983,0.172,-20.2827132,-2.0053530000000004,14.32395,98.11332792,6.7036086,-51.68081159999999
2.38,238,0.131,-0.982,0.157,-21.829699800000004,-1.7188740000000002,14.1520626,97.8898743,6.566098679999999,-51.72091866
2.3899999999999997,239,0.125,-0.983,0.136,-21.371333399999997,-1.3750992,14.0947668,97.66642068,6.428588760000001,-51.75529614
2.4,240,0.145,-0.991,0.131,-20.8556712,-2.2345362,14.266654199999998,97.44869664,6.29107884,-51.80113278
2.4099999999999997,241,0.132,-0.9890000000000001,0.134,-19.652459399999998,-3.2658606,14.7823164,97.24243176000002,6.15356892,-51.85269900000001
2.42,242,0.132,-0.99,0.135,-18.6784308,-3.3231564,15.469866,97.04762603999998,6.00459984,-51.90999480000001
2.4299999999999997,243,0.146,-0.996,0.14,-17.9335854,-3.6669312000000014,16.157415599999997,96.8585499,5.849901179999999,-51.9672906
2.44,244,0.122,-0.992,0.139,-18.9649098,-4.9274388,16.7876694,96.66374418,5.68947294,-52.04177514000001
2.4499999999999997,245,0.124,-0.977,0.135,-18.277360199999997,-5.72958,17.0168526,96.46893846,5.5290447,-52.11625968
2.46,246,0.10300000000000001,-0.9740000000000001,0.122,-16.673077799999998,-4.9847346,17.4179232,96.29132148,5.3628868800000005,-52.19074422
2.4699999999999998,247,0.10800000000000001,-0.976,0.134,-15.4125702,-4.0680017999999984,17.589810600000003,96.13089324,5.19672906,-52.2537696
2.48,248,0.096,-0.975,0.11900000000000001,-15.297978599999999,-3.8388186,18.162768600000003,95.970465,5.01911208,-52.3110654
2.4899999999999998,249,0.109,-0.9790000000000001,0.11699999999999999,-15.183387000000002,-3.4950437999999995,19.2513888,95.81576634,4.83576552,-52.3683612
2.5,250,0.087,-0.9790000000000001,0.10300000000000001,-14.610429000000002,-2.4637194,20.05353,95.66106768,4.63523022,-52.41419784
2.51,251,0.085,-0.973,0.11900000000000001,-13.178034,-1.145916,20.7410796,95.52355776,4.43469492,-52.44857532
2.52,252,0.07,-0.9740000000000001,0.125,-12.6623718,0.0,20.9702628,95.397507,4.22270046,-52.47149363999999
2.53,253,0.07400000000000001,-0.973,0.127,-12.3758928,0.0,21.2567418,95.26572666,4.010706,-52.49441196
2.54,254,0.055,-0.981,0.125,-11.45916,-1.3178034,21.600516600000002,95.15113506,3.79871154,-52.52878943999999
2.55,255,0.07200000000000001,-0.9890000000000001,0.121,-11.172680999999999,-2.5783110000000002,22.0015872,95.03654346,3.58671708,-52.57462608
2.56,256,0.040999999999999995,-0.9940000000000001,0.098,-11.1153852,-1.3750992,22.2880662,94.92195186,3.3689930400000003,-52.60900356
2.57,257,0.05,-0.993,0.10400000000000001,-11.802934800000001,0.7448454000000001,23.0329116,94.80163068,3.1398098400000003,-52.62046272
2.5799999999999996,258,0.053,-0.99,0.106,-11.745639,1.5469866,23.892348600000002,94.68130949999998,2.89916748,-52.62619229999999
2.59,259,0.043,-0.993,0.10099999999999999,-11.5164558,2.3491277999999998,24.2934192,94.5667179,2.65279554,-52.62619229999999
2.5999999999999996,260,0.068,-0.99,0.10400000000000001,-11.6310474,2.86479,24.4080108,94.44639672,2.41788276,-52.62046272
2.61,261,0.027000000000000003,-0.985,0.105,-11.0580894,3.6669312000000014,24.923673,94.33180511999998,2.1657812400000003,-52.60327398
2.6199999999999997,262,0.013999999999999999,-0.982,0.11900000000000001,-10.7143146,4.583664,25.3247436,94.22867268000002,1.90795014,-52.58035566
2.63,263,0.017,-0.9670000000000001,0.14300000000000002,-10.5424272,4.7555514,26.241476399999996,94.11981066,1.64438946,-52.55170776
2.6399999999999997,264,-0.008,-0.972,0.124,-8.8235532,5.844171599999999,26.1841806,94.02813738,1.3750992,-52.51733028
2.65,265,0.022000000000000002,-0.9790000000000001,0.095,-10.4278356,7.3911582,26.41336380000001,93.92500494,1.11153852,-52.46576406000001
2.6599999999999997,266,0.005,-0.987,0.09,-9.7975818,6.7609043999999985,26.9863218,93.82760208,0.83651868,-52.41419784
2.67,267,0.013999999999999999,-0.9990000000000001,0.10099999999999999,-8.9954406,7.5057497999999985,26.7571386,93.7359288,0.56722842,-52.36263161999999
2.6799999999999997,268,0.039,-1.004,0.121,-8.8235532,6.6463128000000005,26.642546999999997,93.64425552,0.29220857999999994,-52.31679498
2.69,269,0.039,-0.996,0.106,-10.1986524,6.8182002000000015,27.6165756,93.54112308,0.01145916,-52.26522876
2.6999999999999997,270,0.035,-0.983,0.11199999999999999,-10.1986524,8.7662574,28.7051958,93.44372022,-0.27501984,-52.20220338
2.71,271,-0.008,-0.981,0.124,-9.167328,9.6256944,29.5646328,93.34631736,-0.5729580000000001,-52.12198926
2.7199999999999998,272,-0.048,-0.98,0.114,-9.9121734,10.4851314,30.65325300000001,93.24318492,-0.8880849000000001,-52.04177514000001
2.73,273,-0.048,-0.955,0.141,-9.740286,12.9488508,32.7731976,93.14005248,-1.22613012,-51.93291312
2.7399999999999998,274,-0.02,-0.955,0.149,-8.7089616,14.0947668,33.5753388,93.0483792,-1.56990492,-51.81259193999999
2.75,275,-0.055999999999999994,-0.929,0.121,-11.5737516,14.381245800000002,35.809875,92.92805802,-1.94232762,-51.69227076
2.76,276,-0.075,-0.9359999999999999,0.08900000000000001,-8.193299399999999,15.3552744,36.8411994,92.84211432,-2.3204799,-51.56049042000001
2.77,277,-0.09,-0.961,0.094,-5.3285094000000015,17.761698000000006,35.9817624,92.77908894,-2.68717302,-51.40579176
2.78,278,-0.032,-0.993,0.131,-3.7242269999999995,17.303331600000003,34.2055926,92.72752272,-3.04240698,-51.25109310000001
2.79,279,-0.027999999999999997,-1.003,0.11900000000000001,-5.042030400000002,19.2513888,32.945085,92.66449734,-3.380452200000001,-51.0792057
2.8,280,0.008,-1.0070000000000001,0.132,-5.958763200000001,18.793022399999998,33.9764094,92.60147196,-3.7299565800000014,-50.90731829999999
2.81,281,-0.004,-1.018,0.136,-7.161975,13.6936962,37.0703826,92.51552826,-4.10810886,-50.7927267
2.82,282,0.016,-0.993,0.179,-7.734933000000002,11.0580894,39.820581,92.42958456,-4.50917946,-50.70105342
2.8299999999999996,283,0.006999999999999999,-0.977,0.157,-8.479778399999999,12.4904844,42.456187799999995,92.33791128,-4.94462754,-50.59792098
2.84,284,-0.001,-0.941,0.19399999999999998,-11.5164558,7.2765666,47.498218200000004,92.21186052,-5.42018268,-50.54635476
2.8499999999999996,285,-0.027000000000000003,-0.948,0.158,-10.1986524,4.8701430000000006,51.10785360000001,92.11445766,-5.92438572,-50.51770686
2.86,286,-0.012,-0.982,0.18,-14.381245800000002,0.40107059999999994,53.571573,91.97121816,-6.45723666,-50.5348956
2.8699999999999997,287,-0.08800000000000001,-0.9590000000000001,0.113,-13.636400400000001,-4.7555514,55.4623344,91.83943782,-7.00727634,-50.60938014
2.88,288,-0.04,-0.973,0.158,-10.657018800000001,-9.0527364,57.754166399999995,91.74776454000002,-7.574504760000001,-50.71824216
2.8899999999999997,289,-0.012,-0.897,0.146,-16.959556799999998,-14.7823164,67.609044,91.60452504,-8.23913604,-50.89012956
2.9,290,0.156,-0.875,0.23,-16.386598799999998,-31.51269000000001,79.641162,91.5013926,-9.001170179999997,-51.23390436
2.9099999999999997,291,-0.35100000000000003,-0.9129999999999999,0.040999999999999995,-16.1001198,-48.987909,82.50595200000002,91.43263764,-9.797581800000001,-51.74956656000001
2.92,292,-0.28800000000000003,-1.123,0.061,-9.224623800000002,-37.81522800000001,65.030733,91.4154489,-10.42210602,-52.14490758000001
2.9299999999999997,293,-0.166,-1.065,0.016,-16.673077799999998,-31.6845774,52.19647379999999,91.31231646,-10.92630906,-52.48295279999999
2.94,294,-0.043,-1.099,0.168,-11.2299768,-19.0222056,40.5654264,91.23783192,-11.32165008,-52.68348810000001
2.9499999999999997,295,0.161,-1.178,0.28600000000000003,-30.595957199999997,-41.3675676,28.132237800000002,91.02583746,-11.5737516,-53.1132066
2.96,296,0.22899999999999998,-0.992,0.17600000000000002,-54.717489,-60.275181599999996,27.960350399999996,90.60184854,-11.82585312,-53.73200124
2.9699999999999998,297,0.136,-0.8909999999999999,0.057999999999999996,-56.0925882,-63.4264506,33.9191136,90.17785962,-12.1467096,-54.37944378
2.98,298,-0.56,-0.5760000000000001,-0.115,-43.3729206,-39.7059894,41.5967508,89.83408482,-12.55350978,-54.79197354
2.9899999999999998,299,0.311,-1.153,0.244,-47.6128098,-26.41336380000001,52.3110654,89.41582548,-13.069171980000002,-55.06126379999999
3.0,300,0.026000000000000002,-0.857,-0.013000000000000001,-112.586247,-37.3568616,69.0987348,88.36158276,-13.76245116,-55.44514566
3.01,301,-0.207,-0.72,-0.066,-54.3737142,-13.980175199999998,77.6931048,87.84592056,-14.541674039999998,-55.56546684
3.02,302,-0.29,-0.861,-0.073,-16.959556799999998,21.314037600000002,79.81304940000003,87.6052782,-15.33235608,-55.3190949
3.03,303,-0.326,-0.987,-0.001,3.5523396000000003,39.5913978,71.21867940000001,87.5193345,-16.031364840000002,-54.88364682
3.04,304,-0.33,-0.9590000000000001,0.08,-11.0007936,32.31483119999999,68.8122558,87.30161045999998,-16.71318486,-54.52268328
3.05,305,-0.297,-0.9179999999999999,0.068,-26.814434400000003,16.1001198,70.1300592,86.97502440000002,-17.40646404,-54.32787755999999
3.06,306,-0.248,-0.9690000000000001,0.043,-36.2109456,9.1100322,66.463128,86.56822422,-18.06536574,-54.19609722
3.07,307,-0.18100000000000002,-0.932,0.009000000000000001,-40.7946096,9.453807,65.030733,86.10985782,-18.71280828,-54.06431688
3.08,308,-0.11800000000000001,-0.9059999999999999,-0.025,-43.20103320000001,9.1100322,67.1506776,85.62857310000003,-19.377439560000006,-53.92107738
3.09,309,-0.08199999999999999,-0.89,-0.063,-45.6647526,5.7868758000000025,70.87490460000002,85.12437006,-20.07644832,-53.80648578
3.0999999999999996,310,-0.075,-0.878,-0.037000000000000005,-46.5241896,2.0626488000000003,73.79699040000001,84.62589659999998,-20.80410498,-53.72627166000001
3.11,311,-0.1,-0.853,0.012,-45.2063862,1.145916,75.05749800000002,84.13888229999998,-21.54895038,-53.64032796
3.1199999999999997,312,-0.136,-0.825,0.046,-44.175061799999995,3.2658606,75.63045600000002,83.64613842,-22.29952536,-53.52573636000001
3.13,313,-0.157,-0.8109999999999999,0.019,-44.117765999999996,5.2139178,76.31800559999998,83.14766496,-23.05010034,-53.38249686
3.1399999999999997,314,-0.187,-0.813,-0.006,-46.0658232,3.0366774,77.52121740000003,82.62627318,-23.81786406,-53.25644610000001
3.15,315,-0.16899999999999998,-0.79,0.013000000000000001,-49.04520479999999,4.7555514,77.2920342,82.07050392,-24.56843904,-53.10174744000001
3.1599999999999997,316,-0.092,-0.752,0.015,-50.5348956,8.193299399999999,75.5731602,81.47462759999998,-25.30755486,-52.90121214000001
3.17,317,-0.016,-0.72,-0.005,-52.3110654,6.703608600000001,74.2553568,80.86156254,-26.03521152,-52.712136
3.1799999999999997,318,0.03,-0.6890000000000001,-0.026000000000000002,-53.5142772,2.1772404,73.2240324,80.25422705999998,-26.7571386,-52.56316691999999
3.19,319,0.078,-0.6579999999999999,-0.021,-53.285093999999994,-2.0626488000000003,72.0208206,79.66408032,-27.46760652,-52.4543049
3.1999999999999997,320,0.142,-0.617,0.0,-54.0299394,-6.6463128000000005,70.93220040000001,79.09112232,-28.1608857,-52.39127952
3.21,321,0.171,-0.573,-0.017,-53.9153478,-12.776963400000001,68.8695516,78.54108264,-28.85989446,-52.39127952
3.2199999999999998,322,0.16399999999999998,-0.5539999999999999,0.061,-53.5142772,-19.2513888,66.6350154,78.03687959999998,-29.54744406,-52.46003448
3.23,323,0.132,-0.537,0.094,-54.6028974,-26.0122932,64.8588456,77.56132446000002,-30.22926408,-52.5975444
3.2399999999999998,324,0.102,-0.551,0.03,-51.33703679999999,-29.9084076,62.45242200000001,77.13733554,-30.89962494,-52.78662053999999
3.25,325,0.115,-0.5379999999999999,-0.025,-49.1597964,-30.022999199999997,59.35844880000001,76.7477241,-31.52414916,-52.98142626
3.26,326,0.179,-0.462,-0.039,-43.315624799999995,-27.960350399999996,54.43101,76.40394930000002,-32.10856632,-53.15904324
3.27,327,0.295,-0.129,-0.111,-38.90384820000001,-29.335449600000004,39.7059894,76.14038862,-32.56120314,-53.38822644
3.28,328,0.14300000000000002,-0.249,-0.151,-20.3973048,-35.8671708,19.079501399999998,76.12892946000002,-32.81903423999999,-53.74918998
3.29,329,0.133,-1.036,-0.122,2.2345362,-44.6334282,46.0658232,76.36957182,-33.357614760000004,-54.13307184
3.3,330,0.225,-1.0390000000000001,-0.025,-18.2200644,-43.48751220000001,58.49901179999999,76.39249013999998,-33.98786856,-54.48257622
3.31,331,0.213,-0.713,-0.001,-14.9542038,-47.7274014,65.14532460000001,76.46124510000001,-34.71552522,-54.86645808000001
3.32,332,0.15,-0.644,-0.018000000000000002,-0.8594370000000001,-55.1758554,77.9795838,76.71334662,-35.5806918,-55.30190616
3.33,333,0.055999999999999994,-0.5710000000000001,-0.042,4.9847346,-68.8695516,92.3035338,77.11441721999998,-36.6120162,-55.87486416
3.34,334,-0.005,-0.534,-0.034,10.828906199999999,-87.37609499999998,104.5075392,77.71029354,-37.7865801,-56.65408704
3.3499999999999996,335,-0.013999999999999999,-0.5489999999999999,-0.024,15.183387000000002,-103.8772854,113.50297979999999,78.50097558,-39.06427644,-57.65103395999999
3.36,336,0.008,-0.563,0.024,18.8503182,-116.36776979999999,120.95143380000002,79.46354502,-40.43364606,-58.83132744000001
3.3699999999999997,337,-0.006,-0.564,0.077,25.0955604,-125.7069852,127.76963400000001,80.62092018,-41.86031148,-60.17204916000001
3.38,338,-0.032,-0.556,0.053,29.9084076,-129.94687439999998,134.358651,81.93299400000002,-43.33854312,-61.63309206
3.3899999999999997,339,-0.12300000000000001,-0.588,-0.033,34.7785506,-135.9056376,139.6871604,83.42841438,-44.84542266,-63.24883361999999
3.4,340,-0.401,-0.727,0.004,41.4821592,-141.1195554,142.7238378,85.15301796,-46.34657262,-65.03646258
3.4099999999999997,341,-0.733,-0.883,0.033,44.2323576,-141.52062600000005,145.93240260000005,87.02086104,-47.84772258,-66.93868314
3.42,342,-1.054,-0.9490000000000001,0.037000000000000005,44.8053156,-137.05155359999998,155.0997306,88.96891824000002,-49.38897959999999,-68.90965865999999
3.4299999999999997,343,-1.369,-0.981,0.013999999999999999,44.4615408,-125.93616840000001,170.741484,90.93416418,-51.0505578,-70.85198627999998
3.44,344,-1.6540000000000001,-1.032,0.012,40.04976420000001,-108.46094939999999,193.4879166,92.80773684,-52.90121214000001,-72.69118146
3.4499999999999997,345,-1.8130000000000002,-1.001,-0.08900000000000001,29.507337,-86.63124959999998,223.45362000000003,94.49223336,-55.03834548,-74.38713714000002
3.46,346,-1.986,-0.883,-0.141,21.199446,-66.463128,251.3566746,96.05067912,-57.4390395,-75.97996038
3.4699999999999998,347,-2.374,-0.9940000000000001,-0.152,20.6837838,-37.4714532,253.8776898,97.35702336,-59.89129974,-77.26338630000002
3.48,348,-2.112,-1.042,-0.08900000000000001,-0.9740286,-2.1772404,251.64315359999998,98.01019548,-62.36074872,-78.01396128
3.4899999999999998,349,-1.93,-0.319,-0.287,-45.4928652,46.696077,304.527177,97.47734454000002,-65.4318036,-77.93947674
3.5,350,-1.966,0.157,-0.486,-32.4294228,136.2494124,373.855095,94.92195186,-69.31072925999999,-75.53878272
3.51,351,-1.6219999999999999,0.24100000000000002,0.19,-13.8082878,145.64592359999997,415.4518458,91.1862657,-73.54488888,-71.75725992
3.52,352,-2.1919999999999997,0.35100000000000003,0.226,22.6891368,98.548776,424.27539900000005,87.42766122,-77.77331892,-67.65488064
3.53,353,-2.4659999999999997,0.27399999999999997,0.35100000000000003,17.7044022,102.273003,431.09359919999997,79.24009140000003,-81.94445316,-59.16364308
3.54,354,-2.178,-0.046,0.276,15.297978599999999,89.03767320000001,416.94153660000006,57.94897212000001,-85.56554772,-37.60896312
3.55,355,-2.102,0.381,-0.154,3.1512689999999997,75.9742308,424.2181032,-8.73187992,-86.87189196,29.21512842000001
3.56,356,-2.0909999999999997,0.35,-0.262,35.122325399999994,69.900876,403.5916152,-49.70410650000001,-84.13315272,70.65145097999998
3.57,357,-1.639,0.266,-0.213,34.3201842,51.0505578,307.6211502,-60.0173505,-81.32565852,81.3886839
3.58,358,-1.584,1.214,-0.384,9.7975818,37.013086799999996,256.68518400000005,-64.87030476,-78.89058702,86.41925513999998
3.59,359,-1.5630000000000002,1.696,-0.516,38.7892566,7.2192707999999985,186.9561954,-67.68352854000001,-77.16598344,89.6965749
3.5999999999999996,360,-1.45,1.128,-0.319,49.4462754,-18.907614,130.17605759999998,-69.84358019999999,-76.03152659999998,92.44104372
3.61,361,-1.3030000000000002,0.6709999999999999,0.5329999999999999,57.1812084,-64.5723666,120.89413799999998,-73.05787458,-75.1147938,96.36580602
3.6199999999999997,362,-1.3519999999999999,1.578,0.523,-35.8671708,-3.0939732,77.40662579999999,-74.34703008,-74.38713714000002,97.32837546
3.63,363,-1.296,1.607,-0.491,-33.4607472,-1.8907614,18.334656,-74.93717682,-74.21524974,97.59193614
3.6399999999999997,364,-1.067,0.9470000000000001,-0.172,-9.224623800000002,-31.6845774,-20.1108258,-75.92839416000002,-74.49599916000003,98.52585768000002
3.65,365,-0.965,0.677,-0.255,-14.7823164,-25.382039399999996,-45.893935799999994,-76.54145922000002,-74.98301346,99.0071424
3.6599999999999997,366,-1.002,0.612,-0.313,-11.9748222,-19.4232762,-64.51507079999999,-76.80501989999998,-75.6591039,99.15611148
3.67,367,-0.9329999999999999,0.45299999999999996,-0.20800000000000002,1.7761698000000001,-16.8449652,-84.05293859999998,-76.65605081999998,-76.51281132,99.02433114
3.6799999999999997,368,-0.69,0.187,-0.11199999999999999,14.7250206,-16.7876694,-98.94984659999999,-76.18049568,-77.50975824000002,98.68628592
3.69,369,-0.47600000000000003,0.13699999999999998,-0.019,15.9855282,-25.382039399999996,-97.975818,-76.03152659999998,-78.52389389999998,98.70347466
3.6999999999999997,370,-0.278,0.256,0.064,12.7196676,-26.642546999999997,-84.39671340000002,-76.18622526,-79.39479005999998,98.99568324
3.71,371,-0.158,0.4270000000000001,0.08800000000000001,11.2299768,-22.0015872,-65.08802879999999,-76.36957182,-80.08233966,99.29935098
3.7199999999999998,372,-0.054000000000000006,0.486,0.017,11.6310474,-25.0382646,-48.414951,-76.98836646,-80.61519059999998,100.04992596
3.73,373,-0.15,0.39,0.012,14.667724800000002,-36.8411994,-31.627281600000003,-78.59837844,-81.01053162,101.83755492
3.7399999999999998,374,-0.313,0.307,0.08900000000000001,14.381245800000002,-44.6334282,-21.2567418,-80.97042456,-81.30846978000002,104.38721802
3.75,375,-0.499,0.465,0.038,3.2658606,-47.498218200000004,-12.4331886,-83.89251035999997,-81.45743886,107.38378836
3.76,376,-0.65,0.483,-0.045,6.875496000000001,-46.982556,-8.250595200000001,-86.86616238,-81.5892192,110.4663024
3.77,377,-0.778,0.596,-0.063,5.9014674000000005,-44.5761324,-10.4278356,-89.77105944,-81.72099954000002,113.47433190000001
3.78,378,-0.885,0.562,-0.013000000000000001,10.943497800000001,-37.1849742,-8.250595200000001,-92.20040136,-81.80694324,116.04118374
3.79,379,-0.863,0.457,0.132,8.651665800000002,-11.802934800000001,-13.0061466,-92.95670592,-81.93299400000002,116.90062074
3.8,380,-0.8009999999999999,0.397,0.064,1.8907614,7.7922288,-19.0222056,-92.40093666,-82.0762335,116.35631064
3.81,381,-0.9079999999999999,0.358,-0.085,2.5783110000000002,11.45916,-18.048177,-91.59306588,-82.25958005999998,115.56562859999998
3.82,382,-1.0659999999999998,0.354,-0.094,10.084060800000001,11.2299768,-12.7196676,-90.67633308,-82.38563081999997,114.74056908
3.83,383,-1.217,0.368,-0.054000000000000006,14.1520626,15.527161800000002,-10.943497800000001,-89.35852968,-82.48876326,113.55454602
3.84,384,-1.311,0.45399999999999996,-0.044000000000000004,12.2040054,22.86102420000001,-11.401864199999999,-87.47349786,-82.59189570000002,111.77837622
3.8499999999999996,385,-1.3219999999999998,0.544,-0.008,15.3552744,27.1582092,-11.172680999999999,-85.18739544,-82.67210982,109.62405414
3.86,386,-1.304,0.5820000000000001,-0.006999999999999999,20.5691922,32.2002396,-10.7716104,-82.40281956,-82.7351352,107.02282481999998
3.8699999999999997,387,-1.286,0.532,0.026000000000000002,25.3247436,39.9924684,-15.928232399999999,-78.85620954,-82.81534932000002,103.69966842
3.88,388,-1.213,0.442,0.055,28.877083199999998,50.3630082,-27.3873924,-74.1694131,-82.95285924,99.2649735
3.8899999999999997,389,-1.1909999999999998,0.379,0.066,31.455394199999997,55.7488134,-36.2682414,-68.6403684,-83.1075579,94.01094864
3.9,390,-1.249,0.337,0.08199999999999999,32.945085,54.14453099999999,-40.4508348,-62.90505882,-83.23933824000002,88.56784764
3.9099999999999997,391,-1.2919999999999998,0.33399999999999996,0.11800000000000001,34.8358464,54.3737142,-42.91455420000001,-56.80878570000001,-83.32528194,82.76951268
3.92,392,-1.297,0.34299999999999997,0.138,35.52339600000001,58.842786600000004,-45.4928652,-50.1911208,-83.32528194,76.46124510000001
3.9299999999999997,393,-1.27,0.36200000000000004,0.105,35.236917,65.3745078,-46.638781200000004,-43.21822194,-83.20496076,69.79201398
3.94,394,-1.208,0.363,0.075,39.7632852,71.1040878,-48.2430636,-36.14792022,-82.95285924,63.07121664
3.9499999999999997,395,-1.129,0.285,0.055999999999999994,44.748019799999994,74.198061,-48.6441342,-29.51306658,-82.58616612,56.83170402
3.96,396,-1.107,0.24,0.076,48.185767799999994,74.1407652,-48.7587258,-23.45117094,-82.13352929999998,51.1937973
3.9699999999999998,397,-1.187,0.183,0.09,51.3943326,70.35924240000001,-46.2377106,-18.27163062,-81.63505583999998,46.47835296
3.98,398,-1.068,0.095,0.037000000000000005,49.6754586,74.3699484,-46.00852740000001,-13.65358914,-81.04490909999998,42.30721872
3.9899999999999998,399,-1.031,0.07400000000000001,-0.057999999999999996,45.550160999999996,85.77181259999998,-44.6334282,-9.63142398,-80.28860454,38.68612416
4.0,400,-0.9079999999999999,0.05,-0.114,45.263682,86.91772859999998,-37.757932200000006,-6.5317212,-79.48646334,35.99895114
4.01,401,-0.9440000000000001,0.019,-0.051,49.274388,81.07355700000002,-30.7105488,-4.17113424,-78.70724046000002,34.08527142
4.02,402,-0.985,-0.055,-0.06,50.0765292,77.635809,-25.382039399999996,-2.3204799,-77.9509359,32.71017222
4.03,403,-0.9840000000000001,-0.151,-0.066,47.784697200000004,79.46927459999998,-20.7410796,-0.89381448,-77.16598344,31.73041404
4.04,404,-0.934,-0.247,-0.068,44.404245,79.0109082,-14.32395,0.09167328,-76.38103097999998,31.16318562
4.05,405,-0.8420000000000001,-0.32,-0.105,40.7373138,76.9482594,-6.0733548,0.7161975,-75.61899684,30.93973200000001
4.06,406,-0.7390000000000001,-0.359,-0.188,36.38283300000001,71.8489332,1.145916,0.92819196,-74.90279934,31.09443066
4.07,407,-0.637,-0.39,-0.271,28.361421000000004,60.733548000000006,4.7555514,0.95111028,-74.30119343999998,31.36372092
4.08,408,-0.568,-0.337,-0.35200000000000004,18.793022399999998,48.8733174,4.1825934,0.9167328,-73.81417914,31.58717454
4.09,409,-0.547,-0.26899999999999996,-0.418,8.7662574,31.51269000000001,2.8074942000000003,0.86516658,-73.50478182,31.73614362
4.1,410,-0.4920000000000001,-0.21899999999999997,-0.45399999999999996,2.4637194,16.2147114,1.4896908000000002,0.89381448,-73.29851693999998,31.72468446
4.109999999999999,411,-0.47100000000000003,-0.162,-0.488,-1.8907614,2.86479,-0.572958,0.8880849000000001,-73.26986904,31.7132253
4.12,412,-0.478,-0.11800000000000001,-0.517,-5.958763200000001,-6.7609043999999985,-2.7501984,0.92819196,-73.33862400000002,31.61009286
4.13,413,-0.589,-0.12300000000000001,-0.536,-8.136003599999999,-12.776963400000001,-4.7555514,1.0255948199999998,-73.46467476,31.42101672
4.14,414,-0.758,-0.145,-0.5429999999999999,-12.318597,-16.4438946,-6.3025379999999975,1.14018642,-73.63083258,31.18037436
4.1499999999999995,415,-0.9079999999999999,-0.18600000000000005,-0.523,-13.5791046,-17.475219,-7.0473834,1.3464512999999998,-73.77407208,30.8251404
4.16,416,-1.045,-0.21,-0.44,-14.5531332,-14.266654199999998,-5.844171599999999,1.4209358399999998,-73.91731158,30.59022762
4.17,417,-1.079,-0.20199999999999999,-0.35600000000000004,-16.959556799999998,-5.042030400000002,-2.4064236,1.34072172,-73.96887779999999,30.498554340000005
4.18,418,-1.026,-0.151,-0.318,-20.8556712,4.010706000000001,0.1718874,1.10580894,-73.92877074,30.52147266
4.1899999999999995,419,-0.9570000000000001,-0.081,-0.33799999999999997,-24.4653066,8.7089616,1.9480572,0.76776372,-73.84855662,30.61314594
4.2,420,-0.902,-0.02,-0.364,-25.382039399999996,8.307891,3.1512689999999997,0.37815228,-73.75115376,30.75065586
4.21,421,-0.8690000000000001,0.032,-0.366,-24.809081399999997,6.990087599999999,3.5523396000000003,-0.00572958,-73.6823988,30.88816578
4.22,422,-0.84,0.08199999999999999,-0.368,-22.631841,7.734933000000002,2.6929026,-0.3437748,-73.60791426,30.997027799999998
4.2299999999999995,423,-0.833,0.11900000000000001,-0.359,-19.136797199999997,7.5630456000000015,1.0886202,-0.5844171599999999,-73.53915930000002,31.04859402
4.24,424,-0.85,0.135,-0.33799999999999997,-15.3552744,6.8182002000000015,-0.9167328000000001,-0.7161975,-73.47040434,31.025675699999997
4.25,425,-0.877,0.125,-0.305,-10.313244000000001,4.297185,-2.3491277999999998,-0.91100322,-73.41883812,31.10016024
4.26,426,-0.919,0.11800000000000001,-0.272,-7.5057497999999985,2.4064236,-3.1512689999999997,-0.8823553199999999,-73.3959198,30.99129822
4.27,427,-0.958,0.11,-0.24600000000000002,-6.3025379999999975,1.3178034,-4.7555514,-0.7906820400000001,-73.38446064,30.83086998
4.28,428,-0.9790000000000001,0.099,-0.226,-4.583664,1.0313244000000001,-5.7868758000000025,-0.64744254,-73.37300148,30.63033468
4.29,429,-1.002,0.075,-0.21,-3.4950437999999995,0.2291832000000001,-5.6722842,-0.49274388,-73.37300148,30.43552896
4.3,430,-1.008,0.059000000000000004,-0.19699999999999998,-3.6096353999999997,0.1718874,-4.6409598,-0.5156622000000001,-73.43602686,30.40688106
4.31,431,-1.022,0.05,-0.19,-3.8961144,-0.286479,-3.6096353999999997,-0.43544808,-73.44175643999998,30.28655988
4.32,432,-1.0270000000000001,0.057,-0.191,-4.9847346,0.11459160000000004,-2.7501984,-0.39534102,-73.44175643999998,30.18915702
4.33,433,-1.026,0.069,-0.20600000000000002,-5.6149884000000005,0.572958,-2.1772404,-0.38388186,-73.43602686,30.11467248000001
4.34,434,-1.035,0.079,-0.21600000000000005,-5.7868758000000025,0.40107059999999994,-2.3491277999999998,-0.36096354,-73.43029728,30.03445836
4.35,435,-1.045,0.076,-0.231,-5.3858052,1.0313244000000001,-2.9793816000000004,-0.42398892,-73.44748602000001,30.03445836
4.36,436,-1.053,0.068,-0.252,-5.5003968,2.6356068,-3.4950437999999995,-0.36669312,-73.4245677,29.91413718
4.37,437,-1.038,0.055,-0.262,-5.443101,4.3544808,-4.0680017999999984,-0.29220857999999994,-73.37873106,29.77662726
4.38,438,-1.022,0.043,-0.273,-5.2139178,5.5576926,-4.4690724,-0.20053530000000008,-73.32716484,29.627658180000005
4.39,439,-1.006,0.034,-0.281,-4.5263682,5.6149884000000005,-4.7555514,-0.09740286,-73.26986904,29.47295952
4.3999999999999995,440,-0.993,0.03,-0.28,-3.380452200000001,5.042030400000002,-5.0993262,-0.01718874,-73.22976198,29.34690876
4.41,441,-0.9790000000000001,0.027999999999999997,-0.27699999999999997,-2.86479,4.9274388,-5.72958,0.13178034,-73.17819576000002,29.157832620000004
4.42,442,-0.965,0.027000000000000003,-0.287,-2.0053530000000004,4.8128472,-6.4744254,0.31512690000000004,-73.13235912,28.940108580000004
4.43,443,-0.9570000000000001,0.019,-0.29600000000000004,-1.0313244000000001,3.9534102,-6.8182002000000015,0.52139178,-73.09225205999998,28.71092538000001
4.4399999999999995,444,-0.9490000000000001,0.005,-0.308,-0.057295800000000015,3.8388186,-6.8182002000000015,0.7391158200000001,-73.052145,28.48174218
4.45,445,-0.9390000000000001,-0.006,-0.314,0.40107059999999994,3.7815228,-6.6463128000000005,0.95111028,-72.98911962000003,28.25828856
4.46,446,-0.9259999999999999,-0.012,-0.315,0.6875496,4.0680017999999984,-6.3598338,1.16310474,-72.94901256,28.05202368
4.47,447,-0.912,-0.016,-0.322,0.572958,4.4690724,-6.0160589999999985,1.35218088,-72.90317592,27.85148838
4.4799999999999995,448,-0.905,-0.022000000000000002,-0.33399999999999996,0.7448454000000001,3.7815228,-5.6149884000000005,1.53552744,-72.86306886,27.66814182
4.49,449,-0.922,-0.033,-0.336,0.9167328000000001,2.3491277999999998,-5.042030400000002,1.7074148399999998,-72.84015054,27.501984000000004
4.5,450,-0.938,-0.037000000000000005,-0.33,0.572958,1.432395,-4.1825934,1.93659804,-72.77712516,27.272800800000002
4.51,451,-0.955,-0.037000000000000005,-0.327,-0.1718874,1.0313244000000001,-3.2658606,2.03973048,-72.76566600000002,27.163938779999995
4.52,452,-0.956,-0.027999999999999997,-0.324,-0.8594370000000001,1.3178034,-2.291832,2.09702628,-72.74847725999999,27.08945424
4.53,453,-0.9590000000000001,-0.023,-0.319,-1.145916,1.0886202,-1.3750992,2.13140376,-72.7370181,27.04934718
4.54,454,-0.958,-0.02,-0.311,-1.7761698000000001,0.9740286,-0.40107059999999994,2.1199446,-72.72555894,27.03215844
4.55,455,-0.9470000000000001,-0.013999999999999999,-0.305,-2.291832,1.6042823999999998,0.2291832000000001,2.06837838,-72.69118146,27.06080634
4.56,456,-0.9309999999999999,-0.013000000000000001,-0.305,-2.5210152000000003,1.8907614,0.8021411999999999,2.01681216,-72.67399272,27.09518382
4.57,457,-0.935,-0.013000000000000001,-0.311,-2.5783110000000002,1.7188740000000002,1.432395,1.93659804,-72.65680397999998,27.14675004
4.58,458,-0.94,-0.009000000000000001,-0.312,-2.0626488000000003,1.3178034,2.1772404,1.83919518,-72.64534482,27.221234580000004
4.59,459,-0.9440000000000001,-0.003,-0.31,-1.7188740000000002,1.0886202,2.5783110000000002,1.73606274,-72.63388566,27.31290786000001
4.6,460,-0.9470000000000001,0.003,-0.307,-1.4896908000000002,1.0313244000000001,2.6356068,1.55844576,-72.60523776,27.47906568
4.61,461,-0.948,0.006999999999999999,-0.302,-1.2032118,0.9740286,2.6356068,1.4610428999999998,-72.5937786,27.57073896
4.62,462,-0.948,0.012,-0.303,-1.0313244000000001,0.8594370000000001,2.4637194,1.36936962,-72.58804902,27.65095308
4.63,463,-0.95,0.018000000000000002,-0.299,-0.6302538000000001,0.572958,2.4064236,1.28342592,-72.58231943999998,27.73689678
4.64,464,-0.9440000000000001,0.024,-0.294,0.0,1.0886202,2.2345362,1.20894138,-72.57086028,27.81138132
4.6499999999999995,465,-0.9440000000000001,0.027999999999999997,-0.298,0.2291832000000001,1.0313244000000001,1.9480572,0.89954406,-72.54794196,28.11504906
4.66,466,-0.953,0.027000000000000003,-0.299,0.6302538000000001,0.40107059999999994,1.8907614,0.8479778399999999,-72.54221238,28.17807444
4.67,467,-0.953,0.03,-0.298,1.2605076000000002,0.572958,1.9480572,0.79641162,-72.5364828,28.24109982
4.68,468,-0.9490000000000001,0.027999999999999997,-0.301,1.6042823999999998,0.8594370000000001,1.8907614,0.75630456,-72.53075322000002,28.304125200000005
4.6899999999999995,469,-0.9490000000000001,0.027000000000000003,-0.306,1.4896908000000002,1.145916,1.6615782,0.7161975,-72.51929406000002,28.361421000000004
4.7,470,-0.9440000000000001,0.025,-0.307,1.4896908000000002,1.3750992,1.5469866,0.52139178,-72.479187,28.56768588
4.71,471,-0.9390000000000001,0.023,-0.312,1.6615782,1.145916,1.6615782,0.48128472,-72.46772784,28.62498168
4.72,472,-0.9329999999999999,0.019,-0.316,1.6615782,0.9740286,1.6042823999999998,0.44690724,-72.46199826,28.6765479
4.7299999999999995,473,-0.9279999999999999,0.018000000000000002,-0.321,1.8334656000000005,0.7448454000000001,1.6615782,0.41252976,-72.45053909999999,28.733843699999998
4.74,474,-0.924,0.016,-0.324,2.1772404,0.2291832000000001,1.6615782,0.38388186,-72.45053909999999,28.78540992
4.75,475,-0.919,0.013999999999999999,-0.322,2.6356068,-0.4583664000000001,1.7761698000000001,0.28074942,-72.41616162,28.91719026
4.76,476,-0.914,0.011000000000000001,-0.322,3.1512689999999997,-1.3178034,1.9480572,0.25210152,-72.42762078,28.974486060000004
4.77,477,-0.91,0.006,-0.327,3.2658606,-2.6356068,2.1199446,0.22345362,-72.45053909999999,29.04324102
4.78,478,-0.907,0.002,-0.32899999999999996,3.4377480000000005,-4.6409598,2.4064236,0.18907614,-72.49637574,29.11772556
4.79,479,-0.9109999999999999,-0.001,-0.321,3.7242269999999995,-6.9327918,3.0366774,0.13750992,-72.5651307,29.20939884
4.8,480,-0.917,-0.001,-0.312,3.4950437999999995,-8.9954406,3.6669312000000014,0.06302537999999999,-72.64534482,29.32972002
4.81,481,-0.927,0.002,-0.311,2.86479,-11.0580894,4.0680017999999984,-0.01718874,-72.75420684000002,29.45577078
4.82,482,-0.937,0.005,-0.311,2.2345362,-11.5737516,4.2398892,-0.12032118,-72.86879844,29.58755112
4.83,483,-0.945,0.009000000000000001,-0.308,2.0053530000000004,-10.943497800000001,4.3544808,-0.23491278,-72.97766046000002,29.72506104
4.84,484,-0.951,0.011000000000000001,-0.304,1.6042823999999998,-9.167328,4.1825934,-0.3437748,-73.06933374,29.86257096
4.85,485,-0.958,0.015,-0.305,1.5469866,-6.417129599999999,3.7242269999999995,-0.48128472,-73.12089996,30.01726962
4.86,486,-0.9620000000000001,0.017,-0.305,1.432395,-3.7815228,3.4377480000000005,-0.5786875800000001,-73.15527744,30.1375908
4.87,487,-0.97,0.019,-0.302,1.3750992,-2.0053530000000004,3.0939732,-0.6589017,-73.17819576000002,30.24072324
4.88,488,-0.9740000000000001,0.022000000000000002,-0.295,1.432395,-0.4583664000000001,2.7501984,-0.7391158200000001,-73.18392534,30.33239652
4.89,489,-0.9740000000000001,0.02,-0.294,1.7761698000000001,0.6302538000000001,2.5783110000000002,-0.8021412000000001,-73.17246618,30.424069799999995
4.8999999999999995,490,-0.975,0.017,-0.287,1.8334656000000005,0.572958,2.5783110000000002,-0.93965112,-73.17246618,30.57876846
4.91,491,-0.972,0.017,-0.281,1.7188740000000002,0.6875496,2.5210152000000003,-1.0026765,-73.16673660000002,30.66471216
4.92,492,-0.9690000000000001,0.018000000000000002,-0.281,1.145916,0.572958,2.3491277999999998,-1.07143146,-73.16100702,30.74492628
4.93,493,-0.961,0.023,-0.284,0.8021411999999999,0.40107059999999994,2.3491277999999998,-1.14018642,-73.15527744,30.8251404
4.9399999999999995,494,-0.956,0.027000000000000003,-0.287,0.7448454000000001,0.0,2.1199446,-1.2032117999999998,-73.15527744,30.89962494
4.95,495,-0.958,0.031,-0.29100000000000004,0.572958,-0.5156622000000001,2.0626488000000003,-1.44958374,-73.14381828,31.14599688
4.96,496,-0.9640000000000001,0.035,-0.289,0.5156622000000001,-1.0313244000000001,1.8334656000000005,-1.50687954,-73.15527744,31.21475184
4.97,497,-0.966,0.038,-0.285,0.3437748,-0.8021411999999999,1.6042823999999998,-1.5527161800000002,-73.16100702,31.27204764
4.9799999999999995,498,-0.972,0.04,-0.284,0.1718874,-0.9167328000000001,1.3178034,-1.59855282,-73.17246618,31.31788428
4.99,499,-0.9740000000000001,0.039,-0.284,0.2291832000000001,-0.8021411999999999,1.0886202,-1.6272007199999998,-73.17819576000002,31.352261760000005
5.0,500,-0.973,0.04,-0.28600000000000003,0.2291832000000001,-0.4583664000000001,0.8021411999999999,-2.1657812400000003,-73.17819576000002,31.87365354
5.01,501,-0.972,0.038,-0.29100000000000004,0.2291832000000001,-0.2291832000000001,0.4583664000000001,-2.18296998,-73.17819576000002,31.89084228
5.02,502,-0.9690000000000001,0.039,-0.293,0.3437748,-0.2291832000000001,0.11459160000000004,-2.18296998,-73.18392534,31.89657186
5.03,503,-0.963,0.036000000000000004,-0.294,0.40107059999999994,-0.057295800000000015,-0.286479,-2.1657812400000003,-73.18392534,31.885112699999997
5.04,504,-0.955,0.036000000000000004,-0.29100000000000004,0.5156622000000001,0.5156622000000001,-0.6302538000000001,-2.13713334,-73.17819576000002,31.86219438
5.05,505,-0.948,0.032,-0.293,0.6302538000000001,1.3750992,-1.2605076000000002,-2.22307704,-73.1380887,31.94240850000001
5.06,506,-0.9470000000000001,0.027000000000000003,-0.299,0.4583664000000001,1.7188740000000002,-1.5469866,-2.1657812400000003,-73.12089996,31.89084228
5.07,507,-0.946,0.023,-0.299,0.4583664000000001,1.4896908000000002,-1.6042823999999998,-2.10848544,-73.10944079999999,31.83354648000001
5.08,508,-0.9420000000000001,0.02,-0.3,0.3437748,1.3178034,-1.4896908000000002,-2.05118964,-73.09225205999998,31.78198026
5.09,509,-0.9420000000000001,0.019,-0.302,0.286479,0.8021411999999999,-1.432395,-1.99962342,-73.08652248,31.73041404
5.1,510,-0.9440000000000001,0.019,-0.305,0.11459160000000004,0.4583664000000001,-1.432395,-2.08556712,-73.00630836,31.804898580000003
5.11,511,-0.945,0.019,-0.303,-0.11459160000000004,0.40107059999999994,-1.3750992,-2.03973048,-73.00630836,31.753332359999995
5.12,512,-0.943,0.018000000000000002,-0.307,-0.572958,0.4583664000000001,-1.4896908000000002,-1.99962342,-73.00057878,31.70176614
5.13,513,-0.9390000000000001,0.017,-0.312,-0.8594370000000001,0.4583664000000001,-1.432395,-1.9595163600000003,-72.9948492,31.65592950000001
5.14,514,-0.938,0.015,-0.315,-0.8594370000000001,-0.286479,-1.2605076000000002,-1.92513888,-73.00057878,31.61009286
5.1499999999999995,515,-0.937,0.015,-0.312,-0.8021411999999999,-1.0313244000000001,-1.145916,-1.95378678,-72.95474214000002,31.6272816
5.16,516,-0.935,0.018000000000000002,-0.307,-0.9167328000000001,-0.8594370000000001,-1.145916,-1.92513888,-72.9662013,31.58717454
5.17,517,-0.935,0.02,-0.306,-1.145916,-0.3437748,-1.2032118,-1.90222056,-72.97193088,31.541337899999995
5.18,518,-0.938,0.02,-0.306,-1.3178034,-0.11459160000000004,-1.3750992,-1.86784308,-72.97193088,31.49550126
5.1899999999999995,519,-0.9420000000000001,0.019,-0.306,-1.145916,-0.4583664000000001,-1.2605076000000002,-1.83919518,-72.97766046000002,31.455394199999997
5.2,520,-0.946,0.02,-0.302,-0.9167328000000001,-0.8594370000000001,-1.145916,-1.93086846,-72.94328298,31.52414916
5.21,521,-0.945,0.021,-0.302,-0.8594370000000001,-0.9167328000000001,-1.0886202,-1.90222056,-72.95474214000002,31.48977168
5.22,522,-0.9490000000000001,0.02,-0.301,-0.6875496,-0.9740286,-0.9740286,-1.87930224,-72.9662013,31.455394199999997
5.2299999999999995,523,-0.953,0.02,-0.3,-0.4583664000000001,-1.2605076000000002,-0.8021411999999999,-1.85638392,-72.97766046000002,31.426746299999998
5.24,524,-0.956,0.018000000000000002,-0.299,-0.1718874,-1.9480572,-0.6302538000000001,-1.83919518,-73.00057878,31.40382798
5.25,525,-0.953,0.018000000000000002,-0.295,-0.2291832000000001,-2.291832,-0.4583664000000001,-1.93086846,-73.00630836,31.48977168
5.26,526,-0.946,0.02,-0.293,-0.40107059999999994,-1.9480572,-0.3437748,-1.9194093000000003,-73.02349709999999,31.47831252
5.27,527,-0.94,0.019,-0.29,-0.4583664000000001,-1.6042823999999998,-0.11459160000000004,-1.9194093000000003,-73.04068584,31.47258294
5.28,528,-0.937,0.019,-0.28800000000000003,-0.6302538000000001,-1.4896908000000002,0.2291832000000001,-1.93659804,-73.05787458,31.47831252
5.29,529,-0.9440000000000001,0.02,-0.29100000000000004,-0.9167328000000001,-1.4896908000000002,0.4583664000000001,-1.9595163600000003,-73.06933374,31.49550126
5.3,530,-0.951,0.023,-0.294,-0.8021411999999999,-1.3750992,0.572958,-2.12567418,-73.06360416,31.64447034
5.31,531,-0.958,0.023,-0.292,-0.6302538000000001,-1.145916,0.572958,-2.1485925000000003,-73.07506332,31.66165908
5.32,532,-0.96,0.02,-0.293,-0.572958,-0.7448454000000001,0.572958,-2.1772404,-73.0807929,31.6845774
5.33,533,-0.956,0.017,-0.294,-0.4583664000000001,-0.40107059999999994,0.7448454000000001,-2.2058883,-73.08652248,31.7132253
5.34,534,-0.9540000000000001,0.016,-0.29100000000000004,-0.4583664000000001,-0.1718874,0.9167328000000001,-2.24026578,-73.08652248,31.7418732
5.35,535,-0.9540000000000001,0.018000000000000002,-0.295,-0.6875496,0.1718874,0.9740286,-2.37204612,-73.04641542,31.86219438
5.36,536,-0.956,0.021,-0.3,-0.6302538000000001,0.3437748,1.0313244000000001,-2.41215318,-73.04068584,31.902301439999995
5.37,537,-0.9540000000000001,0.021,-0.298,-0.40107059999999994,0.572958,0.9167328000000001,-2.45226024,-73.03495626,31.93094934
5.38,538,-0.948,0.018000000000000002,-0.302,-0.1718874,1.0886202,0.8021411999999999,-2.47517856,-73.02349709999999,31.95959724
5.39,539,-0.9440000000000001,0.019,-0.31,0.1718874,1.2605076000000002,0.7448454000000001,-2.49809688,-73.01203794,31.988245140000004
5.3999999999999995,540,-0.9440000000000001,0.02,-0.316,0.5156622000000001,0.8021411999999999,0.8021411999999999,-2.62987722,-72.9089055,32.114295899999995
5.41,541,-0.9440000000000001,0.02,-0.314,0.7448454000000001,0.0,0.6875496,-2.64706596,-72.9089055,32.13721422
5.42,542,-0.945,0.023,-0.312,0.9740286,-0.4583664000000001,0.6875496,-2.65852512,-72.9089055,32.16013254
5.43,543,-0.945,0.025,-0.31,0.9740286,-0.6875496,0.6302538000000001,-2.6699842800000004,-72.92036466,32.183050859999994
5.4399999999999995,544,-0.9470000000000001,0.025,-0.307,0.9740286,-0.7448454000000001,0.6302538000000001,-2.68144344,-72.92609424,32.20596918
5.45,545,-0.9490000000000001,0.023,-0.309,0.8021411999999999,-0.572958,0.6302538000000001,-2.81895336,-72.87452801999999,32.3434791
5.46,546,-0.9490000000000001,0.024,-0.308,0.7448454000000001,-0.5156622000000001,0.6875496,-2.83041252,-72.88025760000002,32.36639742
5.47,547,-0.941,0.026000000000000002,-0.305,0.8021411999999999,-0.1718874,0.6875496,-2.84760126,-72.88025760000002,32.389315739999994
5.4799999999999995,548,-0.94,0.024,-0.305,0.8594370000000001,-0.40107059999999994,0.7448454000000001,-2.86479,-72.88598718,32.41796364
5.49,549,-0.941,0.025,-0.304,0.6302538000000001,-1.0313244000000001,0.8021411999999999,-2.88197874,-72.89171676,32.446611540000006
5.5,550,-0.94,0.026000000000000002,-0.3,0.5156622000000001,-1.4896908000000002,0.8594370000000001,-2.9965703400000003,-72.88025760000002,32.56120314
5.51,551,-0.9420000000000001,0.027000000000000003,-0.299,0.4583664000000001,-1.8334656000000005,0.7448454000000001,-3.01948866,-72.89744634,32.58985104
5.52,552,-0.943,0.026000000000000002,-0.298,0.3437748,-2.2345362,0.6302538000000001,-3.0366774000000003,-72.92036466,32.61276936
5.53,553,-0.9440000000000001,0.025,-0.301,0.3437748,-2.4637194,0.6875496,-3.05959572,-72.94328298,32.641417260000004
5.54,554,-0.943,0.027999999999999997,-0.298,0.2291832000000001,-2.3491277999999998,0.6302538000000001,-3.07678446,-72.9662013,32.66433558
5.55,555,-0.941,0.035,-0.3,0.0,-1.5469866,0.2291832000000001,-3.42055926,-72.89171676,32.99092164
5.56,556,-0.945,0.037000000000000005,-0.303,0.0,-1.145916,-0.11459160000000004,-3.42055926,-72.90317592,32.98519206
5.57,557,-0.95,0.03,-0.302,0.11459160000000004,-1.145916,-0.5156622000000001,-3.40337052,-72.91463508000002,32.968003319999994
5.58,558,-0.951,0.025,-0.3,0.11459160000000004,-1.145916,-0.572958,-3.380452200000001,-72.92609424,32.95081458
5.59,559,-0.955,0.021,-0.304,-0.057295800000000015,-1.432395,-0.5156622000000001,-3.36326346,-72.94328298,32.933625840000005
5.6,560,-0.9570000000000001,0.015,-0.306,0.057295800000000015,-2.0626488000000003,-0.11459160000000004,-3.37472262,-72.93182382,32.945085
5.61,561,-0.951,0.015,-0.299,0.3437748,-3.4377480000000005,0.2291832000000001,-3.380452200000001,-72.9662013,32.95654416
5.62,562,-0.9470000000000001,0.017,-0.299,0.3437748,-4.5263682,0.4583664000000001,-3.39764094,-73.01203794,32.97946248
5.63,563,-0.9470000000000001,0.021,-0.298,0.11459160000000004,-5.3285094000000015,0.6302538000000001,-3.42628884,-73.06360416,33.00811038
5.64,564,-0.9440000000000001,0.021,-0.297,0.0,-5.5003968,0.7448454000000001,-3.45493674,-73.12089996,33.04248786
5.6499999999999995,565,-0.943,0.022000000000000002,-0.295,0.057295800000000015,-5.0993262,0.7448454000000001,-3.51796212,-73.15527744,33.09978366
5.66,566,-0.946,0.022000000000000002,-0.294,0.057295800000000015,-4.5263682,0.6302538000000001,-3.54088044,-73.20111408,33.12843156
5.67,567,-0.951,0.024,-0.293,-0.057295800000000015,-3.2658606,0.6302538000000001,-3.56379876,-73.22976198,33.15707946
5.68,568,-0.9540000000000001,0.027999999999999997,-0.293,0.0,-2.2345362,0.5156622000000001,-3.58671708,-73.2526803,33.1742682
5.6899999999999995,569,-0.958,0.027000000000000003,-0.293,0.11459160000000004,-1.3178034,0.40107059999999994,-3.59817624,-73.26986904,33.19145694
5.7,570,-0.96,0.026000000000000002,-0.292,0.286479,-0.6302538000000001,0.3437748,-3.810170700000002,-73.22976198,33.39199224
5.71,571,-0.9590000000000001,0.024,-0.29100000000000004,0.3437748,-0.3437748,0.2291832000000001,-3.81590028,-73.22976198,33.403451399999994
5.72,572,-0.956,0.022000000000000002,-0.29100000000000004,0.4583664000000001,-0.057295800000000015,0.286479,-3.81590028,-73.22976198,33.41491056
5.7299999999999995,573,-0.9520000000000001,0.021,-0.29100000000000004,0.3437748,0.057295800000000015,0.3437748,-3.82735944,-73.22976198,33.42636972
5.74,574,-0.9470000000000001,0.022000000000000002,-0.289,0.286479,0.11459160000000004,0.5156622000000001,-3.8388186000000006,-73.22976198,33.44355846
5.75,575,-0.948,0.026000000000000002,-0.29100000000000004,0.11459160000000004,0.0,0.572958,-4.16540466,-73.1380887,33.75868536
5.76,576,-0.9490000000000001,0.027999999999999997,-0.289,0.057295800000000015,-0.286479,0.5156622000000001,-4.1825934,-73.14381828,33.7758741
5.77,577,-0.951,0.032,-0.28800000000000003,0.0,-0.286479,0.40107059999999994,-4.19978214,-73.14381828,33.79306284
5.78,578,-0.9490000000000001,0.031,-0.292,-0.057295800000000015,-0.057295800000000015,0.286479,-4.211241299999998,-73.14381828,33.80452200000001
5.79,579,-0.9520000000000001,0.03,-0.298,-0.11459160000000004,-0.11459160000000004,0.286479,-4.22270046,-73.14954786,33.81598116
5.8,580,-0.9540000000000001,0.027000000000000003,-0.299,0.0,-0.286479,0.2291832000000001,-4.45761324,-73.02922668,34.03943478
5.81,581,-0.958,0.027999999999999997,-0.3,0.11459160000000004,-0.4583664000000001,0.3437748,-4.4690724,-73.03495626,34.050893939999995
5.82,582,-0.9590000000000001,0.027999999999999997,-0.298,0.11459160000000004,-0.5156622000000001,0.286479,-4.48053156,-73.04068584,34.0623531
5.83,583,-0.958,0.028999999999999998,-0.29600000000000004,-0.057295800000000015,-0.8021411999999999,0.1718874,-4.49199072,-73.04641542,34.07381226
5.84,584,-0.9490000000000001,0.027000000000000003,-0.294,0.0,-0.9167328000000001,0.1718874,-4.4977203,-73.05787458,34.079541840000005
5.85,585,-0.941,0.022000000000000002,-0.293,-0.057295800000000015,-1.8907614,0.40107059999999994,-4.53209778,-73.04641542,34.113919319999994
5.86,586,-0.9359999999999999,0.02,-0.295,-0.3437748,-2.86479,0.6875496,-4.56074568,-73.07506332,34.14256722
5.87,587,-0.934,0.021,-0.293,-0.8021411999999999,-3.8961144,1.0886202,-4.612311900000001,-73.11517038,34.18840386
5.88,588,-0.938,0.021,-0.287,-1.2605076000000002,-4.6982555999999995,1.2032118,-4.675337279999999,-73.16100702,34.23997008
5.89,589,-0.9420000000000001,0.023,-0.29,-1.432395,-4.6409598,1.3178034,-4.73836266,-73.20684365999998,34.291536300000004
5.8999999999999995,590,-0.9490000000000001,0.027999999999999997,-0.295,-1.6042823999999998,-4.297185,1.2605076000000002,-4.83003594,-73.23549156,34.36602084
5.91,591,-0.9540000000000001,0.032,-0.3,-1.4896908000000002,-3.2658606,1.2032118,-4.893061319999998,-73.26413946,34.41758706
5.92,592,-0.96,0.033,-0.3,-1.0313244000000001,-1.9480572,0.9740286,-4.93889796,-73.28132819999998,34.45196454
5.93,593,-0.9640000000000001,0.033,-0.298,-0.8594370000000001,-0.1718874,0.6302538000000001,-4.96754586,-73.28705778,34.47488286
5.9399999999999995,594,-0.9640000000000001,0.032,-0.297,-0.5156622000000001,0.7448454000000001,0.3437748,-4.9847345999999995,-73.27559862,34.48634202
5.95,595,-0.9590000000000001,0.032,-0.295,-0.286479,1.145916,0.11459160000000004,-5.0935966200000005,-73.2240324,34.58374488
5.96,596,-0.9520000000000001,0.032,-0.292,0.11459160000000004,1.2605076000000002,0.0,-5.08786704,-73.21257324000003,34.58374488
5.97,597,-0.9470000000000001,0.027000000000000003,-0.294,0.4583664000000001,1.3750992,-0.11459160000000004,-5.07640788,-73.1953845,34.57228572
5.9799999999999995,598,-0.9440000000000001,0.024,-0.29100000000000004,0.572958,1.2032118,0.0,-5.06494872,-73.18392534,34.57228572
5.99,599,-0.946,0.025,-0.29,0.5156622000000001,0.572958,0.11459160000000004,-5.06494872,-73.17819576000002,34.57228572
6.0,600,-0.9490000000000001,0.026000000000000002,-0.29100000000000004,0.3437748,0.057295800000000015,0.11459160000000004,-5.2826727600000005,-73.06360416,34.78428018
6.01,601,-0.945,0.028999999999999998,-0.293,0.0,-0.1718874,0.11459160000000004,-5.28840234,-73.06360416,34.79000976
6.02,602,-0.943,0.03,-0.29600000000000004,-0.11459160000000004,-0.286479,0.1718874,-5.2998615,-73.06933374,34.79573934
6.03,603,-0.945,0.03,-0.298,-0.2291832000000001,-0.7448454000000001,0.2291832000000001,-5.311320660000002,-73.07506332,34.8071985
6.04,604,-0.9490000000000001,0.03,-0.298,-0.3437748,-0.8594370000000001,0.2291832000000001,-5.32277982,-73.08652248,34.81865766
6.05,605,-0.9540000000000001,0.033,-0.299,-0.4583664000000001,-0.9167328000000001,0.2291832000000001,-5.4144530999999985,-73.052145,34.89887178
6.06,606,-0.9570000000000001,0.033,-0.299,-0.40107059999999994,-0.8594370000000001,0.1718874,-5.42591226,-73.05787458,34.90460136
6.07,607,-0.9590000000000001,0.032,-0.297,-0.40107059999999994,-0.6875496,0.057295800000000015,-5.4316418399999975,-73.06933374,34.91033094
6.08,608,-0.956,0.031,-0.29600000000000004,-0.2291832000000001,-0.8594370000000001,0.0,-5.43737142,-73.07506332,34.91033094
6.09,609,-0.9520000000000001,0.031,-0.297,-0.286479,-0.7448454000000001,-0.11459160000000004,-5.43737142,-73.0807929,34.91033094
6.1,610,-0.948,0.03,-0.295,-0.3437748,-0.6302538000000001,-0.2291832000000001,-5.5290447,-73.04641542,34.99054506
6.11,611,-0.948,0.031,-0.294,-0.3437748,-0.572958,-0.286479,-5.52331512,-73.052145,34.984815479999995
6.12,612,-0.946,0.031,-0.295,-0.2291832000000001,-0.3437748,-0.3437748,-5.51758554,-73.05787458,34.97335632
6.13,613,-0.9470000000000001,0.03,-0.294,-0.057295800000000015,-0.572958,-0.3437748,-5.50612638,-73.06360416,34.96189716
6.14,614,-0.9490000000000001,0.03,-0.294,0.0,-0.8021411999999999,-0.40107059999999994,-5.4946672199999975,-73.06933374,34.94470842
6.15,615,-0.951,0.03,-0.29600000000000004,-0.057295800000000015,-1.0886202,-0.4583664000000001,-5.5290447,-73.04641542,34.9790859
6.16,616,-0.9540000000000001,0.028999999999999998,-0.295,0.11459160000000004,-1.432395,-0.3437748,-5.51758554,-73.06360416,34.96762674
6.17,617,-0.955,0.027999999999999997,-0.294,0.1718874,-1.5469866,-0.3437748,-5.50612638,-73.0807929,34.95616758
6.18,618,-0.953,0.027000000000000003,-0.294,0.1718874,-1.3750992,-0.3437748,-5.4946672199999975,-73.09225205999998,34.950438
6.1899999999999995,619,-0.95,0.027000000000000003,-0.29600000000000004,0.11459160000000004,-1.432395,-0.1718874,-5.48893764,-73.10944079999999,34.94470842
6.2,620,-0.95,0.027000000000000003,-0.295,0.11459160000000004,-1.6042823999999998,0.0,-5.51758554,-73.09225205999998,34.97335632
6.21,621,-0.95,0.028999999999999998,-0.295,0.057295800000000015,-1.6615782,0.0,-5.52331512,-73.10944079999999,34.9790859
6.22,622,-0.951,0.028999999999999998,-0.293,0.057295800000000015,-1.432395,0.0,-5.52331512,-73.12662954,34.9790859
6.2299999999999995,623,-0.948,0.027000000000000003,-0.293,0.11459160000000004,-1.0313244000000001,-0.11459160000000004,-5.52331512,-73.1380887,34.9790859
6.24,624,-0.9470000000000001,0.025,-0.295,0.057295800000000015,-0.8594370000000001,0.0,-5.52331512,-73.14381828,34.9790859
6.25,625,-0.951,0.024,-0.294,0.057295800000000015,-0.9740286,0.11459160000000004,-5.5290447,-73.10371122000002,34.984815479999995
6.26,626,-0.9540000000000001,0.027000000000000003,-0.294,0.11459160000000004,-1.0313244000000001,0.2291832000000001,-5.5405038599999985,-73.11517038,35.00200422
6.27,627,-0.953,0.03,-0.293,0.1718874,-0.9740286,0.1718874,-5.54623344,-73.12662954,35.0077338
6.28,628,-0.95,0.028999999999999998,-0.29100000000000004,0.11459160000000004,-0.8021411999999999,0.11459160000000004,-5.5519630200000005,-73.13235912,35.01346338
6.29,629,-0.948,0.027000000000000003,-0.295,0.11459160000000004,-0.8594370000000001,0.057295800000000015,-5.5519630200000005,-73.14381828,35.01919296
6.3,630,-0.948,0.025,-0.295,0.286479,-1.3178034,0.2291832000000001,-5.56915176,-73.12662954,35.03638170000001
6.31,631,-0.946,0.026000000000000002,-0.294,0.1718874,-1.432395,0.2291832000000001,-5.58061092,-73.1380887,35.05357044
6.32,632,-0.948,0.028999999999999998,-0.294,0.11459160000000004,-1.5469866,0.40107059999999994,-5.59779966,-73.15527744,35.07075918
6.33,633,-0.951,0.031,-0.293,0.2291832000000001,-1.6615782,0.40107059999999994,-5.60925882,-73.17246618,35.08794792
6.34,634,-0.953,0.032,-0.29100000000000004,0.1718874,-1.3750992,0.286479,-5.62071798,-73.18392534,35.09940708000001
6.35,635,-0.951,0.032,-0.292,0.057295800000000015,-0.9740286,0.1718874,-5.735309579999999,-73.14381828,35.20826909999999
6.36,636,-0.951,0.033,-0.295,0.11459160000000004,-0.9740286,0.11459160000000004,-5.74103916,-73.15527744,35.21972826
6.37,637,-0.953,0.032,-0.295,0.1718874,-1.145916,0.11459160000000004,-5.7467687399999985,-73.16673660000002,35.22545784
6.38,638,-0.953,0.032,-0.295,0.3437748,-1.3750992,0.1718874,-5.75249832,-73.17819576000002,35.236917
6.39,639,-0.953,0.031,-0.293,0.40107059999999994,-1.3750992,0.11459160000000004,-5.75249832,-73.18965492,35.24264658
6.4,640,-0.95,0.03,-0.29100000000000004,0.286479,-1.145916,0.11459160000000004,-5.815523699999999,-73.17246618,35.31140154000001
6.41,641,-0.95,0.03,-0.292,0.2291832000000001,-0.7448454000000001,0.2291832000000001,-5.8269828599999975,-73.17819576000002,35.31713112
6.42,642,-0.951,0.03,-0.289,0.0,0.1718874,0.1718874,-5.83271244,-73.17819576000002,35.3228607
6.43,643,-0.951,0.032,-0.28800000000000003,-0.2291832000000001,0.572958,0.057295800000000015,-5.83844202,-73.17246618,35.32859028
6.4399999999999995,644,-0.95,0.033,-0.294,-0.286479,1.145916,-0.057295800000000015,-5.83271244,-73.16100702,35.3228607
6.45,645,-0.9520000000000001,0.031,-0.295,-0.1718874,1.0313244000000001,-0.11459160000000004,-5.895737819999999,-73.09798164,35.37442692000001
6.46,646,-0.9520000000000001,0.03,-0.29100000000000004,-0.11459160000000004,0.9167328000000001,-0.11459160000000004,-5.89000824,-73.09225205999998,35.36869734
6.47,647,-0.951,0.031,-0.289,-0.286479,1.3750992,-0.1718874,-5.88427866,-73.07506332,35.35723818
6.4799999999999995,648,-0.95,0.031,-0.289,-0.4583664000000001,1.5469866,-0.1718874,-5.87854908,-73.06360416,35.34577901999999
6.49,649,-0.95,0.035,-0.289,-0.6875496,1.8334656000000005,-0.3437748,-5.86708992,-73.04641542,35.32859028
6.5,650,-0.9490000000000001,0.035,-0.289,-0.6875496,2.6929026,-0.6302538000000001,-5.87854908,-73.00630836,35.32859028
6.51,651,-0.9520000000000001,0.034,-0.295,-0.572958,3.4377480000000005,-0.9167328000000001,-5.849901179999999,-72.97766046000002,35.28848322
6.52,652,-0.9540000000000001,0.033,-0.29600000000000004,-0.4583664000000001,3.8961144,-1.2032118,-5.80406454,-72.93755340000001,35.236917
6.53,653,-0.956,0.032,-0.29600000000000004,-0.2291832000000001,4.4117766,-1.3750992,-5.75249832,-72.89744634,35.17962120000001
6.54,654,-0.9570000000000001,0.031,-0.297,0.0,4.4690724,-1.4896908000000002,-5.6952025200000005,-72.85160970000003,35.122325399999994
6.55,655,-0.9590000000000001,0.032,-0.295,0.1718874,4.297185,-1.5469866,-5.64936588,-72.80577306,35.076488760000004
6.56,656,-0.958,0.032,-0.295,0.2291832000000001,4.1825934,-1.7188740000000002,-5.5863404999999995,-72.76566600000002,35.0077338
6.57,657,-0.955,0.031,-0.298,0.1718874,3.7815228,-1.6615782,-5.52331512,-72.73128852,34.93897884
6.58,658,-0.951,0.027000000000000003,-0.297,0.1718874,3.380452200000001,-1.5469866,-5.46028974,-72.69691104,34.88168304
6.59,659,-0.9470000000000001,0.027000000000000003,-0.295,-0.11459160000000004,2.6356068,-1.3750992,-5.4144530999999985,-72.67399272,34.82438724000001
6.6,660,-0.9470000000000001,0.027999999999999997,-0.29600000000000004,-0.2291832000000001,1.8334656000000005,-1.2032118,-5.39153478,-72.64534482,34.80146892
6.61,661,-0.948,0.03,-0.298,-0.3437748,1.0313244000000001,-1.145916,-5.3571573,-72.63388566,34.76136186
6.62,662,-0.9490000000000001,0.028999999999999998,-0.3,-0.40107059999999994,0.6875496,-1.0886202,-5.3285094000000015,-72.62815608,34.7212548
6.63,663,-0.95,0.027000000000000003,-0.299,-0.40107059999999994,0.6875496,-1.145916,-5.29413192,-72.6224265,34.68114774
6.64,664,-0.9490000000000001,0.025,-0.298,-0.6302538000000001,1.3750992,-1.145916,-5.25975444,-72.61096734,34.64104068
6.65,665,-0.946,0.024,-0.299,-0.9740286,1.9480572,-1.145916,-5.231106540000001,-72.57658986,34.60093362
6.66,666,-0.948,0.024,-0.304,-0.8594370000000001,1.9480572,-1.0886202,-5.2024586400000015,-72.55940111999998,34.560826559999995
6.67,667,-0.946,0.022000000000000002,-0.305,-0.572958,1.2605076000000002,-0.8021411999999999,-5.17954032,-72.54794196,34.53217866
6.68,668,-0.945,0.022000000000000002,-0.303,-0.3437748,0.8021411999999999,-0.6302538000000001,-5.16235158,-72.54221238,34.50926034
6.6899999999999995,669,-0.946,0.022000000000000002,-0.303,-0.057295800000000015,0.5156622000000001,-0.40107059999999994,-5.15089242,-72.5364828,34.4920716
6.7,670,-0.946,0.023,-0.303,-0.286479,0.286479,-0.40107059999999994,-5.13943326,-72.49064616,34.47488286
6.71,671,-0.943,0.025,-0.304,-0.4583664000000001,0.2291832000000001,-0.3437748,-5.13370368,-72.48491658,34.4634237
6.72,672,-0.94,0.025,-0.306,-0.40107059999999994,0.0,-0.1718874,-5.13370368,-72.48491658,34.45769412
6.7299999999999995,673,-0.9420000000000001,0.025,-0.303,-0.2291832000000001,-0.11459160000000004,-0.057295800000000015,-5.13370368,-72.48491658,34.45769412
6.74,674,-0.94,0.028999999999999998,-0.301,-0.1718874,0.7448454000000001,-0.2291832000000001,-5.1222445200000015,-72.479187,34.44623496
6.75,675,-0.938,0.028999999999999998,-0.304,-0.057295800000000015,1.3178034,-0.286479,-5.15089242,-72.43335035999998,34.46915328
6.76,676,-0.94,0.027999999999999997,-0.303,-0.2291832000000001,1.3178034,-0.2291832000000001,-5.14516284,-72.4218912,34.45769412
