TimeStamp(s),FrameCounter,AccX,AccY,AccZ,GyrX,GyrY,GyrZ,EulerX,EulerY,EulerZ
0.01,1,0.11,-0.9540000000000001,0.272,0.8021411999999999,-1.2032118,1.0886202,105.8826384,7.734933000000002,-48.11701284
0.02,2,0.109,-0.9540000000000001,0.27399999999999997,0.9740286,-0.9167328000000001,0.8021411999999999,105.88836798,7.72920342,-48.128471999999995
0.03,3,0.10800000000000001,-0.956,0.275,1.2032118,-0.572958,0.40107059999999994,105.89982714,7.72347384,-48.13420158
0.04,4,0.106,-0.961,0.278,1.2032118,-0.3437748,0.0,105.91128629999999,7.72920342,-48.13993116
0.05,5,0.107,-0.9670000000000001,0.282,1.432395,-0.3437748,-0.11459160000000004,105.91128629999999,7.70055552,-48.14566074
0.060000000000000005,6,0.099,-0.975,0.28600000000000003,1.6042823999999998,-0.286479,-0.1718874,105.92847504,7.7062851,-48.15139032
0.06999999999999999,7,0.09699999999999999,-0.982,0.28800000000000003,1.3750992,-0.1718874,-0.2291832000000001,105.9399342,7.7062851,-48.15139032
0.08,8,0.098,-0.986,0.287,1.0886202,0.3437748,-0.057295800000000015,105.95139336,7.7062851,-48.14566074
0.09,9,0.1,-0.985,0.28800000000000003,0.8594370000000001,0.9740286,0.11459160000000004,105.96285252,7.70055552,-48.13993116
0.09999999999999999,10,0.10099999999999999,-0.981,0.29,0.5156622000000001,1.5469866,0.286479,105.95712294,7.66617804,-48.128471999999995
0.11,11,0.10099999999999999,-0.977,0.287,0.1718874,2.1772404,0.4583664000000001,105.96285252,7.65471888,-48.10555368
0.12,12,0.10099999999999999,-0.9740000000000001,0.28600000000000003,0.11459160000000004,2.4064236,0.572958,105.96285252,7.63753014,-48.08263536
0.13,13,0.10099999999999999,-0.9740000000000001,0.285,0.0,2.4064236,0.6302538000000001,105.9685821,7.62607098,-48.06544662
0.14,14,0.10099999999999999,-0.973,0.284,0.0,2.2345362,0.7448454000000001,105.9685821,7.61461182,-48.0425283
0.15000000000000002,15,0.10300000000000001,-0.971,0.285,0.0,2.1772404,0.6875496,105.95712294,7.574504760000001,-48.03106913999999
0.16,16,0.106,-0.9670000000000001,0.285,0.0,2.1199446,0.572958,105.96285252,7.5630456000000015,-48.00815082
0.17,17,0.111,-0.9620000000000001,0.28300000000000003,-0.057295800000000015,2.0626488000000003,0.5156622000000001,105.96285252,7.551586439999999,-47.99096208
0.18000000000000002,18,0.11199999999999999,-0.9590000000000001,0.284,0.057295800000000015,1.8334656000000005,0.3437748,105.9685821,7.54012728,-47.97377334
0.19,19,0.113,-0.9590000000000001,0.285,0.1718874,1.6615782,0.2291832000000001,105.9685821,7.534397699999999,-47.9565846
0.2,20,0.115,-0.9590000000000001,0.28600000000000003,0.11459160000000004,1.6042823999999998,0.11459160000000004,105.95712294,7.51147938,-47.94512544000001
0.21000000000000002,21,0.11800000000000001,-0.956,0.28600000000000003,0.0,1.4896908000000002,-0.057295800000000015,105.96285252,7.505749800000001,-47.93366628
0.22,22,0.11900000000000001,-0.9520000000000001,0.287,0.2291832000000001,1.3178034,-0.11459160000000004,105.96285252,7.505749800000001,-47.92220712
0.23,23,0.12,-0.953,0.289,0.5156622000000001,1.145916,-0.286479,105.97431168,7.505749800000001,-47.91074796
0.24000000000000002,24,0.11900000000000001,-0.955,0.289,0.7448454000000001,1.0886202,-0.1718874,105.98004126,7.500020219999999,-47.8992888
0.25,25,0.12,-0.9570000000000001,0.28800000000000003,0.7448454000000001,1.0886202,-0.2291832000000001,105.98004126,7.49429064,-47.88782964
0.26,26,0.121,-0.956,0.28800000000000003,0.7448454000000001,1.0313244000000001,-0.1718874,105.99150042,7.49429064,-47.87637048
0.27,27,0.122,-0.955,0.29100000000000004,1.0313244000000001,0.8021411999999999,-0.11459160000000004,106.00295958,7.49429064,-47.8706409
0.28,28,0.122,-0.9570000000000001,0.29100000000000004,1.2032118,0.286479,-0.1718874,106.01441874,7.49429064,-47.86491131999999
0.29000000000000004,29,0.12300000000000001,-0.958,0.29100000000000004,1.0886202,0.11459160000000004,-0.1718874,106.02587790000001,7.49429064,-47.86491131999999
0.3,30,0.121,-0.9590000000000001,0.292,1.2605076000000002,-0.057295800000000015,-0.3437748,106.03733706,7.49429064,-47.86491131999999
0.31,31,0.122,-0.96,0.293,1.2605076000000002,-0.11459160000000004,-0.4583664000000001,106.04879622,7.500020219999999,-47.86491131999999
0.32,32,0.122,-0.9620000000000001,0.294,1.3178034,-0.057295800000000015,-0.572958,106.06025538,7.505749800000001,-47.86491131999999
0.33,33,0.125,-0.9640000000000001,0.292,1.0313244000000001,0.057295800000000015,-0.572958,106.07171454000002,7.51147938,-47.85918174
0.34,34,0.125,-0.966,0.29,0.9740286,0.0,-0.40107059999999994,106.0831737,7.51720896,-47.85918174
0.35000000000000003,35,0.124,-0.9670000000000001,0.29,1.0313244000000001,-0.2291832000000001,-0.3437748,106.07744412,7.51720896,-47.86491131999999
0.36000000000000004,36,0.12300000000000001,-0.965,0.28800000000000003,1.145916,-0.286479,-0.11459160000000004,106.08890328,7.51720896,-47.8706409
0.37,37,0.122,-0.965,0.28600000000000003,1.2032118,-0.3437748,0.0,106.10036244,7.51720896,-47.8706409
0.38,38,0.12,-0.9640000000000001,0.287,1.0886202,-0.286479,0.0,106.1118216,7.52293854,-47.87637048
0.39,39,0.11900000000000001,-0.963,0.289,0.8594370000000001,0.0,0.0,106.12328076,7.51720896,-47.87637048
0.4,40,0.11900000000000001,-0.9620000000000001,0.287,0.572958,0.11459160000000004,-0.11459160000000004,106.08890328,7.505749800000001,-47.88782964
0.41000000000000003,41,0.11900000000000001,-0.961,0.285,0.286479,0.0,-0.1718874,106.08890328,7.505749800000001,-47.88782964
0.42000000000000004,42,0.12,-0.9620000000000001,0.285,0.2291832000000001,0.0,-0.1718874,106.09463286,7.505749800000001,-47.88782964
0.43,43,0.12300000000000001,-0.963,0.284,0.1718874,-0.057295800000000015,-0.286479,106.09463286,7.51147938,-47.88782964
0.44,44,0.12300000000000001,-0.9640000000000001,0.28600000000000003,0.1718874,-0.1718874,-0.2291832000000001,106.09463286,7.51147938,-47.88782964
0.45,45,0.12300000000000001,-0.9640000000000001,0.292,0.0,-0.1718874,-0.286479,106.07744412,7.505749800000001,-47.89355922
0.46,46,0.126,-0.963,0.294,-0.057295800000000015,0.0,-0.2291832000000001,106.07171454000002,7.51147938,-47.89355922
0.47000000000000003,47,0.127,-0.9620000000000001,0.292,-0.3437748,0.1718874,-0.11459160000000004,106.07171454000002,7.51147938,-47.89355922
0.48000000000000004,48,0.126,-0.96,0.292,-0.4583664000000001,0.057295800000000015,0.0,106.06598496,7.51147938,-47.89355922
0.49,49,0.125,-0.958,0.292,-0.40107059999999994,0.0,-0.11459160000000004,106.06025538,7.51147938,-47.89355922
0.5,50,0.124,-0.958,0.29,-0.2291832000000001,0.0,-0.2291832000000001,106.03733706,7.51147938,-47.8992888
0.51,51,0.124,-0.9590000000000001,0.292,-0.286479,-0.2291832000000001,-0.2291832000000001,106.03733706,7.51147938,-47.8992888
0.52,52,0.124,-0.958,0.292,-0.1718874,-0.5156622000000001,-0.286479,106.03160748,7.51720896,-47.90501838
0.53,53,0.12300000000000001,-0.9590000000000001,0.29100000000000004,-0.057295800000000015,-0.8594370000000001,-0.3437748,106.03160748,7.52293854,-47.91074796
0.54,54,0.122,-0.96,0.292,0.0,-0.9740286,-0.40107059999999994,106.03160748,7.534397699999999,-47.91647754
0.55,55,0.12,-0.9590000000000001,0.29100000000000004,0.0,-0.7448454000000001,-0.40107059999999994,106.01441874,7.528668120000002,-47.9279367
0.56,56,0.121,-0.9590000000000001,0.293,0.0,-0.6302538000000001,-0.3437748,106.01441874,7.534397699999999,-47.93366628
0.5700000000000001,57,0.121,-0.96,0.295,-0.11459160000000004,-0.40107059999999994,-0.3437748,106.01441874,7.54012728,-47.93939586000001
0.5800000000000001,58,0.11800000000000001,-0.961,0.294,-0.11459160000000004,-0.5156622000000001,-0.286479,106.00868916,7.545856859999999,-47.93939586000001
0.59,59,0.115,-0.961,0.294,-0.286479,-0.5156622000000001,-0.2291832000000001,106.00868916,7.551586439999999,-47.94512544000001
0.6,60,0.11199999999999999,-0.96,0.295,-0.1718874,-0.11459160000000004,-0.1718874,106.00295958,7.46564274,-47.94512544000001
0.61,61,0.11199999999999999,-0.9620000000000001,0.295,-0.11459160000000004,0.1718874,-0.2291832000000001,106.00295958,7.47137232,-47.93939586000001
0.62,62,0.113,-0.9620000000000001,0.295,-0.2291832000000001,0.2291832000000001,-0.1718874,105.99723,7.47137232,-47.93939586000001
0.63,63,0.113,-0.9640000000000001,0.295,-0.286479,0.4583664000000001,-0.2291832000000001,105.99723,7.47137232,-47.93366628
0.64,64,0.11199999999999999,-0.965,0.294,-0.057295800000000015,0.572958,-0.286479,105.99723,7.47137232,-47.92220712
0.65,65,0.113,-0.965,0.295,-0.11459160000000004,0.7448454000000001,-0.40107059999999994,105.99150042,7.45418358,-47.91647754
0.66,66,0.11800000000000001,-0.9640000000000001,0.294,-0.286479,0.8021411999999999,-0.3437748,105.99150042,7.45418358,-47.90501838
0.67,67,0.11800000000000001,-0.963,0.292,-0.40107059999999994,0.7448454000000001,-0.3437748,105.98577084,7.45418358,-47.8992888
0.68,68,0.11699999999999999,-0.9620000000000001,0.29,-0.4583664000000001,0.4583664000000001,-0.3437748,105.98577084,7.459913160000001,-47.89355922
0.6900000000000001,69,0.11599999999999999,-0.9640000000000001,0.293,-0.572958,0.4583664000000001,-0.4583664000000001,105.98004126,7.459913160000001,-47.88782964
0.7000000000000001,70,0.11599999999999999,-0.963,0.292,-0.7448454000000001,0.6302538000000001,-0.40107059999999994,105.96285252,7.45418358,-47.88210005999999
0.7100000000000001,71,0.11599999999999999,-0.965,0.29,-0.6875496,0.4583664000000001,-0.286479,105.95712294,7.45418358,-47.87637048
0.72,72,0.11599999999999999,-0.968,0.292,-0.8021411999999999,0.3437748,-0.286479,105.95139336,7.45418358,-47.8706409
0.73,73,0.11599999999999999,-0.9690000000000001,0.295,-0.9167328000000001,0.5156622000000001,-0.1718874,105.9399342,7.45418358,-47.86491131999999
0.74,74,0.115,-0.9690000000000001,0.298,-1.2032118,0.7448454000000001,-0.11459160000000004,105.92847504,7.45418358,-47.85918174
0.75,75,0.11800000000000001,-0.9670000000000001,0.297,-1.4896908000000002,1.2032118,-0.057295800000000015,105.91701588,7.448453999999999,-47.84772258
0.76,76,0.121,-0.966,0.295,-1.6615782,1.432395,0.0,105.89982714,7.4427244199999985,-47.83053384
0.77,77,0.12300000000000001,-0.9640000000000001,0.29100000000000004,-1.8334656000000005,1.432395,0.11459160000000004,105.8826384,7.43699484,-47.81907468
0.78,78,0.121,-0.961,0.289,-1.7761698000000001,1.0313244000000001,0.2291832000000001,105.86544966,7.431265259999999,-47.80761552
0.79,79,0.11900000000000001,-0.958,0.28800000000000003,-1.6042823999999998,0.8594370000000001,0.1718874,105.8539905,7.431265259999999,-47.80188594
0.8,80,0.11900000000000001,-0.956,0.287,-1.3178034,0.9740286,0.11459160000000004,105.83107218,7.4198061,-47.79615636000001
0.81,81,0.121,-0.956,0.28800000000000003,-1.2605076000000002,1.0313244000000001,0.0,105.81961302,7.4198061,-47.784697200000004
0.8200000000000001,82,0.124,-0.956,0.28800000000000003,-1.0886202,0.9167328000000001,0.0,105.81388344,7.41407652,-47.77323804
0.8300000000000001,83,0.125,-0.955,0.287,-0.9740286,0.3437748,0.0,105.80242428,7.41407652,-47.77323804
0.8400000000000001,84,0.125,-0.956,0.287,-0.8594370000000001,0.0,0.0,105.79096511999998,7.41407652,-47.77323804
0.85,85,0.125,-0.9570000000000001,0.287,-0.6302538000000001,-0.1718874,0.0,105.77377638,7.42553568,-47.77896762
0.86,86,0.125,-0.9570000000000001,0.29,-0.5156622000000001,-0.11459160000000004,-0.1718874,105.7680468,7.42553568,-47.77896762
0.87,87,0.127,-0.958,0.289,-0.5156622000000001,0.2291832000000001,-0.2291832000000001,105.76231722,7.42553568,-47.77896762
0.88,88,0.124,-0.9590000000000001,0.28600000000000003,-0.572958,0.286479,-0.3437748,105.75658764,7.431265259999999,-47.77323804
0.89,89,0.12300000000000001,-0.9590000000000001,0.287,-0.6875496,0.057295800000000015,-0.2291832000000001,105.75085806,7.431265259999999,-47.77323804
0.9,90,0.12300000000000001,-0.96,0.28800000000000003,-0.5156622000000001,-0.11459160000000004,-0.1718874,105.73366932000002,7.43699484,-47.77323804
0.91,91,0.12300000000000001,-0.9620000000000001,0.28800000000000003,-0.1718874,-0.11459160000000004,-0.2291832000000001,105.73366932000002,7.43699484,-47.77323804
0.92,92,0.122,-0.963,0.287,-0.11459160000000004,-0.2291832000000001,-0.2291832000000001,105.73366932000002,7.4427244199999985,-47.77896762
0.93,93,0.12,-0.963,0.28800000000000003,-0.1718874,-0.1718874,-0.2291832000000001,105.72793973999998,7.4427244199999985,-47.77896762
0.9400000000000001,94,0.12,-0.961,0.29,-0.057295800000000015,-0.11459160000000004,-0.2291832000000001,105.72793973999998,7.448453999999999,-47.77896762
0.9500000000000001,95,0.11900000000000001,-0.96,0.29100000000000004,0.0,-0.057295800000000015,-0.3437748,105.73366932000002,7.431265259999999,-47.77323804
0.9600000000000001,96,0.11900000000000001,-0.9620000000000001,0.292,-0.11459160000000004,0.2291832000000001,-0.4583664000000001,105.73366932000002,7.43699484,-47.77323804
0.97,97,0.12,-0.9640000000000001,0.289,-0.286479,0.3437748,-0.4583664000000001,105.73366932000002,7.43699484,-47.76750846
0.98,98,0.11699999999999999,-0.9640000000000001,0.28800000000000003,-0.4583664000000001,0.0,-0.3437748,105.72793973999998,7.4427244199999985,-47.76750846
0.99,99,0.11699999999999999,-0.965,0.289,-0.572958,-0.11459160000000004,-0.40107059999999994,105.72221016,7.448453999999999,-47.76750846
1.0,100,0.11900000000000001,-0.965,0.29,-0.572958,0.0,-0.3437748,105.70502142,7.4427244199999985,-47.76750846
1.01,101,0.11900000000000001,-0.966,0.292,-0.5156622000000001,0.0,-0.3437748,105.69929184,7.4427244199999985,-47.76750846
1.02,102,0.12,-0.965,0.29100000000000004,-0.4583664000000001,-0.11459160000000004,-0.40107059999999994,105.69929184,7.448453999999999,-47.76750846
1.03,103,0.11599999999999999,-0.965,0.292,-0.5156622000000001,-0.057295800000000015,-0.3437748,105.69356226,7.45418358,-47.76750846
1.04,104,0.115,-0.9640000000000001,0.293,-0.40107059999999994,0.11459160000000004,-0.286479,105.68783268,7.45418358,-47.76177888
1.05,105,0.11699999999999999,-0.9640000000000001,0.293,-0.572958,0.4583664000000001,-0.3437748,105.68783268,7.4427244199999985,-47.75604930000001
1.06,106,0.11900000000000001,-0.9620000000000001,0.29100000000000004,-0.5156622000000001,0.9740286,-0.3437748,105.68783268,7.4427244199999985,-47.74459014
1.07,107,0.121,-0.9590000000000001,0.289,-0.6302538000000001,0.8594370000000001,-0.3437748,105.6821031,7.448453999999999,-47.738860560000006
1.08,108,0.121,-0.9590000000000001,0.28800000000000003,-0.6302538000000001,0.5156622000000001,-0.286479,105.67064394000002,7.448453999999999,-47.72740140000001
1.09,109,0.122,-0.958,0.289,-0.5156622000000001,0.3437748,-0.2291832000000001,105.67064394000002,7.448453999999999,-47.72740140000001
1.1,110,0.122,-0.958,0.28800000000000003,-0.3437748,0.286479,-0.2291832000000001,105.65918478,7.4427244199999985,-47.72167182000001
1.11,111,0.122,-0.96,0.28800000000000003,-0.286479,0.286479,-0.11459160000000004,105.65918478,7.448453999999999,-47.72167182000001
1.12,112,0.122,-0.96,0.29,-0.1718874,0.3437748,-0.057295800000000015,105.65918478,7.448453999999999,-47.71594224
1.1300000000000001,113,0.12300000000000001,-0.961,0.292,-0.057295800000000015,0.5156622000000001,-0.057295800000000015,105.65918478,7.4427244199999985,-47.71021266
1.1400000000000001,114,0.12300000000000001,-0.96,0.29100000000000004,-0.1718874,0.9167328000000001,-0.057295800000000015,105.6534552,7.4427244199999985,-47.6987535
1.1500000000000001,115,0.12300000000000001,-0.9590000000000001,0.295,-0.4583664000000001,1.2605076000000002,-0.057295800000000015,105.66491436,7.43699484,-47.68729434
1.1600000000000001,116,0.126,-0.956,0.295,-0.6302538000000001,1.8907614,-0.1718874,105.65918478,7.43699484,-47.66437602000001
1.17,117,0.127,-0.958,0.292,-0.8021411999999999,2.0626488000000003,-0.11459160000000004,105.6534552,7.431265259999999,-47.64718728
1.18,118,0.129,-0.96,0.29100000000000004,-0.7448454000000001,1.8907614,-0.057295800000000015,105.64772562,7.42553568,-47.62999854
1.19,119,0.129,-0.961,0.29,-0.6875496,1.7761698000000001,0.11459160000000004,105.64199604,7.4198061,-47.6128098
1.2,120,0.129,-0.963,0.287,-0.572958,1.5469866,0.2291832000000001,105.63053688,7.4198061,-47.60135064
1.21,121,0.128,-0.966,0.285,-0.6302538000000001,1.145916,0.4583664000000001,105.62480729999999,7.41407652,-47.58989147999999
1.22,122,0.129,-0.9640000000000001,0.285,-0.7448454000000001,0.40107059999999994,0.6302538000000001,105.61907772,7.402617360000002,-47.58989147999999
1.23,123,0.128,-0.961,0.287,-0.572958,-0.40107059999999994,0.5156622000000001,105.60761856,7.402617360000002,-47.59562106
1.24,124,0.125,-0.961,0.29100000000000004,-0.3437748,-0.7448454000000001,0.1718874,105.60761856,7.402617360000002,-47.60135064
1.25,125,0.122,-0.963,0.289,-0.5156622000000001,-0.8594370000000001,-0.11459160000000004,105.5961594,7.402617360000002,-47.6128098
1.26,126,0.11699999999999999,-0.965,0.28600000000000003,-0.5156622000000001,-0.9740286,-0.11459160000000004,105.59042981999998,7.408346939999999,-47.61853938
1.27,127,0.113,-0.968,0.28800000000000003,-0.40107059999999994,-1.3178034,0.0,105.58470024,7.408346939999999,-47.62999854
1.28,128,0.111,-0.9690000000000001,0.28800000000000003,-0.40107059999999994,-1.145916,0.1718874,105.57897066,7.408346939999999,-47.641457700000004
1.29,129,0.111,-0.966,0.28800000000000003,-0.6302538000000001,-0.8594370000000001,0.1718874,105.5675115,7.41407652,-47.65291686
1.3,130,0.11,-0.9640000000000001,0.29,-0.7448454000000001,-0.40107059999999994,0.1718874,105.5675115,7.37969904,-47.65291686
1.31,131,0.113,-0.963,0.289,-0.6875496,0.1718874,0.057295800000000015,105.56178192,7.37969904,-47.65291686
1.32,132,0.11599999999999999,-0.9640000000000001,0.287,-0.8021411999999999,0.7448454000000001,0.0,105.55032276,7.37969904,-47.64718728
1.33,133,0.11699999999999999,-0.9640000000000001,0.28600000000000003,-0.8594370000000001,1.0313244000000001,0.0,105.54459318,7.37396946,-47.63572812
1.34,134,0.11599999999999999,-0.963,0.287,-0.7448454000000001,0.9740286,0.0,105.5388636,7.37396946,-47.62426896
1.35,135,0.11599999999999999,-0.9620000000000001,0.287,-0.6302538000000001,0.9167328000000001,0.0,105.53313402,7.3567807200000015,-47.61853938
1.36,136,0.11800000000000001,-0.96,0.287,-0.6302538000000001,0.8594370000000001,-0.11459160000000004,105.52740443999998,7.3567807200000015,-47.60708021999999
1.37,137,0.11599999999999999,-0.958,0.28800000000000003,-0.3437748,0.6302538000000001,-0.2291832000000001,105.52167486,7.3567807200000015,-47.60135064
1.3800000000000001,138,0.11800000000000001,-0.96,0.29,-0.2291832000000001,0.6302538000000001,-0.286479,105.52167486,7.3567807200000015,-47.59562106
1.3900000000000001,139,0.121,-0.9620000000000001,0.292,-0.286479,0.6875496,-0.3437748,105.52167486,7.3625102999999985,-47.5841619
1.4000000000000001,140,0.122,-0.9620000000000001,0.292,-0.40107059999999994,0.8594370000000001,-0.3437748,105.52167486,7.3625102999999985,-47.57270274
1.4100000000000001,141,0.124,-0.9640000000000001,0.292,-0.5156622000000001,0.8021411999999999,-0.2291832000000001,105.52167486,7.3625102999999985,-47.56697316
1.42,142,0.124,-0.965,0.292,-0.6302538000000001,0.5156622000000001,-0.057295800000000015,105.51594528,7.3567807200000015,-47.56124358
1.43,143,0.125,-0.9640000000000001,0.29,-0.7448454000000001,0.40107059999999994,-0.057295800000000015,105.50448612,7.3567807200000015,-47.555514
1.44,144,0.125,-0.963,0.287,-0.6875496,0.3437748,0.0,105.49875654,7.3567807200000015,-47.555514
1.45,145,0.124,-0.9590000000000001,0.287,-0.5156622000000001,0.0,0.0,105.49875654,7.3625102999999985,-47.54978442
1.46,146,0.11900000000000001,-0.96,0.28800000000000003,-0.286479,-0.2291832000000001,-0.057295800000000015,105.49875654,7.36823988,-47.555514
1.47,147,0.11699999999999999,-0.96,0.29100000000000004,-0.2291832000000001,-0.40107059999999994,0.0,105.49302696,7.36823988,-47.555514
1.48,148,0.11599999999999999,-0.96,0.292,-0.4583664000000001,-0.3437748,0.0,105.48729738000002,7.36823988,-47.56124358
1.49,149,0.11699999999999999,-0.961,0.293,-0.6875496,-0.3437748,-0.057295800000000015,105.48156780000001,7.36823988,-47.56697316
1.5,150,0.11800000000000001,-0.963,0.29100000000000004,-0.9167328000000001,-0.5156622000000001,0.0,105.47010864,7.36823988,-47.56697316
1.51,151,0.12,-0.963,0.287,-1.0886202,-0.6302538000000001,0.057295800000000015,105.45864948,7.36823988,-47.57843232000001
1.52,152,0.121,-0.9640000000000001,0.289,-1.0886202,-0.6875496,0.11459160000000004,105.44719032,7.36823988,-47.5841619
1.53,153,0.12300000000000001,-0.9640000000000001,0.293,-1.145916,-0.8021411999999999,0.057295800000000015,105.43573116,7.36823988,-47.58989147999999
1.54,154,0.124,-0.9640000000000001,0.293,-1.3178034,-0.8021411999999999,0.11459160000000004,105.41854242,7.36823988,-47.60135064
1.55,155,0.124,-0.9640000000000001,0.294,-1.6615782,-0.9167328000000001,0.1718874,105.41281284,7.37396946,-47.60708021999999
1.56,156,0.122,-0.963,0.295,-1.7761698000000001,-0.9740286,0.057295800000000015,105.38989451999998,7.37396946,-47.61853938
1.57,157,0.121,-0.9620000000000001,0.297,-1.7188740000000002,-0.8594370000000001,0.2291832000000001,105.37270577999998,7.37396946,-47.62999854
1.58,158,0.122,-0.963,0.294,-1.8334656000000005,-0.9740286,0.286479,105.34978746,7.37396946,-47.63572812
1.59,159,0.124,-0.9640000000000001,0.29100000000000004,-1.9480572,-1.145916,0.40107059999999994,105.32686914,7.37396946,-47.65291686
1.6,160,0.125,-0.963,0.292,-2.0053530000000004,-1.2032118,0.5156622000000001,105.31540998,7.37396946,-47.66437602000001
1.61,161,0.128,-0.9640000000000001,0.287,-2.0626488000000003,-1.2032118,0.6302538000000001,105.29249166,7.36823988,-47.67583517999999
1.62,162,0.127,-0.966,0.285,-2.1772404,-1.2605076000000002,0.8594370000000001,105.26384376,7.3625102999999985,-47.69302392
1.6300000000000001,163,0.124,-0.966,0.287,-2.0626488000000003,-0.9167328000000001,0.8021411999999999,105.24665502,7.3625102999999985,-47.70448308
1.6400000000000001,164,0.12300000000000001,-0.965,0.285,-1.9480572,-0.5156622000000001,0.7448454000000001,105.2237367,7.3567807200000015,-47.71021266
1.6500000000000001,165,0.121,-0.963,0.28300000000000003,-2.0626488000000003,-0.40107059999999994,0.6875496,105.20081838000002,7.34532156,-47.71594224
1.6600000000000001,166,0.11900000000000001,-0.9620000000000001,0.282,-1.8334656000000005,-0.572958,0.6302538000000001,105.18362964,7.33959198,-47.72167182000001
1.6700000000000002,167,0.11699999999999999,-0.961,0.284,-1.4896908000000002,-0.8594370000000001,0.572958,105.1664409,7.33959198,-47.73313098
1.68,168,0.11800000000000001,-0.96,0.285,-1.4896908000000002,-0.6875496,0.286479,105.14925216,7.33959198,-47.738860560000006
1.69,169,0.11800000000000001,-0.961,0.284,-1.6042823999999998,-0.572958,0.2291832000000001,105.13206342,7.33959198,-47.75031972
1.7,170,0.121,-0.9620000000000001,0.281,-1.7188740000000002,-0.40107059999999994,0.1718874,105.11487468,7.33959198,-47.75031972
1.71,171,0.121,-0.963,0.282,-1.7761698000000001,-0.11459160000000004,0.2291832000000001,105.09195636,7.333862399999999,-47.75604930000001
1.72,172,0.121,-0.9640000000000001,0.281,-1.8907614,-0.1718874,0.286479,105.07476762,7.333862399999999,-47.75604930000001
1.73,173,0.12,-0.9640000000000001,0.27899999999999997,-1.9480572,-0.11459160000000004,0.286479,105.0518493,7.328132819999999,-47.76177888
1.74,174,0.121,-0.9620000000000001,0.281,-2.0053530000000004,-0.11459160000000004,0.2291832000000001,105.03466056,7.328132819999999,-47.76177888
1.75,175,0.12300000000000001,-0.961,0.278,-1.3178034,-0.057295800000000015,0.2291832000000001,105.02893098,7.328132819999999,-47.76177888
1.76,176,0.12300000000000001,-0.9640000000000001,0.28300000000000003,-1.5469866,-0.11459160000000004,0.1718874,105.01174224,7.328132819999999,-47.76750846
1.77,177,0.12,-0.9640000000000001,0.281,-1.3750992,0.0,0.2291832000000001,105.00028308,7.328132819999999,-47.76750846
1.78,178,0.11800000000000001,-0.9670000000000001,0.284,-1.145916,0.0,0.2291832000000001,104.98882392,7.32240324,-47.76750846
1.79,179,0.11599999999999999,-0.9640000000000001,0.285,-1.3178034,0.0,0.286479,104.97163518,7.32240324,-47.76750846
1.8,180,0.11900000000000001,-0.96,0.28600000000000003,-1.4896908000000002,-0.11459160000000004,0.286479,104.97163518,7.316673659999997,-47.76750846
1.81,181,0.121,-0.9620000000000001,0.28600000000000003,-1.6615782,0.0,0.1718874,104.95444644,7.31094408,-47.76750846
1.82,182,0.12,-0.9640000000000001,0.285,-1.8334656000000005,0.11459160000000004,0.057295800000000015,104.9372577,7.31094408,-47.76750846
1.83,183,0.11800000000000001,-0.966,0.284,-1.9480572,0.1718874,0.057295800000000015,104.91433938,7.31094408,-47.76750846
1.84,184,0.114,-0.968,0.28300000000000003,-1.8334656000000005,0.286479,0.11459160000000004,104.89715064,7.305214500000001,-47.76177888
1.85,185,0.115,-0.968,0.285,-1.7761698000000001,0.4583664000000001,0.1718874,104.88569148000002,7.29375534,-47.75604930000001
1.86,186,0.11800000000000001,-0.9690000000000001,0.284,-1.7761698000000001,0.7448454000000001,0.1718874,104.86850274,7.29375534,-47.75031972
1.87,187,0.11699999999999999,-0.9670000000000001,0.281,-1.8334656000000005,0.9167328000000001,0.286479,104.851314,7.282296179999999,-47.74459014
1.8800000000000001,188,0.11699999999999999,-0.9670000000000001,0.28,-1.8334656000000005,0.8021411999999999,0.286479,104.83412526,7.2765666,-47.73313098
1.8900000000000001,189,0.11599999999999999,-0.9620000000000001,0.282,-1.5469866,0.8594370000000001,0.2291832000000001,104.81693652,7.2765666,-47.72740140000001
1.9000000000000001,190,0.115,-0.963,0.27699999999999997,-1.432395,0.9167328000000001,0.057295800000000015,104.79974778,7.265107439999999,-47.72167182000001
1.9100000000000001,191,0.114,-0.96,0.27699999999999997,-1.432395,0.5156622000000001,0.057295800000000015,104.78828862,7.265107439999999,-47.71594224
1.9200000000000002,192,0.11699999999999999,-0.9590000000000001,0.281,-1.3178034,0.8021411999999999,-0.11459160000000004,104.77682946,7.259377859999999,-47.70448308
1.93,193,0.121,-0.9590000000000001,0.28600000000000003,-1.432395,1.2605076000000002,-0.2291832000000001,104.75964072,7.259377859999999,-47.69302392
1.94,194,0.122,-0.9620000000000001,0.285,-1.6042823999999998,1.5469866,-0.2291832000000001,104.74818156,7.259377859999999,-47.67583517999999
1.95,195,0.126,-0.9640000000000001,0.28,-2.3491277999999998,1.4896908000000002,0.0,104.72526323999998,7.259377859999999,-47.66437602000001
1.96,196,0.127,-0.961,0.27899999999999997,-2.3491277999999998,1.432395,-0.057295800000000015,104.70234492,7.259377859999999,-47.64718728
1.97,197,0.122,-0.9640000000000001,0.27899999999999997,-2.0053530000000004,1.0313244000000001,-0.2291832000000001,104.68515618,7.25364828,-47.641457700000004
1.98,198,0.115,-0.966,0.275,-1.9480572,0.6875496,-0.2291832000000001,104.66796744,7.25364828,-47.62999854
1.99,199,0.115,-0.9690000000000001,0.275,-1.8907614,0.6875496,-0.2291832000000001,104.64504912,7.25364828,-47.62426896
2.0,200,0.11599999999999999,-0.9670000000000001,0.27899999999999997,-1.7761698000000001,0.7448454000000001,-0.3437748,104.63931954000002,7.25364828,-47.6128098
2.01,201,0.11800000000000001,-0.968,0.282,-1.8334656000000005,0.8594370000000001,-0.286479,104.6221308,7.25364828,-47.60708021999999
2.02,202,0.11599999999999999,-0.9690000000000001,0.27899999999999997,-1.7188740000000002,0.8594370000000001,-0.11459160000000004,104.60494206,7.25364828,-47.59562106
2.03,203,0.115,-0.97,0.281,-2.0626488000000003,0.6302538000000001,0.0,104.58202374,7.2479187000000005,-47.58989147999999
2.04,204,0.114,-0.97,0.282,-2.2345362,0.9167328000000001,0.0,104.55910542,7.2479187000000005,-47.5841619
2.05,205,0.115,-0.971,0.281,-2.2345362,0.8594370000000001,0.057295800000000015,104.54764626,7.23645954,-47.57270274
2.0599999999999996,206,0.11900000000000001,-0.973,0.28,-2.3491277999999998,0.8021411999999999,0.0,104.52472794,7.23645954,-47.56697316
2.07,207,0.11699999999999999,-0.973,0.278,-2.4637194,0.7448454000000001,0.0,104.49608004,7.23645954,-47.56124358
2.0799999999999996,208,0.11800000000000001,-0.975,0.278,-2.6356068,0.8594370000000001,0.0,104.47316172,7.2307299600000015,-47.54978442
2.09,209,0.11900000000000001,-0.975,0.282,-2.9220858,1.0313244000000001,0.0,104.44451382,7.2307299600000015,-47.53832526000001
2.0999999999999996,210,0.121,-0.976,0.284,-3.1512689999999997,1.0886202,0.057295800000000015,104.4215955,7.225000379999999,-47.5268661
2.11,211,0.122,-0.9740000000000001,0.281,-3.5523396000000003,0.7448454000000001,0.4583664000000001,104.38721802,7.2192707999999985,-47.521136520000006
2.1199999999999997,212,0.121,-0.972,0.278,-3.7815228,0.6302538000000001,0.6875496,104.34711096,7.20781164,-47.521136520000006
2.13,213,0.12300000000000001,-0.971,0.27699999999999997,-4.1252976000000015,0.40107059999999994,0.7448454000000001,104.30700390000001,7.20208206,-47.51540694
2.1399999999999997,214,0.132,-0.9670000000000001,0.281,-4.1252976000000015,0.057295800000000015,0.7448454000000001,104.26116726,7.1906228999999975,-47.521136520000006
2.15,215,0.124,-0.966,0.28600000000000003,-3.9534102,-1.0313244000000001,0.6875496,104.23251936,7.1906228999999975,-47.5268661
2.1599999999999997,216,0.11699999999999999,-0.9670000000000001,0.289,-4.6982555999999995,-2.3491277999999998,0.6302538000000001,104.18095314,7.1848933200000005,-47.555514
2.17,217,0.114,-0.9670000000000001,0.28300000000000003,-5.443101,-2.291832,0.5156622000000001,104.12365734,7.1906228999999975,-47.57843232000001
2.1799999999999997,218,0.114,-0.972,0.272,-5.6722842,-1.7761698000000001,0.3437748,104.06636154,7.1906228999999975,-47.59562106
2.19,219,0.11199999999999999,-0.975,0.268,-5.2712136,-1.3178034,0.2291832000000001,104.00906573999998,7.1906228999999975,-47.6128098
2.1999999999999997,220,0.113,-0.975,0.272,-4.8128472,-0.7448454000000001,0.4583664000000001,103.9632291,7.1848933200000005,-47.61853938
2.21,221,0.115,-0.972,0.276,-4.583664,-0.572958,0.8594370000000001,103.91739246,7.17916374,-47.62999854
2.2199999999999998,222,0.115,-0.968,0.276,-4.6982555999999995,-0.572958,1.2605076000000002,103.86582624,7.167704579999999,-47.63572812
2.23,223,0.11699999999999999,-0.966,0.273,-4.8128472,-0.40107059999999994,1.7188740000000002,103.8199896,7.15051584,-47.64718728
2.2399999999999998,224,0.11800000000000001,-0.966,0.272,-4.6409598,-0.11459160000000004,1.8907614,103.76842338000002,7.1333271000000025,-47.65291686
2.25,225,0.11800000000000001,-0.966,0.271,-4.9847346,-0.2291832000000001,1.8907614,103.72258674000004,7.11040878,-47.65864644
2.26,226,0.111,-0.9670000000000001,0.28,-5.5003968,-0.8594370000000001,1.8334656000000005,103.66529094,7.098949620000001,-47.67583517999999
2.27,227,0.11,-0.9640000000000001,0.282,-6.130650599999999,-1.5469866,1.7188740000000002,103.60226556,7.08176088,-47.69302392
2.28,228,0.113,-0.968,0.27699999999999997,-6.5317212,-1.2032118,1.5469866,103.53351059999999,7.0703017200000025,-47.71021266
2.29,229,0.11699999999999999,-0.972,0.27,-6.7609043999999985,-0.9167328000000001,1.5469866,103.46475564,7.05884256,-47.72167182000001
2.3,230,0.11599999999999999,-0.976,0.265,-6.3598338,-0.7448454000000001,1.7188740000000002,103.40173026,7.0416538200000005,-47.73313098
2.31,231,0.11199999999999999,-0.981,0.26,-6.0733548,-1.2032118,2.1199446,103.33870488,7.0244650800000015,-47.75031972
2.32,232,0.11,-0.981,0.264,-6.2452422,-1.9480572,2.4637194,103.26994992,7.00727634,-47.77896762
2.3299999999999996,233,0.113,-0.9790000000000001,0.27,-6.0160589999999985,-1.3178034,2.7501984,103.20692454,6.98435802,-47.80188594
2.34,234,0.115,-0.98,0.266,-6.2452422,-0.8021411999999999,3.0939732,103.14389916,6.955710119999999,-47.81334510000001
2.3499999999999996,235,0.115,-0.981,0.262,-7.0473834,-0.8594370000000001,3.8961144,103.06941462,6.9156030600000005,-47.83053384
2.36,236,0.114,-0.982,0.259,-7.333862400000001,-1.2032118,4.4117766,102.99493008,6.875496000000001,-47.85345216
2.3699999999999997,237,0.11199999999999999,-0.983,0.256,-7.7922288,-1.3750992,4.4690724,102.90898638,6.83538894,-47.88210005999999
2.38,238,0.114,-0.982,0.257,-8.307891,-1.2605076000000002,4.4690724,102.82304268,6.79528188,-47.90501838
2.3899999999999997,239,0.11800000000000001,-0.983,0.259,-8.5370742,-0.7448454000000001,4.3544808,102.73709898,6.7551748200000015,-47.92220712
2.4,240,0.126,-0.9840000000000001,0.259,-8.8235532,0.0,4.4117766,102.6454257,6.7150677599999975,-47.93366628
2.4099999999999997,241,0.127,-0.982,0.248,-9.396511199999999,0.40107059999999994,4.6409598,102.55375242,6.669231119999999,-47.93939586000001
2.42,242,0.11900000000000001,-0.978,0.256,-9.9694692,0.0,4.9847346,102.45061998,6.6176648999999985,-47.95085502
2.4299999999999997,243,0.11800000000000001,-0.976,0.258,-10.1986524,0.11459160000000004,5.72958,102.34175796,6.560369099999999,-47.96231418000001
2.44,244,0.11800000000000001,-0.9740000000000001,0.251,-10.886202,0.1718874,6.3025379999999975,102.23289594,6.5030733,-47.97950292
2.4499999999999997,245,0.11800000000000001,-0.9740000000000001,0.256,-11.1153852,0.572958,6.703608600000001,102.12403392000002,6.43431834,-47.9852325
2.46,246,0.125,-0.978,0.26,-11.3445684,1.3750992,6.8182002000000015,102.00944232,6.3655633799999976,-47.99096208
2.4699999999999998,247,0.13,-0.978,0.255,-11.688343199999998,2.2345362,7.1046792000000005,101.88912114,6.29107884,-47.9852325
2.48,248,0.136,-0.9790000000000001,0.24600000000000002,-12.0894138,2.6356068,7.6203414,101.76307038,6.210864720000001,-47.97377334
2.4899999999999998,249,0.138,-0.9790000000000001,0.239,-11.802934800000001,2.4637194,8.021412000000002,101.64847878,6.12492102,-47.96804376
2.5,250,0.133,-0.9740000000000001,0.239,-11.2299768,1.8907614,8.307891,101.53388718,6.0447069,-47.96804376
2.51,251,0.12300000000000001,-0.968,0.237,-10.7143146,1.9480572,8.4224826,101.42502516,5.958763200000001,-47.96804376
2.52,252,0.10800000000000001,-0.963,0.231,-10.599723,1.2605076000000002,8.4224826,101.31616314,5.8728194999999985,-47.97377334
2.53,253,0.1,-0.958,0.233,-10.1413566,0.7448454000000001,8.250595200000001,101.2130307,5.7868758,-47.9852325
2.54,254,0.086,-0.9590000000000001,0.235,-9.740286,1.145916,7.734933000000002,101.11562784,5.70666168,-47.9852325
2.55,255,0.083,-0.961,0.235,-9.5111028,1.6615782,6.703608600000001,101.02395456,5.63790672,-47.9852325
2.56,256,0.07400000000000001,-0.9690000000000001,0.235,-9.5111028,3.0939732,5.72958,100.9265517,5.574881339999999,-47.96804376
2.57,257,0.079,-0.978,0.23,-10.4278356,4.7555514,5.2139178,100.82341926,5.51185596,-47.9279367
2.5799999999999996,258,0.084,-0.983,0.21899999999999997,-10.5424272,5.5576926,5.2139178,100.72028682,5.44883058,-47.88782964
2.59,259,0.081,-0.992,0.21,-10.657018800000001,6.703608600000001,6.0160589999999985,100.61715438,5.37434604,-47.83626342
2.5999999999999996,260,0.08,-0.9940000000000001,0.207,-10.5424272,6.990087599999999,6.417129599999999,100.51402194,5.29413192,-47.77896762
2.61,261,0.07400000000000001,-0.997,0.19699999999999998,-10.5424272,7.6776372,6.990087599999999,100.4108895,5.20818822,-47.72167182000001
2.6199999999999997,262,0.078,-0.995,0.20199999999999999,-10.4278356,7.5630456000000015,7.2192707999999985,100.30775706,5.1222445200000015,-47.65864644
2.63,263,0.076,-0.992,0.192,-10.657018800000001,8.193299399999999,7.3911582,100.20462462,5.03057124,-47.59562106
2.6399999999999997,264,0.07200000000000001,-0.995,0.191,-10.657018800000001,7.6203414,7.8495246,100.10149218,4.93889796,-47.53832526000001
2.65,265,0.07200000000000001,-0.9940000000000001,0.19399999999999998,-10.4851314,6.703608600000001,8.021412000000002,99.99835974,4.84722468,-47.48675904
2.6599999999999997,266,0.068,-0.995,0.188,-11.2299768,7.161975,7.9641161999999985,99.88949772,4.749821819999998,-47.42946324
2.67,267,0.083,-0.997,0.19399999999999998,-11.8602306,7.333862400000001,7.5057497999999985,99.76917654,4.66387812,-47.37789702
2.6799999999999997,268,0.08199999999999999,-0.995,0.187,-12.6623718,7.333862400000001,7.333862400000001,99.64312578,4.57793442,-47.31487163999999
2.69,269,0.07200000000000001,-0.997,0.175,-12.6623718,7.333862400000001,7.333862400000001,99.5228046,4.49199072,-47.25757584
2.6999999999999997,270,0.077,-1.003,0.177,-12.605075999999999,6.6463128000000005,7.2192707999999985,99.39675384,4.40604702,-47.211739200000004
2.71,271,0.077,-0.998,0.17800000000000002,-12.776963400000001,7.2192707999999985,7.5630456000000015,99.27070308,4.3201033199999985,-47.15444340000001
2.7199999999999998,272,0.073,-0.998,0.172,-12.4904844,7.5630456000000015,7.734933000000002,99.14465232,4.22843004,-47.09141802
2.73,273,0.076,-1.0,0.182,-11.745639,7.1046792000000005,7.7922288,99.03006072,4.13675676,-47.0398518
2.7399999999999998,274,0.061,-0.9990000000000001,0.191,-12.605075999999999,7.161975,8.021412000000002,98.90400996,4.04508348,-46.982556
2.75,275,0.06,-0.9990000000000001,0.192,-13.6936962,7.2192707999999985,8.4224826,98.76650004,3.94768062,-46.925260200000004
2.76,276,0.065,-1.001,0.187,-15.3552744,7.333862400000001,8.9381448,98.61753096,3.84454818,-46.8679644
2.77,277,0.068,-1.004,0.17800000000000002,-15.3552744,7.9641161999999985,9.167328,98.4628323,3.74141574,-46.80493902
2.78,278,0.07,-1.012,0.18,-15.011499599999999,8.59437,9.453807,98.31386322,3.63255372,-46.74191363999999
2.79,279,0.06,-1.013,0.183,-15.870936600000002,8.479778399999999,10.026765,98.15343498,3.51796212,-46.67315868000001
2.8,280,0.054000000000000006,-1.006,0.184,-16.329303,8.5370742,10.599723,97.99300674,3.39764094,-46.60440372
2.81,281,0.054000000000000006,-1.004,0.187,-16.272007199999994,8.8235532,11.1153852,97.8325785,3.27159018,-46.53564876
2.82,282,0.049,-1.001,0.195,-16.673077799999998,9.3392154,11.5164558,97.66642068,3.14553942,-46.46116422
2.8299999999999996,283,0.051,-1.003,0.19899999999999998,-17.4179232,10.4851314,11.8602306,97.49453327999998,3.0080294999999997,-46.3809501
2.84,284,0.057999999999999996,-1.0090000000000001,0.21100000000000002,-18.1054728,10.599723,12.605075999999999,97.31118672,2.86479,-46.2950064
2.8499999999999996,285,0.053,-1.0170000000000001,0.205,-19.308684600000007,10.3705398,13.407217200000002,97.12211058,2.71582092,-46.209062700000004
2.86,286,0.046,-1.022,0.19,-21.657812399999997,10.4278356,14.381245800000002,96.90438654,2.5611222600000003,-46.12884858
2.8699999999999997,287,0.039,-1.018,0.187,-22.9756158,11.9748222,15.297978599999999,96.67520334,2.38923486,-46.03144572000001
2.88,288,0.044000000000000004,-1.0190000000000001,0.174,-23.7204612,12.3758928,16.386598799999998,96.43456098,2.2058883,-45.93404286
2.8899999999999997,289,0.045,-1.0170000000000001,0.165,-23.0902074,12.834259199999998,17.131444199999994,96.20537778,2.01681216,-45.83091042
2.9,290,0.04,-1.0090000000000001,0.172,-24.064236,13.636400400000001,17.9908812,95.96473541999998,1.82200644,-45.71631882
2.9099999999999997,291,0.040999999999999995,-0.997,0.192,-24.0069402,14.266654199999998,18.1054728,95.72409306,1.62147114,-45.60172722
2.92,292,0.039,-1.0,0.2,-23.9496444,15.126091199999998,18.1054728,95.4834507,1.42666542,-45.46994688
2.9299999999999997,293,0.034,-1.01,0.183,-25.0955604,15.870936600000002,18.6784308,95.23134918,1.22040054,-45.33816654
2.94,294,0.017,-1.0190000000000001,0.158,-26.241476399999996,17.475219,19.5378678,94.96205892,1.0026765,-45.18346788
2.9499999999999997,295,0.02,-1.015,0.171,-26.7571386,18.907614,20.3973048,94.69849824,0.7792228800000001,-45.01731006
2.96,296,0.013999999999999999,-1.0070000000000001,0.17600000000000002,-27.215505,21.314037600000002,21.199446,94.41774882,0.5443101,-44.82823392
2.9699999999999998,297,0.027000000000000003,-1.008,0.159,-28.5906042,22.631841,22.4599536,94.12554024,0.29793816,-44.62769862
2.98,298,0.017,-0.9990000000000001,0.149,-30.080295,22.0015872,23.605869600000002,93.8218725,0.04010706,-44.4328929
2.9899999999999998,299,0.03,-0.9940000000000001,0.152,-28.361421000000004,22.4026578,23.835052800000003,93.52966392,-0.21199446,-44.2323576
3.0,300,0.034,-0.9940000000000001,0.134,-27.960350399999996,21.5432208,24.694489800000003,93.24318492,-0.47555514,-44.03755188
3.01,301,0.027000000000000003,-0.997,0.114,-28.361421000000004,22.058882999999998,25.668518399999996,92.95097633999998,-0.75057498,-43.83701658
3.02,302,0.035,-0.9990000000000001,0.121,-28.81978740000001,21.944291399999997,26.41336380000001,92.65303818,-1.0313244000000001,-43.63648128
3.03,303,0.033,-0.9890000000000001,0.136,-28.81978740000001,20.3973048,27.215505,92.35510002,-1.3178034,-43.45313472
3.04,304,0.022000000000000002,-0.986,0.122,-28.762491600000004,19.194093,28.1895336,92.05716186,-1.61001198,-43.27551774
3.05,305,0.063,-0.985,0.132,-30.137590799999998,18.2200644,29.392745399999995,91.74776454000002,-1.91367972,-43.10935992
3.06,306,0.166,-0.95,0.14800000000000002,-32.658606,15.813640800000002,33.116972399999995,91.40971932,-2.25172494,-42.97185
3.07,307,0.45899999999999996,-0.863,0.223,-40.33624320000001,4.0680017999999984,45.893935799999994,90.99718956,-2.71009134,-42.9432021
3.08,308,0.757,-0.7,0.271,-53.22779820000001,-20.340009,70.473834,90.47579778,-3.4091001000000003,-43.16092614
3.09,309,0.392,-0.521,0.039,-40.393539000000004,-46.1804148,97.689339,90.10337508,-4.36593996,-43.63075170000001
3.0999999999999996,310,0.193,-0.852,0.24100000000000002,8.4224826,-74.88561059999998,94.0797036,90.27526248,-5.2712136,-44.38132668
3.11,311,-0.172,-1.561,0.23399999999999999,14.7250206,-118.20123540000002,52.54024860000001,90.5560119,-5.75249832,-45.55589058
3.1199999999999997,312,-0.42200000000000004,-1.5759999999999998,-0.21899999999999997,-35.17962120000001,-66.00476160000001,19.8243468,90.27526248,-5.930115299999999,-46.22052186000001
3.13,313,-0.45299999999999996,-1.044,0.017,-50.76407879999999,-33.9191136,25.3247436,89.79970734,-6.17648724,-46.56429666
3.1399999999999997,314,-0.402,-0.778,0.057,-40.04976420000001,-20.9702628,38.0444112,89.42155505999996,-6.5546395199999985,-46.77629112
3.15,315,-0.34600000000000003,-0.8590000000000001,0.055,-18.1054728,-8.4224826,40.393539000000004,89.24966766,-6.96716928,-46.85650524
3.1599999999999997,316,-0.239,-0.973,0.11,-16.558486199999994,-1.5469866,41.252976000000004,89.08350984,-7.37969904,-46.8679644
3.17,317,-0.12300000000000001,-1.018,0.114,-20.9702628,-2.0626488000000003,42.5707794,88.87151537999998,-7.80368796,-46.88515314
3.1799999999999997,318,-0.059000000000000004,-0.995,0.078,-25.2674478,-3.8961144,44.9199072,88.62514344,-8.250595200000001,-46.91953062
3.19,319,-0.008,-0.978,0.08199999999999999,-27.960350399999996,-6.6463128000000005,47.498218200000004,88.35012359999996,-8.72615034,-46.97682642
3.1999999999999997,320,0.01,-0.9890000000000001,0.037000000000000005,-30.252182399999995,-8.7089616,49.2170922,88.05791502,-9.20743506,-47.05704054
3.21,321,-0.005,-0.983,0.013999999999999999,-30.882436199999997,-8.59437,51.1651494,87.75997686000002,-9.71736768,-47.1257955
3.2199999999999998,322,-0.01,-0.9940000000000001,0.023,-29.163562199999998,-7.5630456000000015,51.9672906,87.47349786,-10.23875946,-47.18882088
3.23,323,-0.054000000000000006,-0.965,-0.005,-28.762491600000004,-5.72958,52.54024860000001,87.19274844,-10.76015124,-47.22319836000001
3.2399999999999998,324,-0.102,-0.9420000000000001,-0.023,-25.78311,0.057295800000000015,52.54024860000001,86.92345818,-11.2872726,-47.20028004
3.25,325,-0.114,-0.935,0.028999999999999998,-23.319390600000002,3.7815228,52.139178,86.68281582,-11.79720522,-47.13725466
3.26,326,-0.115,-0.9259999999999999,0.057,-22.345361999999998,4.5263682,52.19647379999999,86.43644388,-12.318597,-47.06277012
3.27,327,-0.121,-0.9129999999999999,0.062,-21.772404,4.4117766,52.5975444,86.2015311,-12.839988780000002,-46.98828558
3.28,328,-0.11599999999999999,-0.903,0.064,-21.829699800000004,3.7815228,53.5142772,85.96661832,-13.372839720000002,-46.91380104
3.29,329,-0.11699999999999999,-0.9009999999999999,0.068,-22.2880662,3.7242269999999995,54.717489,85.72024638,-13.911420239999998,-46.83931650000001
3.3,330,-0.111,-0.8959999999999999,0.086,-23.605869600000002,4.8128472,55.6915176,85.46814486,-14.45573034,-46.753372799999994
3.31,331,-0.102,-0.8859999999999999,0.084,-25.0382646,7.906820400000001,56.2071798,85.18166586000002,-15.011499600000002,-46.63305162
3.32,332,-0.105,-0.8809999999999999,0.066,-25.496631,9.5111028,56.436363,84.8837277,-15.567268860000002,-46.48981212
3.33,333,-0.113,-0.879,0.044000000000000004,-25.7258142,10.7716104,56.72284200000001,84.58005996,-16.12303812,-46.32938388
3.34,334,-0.124,-0.879,0.04,-25.78311,12.7196676,56.66554620000001,84.26493306,-16.678807380000002,-46.14603732
3.3499999999999996,335,-0.131,-0.8740000000000001,0.038,-26.2987722,15.813640800000002,55.6915176,83.938347,-17.21165832,-45.92831328
3.36,336,-0.14300000000000002,-0.8759999999999999,0.036000000000000004,-26.642546999999997,19.767051000000002,54.54560160000001,83.58884262000002,-17.73877968,-45.6647526
3.3699999999999997,337,-0.151,-0.882,0.013000000000000001,-28.074942,24.1788276,53.571573,83.20496076,-18.2487123,-45.35535528000001
3.38,338,-0.152,-0.888,-0.028999999999999998,-29.5646328,27.6165756,52.7694318,82.78670142,-18.74718576,-45.0058509
3.3899999999999997,339,-0.146,-0.883,-0.034,-30.997027799999998,32.6013102,52.0818822,82.33979418,-19.22847048,-44.59905072
3.4,340,-0.135,-0.872,-0.013999999999999999,-31.856464799999998,37.872523799999996,51.56622,81.85850946000002,-19.69256646,-44.13495474
3.4099999999999997,341,-0.121,-0.8540000000000001,0.0,-32.7731976,43.3729206,51.4516284,81.34284726,-20.15093286,-43.60783338
3.42,342,-0.11,-0.831,0.003,-33.804522,48.0138804,52.19647379999999,80.79280758000002,-20.60356968,-43.0291458
3.4299999999999997,343,-0.106,-0.818,-0.021,-35.3515086,51.33703679999999,53.9726436,80.20266084,-21.06766566,-42.398892
3.44,344,-0.085,-0.8109999999999999,-0.057,-37.6433406,53.571573,56.0925882,79.57240704,-21.5432208,-41.7399903
3.4499999999999997,345,-0.045,-0.805,-0.066,-39.304918799999996,55.4623344,57.86875799999999,78.91350534,-22.01304636,-41.04671112
3.46,346,-0.018000000000000002,-0.804,-0.084,-41.1383844,57.4103916,59.4157446,78.21449658,-22.50006066,-40.31905446
3.4699999999999998,347,-0.013000000000000001,-0.807,-0.086,-45.9512316,57.92605379999999,61.07732280000001,77.45246244,-22.99280454,-39.57993864
3.48,348,-0.023,-0.8079999999999999,-0.134,-54.08723520000001,54.8320806,63.48374640000001,76.61594376000002,-23.50846674,-38.85228198
3.4899999999999998,349,-0.044000000000000004,-0.812,-0.149,-63.770225399999994,49.847346,66.11935319999999,75.68202222,-24.04704726,-38.16473238
3.5,350,-0.055999999999999994,-0.7909999999999999,-0.166,-71.90622900000002,47.7274014,68.1247062,74.66788656,-24.59135736,-37.47718278000001
3.51,351,-0.047,-0.767,-0.08900000000000001,-75.5731602,50.133825,69.041439,73.59072552,-25.14139704,-36.74952612
3.52,352,-0.011000000000000001,-0.7040000000000001,0.003,-79.92764100000002,51.0505578,69.38521379999999,72.45053909999999,-25.67424798,-35.99895114
3.53,353,0.04,-0.636,-0.05,-77.2920342,51.2224452,70.7030172,71.32181184,-26.20709892,-35.22545784
3.54,354,0.102,-0.607,-0.177,-72.5937786,46.3523022,71.7343416,70.24465079999999,-26.745679440000004,-34.48634202
3.55,355,0.179,-0.604,-0.213,-65.4890994,34.4347758,72.07811640000001,69.29354052,-27.3014487,-33.85035864
3.56,356,0.27899999999999997,-0.613,-0.21,-58.9000824,24.4080108,72.4218912,68.43983309999999,-27.903054600000004,-33.31177812
3.57,357,0.36200000000000004,-0.583,-0.226,-55.290447,12.605075999999999,73.73969459999998,67.67206938000001,-28.544767560000004,-32.876330040000006
3.58,358,0.395,-0.522,-0.268,-51.9099948,-0.4583664000000001,75.45856859999998,66.99024935999999,-29.24377632,-32.55547356
3.59,359,0.42,-0.457,-0.28300000000000003,-47.269035,-12.2040054,77.1201468,66.41156178,-30.000080879999995,-32.3434791
3.5999999999999996,360,0.402,-0.41200000000000003,-0.281,-39.4195104,-25.0382646,79.18279559999998,65.96465454,-30.7964925,-32.24607624
3.61,361,0.33899999999999997,-0.408,-0.177,-32.142943800000005,-38.38818600000001,79.5838662,65.6609868,-31.66738866,-32.280453720000004
3.6199999999999997,362,0.33,-0.489,-0.105,-25.668518399999996,-49.04520479999999,77.80769640000003,65.4890994,-32.56693272,-32.43515238
3.63,363,0.36200000000000004,-0.413,-0.09699999999999999,-23.892348600000002,-63.82752120000001,64.97343719999999,65.46618108,-33.403451399999994,-32.81330466
3.6399999999999997,364,0.377,-0.631,-0.07,-8.880849000000003,-74.31265259999998,52.9413192,65.69536428,-34.16548554000001,-33.36907392
3.65,365,0.41,-0.895,-0.011000000000000001,-8.7662574,-80.8443738,54.3737142,65.98757286,-34.93897884,-34.0050573
3.6599999999999997,366,0.34,-0.742,-0.027000000000000003,-22.0015872,-85.0269672,61.30650600000001,66.15373068,-35.82133416,-34.658229420000005
3.67,367,0.22899999999999998,-0.581,-0.027000000000000003,-14.5531332,-86.51665799999998,69.2706222,66.40010262000001,-36.77244444,-35.30567196
3.6799999999999997,368,0.09699999999999999,-0.5489999999999999,-0.024,-6.5317212,-88.9230816,80.2714158,66.72668868000001,-37.83241674,-35.93592576
3.69,369,0.016,-0.518,-0.078,-2.9793816000000004,-91.5013926,93.392154,67.0933818,-39.0184398,-36.54899082
3.6999999999999997,370,-0.193,-0.609,-0.266,-1.0313244000000001,-97.8612264,107.77339979999999,67.50591156,-40.34770236,-37.1849742
3.71,371,-0.527,-0.779,-0.302,-0.11459160000000004,-102.9605526,122.040054,67.9528188,-41.83166358,-37.84387589999999
3.7199999999999998,372,-0.836,-0.993,-0.33,2.4637194,-98.6633676,134.1294678,68.3825373,-43.40729808,-38.42256348
3.73,373,-1.064,-1.159,-0.306,0.8021411999999999,-85.25615040000002,150.687954,68.64609798000001,-45.08606502,-38.76633828
3.7399999999999998,374,-1.199,-1.127,-0.222,-4.7555514,-72.07811640000001,178.53371280000005,68.6403684,-46.982556,-38.81217492
3.75,375,-1.3980000000000001,-1.058,-0.34,-14.896907999999998,-58.38442020000001,210.50476919999997,68.25648654,-49.12541892,-38.48558885999999
3.76,376,-1.62,-1.08,-0.389,-27.501984000000004,-44.977203,238.2359364,67.42569744,-51.48027629999999,-37.75220262000001
3.77,377,-1.774,-1.0759999999999998,-0.408,-49.847346,-26.0122932,266.9411322,65.87298125999999,-54.01848024000001,-36.43439922
3.78,378,-1.8880000000000001,-1.04,-0.58,-79.5265704,-5.5003968,288.484353,63.39207312,-56.64262788,-34.38893916
3.79,379,-1.734,-0.991,-0.475,-101.413566,9.682990199999999,292.781538,60.05172798,-59.17510224,-31.66165908
3.8,380,-1.8530000000000002,-0.868,-0.36,-112.52895120000001,15.068795399999999,294.3285246000001,55.98372618000001,-61.59871458,-28.29266604
3.81,381,-2.053,-0.361,-0.42100000000000004,-121.6962792,32.372127,321.3721422,50.55208434000001,-63.99367902,-23.57149212
3.82,382,-2.158,0.295,-0.513,-111.5549226,57.86875799999999,377.40743460000004,42.95466126,-66.36572514000001,-16.45535376
3.83,383,-1.839,0.626,-0.603,-73.6823988,65.14532460000001,422.90029979999997,33.265941479999995,-68.49139932,-6.783822719999999
3.84,384,-2.244,0.752,-0.7959999999999999,-61.191914399999995,92.0170548,429.03095040000005,21.58332786,-69.67742238,5.042030400000002
3.8499999999999996,385,-2.458,0.763,-0.9390000000000001,-49.560867,99.23632559999999,402.5602908,9.82050012,-69.84358019999999,17.02831176
3.86,386,-2.106,0.451,-0.74,-29.4500412,87.37609499999998,333.9772182,0.36096354,-69.28781094,26.79151608
3.8699999999999997,387,-1.558,0.551,-0.716,-43.888582799999995,55.7488134,257.6019168,-6.69214944,-68.60599092,33.87900654
3.88,388,-1.291,0.8390000000000001,-0.883,-33.8618178,22.345361999999998,195.83704440000002,-11.80866438,-68.08459914,39.01271022
3.8899999999999997,389,-1.551,1.043,-0.6409999999999999,-18.048177,9.682990199999999,157.5061542,-15.68186046,-67.62623274,43.0004979
3.9,390,-1.587,1.258,-0.265,-20.454600600000006,-14.037471,130.17605759999998,-18.97636896,-67.37986079999999,46.34084304
3.9099999999999997,391,-1.933,1.307,-0.215,-15.183387000000002,-44.175061799999995,104.278356,-21.801051899999997,-67.43715660000001,49.24001052
3.92,392,-1.969,1.161,-0.20800000000000002,-0.8021411999999999,-61.87946400000001,79.75575359999998,-24.11007264,-67.6949877,51.7381074
3.9299999999999997,393,-1.7280000000000002,0.99,-0.162,9.9121734,-66.0620574,60.38977320000001,-25.97218614,-68.04449208,53.86951115999999
3.94,394,-1.3419999999999999,0.6890000000000001,-0.217,17.761698000000006,-67.7236356,26.7571386,-27.08372466,-68.53150638,55.27325826
3.9499999999999997,395,-0.997,0.632,-0.298,18.277360199999997,-60.5616606,-11.2872726,-27.34155576,-69.11019395999999,55.75454298
3.96,396,-0.794,0.569,-0.322,22.86102420000001,-58.78549079999999,-39.247623,-26.83735272,-69.80920272,55.46806398
3.9699999999999998,397,-0.382,0.348,-0.312,31.627281600000003,-65.14532460000001,-64.5723666,-25.639870499999997,-70.6743693,54.54560160000001
3.98,398,-0.19,0.21600000000000005,-0.289,30.65325300000001,-72.5937786,-79.4119788,-24.04131768,-71.66558663999999,53.193420720000006
3.9899999999999998,399,-0.191,0.159,-0.243,27.903054600000004,-79.6984578,-84.68319240000002,-22.22504082,-72.71982936,51.59486790000001
4.0,400,-0.152,0.10099999999999999,-0.256,26.814434400000003,-87.66257399999998,-79.87034519999997,-20.44887102,-73.81417914,50.03642214
4.01,401,-0.20600000000000002,0.09300000000000001,-0.252,23.2620948,-97.975818,-64.28588760000001,-19.11960846,-74.94863597999998,48.91342446
4.02,402,-0.244,0.106,-0.262,20.2827132,-106.3983006,-48.185767799999994,-18.334656000000006,-76.10028156,48.3290073
4.03,403,-0.268,0.223,-0.28,11.2872726,-112.9873176,-36.7839036,-18.08255448,-77.28630462,48.20295654
4.04,404,-0.306,0.316,-0.32299999999999995,4.583664,-116.596953,-30.8251404,-18.18568692,-78.48378684000002,48.37484394
4.05,405,-0.341,0.34299999999999997,-0.33299999999999996,-1.6042823999999998,-115.9666992,-26.0122932,-18.68988996,-79.64689158,48.87904698000001
4.06,406,-0.409,0.337,-0.221,-6.990087599999999,-111.440331,-21.027558600000006,-19.52640864,-80.76988926,49.6754586
4.07,407,-0.419,0.324,-0.11699999999999999,-8.479778399999999,-91.10032199999999,-16.501190400000002,-20.44887102,-81.68089248,50.5348956
4.08,408,-0.503,0.31,-0.13699999999999998,-12.4331886,-75.4012728,-8.880849000000003,-21.76667442,-82.41427872,51.74383698000001
4.09,409,-0.733,0.359,-0.131,-15.068795399999999,-67.26526919999999,4.3544808,-24.13299096,-83.01588462000002,53.984102760000006
4.1,410,-0.895,0.256,-0.061,-10.084060800000001,-59.24385720000001,11.745639,-27.272800800000002,-83.50289891999998,57.04369848
4.109999999999999,411,-0.9640000000000001,0.193,-0.031,-9.568398599999998,-51.279740999999994,9.224623800000002,-30.20634576,-83.9096991,59.90848848
4.12,412,-0.98,0.28300000000000003,-0.022000000000000002,-17.131444199999994,-43.258328999999996,9.453807,-33.23729358,-84.23055558,62.78473764
4.13,413,-1.023,0.355,-0.001,-22.0015872,-31.455394199999997,9.7975818,-36.00468072,-84.43682046,65.3458599
4.14,414,-1.046,0.368,-0.009000000000000001,-20.9702628,-21.142150199999996,7.9641161999999985,-38.16473238,-84.56287122,67.30537626
4.1499999999999995,415,-1.0759999999999998,0.37,-0.019,-17.589810600000003,-13.8655836,6.4744254,-40.10133042,-84.61443744,69.0700869
4.16,416,-1.101,0.365,-0.027999999999999997,-13.120738199999998,-5.1566220000000005,6.5317212,-41.11546608,-84.60870786,69.9581718
4.17,417,-1.123,0.35600000000000004,-0.006,-8.193299399999999,-2.0626488000000003,7.9641161999999985,-41.98063266,-84.57433037999998,70.74312426
4.18,418,-1.225,0.342,0.035,-2.4064236,0.057295800000000015,9.7975818,-42.75985554,-84.50557542,71.49942881999998
4.1899999999999995,419,-1.275,0.304,0.076,0.40107059999999994,2.8074942000000003,7.448453999999999,-43.12654866000001,-84.43682046,71.87185152
4.2,420,-1.355,0.299,0.099,2.6356068,4.4117766,1.6615782,-43.04633454,-84.39098382,71.8202853
4.21,421,-1.3659999999999999,0.341,0.11800000000000001,3.0939732,5.6149884000000005,-3.380452200000001,-42.38170326,-84.37379508000002,71.18430192
4.22,422,-1.3430000000000002,0.36200000000000004,0.128,4.583664,7.3911582,-8.5370742,-41.20713936,-84.37379508000002,70.0441155
4.2299999999999995,423,-1.317,0.314,0.111,7.448453999999999,10.3705398,-16.329303,-39.20178636,-84.39671340000002,68.10751746
4.24,424,-1.3119999999999998,0.281,0.068,9.453807,12.891555,-25.0955604,-36.2968893,-84.44827962000002,65.28283452000001
4.25,425,-1.206,0.248,0.08199999999999999,12.834259199999998,18.2200644,-32.544014399999995,-32.49817776,-84.47692752,61.592985
4.26,426,-1.206,0.21600000000000005,0.07,17.9908812,24.637194,-39.820581,-27.55355022,-84.45973878,56.80878570000001
4.27,427,-1.24,0.19899999999999998,0.07400000000000001,22.1734746,26.5852512,-44.9199072,-22.07607174,-84.40244298,51.52611294
4.28,428,-1.284,0.165,0.078,25.8977016,26.9863218,-47.841993,-16.420976279999998,-84.29931054,46.10593026
4.29,429,-1.2990000000000002,0.11699999999999999,0.095,28.6479,28.0176462,-50.133825,-10.7429625,-84.14461188,40.68574758
4.3,430,-1.2990000000000002,0.085,0.095,28.9916748,30.65325300000001,-52.0818822,-5.22537696,-83.91542868,35.42599314
4.31,431,-1.25,0.055,0.066,27.501984000000004,35.5806918,-51.279740999999994,-0.21772404,-83.58311304,30.66471216
4.32,432,-1.1909999999999998,0.032,0.057999999999999996,26.241476399999996,43.7166954,-47.326330799999994,3.873196080000002,-83.13047622,26.80297524
4.33,433,-1.121,0.009000000000000001,0.063,27.1582092,53.34238979999999,-41.7113424,6.9327918,-82.5632478,23.98975146
4.34,434,-1.075,-0.044000000000000004,0.025,27.3300966,62.738901,-33.9764094,8.91522648,-81.90434609999998,22.259418300000004
4.35,435,-1.1440000000000001,-0.10300000000000001,0.03,26.241476399999996,61.6502808,-27.501984000000004,10.24448904,-81.26263314,21.17652768
4.36,436,-1.104,-0.141,-0.006999999999999999,22.803728399999997,63.712929599999995,-25.2674478,11.17841058,-80.59227228,20.454600600000006
4.37,437,-0.9990000000000001,-0.096,0.0,19.365980399999998,63.9994086,-21.371333399999997,11.75136858,-79.93337058,20.06498916
4.38,438,-0.909,-0.11199999999999999,-0.017,18.5638392,60.8481396,-18.162768600000003,12.135250439999998,-79.30884636,19.85872428
4.39,439,-0.88,-0.17600000000000002,-0.07400000000000001,15.5844576,51.9672906,-17.7044022,12.53632104,-78.77026584,19.60662276
4.3999999999999995,440,-0.855,-0.20199999999999999,-0.11599999999999999,12.9488508,42.456187799999995,-17.5325148,13.069171980000002,-78.32335859999998,19.194093
4.41,441,-0.8340000000000001,-0.205,-0.11199999999999999,9.5111028,32.372127,-17.4179232,13.57337502,-77.96812464000001,18.77010408
4.42,442,-0.8079999999999999,-0.196,-0.106,8.250595200000001,22.91832,-17.0168526,14.13487386,-77.71029354,18.2773602
4.43,443,-0.797,-0.18899999999999997,-0.14800000000000002,4.9274388,13.750992000000002,-15.6417534,14.70210228,-77.53840613999998,17.75023884
4.4399999999999995,444,-0.812,-0.172,-0.172,1.9480572,8.078707799999998,-12.6623718,15.166198259999998,-77.42954411999997,17.29187244
4.45,445,-0.843,-0.172,-0.19699999999999998,1.4896908000000002,5.1566220000000005,-9.9121734,15.71623794,-77.33214126,16.753291920000002
4.46,446,-0.894,-0.184,-0.22699999999999998,-0.2291832000000001,1.7188740000000002,-7.1046792000000005,15.991257780000002,-77.29776378,16.466812920000002
4.47,447,-0.9279999999999999,-0.18899999999999997,-0.244,-2.9220858,1.8907614,-4.3544808,16.117308540000003,-77.26338630000002,16.30638468
4.4799999999999995,448,-0.945,-0.20199999999999999,-0.266,-5.6149884000000005,3.4377480000000005,-1.7188740000000002,16.088660639999997,-77.22900881999998,16.27773678
4.49,449,-0.937,-0.212,-0.28300000000000003,-7.9641161999999985,6.130650599999999,0.572958,15.8995845,-77.17171302,16.392328380000002
4.5,450,-0.919,-0.218,-0.305,-9.396511199999999,8.9381448,2.8074942000000003,15.6990492,-77.05712142,16.495460819999998
4.51,451,-0.902,-0.214,-0.322,-10.313244000000001,11.0580894,5.2139178,15.23495322,-76.96544814,16.86788352
4.52,452,-0.888,-0.20800000000000002,-0.313,-10.2559482,12.4331886,6.990087599999999,14.684913540000002,-76.86804528,17.32052034
4.53,453,-0.8690000000000001,-0.2,-0.302,-10.886202,13.750992000000002,8.8235532,14.04893016,-76.75918326,17.85910086
4.54,454,-0.868,-0.18,-0.306,-12.3758928,13.8655836,10.5424272,13.33273266,-76.65605081999998,18.46070676
4.55,455,-0.8690000000000001,-0.153,-0.303,-12.891555,13.407217200000002,12.5477802,12.59361684,-76.53572964,19.08523098
4.56,456,-0.87,-0.124,-0.298,-12.605075999999999,13.464512999999998,14.0947668,11.75709816,-76.43832678,19.812887640000003
4.57,457,-0.8759999999999999,-0.098,-0.29100000000000004,-11.8602306,12.3758928,15.297978599999999,10.90339074,-76.35238308000002,20.56346262
4.58,458,-0.892,-0.066,-0.272,-11.5164558,10.5424272,15.9855282,10.04968332,-76.28362812,21.31976718
4.59,459,-0.902,-0.040999999999999995,-0.268,-10.943497800000001,8.9954406,15.469866,9.24754212,-76.22060274,22.03596468
4.6,460,-0.9179999999999999,-0.03,-0.261,-11.802934800000001,7.2192707999999985,14.438541599999999,8.47404882,-76.16903651999998,22.70059596
4.61,461,-0.9259999999999999,-0.011000000000000001,-0.254,-13.2353298,5.6149884000000005,13.6936962,7.75212174,-76.13465904,23.30793144
4.62,462,-0.938,0.006,-0.254,-13.980175199999998,4.297185,13.0061466,7.05884256,-76.11174072,23.87515986
4.63,463,-0.945,0.02,-0.248,-13.6936962,3.0939732,11.5164558,6.4400479200000005,-76.09455198,24.36790374
4.64,464,-0.948,0.027999999999999997,-0.239,-13.407217200000002,1.3750992,9.682990199999999,5.90719698,-76.09455198,24.7804335
4.6499999999999995,465,-0.958,0.035,-0.222,-13.5791046,-1.0886202,8.4224826,5.3571573,-76.12319987999999,25.19869284
4.66,466,-0.961,0.040999999999999995,-0.218,-13.2353298,-2.5783110000000002,6.6463128000000005,4.96754586,-76.15184778,25.4679831
4.67,467,-0.977,0.049,-0.226,-12.605075999999999,-3.9534102,5.0993262,4.64668938,-76.19768442,25.66278882000001
4.68,468,-0.981,0.053,-0.22399999999999998,-11.45916,-3.6669312000000014,4.2398892,4.36593996,-76.23779148,25.82894664
4.6899999999999995,469,-0.976,0.049,-0.22399999999999998,-9.9694692,-3.1512689999999997,3.5523396000000003,4.1310271799999985,-76.27789854,25.96645656
4.7,470,-0.97,0.045,-0.22,-8.5370742,-3.0939732,2.9220858,3.810170700000002,-76.31800559999998,26.20136934000001
4.71,471,-0.973,0.042,-0.217,-6.5317212,-3.9534102,2.2345362,3.666931200000001,-76.35811265999997,26.28731304
4.72,472,-0.978,0.035,-0.215,-5.2139178,-5.443101,1.6615782,3.56379876,-76.41540846000002,26.33887926000001
4.7299999999999995,473,-0.98,0.026000000000000002,-0.209,-4.583664,-6.2452422,1.2032118,3.48931422,-76.47843384000002,26.36752716
4.74,474,-0.981,0.022000000000000002,-0.188,-4.9274388,-6.2452422,0.9167328000000001,3.42055926,-76.54145922000002,26.384715900000003
4.75,475,-0.98,0.02,-0.184,-4.5263682,-6.2452422,0.6302538000000001,3.27731976,-76.62740292000002,26.48211876
4.76,476,-0.986,0.019,-0.179,-3.2658606,-7.5630456000000015,0.40107059999999994,3.25440144,-76.70188746,26.4706596
4.77,477,-0.988,0.015,-0.175,-2.4064236,-8.193299399999999,0.286479,3.24294228,-76.78210157999997,26.45920044
4.78,478,-0.985,0.013999999999999999,-0.16899999999999998,-2.5783110000000002,-9.167328,0.3437748,3.2372127,-76.87377486,26.4420117
4.79,479,-0.996,0.013000000000000001,-0.182,-2.291832,-9.9121734,0.057295800000000015,3.24294228,-76.97690730000002,26.40763422
4.8,480,-1.003,0.013000000000000001,-0.184,-2.5210152000000003,-10.1413566,-0.3437748,3.214294380000001,-77.09722848,26.41336380000001
4.81,481,-1.0070000000000001,0.015,-0.161,-3.0366774,-8.250595200000001,-1.3750992,3.27159018,-77.17744259999998,26.321690520000004
4.82,482,-1.001,0.012,-0.154,-2.86479,-4.4690724,-3.0366774,3.3919113599999995,-77.21754966,26.166991860000003
4.83,483,-1.002,-0.001,-0.154,-2.8074942000000003,-0.6875496,-4.1825934,3.5523396000000003,-77.22327924,25.97791572
4.84,484,-1.0070000000000001,-0.013999999999999999,-0.162,-2.4637194,2.0053530000000004,-4.6982555999999995,3.7242269999999995,-77.20036092000002,25.77738042
4.85,485,-1.0170000000000001,-0.017,-0.175,-1.2032118,3.380452200000001,-4.9847346,3.91330314,-77.19463134,25.56538596
4.86,486,-1.032,-0.016,-0.17800000000000002,0.286479,4.5263682,-5.3285094000000015,4.1310271799999985,-77.14306512,25.34766192
4.87,487,-1.036,-0.017,-0.177,1.0886202,6.417129599999999,-5.9014674000000005,4.37166954,-77.07431016000002,25.11274914
4.88,488,-1.04,-0.023,-0.179,1.6615782,8.651665800000002,-6.4744254,4.62377106,-76.98263688,24.8663772
4.89,489,-1.0270000000000001,-0.024,-0.19399999999999998,2.0626488000000003,9.3392154,-6.589017,4.88160216,-76.88523402000001,24.62000526
4.8999999999999995,490,-1.02,-0.032,-0.21,2.9793816000000004,8.7089616,-6.3025379999999975,5.16808116,-76.79929032,24.36217416
4.91,491,-1.005,-0.049,-0.2,3.2658606,7.8495246,-5.9014674000000005,5.40872352,-76.7190762,24.1501797
4.92,492,-0.98,-0.054000000000000006,-0.193,1.9480572,9.0527364,-5.5003968,5.60925882,-76.62167334,23.96110356
4.93,493,-0.9540000000000001,-0.055999999999999994,-0.203,0.3437748,10.1986524,-4.7555514,5.7582279000000005,-76.5185409,23.81213448
4.9399999999999995,494,-0.94,-0.057999999999999996,-0.213,-0.3437748,9.3392154,-3.6669312000000014,5.85563076,-76.42113803999997,23.70900204
4.95,495,-0.94,-0.062,-0.218,0.057295800000000015,7.1046792000000005,-2.5783110000000002,6.03897732,-76.35238308000002,23.52565548
4.96,496,-0.951,-0.064,-0.218,0.3437748,5.5003968,-1.4896908000000002,6.0733548000000015,-76.29508728,23.491278
4.97,497,-0.9620000000000001,-0.06,-0.222,0.0,4.5263682,-0.7448454000000001,6.0790843799999985,-76.24925064,23.48554842
4.9799999999999995,498,-0.973,-0.055,-0.22699999999999998,-0.8021411999999999,3.6669312000000014,-0.3437748,6.067625219999999,-76.20914358,23.48554842
4.99,499,-0.975,-0.052000000000000005,-0.222,-1.8334656000000005,2.7501984,-0.057295800000000015,6.0332477399999975,-76.18622526,23.49700758
5.0,500,-0.968,-0.047,-0.22,-2.291832,2.9220858,0.2291832000000001,6.0790843799999985,-76.16330694,23.4339822
5.01,501,-0.958,-0.048,-0.225,-2.86479,2.3491277999999998,0.572958,6.016058999999999,-76.14038862,23.46835968
5.02,502,-0.955,-0.049,-0.225,-3.2085647999999996,1.0313244000000001,1.0313244000000001,5.93584488,-76.12892946000002,23.5199259
5.03,503,-0.956,-0.046,-0.223,-3.6096353999999997,-0.057295800000000015,1.5469866,5.83271244,-76.13465904,23.58868086
5.04,504,-0.96,-0.039,-0.218,-3.8961144,-0.2291832000000001,1.8907614,5.71812084,-76.13465904,23.663165399999997
5.05,505,-0.961,-0.034,-0.212,-4.4690724,0.8021411999999999,2.0053530000000004,5.60925882,-76.14611819999998,23.73192036
5.06,506,-0.96,-0.027000000000000003,-0.218,-4.9274388,2.5210152000000003,2.0053530000000004,5.46028974,-76.12319987999999,23.82932322
5.07,507,-0.9620000000000001,-0.022000000000000002,-0.228,-4.8701430000000006,3.380452200000001,1.8907614,5.31705024,-76.09455198,23.92672608
5.08,508,-0.9670000000000001,-0.017,-0.225,-4.4117766,3.4950437999999995,2.0053530000000004,5.17381074,-76.0601745,24.02985852
5.09,509,-0.968,-0.012,-0.22,-3.9534102,3.5523396000000003,1.8907614,5.03630082,-76.02579702,24.12726138
5.1,510,-0.9670000000000001,-0.008,-0.21899999999999997,-3.5523396000000003,3.3231564,1.6042823999999998,4.86441342,-76.00860828,24.264771300000003
5.11,511,-0.9670000000000001,-0.006,-0.21899999999999997,-3.2658606,2.7501984,1.2605076000000002,4.76701056,-75.98568996,24.33352626
5.12,512,-0.966,-0.006999999999999999,-0.218,-3.0366774,1.7761698000000001,1.0313244000000001,4.68679644,-75.96850122000002,24.38509248
5.13,513,-0.9640000000000001,-0.008,-0.212,-3.0366774,1.6615782,0.9167328000000001,4.60658232,-75.95131248,24.43092912
5.14,514,-0.958,-0.006,-0.209,-2.9793816000000004,2.3491277999999998,0.572958,4.54355694,-75.92839416000002,24.4653066
5.1499999999999995,515,-0.9540000000000001,-0.005,-0.217,-3.0366774,2.8074942000000003,0.2291832000000001,4.41750618,-75.916935,24.56270946
5.16,516,-0.96,-0.005,-0.223,-2.6356068,2.1199446,0.057295800000000015,4.37739912,-75.89401668000002,24.57416862
5.17,517,-0.966,-0.003,-0.222,-2.1199446,1.145916,0.0,4.34875122,-75.88255752,24.5798982
5.18,518,-0.97,-0.002,-0.221,-1.5469866,0.6875496,-0.286479,4.34302164,-75.87682794,24.56843904
5.1899999999999995,519,-0.97,-0.005,-0.223,-0.9740286,0.8021411999999999,-0.5156622000000001,4.34875122,-75.87109836,24.5512503
5.2,520,-0.968,-0.01,-0.226,-0.9740286,0.6302538000000001,-0.8594370000000001,4.26280752,-75.88828709999999,24.62573484
5.21,521,-0.9670000000000001,-0.015,-0.223,-0.8594370000000001,0.572958,-1.145916,4.297185000000002,-75.88255752,24.5798982
5.22,522,-0.968,-0.018000000000000002,-0.214,-0.8594370000000001,0.2291832000000001,-1.3178034,4.33729206,-75.87682794,24.52833198
5.2299999999999995,523,-0.968,-0.016,-0.209,-0.7448454000000001,0.1718874,-1.432395,4.38885828,-75.87682794,24.47103618
5.24,524,-0.971,-0.019,-0.214,-0.8021411999999999,0.1718874,-1.4896908000000002,4.43469492,-75.87109836,24.4080108
5.25,525,-0.9740000000000001,-0.021,-0.217,-0.7448454000000001,0.0,-1.2605076000000002,4.49199072,-75.92266457999997,24.350715
5.26,526,-0.976,-0.023,-0.222,-0.3437748,0.11459160000000004,-1.145916,4.53209778,-75.92266457999997,24.30487836
5.27,527,-0.98,-0.027000000000000003,-0.22399999999999998,-0.11459160000000004,0.0,-1.0313244000000001,4.57220484,-75.916935,24.25904172
5.28,528,-0.982,-0.025,-0.221,-0.057295800000000015,0.057295800000000015,-1.0313244000000001,4.612311900000001,-75.916935,24.21893466
5.29,529,-0.982,-0.025,-0.21899999999999997,0.0,0.0,-0.9167328000000001,4.64668938,-75.916935,24.1788276
5.3,530,-0.98,-0.025,-0.21899999999999997,0.057295800000000015,0.057295800000000015,-1.145916,4.77274014,-75.99714911999997,24.05850642
5.31,531,-0.978,-0.027000000000000003,-0.21600000000000005,0.057295800000000015,-0.057295800000000015,-1.145916,4.82430636,-75.99714911999997,24.01266978
5.32,532,-0.972,-0.031,-0.21600000000000005,-0.11459160000000004,0.3437748,-1.145916,4.86441342,-75.99714911999997,23.96683314
5.33,533,-0.965,-0.034,-0.22,-0.2291832000000001,0.286479,-0.9167328000000001,4.898790900000002,-75.99141954000002,23.92672608
5.34,534,-0.9620000000000001,-0.035,-0.222,-0.11459160000000004,-0.11459160000000004,-0.6302538000000001,4.9217092199999986,-75.99141954000002,23.89807818
5.35,535,-0.9640000000000001,-0.035,-0.222,-0.11459160000000004,-0.8594370000000001,-0.3437748,5.13370368,-76.03725618000001,23.69754288
5.36,536,-0.971,-0.033,-0.21600000000000005,0.0,-1.5469866,0.0,5.14516284,-76.05444492,23.68608372000001
5.37,537,-0.977,-0.031,-0.21100000000000002,-0.1718874,-1.2605076000000002,0.057295800000000015,5.14516284,-76.06590408,23.68608372000001
5.38,538,-0.976,-0.032,-0.20600000000000002,-0.5156622000000001,-0.6875496,0.057295800000000015,5.13943326,-76.07163366,23.68608372000001
5.39,539,-0.977,-0.036000000000000004,-0.209,-1.0886202,-0.3437748,0.0,5.127974099999999,-76.07736324,23.68035414
5.3999999999999995,540,-0.981,-0.035,-0.215,-1.432395,-0.2291832000000001,0.057295800000000015,5.22537696,-76.12319987999999,23.57722170000001
5.41,541,-0.982,-0.032,-0.218,-1.432395,-0.057295800000000015,0.3437748,5.19672906,-76.12892946000002,23.59441044
5.42,542,-0.978,-0.03,-0.21899999999999997,-1.3750992,-0.11459160000000004,0.5156622000000001,5.16235158,-76.12892946000002,23.61159918
5.43,543,-0.977,-0.027000000000000003,-0.218,-1.0886202,-0.11459160000000004,0.8021411999999999,5.11651494,-76.12892946000002,23.64597666
5.4399999999999995,544,-0.977,-0.025,-0.21,-0.6875496,-0.11459160000000004,0.9740286,5.0706783,-76.13465904,23.68608372000001
5.45,545,-0.978,-0.024,-0.20600000000000002,-0.4583664000000001,0.0,1.0313244000000001,5.042030400000002,-76.22060274,23.720461199999995
5.46,546,-0.981,-0.023,-0.207,-0.6302538000000001,0.0,1.0886202,4.9847345999999995,-76.22060274,23.76629784
5.47,547,-0.9790000000000001,-0.019,-0.209,-0.9740286,0.11459160000000004,1.0313244000000001,4.93316838,-76.22060274,23.81213448
5.4799999999999995,548,-0.978,-0.017,-0.21,-0.9167328000000001,0.11459160000000004,0.9167328000000001,4.88160216,-76.22060274,23.85224154
5.49,549,-0.9790000000000001,-0.013999999999999999,-0.212,-0.8021411999999999,0.2291832000000001,0.8594370000000001,4.8414951,-76.22060274,23.892348600000002
5.5,550,-0.9840000000000001,-0.011000000000000001,-0.209,-0.5156622000000001,0.286479,0.6875496,4.64668938,-76.30081686,24.07569516
5.51,551,-0.986,-0.01,-0.20600000000000002,-0.5156622000000001,0.7448454000000001,0.4583664000000001,4.6180414800000005,-76.28935770000002,24.10434306
5.52,552,-0.9840000000000001,-0.011000000000000001,-0.21100000000000002,-0.40107059999999994,1.2032118,0.2291832000000001,4.59512316,-76.27789854,24.1215318
5.53,553,-0.9790000000000001,-0.013999999999999999,-0.212,-0.286479,1.7188740000000002,0.0,4.5836640000000015,-76.2607098,24.12726138
5.54,554,-0.971,-0.017,-0.214,-0.3437748,2.1772404,-0.286479,4.5836640000000015,-76.24352106,24.1215318
5.55,555,-0.9690000000000001,-0.019,-0.218,-0.1718874,2.1772404,-0.4583664000000001,4.57220484,-76.24352106,24.13299096
5.56,556,-0.97,-0.019,-0.21600000000000005,-0.057295800000000015,2.1199446,-0.5156622000000001,4.5836640000000015,-76.22060274,24.11580222
5.57,557,-0.968,-0.019,-0.213,-0.1718874,2.4637194,-0.6875496,4.6008527400000006,-76.19768442,24.098613480000004
5.58,558,-0.9690000000000001,-0.017,-0.21600000000000005,-0.3437748,2.6929026,-0.8594370000000001,4.6180414800000005,-76.16903651999998,24.07569516
5.59,559,-0.97,-0.016,-0.218,-0.1718874,2.5783110000000002,-0.9740286,4.6409598,-76.14038862,24.04704726
5.6,560,-0.971,-0.019,-0.218,-0.1718874,2.3491277999999998,-1.0886202,4.6696076999999985,-76.14038862,24.01839936
5.61,561,-0.97,-0.024,-0.218,0.0,2.0626488000000003,-1.2032118,4.70971476,-76.11747030000002,23.9782923
5.62,562,-0.9690000000000001,-0.027000000000000003,-0.21899999999999997,-0.057295800000000015,2.2345362,-1.2605076000000002,4.749821819999998,-76.09455198,23.932455659999995
5.63,563,-0.968,-0.028999999999999998,-0.223,-0.286479,1.8334656000000005,-1.432395,4.80138804,-76.07163366,23.88088944
5.64,564,-0.973,-0.03,-0.223,-0.40107059999999994,1.3178034,-1.3750992,4.8414951,-76.0601745,23.82932322
5.6499999999999995,565,-0.973,-0.027999999999999997,-0.22,-0.2291832000000001,1.145916,-1.2032118,4.93889796,-76.07736324,23.73192036
5.66,566,-0.971,-0.026000000000000002,-0.218,-0.286479,0.9740286,-1.145916,4.97900502,-76.06590408,23.68608372000001
5.67,567,-0.971,-0.027000000000000003,-0.21899999999999997,-0.286479,0.6875496,-1.0313244000000001,5.0133825000000005,-76.0601745,23.64597666
5.68,568,-0.975,-0.024,-0.21600000000000005,-0.40107059999999994,0.6302538000000001,-0.7448454000000001,5.042030400000002,-76.05444492,23.61732876
5.6899999999999995,569,-0.9690000000000001,-0.027999999999999997,-0.218,-0.40107059999999994,0.6875496,-0.8021411999999999,5.06494872,-76.04298576,23.58868086
5.7,570,-0.971,-0.032,-0.221,-0.6875496,0.9740286,-1.0886202,5.15089242,-76.05444492,23.49700758
5.71,571,-0.97,-0.027999999999999997,-0.222,-1.0313244000000001,0.2291832000000001,-1.0886202,5.1852699,-76.04871534,23.45117094
5.72,572,-0.9690000000000001,-0.027000000000000003,-0.21899999999999997,-0.9740286,0.40107059999999994,-0.9167328000000001,5.20818822,-76.04871534,23.41679346
5.7299999999999995,573,-0.966,-0.028999999999999998,-0.223,-1.145916,0.7448454000000001,-0.8021411999999999,5.22537696,-76.03725618000001,23.38814556
5.74,574,-0.966,-0.03,-0.22699999999999998,-1.0313244000000001,0.6302538000000001,-0.7448454000000001,5.2425657,-76.03152659999998,23.35949766
5.75,575,-0.9670000000000001,-0.03,-0.223,-0.572958,0.2291832000000001,-0.4583664000000001,5.33423898,-76.0888224,23.2620948
5.76,576,-0.97,-0.03,-0.218,-0.3437748,0.0,-0.286479,5.3456981400000005,-76.0888224,23.25063564
5.77,577,-0.97,-0.027999999999999997,-0.215,-0.3437748,0.11459160000000004,-0.286479,5.35142772,-76.0888224,23.23917648
5.78,578,-0.971,-0.026000000000000002,-0.22,-0.3437748,0.057295800000000015,-0.286479,5.3571573,-76.0888224,23.227717320000004
5.79,579,-0.9690000000000001,-0.027000000000000003,-0.21899999999999997,-0.6875496,0.0,-0.3437748,5.36861646,-76.0888224,23.21052858
5.8,580,-0.966,-0.027000000000000003,-0.22,-0.7448454000000001,0.0,-0.1718874,5.40872352,-76.12892946000002,23.16469194
5.81,581,-0.966,-0.027000000000000003,-0.222,-0.8594370000000001,-0.3437748,-0.11459160000000004,5.40299394,-76.13465904,23.15896236
5.82,582,-0.9690000000000001,-0.027999999999999997,-0.22399999999999998,-0.7448454000000001,-0.6302538000000001,-0.11459160000000004,5.40872352,-76.14038862,23.1475032
5.83,583,-0.97,-0.027000000000000003,-0.226,-0.572958,-0.7448454000000001,-0.1718874,5.4144530999999985,-76.14611819999998,23.13604404
5.84,584,-0.971,-0.026000000000000002,-0.22,-0.40107059999999994,-0.8021411999999999,-0.2291832000000001,5.42591226,-76.15757735999998,23.1188553
5.85,585,-0.972,-0.026000000000000002,-0.218,-0.5156622000000001,-0.2291832000000001,-0.1718874,5.4144530999999985,-76.20914358,23.12458488
5.86,586,-0.971,-0.025,-0.222,-0.40107059999999994,-0.11459160000000004,-0.2291832000000001,5.42591226,-76.20914358,23.11312572
5.87,587,-0.972,-0.025,-0.217,-0.3437748,-0.1718874,-0.1718874,5.4316418399999975,-76.20914358,23.10166656
5.88,588,-0.972,-0.026000000000000002,-0.218,-0.40107059999999994,0.0,-0.1718874,5.4316418399999975,-76.20914358,23.09593698
5.89,589,-0.972,-0.024,-0.218,-0.3437748,0.4583664000000001,-0.1718874,5.43737142,-76.20341400000002,23.090207400000004
5.8999999999999995,590,-0.971,-0.026000000000000002,-0.218,-0.11459160000000004,0.572958,-0.1718874,5.47747848,-76.2607098,23.05010034
5.91,591,-0.972,-0.027999999999999997,-0.21600000000000005,0.11459160000000004,0.4583664000000001,-0.057295800000000015,5.47747848,-76.25498022,23.05010034
5.92,592,-0.972,-0.027000000000000003,-0.214,0.2291832000000001,0.4583664000000001,-0.057295800000000015,5.48320806,-76.24925064,23.04437076
5.93,593,-0.973,-0.027000000000000003,-0.217,0.3437748,0.4583664000000001,-0.11459160000000004,5.48893764,-76.24352106,23.04437076
5.9399999999999995,594,-0.9740000000000001,-0.027000000000000003,-0.217,0.057295800000000015,0.6875496,-0.2291832000000001,5.4946672199999975,-76.23779148,23.03864118
5.95,595,-0.972,-0.026000000000000002,-0.217,0.057295800000000015,0.9167328000000001,-0.2291832000000001,5.50612638,-76.27216896,23.02718202
5.96,596,-0.976,-0.025,-0.218,0.40107059999999994,0.8594370000000001,-0.2291832000000001,5.51758554,-76.2607098,23.02145244
5.97,597,-0.976,-0.025,-0.213,0.057295800000000015,0.5156622000000001,-0.286479,5.5290447,-76.25498022,23.00999328
5.9799999999999995,598,-0.976,-0.022000000000000002,-0.212,-0.2291832000000001,0.40107059999999994,-0.4583664000000001,5.54623344,-76.24925064,22.99280454
5.99,599,-0.978,-0.019,-0.213,-0.4583664000000001,0.5156622000000001,-0.6875496,5.56342218,-76.24352106,22.96415664
6.0,600,-0.977,-0.019,-0.215,-0.5156622000000001,0.6875496,-0.8021411999999999,5.5519630200000005,-76.27216896,22.9756158
6.01,601,-0.977,-0.026000000000000002,-0.215,-0.4583664000000001,0.8021411999999999,-0.8594370000000001,5.574881339999999,-76.2607098,22.94123832
6.02,602,-0.973,-0.032,-0.217,-0.2291832000000001,0.6302538000000001,-0.8594370000000001,5.60925882,-76.25498022,22.90686084
6.03,603,-0.972,-0.036000000000000004,-0.215,-0.1718874,0.2291832000000001,-0.8021411999999999,5.63790672,-76.24925064,22.87248336
6.04,604,-0.9740000000000001,-0.034,-0.21600000000000005,-0.40107059999999994,0.572958,-0.7448454000000001,5.66082504,-76.24352106,22.84383546
6.05,605,-0.976,-0.028999999999999998,-0.223,-0.5156622000000001,0.7448454000000001,-0.572958,5.7009320999999975,-76.24925064,22.79799882
6.06,606,-0.972,-0.03,-0.222,-0.40107059999999994,0.5156622000000001,-0.4583664000000001,5.71239126,-76.24352106,22.78081008
6.07,607,-0.97,-0.034,-0.21899999999999997,-0.286479,0.11459160000000004,-0.40107059999999994,5.72958,-76.24352106,22.76362134
6.08,608,-0.97,-0.032,-0.217,-0.1718874,-0.286479,-0.286479,5.74103916,-76.24352106,22.75216218
6.09,609,-0.971,-0.031,-0.21899999999999997,-0.2291832000000001,-0.40107059999999994,-0.2291832000000001,5.7467687399999985,-76.24925064,22.73497344
6.1,610,-0.973,-0.028999999999999998,-0.218,-0.3437748,-0.286479,-0.1718874,5.79833496,-76.30081686,22.6891368
6.11,611,-0.971,-0.028999999999999998,-0.218,-0.3437748,-0.057295800000000015,0.0,5.79260538,-76.30081686,22.6891368
6.12,612,-0.97,-0.03,-0.217,-0.3437748,0.0,0.0,5.7868758,-76.30081686,22.69486638
6.13,613,-0.971,-0.027999999999999997,-0.21600000000000005,-0.40107059999999994,0.057295800000000015,0.057295800000000015,5.77541664,-76.30081686,22.70059596
6.14,614,-0.971,-0.027999999999999997,-0.22,-0.6875496,0.40107059999999994,0.057295800000000015,5.76395748,-76.30081686,22.70632554
6.15,615,-0.972,-0.026000000000000002,-0.223,-0.6302538000000001,0.8594370000000001,0.057295800000000015,5.7582279000000005,-76.30654644,22.70632554
6.16,616,-0.971,-0.027999999999999997,-0.221,-0.40107059999999994,0.9740286,0.11459160000000004,5.74103916,-76.29508728,22.71205512
6.17,617,-0.9690000000000001,-0.027999999999999997,-0.223,-0.11459160000000004,1.2032118,0.1718874,5.72958,-76.28362812,22.72924386
6.18,618,-0.968,-0.03,-0.21899999999999997,0.0,1.3178034,0.1718874,5.71239126,-76.27216896,22.7464326
6.1899999999999995,619,-0.968,-0.028999999999999998,-0.21600000000000005,-0.057295800000000015,1.5469866,0.1718874,5.6952025200000005,-76.25498022,22.75789176
6.2,620,-0.9690000000000001,-0.027999999999999997,-0.214,-0.40107059999999994,1.7188740000000002,0.057295800000000015,5.6837433599999985,-76.26643938,22.76935092
6.21,621,-0.97,-0.027000000000000003,-0.21600000000000005,-0.286479,1.6615782,0.11459160000000004,5.66655462,-76.24925064,22.78081008
6.22,622,-0.97,-0.027999999999999997,-0.217,-0.286479,1.3178034,0.1718874,5.64936588,-76.23779148,22.79799882
6.2299999999999995,623,-0.97,-0.027000000000000003,-0.217,-0.11459160000000004,1.0886202,0.2291832000000001,5.63217714,-76.22633232000003,22.81518756
6.24,624,-0.971,-0.027000000000000003,-0.21600000000000005,0.0,0.9740286,0.2291832000000001,5.6149884000000005,-76.21487316,22.8323763
6.25,625,-0.971,-0.027999999999999997,-0.218,-0.1718874,0.9740286,0.057295800000000015,5.6722842,-76.25498022,22.775080499999998
6.26,626,-0.9740000000000001,-0.03,-0.217,-0.1718874,0.5156622000000001,0.0,5.66655462,-76.24925064,22.78081008
6.27,627,-0.972,-0.032,-0.217,-0.2291832000000001,0.2291832000000001,0.057295800000000015,5.66082504,-76.24352106,22.78653966
6.28,628,-0.971,-0.032,-0.218,-0.40107059999999994,0.40107059999999994,0.1718874,5.6436363,-76.23779148,22.792269240000003
6.29,629,-0.971,-0.031,-0.22,-0.6875496,0.572958,0.2291832000000001,5.62644756,-76.23206189999998,22.80945798
6.3,630,-0.971,-0.03,-0.222,-0.572958,0.6302538000000001,0.3437748,5.64936588,-76.24925064,22.78081008
6.31,631,-0.973,-0.028999999999999998,-0.222,-0.4583664000000001,0.3437748,0.4583664000000001,5.62071798,-76.24352106,22.803728399999997
6.32,632,-0.9740000000000001,-0.028999999999999998,-0.217,-0.40107059999999994,0.11459160000000004,0.572958,5.59207008,-76.24352106,22.8323763
6.33,633,-0.972,-0.028999999999999998,-0.218,-0.4583664000000001,0.1718874,0.572958,5.56342218,-76.24352106,22.85529462
6.34,634,-0.972,-0.028999999999999998,-0.218,-0.40107059999999994,0.11459160000000004,0.572958,5.5290447,-76.24352106,22.88394252
6.35,635,-0.97,-0.028999999999999998,-0.22,-0.572958,0.0,0.5156622000000001,5.54623344,-76.27216896,22.8610242
6.36,636,-0.97,-0.027000000000000003,-0.21899999999999997,-0.6875496,0.0,0.4583664000000001,5.51758554,-76.27216896,22.88394252
6.37,637,-0.9670000000000001,-0.027000000000000003,-0.221,-0.6302538000000001,0.4583664000000001,0.5156622000000001,5.48893764,-76.26643938,22.90686084
6.38,638,-0.966,-0.027999999999999997,-0.223,-0.4583664000000001,0.6302538000000001,0.5156622000000001,5.45456016,-76.2607098,22.93550874
6.39,639,-0.9690000000000001,-0.027000000000000003,-0.223,-0.286479,0.40107059999999994,0.6302538000000001,5.42591226,-76.25498022,22.96415664
6.4,640,-0.971,-0.027000000000000003,-0.222,-0.057295800000000015,0.2291832000000001,0.6875496,5.4144530999999985,-76.28935770000002,22.98134538
6.41,641,-0.971,-0.024,-0.222,0.057295800000000015,0.0,0.6302538000000001,5.385805199999999,-76.28935770000002,23.0042637
6.42,642,-0.972,-0.024,-0.222,0.057295800000000015,-0.1718874,0.5156622000000001,5.36861646,-76.29508728,23.02718202
6.43,643,-0.972,-0.024,-0.221,-0.286479,-0.5156622000000001,0.40107059999999994,5.35142772,-76.30081686,23.04437076
6.4399999999999995,644,-0.972,-0.022000000000000002,-0.21899999999999997,0.057295800000000015,-0.40107059999999994,0.3437748,5.339968560000001,-76.30081686,23.05582992
6.45,645,-0.972,-0.025,-0.22,0.40107059999999994,-0.286479,0.1718874,5.35142772,-76.33519434,23.05010034
6.46,646,-0.973,-0.026000000000000002,-0.21899999999999997,0.4583664000000001,-0.2291832000000001,0.1718874,5.35142772,-76.34092392,23.05582992
6.47,647,-0.973,-0.027999999999999997,-0.215,0.4583664000000001,-0.1718874,0.2291832000000001,5.3456981400000005,-76.34092392,23.06728908
6.4799999999999995,648,-0.975,-0.027000000000000003,-0.21600000000000005,0.40107059999999994,-0.286479,0.2291832000000001,5.339968560000001,-76.34665349999999,23.07874824
6.49,649,-0.975,-0.027999999999999997,-0.21600000000000005,0.286479,-0.2291832000000001,0.1718874,5.33423898,-76.34665349999999,23.08447782
6.5,650,-0.973,-0.026000000000000002,-0.217,0.4583664000000001,0.1718874,0.1718874,5.3571573,-76.36957182,23.07301866
6.51,651,-0.9740000000000001,-0.027999999999999997,-0.22,0.4583664000000001,0.40107059999999994,0.2291832000000001,5.35142772,-76.36957182,23.08447782
6.52,652,-0.976,-0.028999999999999998,-0.22,0.4583664000000001,0.286479,0.2291832000000001,5.339968560000001,-76.36384224,23.09593698
6.53,653,-0.975,-0.027999999999999997,-0.21899999999999997,0.40107059999999994,0.40107059999999994,0.2291832000000001,5.33423898,-76.36384224,23.10739614
6.54,654,-0.9740000000000001,-0.027000000000000003,-0.22,0.1718874,0.6302538000000001,0.057295800000000015,5.3285094000000015,-76.35238308000002,23.11312572
6.55,655,-0.973,-0.027000000000000003,-0.22,0.11459160000000004,0.8594370000000001,0.0,5.36861646,-76.38103097999998,23.07874824
6.56,656,-0.971,-0.026000000000000002,-0.218,0.0,0.6302538000000001,0.0,5.3628868800000005,-76.37530140000001,23.08447782
6.57,657,-0.9690000000000001,-0.025,-0.221,0.0,0.5156622000000001,0.057295800000000015,5.3571573,-76.36957182,23.090207400000004
6.58,658,-0.97,-0.025,-0.21899999999999997,0.0,0.286479,0.11459160000000004,5.35142772,-76.36957182,23.09593698
6.59,659,-0.971,-0.025,-0.217,-0.057295800000000015,0.2291832000000001,0.0,5.3456981400000005,-76.36384224,23.10166656
6.6,660,-0.97,-0.027999999999999997,-0.21899999999999997,-0.057295800000000015,0.4583664000000001,0.0,5.47747848,-76.40394930000002,22.9756158
6.61,661,-0.971,-0.031,-0.21600000000000005,-0.1718874,0.3437748,0.0,5.4717489000000015,-76.40394930000002,22.9756158
6.62,662,-0.972,-0.032,-0.217,-0.2291832000000001,0.5156622000000001,0.11459160000000004,5.46028974,-76.39821972,22.98707496
6.63,663,-0.977,-0.03,-0.223,-0.3437748,0.3437748,0.286479,5.443101,-76.39249013999998,22.99853412
6.64,664,-0.9790000000000001,-0.026000000000000002,-0.222,-0.1718874,0.286479,0.1718874,5.4316418399999975,-76.39249013999998,23.00999328
6.65,665,-0.9740000000000001,-0.027999999999999997,-0.22,0.0,0.286479,0.057295800000000015,5.54623344,-76.43832678,22.90113126
6.66,666,-0.968,-0.031,-0.21899999999999997,0.0,0.5156622000000001,0.057295800000000015,5.5405038599999985,-76.4325972,22.90686084
6.67,667,-0.966,-0.031,-0.221,0.0,0.572958,0.1718874,5.5290447,-76.42686762000002,22.91832
6.68,668,-0.9670000000000001,-0.028999999999999998,-0.221,0.11459160000000004,0.5156622000000001,0.2291832000000001,5.51758554,-76.42113803999997,22.92977916
6.6899999999999995,669,-0.968,-0.027999999999999997,-0.22399999999999998,0.1718874,0.4583664000000001,0.286479,5.50612638,-76.41540846000002,22.9469679
6.7,670,-0.9690000000000001,-0.025,-0.22399999999999998,0.11459160000000004,0.1718874,0.286479,5.4316418399999975,-76.44978594,23.02145244
6.71,671,-0.971,-0.023,-0.22,0.1718874,0.3437748,0.11459160000000004,5.42591226,-76.44405636,23.02718202
6.72,672,-0.971,-0.023,-0.217,0.1718874,0.5156622000000001,0.057295800000000015,5.42018268,-76.43832678,23.032911600000002
6.7299999999999995,673,-0.97,-0.027000000000000003,-0.218,0.057295800000000015,0.6302538000000001,-0.057295800000000015,5.42018268,-76.4325972,23.03864118
6.74,674,-0.9690000000000001,-0.028999999999999998,-0.221,0.0,0.5156622000000001,-0.057295800000000015,5.42018268,-76.42686762000002,23.032911600000002
6.75,675,-0.9690000000000001,-0.027999999999999997,-0.22399999999999998,-0.286479,0.1718874,0.0,5.48893764,-76.42686762000002,22.96415664
6.76,676,-0.972,-0.027999999999999997,-0.21899999999999997,-0.11459160000000004,0.057295800000000015,0.057295800000000015,5.48320806,-76.42686762000002,22.96988622
6.77,677,-0.971,-0.027999999999999997,-0.218,-0.286479,0.2291832000000001,0.057295800000000015,5.47747848,-76.42113803999997,22.9756158
