TimeStamp(s),FrameCounter,AccX,AccY,AccZ,GyrX,GyrY,GyrZ,EulerX,EulerY,EulerZ
0.01,1,0.134,-1.007,0.079,1.6615782,-0.9167328,0.9167328,94.09116276,7.328132819999999,7.39688778
0.02,2,0.135,-1.006,0.077,1.4896908000000002,-0.5156622000000001,0.8021411999999999,94.10262192,7.32240324,7.3911582
0.03,3,0.132,-1.002,0.078,1.3178034,-0.4010706,0.6875496,94.04532612,7.3625102999999985,7.37396946
0.04,4,0.131,-0.997,0.08,1.432395,-0.1718874,0.4010706,94.05678528,7.3625102999999985,7.37396946
0.05,5,0.128,-0.994,0.086,1.6615782,-0.3437748,0.1718874,94.07397402,7.3625102999999985,7.36823988
0.060000000000000005,6,0.128,-0.992,0.08800000000000001,2.0626488000000003,-0.057295800000000015,0.1718874,94.09689233999998,7.3567807200000015,7.36823988
0.06999999999999999,7,0.125,-0.995,0.09,2.291832,0.286479,0.4010706,94.11981066,7.35105114,7.37396946
0.08,8,0.121,-1.001,0.091,2.291832,0.6302538000000001,0.8021411999999999,94.13126982,7.333862399999999,7.37396946
0.09,9,0.119,-1.004,0.09,2.2345362,0.8594370000000001,1.2605076000000002,94.15418814,7.32240324,7.385428619999999
0.09999999999999999,10,0.121,-1.005,0.087,2.0053530000000004,0.6875496,1.6042823999999998,94.17710646,7.305214500000001,7.3911582
0.11,11,0.128,-1.003,0.08199999999999999,1.6615782,0.3437748,1.7761698,94.1942952,7.288025760000001,7.3911582
0.12,12,0.138,-1.001,0.077,1.6615782,-0.2291832000000001,1.7188740000000002,94.21148394,7.270837019999999,7.3911582
0.13,13,0.145,-1.0,0.07400000000000001,1.432395,-1.145916,1.5469866,94.1656473,7.328132819999999,7.36823988
0.14,14,0.15,-0.999,0.07400000000000001,1.6042823999999998,-2.1772404,1.4896908000000002,94.18283604,7.31094408,7.34532156
0.15000000000000002,15,0.151,-0.998,0.076,1.8907613999999997,-2.9793816000000004,1.2032118,94.1942952,7.305214500000001,7.3166736599999975
0.16,16,0.145,-0.995,0.078,2.1772404,-3.8961144,1.0886202,94.21721352,7.29375534,7.2765666
0.17,17,0.135,-0.995,0.08199999999999999,2.578311,-4.5263682,1.0313244,94.23440226,7.288025760000001,7.2307299600000015
0.18000000000000002,18,0.124,-0.997,0.087,2.8074942000000003,-4.8128472,1.2032118,94.251591,7.282296179999999,7.1848933200000005
0.19,19,0.115,-1.001,0.087,2.7501984,-4.6409598,1.4896908000000002,94.27450932,7.270837019999999,7.1333271000000025
0.2,20,0.11,-1.001,0.084,2.8074942000000003,-4.6409598,1.8907613999999997,94.29742764,7.259377859999999,7.0874904600000015
0.21000000000000002,21,0.109,-1.001,0.083,2.7501984,-4.2398892,2.0626488000000003,94.32034596,7.242189120000001,7.0416538200000005
0.22,22,0.11,-1.0,0.083,2.8074942000000003,-4.1825934,2.1772404,94.34326428,7.225000379999999,7.001546759999999
0.23,23,0.111,-0.998,0.085,2.9220857999999996,-4.1825934,2.0053530000000004,94.35472344,7.19635248,6.955710119999999
0.24000000000000002,24,0.112,-1.002,0.08800000000000001,2.7501984,-4.010706000000001,1.8334656000000005,94.37764176,7.1848933200000005,6.9156030600000005
0.25,25,0.114,-1.003,0.08800000000000001,2.4064236,-3.7815227999999994,1.5469866,94.40056008,7.1734341599999984,6.875496000000001
0.26,26,0.115,-1.002,0.09,2.3491278,-3.5523396000000003,1.2605076000000002,94.41774882,7.161975,6.8411185199999975
0.27,27,0.115,-1.001,0.093,2.3491278,-3.2658606,1.2605076000000002,94.44066714,7.15624542,6.80674104
0.28,28,0.113,-1.004,0.096,2.5210152000000003,-2.7501984,1.2032118,94.45785588,7.1333271000000025,6.77809314
0.29000000000000004,29,0.108,-1.006,0.096,2.2345362,-2.1772404,1.145916,94.47504462,7.12186794,6.7551748200000015
0.3,30,0.103,-1.009,0.093,2.1199446,-1.8334656000000005,1.145916,94.49796294,7.116138359999999,6.7379860800000015
0.31,31,0.099,-1.01,0.087,1.9480572,-1.4896908000000002,1.0313244,94.51515168,7.1046792000000005,6.72079734
0.32,32,0.099,-1.008,0.086,1.7761698,-1.0886202,0.8594370000000001,94.53234042,7.098949620000001,6.7093381800000005
0.33,33,0.101,-1.005,0.083,1.3750992,-0.8594370000000001,0.7448454000000001,94.45785588,7.0244650800000015,6.686419860000001
0.34,34,0.107,-1.001,0.081,1.2032118,-0.7448454000000001,0.6302538000000001,94.46931504,7.018735500000001,6.6806902799999985
0.35000000000000003,35,0.11,-0.998,0.084,1.2032118,-0.8021411999999999,0.572958,94.4807742,7.01300592,6.669231119999999
0.36000000000000004,36,0.112,-0.998,0.086,1.0313244,-0.7448454000000001,0.6302538000000001,94.49223336,7.00727634,6.66350154
0.37,37,0.113,-0.998,0.085,0.8594370000000001,-0.6302538000000001,0.6302538000000001,94.49796294,7.001546759999999,6.65777196
0.38,38,0.114,-0.998,0.083,0.6302538000000001,-0.5156622000000001,0.6875496,94.39483050000001,6.972898860000001,6.63485364
0.39,39,0.11,-0.998,0.081,0.4583664000000001,-0.572958,0.6302538000000001,94.39483050000001,6.96716928,6.62912406
0.4,40,0.107,-0.999,0.076,0.4583664000000001,-0.4583664000000001,0.5156622000000001,94.40056008,6.9614397000000015,6.623394479999999
0.41000000000000003,41,0.101,-1.003,0.077,0.4583664000000001,-0.057295800000000015,0.4010706,94.40628966,6.9614397000000015,6.617664899999999
0.42000000000000004,42,0.098,-1.006,0.076,0.3437748,0.2291832000000001,0.1718874,94.41201924,6.955710119999999,6.623394479999999
0.43,43,0.095,-1.009,0.078,0.057295800000000015,0.6302538000000001,0.0,94.15991772,6.7093381800000005,6.589017
0.44,44,0.097,-1.007,0.078,-0.1718874,0.7448454000000001,0.057295800000000015,94.15991772,6.7036086,6.60047616
0.45,45,0.102,-1.004,0.076,-0.2291832000000001,0.7448454000000001,0.1718874,94.15991772,6.7036086,6.60620574
0.46,46,0.109,-1.002,0.07400000000000001,-0.3437748,0.6302538000000001,0.3437748,94.15418814,6.69787902,6.611935319999999
0.47000000000000003,47,0.114,-1.003,0.073,-0.5156622000000001,0.3437748,0.5156622000000001,94.14845856,6.69214944,6.617664899999999
0.48000000000000004,48,0.117,-1.006,0.07400000000000001,-0.5156622000000001,0.057295800000000015,0.6302538000000001,94.00521906,6.72652692,6.60047616
0.49,49,0.116,-1.006,0.076,-0.4583664000000001,-0.057295800000000015,0.572958,93.99948948,6.72079734,6.60047616
0.5,50,0.11,-1.008,0.091,0.0,-0.1718874,0.4010706,93.99948948,6.7150677599999975,6.60047616
0.51,51,0.101,-1.015,0.1,-0.4010706,-0.8021411999999999,0.0,93.99948948,6.7150677599999975,6.589017
0.52,52,0.096,-1.019,0.098,-1.6042823999999998,-0.7448454000000001,-0.5156622000000001,93.98230074,6.72079734,6.58328742
0.53,53,0.091,-1.018,0.098,-2.291832,-0.5156622000000001,-1.0886202,93.965112,6.6806902799999985,6.57755784
0.54,54,0.08900000000000001,-1.015,0.099,-2.9793816000000004,-0.5156622000000001,-1.432395,93.9364641,6.69787902,6.5718282599999975
0.55,55,0.092,-1.012,0.097,-3.7815227999999994,-0.4010706,-1.6042823999999998,93.89635704,6.7150677599999975,6.5718282599999975
0.56,56,0.097,-1.01,0.093,-4.5263682,-0.1718874,-1.5469866,93.8505204,6.72652692,6.566098679999999
0.5700000000000001,57,0.099,-1.011,0.093,-4.8128472,-0.2291832000000001,-1.5469866,93.80468376,6.743715660000001,6.566098679999999
0.5800000000000001,58,0.101,-1.014,0.094,-5.0993262,-0.2291832000000001,-1.4896908000000002,93.75884712,6.743715660000001,6.566098679999999
0.59,59,0.1,-1.012,0.093,-5.042030400000002,-0.11459160000000004,-1.2605076000000002,93.7072809,6.7551748200000015,6.560369099999999
0.6,60,0.097,-1.012,0.08900000000000001,-5.2712136,0.0,-1.2605076000000002,93.6499851,6.76663398,6.560369099999999
0.61,61,0.094,-1.008,0.085,-5.5003968,0.2291832000000001,-1.3178034,93.59841887999998,6.77809314,6.566098679999999
0.62,62,0.092,-1.0,0.081,-5.443101,0.4583664000000001,-1.6042823999999998,93.54112308,6.79528188,6.5718282599999975
0.63,63,0.092,-0.992,0.081,-5.2712136,0.4583664000000001,-1.8334656000000005,93.48955686,6.7895523,6.57755784
0.64,64,0.092,-0.99,0.08,-5.0993262,0.3437748,-2.0053530000000004,93.43799064,6.80674104,6.57755784
0.65,65,0.094,-0.99,0.08,-5.042030400000002,0.5156622000000001,-2.1199446,93.38642442,6.829659359999999,6.58328742
0.66,66,0.096,-0.993,0.078,-4.8701430000000006,0.8594370000000001,-2.1772404,93.3348582,6.8468481,6.5947465800000025
0.67,67,0.095,-0.997,0.077,-4.8128472,0.8021411999999999,-2.0626488000000003,93.28902156,6.86976642,6.60620574
0.68,68,0.094,-1.001,0.076,-4.8128472,0.7448454000000001,-2.0053530000000004,93.23745534,6.86403684,6.611935319999999
0.6900000000000001,69,0.097,-1.002,0.071,-5.0993262,0.6302538000000001,-1.9480572,93.18588912,6.8812255800000015,6.617664899999999
0.7000000000000001,70,0.098,-1.0,0.064,-5.3285094000000015,0.2291832000000001,-1.7761698,93.12859332,6.898414319999999,6.617664899999999
0.7100000000000001,71,0.1,-0.993,0.07,-4.8701430000000006,-0.11459160000000004,-1.4896908000000002,93.08275668,6.9156030600000005,6.617664899999999
0.72,72,0.098,-0.984,0.08199999999999999,-3.7815227999999994,-0.1718874,-1.6615782,93.04264962,6.9327918,6.617664899999999
0.73,73,0.092,-0.98,0.078,-2.6929026,-0.9167328,-1.9480572,93.01400172,6.9156030600000005,6.60620574
0.74,74,0.08800000000000001,-0.98,0.08199999999999999,-0.572958,-2.2345362,-2.4064236,93.00827214,6.94425096,6.589017
0.75,75,0.08199999999999999,-0.992,0.111,0.11459160000000004,-3.4377480000000005,-2.86479,93.00254256,6.972898860000001,6.554639519999999
0.76,76,0.078,-1.01,0.135,-1.8907613999999997,-3.0939732,-3.0939732,92.97962424,7.00727634,6.525991620000001
0.77,77,0.071,-1.027,0.132,-4.8128472,-1.8907613999999997,-2.8074942000000003,92.93378759999999,7.03592424,6.5088028799999975
0.78,78,0.063,-1.03,0.114,-6.417129599999999,-0.4010706,-2.291832,92.89368054,7.001546759999999,6.5030733
0.79,79,0.054000000000000006,-1.023,0.1,-5.958763200000001,1.145916,-2.0053530000000004,92.83638474,7.0244650800000015,6.51453246
0.8,80,0.045,-1.011,0.096,-5.3858052,2.9220857999999996,-2.2345362,92.78481852,7.0416538200000005,6.543180359999999
0.81,81,0.044,-1.003,0.08199999999999999,-5.958763200000001,3.9534102,-2.5210152000000003,92.72752272,7.06457214,6.58328742
0.8200000000000001,82,0.044,-0.994,0.071,-6.760904399999999,4.8701430000000006,-3.2658606,92.66449734,7.09322004,6.63485364
0.8300000000000001,83,0.049,-0.992,0.063,-7.5057497999999985,6.2452422,-4.4117766,92.5900128,7.098949620000001,6.69787902
0.8400000000000001,84,0.058,-0.995,0.053,-8.59437,8.193299399999999,-5.3285094000000015,92.51552826,7.144786260000001,6.783822719999999
0.85,85,0.068,-0.993,0.047,-9.8548776,10.1413566,-5.72958,92.42385498,7.19635248,6.8812255800000015
0.86,86,0.076,-0.99,0.041,-11.4018642,12.032117999999999,-6.130650599999999,92.32072254,7.2479187,7.00727634
0.87,87,0.081,-0.983,0.037000000000000005,-12.5477802,14.4385416,-6.2452422,92.21186052,7.29948492,7.15051584
0.88,88,0.077,-0.973,0.039,-13.980175199999998,17.246035799999998,-6.130650599999999,92.08580976,7.33959198,7.32240324
0.89,89,0.069,-0.967,0.045,-15.2979786,19.2513888,-5.72958,91.94829984,7.385428619999999,7.51147938
0.9,90,0.067,-0.972,0.054000000000000006,-16.329303,21.3713334,-5.1566220000000005,91.81078992,7.4198061,7.72920342
0.91,91,0.064,-0.989,0.057,-17.589810600000003,23.491278,-4.4117766,91.65609126,7.448453999999999,7.9583866200000015
0.92,92,0.061,-1.013,0.059,-19.1367972,25.9549974,-3.8388186,91.48993344,7.47137232,8.21621772
0.93,93,0.065,-1.036,0.065,-19.767051,28.074942,-3.8961144,91.3295052,7.48283148,8.49696714
0.9400000000000001,94,0.079,-1.054,0.07,-20.340009,29.220858000000003,-4.1252976000000015,91.1576178,7.51147938,8.783446139999999
0.9500000000000001,95,0.101,-1.054,0.073,-20.6837838,29.392745399999995,-4.3544808,90.98000082,7.54012728,9.07565472
0.9600000000000001,96,0.127,-1.04,0.077,-21.2567418,28.762491600000004,-4.0680017999999984,90.79665426,7.5630456000000015,9.36213372
0.97,97,0.142,-1.016,0.078,-21.2567418,27.5592798,-3.2085648,90.6133077,7.58596392,9.63715356
0.98,98,0.14800000000000002,-0.991,0.07400000000000001,-20.2254174,25.55392680000001,-2.4637194,90.44714988,7.603152659999999,9.88925508
0.99,99,0.153,-0.972,0.08800000000000001,-17.8189938,23.14750320000001,-1.9480572,90.29245122,7.61461182,10.11843828
1.0,100,0.161,-0.967,0.106,-16.042824000000003,20.5691922,-1.4896908000000002,90.15494129999999,7.620341400000001,10.32470316
1.01,101,0.16899999999999998,-0.965,0.117,-14.8396122,18.334656,-1.145916,90.02316096,7.62607098,10.502320139999998
1.02,102,0.172,-0.975,0.135,-13.464512999999998,15.469866,-0.9167328,89.90283978,7.63180056,10.6570188
1.03,103,0.165,-0.993,0.152,-12.605076,11.917526400000002,-0.8021411999999999,89.84554397999999,7.6489892999999975,10.78306956
1.04,104,0.155,-1.016,0.162,-13.120738199999998,8.9954406,-1.2605076000000002,89.71949322,7.65471888,10.86901326
1.05,105,0.152,-1.034,0.15,-13.6936962,7.5057497999999985,-2.0053530000000004,89.59344246,7.677637200000001,10.9434978
1.06,106,0.147,-1.05,0.14,-14.0947668,6.6463128000000005,-3.3231564,89.45593253999998,7.7062851,11.00652318
1.07,107,0.149,-1.074,0.131,-14.610429000000002,6.1879464,-4.9847345999999995,89.31269304,7.75212174,11.06954856
1.08,108,0.149,-1.083,0.114,-14.7823164,6.0733548,-6.3598338,89.19810143999999,7.8151471200000024,11.13257394
1.09,109,0.14300000000000002,-1.077,0.101,-14.7250206,5.958763200000001,-7.1046792000000005,89.05486194,7.88390208,11.18986974
1.1,110,0.136,-1.048,0.102,-14.152062599999999,5.958763200000001,-7.448453999999999,88.91735202,7.9583866200000015,11.24716554
1.11,111,0.128,-1.018,0.114,-13.8655836,5.6149884000000005,-7.6203414,88.78557168,8.03287116,11.29873176
1.12,112,0.122,-0.992,0.118,-14.152062599999999,5.443101,-7.5057497999999985,88.64806175999998,8.107355700000001,11.35029798
1.1300000000000001,113,0.13,-0.977,0.114,-14.5531332,5.443101,-7.333862400000001,88.54492932000002,8.17611066,11.40759378
1.1400000000000001,114,0.13699999999999998,-0.966,0.114,-15.0114996,5.2139178,-7.161975,88.40168982,8.250595200000001,11.45343042
1.1500000000000001,115,0.14,-0.962,0.11,-15.6417534,4.3544808,-6.760904399999999,88.24699116,8.31362058,11.49353748
1.1600000000000001,116,0.142,-0.962,0.109,-16.386598799999998,3.2658606,-6.2452422,88.08083334,8.376645960000001,11.52791496
1.17,117,0.14300000000000002,-0.964,0.106,-16.8449652,2.2345362,-5.6722842,87.91467551999996,8.42821218,11.545103700000002
1.18,118,0.153,-0.962,0.102,-17.0741484,1.4896908000000002,-4.8701430000000006,87.78862475999998,8.48550798,11.562292439999998
1.19,119,0.161,-0.958,0.108,-16.386598799999998,0.5156622000000001,-3.9534102,87.62246694,8.52561504,11.56802202
1.2,120,0.162,-0.954,0.118,-15.5844576,-0.7448454000000001,-2.9793816000000004,87.46203870000002,8.554262940000001,11.55656286
1.21,121,0.16,-0.953,0.118,-15.0687954,-2.1772404,-1.8334656000000005,87.30734004,8.57145168,11.52791496
1.22,122,0.157,-0.951,0.109,-14.266654199999998,-3.724227,-0.5156622000000001,87.15837096,8.57145168,11.4878079
1.23,123,0.155,-0.949,0.104,-12.7196676,-5.6149884000000005,0.9740286,87.07815683999998,8.565722099999999,11.44197126
1.24,124,0.149,-0.947,0.101,-10.9434978,-7.448453999999999,2.4064236,86.95783566,8.542803780000002,11.36748672
1.25,125,0.14,-0.948,0.099,-8.59437,-9.224623800000002,3.3231564,86.8604328,8.50269672,11.27581344
1.26,126,0.131,-0.948,0.111,-5.6149884000000005,-10.599723,3.6096354,86.78594826,8.46831924,11.172681
1.27,127,0.123,-0.946,0.122,-2.9793816000000004,-12.2040054,4.1252976000000015,86.74011162,8.422482599999999,11.05235982
1.28,128,0.115,-0.941,0.125,-0.1718874,-13.2926256,4.9847345999999995,86.79740741999998,8.35945722,10.932038639999998
1.29,129,0.108,-0.935,0.13699999999999998,2.4064236,-14.32395,6.1879464,86.80313699999998,8.29070226,10.78879914
1.3,130,0.108,-0.931,0.147,4.6409598,-15.183387000000002,7.6203414,86.83178489999996,8.21621772,10.64555964
1.31,131,0.11,-0.93,0.14800000000000002,6.1879464,-16.2147114,8.880849000000003,86.87189196,8.11881486,10.4851314
1.32,132,0.113,-0.933,0.14300000000000002,7.161975,-17.6471064,9.9121734,86.92345818,8.015682420000001,10.31897358
1.33,133,0.128,-0.943,0.13699999999999998,8.307891,-19.5378678,10.4278356,87.02659062000002,7.91254998,10.13562702
1.34,134,0.152,-0.962,0.127,9.8548776,-22.2307704,10.9434978,87.10107516000002,7.79795838,9.91790298
1.35,135,0.17,-0.977,0.116,11.45916,-26.356068,11.4018642,87.18701886,7.68336678,9.66007188
1.36,136,0.184,-0.988,0.118,13.5791046,-30.8251404,11.8602306,87.29015129999998,7.55731602,9.36213372
1.37,137,0.2,-0.999,0.102,15.0114996,-35.0650296,12.1467096,87.39901332,7.431265259999999,9.01835892
1.3800000000000001,138,0.205,-1.028,0.041,15.3552744,-38.5600734,11.745639,87.5193345,7.32240324,8.640206639999999
1.3900000000000001,139,0.203,-1.08,-0.028,15.6417534,-38.90384820000001,9.9121734,87.6339261,7.2192707999999985,8.25632478
1.4000000000000001,140,0.18,-1.131,-0.043,17.0168526,-38.90384820000001,6.016058999999999,87.76570644,7.15624542,7.87244292
1.4100000000000001,141,0.142,-1.185,-0.003,17.589810600000003,-40.4508348,0.6875496,87.89748678,7.144786260000001,7.47137232
1.42,142,0.112,-1.236,0.061,12.4904844,-41.023792799999995,-4.297185,87.9777009,7.1848933200000005,7.06457214
1.43,143,0.133,-1.227,0.068,4.2398892,-38.7319608,-6.1879464,87.98916005999996,7.2479187,6.6806902799999985
1.44,144,0.185,-1.162,0.016,1.9480572,-40.04976420000001,-2.4637194,87.96051216,7.270837019999999,6.2796196800000015
1.45,145,0.232,-1.117,-0.017,5.9014674000000005,-45.0917946,5.3285094000000015,87.97197132,7.213541219999999,5.83271244
1.46,146,0.254,-1.12,-0.032,7.448453999999999,-49.61816279999999,13.521808800000002,87.99488964000004,7.076031300000001,5.339968560000001
1.47,147,0.262,-1.146,-0.046,6.703608600000001,-53.68616460000001,18.5638392,88.0063488,6.886955159999999,4.812847199999998
1.48,148,0.25,-1.1840000000000002,-0.048,6.130650599999999,-57.467687399999996,18.8503182,88.0063488,6.7036086,4.24561878
1.49,149,0.224,-1.196,-0.067,3.8388186,-58.8427866,16.329303,87.98916005999996,6.53745078,3.6669312000000014
1.5,150,0.181,-1.124,-0.08900000000000001,0.4583664000000001,-59.4157446,12.834259199999998,87.93186426,6.40567044,3.0825140400000004
1.51,151,0.123,-1.019,-0.095,-4.3544808,-60.2178858,9.969469199999999,87.83446140000002,6.3025379999999975,2.48663772
1.52,152,0.055,-0.903,-0.094,-9.969469199999999,-59.7595194,8.078707799999998,87.67403316,6.210864720000001,1.8907613999999997
1.53,153,-0.004,-0.812,-0.097,-13.6364004,-56.78013780000001,5.7868758000000025,87.47349786,6.130650600000001,1.32353298
1.54,154,-0.05,-0.777,-0.085,-15.2406828,-51.9672906,3.6669312000000014,87.27296256,6.08481396,0.8078707799999998
1.55,155,-0.07200000000000001,-0.809,-0.078,-17.475219,-45.4928652,2.4637194,87.04950894,6.05043648,0.35523396
1.56,156,-0.08199999999999999,-0.889,-0.075,-18.162768600000003,-38.1590028,3.2658606,86.83178489999996,6.00459984,-0.01718874
1.57,157,-0.094,-1.004,-0.07200000000000001,-18.621135,-32.0283522,5.958763200000001,86.61406086000002,5.93584488,-0.33804522
1.58,158,-0.096,-1.111,-0.076,-18.334656,-27.215505,9.8548776,86.40206640000002,5.80406454,-0.6016058999999999
1.59,159,-0.084,-1.1909999999999998,-0.073,-16.902261,-23.204799,14.5531332,86.20726068,5.64936588,-0.8250595199999999
1.6,160,-0.055,-1.223,-0.081,-16.157415599999997,-20.7410796,19.0795014,86.02964370000002,5.44883058,-1.01986524
1.61,161,-0.017,-1.211,-0.098,-15.2979786,-20.2254174,23.204799,85.85775629999998,5.20818822,-1.20894138
1.62,162,0.03,-1.179,-0.102,-12.4331886,-21.199446,26.298772200000002,85.72024638,4.93889796,-1.4037471
1.6300000000000001,163,0.068,-1.16,-0.099,-9.8548776,-23.204799,28.4187168,85.5999252,4.6409598,-1.61001198
1.6400000000000001,164,0.09,-1.117,-0.071,-7.6203414,-25.1528562,28.6479,85.50825191999998,4.34302164,-1.83919518
1.6500000000000001,165,0.103,-1.0590000000000002,-0.042,-6.8182002000000015,-27.215505,27.3300966,85.4280378,4.05654264,-2.0912967
1.6600000000000001,166,0.1,-0.981,-0.018000000000000002,-8.250595200000001,-29.1062664,25.78311,85.33063494000002,3.78725238,-2.36058696
1.6700000000000002,167,0.077,-0.916,-0.009000000000000001,-10.0840608,-30.5386614,24.7517856,85.21031375999998,3.5236917,-2.6413363800000003
1.68,168,0.038,-0.879,-0.006999999999999999,-11.2872726,-31.22621100000001,24.5798982,85.08999258,3.26013102,-2.93354496
1.69,169,-0.006999999999999999,-0.871,-0.012,-12.318597,-31.3980984,25.210152,84.95248266,2.99084076,-3.2257535399999995
1.7,170,-0.047,-0.867,-0.011,-14.0947668,-30.366774000000003,25.6112226,84.80351358,2.71582092,-3.50077338
1.71,171,-0.07200000000000001,-0.879,0.0,-15.469866,-28.361421000000004,25.4393352,84.63735576,2.44653066,-3.76433406
1.72,172,-0.08900000000000001,-0.899,0.011,-17.18874,-25.1528562,24.4080108,84.45973878,2.18869956,-3.99351726
1.73,173,-0.096,-0.913,0.023,-17.9335854,-21.3140376,22.1161788,84.28785138,1.93086846,-4.1825934
1.74,174,-0.095,-0.945,0.032,-18.048177,-17.246035799999998,19.0222056,84.10450482,1.73033316,-4.33729206
1.75,175,-0.098,-0.959,0.039,-17.7044022,-12.261301199999998,16.157415599999997,83.92115826,1.55844576,-4.4404245000000016
1.76,176,-0.103,-0.977,0.049,-16.558486199999994,-6.875496000000001,13.750992000000002,83.75500044,1.41520626,-4.4977203
1.77,177,-0.11,-0.98,0.058,-15.0687954,-2.1199446,12.032117999999999,83.60030178,1.29488508,-4.50917946
1.78,178,-0.108,-0.972,0.062,-14.5531332,2.1199446,10.8289062,83.50289891999998,1.1459160000000002,-4.4748019800000005
1.79,179,-0.099,-0.969,0.06,-13.750992000000002,5.72958,9.8548776,83.36538900000002,1.04851314,-4.4117766000000005
1.8,180,-0.084,-0.967,0.051,-13.349921400000001,8.8235532,8.8235532,83.23360865999999,0.96829902,-4.31437374
1.81,181,-0.063,-0.962,0.034,-13.2926256,11.2872726,7.333862400000001,83.09609874,0.90527364,-4.19405256
1.82,182,-0.045,-0.96,0.021,-12.7196676,12.9488508,5.1566220000000005,82.97004798,0.86516658,-4.06227222
1.83,183,-0.029,-0.956,0.025,-11.688343199999998,13.2926256,2.86479,82.89556344,0.83651868,-3.93049188
1.84,184,-0.022,-0.957,0.037000000000000005,-10.7143146,13.2353298,0.6875496,82.78670142,0.83651868,-3.79871154
1.85,185,-0.02,-0.965,0.043,-9.3392154,12.7769634,-0.572958,82.68929856,0.8594370000000001,-3.67839036
1.86,186,-0.03,-0.983,0.064,-7.6776372,12.605076,-0.8021411999999999,82.60908443999998,0.87662574,-3.5523396000000003
1.87,187,-0.046,-1.009,0.097,-6.9327918,13.120738199999998,-0.4583664000000001,82.54032948,0.89381448,-3.42628884
1.8800000000000001,188,-0.067,-1.039,0.096,-7.448453999999999,13.980175199999998,0.0,82.54605906,0.87089616,-3.28877892
1.8900000000000001,189,-0.1,-1.071,0.081,-8.136003599999999,16.1001198,0.0,82.46011536,0.8880849000000001,-3.13408026
1.9000000000000001,190,-0.133,-1.108,0.084,-8.136003599999999,18.9649098,-0.7448454000000001,82.37990124000002,0.9167328000000001,-2.94500412
1.9100000000000001,191,-0.153,-1.139,0.086,-9.568398599999998,23.204799,-2.86479,82.28249838,0.96829902,-2.7215505
1.9200000000000002,192,-0.159,-1.16,0.062,-11.1153852,28.81978740000001,-5.443101,82.16790678,1.04851314,-2.44653066
1.93,193,-0.16399999999999998,-1.186,0.055,-11.6310474,34.0337052,-8.307891,82.0762335,1.1459160000000002,-2.12567418
1.94,194,-0.156,-1.217,0.046,-12.605076,40.2789474,-11.2872726,81.95018274,1.30061466,-1.7475218999999995
1.95,195,-0.15,-1.266,0.011,-13.750992000000002,47.3836266,-13.178034,81.81267282,1.48396122,-1.30061466
1.96,196,-0.153,-1.371,-0.181,-19.9962342,51.0505578,-12.318597,81.6178671,1.6615782,-0.8193299399999999
1.97,197,-0.121,-1.497,-0.444,-26.0122932,49.847346,-8.021412000000002,81.360036,1.79908812,-0.3437748
1.98,198,-0.032,-1.584,-0.5589999999999999,-25.7258142,43.6021038,-1.8907613999999997,81.10220489999998,1.86784308,0.07448454
1.99,199,0.105,-1.53,-0.349,-15.469866,36.7266078,0.4583664000000001,80.94750624,1.90795014,0.43544808
2.0,200,0.266,-1.375,-0.119,-11.8602306,32.0283522,-7.1046792000000005,80.83291464,2.01681216,0.7391158200000001
2.01,201,0.331,-1.237,-0.016,-11.0007936,32.31483119999999,-13.980175199999998,80.7297822,2.19442914,1.0313244
2.02,202,0.242,-1.178,0.031,-6.2452422,36.669312,-12.0894138,80.67248640000003,2.36631654,1.36936962
2.03,203,0.08,-1.2009999999999998,-0.002,-1.5469866,42.7999626,-4.8128472,80.68394556000001,2.4637194,1.78189938
2.04,204,-0.12,-1.215,-0.109,-2.578311,51.68081160000001,0.572958,80.67248640000003,2.52674478,2.2918320000000003
2.05,205,-0.292,-1.193,-0.227,-5.443101,59.0719698,0.1718874,80.63810892000002,2.6012293200000003,2.87051958
2.0599999999999996,206,-0.338,-1.135,-0.328,-8.7089616,63.08267579999999,-4.4117766,80.56935396,2.72728008,3.47785506
2.07,207,-0.22,-1.04,-0.336,-11.1153852,66.2912406,-11.2872726,80.47768067999998,2.92781538,4.11383844
2.0799999999999996,208,-0.013,-0.958,-0.319,-13.0061466,67.895523,-15.2979786,80.35162992,3.1741873200000006,4.749821819999998
2.09,209,0.175,-0.905,-0.276,-14.667724800000002,68.52577679999999,-16.959556799999998,80.23130874,3.43201842,5.39153478
2.0999999999999996,210,0.3,-0.867,-0.27,-16.902261,68.6976642,-16.042824000000003,80.08806924,3.68411994,6.03897732
2.11,211,0.37,-0.856,-0.292,-18.6784308,66.5777196,-13.464512999999998,79.93337058,3.91330314,6.66350154
2.1199999999999997,212,0.38,-0.88,-0.32,-17.589810600000003,61.36380179999999,-10.9434978,79.7844015,4.10810886,7.2479187
2.13,213,0.339,-0.904,-0.321,-16.329303,54.54560160000001,-10.1986524,79.62397326,4.320103319999999,7.75785132
2.1399999999999997,214,0.259,-0.914,-0.317,-15.2979786,47.7274014,-10.7143146,79.4979225,4.4977203,8.204758559999998
2.15,215,0.19,-0.914,-0.305,-15.0687954,39.4195104,-14.32395,79.36614216000002,4.6982555999999995,8.565722099999999
2.1599999999999997,216,0.149,-0.913,-0.293,-13.8655836,33.9764094,-17.761698000000006,79.24582097999998,4.921709219999999,8.86366026
2.17,217,0.132,-0.911,-0.29100000000000004,-13.9228794,30.3094782,-20.3973048,79.1254998,5.16808116,9.12149136
2.1799999999999997,218,0.14,-0.903,-0.29100000000000004,-13.0634424,27.6738714,-22.4026578,78.98226030000002,5.43737142,9.350674559999998
2.19,219,0.14400000000000002,-0.9,-0.28600000000000003,-11.2872726,25.0382646,-24.1215318,78.88485744,5.71239126,9.55120986
2.1999999999999997,220,0.16,-0.889,-0.278,-9.1100322,22.345362,-25.2674478,78.80464332,5.9931406800000016,9.71736768
2.21,221,0.17,-0.883,-0.263,-6.417129599999999,19.0222056,-25.84040580000001,78.7530771,6.2796196800000015,9.8548776
2.2199999999999998,222,0.172,-0.878,-0.245,-4.4117766,15.9282324,-25.9549974,78.71869962000002,6.560369099999999,9.963739620000002
2.23,223,0.16399999999999998,-0.877,-0.222,-2.291832,11.4018642,-25.4393352,78.67859256,6.8411185199999975,10.02103542
2.2399999999999998,224,0.154,-0.873,-0.2,-2.0053530000000004,7.9641161999999985,-24.637194,78.66140382,7.09322004,10.0554129
2.25,225,0.14400000000000002,-0.86,-0.18600000000000005,-2.0626488000000003,5.6722842,-24.2361234,78.64421508000002,7.33959198,10.06114248
2.26,226,0.131,-0.8420000000000001,-0.166,-2.1772404,5.3285094000000015,-24.5798982,78.61556718,7.58596392,10.06687206
2.27,227,0.117,-0.8220000000000001,-0.156,-2.7501984,5.7868758000000025,-25.3820394,78.58691927999998,7.84379502,10.07260164
2.28,228,0.096,-0.804,-0.145,-3.2658606,6.760904399999999,-26.2414764,78.55827138,8.107355700000001,10.08979038
2.29,229,0.084,-0.7959999999999999,-0.14300000000000002,-4.010706000000001,8.078707799999998,-26.814434400000003,78.51816432000003,8.382375540000002,10.11843828
2.3,230,0.077,-0.79,-0.142,-4.5263682,9.3392154,-26.41336380000001,78.47805725999999,8.651665800000002,10.15281576
2.31,231,0.07200000000000001,-0.775,-0.122,-4.4117766,9.5111028,-25.0382646,78.4379502,8.91522648,10.1986524
2.32,232,0.08,-0.77,-0.1,-3.8961144,9.167328,-24.0069402,78.40357272,9.16159842,10.23875946
2.3299999999999996,233,0.104,-0.7659999999999999,-0.093,-5.0993262,9.2819196,-22.6891368,78.36346566,9.396511199999999,10.29032568
2.34,234,0.141,-0.7659999999999999,-0.093,-5.5576926,9.5111028,-21.5432208,78.31189943999998,9.6256944,10.33616232
2.3499999999999996,235,0.174,-0.762,-0.092,-5.443101,9.5111028,-20.2254174,78.2660628,9.83768886,10.39345812
2.36,236,0.194,-0.7609999999999999,-0.084,-4.6982556,8.651665800000002,-18.5065434,78.22595574,10.03249458,10.43929476
2.3699999999999997,237,0.208,-0.775,-0.078,-4.8128472,7.6203414,-16.4438946,78.1801191,10.20438198,10.47940182
2.38,238,0.21,-0.799,-0.08199999999999999,-5.7868758000000025,6.2452422,-14.0947668,78.14574162,10.3705398,10.51950888
2.3899999999999997,239,0.21,-0.826,-0.101,-7.6203414,5.2712136,-11.516455800000001,78.07125708,10.49086098,10.5424272
2.4,240,0.209,-0.846,-0.094,-7.5057497999999985,3.380452200000001,-9.6829902,77.99677254,10.59399342,10.55961594
2.4099999999999997,241,0.212,-0.867,-0.08800000000000001,-7.1046792000000005,1.2032118,-8.3651868,77.92228800000002,10.67420754,10.55388636
2.42,242,0.215,-0.8909999999999999,-0.077,-5.9014674000000005,-0.572958,-7.7349330000000025,77.85926262000002,10.74869208,10.53096804
2.4299999999999997,243,0.213,-0.917,-0.066,-4.5263682,-1.2605076000000002,-7.448453999999999,77.8936401,10.85182452,10.5137793
2.44,244,0.227,-0.943,-0.058,-3.724227,-0.286479,-7.5057497999999985,77.84780346,10.92630906,10.49659056
2.4499999999999997,245,0.239,-0.966,-0.054000000000000006,-2.8074942000000003,0.7448454000000001,-7.7922288,77.81915556,11.0007936,10.4851314
2.46,246,0.246,-0.995,-0.051,-2.1199446,1.3750992,-7.906820400000001,77.79623724,11.08100772,10.4851314
2.4699999999999998,247,0.236,-1.018,-0.055,-1.432395,1.7188740000000002,-6.8182002000000015,77.7790485,11.149762679999998,10.4851314
2.48,248,0.221,-1.032,-0.055,0.3437748,1.5469866,-4.9847345999999995,77.96239505999998,11.22424722,10.52523846
2.4899999999999998,249,0.204,-1.048,-0.044,2.7501984,0.572958,-2.8074942000000003,77.99104296,11.25289512,10.52523846
2.5,250,0.206,-1.064,-0.02,5.6722842,-1.0886202,-0.2291832000000001,78.04260918,11.25289512,10.5137793
2.51,251,0.217,-1.081,-0.006,8.479778399999999,-3.724227,2.5210152000000003,78.12282330000002,11.22424722,10.4851314
2.52,252,0.241,-1.093,0.004,11.2872726,-7.161975,5.6722842,78.23168532,11.15549226,10.4278356
2.53,253,0.27,-1.101,0.018000000000000002,14.32395,-11.745639,8.9954406,78.40357272,11.06381898,10.33616232
2.54,254,0.3,-1.109,0.013,17.0741484,-17.303331600000003,12.7196676,78.5525418,10.914849900000002,10.19292282
2.55,255,0.326,-1.117,0.018000000000000002,21.9442914,-27.1009134,16.4438946,78.73015878,10.70858502,9.95801004
2.56,256,0.342,-1.131,0.022,26.069589,-35.6379876,19.194093,78.94788281999998,10.46794266,9.64288314
2.57,257,0.398,-1.199,-0.033,25.4393352,-39.9351726,20.9702628,79.14268854000002,10.1986524,9.28764918
2.5799999999999996,258,0.461,-1.3219999999999998,-0.354,13.407217200000002,-32.486718599999996,20.6837838,79.22863224,9.95228046,9.00689976
2.59,259,0.482,-1.485,-0.594,-0.2291832000000001,-11.8029348,16.272007199999994,79.2114435,9.77466348,8.91522648
2.5999999999999996,260,0.42,-1.578,-0.601,-7.0473834,5.72958,7.2765666,79.15414770000002,9.7116381,8.98971102
2.61,261,0.041,-1.5759999999999998,-0.477,4.297185,-7.448453999999999,-0.4010706,79.18279559999998,9.70590852,8.91522648
2.6199999999999997,262,-0.34700000000000003,-1.4469999999999998,-0.166,12.318597,-30.8251404,-0.057295800000000015,79.26300972,9.66007188,8.61155874
2.63,263,-0.281,-1.151,-0.139,3.6669312000000014,-43.831287,2.9793816000000004,79.24582097999998,9.49391406,8.18184024
2.6399999999999997,264,-0.024,-0.979,-0.151,6.5317212,-49.04520479999999,6.417129599999999,79.24009140000003,9.35640414,7.7062851
2.65,265,0.236,-0.94,-0.28,10.599723,-53.285094,9.6256944,79.27446888,9.17878716,7.20208206
2.6599999999999997,266,0.431,-0.945,-0.365,16.386598799999998,-58.15523699999999,12.3758928,79.36041258,8.9667927,6.65204238
2.67,267,0.5429999999999999,-0.956,-0.416,16.673077799999998,-62.16594300000001,16.673077799999998,79.44635628,8.7089616,6.067625219999999
2.6799999999999997,268,0.503,-0.939,-0.438,11.516455800000001,-64.4004792,21.1421502,79.45781544,8.43394176,5.466019319999999
2.69,269,0.308,-0.916,-0.41,7.6203414,-62.96808420000001,22.9756158,79.46354502,8.11308528,4.88733174
2.6999999999999997,270,0.021,-0.92,-0.311,5.2712136,-59.4730404,21.772404,79.44635628,7.80941754,4.34302164
2.71,271,-0.213,-0.935,-0.214,4.583664,-50.9359662,18.5638392,79.4406267,7.551586439999999,3.873196080000002
2.7199999999999998,272,-0.337,-0.969,-0.18,2.1199446,-43.831287,16.673077799999998,79.41770838,7.32240324,3.47212548
2.73,273,-0.379,-0.994,-0.18,-0.572958,-36.5547204,15.6990492,79.37187173999997,7.01300592,3.1398098400000003
2.7399999999999998,274,-0.361,-0.996,-0.192,-1.8334656000000005,-28.0176462,14.667724800000002,79.32603509999998,6.829659359999999,2.88770832
2.75,275,-0.292,-0.98,-0.226,-2.291832,-19.2513888,12.3758928,79.28592804,6.6749607000000015,2.7215505
2.76,276,-0.197,-0.953,-0.25,-0.9167328,-11.5737516,10.4278356,79.26873930000002,6.554639519999999,2.62987722
2.77,277,-0.096,-0.941,-0.245,-0.4583664000000001,-6.0733548,10.313244,79.25728014,6.4457775,2.58977016
2.78,278,0.002,-0.941,-0.259,-1.2032118,-2.2345362,11.8602306,79.17133643999998,6.26816052,2.5783110000000002
2.79,279,0.098,-0.954,-0.265,-0.3437748,-0.9740286,15.183387000000002,79.17133643999998,6.11919144,2.59549974
2.8,280,0.149,-0.962,-0.252,1.3750992,-2.3491278,18.8503182,79.18852518,5.930115299999999,2.6069589
2.81,281,0.16699999999999998,-0.967,-0.228,2.4064236,-5.5003968,22.2880662,79.2114435,5.70666168,2.59549974
2.82,282,0.166,-0.941,-0.213,1.6042823999999998,-9.453807000000001,24.7517856,79.22863224,5.44883058,2.5496631
2.8299999999999996,283,0.153,-0.893,-0.202,0.4583664000000001,-13.2353298,25.6685184,79.2114435,5.19099948,2.4637194
2.84,284,0.124,-0.8390000000000001,-0.199,-0.6302538000000001,-16.959556799999998,25.6685184,79.19425475999998,4.91597964,2.34339822
2.8499999999999996,285,0.084,-0.792,-0.202,-1.0313244,-19.8816426,24.7517856,79.17706602000001,4.6409598,2.19442914
2.86,286,0.045,-0.769,-0.182,-0.4583664000000001,-21.7151082,22.91832,79.15987728,4.3831287,2.02254174
2.8699999999999997,287,0.004,-0.77,-0.172,-0.7448454000000001,-25.1528562,20.8556712,79.14268854000002,4.14248634,1.81627686
2.88,288,-0.032,-0.794,-0.161,-1.6042823999999998,-26.9863218,19.4232762,79.10831106,3.89038482,1.5870936600000003
2.8899999999999997,289,-0.044,-0.818,-0.151,-3.151269,-27.3300966,18.2773602,79.06820400000002,3.6669312000000014,1.35218088
2.9,290,-0.045,-0.8390000000000001,-0.162,-3.6096354,-27.215505,16.7876694,79.01663778,3.46066632,1.1172681
2.9099999999999997,291,-0.037000000000000005,-0.858,-0.14800000000000002,-3.151269,-26.41336380000001,15.469866,78.97653072,3.2658606,0.8880849000000001
2.92,292,-0.018000000000000002,-0.875,-0.136,-3.8388186,-25.1528562,14.7823164,78.93069408,3.07678446,0.6703608600000001
2.9299999999999997,293,-0.002,-0.868,-0.136,-4.7555514,-23.777757,15.126091199999998,78.87339828,2.88197874,0.46982556
2.94,294,0.003,-0.861,-0.132,-3.6096354,-22.345362,16.386598799999998,78.83329122,2.68717302,0.28074942
2.9499999999999997,295,-0.01,-0.856,-0.117,-2.4064236,-19.2513888,18.3919518,78.80464332,2.47517856,0.12605075999999998
2.96,296,-0.031,-0.865,-0.106,-1.432395,-16.329303,19.4232762,78.78745458,2.25745452,0.00572958
2.9699999999999998,297,-0.038,-0.867,-0.086,-1.6042823999999998,-14.0947668,19.8816426,78.77026584,2.03973048,-0.09167328
2.98,298,-0.033,-0.8859999999999999,-0.075,-1.3750992,-12.4904844,19.8243468,78.77599542,1.8048176999999999,-0.1718874
2.9899999999999998,299,-0.038,-0.928,-0.083,-1.4896908000000002,-11.516455800000001,19.4232762,78.76453626,1.59855282,-0.25210152
3.0,300,-0.059,-0.983,-0.065,-1.432395,-11.4018642,18.7357266,78.74734751999998,1.39801752,-0.32658606
3.01,301,-0.079,-1.036,-0.046,-2.4064236,-10.1413566,17.589810600000003,78.7244292,1.20894138,-0.38961144
3.02,302,-0.121,-1.089,-0.034,-2.9220857999999996,-8.5370742,15.5844576,78.6957813,1.04278356,-0.44690724
3.03,303,-0.165,-1.145,-0.03,-2.86479,-6.130650599999999,12.261301199999998,78.71297003999999,0.8594370000000001,-0.48128472
3.04,304,-0.189,-1.182,-0.028,-1.432395,-1.7188740000000002,8.59437,78.6957813,0.7734933,-0.48128472
3.05,305,-0.211,-1.204,0.006999999999999999,2.1772404,5.3858052,3.9534102,78.71869962000002,0.7448454000000001,-0.42398892
3.06,306,-0.235,-1.215,0.051,6.130650599999999,13.178034,-1.5469866,78.781725,0.7792228800000001,-0.29793816
3.07,307,-0.256,-1.221,0.08,9.2819196,22.2307704,-7.448453999999999,78.87339828,0.89381448,-0.09167328
3.08,308,-0.269,-1.221,0.115,12.261301199999998,32.31483119999999,-12.7196676,79.02809694,1.04278356,0.19480572
3.09,309,-0.285,-1.219,0.16,16.272007199999994,43.831287,-16.902261,79.19998434,1.27769634,0.59014674
3.0999999999999996,310,-0.316,-1.21,0.211,20.340009,55.6915176,-19.8243468,79.4119788,1.56417534,1.10007936
3.11,311,-0.359,-1.209,0.2,22.2880662,70.30194660000001,-22.4026578,79.64689158,1.8907613999999997,1.75325148
3.1199999999999997,312,-0.431,-1.278,-0.107,14.667724800000002,81.64651500000002,-21.027558600000006,79.81304940000003,2.22307704,2.51528562
3.13,313,-0.386,-1.367,-0.5660000000000001,2.9220857999999996,88.35012359999996,-14.495837400000001,79.85315646,2.48090814,3.35753388
3.1399999999999997,314,-0.237,-1.396,-0.725,-3.9534102,83.4226848,-8.7662574,79.83596772,2.6929026,4.1539455
3.15,315,0.02,-1.335,-0.5820000000000001,-6.3025379999999975,75.17208959999998,-8.7662574,79.79586065999997,2.88770832,4.87587258
3.1599999999999997,316,0.3670000000000001,-1.213,-0.385,-5.042030400000002,76.8336678,-16.2147114,79.77294234,3.15699858,5.59779966
3.17,317,0.563,-1.055,-0.293,-4.1252976000000015,80.32871159999998,-21.3140376,79.76148318,3.48931422,6.348374640000001
3.1799999999999997,318,0.536,-0.89,-0.194,0.11459160000000004,80.2714158,-20.5691922,79.79586065999997,3.85600734,7.098949620000001
3.19,319,0.3720000000000001,-0.858,-0.188,7.3911582,82.5632478,-18.162768600000003,79.91618184000002,4.1539455,7.878172500000002
3.1999999999999997,320,0.145,-0.8809999999999999,-0.239,11.745639,85.82910840000002,-18.621135,80.08233966,4.46334282,8.691772859999999
3.21,321,-0.046,-0.908,-0.269,13.349921400000001,86.5739538,-21.1421502,80.2714158,4.79565846,9.50537322
3.2199999999999998,322,-0.16899999999999998,-0.927,-0.27,13.2926256,84.56860079999998,-23.4339822,80.46622152,5.13943326,10.29605526
3.23,323,-0.165,-0.929,-0.285,7.9641161999999985,82.90702259999998,-25.84040580000001,80.59227228,5.48320806,11.06954856
3.2399999999999998,324,-0.038,-0.903,-0.322,1.5469866,82.67783940000002,-27.5592798,80.67248640000003,5.86708992,11.84304186
3.25,325,0.14,-0.879,-0.341,-2.4637194,81.07355700000002,-26.929026,80.71259346,6.23951262,12.59934642
3.26,326,0.34700000000000003,-0.878,-0.33,-4.4117766,76.9482594,-23.9496444,80.74124136,6.5718282599999975,13.31554392
3.27,327,0.475,-0.904,-0.293,-3.4377480000000005,69.72898860000001,-18.621135,80.76988926,6.8468481,13.97444562
3.28,328,0.544,-0.912,-0.255,-1.8334656000000005,61.5356892,-13.0634424,80.79853716,7.116138359999999,14.558862779999998
3.29,329,0.519,-0.908,-0.225,0.6302538000000001,51.3943326,-9.969469199999999,80.86156254,7.282296179999999,15.05160666
3.3,330,0.423,-0.907,-0.204,2.0626488000000003,41.252976,-9.453807000000001,80.92458792,7.431265259999999,15.44694768
3.31,331,0.305,-0.927,-0.19,4.2398892,32.31483119999999,-10.6570188,81.00480204,7.58023434,15.75061542
3.32,332,0.184,-0.953,-0.177,6.0733548,26.642547,-13.6364004,81.09647532,7.746392160000001,15.99698736
3.33,333,0.091,-0.951,-0.168,5.72958,24.4080108,-16.329303,81.17095986,7.92400914,16.208981819999998
3.34,334,0.012,-0.926,-0.14800000000000002,5.042030400000002,24.923673,-19.938938399999998,81.2454444,8.14746276,16.426705860000002
3.3499999999999996,335,-0.006,-0.872,-0.135,1.2032118,28.1322378,-23.6631654,81.29128104,8.41675302,16.6730778
3.36,336,0.001,-0.8059999999999999,-0.132,-2.3491278,32.6013102,-25.55392680000001,81.30274019999997,8.7089616,16.959556799999998
3.3699999999999997,337,0.023,-0.752,-0.127,-5.443101,36.955791,-25.6685184,81.29128104,9.00689976,17.286142859999998
3.38,338,0.052000000000000005,-0.7140000000000001,-0.113,-6.4744254,40.33624320000001,-24.064235999999998,81.27982188,9.2819196,17.647106400000006
3.3899999999999997,339,0.07400000000000001,-0.7090000000000001,-0.101,-6.703608600000001,42.5707794,-20.6837838,81.26836272,9.5397507,18.04244742
3.4,340,0.08900000000000001,-0.721,-0.08800000000000001,-6.2452422,44.0031744,-16.8449652,81.26836272,9.75747474,18.45497718
3.4099999999999997,341,0.103,-0.7509999999999999,-0.077,-6.130650599999999,44.8626114,-12.891555,81.26836272,9.9408213,18.878966100000003
3.42,342,0.124,-0.774,-0.062,-6.9327918,45.6647526,-9.167328,81.26836272,10.0840608,19.32014376
3.4299999999999997,343,0.139,-0.778,-0.049,-8.078707799999998,45.3782736,-6.703608600000001,81.26836272,10.21011156,19.76132142
3.44,344,0.152,-0.7609999999999999,-0.035,-8.7662574,44.4615408,-5.6149884000000005,81.25117398,10.31897358,20.1967695
3.4499999999999997,345,0.173,-0.73,-0.042,-10.026765,43.6021038,-5.2712136,81.21679650000002,10.42210602,20.62075842
3.46,346,0.192,-0.701,-0.052000000000000005,-10.7716104,41.8832298,-5.0993262,81.17668943999998,10.52523846,21.03328818
3.4699999999999998,347,0.218,-0.685,-0.055,-10.5424272,38.61736920000001,-4.8128472,81.1308528,10.61691174,21.41144046
3.48,348,0.239,-0.695,-0.055,-9.6256944,34.4347758,-4.2398892,81.10220489999998,10.72004418,21.74948568
3.4899999999999998,349,0.25,-0.722,-0.046,-7.9641161999999985,30.194886600000004,-2.3491278,81.06782741999999,10.78306956,22.04169426
3.5,350,0.258,-0.782,-0.033,-5.6149884000000005,27.2728008,0.5156622000000001,81.06209784,10.81171746,22.3167141
3.51,351,0.26,-0.8540000000000001,-0.028,-4.9847345999999995,25.4393352,3.7815227999999994,81.05636826,10.80598788,22.5745452
3.52,352,0.257,-0.909,-0.034,-6.2452422,24.8663772,6.760904399999999,81.03344994,10.771610399999998,22.8323763
3.53,353,0.246,-0.941,-0.032,-7.2192707999999985,25.2674478,9.3392154,81.03344994,10.72577376,23.10739614
3.54,354,0.221,-0.948,-0.026,-7.906820400000001,25.496631,11.1153852,80.99907246000002,10.64555964,23.3766864
3.55,355,0.19,-0.956,-0.021,-7.6776372,25.78311,12.1467096,80.97042456,10.55961594,23.65170624000001
3.56,356,0.154,-0.97,-0.02,-7.2192707999999985,27.2728008,12.891555,80.94750624,10.46794266,23.94391482
3.57,357,0.121,-0.987,-0.016,-5.443101,29.507337,13.6936962,80.94177666,10.3705398,24.25904172
3.58,358,0.096,-1.023,0.011,-2.6356068,31.741873200000004,14.0947668,81.01053162,10.2559482,24.60281652
3.59,359,0.08800000000000001,-1.051,0.035,-0.4010706,35.4088044,14.32395,81.06782741999999,10.15854534,24.97523922
3.5999999999999996,360,0.1,-1.07,0.05,0.572958,37.9298196,13.980175199999998,81.14231196,10.06687206,25.37630982
3.61,361,0.123,-1.087,0.065,2.4637194,39.1330314,13.6364004,81.23398524000002,9.98665794,25.78883958
3.6199999999999997,362,0.165,-1.106,0.076,4.1825934,39.534102,13.6936962,81.34284726,9.90071424,26.20136934000001
3.63,363,0.206,-1.121,0.08199999999999999,6.130650599999999,38.7319608,14.7250206,81.5032755,9.80904096,26.613899100000005
3.6399999999999997,364,0.249,-1.134,0.086,8.193299399999999,36.38283300000001,16.501190400000002,81.64651500000002,9.68871978,27.00351054
3.65,365,0.282,-1.152,0.109,11.2872726,32.372127,17.9335854,81.81267282,9.55120986,27.35301492
3.6599999999999997,366,0.336,-1.209,0.066,12.5477802,29.392745399999995,18.9649098,81.9902898,9.396511199999999,27.673871400000003
3.67,367,0.396,-1.308,-0.098,6.5317212,34.60666320000001,18.6784308,82.11634056,9.2532717,28.0462941
3.6799999999999997,368,0.419,-1.4580000000000002,-0.253,-4.4117766,46.409598,17.246035799999998,82.13925888,9.138680099999998,28.52757882
3.69,369,0.37,-1.5730000000000002,-0.36,-16.902261,59.35844880000001,16.2147114,82.05331518,9.04127724,29.14064388
3.6999999999999997,370,0.203,-1.661,-0.415,-22.0015872,67.43715660000001,13.980175199999998,81.92726442,8.97252228,29.828193480000003
3.71,371,-0.024,-1.689,-0.406,-18.7930224,69.55710119999999,12.032117999999999,81.84132072,8.93241522,30.53293182
3.7199999999999998,372,-0.188,-1.588,-0.241,-10.599723,65.7182826,8.3651868,81.82413198,8.92095606,31.197563100000004
3.73,373,-0.183,-1.406,-0.073,-3.9534102,59.7022236,4.9274388,81.88142778,8.92095606,31.799169
3.7399999999999998,374,0.022,-1.244,-0.021,3.2658606,55.06126379999999,2.9220857999999996,81.9902898,8.949603960000003,32.35493826
3.75,375,0.28,-1.153,-0.09,11.516455800000001,51.33703679999999,2.9793816000000004,82.18509551999998,8.97825186,32.87060046000001
3.76,376,0.48,-1.033,-0.152,22.9756158,47.3836266,5.3858052,82.48303368,8.97825186,33.35188518
3.77,377,0.564,-0.94,-0.193,28.6479,43.544808,11.2872726,82.84399721999998,8.909496899999997,33.79879242
3.78,378,0.494,-0.857,-0.27,22.7464326,39.9351726,19.0795014,83.09609874,8.80636446,34.217051760000004
3.79,379,0.317,-0.7929999999999999,-0.39,14.5531332,41.825934,25.78311,83.3080932,8.594370000000001,34.66968858
3.8,380,0.104,-0.747,-0.433,12.032117999999999,50.8786704,30.8824362,83.50289891999998,8.33080932,35.20826909999999
3.81,381,-0.151,-0.7390000000000001,-0.329,13.2926256,59.7595194,33.8618178,83.72062296,8.0500599,35.84425248
3.82,382,-0.439,-0.774,-0.19,11.917526400000002,66.2912406,35.46610020000001,83.93261742,7.75212174,36.54326124
3.83,383,-0.563,-0.85,-0.104,5.72958,74.42724419999998,35.2942128,84.0815865,7.39688778,37.31675454
3.84,384,-0.526,-0.915,-0.107,-1.3178034,84.11023440000002,32.0283522,84.1675302,7.13905668,38.187650700000006
3.8499999999999996,385,-0.391,-0.962,-0.113,-4.0680017999999984,94.0224078,25.78311,84.23055558,6.94998054,39.14449056
3.86,386,-0.222,-1.005,-0.132,-4.583664,101.3562702,17.8762896,84.29358096,6.8468481,40.17008538
3.8699999999999997,387,-0.061,-1.061,-0.128,-2.291832,106.7420754,11.688343199999998,84.38525424,6.80674104,41.24151684
3.88,388,0.086,-1.127,-0.116,0.7448454000000001,111.49762679999999,10.9434978,84.50557542,6.77236356,42.35878494
3.8899999999999997,389,0.187,-1.168,-0.108,3.6096354,115.16455800000001,15.6417534,84.66600365999999,6.69787902,43.51616009999999
3.9,390,0.259,-1.169,-0.075,6.417129599999999,116.8261362,24.9809688,84.84935021999998,6.52026204,44.69645358
3.9099999999999997,391,0.249,-1.109,-0.07400000000000001,6.875496000000001,117.169911,33.1742682,85.03842636,6.26243094,45.893935799999994
3.92,392,0.2,-1.035,-0.075,7.7922288,114.8207832,36.955791,85.2275025,5.96449278,47.06277012
3.9299999999999997,393,0.139,-0.974,-0.078,8.8235532,111.49762679999999,37.5860448,85.41657864,5.65509546,48.19722696000001
3.94,394,0.091,-0.922,-0.073,9.224623800000002,108.86202,36.1536498,85.60565478000002,5.35142772,49.30876548
3.9499999999999997,395,0.055,-0.882,-0.05,10.0840608,105.7680468,33.6899304,85.78900134,5.0706783,50.38019694
3.96,396,0.033,-0.862,-0.024,9.797581800000001,102.9605526,30.93973200000001,85.96661832,4.80711762,51.4229805
3.9699999999999998,397,0.033,-0.858,-0.012,8.9381448,101.6427492,28.074942,86.12704656,4.57220484,52.4543049
3.98,398,0.054000000000000006,-0.863,0.0,7.161975,101.70004499999999,24.8663772,86.27028606,4.36593996,53.47417014
3.9899999999999998,399,0.08,-0.863,0.003,4.1825934,102.4448904,21.7151082,86.37914808000002,4.1883229800000015,54.50549454
4.0,400,0.085,-0.852,-0.005,2.578311,102.1584114,19.8816426,86.46509178,4.022165159999999,55.53108936
4.01,401,0.081,-0.841,-0.012,1.7761698,100.7260164,19.1367972,86.53957632,3.8674665,56.53949544
4.02,402,0.06,-0.8340000000000001,-0.026,1.432395,99.2363256,20.3973048,86.60833127999999,3.6955791,57.53071278
4.03,403,0.025,-0.8270000000000001,-0.02,0.572958,98.4914802,23.032911600000002,86.66562708000002,3.4950437999999995,58.52193012
4.04,404,0.009000000000000001,-0.8220000000000001,-0.01,0.1718874,98.9498466,25.6112226,86.71146372000004,3.27159018,59.513147460000006
4.05,405,-0.002,-0.823,0.001,0.8021411999999999,100.4395374,27.3300966,86.76302994,3.02521824,60.52155354
4.06,406,0.002,-0.841,0.014,1.2032118,102.1011156,27.6738714,86.81459616,2.78457588,61.54714836000001
4.07,407,0.014,-0.867,-0.001,0.11459160000000004,103.1897358,27.6738714,86.84897364,2.53820394,62.58420234
4.08,408,0.019,-0.883,-0.018000000000000002,-0.2291832000000001,102.9605526,28.2468294,86.87762153999998,2.28037284,63.61552673999999
4.09,409,0.026,-0.889,-0.029,0.8594370000000001,102.0438198,29.1062664,86.91199902000002,2.01681216,64.64112156
4.1,410,0.033,-0.879,-0.042,2.291832,100.6687206,29.220858000000003,86.95783566,1.75325148,65.64952764
4.109999999999999,411,0.034,-0.857,-0.046,3.9534102,99.121734,28.074942,87.00940188,1.50114996,66.64647456
4.12,412,0.029,-0.83,-0.021,6.4744254,97.5174516,25.84040580000001,87.089616,1.26623718,67.62623274
4.13,413,0.023,-0.815,0.028,8.9954406,96.1423524,22.9756158,87.19274844,1.06570188,68.58880218
4.14,414,-0.001,-0.833,0.067,11.172681,95.970465,21.027558600000006,87.31306962,0.87662574,69.54564203999999
4.1499999999999995,415,-0.044,-0.875,0.098,12.9488508,95.397507,21.0848544,87.44484996,0.68182002,70.49675232
4.16,416,-0.08900000000000001,-0.924,0.121,13.8655836,95.6266902,22.459953600000002,87.58235988,0.47555514,71.45359218
4.17,417,-0.134,-0.97,0.14400000000000002,15.126091199999998,97.2882684,23.835052800000003,87.73132896,0.25210152,72.42762078
4.18,418,-0.158,-1.014,0.16399999999999998,16.272007199999994,100.7260164,24.1215318,87.89748678,0.01145916,73.43602686
4.1899999999999995,419,-0.174,-1.0590000000000002,0.165,17.131444199999994,105.7680468,22.7464326,88.05791502,-0.19480572,74.49026957999997
4.2,420,-0.191,-1.096,0.18,18.5638392,111.6695142,19.595163600000006,88.22407283999998,-0.38388186,75.60180809999999
4.21,421,-0.212,-1.133,0.198,17.9908812,118.77419340000002,15.469866,88.38450107999998,-0.53858052,76.78210157999997
4.22,422,-0.25,-1.212,0.093,10.1413566,127.48315500000001,10.1413566,88.45898561999998,-0.63598338,78.04260918
4.2299999999999995,423,-0.238,-1.331,-0.125,-2.6929026,138.94231499999998,6.1879464,88.39023066,-0.70473834,79.41770838
4.24,424,-0.163,-1.482,-0.241,-10.1413566,145.7605152,4.583664,88.24699116,-0.75057498,80.86156254
4.25,425,-0.063,-1.607,-0.26,-13.750992000000002,144.50000759999998,3.151269,88.06937418,-0.7792228800000001,82.28822796
4.26,426,0.076,-1.659,-0.228,-15.5844576,143.0103168,-0.1718874,87.87456846,-0.76776372,83.70343421999998
4.27,427,0.226,-1.634,-0.227,-17.589810600000003,143.35409159999998,-5.0993262,87.65684442,-0.69900876,85.1129109
4.28,428,0.326,-1.508,-0.185,-16.558486199999994,143.0103168,-8.7089616,87.45057954,-0.5844171599999999,86.52238758000001
4.29,429,0.371,-1.3159999999999998,-0.14,-17.0168526,142.66654200000005,-12.4331886,87.24431466,-0.43544808,87.92613467999998
4.3,430,0.326,-1.173,-0.116,-18.449247600000003,145.1875572,-15.4125702,87.02659062000002,-0.25210152,89.3528001
4.31,431,0.225,-1.109,-0.124,-18.7930224,151.7192784,-17.131444199999994,86.81459616,-0.04583664,90.84249090000002
4.32,432,0.14300000000000002,-1.0659999999999998,-0.096,-18.907614000000002,156.2456466,-17.4179232,86.60260170000002,0.16615782,92.37228876
4.33,433,0.068,-1.023,-0.093,-21.485925,158.36559119999995,-16.272007199999994,86.36768892,0.38388186,93.92500494
4.34,434,0.028,-0.981,-0.116,-23.491278,158.30829540000005,-12.9488508,86.11558740000002,0.56722842,95.47772112
4.35,435,0.036000000000000004,-0.943,-0.14300000000000002,-24.2361234,156.131055,-8.7662574,85.86921545999998,0.7161975,97.01324856
4.36,436,0.104,-0.941,-0.16699999999999998,-24.0069402,151.547391,-5.042030400000002,85.62284352,0.83651868,98.50293936
4.37,437,0.223,-0.952,-0.182,-23.204799,144.7291908,-2.0053530000000004,85.39366032000002,0.92819196,99.92960478
4.38,438,0.336,-0.945,-0.12,-18.334656,138.65583600000002,-1.0886202,85.20458418000003,1.03705398,101.29324482
4.39,439,0.406,-0.928,-0.006,-12.1467096,132.46788959999998,-2.6356068,85.08999258,1.13445684,102.59958906
4.3999999999999995,440,0.395,-0.917,0.029,-10.599723,128.22800039999998,-3.7815227999999994,84.99258972,1.24904844,103.86009666
4.41,441,0.327,-0.916,0.018000000000000002,-11.5737516,123.3578574,-2.5210152000000003,84.8837277,1.3464512999999998,105.07476762
4.42,442,0.257,-0.932,-0.008,-10.7716104,118.88878500000001,0.9167328,84.78632483999998,1.40947668,106.24933152
4.43,443,0.182,-0.948,-0.022,-9.167328,114.878079,4.6982556,84.71184029999998,1.44958374,107.38378836
4.4399999999999995,444,0.106,-0.941,-0.03,-7.161975,110.7527814,6.875496000000001,84.64881491999998,1.44958374,108.48386772
4.45,445,0.059,-0.916,-0.001,-4.9274388,107.4869208,6.990087599999999,84.61443744,1.44958374,109.5495696
4.46,446,0.055,-0.8909999999999999,0.034,-3.0939732,105.3096804,5.042030400000002,84.59151912,1.46677248,110.59235316
4.47,447,0.1,-0.866,0.05,-2.8074942000000003,103.5908064,1.8907613999999997,84.58005996,1.5183387000000002,111.61794798
4.4799999999999995,448,0.145,-0.833,0.053,-1.9480572,101.9292282,0.2291832000000001,84.58578954,1.59855282,112.62062448
4.49,449,0.175,-0.804,0.061,0.0,98.548776,0.6875496,84.59724870000002,1.6558486199999998,113.59465308
4.5,450,0.183,-0.7809999999999999,0.06,1.4896908000000002,94.9391406,3.151269,84.63162618,1.6844965200000002,114.5343042
4.51,451,0.175,-0.763,0.049,2.4637194,91.6159842,6.6463128000000005,84.67173324000002,1.6787669399999998,115.44530742
4.52,452,0.161,-0.759,0.039,3.2085648,88.23553199999998,9.797581800000001,84.71756988,1.6386598799999998,116.32766274
4.53,453,0.149,-0.7509999999999999,0.036000000000000004,3.0939732,84.91237559999998,11.745639,84.7691361,1.59282324,117.17564058
4.54,454,0.146,-0.733,0.041,3.3231564,82.5632478,12.032117999999999,84.81497274,1.52406828,118.00070009999999
4.55,455,0.149,-0.715,0.047,2.86479,80.32871159999998,10.8289062,84.8550798,1.46677248,118.8028413
4.56,456,0.149,-0.705,0.042,2.4637194,79.18279559999998,8.7662574,84.88945728,1.432395,119.59352334
4.57,457,0.157,-0.7120000000000001,0.034,2.4637194,78.89631659999998,6.8182002000000015,84.92383476,1.40947668,120.3784758
4.58,458,0.157,-0.733,0.029,3.0939732,79.5838662,5.844171599999999,84.97540097999997,1.4209358399999998,121.16915784
4.59,459,0.159,-0.768,0.032,4.6409598,80.78707800000002,6.0733548,85.03269678,1.40947668,121.97129904
4.6,460,0.157,-0.81,0.032,6.016058999999999,82.1621772,7.6203414,85.10145173999999,1.38082878,122.79062898
4.61,461,0.151,-0.845,0.027000000000000003,7.1046792000000005,84.68319240000002,9.6256944,85.18166586000002,1.32926256,123.63860682
4.62,462,0.139,-0.865,0.027000000000000003,8.651665800000002,87.8917572,11.6310474,85.27906872,1.26623718,124.51523256
4.63,463,0.126,-0.875,0.038,10.886202,91.5013926,12.7769634,85.41084906,1.19748222,125.43196536
4.64,464,0.119,-0.889,0.047,12.261301199999998,94.0224078,13.349921400000001,85.54262940000002,1.1172681,126.37161648
4.6499999999999995,465,0.121,-0.905,0.044,13.0061466,96.4861272,13.6936962,85.68013932,1.0255948199999998,127.33418592
4.66,466,0.126,-0.928,0.036000000000000004,13.980175199999998,98.1477054,14.266654199999998,85.82337881999999,0.93392154,128.3139441
4.67,467,0.13699999999999998,-0.948,0.028,15.527161800000002,99.408213,14.9542038,85.98380705999998,0.8307891,129.31089102
4.68,468,0.155,-0.964,0.023,17.4179232,99.981171,15.469866,86.16715362,0.73338624,130.30783793999998
4.6899999999999995,469,0.18,-0.962,0.02,18.449247600000003,99.408213,15.813640800000002,86.35622975999998,0.61306506,131.30478486
4.7,470,0.206,-0.947,0.015,19.308684600000007,98.0904096,15.756345000000001,86.55103548,0.49274388,132.28454304
4.71,471,0.233,-0.925,0.008,20.340009,96.1996482,14.610429000000002,86.75157078,0.37815228,133.24711248
4.72,472,0.259,-0.906,0.008,21.485925,94.8818448,12.4904844,86.96356524000002,0.28074942,134.19249318
4.7299999999999995,473,0.28600000000000003,-0.897,0.0,22.4026578,93.2775624,9.6256944,87.18128928,0.24064236,135.12068514
4.74,474,0.29600000000000004,-0.907,-0.024,22.7464326,91.67328,6.6463128000000005,87.4047429,0.19480572,136.03168836
4.75,475,0.293,-0.939,-0.04,22.9756158,91.0430262,3.380452200000001,87.62819652,0.17761697999999998,136.93696200000002
4.76,476,0.268,-0.971,-0.051,22.9756158,91.0430262,-0.4010706,87.85165014,0.19480572,137.83650605999998
4.77,477,0.223,-1.007,-0.066,23.0902074,90.527364,-5.443101,88.08083334,0.25783110000000004,138.73605012
4.78,478,0.18,-1.033,-0.084,22.5745452,90.41277240000001,-13.407217200000002,88.2928278,0.41252976,139.62413501999998
4.79,479,0.158,-1.04,-0.076,22.0015872,92.3608296,-22.459953600000002,88.51055184,0.63598338,140.53513823999998
4.8,480,0.141,-1.026,-0.051,20.912967,95.5120986,-32.142943800000005,88.7225463,0.95111028,141.47478936
4.81,481,0.126,-0.997,-0.033,19.1367972,99.0644382,-41.1383844,88.9230816,1.3579104599999998,142.45454754
4.82,482,0.139,-0.973,-0.015,16.1001198,104.2210602,-47.4409224,89.10069858,1.81627686,143.47441278000005
4.83,483,0.172,-0.954,0.001,12.1467096,108.9766116,-48.8160216,89.24966766,2.30329116,144.55157382
4.84,484,0.202,-0.95,-0.017,8.4224826,110.0652318,-43.3156248,89.36425926,2.71582092,145.63446444
4.85,485,0.227,-0.942,-0.035,5.443101,107.0858502,-33.0596766,89.45593253999998,3.02521824,146.69443674
4.86,486,0.211,-0.927,-0.04,2.6356068,99.408213,-19.3659804,89.5246875,3.20283522,147.6799245
4.87,487,0.174,-0.906,-0.048,-0.5156622000000001,86.45936219999999,-9.453807000000001,89.55906498,3.27731976,148.53363192
4.88,488,0.134,-0.887,-0.05,-2.3491278,73.911582,-4.010706000000001,89.55333540000002,3.31742682,149.26701816
4.89,489,0.08800000000000001,-0.8640000000000001,-0.024,-3.2658606,64.51507079999999,-3.6096354,89.54760582,3.34034514,149.90300154
4.8999999999999995,490,0.04,-0.8440000000000001,0.029,-2.9220857999999996,60.16059,-7.1046792000000005,89.54760582,3.39764094,150.49887786
4.91,491,-0.004,-0.851,0.07400000000000001,-4.4690724,59.4730404,-12.2040054,89.5246875,3.50650296,151.08329501999995
4.92,492,-0.039,-0.906,0.08800000000000001,-7.7922288,62.2805346,-15.985528200000001,89.47885086,3.65547204,151.70208966
4.93,493,-0.076,-1.026,0.073,-11.172681,66.4058322,-16.4438946,89.40436632,3.78725238,152.35526178
4.9399999999999995,494,-0.125,-1.199,0.052000000000000005,-12.891555,70.473834,-13.0634424,89.31269304,3.90184398,153.05427054
4.95,495,-0.172,-1.375,0.032,-13.8082878,75.45856859999998,-8.8235532,89.20956059999996,3.97632852,153.79911594
4.96,496,-0.207,-1.495,0.034,-11.0007936,78.7244292,-4.8701430000000006,89.14080564,4.01643558,154.57260924
4.97,497,-0.204,-1.5119999999999998,0.043,-5.1566220000000005,81.81840240000002,-1.0886202,89.13507606,4.01643558,155.3862096
4.9799999999999995,498,-0.159,-1.421,0.066,2.5210152000000003,84.39671340000002,3.2658606,89.20956059999996,3.95913978,156.22272827999996
4.99,499,-0.08199999999999999,-1.267,0.096,8.7089616,86.23017899999998,9.0527364,89.34707052,3.85600734,157.0764357
5.0,500,-0.009000000000000001,-1.121,0.12,11.3445684,86.51665799999998,15.6990492,89.50749876,3.68984952,157.9358727
5.01,501,0.036000000000000004,-1.007,0.154,11.917526400000002,85.54262940000002,20.798375399999998,89.67365658,3.4663959,158.78958011999995
5.02,502,0.062,-0.941,0.174,10.8289062,83.53727640000002,23.491278,89.82262566,3.214294380000001,159.61463964
5.03,503,0.058,-0.916,0.181,8.9954406,81.1308528,22.86102420000001,89.96586515999998,2.96792244,160.42251042
5.04,504,0.042,-0.904,0.18600000000000005,7.333862400000001,79.4119788,19.8243468,90.06899759999996,2.7501984,161.20746288
5.05,505,0.01,-0.897,0.209,5.6149884000000005,78.1514712,14.7250206,90.14921172,2.5783110000000002,161.98095618
5.06,506,-0.009000000000000001,-0.8959999999999999,0.21600000000000005,4.3544808,77.80769640000003,8.479778399999999,90.21796668,2.46944898,162.74871990000003
5.07,507,-0.015,-0.898,0.213,3.9534102,78.5525418,1.8907613999999997,90.28099206,2.42934192,163.52794278000005
5.08,508,-0.015,-0.892,0.215,3.724227,79.9849368,-3.4950437999999995,90.37266534,2.42934192,164.31862482
5.09,509,-0.014,-0.868,0.208,3.0366774,81.7611066,-7.0473834,90.42996114,2.46944898,165.13222518
5.1,510,-0.011,-0.833,0.191,2.86479,83.65186800000002,-8.4224826,90.48152736,2.52674478,165.95728469999997
5.11,511,0.0,-0.8009999999999999,0.181,4.1825934,85.25615040000002,-8.021412000000002,90.55028232,2.57258142,166.80526254
5.12,512,0.018000000000000002,-0.774,0.177,5.958763200000001,86.2874748,-7.5057497999999985,90.63622602,2.61841806,167.65896996
5.13,513,0.039,-0.7559999999999999,0.179,7.7922288,86.68854540000002,-7.6203414,90.76800636,2.6642547000000003,168.51840696
5.14,514,0.064,-0.7490000000000001,0.184,9.568398599999998,86.51665799999998,-8.479778399999999,90.89405712,2.71009134,169.37784396
5.1499999999999995,515,0.087,-0.745,0.193,10.5424272,86.1728832,-9.969469199999999,91.02583746,2.77311672,170.23155137999996
5.16,516,0.107,-0.74,0.199,11.0580894,84.68319240000002,-11.5737516,91.16907696,2.84760126,171.07379964
5.17,517,0.12,-0.733,0.201,10.313244,82.2767688,-13.8655836,91.30658688,2.9507337,171.89312958
5.18,518,0.132,-0.737,0.196,8.136003599999999,79.75575359999998,-16.7303736,91.43836722,3.08824362,172.68954119999995
5.1899999999999995,519,0.142,-0.759,0.175,5.6149884000000005,75.343977,-18.5638392,91.5300405,3.2314831199999987,173.44011618
5.2,520,0.14,-0.812,0.15,2.86479,68.52577679999999,-18.1054728,91.5873363,3.37472262,174.1219362
5.21,521,0.159,-0.8540000000000001,0.123,-0.6875496,61.6502808,-16.615782,91.61025462,3.50650296,174.73500126
5.22,522,0.17800000000000002,-0.871,0.11,-3.5523396000000003,56.2071798,-16.902261,91.59879546,3.6440128800000013,175.2965001
5.2299999999999995,523,0.194,-0.901,0.103,-4.9274388,50.82137460000001,-16.902261,91.5873363,3.810170700000002,175.80643272
5.24,524,0.18600000000000005,-0.916,0.101,-5.2712136,45.6074568,-16.902261,91.55295882,3.9534102,176.25906954
5.25,525,0.16,-0.926,0.1,-5.5576926,40.6227222,-17.475219,91.52431092,4.10810886,176.66586972
5.26,526,0.15,-0.924,0.092,-6.016058999999999,36.2109456,-17.8189938,91.48420386,4.26280752,177.03256284
5.27,527,0.131,-0.901,0.099,-4.9847345999999995,32.486718599999996,-18.2200644,91.44982638,4.42896534,177.35914889999995
5.28,528,0.094,-0.879,0.105,-4.0680017999999984,30.8824362,-19.0222056,91.4440968,4.6008527400000006,177.66854622
5.29,529,0.053,-0.8590000000000001,0.108,-3.4950437999999995,31.054323600000004,-19.6524594,91.43263764,4.784199299999999,177.98367312
5.3,530,-0.002,-0.831,0.115,-1.4896908000000002,31.741873200000004,-19.595163600000006,91.43836722,4.96181628,178.3045296
5.31,531,-0.05,-0.804,0.139,1.9480572,33.74722620000001,-18.7930224,91.48420386,5.1279740999999985,178.64257482
5.32,532,-0.102,-0.7759999999999999,0.16399999999999998,5.9014674000000005,35.9244666,-17.18874,91.57014756,5.2826727600000005,179.00353836
5.33,533,-0.135,-0.764,0.163,7.448453999999999,36.4401288,-14.266654199999998,91.69619832,5.3628868800000005,179.37596105999995
5.34,534,-0.114,-0.75,0.111,4.5263682,36.2682414,-9.453807000000001,91.77068286,5.4316418399999975,179.7369246
5.35,535,-0.019,-0.7559999999999999,0.04,1.7761698,35.695283399999994,-3.4377480000000005,91.82224908,5.44883058,-179.90308242
5.36,536,0.08800000000000001,-0.8,-0.06,-0.1718874,33.403451399999994,3.2658606,91.84516740000001,5.397264359999999,-179.57076678
5.37,537,0.197,-0.8740000000000001,-0.16699999999999998,-0.7448454000000001,29.4500412,11.45916,91.86235614,5.2654840200000015,-179.28428778
5.38,538,0.314,-0.942,-0.17800000000000002,0.4010706,23.6631654,19.4232762,91.8165195,5.13370368,-179.06083415999996
5.39,539,0.401,-1.029,-0.135,-0.572958,14.4385416,25.3247436,91.82224908,4.87587258,-178.92905381999995
5.3999999999999995,540,0.438,-1.082,-0.084,-0.9167328,4.1825934,29.5646328,91.8165195,4.57793442,-178.89467634
5.41,541,0.421,-1.158,-0.015,2.1199446,-0.572958,30.1375908,91.83943782,4.27999626,-178.91186507999996
5.42,542,0.3720000000000001,-1.2,0.047,2.291832,-0.7448454000000001,25.9549974,91.86235614,4.022165159999999,-178.92905381999995
5.43,543,0.253,-1.215,0.047,-1.0886202,2.4064236,17.4179232,91.84516740000001,3.87892566,-178.91186507999996
5.4399999999999995,544,0.134,-1.255,0.009000000000000001,-4.6982556,7.0473834,9.5111028,91.79933076,3.77579322,-178.84883969999996
5.45,545,0.076,-1.362,0.001,-9.1100322,12.318597,5.5003968,91.71338706000002,3.71849742,-178.72851852
5.46,546,0.062,-1.4880000000000002,-0.013,-13.5791046,15.985528200000001,6.5317212,91.58160672,3.6382833,-178.57381986
5.47,547,0.086,-1.622,0.004,-13.2926256,17.18874,11.3445684,91.45555596,3.51796212,-178.40766204000005
5.4799999999999995,548,0.139,-1.709,0.051,-8.479778399999999,17.5325148,18.5065434,91.37534184,3.3231564,-178.24150422
5.49,549,0.18,-1.685,0.134,2.5210152000000003,19.1367972,24.350715,91.40971932,3.07678446,-178.05815766
5.5,550,0.174,-1.596,0.214,12.605076,28.2468294,24.8090814,91.54722924,2.81322378,-177.78313782
5.51,551,0.093,-1.492,0.235,14.610429000000002,39.247623,18.1054728,91.71338706000002,2.61268848,-177.39925596
5.52,552,0.023,-1.414,0.224,12.605076,43.77399120000001,7.9641161999999985,91.85089698,2.50955604,-176.96380788
5.53,553,0.002,-1.341,0.212,10.3705398,44.06047020000001,-1.8334656000000005,91.98267732,2.49809688,-176.52835980000003
5.54,554,0.035,-1.269,0.211,9.797581800000001,41.252976,-9.1100322,92.09726892,2.5611222600000003,-176.11583004
5.55,555,0.087,-1.195,0.207,7.5057497999999985,38.0444112,-12.5477802,92.18321262,2.6642547000000003,-175.73767776
5.56,556,0.155,-1.106,0.17600000000000002,2.0053530000000004,35.236917,-13.5791046,92.2175901,2.77311672,-175.38244379999998
5.57,557,0.239,-0.977,0.135,-5.1566220000000005,32.6013102,-14.8396122,92.17748304,2.89916748,-175.05012816
5.58,558,0.318,-0.8640000000000001,0.123,-9.8548776,27.9603504,-16.272007199999994,92.1029985,3.1226211000000004,-174.76937874
5.59,559,0.383,-0.772,0.117,-12.834259199999998,20.6837838,-16.7303736,91.98267732,3.27731976,-174.56311386
5.6,560,0.393,-0.736,0.109,-11.5737516,13.6364004,-15.2406828,91.86808572,3.42055926,-174.41987436
5.61,561,0.34700000000000003,-0.743,0.097,-9.0527364,7.6203414,-11.4018642,91.78214202,3.5236917,-174.34538981999995
5.62,562,0.26,-0.7659999999999999,0.083,-6.417129599999999,3.4950437999999995,-6.2452422,91.71911664,3.58671708,-174.30528276
5.63,563,0.161,-0.767,0.075,-3.380452200000001,0.4010706,-2.0626488000000003,91.70192790000002,3.64974246,-174.29955318
5.64,564,0.073,-0.7390000000000001,0.08199999999999999,0.6302538000000001,-1.7188740000000002,-0.4583664000000001,91.70765748,3.65547204,-174.31674192
5.6499999999999995,565,0.01,-0.68,0.098,5.1566220000000005,-2.8074942000000003,-1.2032118,91.7592237,3.6669312000000014,-174.34538981999995
5.66,566,-0.005,-0.624,0.105,8.078707799999998,-2.8074942000000003,-3.380452200000001,91.83943782,3.70130868,-174.37403772
5.67,567,0.011,-0.575,0.085,8.9954406,-1.6615782,-5.5576926,91.9311111,3.75860448,-174.38549688
5.68,568,0.046,-0.5579999999999999,0.087,8.7089616,-0.5156622000000001,-5.9014674000000005,92.02851396,3.82735944,-174.38549688
5.6899999999999995,569,0.1,-0.579,0.103,8.5370742,0.7448454000000001,-3.5523396000000003,92.11445766,3.86173692,-174.37976730000003
5.7,570,0.135,-0.649,0.092,8.7662574,0.9167328,2.0053530000000004,92.20613094,3.84454818,-174.36830814
5.71,571,0.146,-0.737,0.076,10.1986524,1.0313244,10.313244,92.30926338,3.74141574,-174.36257856
5.72,572,0.16699999999999998,-0.83,0.077,12.9488508,3.380452200000001,18.8503182,92.44104372,3.5523396000000003,-174.33393066
5.7299999999999995,573,0.163,-0.927,0.085,14.2093584,6.3598338,24.9809688,92.59574238000002,3.32888598,-174.28236443999995
5.74,574,0.111,-0.988,0.086,12.4904844,9.6829902,26.814434400000003,92.72752272,3.05386614,-174.19642073999995
5.75,575,0.018000000000000002,-1.004,0.096,9.797581800000001,13.750992000000002,25.0955604,92.83065516000002,2.79603504,-174.07036998
5.76,576,-0.064,-0.972,0.123,8.250595200000001,17.6471064,21.5432208,92.92232844,2.56685184,-173.90994174
5.77,577,-0.12,-0.927,0.153,7.0473834,21.7151082,17.0168526,93.00254256,2.38350528,-173.70367686
5.78,578,-0.125,-0.902,0.166,5.2712136,25.1528562,12.9488508,93.08848626,2.18869956,-173.45730492
5.79,579,-0.08800000000000001,-0.885,0.153,2.578311,27.501984000000004,9.8548776,93.12286374,2.06837838,-173.19374424
5.8,580,-0.004,-0.8759999999999999,0.14800000000000002,0.286479,30.194886600000004,8.651665800000002,93.1343229,1.9595163600000003,-172.89580608
5.81,581,0.095,-0.857,0.162,0.2291832000000001,30.4240698,8.4224826,93.14005248,1.85065434,-172.6035975
5.82,582,0.16899999999999998,-0.818,0.189,3.2085648,27.9603504,8.8235532,93.18015954,1.73606274,-172.33430724
5.83,583,0.212,-0.772,0.21600000000000005,7.448453999999999,25.0955604,8.479778399999999,93.3062103,1.6902260999999998,-172.0879353
5.84,584,0.249,-0.73,0.223,10.599723,22.459953600000002,7.906820400000001,93.41507232,1.59282324,-171.87021126
5.85,585,0.26,-0.695,0.195,12.1467096,18.048177,7.5630456000000015,93.54112308,1.50114996,-171.69259428
5.86,586,0.257,-0.6629999999999999,0.141,12.261301199999998,12.4331886,7.1046792000000005,93.66717384,1.4209358399999998,-171.57800268
5.87,587,0.245,-0.654,0.046,10.026765,7.161975,5.3858052,93.77030628,1.36364004,-171.50924772000005
5.88,588,0.224,-0.6409999999999999,-0.023,7.5630456000000015,2.9793816000000004,1.4896908000000002,93.8218725,1.4037471,-171.48059982
5.89,589,0.182,-0.664,-0.08,5.7868758000000025,-0.057295800000000015,-6.3025379999999975,93.8791683,1.46677248,-171.47487024
5.8999999999999995,590,0.095,-0.718,-0.128,-0.4583664000000001,-3.0366774,-17.131444199999994,93.87343872,1.6386598799999998,-171.49205898
5.91,591,-0.019,-0.7959999999999999,-0.163,-6.2452422,-4.9847345999999995,-27.043617600000005,93.81041334,1.90795014,-171.52643646
5.92,592,-0.091,-0.912,-0.145,-13.750992000000002,1.2032118,-34.8358464,93.66717384,2.25172494,-171.49205898
5.93,593,-0.172,-1.058,-0.151,-22.1161788,13.178034,-38.38818600000001,93.41507232,2.58404058,-171.33736032
5.9399999999999995,594,-0.25,-1.237,-0.172,-25.1528562,21.7151082,-36.4974246,93.16870038,2.92781538,-171.10817712
5.95,595,-0.261,-1.455,-0.162,-23.2620948,26.069589,-31.6845774,92.93951718,3.22002396,-170.83315728
5.96,596,-0.18600000000000005,-1.625,-0.048,-16.501190400000002,27.6165756,-24.4080108,92.78481852,3.4377480000000005,-170.55240786
5.97,597,-0.003,-1.705,0.07200000000000001,-9.167328,22.86102420000001,-15.5844576,92.7046044,3.57525792,-170.31749508
5.9799999999999995,598,0.196,-1.731,0.105,-4.9847345999999995,13.8655836,-9.8548776,92.65876776,3.6669312000000014,-170.17425558
5.99,599,0.359,-1.777,0.134,1.0886202,4.2398892,-8.8235532,92.6759565,3.752874900000001,-170.12841894000005
6.0,600,0.461,-1.832,0.168,5.443101,-4.1825934,-11.4018642,92.72752272,3.8674665,-170.16279642
6.01,601,0.494,-1.86,0.16699999999999998,9.224623800000002,-15.0687954,-15.2406828,92.81346642,4.03362432,-170.30603592
6.02,602,0.45,-1.837,0.189,12.7196676,-28.934379,-17.3606274,92.92805802,4.22843004,-170.58105575999997
6.03,603,0.35600000000000004,-1.7819999999999998,0.208,12.3758928,-42.1697088,-15.2406828,93.03119046,4.41750618,-170.98785594
6.04,604,0.254,-1.71,0.205,11.2872726,-51.0505578,-9.797581800000001,93.11140458,4.5550161000000005,-171.4863294
6.05,605,0.145,-1.63,0.201,12.7769634,-53.1705024,-2.0626488000000003,93.20880744,4.6180414800000005,-172.00772118
6.06,606,0.022,-1.529,0.212,17.4179232,-49.274388,7.2765666,93.35204694,4.58939358,-172.50046505999995
6.07,607,-0.08800000000000001,-1.403,0.253,21.0848544,-42.7999626,16.1001198,93.5353935,4.4690724,-172.93018356
6.08,608,-0.159,-1.247,0.277,21.3140376,-34.7785506,22.0015872,93.75311754,4.25707794,-173.28541751999995
6.09,609,-0.2,-1.111,0.282,16.042824000000003,-26.642547,24.637194,93.89635704,4.0393539,-173.56043736
6.1,610,-0.24,-0.972,0.249,8.136003599999999,-18.048177,23.3193906,93.97084158,3.82735944,-173.75524308
6.11,611,-0.257,-0.8590000000000001,0.22,0.4010706,-8.3651868,19.767051,93.97084158,3.6382833,-173.85264594
6.12,612,-0.28,-0.765,0.194,-3.724227,0.9167328,14.0947668,93.93073452,3.4950437999999995,-173.85264594
6.13,613,-0.265,-0.705,0.183,-7.6776372,10.4278356,7.448453999999999,93.89062746,3.32888598,-173.74951349999995
6.14,614,-0.223,-0.67,0.15,-12.4904844,20.511896399999998,0.9740286,93.77030628,3.30023808,-173.55470778
6.15,615,-0.14,-0.6459999999999999,0.106,-13.407217200000002,29.2781538,-4.010706000000001,93.6499851,3.3116972399999995,-173.26249919999995
6.16,616,-0.027000000000000003,-0.62,0.075,-12.5477802,35.46610020000001,-7.2765666,93.5353935,3.3518043,-172.90726524000004
6.17,617,0.07200000000000001,-0.564,0.07200000000000001,-10.026765,39.4195104,-9.167328,93.4494498,3.4091001000000003,-172.5176538
6.18,618,0.125,-0.488,0.067,-5.7868758000000025,40.33624320000001,-10.4278356,93.41507232,3.4950437999999995,-172.11085362
6.1899999999999995,619,0.133,-0.418,0.064,-2.291832,37.7006364,-11.229976800000001,93.40934274,3.56952834,-171.73270134
6.2,620,0.105,-0.382,0.06,-1.2032118,33.0596766,-11.172681,93.41507232,3.65547204,-171.4003857
6.21,621,0.055,-0.363,0.058,-1.3178034,28.934379,-10.0840608,93.41507232,3.7299565800000014,-171.10817712
6.22,622,-0.011,-0.397,0.055,-0.4010706,25.0955604,-7.5057497999999985,93.4208019,3.7815227999999994,-170.8560756
6.2299999999999995,623,-0.053,-0.467,0.018000000000000002,-2.0626488000000003,22.86102420000001,-4.9274388,93.40361316,3.79871154,-170.6268924
6.24,624,-0.056,-0.532,-0.031,-4.6409598,23.4339822,-4.7555514,93.36923568,3.82162986,-170.39197962
6.25,625,-0.019,-0.595,-0.056,-4.2398892,24.1788276,-6.760904399999999,93.34058778,3.8674665,-170.15133726
6.26,626,0.039,-0.652,-0.057,-1.3178034,24.1215318,-11.2872726,93.34058778,3.95913978,-169.90496532
6.27,627,0.099,-0.705,-0.021,3.5523396000000003,20.340009,-17.9908812,93.38642442,4.11956802,-169.69297086
6.28,628,0.152,-0.75,0.029,8.021412000000002,12.7769634,-25.6112226,93.47236812,4.39458786,-169.54973135999995
6.29,629,0.212,-0.784,0.08900000000000001,11.0580894,3.6669312000000014,-32.0283522,93.5926893,4.70971476,-169.49243556000005
6.3,630,0.249,-0.799,0.14400000000000002,12.318597,-6.703608600000001,-33.231564,93.71301048,5.04775998,-169.5382722
6.31,631,0.248,-0.7959999999999999,0.19,12.6623718,-12.834259199999998,-29.67922440000001,93.83333166,5.35142772,-169.64140464
6.32,632,0.201,-0.767,0.244,14.495837400000001,-14.896907999999998,-23.835052800000003,93.97084158,5.603529239999999,-169.7674554
6.33,633,0.102,-0.754,0.326,21.9442914,-14.037471,-17.761698000000006,94.251591,5.79260538,-169.88777657999995
6.34,634,-0.026,-0.797,0.391,30.4240698,-8.307891,-11.8602306,94.54952916,5.91865614,-169.95653154
6.35,635,-0.188,-0.877,0.383,30.7105488,1.3178034,-5.3858052,94.86465606,5.97022236,-169.93361321999996
6.36,636,-0.3,-0.964,0.293,21.1421502,11.8029348,1.9480572,95.09383926,5.94157446,-169.81329204000005
6.37,637,-0.304,-0.986,0.134,4.4117766,19.194093,10.5424272,95.15113506,5.815523699999999,-169.63567505999995
6.38,638,-0.21,-0.948,0.062,-6.589017,26.929026,19.8243468,95.09383926,5.5290447,-169.38930312
6.39,639,-0.08900000000000001,-0.969,-0.012,-21.2567418,34.60666320000001,29.7365202,94.89903354,5.19099948,-169.07417622
6.4,640,0.07,-0.989,-0.126,-39.0184398,40.6227222,39.877876799999996,94.53234042,4.749821819999998,-168.71321268000003
6.41,641,0.189,-1.027,-0.248,-49.2170922,39.534102,49.9619376,94.05678528,4.211241299999998,-168.36943788
6.42,642,0.294,-1.095,-0.314,-52.8840234,28.5333084,56.2644756,93.52966392,3.62682414,-168.12879552
6.43,643,0.445,-1.199,-0.281,-45.779344200000004,15.0687954,54.94667220000001,93.05410878,3.08824362,-168.0199335
6.4399999999999995,644,0.629,-1.414,-0.185,-28.361421000000004,8.651665800000002,44.34694920000001,92.76762978,2.6413363800000003,-167.96263770000004
6.45,645,0.6940000000000001,-1.767,-0.008,-8.250595200000001,9.167328,27.215505,92.68741566,2.36631654,-167.88815316
6.46,646,0.532,-1.939,0.097,-4.0680017999999984,10.5424272,13.980175199999998,92.6473086,2.21734746,-167.79075029999996
6.47,647,0.294,-1.856,0.069,-7.448453999999999,8.3651868,7.9641161999999985,92.57282406,2.13140376,-167.71053618000005
6.4799999999999995,648,0.17,-1.707,0.05,2.9220857999999996,8.9954406,5.5003968,92.60147196,2.07410796,-167.62459248
6.49,649,0.103,-1.601,0.108,13.6936962,16.7876694,5.844171599999999,92.74471146,2.005353,-167.45843466000005
6.5,650,0.014,-1.5759999999999998,0.202,17.589810600000003,29.335449600000004,6.760904399999999,92.92805802,1.91367972,-167.17195566
6.51,651,-0.08800000000000001,-1.58,0.29600000000000004,15.3552744,41.19568020000001,5.844171599999999,93.09421584,1.82200644,-166.76515548
6.52,652,-0.16899999999999998,-1.558,0.359,9.453807000000001,49.1597964,2.86479,93.19734828,1.75898106,-166.28387076
6.53,653,-0.162,-1.474,0.378,2.0053530000000004,52.998615,-1.2032118,93.24318492,1.7188740000000002,-165.76247898000003
6.54,654,-0.054000000000000006,-1.383,0.36,-3.4950437999999995,54.08723520000001,-4.9847345999999995,93.21453702,1.7188740000000002,-165.22389846000004
6.55,655,0.094,-1.3,0.329,-5.0993262,52.8840234,-7.6203414,93.17442996,1.75325148,-164.69677710000005
6.56,656,0.214,-1.219,0.308,-4.8701430000000006,48.987909,-9.224623800000002,93.12859332,1.8048176999999999,-164.2097628
6.57,657,0.29,-1.113,0.298,-5.6722842,42.34159620000001,-11.0007936,93.08275668,1.87930224,-163.78577388
6.58,658,0.343,-0.999,0.251,-9.0527364,33.403451399999994,-11.8029348,93.03692004,2.05691922,-163.45345823999997
6.59,659,0.368,-0.879,0.16399999999999998,-13.6936962,22.8037284,-10.3705398,92.89941012,2.14286292,-163.22427504
6.6,660,0.368,-0.764,0.098,-13.750992000000002,11.0007936,-6.760904399999999,92.7619002,2.20015872,-163.10968344
6.61,661,0.341,-0.66,0.07200000000000001,-9.5111028,-0.057295800000000015,-2.291832,92.67022692,2.22307704,-163.11541302
6.62,662,0.314,-0.573,0.087,3.724227,-13.2353298,3.2658606,92.7046044,2.20015872,-163.24719336
6.63,663,0.265,-0.51,0.14,17.589810600000003,-22.86102420000001,6.703608600000001,92.89368054,2.18869956,-163.47064698
6.64,664,0.21600000000000005,-0.464,0.197,27.501984000000004,-27.1009134,8.250595200000001,93.16870038,2.13140376,-163.73993724
6.65,665,0.161,-0.445,0.251,33.5753388,-27.788463,7.8495246,93.50101602,2.07410796,-164.01495708
6.66,666,0.111,-0.464,0.27,34.5493674,-24.7517856,5.5576926,93.84479082,2.04546006,-164.26132902
6.67,667,0.064,-0.518,0.234,31.6845774,-18.621135,2.5210152000000003,94.1656473,2.03973048,-164.438946
6.68,668,-0.003,-0.606,0.182,28.1322378,-11.229976800000001,0.4010706,94.46931504,2.03973048,-164.54780802
6.6899999999999995,669,-0.086,-0.7120000000000001,0.129,22.7464326,-4.010706000000001,0.572958,94.69849824,2.03973048,-164.58791508
6.7,670,-0.133,-0.79,0.079,10.7143146,6.1879464,4.7555514,94.80736026,1.98816426,-164.5248897
6.71,671,-0.145,-0.8390000000000001,0.019,0.11459160000000004,15.6990492,9.224623800000002,94.81308984,1.87930224,-164.38165020000002
6.72,672,-0.161,-0.847,-0.051,-7.906820400000001,23.14750320000001,12.891555,94.7386053,1.7246035799999997,-164.16392616000005
6.7299999999999995,673,-0.168,-0.8029999999999999,-0.102,-12.5477802,27.215505,15.870936600000002,94.57244748,1.49542038,-163.91182464000005
6.74,674,-0.139,-0.6940000000000001,-0.131,-15.813640800000002,28.4760126,17.8189938,94.41201924,1.2891555000000001,-163.64826396
6.75,675,-0.08900000000000001,-0.5329999999999999,-0.154,-17.246035799999998,27.3873924,17.475219,94.24013184,1.0886202,-163.39616244
6.76,676,-0.034,-0.373,-0.147,-10.6570188,23.5485738,14.381245800000002,94.13126982,0.9167328000000001,-163.17270882
6.77,677,0.018000000000000002,-0.212,-0.116,-0.5156622000000001,17.303331600000003,9.797581800000001,94.12554024,0.8078707799999998,-163.01228057999995
6.78,678,0.077,-0.076,-0.058,8.9954406,4.9274388,3.4377480000000005,94.21148394,0.79641162,-162.96644394
6.79,679,0.183,-0.028,0.006999999999999999,11.8029348,-2.4064236,-1.9480572,94.33180511999998,0.8193299399999999,-162.98936225999995
6.8,680,0.257,-0.051,0.08900000000000001,6.703608600000001,-8.021412000000002,-7.1046792000000005,94.40056008,0.89954406,-163.05811722
6.81,681,0.31,-0.099,0.173,2.5210152000000003,-9.6829902,-15.4125702,94.4234784,1.0599723,-163.14406092
6.82,682,0.355,-0.308,0.063,-14.5531332,-5.2139178,-27.2728008,94.27450932,1.3349921400000002,-163.17270882
6.83,683,0.339,-0.575,-0.113,-38.3308902,-1.7188740000000002,-36.38283300000001,93.8505204,1.7475218999999995,-163.17270882
6.84,684,0.27,-0.893,-0.217,-57.1239126,5.443101,-41.3102718,93.27183282,2.14286292,-163.09822428
6.85,685,0.083,-1.3730000000000002,-0.339,-73.6823988,16.042824000000003,-46.409598,92.52698742,2.58977016,-162.92633688
6.86,686,-0.35200000000000004,-2.244,-0.4920000000000001,-87.31879920000002,30.7105488,-62.6243094,91.65036168,3.18564648,-162.60548039999995
6.87,687,-0.815,-2.86,-0.138,-59.7022236,39.3622146,-81.360036,91.06594452,3.9648693599999993,-162.20440979999995
6.88,688,-0.6709999999999999,-2.46,0.28600000000000003,-30.194886600000004,36.1536498,-86.91772859999998,90.77946552,4.80711762,-161.83198710000005
6.89,689,-0.136,-1.91,0.11,-30.9970278,41.825934,-67.2079734,90.4987161,5.45456016,-161.40799818
6.9,690,0.239,-1.54,0.023,-24.5798982,48.6441342,-34.1482968,90.28672164,5.77541664,-160.92671346
6.91,691,0.426,-1.356,-0.022,-26.41336380000001,45.6074568,-6.703608600000001,90.05753844,5.8269828599999975,-160.47407664
6.92,692,0.573,-1.378,-0.073,-26.298772200000002,32.257535399999995,5.042030400000002,89.82262566,5.76968706,-160.15894974
6.93,693,0.64,-1.51,-0.107,-24.0069402,16.4438946,0.5156622000000001,89.58771288,5.76968706,-159.99852149999995
6.9399999999999995,694,0.5529999999999999,-1.571,-0.066,-11.45916,0.7448454000000001,-10.3705398,89.47312128,5.872819499999999,-159.99279192
6.95,695,0.38,-1.506,0.035,3.8961144,-5.1566220000000005,-12.0894138,89.50749876,5.9931406800000016,-160.04435814
6.96,696,0.197,-1.42,0.203,19.767051,-6.3598338,-7.9641161999999985,89.70230448,6.079084379999999,-160.10738351999996
6.97,697,0.014,-1.3130000000000002,0.377,31.1689152,-4.2398892,-2.9793816000000004,90.0117018,6.113461859999999,-160.14749058
6.9799999999999995,698,-0.191,-1.179,0.515,32.31483119999999,0.1718874,3.380452200000001,90.42423156,6.02178858,-160.13030184
6.99,699,-0.353,-0.998,0.519,27.043617600000005,11.0580894,10.7143146,90.71071056,5.9129265600000025,-160.01571024
7.0,700,-0.443,-0.8270000000000001,0.487,23.204799,27.3300966,16.2147114,90.96854166,5.74103916,-159.74641997999996
7.01,701,-0.455,-0.723,0.463,24.0069402,42.7999626,17.6471064,91.24929108,5.54623344,-159.32243106
7.02,702,-0.402,-0.6920000000000001,0.404,20.9702628,57.983349600000004,15.9282324,91.50712218,5.3571573,-158.74947306
7.03,703,-0.319,-0.6890000000000001,0.335,17.8762896,65.08802879999999,13.980175199999998,91.78214202,5.13370368,-158.10203052000003
7.04,704,-0.21,-0.726,0.235,13.2926256,68.46848100000001,12.834259199999998,91.97121816,4.96754586,-157.42594007999998
7.05,705,-0.091,-0.745,0.085,4.8128472,68.8122558,12.7196676,92.06862102,4.79565846,-156.74984964
7.06,706,0.025,-0.726,0.008,1.6615782,69.32791800000001,12.318597,92.1316464,4.629500640000002,-156.06802962
7.07,707,0.107,-0.696,-0.008,2.5210152000000003,71.33327100000002,9.167328,92.20040136,4.49199072,-155.36329128
7.08,708,0.14400000000000002,-0.684,-0.017,5.042030400000002,72.65107440000001,2.5210152000000003,92.29207464,4.43469492,-154.64709378
7.09,709,0.123,-0.6729999999999999,0.017,7.9641161999999985,71.7343416,-4.9274388,92.4181254,4.43469492,-153.93662586
7.1,710,0.093,-0.669,0.045,7.1046792000000005,72.3645954,-11.172681,92.53844658,4.4977203,-153.21469878
7.11,711,0.112,-0.6729999999999999,-0.019,1.3178034,74.42724419999998,-11.516455800000001,92.59574238000002,4.56074568,-152.46985338
7.12,712,0.141,-0.657,-0.05,-0.8021411999999999,72.5364828,-6.9327918,92.63584944,4.57220484,-151.74792630000005
7.13,713,0.16,-0.6779999999999999,0.003,1.8907613999999997,68.58307260000001,-0.1718874,92.69887482,4.549286520000001,-151.07183586000005
7.14,714,0.203,-0.784,-0.027000000000000003,-4.3544808,67.26526919999999,7.9641161999999985,92.69314524,4.41750618,-150.41293416
7.15,715,0.239,-0.912,-0.17800000000000002,-14.9542038,60.38977320000001,18.5638392,92.57855364,4.1883229800000015,-149.82278742
7.16,716,0.306,-1.062,-0.241,-20.454600600000006,47.7846972,28.7051958,92.39520708,3.8674665,-149.37015060000004
7.17,717,0.438,-1.268,-0.262,-22.2307704,35.0077338,34.7785506,92.1889422,3.50077338,-149.03783496
7.18,718,0.633,-1.581,-0.244,-21.9442914,19.308684600000007,32.544014399999995,91.97121816,3.16845774,-148.86594756
7.1899999999999995,719,0.768,-1.958,-0.188,-21.4286292,9.9121734,24.064235999999998,91.75349412,2.9220858,-148.77427428
7.2,720,0.765,-2.242,-0.07400000000000001,-11.172681,4.297185,15.2979786,91.6446321,2.76738714,-148.7398968
7.21,721,0.598,-2.224,0.037000000000000005,4.0680017999999984,5.042030400000002,10.886202,91.68473916,2.65852512,-148.69406016
7.22,722,0.34,-2.003,0.124,22.345362,11.229976800000001,10.026765,91.91965194,2.55539268,-148.57946855999995
7.2299999999999995,723,0.059,-1.832,0.195,33.116972399999995,20.5691922,7.906820400000001,92.26342674,2.4637194,-148.37893326
7.24,724,-0.146,-1.704,0.232,32.372127,34.7785506,3.4950437999999995,92.60147196,2.4064236,-148.02942888
7.25,725,-0.237,-1.61,0.239,26.5279554,48.9306132,-0.7448454000000001,92.88222138,2.3777757,-147.54814416
7.26,726,-0.231,-1.556,0.255,17.131444199999994,64.8015498,-2.578311,93.0770271,2.35485738,-146.90070162
7.27,727,-0.175,-1.521,0.276,11.917526400000002,73.911582,-1.6042823999999998,93.2202666,2.30902074,-146.17304496
7.28,728,-0.07200000000000001,-1.477,0.272,5.5576926,79.5838662,0.8021411999999999,93.30048072,2.2345362,-145.3880925
7.29,729,0.058,-1.411,0.233,-0.5156622000000001,81.7611066,2.8074942000000003,93.31766946,2.13713334,-144.58022172
7.3,730,0.181,-1.314,0.187,-5.7868758000000025,80.5578948,2.4637194,93.27756240000001,2.04546006,-143.78953968000005
7.31,731,0.28800000000000003,-1.183,0.14,-12.891555,76.31800559999998,0.572958,93.1629708,1.97097552,-143.03896469999995
7.32,732,0.365,-1.033,0.092,-19.194093,68.35388940000001,-2.291832,92.97962424,1.93659804,-142.36860384
7.33,733,0.42,-0.865,0.04,-23.5485738,58.0406454,-6.0733548,92.74471146,2.02827132,-141.79564584
7.34,734,0.445,-0.73,0.015,-25.2674478,42.112413,-10.255948199999999,92.49833952,2.09702628,-141.3773865
7.35,735,0.441,-0.645,0.004,-24.5798982,30.366774000000003,-12.261301199999998,92.25769716,2.19442914,-141.07371876
7.36,736,0.403,-0.583,-0.028,-23.835052800000003,20.3973048,-12.318597,92.0170548,2.30329116,-140.87318346
7.37,737,0.344,-0.523,-0.071,-21.6005166,13.349921400000001,-11.0580894,91.80506034,2.4064236,-140.73567354
7.38,738,0.275,-0.462,-0.081,-16.558486199999994,7.8495246,-9.224623800000002,91.6159842,2.53247436,-140.66118899999998
7.39,739,0.211,-0.425,-0.07400000000000001,-10.255948199999999,3.0366774,-7.5057497999999985,91.51285176,2.6069589,-140.62681152
7.4,740,0.158,-0.4,-0.06,-4.9847345999999995,-0.1718874,-5.72958,91.46128554,2.6642547000000003,-140.6325411
7.41,741,0.112,-0.401,-0.016,-0.4010706,-2.1199446,-3.9534102,91.45555596,2.70436176,-140.64972984
7.42,742,0.08199999999999999,-0.444,0.043,3.5523396000000003,-1.9480572,-2.0626488000000003,91.49566302,2.7215505,-140.66691858
7.43,743,0.053,-0.517,0.08,3.7815227999999994,0.9740286,-0.9167328,91.54149966,2.73873924,-140.65545942
7.4399999999999995,744,0.028,-0.62,0.056,1.6615782,6.589017,0.6302538000000001,91.56441798,2.72728008,-140.59243404
7.45,745,-0.006999999999999999,-0.72,0.016,1.3750992,13.0634424,3.8961144,91.58160672,2.68144344,-140.46638328
7.46,746,-0.045,-0.813,0.036000000000000004,5.1566220000000005,17.8762896,8.307891,91.63890252,2.58977016,-140.28876630000002
7.47,747,-0.08,-0.904,0.095,7.3911582,22.5172494,12.891555,91.72484622,2.45226024,-140.07104225999998
7.4799999999999995,748,-0.115,-0.975,0.149,5.72958,29.1062664,17.18874,91.82224908,2.21734746,-139.78456325999997
7.49,749,-0.136,-1.047,0.17600000000000002,2.9793816000000004,37.1276784,20.7410796,91.86235614,1.99389384,-139.42359972
7.5,750,-0.158,-1.106,0.172,1.3750992,45.6647526,24.8663772,91.88527446,1.7188740000000002,-138.98242206
7.51,751,-0.149,-1.161,0.16899999999999998,2.9220857999999996,49.2170922,28.0176462,91.91965194,1.40947668,-138.50686692
7.52,752,-0.123,-1.206,0.124,2.291832,51.3943326,30.0229992,91.94829984,1.08289062,-138.00839346
7.53,753,-0.066,-1.219,0.07200000000000001,1.7761698,51.0505578,29.621928600000004,91.96548857999998,0.75057498,-137.51564958
7.54,754,0.019,-1.225,-0.014,3.9534102,48.7587258,24.1788276,92.00559564,0.48128472,-137.04582402
7.55,755,0.103,-1.257,-0.064,9.969469199999999,47.269034999999995,11.745639,92.1029985,0.33231564,-136.58172804
7.56,756,0.156,-1.351,-0.039,15.2406828,50.420304,-6.4744254,92.25196758,0.36669312,-136.07752499999998
7.57,757,0.147,-1.44,0.029,18.048177,52.597544400000004,-29.621928600000004,92.43531414,0.62452422,-135.54467405999998
7.58,758,0.119,-1.442,0.011,17.3606274,48.5868384,-50.5921914,92.60720154,1.10007936,-135.04047101999998
7.59,759,0.147,-1.328,-0.03,18.449247600000003,40.966497,-55.6915176,92.79627768,1.62147114,-134.60502293999997
7.6,760,0.18,-1.128,-0.042,15.9282324,34.8358464,-50.24841660000001,92.96816508,2.09702628,-134.23260024
7.61,761,0.19,-0.913,-0.041,7.161975,31.054323600000004,-38.961144,93.0483792,2.45798982,-133.90601418
7.62,762,0.154,-0.7659999999999999,-0.056,-3.6669312000000014,31.79916900000001,-26.642547,93.0197313,2.69863218,-133.57369853999998
7.63,763,0.092,-0.782,-0.064,-10.8289062,36.2109456,-19.595163600000006,92.89368054,2.87051958,-133.212735
7.64,764,0.014,-0.937,-0.057,-15.4125702,44.8626114,-16.558486199999994,92.75617062,2.9965703400000003,-132.76009818
7.65,765,-0.07200000000000001,-1.203,-0.038,-18.162768600000003,55.86340500000001,-14.495837400000001,92.5900128,3.0997027800000003,-132.20432892000002
7.66,766,-0.138,-1.393,-0.004,-18.449247600000003,72.9948492,-11.917526400000002,92.43531414,3.1627281600000003,-131.48240184000002
7.67,767,-0.184,-1.457,0.05,-14.5531332,83.19350159999998,-8.9954406,92.32072254,3.19710564,-130.65734232
7.68,768,-0.212,-1.405,0.086,-11.745639,91.8451674,-6.0733548,92.24050842,3.1799169000000003,-129.74633909999997
7.6899999999999995,769,-0.198,-1.28,0.1,-9.224623800000002,99.981171,-3.3231564,92.1889422,3.14553942,-128.76085134
7.7,770,-0.149,-1.159,0.104,-7.7922288,107.9452872,0.0,92.14883514,3.07105488,-127.69514946
7.71,771,-0.098,-1.083,0.1,-7.5057497999999985,114.8207832,4.5263682,92.12018724,2.9564632800000004,-126.56069261999998
7.72,772,-0.048,-1.033,0.095,-8.7662574,121.3525044,8.5370742,92.0743506,2.79030546,-125.36893998
7.7299999999999995,773,-0.009000000000000001,-0.987,0.095,-10.1986524,126.6810138,10.9434978,92.0170548,2.59549974,-124.11989154
7.74,774,0.008,-0.954,0.104,-11.4018642,132.5251854,11.516455800000001,91.93684068,2.40069402,-122.81927688
7.75,775,0.013,-0.93,0.123,-12.4331886,136.1921166,10.8289062,91.85089698,2.21161788,-121.47855516
7.76,776,0.016,-0.908,0.134,-13.8655836,139.6871604,9.6256944,91.74203496,2.02827132,-120.10345596
7.77,777,0.014,-0.8909999999999999,0.138,-15.183387000000002,142.953021,7.906820400000001,91.6159842,1.86784308,-118.69397928
7.78,778,0.015,-0.8759999999999999,0.14300000000000002,-16.558486199999994,145.817811,5.9014674000000005,91.48420386,1.73033316,-117.26158428
7.79,779,0.01,-0.8690000000000001,0.14,-18.162768600000003,148.396122,3.7815227999999994,91.31804604,1.6157415599999996,-115.7948118
7.8,780,0.001,-0.8740000000000001,0.132,-19.194093,150.00040439999995,1.8907613999999997,91.14615864,1.5183387000000002,-114.31658016000002
7.81,781,-0.012,-0.893,0.125,-20.05353,151.4327994,-0.3437748,90.96281208,1.45531332,-112.82115978
7.82,782,-0.019,-0.913,0.12,-19.480572,152.75060280000002,-3.2658606,90.77946552,1.4209358399999998,-111.31428024
7.83,783,-0.017,-0.937,0.12,-17.0741484,153.3235608,-5.6722842,90.63049644,1.40947668,-109.80167112
7.84,784,-0.002,-0.959,0.131,-14.495837400000001,153.26626499999998,-7.906820400000001,90.50444568,1.432395,-108.28906200000002
7.85,785,0.03,-0.972,0.131,-12.318597,152.75060280000002,-9.6829902,90.39558366,1.47250206,-106.77645288
7.86,786,0.073,-0.975,0.118,-9.8548776,151.20361619999997,-11.0580894,90.31536954,1.52979786,-105.28676208000002
7.87,787,0.115,-0.971,0.109,-7.333862400000001,148.85448839999995,-12.4331886,90.25807374,1.61001198,-103.81426002
7.88,788,0.145,-0.961,0.08900000000000001,-6.3025379999999975,146.3334732,-13.980175199999998,90.22369626,1.71314442,-102.36467628
7.89,789,0.155,-0.94,0.078,-5.958763200000001,143.8697538,-15.813640800000002,90.1835892,1.82773602,-100.94374043999998
7.9,790,0.131,-0.931,0.097,-5.6722842,141.9216966,-18.449247600000003,90.15494129999999,1.96524594,-99.53999334
7.91,791,0.08800000000000001,-0.94,0.118,-6.8182002000000015,142.3227672,-20.5691922,90.11483424,2.12567418,-98.13051665999998
7.92,792,0.021,-0.974,0.125,-8.307891,143.525979,-21.027558600000006,90.06326802,2.2918320000000003,-96.70958082
7.93,793,-0.053,-1.015,0.113,-11.1153852,145.1875572,-20.05353,90.00024264,2.44080108,-95.27718582
7.94,794,-0.09,-1.027,0.093,-14.7250206,148.109643,-19.2513888,89.8971102,2.58977016,-93.81041334
7.95,795,-0.086,-1.019,0.073,-16.615782,150.85984140000005,-19.5378678,89.77678902,2.7501984,-92.32072254
7.96,796,-0.037000000000000005,-1.015,0.075,-16.558486199999994,152.92249019999997,-20.1108258,89.66219742,2.91062664,-90.813843
7.97,797,0.045,-1.02,0.083,-15.813640800000002,154.29758940000005,-19.8816426,89.55906498,3.07678446,-89.28977472
7.9799999999999995,798,0.118,-1.023,0.08199999999999999,-15.469866,153.78192719999996,-18.9649098,89.46739170000002,3.24294228,-87.76570644
7.99,799,0.173,-1.018,0.08199999999999999,-14.7823164,151.7192784,-18.162768600000003,89.38717758,3.39764094,-86.27028606
8.0,800,0.192,-1.014,0.083,-13.8082878,147.70857239999995,-17.7044022,89.31269304,3.54661002,-84.80924316
8.01,801,0.195,-1.003,0.061,-15.813640800000002,142.38006299999995,-17.131444199999994,89.22101975999998,3.6955791,-83.39976648
8.02,802,0.182,-0.994,0.02,-19.1367972,134.931609,-16.615782,89.09496899999998,3.8388186000000006,-82.07050392
8.03,803,0.16899999999999998,-0.99,-0.021,-22.058883,127.0820844,-16.4438946,88.94027034,3.99924684,-80.8157259
8.04,804,0.17600000000000002,-0.987,-0.068,-24.1215318,120.3784758,-16.8449652,88.76265336,4.1539455,-79.62970284
8.05,805,0.21600000000000005,-0.991,-0.115,-25.8977016,115.33644540000002,-17.761698000000006,88.56784764,4.325832900000001,-78.48951642
8.06,806,0.29,-1.015,-0.154,-30.0229992,110.6954856,-18.9649098,88.32720528,4.50917946,-77.40089622
8.07,807,0.359,-1.045,-0.153,-34.2055926,105.08049720000001,-18.5065434,88.05218544,4.69252602,-76.36957182
8.08,808,0.368,-1.084,-0.11,-35.4088044,99.408213,-15.813640800000002,87.75424728,4.88160216,-75.38981364
8.09,809,0.32,-1.122,-0.07200000000000001,-34.4920716,96.4288314,-11.745639,87.47349786,5.00765292,-74.44443294
8.1,810,0.233,-1.153,-0.05,-32.486718599999996,95.85587340000001,-7.6776372,87.20993718,5.0993262,-73.49905224
8.11,811,0.14,-1.154,-0.03,-29.4500412,96.8871978,-5.6149884000000005,86.98648356,5.17381074,-72.54221238
8.12,812,0.054000000000000006,-1.103,-0.022,-29.220858000000003,99.5801004,-5.5003968,86.76302994,5.25402486,-71.5624542
8.13,813,-0.015,-1.003,-0.026,-29.67922440000001,104.564835,-6.9327918,86.5453059,5.339968560000001,-70.5311298
8.14,814,-0.027000000000000003,-0.933,-0.018000000000000002,-30.4813656,110.7527814,-8.7089616,86.32185228,5.46028974,-69.43678002
8.15,815,0.0,-0.873,-0.009000000000000001,-33.231564,116.1385866,-10.026765,86.08120991999998,5.603529239999999,-68.2965936
8.16,816,0.052000000000000005,-0.8390000000000001,-0.009000000000000001,-37.0130868,119.6336304,-10.1413566,85.80619008000002,5.746768739999999,-67.1220297
8.17,817,0.12,-0.83,-0.016,-41.023792799999995,121.753575,-8.9381448,85.49106318,5.89000824,-65.92454748
8.18,818,0.196,-0.8490000000000001,-0.031,-43.77399120000001,121.3525044,-6.589017,85.15874754000002,6.0332477399999975,-64.72706526
8.19,819,0.256,-0.8859999999999999,-0.037000000000000005,-42.7999626,118.20123540000002,-3.6096354,84.83216148,6.13638018,-63.56396052
8.2,820,0.287,-0.924,-0.014,-37.5860448,114.018642,-0.7448454000000001,84.55714164,6.210864720000001,-62.43523326
8.209999999999999,821,0.287,-0.962,0.026,-30.7678446,111.0965562,1.3178034,84.34514718,6.2738901,-61.3351539
8.22,822,0.249,-0.99,0.058,-22.7464326,110.2371192,2.2345362,84.21909642,6.3254563200000025,-60.24080411999999
8.23,823,0.18600000000000005,-1.007,0.1,-16.902261,111.7841058,2.2345362,84.17898936,6.3884817000000025,-59.1292656
8.24,824,0.122,-1.028,0.129,-12.6623718,115.3937412,0.9740286,84.16180062,6.462966239999997,-57.98907918
8.25,825,0.071,-1.044,0.15,-10.3705398,120.95143380000002,-1.2032118,84.17898936,6.566098679999999,-56.78586738
8.26,826,0.034,-1.054,0.179,-8.59437,126.623718,-3.2658606,84.21909642,6.686419860000001,-55.53681894
8.27,827,0.013,-1.053,0.197,-8.59437,131.9522274,-4.010706000000001,84.26493306,6.8182002000000015,-54.2304747
8.28,828,0.016,-1.038,0.191,-8.9954406,137.9109906,-2.86479,84.35087675999998,6.93852138,-52.86110508
8.29,829,0.05,-1.021,0.17800000000000002,-9.5111028,143.6978664,0.11459160000000004,84.40817256,7.03592424,-51.43443966
8.3,830,0.1,-1.011,0.155,-9.969469199999999,147.3075018,3.6096354,84.46546836,7.098949620000001,-49.96766718
8.31,831,0.147,-0.988,0.129,-10.255948199999999,147.250206,7.2192707999999985,84.52276416000002,7.12186794,-48.5008947
8.32,832,0.189,-0.96,0.118,-10.026765,145.244853,10.0840608,84.58005996,7.12186794,-47.04558138
8.33,833,0.221,-0.946,0.111,-8.479778399999999,142.43735880000003,11.172681,84.67173324000002,7.116138359999999,-45.61891596
8.34,834,0.252,-0.943,0.109,-7.6776372,138.7131318,10.8289062,84.74621778000002,7.09322004,-44.2323576
8.35,835,0.287,-0.942,0.102,-6.9327918,133.9575804,10.026765,84.82070232,7.076031300000001,-42.89163588
8.36,836,0.314,-0.949,0.09,-4.8128472,128.6863668,8.307891,84.91810518,7.076031300000001,-41.60820996
8.37,837,0.339,-0.965,0.081,-3.0366774,123.47244899999998,6.0733548,85.02123762,7.0874904600000015,-40.37062068
8.38,838,0.354,-0.973,0.071,-1.145916,117.05531940000002,3.7815227999999994,85.15301796,7.144786260000001,-39.20178636
8.39,839,0.353,-0.978,0.055,0.4010706,111.84140159999998,2.6929026,85.2847983,7.17916374,-38.09024784
8.4,840,0.341,-0.98,0.045,2.0053530000000004,106.45559640000002,2.5210152000000003,85.42230822,7.213541219999999,-37.02454596
8.41,841,0.319,-0.986,0.039,3.4377480000000005,101.2989744,2.7501984,85.57127729999998,7.23645954,-36.01613988
8.42,842,0.293,-1.0,0.016,4.010706000000001,96.6007188,2.9220857999999996,85.72024638,7.25364828,-35.05357044
8.43,843,0.266,-1.015,-0.006999999999999999,3.9534102,93.5640414,2.6929026,85.86921545999998,7.288025760000001,-34.1196489
8.44,844,0.231,-1.043,-0.034,2.9793816000000004,91.4440968,2.4064236,86.00672538,7.305214500000001,-33.2029161
8.45,845,0.191,-1.052,-0.03,3.8961144,88.98037740000002,2.1772404,86.1442353,7.3166736599999975,-32.3148312
8.459999999999999,846,0.168,-1.02,0.01,6.875496000000001,84.2821218,1.7761698,86.31039312,7.333862399999999,-31.47258294
8.47,847,0.182,-0.976,0.057,6.6463128000000005,81.9902898,1.0886202,86.47655094000002,7.35105114,-30.65898258
8.48,848,0.231,-0.94,0.045,4.7555514,81.8756982,0.4583664000000001,86.62552002,7.39688778,-29.839652640000004
8.49,849,0.251,-0.916,0.006999999999999999,2.8074942000000003,81.4173318,0.8594370000000001,86.75157078,7.41407652,-29.02605228
8.5,850,0.272,-0.913,0.009000000000000001,4.010706000000001,81.7611066,2.1772404,86.88335112,7.41407652,-28.21245192
8.51,851,0.275,-0.94,0.004,5.2712136,80.78707800000002,3.724227,87.03232019999999,7.39688778,-27.404581140000005
8.52,852,0.27,-0.974,0.0,4.6409598,80.09952840000003,4.5263682,87.17555970000002,7.37396946,-26.60243994
8.53,853,0.27,-0.995,0.014,4.8128472,80.04223259999998,4.1252976000000015,87.32452878000002,7.37396946,-25.80029874
8.54,854,0.264,-1.0,0.035,5.2139178,78.5525418,4.0680017999999984,87.46776828,7.34532156,-25.01534628
8.55,855,0.259,-1.005,0.04,4.6982556,76.03152659999998,4.4690724,87.59954862,7.3166736599999975,-24.25331214
8.56,856,0.26,-1.009,0.046,5.7868758000000025,73.338624,5.5003968,87.74278812,7.270837019999999,-23.5199259
8.57,857,0.254,-1.013,0.055,8.7662574,69.8435802,6.589017,87.90894594,7.213541219999999,-22.82091714
8.58,858,0.237,-1.005,0.068,12.4331886,66.3485364,7.5057497999999985,88.12666998,7.161975,-22.15628586
8.59,859,0.225,-0.986,0.084,15.3552744,63.1972674,8.136003599999999,88.35585318,7.0874904600000015,-21.52030248
8.6,860,0.231,-0.973,0.087,17.0168526,60.50436480000001,8.651665800000002,88.59649553999998,7.001546759999999,-20.912967000000002
8.61,861,0.251,-0.971,0.08,17.8189938,58.0979412,8.136003599999999,88.8371379,6.9156030600000005,-20.33427942
8.62,862,0.259,-0.981,0.07200000000000001,18.2773602,54.20182679999999,6.8182002000000015,89.08350984,6.8468481,-19.78996932
8.63,863,0.246,-0.985,0.066,18.5638392,49.90464179999999,5.7868758000000025,89.33561136,6.812470620000001,-19.28576628
8.64,864,0.235,-0.983,0.059,17.9335854,45.9512316,5.3858052,89.56479456,6.74944524,-18.82739988
8.65,865,0.229,-0.974,0.043,16.4438946,42.7426668,4.9274388,89.77678902,6.69214944,-18.39768138
8.66,866,0.222,-0.959,0.029,14.7823164,40.04976420000001,3.4950437999999995,89.97159474,6.65204238,-18.002340359999994
8.67,867,0.199,-0.945,0.019,13.178034,36.7839036,1.0313244,90.13775256,6.62912406,-17.62991766
8.68,868,0.168,-0.931,0.006,11.516455800000001,32.8877892,-1.6615782,90.28099206,6.65777196,-17.303331600000003
8.69,869,0.139,-0.91,-0.01,9.1100322,30.0229992,-4.4117766,90.40131324,6.69214944,-17.00539344
8.7,870,0.129,-0.902,-0.025,5.6722842,29.621928600000004,-7.2192707999999985,90.49298652,6.7551748200000015,-16.707455279999998
8.71,871,0.128,-0.919,-0.026,2.8074942000000003,30.1375908,-9.224623800000002,90.55028232,6.83538894,-16.40378754
8.72,872,0.121,-0.964,-0.024,-0.5156622000000001,31.6845774,-10.1413566,90.57893022,6.9270622200000025,-16.088660639999997
8.73,873,0.117,-1.028,-0.018000000000000002,-4.1252976000000015,35.0650296,-9.6256944,90.56174148,7.00727634,-15.739156259999998
8.74,874,0.099,-1.098,-0.025,-5.9014674000000005,38.61736920000001,-7.5057497999999985,90.53882316,7.06457214,-15.355274400000004
8.75,875,0.061,-1.158,-0.032,-5.3858052,41.0810886,-4.6409598,90.53309358,7.098949620000001,-14.94847422
8.76,876,0.021,-1.189,-0.03,-3.7815227999999994,42.685371,-2.3491278,90.53882316,7.1046792000000005,-14.5244853
8.77,877,-0.016,-1.166,-0.012,-1.432395,44.1750618,-0.572958,90.57320064,7.09322004,-14.08330764
8.78,878,-0.028,-1.113,0.008,0.0,46.1804148,0.0,90.61903728,7.030194660000001,-13.624941240000002
8.79,879,-0.023,-1.061,0.03,0.7448454000000001,47.9565846,0.7448454000000001,90.67633308,7.001546759999999,-13.14365652
8.8,880,-0.014,-1.027,0.051,0.4583664000000001,49.61816279999999,2.1199446,90.73362888,6.9614397000000015,-12.65091264
8.81,881,-0.006,-1.019,0.071,-0.6875496,51.6235158,3.7815227999999994,90.78519509999998,6.9041438999999984,-12.14098002
8.82,882,0.002,-1.035,0.076,-2.6929026,53.285094,5.6149884000000005,90.813843,6.82392978,-11.60812908
8.83,883,0.009000000000000001,-1.064,0.075,-4.4117766,54.6601932,7.7349330000000025,90.83103174,6.7036086,-11.06954856
8.84,884,0.009000000000000001,-1.1,0.068,-5.7868758000000025,55.748813399999996,9.5111028,90.83103174,6.58328742,-10.5137793
8.85,885,-0.003,-1.129,0.059,-6.875496000000001,56.608250399999996,11.516455800000001,90.813843,6.4457775,-9.95801004
8.86,886,-0.017,-1.135,0.048,-7.1046792000000005,57.58227899999999,13.2926256,90.79665426,6.285349259999999,-9.38505204
8.87,887,-0.028,-1.122,0.052000000000000005,-6.3025379999999975,58.38442020000001,14.7823164,90.79092468,6.11919144,-8.80636446
8.88,888,-0.037000000000000005,-1.099,0.061,-5.2712136,59.24385720000001,16.272007199999994,90.79092468,5.9014674000000005,-8.2219473
8.89,889,-0.042,-1.069,0.069,-4.3544808,60.0459984,17.6471064,90.80238384,5.7009320999999975,-7.63180056
8.9,890,-0.046,-1.037,0.084,-3.4377480000000005,60.8481396,18.3919518,90.813843,5.4946672199999975,-7.030194660000001
8.91,891,-0.043,-1.01,0.093,-3.380452200000001,61.8221682,18.162768600000003,90.83103174,5.28840234,-6.4228591800000014
8.92,892,-0.036000000000000004,-0.972,0.109,-4.4690724,63.48374640000001,16.7876694,90.83103174,5.0935966200000005,-5.79260538
8.93,893,-0.02,-0.942,0.113,-5.3285094000000015,65.4318036,14.9542038,90.84249090000002,4.898790900000002,-5.14516284
8.94,894,-0.006,-0.928,0.113,-5.9014674000000005,67.43715660000001,12.9488508,90.83103174,4.74409224,-4.48053156
8.95,895,-0.003,-0.926,0.112,-6.417129599999999,68.9268474,11.3445684,90.80811342,4.6008527400000006,-3.79871154
8.96,896,0.0,-0.925,0.116,-6.875496000000001,70.18735500000001,9.8548776,90.78519509999998,4.4748019800000005,-3.1054323600000004
8.97,897,0.006,-0.924,0.116,-6.8182002000000015,71.5051584,8.193299399999999,90.76227678,4.36021038,-2.40069402
8.98,898,0.013,-0.928,0.114,-6.6463128000000005,72.65107440000001,6.4744254,90.75081762,4.25707794,-1.6844965200000002
8.99,899,0.028,-0.94,0.105,-6.9327918,72.9948492,4.7555514,90.7278993,4.1825934,-0.96256944
9.0,900,0.046,-0.955,0.08900000000000001,-6.703608600000001,73.10944079999999,3.151269,90.69925140000001,4.11956802,-0.23491278
9.01,901,0.073,-0.97,0.07200000000000001,-6.016058999999999,72.25000379999999,1.5469866,90.68206266,4.07373138,0.46982556
9.02,902,0.1,-0.985,0.051,-5.3858052,69.2706222,0.0,90.66487392,4.05081306,1.1573751600000002
9.03,903,0.119,-0.997,0.035,-4.7555514,65.317212,-1.0313244,90.65341476,4.05081306,1.8048176999999999
9.04,904,0.132,-1.007,0.025,-4.583664,60.6189564,-1.8334656000000005,90.6419556,4.04508348,2.4064236
9.05,905,0.132,-1.014,0.019,-4.9847345999999995,55.4623344,-2.4637194,90.61903728,4.04508348,2.9507337
9.06,906,0.127,-1.027,0.009000000000000001,-5.1566220000000005,50.47759979999999,-2.3491278,90.59611896,4.05081306,3.45493674
9.07,907,0.114,-1.044,-0.001,-5.042030400000002,45.4355694,-1.3178034,90.56747106,4.04508348,3.90184398
9.08,908,0.095,-1.057,-0.015,-4.9847345999999995,40.737313799999995,-0.286479,90.52163442,4.0393539,4.30291458
9.09,909,0.073,-1.064,-0.022,-4.583664,36.7839036,0.6302538000000001,90.4987161,4.01643558,4.669607699999999
9.1,910,0.053,-1.057,-0.021,-3.6096354,33.231564,1.6042823999999998,90.48152736,3.98778768,4.99619376
9.11,911,0.041,-1.045,-0.012,-3.2085648,31.2835068,2.1199446,90.46433862,3.95913978,5.30559108
9.12,912,0.03,-1.032,0.0,-3.3231564,29.9657034,2.1772404,90.44714988,3.9247623,5.603529239999999
9.13,913,0.019,-1.02,0.006999999999999999,-3.4950437999999995,28.81978740000001,2.1199446,90.41850198,3.8674665,5.88427866
9.14,914,0.005,-1.005,0.017,-3.7815227999999994,27.8457588,1.8334656000000005,90.38985408,3.8388186000000006,6.165028080000001
9.15,915,-0.011,-0.991,0.012,-4.7555514,27.1582092,1.3178034,90.3554766,3.81590028,6.428588760000001
9.16,916,-0.024,-0.971,0.006999999999999999,-5.72958,26.814434400000003,0.572958,90.31536954,3.79871154,6.69787902
9.17,917,-0.024,-0.949,0.015,-5.443101,26.7571386,-0.4583664000000001,90.2695329,3.79871154,6.9614397000000015
9.18,918,-0.016,-0.935,0.027000000000000003,-4.6409598,26.5279554,-2.1199446,90.240885,3.77579322,7.225000379999999
9.19,919,-0.005,-0.924,0.042,-3.8388186,25.78311,-3.724227,90.2122371,3.80444112,7.477101899999999
9.2,920,0.003,-0.917,0.062,-3.151269,24.9809688,-5.5003968,90.19504836000002,3.85027776,7.72347384
9.21,921,0.009000000000000001,-0.921,0.07200000000000001,-2.6929026,24.1788276,-7.2765666,90.17785962,3.91330314,7.9641161999999985
9.22,922,0.004,-0.933,0.077,-2.1199446,23.2620948,-8.7662574,90.17213004,3.99351726,8.193299399999999
9.23,923,-0.005,-0.955,0.07200000000000001,-1.7761698,22.631841,-9.969469199999999,90.18931878,4.05081306,8.422482599999999
9.24,924,0.0,-0.979,0.056,-1.7761698,22.86102420000001,-10.7143146,90.1835892,4.14821592,8.64593622
9.25,925,0.008,-1.002,0.046,-1.145916,23.032911600000002,-11.2872726,90.1835892,4.25707794,8.87511942
9.26,926,0.027000000000000003,-1.02,0.04,-0.286479,22.631841,-12.2040054,90.19504836000002,4.37166954,9.10430262
9.27,927,0.042,-1.031,0.016,-0.5156622000000001,20.798375399999998,-12.6623718,90.20077794,4.49199072,9.3105675
9.28,928,0.06,-1.037,-0.005,-0.8021411999999999,17.9335854,-12.605076,90.1835892,4.6008527400000006,9.48818448
9.29,929,0.07400000000000001,-1.038,-0.017,-0.6875496,14.152062599999999,-12.2040054,90.1835892,4.72117392,9.6256944
9.3,930,0.08800000000000001,-1.039,-0.021,-0.9167328,9.8548776,-11.8602306,90.1835892,4.83576552,9.72882684
9.31,931,0.099,-1.043,-0.03,-1.5469866,5.7868758000000025,-11.9748222,90.17213004,4.95035712,9.78612264
9.32,932,0.119,-1.0490000000000002,-0.039,-2.0626488000000003,2.6929026,-12.032117999999999,90.14921172,5.0706783,9.81477054
9.33,933,0.126,-1.063,-0.04,-2.1772404,-1.0313244,-11.4018642,90.06899759999996,5.2139178,9.7975818
9.34,934,0.121,-1.069,-0.041,-3.0939732,-5.72958,-10.0840608,90.03462012,5.31705024,9.740286
9.35,935,0.105,-1.071,-0.038,-3.2085648,-8.880849000000003,-8.4224826,89.99451306,5.40299394,9.6543423
9.36,936,0.081,-1.067,-0.038,-3.0939732,-11.172681,-6.6463128000000005,89.94867642,5.4717489000000015,9.5397507
9.37,937,0.057,-1.05,-0.032,-2.7501984,-13.2353298,-5.443101,89.91429894,5.5290447,9.407970359999998
9.38,938,0.027000000000000003,-1.027,-0.024,-2.4064236,-14.4385416,-4.8128472,89.84554397999999,5.52331512,9.25900128
9.39,939,0.002,-1.0,-0.018000000000000002,-2.4637194,-14.896907999999998,-4.5263682,89.80543692,5.56915176,9.11576178
9.4,940,-0.019,-0.973,-0.017,-2.291832,-14.896907999999998,-4.6982556,89.77105944,5.62071798,8.9667927
9.41,941,-0.033,-0.954,-0.01,-2.4637194,-13.9228794,-5.1566220000000005,89.73095237999998,5.67801378,8.823553200000003
9.42,942,-0.033,-0.945,-0.017,-3.380452200000001,-12.261301199999998,-5.844171599999999,89.68511574,5.735309579999999,8.70323202
9.43,943,-0.024,-0.945,-0.015,-3.8961144,-10.599723,-6.760904399999999,89.61636078000002,5.72385042,8.594370000000001
9.44,944,-0.008,-0.949,-0.011,-4.4117766,-8.5370742,-7.5630456000000015,89.56479456,5.79833496,8.5084263
9.45,945,0.006999999999999999,-0.955,-0.004,-4.583664,-6.3025379999999975,-8.250595200000001,89.51322834,5.88427866,8.44540092
9.46,946,0.023,-0.971,-0.001,-4.5263682,-4.1252976000000015,-8.7662574,89.46166212,5.97022236,8.39956428
9.47,947,0.036000000000000004,-0.986,0.005,-4.1825934,-1.3750992,-9.1100322,89.41582548,6.06189564,8.38810512
9.48,948,0.04,-1.002,0.013,-3.4950437999999995,1.0313244,-9.224623800000002,89.38717758,6.08481396,8.393834700000001
9.49,949,0.04,-1.016,0.015,-3.5523396000000003,3.8388186,-9.453807000000001,89.3528001,6.17648724,8.43394176
9.5,950,0.043,-1.024,0.014,-3.8961144,7.333862400000001,-9.6256944,89.31842262,6.2738901,8.50269672
9.51,951,0.048,-1.029,0.01,-4.6409598,10.599723,-10.026765,89.28404514,6.37129296,8.61155874
9.52,952,0.048,-1.03,0.002,-5.6149884000000005,13.8655836,-10.6570188,89.2382085,6.474425399999999,8.74333908
9.53,953,0.049,-1.023,0.008,-6.417129599999999,16.959556799999998,-11.0007936,89.19237186000002,6.554639519999999,8.91522648
9.54,954,0.057,-1.009,0.01,-7.5630456000000015,20.340009,-11.0580894,89.13507606,6.65777196,9.1100322
9.55,955,0.069,-0.994,0.016,-8.193299399999999,23.8923486,-10.6570188,89.07205067999998,6.760904399999999,9.350674559999998
9.56,956,0.084,-0.985,0.019,-9.1100322,26.929026,-9.9121734,89.00902529999998,6.858307260000001,9.61423524
9.57,957,0.099,-0.98,0.02,-9.797581800000001,29.2781538,-9.167328,88.94027034,6.94425096,9.906443820000002
9.58,958,0.115,-0.98,0.017,-10.1986524,30.9970278,-8.193299399999999,88.87724496000001,7.0244650800000015,10.21011156
9.59,959,0.13699999999999998,-0.98,0.018000000000000002,-9.740286,32.0283522,-7.448453999999999,88.80848999999998,7.09322004,10.52523846
9.6,960,0.163,-0.982,0.023,-9.224623800000002,32.6013102,-6.875496000000001,88.7511942,7.161975,10.85182452
9.61,961,0.179,-0.986,0.025,-8.5370742,32.6013102,-6.3598338,88.69962798,7.225000379999999,11.172681
9.62,962,0.18600000000000005,-0.989,0.027000000000000003,-7.7922288,32.372127,-5.72958,88.65952092,7.2765666,11.49353748
9.63,963,0.191,-0.988,0.028,-6.589017,31.4553942,-5.0993262,88.63660259999996,7.3567807200000015,11.80866438
9.64,964,0.196,-0.983,0.034,-5.5003968,29.9657034,-4.4690724,88.61941386,7.39688778,12.10660254
9.65,965,0.201,-0.98,0.04,-4.1252976000000015,27.6165756,-3.724227,88.60795470000002,7.431265259999999,12.38162238
9.66,966,0.206,-0.978,0.044,-2.2345362,24.350715,-3.0939732,88.61368428,7.46564274,12.62226474
9.67,967,0.212,-0.984,0.052000000000000005,-0.2291832000000001,21.2567418,-2.6356068,88.63087302,7.4885610599999985,12.834259200000002
9.68,968,0.217,-0.992,0.058,1.6615782,17.9335854,-2.4064236,88.71681672,7.58596392,13.01760576
9.69,969,0.221,-1.001,0.062,3.5523396000000003,14.896907999999998,-2.6356068,88.77411251999996,7.60888224,13.16657484
9.7,970,0.225,-1.012,0.068,5.443101,12.5477802,-3.2658606,88.84286748000002,7.64325972,13.2926256
9.71,971,0.226,-1.024,0.066,6.703608600000001,11.0007936,-4.5263682,88.9230816,7.6890963600000015,13.40148762
9.72,972,0.221,-1.033,0.064,7.3911582,9.969469199999999,-6.1879464,89.00902529999998,7.746392160000001,13.49889048
