TimeStamp(s),FrameCounter,AccX,AccY,AccZ,GyrX,GyrY,GyrZ,EulerX,EulerY,EulerZ
0.01,1,0.022,-1.02,-0.058,-6.016058999999999,1.2032118,-1.7188740000000002,83.58884262000002,0.42398892,-47.29195332
0.02,2,0.024,-1.015,-0.053,-7.0473834,1.0313244,-1.4896908000000002,83.54873556,0.4583664000000001,-47.28049416
0.03,3,0.026,-1.012,-0.059,-7.2765666,0.9740286,-1.3750992,83.47425102000003,0.47555514,-47.269035
0.04,4,0.026,-1.01,-0.062,-7.1046792000000005,0.8594370000000001,-1.3178034,83.39976648,0.4870143000000001,-47.26330542
0.05,5,0.027000000000000003,-1.011,-0.057,-6.875496000000001,0.9167328,-1.432395,83.33101152,0.5042030399999999,-47.25757584
0.060000000000000005,6,0.026,-1.014,-0.066,-7.5630456000000015,1.3178034,-1.5469866,83.25652698,0.52139178,-47.24611668
0.06999999999999999,7,0.024,-1.013,-0.087,-8.7089616,1.6042823999999998,-1.4896908000000002,83.17058328,0.55003968,-47.22892794
0.08,8,0.02,-1.009,-0.093,-9.0527364,1.5469866,-1.2605076000000002,83.07891,0.56149884,-47.21746878
0.09,9,0.019,-1.005,-0.097,-8.880849000000003,1.2032118,-1.145916,82.98723672,0.5729580000000001,-47.20600962
0.09999999999999999,10,0.025,-1.006,-0.104,-9.1100322,1.145916,-1.145916,82.89556344,0.5844171599999999,-47.20028004
0.11,11,0.032,-1.007,-0.107,-9.2819196,1.2032118,-1.145916,82.79816058,0.59587632,-47.18882088
0.12,12,0.035,-1.007,-0.1,-9.5111028,1.2032118,-0.9740286,82.7064873,0.6302538000000001,-47.17736172
0.13,13,0.037000000000000005,-1.008,-0.1,-10.0840608,1.3178034,-0.7448454000000001,82.60335486,0.63598338,-47.16590255999999
0.14,14,0.04,-1.006,-0.091,-10.7716104,1.3178034,-0.4010706,82.49449283999998,0.64171296,-47.15444340000001
0.15000000000000002,15,0.046,-1.006,-0.085,-11.6310474,1.7188740000000002,-0.2291832000000001,82.37417166,0.64744254,-47.13725466
0.16,16,0.05,-1.011,-0.099,-14.0947668,1.7761698,0.11459160000000004,82.23093216,0.64744254,-47.12006592
0.17,17,0.046,-1.015,-0.102,-15.985528200000001,2.4637194,0.286479,82.0762335,0.6589017,-47.09714760000001
0.18000000000000002,18,0.042,-1.025,-0.12,-18.1054728,3.9534102,-0.057295800000000015,81.89288694,0.66463128,-47.05704054
0.19,19,0.035,-1.032,-0.135,-20.05353,4.1825934,-0.286479,81.68662206,0.6703608600000001,-47.01693347999999
0.2,20,0.038,-1.036,-0.14800000000000002,-22.0015872,3.8961144,0.0,81.46316844,0.6703608600000001,-46.982556
0.21000000000000002,21,0.041,-1.034,-0.165,-23.6058696,3.0939732,0.572958,81.22252608,0.66463128,-46.9539081
0.22,22,0.048,-1.037,-0.16699999999999998,-24.923673,1.432395,1.145916,80.96469498,0.6703608600000001,-46.94244894
0.23,23,0.051,-1.038,-0.165,-26.0122932,0.057295800000000015,1.5469866,80.70113429999998,0.65317212,-46.93671936
0.24000000000000002,24,0.057,-1.043,-0.171,-27.6738714,-0.057295800000000015,1.6042823999999998,80.41465529999998,0.6302538000000001,-46.94244894
0.25,25,0.054000000000000006,-1.046,-0.16699999999999998,-28.991674800000002,-0.286479,1.8334656000000005,80.12244672,0.6073354799999999,-46.94244894
0.26,26,0.037000000000000005,-1.0490000000000002,-0.166,-30.252182399999995,-1.0313244,2.291832,79.81304940000003,0.5844171599999999,-46.9539081
0.27,27,0.019,-1.05,-0.157,-31.2835068,-1.3178034,2.4637194,79.50365208,0.55576926,-46.96536726
0.28,28,0.006999999999999999,-1.043,-0.131,-32.372127,-0.9167328,2.291832,79.17706602000001,0.52712136,-46.97109684
0.29000000000000004,29,-0.013,-1.039,-0.132,-34.1482968,0.7448454000000001,1.9480572,78.82756164,0.5042030399999999,-46.96536726
0.3,30,-0.029,-1.037,-0.134,-35.809875,2.4064236,1.5469866,78.46086852,0.49274388,-46.94244894
0.31,31,-0.027000000000000003,-1.05,-0.113,-37.4714532,3.151269,0.7448454000000001,78.08271624,0.4870143000000001,-46.91380104
0.32,32,-0.022,-1.052,-0.106,-41.023792799999995,3.2085648,0.057295800000000015,77.68164564,0.48128472,-46.88515314
0.33,33,-0.019,-1.046,-0.128,-44.34694920000001,3.0366774,-0.11459160000000004,77.22900881999998,0.4870143000000001,-46.85650524
0.34,34,-0.014,-1.062,-0.14,-46.8679644,4.0680017999999984,-0.6302538000000001,76.75345368,0.49274388,-46.82212776
0.35000000000000003,35,-0.01,-1.08,-0.121,-49.388979600000006,5.2139178,-1.6615782,76.25498022,0.5156622000000001,-46.78202069999999
0.36000000000000004,36,-0.001,-1.081,-0.118,-52.597544400000004,6.1879464,-2.4637194,75.7163997,0.55003968,-46.73045448000001
0.37,37,0.001,-1.075,-0.114,-55.6342218,6.703608600000001,-3.0939732,75.17208959999998,0.5844171599999999,-46.67888826
0.38,38,-0.018000000000000002,-1.063,-0.115,-58.613603399999995,6.3025379999999975,-3.3231564,74.57621328,0.62452422,-46.63305162
0.39,39,-0.05,-1.0490000000000002,-0.129,-62.45242200000001,7.2192707999999985,-3.4377480000000005,73.94022989999998,0.6703608600000001,-46.57575582
0.4,40,-0.064,-1.034,-0.131,-65.14532460000001,9.568398599999998,-3.6096354,73.28132819999998,0.72192708,-46.50127128
0.41000000000000003,41,-0.056,-1.034,-0.149,-67.3798608,13.178034,-3.4950437999999995,72.5937786,0.7849524600000001,-46.39240926
0.42000000000000004,42,-0.043,-1.058,-0.159,-68.35388940000001,17.131444199999994,-2.9793816000000004,71.91768816,0.8479778399999999,-46.24344018
0.43,43,-0.024,-1.08,-0.135,-70.1300592,18.907614000000002,-2.9220857999999996,71.20149066,0.92246238,-46.07728236
0.44,44,-0.02,-1.095,-0.141,-72.88025760000002,18.9649098,-2.6929026,70.46237484,0.9969469199999998,-45.91112454
0.45,45,-0.034,-1.099,-0.204,-76.77637200000002,17.8762896,-2.1772404,69.68315196,1.0599723,-45.75642588
0.46,46,-0.059,-1.081,-0.191,-78.4379502,17.589810600000003,-3.380452200000001,68.89246992,1.14018642,-45.61318638
0.47000000000000003,47,-0.065,-1.064,-0.204,-81.3027402,18.048177,-4.6409598,68.07886956,1.22613012,-45.464217299999994
0.48000000000000004,48,-0.042,-1.062,-0.138,-84.68319240000002,15.0114996,-7.2765666,67.21943256,1.34072172,-45.36108486
0.49,49,-0.009000000000000001,-1.056,-0.113,-91.1576178,12.605076,-9.0527364,66.29697017999999,1.45531332,-45.28660032
0.5,50,0.026,-1.044,-0.211,-99.4655088,14.610429000000002,-9.9121734,65.28283452000001,1.59282324,-45.20065662
0.51,51,0.075,-1.016,-0.266,-101.5854534,13.178034,-9.1100322,64.25151012,1.71314442,-45.12617208
0.52,52,0.121,-0.989,-0.324,-100.6114248,6.760904399999999,-7.7922288,63.24310404000001,1.8048176999999999,-45.10325376
0.53,53,0.131,-1.008,-0.319,-98.1477054,2.1772404,-6.130650599999999,62.24615712000001,1.85638392,-45.1204425
0.54,54,0.129,-1.0590000000000002,-0.303,-95.7412818,3.4377480000000005,-5.1566220000000005,61.27212852,1.90795014,-45.1204425
0.55,55,0.105,-1.106,-0.4270000000000001,-96.1996482,7.1046792000000005,-4.8701430000000006,60.29809991999999,1.97097552,-45.08606502
0.56,56,0.077,-1.124,-0.47,-93.965112,8.880849000000003,-4.1825934,59.34126005999999,2.0340008999999997,-45.0344988
0.5700000000000001,57,0.038,-1.151,-0.528,-91.2722094,9.453807000000001,-4.3544808,58.41879768,2.10848544,-44.98293258
0.5800000000000001,58,0.012,-1.129,-0.568,-90.5846598,10.3705398,-3.8388186,57.50206488,2.1772404,-44.9199072
0.59,59,0.033,-1.094,-0.632,-88.9230816,11.745639,-2.7501984,56.60252082,2.25172494,-44.83969308
0.6,60,0.065,-1.06,-0.728,-85.8864042,10.255948199999999,-1.5469866,55.73162466,2.30902074,-44.76520854
0.61,61,0.098,-1.063,-0.7709999999999999,-78.89631659999998,8.078707799999998,-0.9167328,54.92948345999999,2.3491277999999998,-44.70791274
0.62,62,0.117,-1.074,-0.815,-72.88025760000002,8.021412000000002,-1.7188740000000002,54.19036764,2.40069402,-44.65634652
0.63,63,0.117,-1.0759999999999998,-0.879,-68.1247062,8.9381448,-1.8907613999999997,53.49708846,2.45798982,-44.59332114
0.64,64,0.104,-1.037,-0.8640000000000001,-61.6502808,10.0840608,-2.86479,52.87256424,2.52674478,-44.53602534
0.65,65,0.09,-0.973,-0.903,-55.290447,12.0894138,-5.0993262,52.31679498,2.62987722,-44.46727038
0.66,66,0.081,-0.922,-0.958,-46.6387812,13.0634424,-6.3598338,51.84123984,2.7501984,-44.404245
0.67,67,0.071,-0.888,-0.974,-37.81522800000001,12.261301199999998,-6.1879464,51.44016924,2.87051958,-44.35267878
0.68,68,0.068,-0.872,-1.005,-29.0489706,11.172681,-5.0993262,51.14796066,2.9736520200000003,-44.29538298
0.6900000000000001,69,0.083,-0.863,-1.0,-20.2827132,10.1986524,-4.010706000000001,50.94169578,3.05959572,-44.23808718
0.7000000000000001,70,0.114,-0.862,-0.953,-11.688343199999998,9.224623800000002,-3.0939732,50.827104180000006,3.1398098400000003,-44.18652096
0.7100000000000001,71,0.146,-0.87,-0.969,-4.4117766,9.167328,-2.0626488000000003,50.78126754,3.2085648000000004,-44.12922516
0.72,72,0.163,-0.866,-0.945,3.380452200000001,9.167328,-0.572958,50.7927267,3.28304934,-44.06619978
0.73,73,0.151,-0.856,-0.9,10.9434978,9.167328,1.3178034,50.90731829999999,3.32888598,-43.98598566
0.74,74,0.118,-0.8390000000000001,-0.887,18.1054728,8.9954406,2.7501984,51.09639444,3.36326346,-43.89431238
0.75,75,0.083,-0.826,-0.8440000000000001,25.4393352,7.5630456000000015,3.4377480000000005,51.35995512000001,3.38618178,-43.81409826
0.76,76,0.062,-0.815,-0.8009999999999999,32.085648000000006,6.9327918,3.7815227999999994,51.686541180000006,3.40337052,-43.73388414
0.77,77,0.064,-0.8190000000000001,-0.743,39.247623,7.161975,4.0680017999999984,52.07615262,3.42055926,-43.65367002
0.78,78,0.077,-0.83,-0.716,44.2896534,7.3911582,5.0993262,52.53451902000001,3.42628884,-43.55626716
0.79,79,0.08900000000000001,-0.83,-0.669,49.388979600000006,7.5630456000000015,6.703608600000001,53.03872206,3.42055926,-43.45313472
0.8,80,0.083,-0.8029999999999999,-0.603,53.571573,7.6203414,8.7089616,53.58876174,3.40337052,-43.33854312
0.81,81,0.075,-0.753,-0.5770000000000001,58.2698286,7.448453999999999,10.886202,54.19036764,3.36326346,-43.21249236
0.8200000000000001,82,0.064,-0.7,-0.527,65.08802879999999,7.6776372,11.9748222,54.84926934,3.3231564,-43.07498244
0.8300000000000001,83,0.052000000000000005,-0.657,-0.489,70.93220040000001,7.5630456000000015,12.6623718,55.57692599999999,3.2658606,-42.93747252
0.8400000000000001,84,0.026,-0.609,-0.45,76.20341400000002,6.875496000000001,12.6623718,56.35614888,3.2085648000000004,-42.80569218
0.85,85,-0.003,-0.5710000000000001,-0.414,81.7611066,5.9014674000000005,12.4331886,57.19266756,3.14553942,-42.685371
0.86,86,-0.018000000000000002,-0.536,-0.382,86.40206640000002,4.8701430000000006,12.0894138,58.07502287999999,3.0825140400000004,-42.57650898
0.87,87,-0.009000000000000001,-0.512,-0.339,92.3035338,4.1825934,11.745639,59.014674,3.0137590800000003,-42.47337654
0.88,88,0.014,-0.499,-0.308,97.1736768,3.6669312000000014,11.172681,60.00589134000001,2.94500412,-42.38170326
0.89,89,0.033,-0.495,-0.293,101.8719324,2.6356068,11.0007936,61.04294532,2.87624916,-42.29575956
0.9,90,0.048,-0.508,-0.241,107.3150334,0.6875496,11.0580894,62.1372951,2.79603504,-42.23273418
0.91,91,0.047,-0.529,-0.235,109.6641612,0.057295800000000015,11.516455800000001,63.24883361999999,2.71009134,-42.1697088
0.92,92,0.043,-0.5479999999999999,-0.219,112.1851764,0.6875496,12.318597,64.39474962,2.61841806,-42.10095384
0.93,93,0.037000000000000005,-0.588,-0.227,114.13323359999998,2.2345362,13.521808800000002,65.55785436,2.51528562,-42.02073972
0.9400000000000001,94,0.036000000000000004,-0.606,-0.196,116.3677698,3.724227,14.266654199999998,66.74387741999999,2.41215318,-41.91760728
0.9500000000000001,95,0.037000000000000005,-0.638,-0.196,117.742869,5.0993262,14.8396122,67.94135964,2.30902074,-41.80301568
0.9600000000000001,96,0.046,-0.662,-0.227,117.34179840000002,6.703608600000001,15.469866,69.13884186,2.2058883,-41.67696492
0.97,97,0.069,-0.6759999999999999,-0.231,117.8001648,7.3911582,16.272007199999994,70.33632408,2.0912967,-41.54518458
0.98,98,0.07400000000000001,-0.6809999999999999,-0.241,116.5396572,6.417129599999999,17.303331600000003,71.52234714,1.9595163600000003,-41.41913382
0.99,99,0.086,-0.7020000000000001,-0.251,114.5916,6.0733548,18.048177,72.69118146,1.82200644,-41.29308306
1.0,100,0.102,-0.7240000000000001,-0.262,111.61221840000002,5.5576926,18.1054728,73.82563830000002,1.67303736,-41.17849146
1.01,101,0.109,-0.7440000000000001,-0.275,107.7733998,4.4690724,17.589810600000003,74.91998808000002,1.52979786,-41.0810886
1.02,102,0.112,-0.75,-0.292,103.13244,3.724227,16.558486199999994,75.95704206,1.39801752,-40.9951449
1.03,103,0.118,-0.755,-0.311,97.975818,2.578311,15.527161800000002,76.95398897999998,1.2605076000000002,-40.92638994
1.04,104,0.118,-0.7440000000000001,-0.345,91.55868840000001,0.572958,14.381245800000002,77.88791051999998,1.13445684,-40.8805533
1.05,105,0.111,-0.732,-0.363,83.93834700000002,-1.6042823999999998,13.349921400000001,78.74161794,1.00840608,-40.86336456
1.06,106,0.105,-0.7290000000000001,-0.368,77.52121740000003,-2.578311,11.9748222,79.5265704,0.89381448,-40.85763498
1.07,107,0.096,-0.73,-0.374,71.2759752,-2.4064236,10.3705398,80.21984957999999,0.8078707799999998,-40.85763498
1.08,108,0.079,-0.741,-0.391,64.8015498,-2.5210152000000003,9.0527364,80.87875127999997,0.72192708,-40.86336456
1.09,109,0.063,-0.7490000000000001,-0.403,57.6968706,-3.0939732,8.078707799999998,81.46316844,0.64171296,-40.87482372
1.1,110,0.053,-0.764,-0.401,50.420304,-2.8074942000000003,7.448453999999999,81.97883064,0.56722842,-40.88628288
1.11,111,0.045,-0.784,-0.419,42.112413,-3.0366774,6.6463128000000005,82.40281956,0.5042030399999999,-40.90347162
1.12,112,0.032,-0.8029999999999999,-0.424,33.5753388,-4.8701430000000006,6.130650599999999,82.66638024,0.44690724,-40.94930826
1.1300000000000001,113,0.016,-0.785,-0.442,23.2620948,-7.9641161999999985,6.3598338,82.90129302,0.37815228,-41.01806322
1.1400000000000001,114,0.004,-0.755,-0.425,15.6990492,-10.8289062,7.2192707999999985,83.06172126,0.29793816,-41.11546608
1.1500000000000001,115,0.001,-0.731,-0.394,8.193299399999999,-13.464512999999998,7.7349330000000025,83.14766496,0.21199446,-41.24151684
1.1600000000000001,116,0.005,-0.718,-0.403,1.5469866,-18.6784308,7.448453999999999,83.16485370000002,0.12032118,-41.41340424
1.17,117,0.017,-0.711,-0.409,-3.0366774,-23.491278,6.2452422,83.06172126,0.04010706,-41.64831702
1.18,118,0.035,-0.7170000000000001,-0.381,-6.0733548,-22.6891368,4.1252976000000015,83.00442546000002,-0.01718874,-41.86604106
1.19,119,0.052000000000000005,-0.737,-0.382,-10.599723,-19.4232762,2.0053530000000004,82.90129302,-0.057295800000000015,-42.05511720000001
1.2,120,0.057,-0.752,-0.382,-15.3552744,-18.334656,0.9740286,82.74659436,-0.0859437,-42.23846376
1.21,121,0.049,-0.757,-0.381,-21.6578124,-18.6784308,0.9167328,82.52887032,-0.11459160000000004,-42.42181032
1.22,122,0.029,-0.731,-0.404,-28.4187168,-18.3919518,1.6042823999999998,82.19082510000001,-0.14896908,-42.61088646
1.23,123,-0.006,-0.669,-0.361,-31.51269000000001,-18.907614000000002,3.0939732,81.86996862,-0.20053530000000008,-42.79423302
1.24,124,-0.041,-0.611,-0.295,-32.2002396,-19.8816426,4.6409598,81.54911214,-0.27501984,-42.98903874
1.25,125,-0.058,-0.579,-0.276,-35.3515086,-20.6837838,6.3598338,81.19387818,-0.36669312,-43.18384446
1.26,126,-0.051,-0.555,-0.298,-38.5600734,-20.6837838,7.6776372,80.80426674,-0.46982556,-43.37865018
1.27,127,-0.013,-0.556,-0.316,-39.247623,-19.308684600000007,7.448453999999999,80.3860074,-0.5729580000000001,-43.56199674
1.28,128,0.038,-0.575,-0.304,-39.1330314,-19.7097552,6.4744254,79.99066638000002,-0.6703608600000001,-43.75107288
1.29,129,0.08199999999999999,-0.584,-0.281,-37.81522800000001,-23.376686399999997,5.443101,79.61824368,-0.76203414,-43.9745265
1.3,130,0.111,-0.562,-0.219,-35.7525792,-24.923673,3.8388186,79.25728014,-0.8422482600000001,-44.21516886
1.31,131,0.092,-0.521,-0.177,-35.3515086,-23.3193906,1.6615782,78.90777576,-0.89954406,-44.43862248000001
1.32,132,0.027000000000000003,-0.474,-0.18600000000000005,-36.4974246,-17.589810600000003,-0.6302538000000001,78.52962348,-0.92246238,-44.61623946
1.33,133,-0.056,-0.453,-0.264,-37.7006364,-6.4744254,-2.8074942000000003,78.14574162,-0.91100322,-44.690724
1.34,134,-0.125,-0.455,-0.315,-38.4454818,4.4117766,-5.1566220000000005,77.75613018,-0.8594370000000001,-44.6620761
1.35,135,-0.189,-0.466,-0.265,-36.4401288,8.9954406,-6.0733548,77.38370748,-0.7849524600000001,-44.59332114
1.36,136,-0.219,-0.474,-0.209,-34.7212548,8.3651868,-4.3544808,77.02847352,-0.72765666,-44.51883660000001
1.37,137,-0.188,-0.494,-0.232,-31.51269000000001,6.589017,-1.3178034,76.6904283,-0.72765666,-44.46727038
1.3800000000000001,138,-0.065,-0.52,-0.21,-27.444688199999998,8.307891,-0.8021411999999999,76.40967888,-0.70473834,-44.39278584
1.3900000000000001,139,0.055,-0.528,-0.16,-22.4026578,4.6982556,-1.145916,76.18049568,-0.68182002,-44.35267878
1.4000000000000001,140,0.09,-0.52,-0.149,-16.902261,-1.2605076000000002,-0.9167328,76.01433786,-0.68182002,-44.36413794
1.4100000000000001,141,0.052000000000000005,-0.512,-0.175,-11.0580894,-0.9740286,-0.8021411999999999,75.89974626,-0.67609044,-44.38132668
1.42,142,0.009000000000000001,-0.502,-0.209,-6.130650599999999,4.9274388,-2.2345362,75.82526172,-0.64171296,-44.34121962
1.43,143,-0.005,-0.499,-0.184,1.0886202,11.2872726,-5.5003968,75.8309913,-0.56722842,-44.24381676
1.44,144,0.015,-0.524,-0.17600000000000002,8.59437,15.183387000000002,-7.9641161999999985,75.916935,-0.4526368200000001,-44.11203642
1.45,145,0.048,-0.542,-0.16699999999999998,20.3973048,13.120738199999998,-7.7922288,76.12319987999999,-0.34950438,-44.0031744
1.46,146,0.067,-0.574,-0.159,32.658606,5.1566220000000005,-5.3285094000000015,76.44978594,-0.28074942,-43.96306734
1.47,147,0.062,-0.599,-0.135,42.34159620000001,-2.3491278,-1.8334656000000005,76.87950443999998,-0.25783110000000004,-43.98598566
1.48,148,0.057,-0.61,-0.171,50.3057124,-6.3598338,0.5156622000000001,77.38943706,-0.26929026,-44.04328146
1.49,149,0.07400000000000001,-0.631,-0.175,61.30650600000001,-5.958763200000001,0.0,78.01396128,-0.27501984,-44.09484768
1.5,150,0.077,-0.691,-0.203,73.51051140000001,-4.1252976000000015,-2.9793816000000004,78.75880667999998,-0.24637194,-44.13495474
1.51,151,0.05,-0.782,-0.29100000000000004,85.77181259999998,-0.1718874,-6.703608600000001,79.62970284,-0.1718874,-44.14068432
1.52,152,0.014,-0.956,-0.304,101.3562702,3.0939732,-9.568398599999998,80.64956808000002,-0.06302537999999999,-44.117766
1.53,153,0.011,-1.222,-0.242,120.1492926,4.297185,-11.3445684,81.86996862,0.06302537999999999,-44.07765894
1.54,154,0.037000000000000005,-1.653,0.0,141.1195554,2.86479,-11.4018642,83.30236362,0.18907614,-44.04901104
1.55,155,0.07400000000000001,-2.145,0.201,154.29758940000005,-0.2291832000000001,-9.0527364,84.86653895999999,0.29220857999999994,-44.04328146
1.56,156,0.127,-2.449,0.214,150.8025456,-3.0366774,-3.8961144,86.39633682,0.3437748,-44.06047020000001
1.57,157,0.145,-2.452,0.229,151.7192784,-7.2765666,3.4377480000000005,87.93759384,0.32085648,-44.117766
1.58,158,0.105,-2.504,0.618,165.871341,-12.1467096,8.9381448,89.62209035999999,0.24637194,-44.21516886
1.59,159,-0.101,-3.526,1.169,63.88481700000001,-22.8037284,-2.0626488000000003,90.27526248,0.28074942,-44.4328929
1.6,160,-0.175,-2.694,-0.21600000000000005,-3.4950437999999995,-15.469866,-14.152062599999999,90.240885,0.4297185000000001,-44.58759156
1.61,161,-0.064,-2.2230000000000003,0.032,63.88481700000001,-15.6990492,-17.18874,90.88832754,0.6073354799999999,-44.73083106
1.62,162,0.049,-1.916,0.109,83.07891,-11.8602306,-14.495837400000001,91.7305758,0.76776372,-44.8339635
1.6300000000000001,163,0.252,-1.515,0.25,99.5228046,-10.9434978,-14.037471,92.74471146,0.92246238,-44.92563678000001
1.6400000000000001,164,0.222,-1.5719999999999998,0.36,104.1064686,-9.740286,-5.3858052,93.79895417999998,0.9912173399999998,-45.0058509
1.6500000000000001,165,0.117,-1.495,0.512,99.2363256,-9.1100322,-4.6982556,94.80736026,1.05424272,-45.08033544
1.6600000000000001,166,0.045,-1.241,0.556,81.3027402,-8.136003599999999,-4.2398892,95.63241978,1.11153852,-45.1490904
1.6700000000000002,167,0.05,-1.083,0.578,73.73969459999998,-8.7662574,-1.6615782,96.41737224,1.1459160000000002,-45.21784536
1.68,168,0.047,-0.93,0.593,62.68160520000001,-9.5111028,-0.4583664000000001,97.05335562,1.1688343199999998,-45.30378906
1.69,169,-0.012,-0.8759999999999999,0.61,55.11855960000001,-10.1986524,-0.8021411999999999,97.61485446,1.19748222,-45.39546234
1.7,170,-0.033,-0.855,0.652,46.5241896,-8.8235532,-0.6875496,98.08468002,1.22040054,-45.47567646
1.71,171,-0.076,-0.91,0.636,38.2162986,-7.0473834,0.8021411999999999,98.47429146,1.22613012,-45.53870184
1.72,172,0.005,-0.8909999999999999,0.632,30.7678446,-5.72958,0.8021411999999999,98.93265786,1.2318597,-45.5788089
1.73,173,0.022,-0.8240000000000001,0.625,22.4026578,-4.6409598,0.1718874,99.15611148,1.23758928,-45.61891596
1.74,174,0.061,-0.848,0.638,15.4125702,-4.1825934,0.057295800000000015,99.31653972,1.24904844,-45.65902302
1.75,175,0.04,-0.8759999999999999,0.653,8.9381448,-4.583664,0.0,99.40248342,1.25477802,-45.70485966
1.76,176,0.027000000000000003,-0.992,0.5820000000000001,2.2345362,-4.583664,-0.8021411999999999,99.42540174,1.27196676,-45.74496672
1.77,177,-0.001,-0.936,0.561,-0.286479,-2.7501984,-0.7448454000000001,100.2390021,1.22040054,-45.68767092
1.78,178,-0.027000000000000003,-0.7709999999999999,0.51,3.7815227999999994,0.1718874,-1.3178034,100.27910916,1.2318597,-45.68194134
1.79,179,0.029,-0.88,0.472,6.8182002000000015,1.2605076000000002,-3.4950437999999995,100.34786412,1.2605076000000002,-45.65902302
1.8,180,0.061,-1.039,0.412,-7.0473834,0.11459160000000004,-6.875496000000001,100.27910916,1.32926256,-45.64756386
1.81,181,0.053,-1.074,0.363,-11.172681,-3.8388186,-7.5630456000000015,100.16451756,1.40947668,-45.67621176
1.82,182,0.028,-0.973,0.344,-9.568398599999998,-5.958763200000001,-5.5576926,100.1244105,1.48396122,-45.71631882
1.83,183,0.032,-0.944,0.318,-11.917526400000002,-6.130650599999999,-4.9847345999999995,100.00408932,1.5469866,-45.76788504
1.84,184,0.033,-0.889,0.271,-9.6829902,-7.2192707999999985,-4.3544808,99.90668646,1.6042824000000002,-45.83091042
1.85,185,0.048,-0.892,0.24,-3.724227,-8.021412000000002,-3.8388186,99.8665794,1.6558486199999998,-45.90539496
1.86,186,0.076,-1.041,0.211,-11.917526400000002,-9.969469199999999,-2.86479,99.74052864,1.70168526,-45.99706824
1.87,187,0.086,-1.1,0.194,-24.064235999999998,-11.1153852,-2.86479,99.4941567,1.76471064,-46.10593026
1.8800000000000001,188,0.068,-1.01,0.193,-27.1009134,-11.688343199999998,-2.3491278,99.21913686,1.8048176999999999,-46.21479228000001
1.8900000000000001,189,0.064,-1.005,0.192,-26.814434400000003,-11.0580894,-2.0626488000000003,98.94411702,1.84492476,-46.3236543
1.9000000000000001,190,0.045,-1.006,0.185,-28.4187168,-9.3965112,-2.1772404,98.65190844,1.88503182,-46.41532758000001
1.9100000000000001,191,0.041,-0.982,0.172,-29.793816,-6.417129599999999,-2.2345362,98.3482407,1.91367972,-46.47835296
1.9200000000000002,192,0.052000000000000005,-0.982,0.13699999999999998,-31.913760600000003,-2.0053530000000004,-4.1825934,98.01592506,1.96524594,-46.50127128
1.93,193,0.042,-0.868,0.138,-25.78311,2.291832,-6.2452422,97.75809396,2.02254174,-46.47262338
1.94,194,0.056,-1.097,0.138,-24.1788276,3.151269,-7.7349330000000025,97.51172202,2.0912967,-46.43251632
1.95,195,0.041,-0.943,0.058,-35.17962120000001,2.291832,-5.7868758000000025,97.15648806,2.14286292,-46.40386842
1.96,196,0.079,-1.088,0.057,-28.4760126,1.8334656000000005,-2.2345362,96.86427948,2.16005166,-46.38667968
1.97,197,0.099,-1.162,0.073,-34.0337052,2.86479,1.5469866,96.50904552,2.1485925000000003,-46.36949094
1.98,198,0.109,-1.176,0.056,-51.279741,1.2605076000000002,3.6096354,95.98765374,2.10848544,-46.36376136
1.99,199,0.06,-1.057,0.045,-44.2323576,0.1718874,3.3231564,95.5407465,2.07410796,-46.36949094
2.0,200,0.021,-1.008,0.045,-34.4347758,0.0,3.724227,95.19124212,2.0340008999999997,-46.3809501
2.01,201,0.001,-0.995,0.038,-24.7517856,4.2398892,4.297185,94.9391406,1.98243468,-46.34657262
2.02,202,0.02,-0.994,0.03,-16.501190400000002,6.703608600000001,3.6096354,94.7386053,1.93659804,-46.28927682000001
2.03,203,0.029,-0.982,0.022,-7.2192707999999985,7.333862400000001,2.6929026,94.66985034,1.90222056,-46.21479228000001
2.04,204,0.053,-1.031,0.025,-1.0886202,5.844171599999999,2.291832,94.65839118,1.87357266,-46.16322606
2.05,205,0.019,-1.105,0.049,6.016058999999999,5.042030400000002,1.145916,94.72141656,1.85638392,-46.11165984
2.0599999999999996,206,-0.005,-1.179,0.047,7.8495246,7.2765666,-2.9793816000000004,94.80163068,1.87930224,-46.0371753
2.07,207,0.028,-1.291,0.077,6.6463128000000005,6.703608600000001,-4.0680017999999984,94.87038564,1.91367972,-45.96842034
2.0799999999999996,208,0.066,-1.306,0.099,-18.1054728,5.6149884000000005,-5.1566220000000005,94.68703908,1.95378678,-45.91112454
2.09,209,0.125,-1.144,0.053,-24.637194,5.443101,-2.8074942000000003,94.43493756,1.9767051,-45.85382874
2.0999999999999996,210,0.133,-1.102,0.121,-25.0382646,4.9274388,-1.7188740000000002,94.18283604,1.98816426,-45.8079921
2.11,211,0.136,-0.879,0.046,-34.7212548,4.6982556,-1.0886202,93.83333166,1.98816426,-45.76788504
2.1199999999999997,212,0.103,-0.945,0.083,-34.091001,4.010706000000001,-0.572958,93.4780977,2.005353,-45.72777798
2.13,213,0.08199999999999999,-0.906,0.052000000000000005,-43.0291458,0.9740286,0.2291832000000001,93.04264962,1.99962342,-45.72777798
2.1399999999999997,214,0.053,-0.913,0.051,-50.993262,-1.8334656000000005,1.9480572,92.52698742,1.9767051,-45.7506963
2.15,215,0.048,-0.8590000000000001,0.024,-41.1383844,-0.286479,1.9480572,92.10872808,1.95378678,-45.76215546
2.1599999999999997,216,0.039,-0.949,0.001,-35.6379876,0.2291832000000001,1.5469866,91.74776454000002,1.93659804,-45.76215546
2.17,217,0.04,-0.987,-0.011,-36.1536498,0.7448454000000001,1.6615782,91.36388268,1.9194093000000003,-45.76215546
2.1799999999999997,218,0.043,-1.021,0.0,-35.7525792,0.8021411999999999,1.8907613999999997,90.99718956,1.89649098,-45.75642588
2.19,219,0.046,-1.021,-0.002,-36.38283300000001,2.3491278,2.4637194,90.63049644,1.86784308,-45.73923714
2.1999999999999997,220,0.058,-1.02,-0.017,-35.809875,3.4950437999999995,3.3231564,90.2695329,1.8334656000000005,-45.71058924
2.21,221,0.064,-1.009,-0.008,-36.03905820000001,2.7501984,4.4117766,89.90283978,1.78189938,-45.68767092
2.2199999999999998,222,0.062,-0.991,0.003,-35.8671708,2.4064236,5.2139178,89.53614666000001,1.73606274,-45.6647526
2.23,223,0.066,-0.98,-0.021,-35.9244666,3.5523396000000003,5.9014674000000005,89.16945354,1.6787669399999998,-45.6361047
2.2399999999999998,224,0.07200000000000001,-0.972,-0.061,-36.7266078,3.7815227999999994,6.3025379999999975,88.79703083999998,1.61001198,-45.60172722
2.25,225,0.067,-0.969,-0.079,-35.46610020000001,3.4950437999999995,6.1879464,88.43606729999998,1.5469866,-45.56734974
2.26,226,0.06,-0.972,-0.08,-33.3461556,2.4637194,5.72958,88.09802207999998,1.48396122,-45.54443142
2.27,227,0.054000000000000006,-0.975,-0.08,-31.8564648,1.2032118,5.3285094000000015,87.75424728,1.43812458,-45.53870184
2.28,228,0.057,-0.977,-0.093,-30.7105488,-0.057295800000000015,5.1566220000000005,87.44484996,1.38655836,-45.53870184
2.29,229,0.058,-0.974,-0.101,-29.4500412,-1.0313244,5.3858052,87.14691180000001,1.32926256,-45.550161
2.3,230,0.051,-0.972,-0.101,-27.8457588,-1.8334656000000005,6.016058999999999,86.8604328,1.26623718,-45.56734974
2.31,231,0.041,-0.972,-0.115,-26.929026,-2.1772404,6.6463128000000005,86.59114253999998,1.19748222,-45.59026806
2.32,232,0.028,-0.971,-0.123,-25.4393352,-1.7188740000000002,7.1046792000000005,86.30466354,1.12872726,-45.6074568
2.3299999999999996,233,0.017,-0.97,-0.121,-23.835052800000003,-0.6302538000000001,6.990087599999999,86.06402118000004,1.05424272,-45.61318638
2.34,234,0.013,-0.963,-0.124,-23.032911600000002,0.1718874,6.589017,85.82910840000002,0.98548776,-45.6074568
2.3499999999999996,235,0.015,-0.958,-0.126,-21.829699800000004,0.8021411999999999,6.130650599999999,85.60565478000002,0.92819196,-45.60172722
2.36,236,0.016,-0.955,-0.125,-20.9702628,1.3750992,5.5003968,85.39366032000002,0.87089616,-45.584538480000006
2.3699999999999997,237,0.02,-0.951,-0.129,-20.05353,1.8907613999999997,4.8128472,85.15874754000002,0.8250595199999999,-45.56734974
2.38,238,0.024,-0.948,-0.127,-18.8503182,1.8334656000000005,4.0680017999999984,84.96967140000002,0.7849524600000001,-45.54443142
2.3899999999999997,239,0.027000000000000003,-0.946,-0.139,-17.9335854,2.0626488000000003,3.380452200000001,84.78632483999998,0.75057498,-45.52724268
2.4,240,0.035,-0.94,-0.14300000000000002,-16.157415599999997,2.0053530000000004,3.0366774,84.62589659999998,0.72192708,-45.50432436
2.4099999999999997,241,0.038,-0.938,-0.138,-13.8655836,1.2032118,2.9793816000000004,84.4826571,0.6875496,-45.4928652
2.42,242,0.039,-0.939,-0.136,-12.3758928,0.3437748,3.2085648,84.31649927999999,0.67609044,-45.48713562
2.4299999999999997,243,0.037000000000000005,-0.94,-0.134,-11.516455800000001,-0.2291832000000001,3.6669312000000014,84.20190768,0.64171296,-45.48713562
2.44,244,0.033,-0.944,-0.147,-10.7143146,-0.8594370000000001,4.010706000000001,84.09304566,0.6016058999999999,-45.4928652
2.4499999999999997,245,0.027000000000000003,-0.951,-0.14800000000000002,-9.2819196,-1.5469866,4.4117766,83.9956428,0.55576926,-45.51005394
2.46,246,0.021,-0.959,-0.139,-7.906820400000001,-2.291832,4.6409598,83.91542868,0.5042030399999999,-45.52724268
2.4699999999999998,247,0.015,-0.967,-0.138,-6.875496000000001,-2.8074942000000003,4.8128472,83.80083708,0.46409598,-45.55589058
2.48,248,0.012,-0.975,-0.14400000000000002,-6.589017,-2.5210152000000003,4.9847345999999995,83.73781170000002,0.40680018,-45.57307932
2.4899999999999998,249,0.006999999999999999,-0.984,-0.14300000000000002,-5.958763200000001,-2.2345362,5.0993262,83.67478632,0.35523396,-45.59026806
2.5,250,0.005,-0.986,-0.14800000000000002,-5.6722842,-1.7761698,5.3285094000000015,83.61749052,0.30366774,-45.6074568
2.51,251,0.002,-0.987,-0.157,-5.5576926,-1.6042823999999998,5.5003968,83.56019472,0.24637194,-45.61891596
2.52,252,-0.003,-0.987,-0.155,-4.6409598,-1.2032118,5.5003968,83.45706228,0.18907614,-45.63037512
2.53,253,-0.002,-0.989,-0.152,-4.010706000000001,-0.4010706,5.5576926,83.41122564,0.13178034,-45.62464554
2.54,254,0.001,-0.99,-0.157,-4.0680017999999984,0.057295800000000015,5.6149884000000005,83.37111858,0.07448454,-45.61891596
2.55,255,0.004,-0.996,-0.151,-4.3544808,0.286479,5.6722842,83.33101152,0.01718874,-45.61318638
2.56,256,0.006,-0.997,-0.154,-4.7555514,0.4010706,5.6149884000000005,83.27944529999998,-0.028647900000000007,-45.60172722
2.57,257,0.009000000000000001,-1.001,-0.159,-4.6982556,0.1718874,5.443101,83.17058328,-0.06875496,-45.60172722
2.5799999999999996,258,0.012,-1.003,-0.157,-4.8701430000000006,-0.6302538000000001,5.2712136,83.11901706,-0.12032118,-45.60172722
2.59,259,0.01,-1.004,-0.154,-4.583664,-1.432395,5.1566220000000005,83.07318042,-0.1718874,-45.6074568
2.5999999999999996,260,0.01,-1.003,-0.151,-4.6982556,-2.1199446,5.2139178,83.02734378,-0.2291832000000001,-45.62464554
2.61,261,0.006,-0.999,-0.138,-5.042030400000002,-2.5210152000000003,5.042030400000002,82.97577756,-0.28074942,-45.64183428
2.6199999999999997,262,0.003,-0.993,-0.132,-5.958763200000001,-2.7501984,4.8701430000000006,82.88410428,-0.32085648,-45.67048218
2.63,263,0.003,-0.985,-0.147,-6.5317212,-2.86479,4.8701430000000006,82.82107890000002,-0.3724227000000001,-45.6934005
2.6399999999999997,264,-0.001,-0.983,-0.153,-5.7868758000000025,-3.0366774,4.6982556,82.75805352,-0.42398892,-45.71631882
2.65,265,-0.008,-0.986,-0.142,-4.5263682,-3.4377480000000005,4.4690724,82.71221688,-0.47555514,-45.74496672
2.6599999999999997,266,-0.008,-0.99,-0.129,-3.4950437999999995,-3.8388186,4.010706000000001,82.67783940000002,-0.5156622000000001,-45.779344200000004
2.67,267,-0.008,-0.99,-0.117,-3.0366774,-4.010706000000001,3.6669312000000014,82.63773234,-0.55003968,-45.81372168
2.6799999999999997,268,-0.003,-0.984,-0.114,-2.5210152000000003,-4.1252976000000015,3.380452200000001,82.61481402000003,-0.59014674,-45.85382874
2.69,269,-0.001,-0.976,-0.115,-1.6042823999999998,-4.3544808,3.2658606,82.59762528,-0.62452422,-45.893935799999994
2.6999999999999997,270,0.0,-0.973,-0.112,-0.286479,-4.0680017999999984,3.2085648,82.59189570000002,-0.66463128,-45.92831328
2.71,271,0.001,-0.977,-0.115,0.4583664000000001,-3.6096354,2.9793816000000004,82.59762528,-0.69327918,-45.95696118
2.7199999999999998,272,0.0,-0.984,-0.12,1.0313244,-3.6669312000000014,2.7501984,82.59189570000002,-0.70473834,-45.99133866
2.73,273,-0.005,-0.987,-0.115,2.3491278,-4.0680017999999984,2.291832,82.61481402000003,-0.73338624,-46.03144572000001
2.7399999999999998,274,-0.006999999999999999,-0.987,-0.107,3.0366774,-4.583664,1.7761698,82.6491915,-0.75630456,-46.07155278000001
2.75,275,-0.008,-0.987,-0.11,3.3231564,-4.8128472,1.2032118,82.68356897999998,-0.7734933,-46.11738942
2.76,276,-0.006999999999999999,-0.985,-0.115,4.1825934,-4.7555514,1.0313244,82.72367604,-0.7849524600000001,-46.16322606
2.77,277,-0.006,-0.986,-0.115,5.042030400000002,-4.4690724,0.8021411999999999,82.76378309999998,-0.7849524600000001,-46.2090627
2.78,278,-0.006,-0.985,-0.118,5.9014674000000005,-4.1825934,0.6875496,82.82680848,-0.79641162,-46.24916976
2.79,279,-0.004,-0.986,-0.121,6.760904399999999,-4.2398892,0.572958,82.89556344,-0.8078707799999998,-46.28927682000001
2.8,280,-0.004,-0.989,-0.122,7.448453999999999,-4.1825934,0.4010706,82.97004798,-0.8136003599999999,-46.32938388
2.81,281,-0.003,-0.989,-0.126,7.9641161999999985,-4.1825934,0.286479,83.05599168,-0.8193299399999999,-46.36949094
2.82,282,-0.005,-0.989,-0.122,8.7089616,-4.0680017999999984,0.286479,83.12474663999998,-0.8193299399999999,-46.409598
2.8299999999999996,283,-0.006,-0.989,-0.115,9.167328,-4.0680017999999984,0.11459160000000004,83.21641991999998,-0.8193299399999999,-46.44970506
2.84,284,-0.006,-0.991,-0.106,9.3965112,-4.2398892,0.057295800000000015,83.31382278,-0.8250595199999999,-46.48981212
2.8499999999999996,285,-0.005,-0.992,-0.105,8.9381448,-4.010706000000001,-0.11459160000000004,83.40549606,-0.8250595199999999,-46.52991918
2.86,286,-0.005,-0.995,-0.106,8.307891,-3.4950437999999995,-0.286479,83.49143975999998,-0.8250595199999999,-46.56429666
2.8699999999999997,287,-0.001,-1.0,-0.109,8.078707799999998,-3.380452200000001,-0.3437748,83.55446514,-0.8078707799999998,-46.59867414
2.88,288,0.002,-1.006,-0.113,7.7922288,-3.2658606,-0.572958,83.63467926,-0.8021412000000001,-46.62732204
2.8899999999999997,289,0.001,-1.011,-0.119,7.2765666,-3.151269,-0.7448454000000001,83.7091638,-0.79641162,-46.66169952
2.9,290,-0.002,-1.014,-0.117,7.2192707999999985,-3.151269,-1.0313244,83.78364833999998,-0.7906820400000001,-46.69034742
2.9099999999999997,291,-0.004,-1.013,-0.113,7.2765666,-3.2658606,-1.2605076000000002,83.85813288,-0.7792228800000001,-46.7247249
2.92,292,-0.004,-1.008,-0.107,7.161975,-3.4377480000000005,-1.432395,83.91542868,-0.75630456,-46.75910238
2.9299999999999997,293,-0.001,-1.009,-0.097,6.875496000000001,-3.2085648,-1.5469866,83.98418364,-0.7391158200000001,-46.79347986
2.94,294,0.002,-1.011,-0.079,6.2452422,-3.3231564,-1.6615782,84.05293859999998,-0.72765666,-46.82785734
2.9499999999999997,295,0.005,-1.013,-0.085,4.8701430000000006,-3.2658606,-1.6042823999999998,84.09877524000002,-0.7104679199999999,-46.86223482000001
2.96,296,0.009000000000000001,-1.015,-0.102,3.724227,-2.9793816000000004,-1.6042823999999998,84.13888229999998,-0.69900876,-46.89088271999999
2.9699999999999998,297,0.011,-1.016,-0.084,3.6669312000000014,-3.9534102,-1.6042823999999998,84.18471894,-0.65317212,-46.93098978
2.98,298,0.004,-1.013,-0.073,3.151269,-4.9274388,-1.6042823999999998,84.21909642,-0.64171296,-46.982556
2.9899999999999998,299,0.001,-1.009,-0.085,2.5210152000000003,-4.6409598,-1.7761698,84.24201474,-0.6302538000000001,-47.02839264
3.0,300,0.001,-1.006,-0.08900000000000001,2.6929026,-3.8961144,-1.9480572,84.27066264,-0.61306506,-47.068499700000004
3.01,301,0.001,-1.007,-0.086,3.0939732,-3.724227,-1.8334656000000005,84.30504012,-0.59587632,-47.10860676
3.02,302,0.003,-1.009,-0.07400000000000001,3.5523396000000003,-3.9534102,-1.6615782,84.35087675999998,-0.55576926,-47.14871382
3.03,303,0.004,-1.009,-0.065,3.3231564,-3.9534102,-1.432395,84.38525424,-0.5443101,-47.18882088
3.04,304,0.003,-1.006,-0.07400000000000001,2.6356068,-3.7815227999999994,-1.432395,84.41390214,-0.53285094,-47.22319836000001
3.05,305,0.004,-1.005,-0.08,2.5210152000000003,-3.5523396000000003,-1.3178034,84.44255003999999,-0.52139178,-47.26330542
3.06,306,0.005,-1.006,-0.076,2.86479,-3.4950437999999995,-1.2605076000000002,84.47119794,-0.5099326200000001,-47.29768290000001
3.07,307,0.008,-1.008,-0.07200000000000001,2.9793816000000004,-3.6669312000000014,-1.0313244,84.49984584,-0.47555514,-47.33206038
3.08,308,0.008,-1.006,-0.071,2.86479,-3.7815227999999994,-1.0886202,84.52849374,-0.46409598,-47.37216744000001
3.09,309,0.009000000000000001,-1.0,-0.068,2.86479,-4.0680017999999984,-1.2032118,84.56287122,-0.4526368200000001,-47.4122745
3.0999999999999996,310,0.004,-0.999,-0.069,2.578311,-4.1825934,-1.0886202,84.58578954,-0.44690724,-47.45238156
3.11,311,0.001,-0.999,-0.076,2.5210152000000003,-3.9534102,-1.2032118,84.61443744,-0.43544808,-47.49248862
3.1199999999999997,312,-0.001,-1.003,-0.081,2.8074942000000003,-3.5523396000000003,-1.3178034,84.62589659999998,-0.41252976,-47.53259568
3.13,313,-0.002,-1.008,-0.083,3.2658606,-3.2658606,-1.4896908000000002,84.66027408,-0.4010706000000001,-47.56697316
3.1399999999999997,314,-0.002,-1.008,-0.08,3.6669312000000014,-3.0939732,-1.6042823999999998,84.70038114,-0.38961144,-47.59562106
3.15,315,-0.002,-1.004,-0.08,4.0680017999999984,-3.0366774,-1.6042823999999998,84.74048819999999,-0.3724227000000001,-47.62999854
3.1599999999999997,316,0.001,-1.003,-0.078,4.010706000000001,-2.8074942000000003,-1.6615782,84.78632483999998,-0.35523396,-47.65864644
3.17,317,0.005,-1.001,-0.078,3.8388186,-2.578311,-1.6615782,84.80924316,-0.32085648,-47.68156476
3.1799999999999997,318,0.009000000000000001,-0.999,-0.08199999999999999,3.8388186,-2.4637194,-1.4896908000000002,84.84935021999998,-0.30366774,-47.71021266
3.19,319,0.01,-1.0,-0.084,4.1825934,-2.4064236,-1.2605076000000002,84.88945728,-0.29220857999999994,-47.73313098
3.1999999999999997,320,0.01,-1.002,-0.079,4.583664,-2.578311,-0.9740286,84.93529392,-0.28647900000000004,-47.76177888
3.21,321,0.012,-1.005,-0.076,4.6409598,-2.6929026,-0.8594370000000001,84.98686014,-0.27501984,-47.79042678
3.2199999999999998,322,0.012,-1.006,-0.077,4.2398892,-2.8074942000000003,-0.8021411999999999,85.00977845999998,-0.24064236,-47.81334510000001
3.23,323,0.012,-1.005,-0.078,4.0680017999999984,-2.578311,-0.9740286,85.0556151,-0.23491278,-47.841993
3.2399999999999998,324,0.011,-1.006,-0.08,4.0680017999999984,-2.1772404,-0.9740286,85.09572216000002,-0.22345362,-47.86491131999999
3.25,325,0.009000000000000001,-1.007,-0.08199999999999999,3.8388186,-1.8907613999999997,-1.0313244,85.13582922,-0.21772404,-47.88210005999999
3.26,326,0.006,-1.004,-0.086,3.6096354,-1.6615782,-0.8594370000000001,85.17020670000002,-0.20626488,-47.8992888
3.27,327,0.006,-1.002,-0.076,4.010706000000001,-1.6615782,-0.6875496,85.19312502,-0.17761697999999998,-47.91647754
3.28,328,0.009000000000000001,-1.0,-0.077,3.7815227999999994,-1.432395,-0.6302538000000001,85.23323208,-0.1718874,-47.93366628
3.29,329,0.013,-0.999,-0.085,3.2085648,-1.145916,-0.5156622000000001,85.26760956,-0.16615782,-47.94512544000001
3.3,330,0.015,-1.001,-0.08,3.4377480000000005,-1.2605076000000002,-0.4010706,85.30198704,-0.16042824,-47.9565846
3.31,331,0.014,-1.002,-0.067,3.380452200000001,-1.6615782,-0.4010706,85.33636451999998,-0.16042824,-47.97377334
3.32,332,0.014,-1.002,-0.069,3.0366774,-1.7761698,-0.3437748,85.3420941,-0.11459160000000004,-47.99096208
3.33,333,0.015,-1.001,-0.073,2.6356068,-1.4896908000000002,-0.4583664000000001,85.370742,-0.10886202,-48.00815082
3.34,334,0.014,-1.004,-0.07400000000000001,2.6356068,-1.3178034,-0.5156622000000001,85.39938989999997,-0.10313244,-48.01960998
3.3499999999999996,335,0.015,-1.009,-0.07200000000000001,2.7501984,-1.3750992,-0.4583664000000001,85.42230822,-0.09740286,-48.03106913999999
3.36,336,0.015,-1.01,-0.066,2.5210152000000003,-1.7188740000000002,-0.4010706,85.45095612,-0.09740286,-48.05398746
3.3699999999999997,337,0.013,-1.009,-0.064,2.291832,-1.7761698,-0.4010706,85.45668570000002,-0.05156622,-48.071176200000004
3.38,338,0.013,-1.007,-0.063,2.0053530000000004,-1.6042823999999998,-0.5156622000000001,85.47960402,-0.04583664,-48.08263536
3.3899999999999997,339,0.014,-1.008,-0.063,2.0053530000000004,-1.432395,-0.5156622000000001,85.49679276,-0.04010706,-48.09982409999999
3.4,340,0.014,-1.009,-0.064,1.8334656000000005,-1.3178034,-0.5156622000000001,85.51971108000002,-0.03437748,-48.11128326
3.4099999999999997,341,0.014,-1.01,-0.067,1.7761698,-1.0313244,-0.286479,85.53689982,-0.03437748,-48.12274242
3.42,342,0.014,-1.011,-0.063,1.8334656000000005,-1.0886202,-0.11459160000000004,85.52544065999999,0.02291832,-48.13420158
3.4299999999999997,343,0.014,-1.01,-0.064,1.7188740000000002,-1.0313244,0.0,85.54835898,0.02291832,-48.14566074
3.44,344,0.015,-1.008,-0.064,1.8907613999999997,-1.0886202,0.11459160000000004,85.56554772,0.02291832,-48.1571199
3.4499999999999997,345,0.015,-1.006,-0.06,2.0053530000000004,-1.0886202,0.286479,85.58846604,0.01718874,-48.16857906
3.46,346,0.014,-1.003,-0.06,1.9480572,-1.0886202,0.4010706,85.60565478000002,0.01718874,-48.17430864
3.4699999999999998,347,0.011,-1.001,-0.061,1.8334656000000005,-1.2032118,0.4010706,85.60565478000002,0.05156622,-48.1857678
3.48,348,0.008,-1.0,-0.056,2.0053530000000004,-1.2605076000000002,0.3437748,85.62857310000003,0.04583664,-48.19722696000001
3.4899999999999998,349,0.008,-1.002,-0.047,2.1199446,-1.2032118,0.286479,85.65149142,0.04583664,-48.20868612
3.5,350,0.006999999999999999,-1.002,-0.046,1.6615782,-0.9740286,0.2291832000000001,85.66868016,0.04010706,-48.22014528
3.51,351,0.009000000000000001,-1.003,-0.055,1.0886202,-0.286479,0.2291832000000001,85.68013932,0.04010706,-48.22587486
3.52,352,0.012,-1.008,-0.062,0.9740286,0.057295800000000015,0.286479,85.62857310000003,0.12605075999999998,-48.22587486
3.53,353,0.011,-1.01,-0.06,1.0886202,0.057295800000000015,0.4583664000000001,85.64003226,0.12032118,-48.22014528
3.54,354,0.008,-1.01,-0.061,1.145916,0.0,0.572958,85.65149142,0.11459160000000004,-48.22014528
3.55,355,0.009000000000000001,-1.009,-0.063,0.9740286,0.057295800000000015,0.572958,85.66295058,0.10886202,-48.22014528
3.56,356,0.009000000000000001,-1.008,-0.064,0.9740286,0.0,0.6302538000000001,85.67440974,0.10313244,-48.22014528
3.57,357,0.009000000000000001,-1.008,-0.064,1.145916,-0.1718874,0.6875496,85.64003226,0.14896908,-48.22587486
3.58,358,0.01,-1.008,-0.061,1.0313244,-0.286479,0.6875496,85.65149142,0.14323950000000002,-48.22587486
3.59,359,0.009000000000000001,-1.007,-0.061,1.145916,-0.286479,0.7448454000000001,85.66295058,0.13750992,-48.22587486
3.5999999999999996,360,0.006,-1.008,-0.059,0.9740286,-0.1718874,0.8594370000000001,85.67440974,0.12605075999999998,-48.23160444
3.61,361,0.006,-1.008,-0.056,0.6302538000000001,0.11459160000000004,0.8594370000000001,85.68013932,0.12032118,-48.22587486
3.6199999999999997,362,0.006,-1.006,-0.053,0.286479,0.286479,0.8594370000000001,85.67440974,0.16042824,-48.22014528
3.63,363,0.006999999999999999,-1.006,-0.061,0.0,0.286479,0.8594370000000001,85.67440974,0.15469866,-48.2144157
3.6399999999999997,364,0.008,-1.006,-0.063,-0.1718874,0.3437748,0.9167328,85.67440974,0.14323950000000002,-48.2144157
3.65,365,0.011,-1.006,-0.064,0.0,0.286479,0.7448454000000001,85.67440974,0.13750992,-48.20868612
3.6599999999999997,366,0.012,-1.006,-0.062,0.057295800000000015,0.2291832000000001,0.6875496,85.67440974,0.12605075999999998,-48.20295654
3.67,367,0.011,-1.006,-0.064,0.0,0.1718874,0.6302538000000001,85.56554772,0.23491278,-48.20868612
3.6799999999999997,368,0.01,-1.003,-0.068,0.057295800000000015,0.0,0.6302538000000001,85.56554772,0.2291832000000001,-48.20868612
3.69,369,0.006999999999999999,-1.002,-0.066,0.2291832000000001,0.0,0.7448454000000001,85.57127729999998,0.22345362,-48.20868612
3.6999999999999997,370,0.008,-1.002,-0.064,0.4010706,-0.2291832000000001,0.6875496,85.57127729999998,0.21199446,-48.2144157
3.71,371,0.006,-1.002,-0.064,0.5156622000000001,-0.286479,0.6875496,85.57700688,0.20626488,-48.2144157
3.7199999999999998,372,0.005,-1.005,-0.062,0.5156622000000001,-0.11459160000000004,0.4583664000000001,85.55981814,0.23491278,-48.2144157
3.73,373,0.005,-1.005,-0.056,0.286479,-0.11459160000000004,0.3437748,85.55981814,0.2291832000000001,-48.22014528
3.7399999999999998,374,0.006999999999999999,-1.003,-0.056,-0.11459160000000004,-0.11459160000000004,0.286479,85.55981814,0.22345362,-48.22014528
3.75,375,0.009000000000000001,-1.003,-0.059,-0.4583664000000001,-0.2291832000000001,0.1718874,85.55408856,0.22345362,-48.22014528
3.76,376,0.01,-1.004,-0.064,-0.4010706,-0.5156622000000001,0.1718874,85.55408856,0.22345362,-48.22587486
3.77,377,0.011,-1.007,-0.064,-0.2291832000000001,-0.8594370000000001,0.057295800000000015,85.50825191999998,0.29220857999999994,-48.23733402000001
3.78,378,0.01,-1.008,-0.061,-0.11459160000000004,-1.3750992,0.057295800000000015,85.50825191999998,0.29220857999999994,-48.24879317999999
3.79,379,0.01,-1.008,-0.054000000000000006,-0.1718874,-2.0626488000000003,0.0,85.50825191999998,0.29220857999999994,-48.2717115
3.8,380,0.009000000000000001,-1.008,-0.051,-0.572958,-2.9220857999999996,-0.11459160000000004,85.50252234,0.29220857999999994,-48.3003594
3.81,381,0.003,-1.006,-0.052000000000000005,-1.0886202,-3.5523396000000003,-0.3437748,85.49106318,0.29220857999999994,-48.33473688
3.82,382,-0.002,-1.005,-0.063,-1.2605076000000002,-3.4950437999999995,-0.572958,85.46241528,0.28647900000000004,-48.37484394
3.83,383,-0.006,-1.005,-0.073,-0.8021411999999999,-2.8074942000000003,-0.8594370000000001,85.45095612,0.29220857999999994,-48.40349184
3.84,384,-0.006999999999999999,-1.004,-0.073,0.0,-2.1772404,-0.9740286,85.45095612,0.30366774,-48.42641016
3.8499999999999996,385,-0.003,-1.003,-0.07400000000000001,0.8021411999999999,-1.7188740000000002,-1.145916,85.46241528,0.31512690000000004,-48.4435989
3.86,386,-0.002,-1.003,-0.073,1.3750992,-1.3178034,-1.2605076000000002,85.47387444,0.32658606,-48.455058060000006
3.8699999999999997,387,-0.003,-0.999,-0.073,1.7761698,-1.2032118,-1.2605076000000002,85.46814486,0.32658606,-48.47797638
3.88,388,-0.004,-0.997,-0.067,2.291832,-1.0313244,-1.145916,85.49106318,0.33804522,-48.48943554
3.8899999999999997,389,-0.003,-0.997,-0.059,2.3491278,-0.6875496,-0.9740286,85.5139815,0.34950438,-48.49516512
3.9,390,0.0,-0.996,-0.063,1.8907613999999997,-0.3437748,-0.6875496,85.53117024000002,0.35523396,-48.5008947
3.9099999999999997,391,0.005,-0.997,-0.065,1.6042823999999998,0.0,-0.4010706,85.54835898,0.36096354,-48.5008947
3.92,392,0.008,-1.001,-0.07,1.6042823999999998,0.3437748,-0.11459160000000004,85.5139815,0.38388186,-48.5008947
3.9299999999999997,393,0.006999999999999999,-1.002,-0.07,1.7188740000000002,0.6875496,0.2291832000000001,85.53117024000002,0.38388186,-48.49516512
3.94,394,0.006999999999999999,-1.003,-0.064,1.8907613999999997,0.8021411999999999,0.3437748,85.55408856,0.37815228,-48.48370596
3.9499999999999997,395,0.006,-1.004,-0.06,1.7188740000000002,0.9167328,0.4010706,85.57127729999998,0.3724227000000001,-48.47797638
3.96,396,0.008,-1.003,-0.057,1.145916,0.8021411999999999,0.4583664000000001,85.58273646,0.3724227000000001,-48.46651722
3.9699999999999998,397,0.012,-1.0,-0.058,0.9167328,0.6875496,0.3437748,85.57700688,0.40680018,-48.46078764
3.98,398,0.017,-0.999,-0.061,0.9167328,0.8021411999999999,0.286479,85.58846604,0.4010706000000001,-48.44932848
3.9899999999999998,399,0.022,-0.999,-0.063,0.9740286,0.8594370000000001,0.286479,85.59419562000002,0.4010706000000001,-48.43786932
4.0,400,0.027000000000000003,-1.004,-0.059,0.9740286,1.0313244,0.4583664000000001,85.60565478000002,0.39534102,-48.43213974
4.01,401,0.028,-1.009,-0.056,0.8594370000000001,1.0313244,0.4583664000000001,85.61711394,0.38961144,-48.42068058
4.02,402,0.028,-1.009,-0.055,0.572958,1.0886202,0.5156622000000001,85.61138436,0.46409598,-48.39776225999999
4.03,403,0.031,-1.009,-0.061,0.5156622000000001,1.0886202,0.6875496,85.61711394,0.4526368200000001,-48.386303100000006
4.04,404,0.031,-1.009,-0.062,0.5156622000000001,0.8594370000000001,0.6302538000000001,85.62284352,0.44690724,-48.38057352000001
4.05,405,0.029,-1.008,-0.061,0.7448454000000001,0.6302538000000001,0.572958,85.62857310000003,0.44690724,-48.36911436000001
4.06,406,0.029,-1.009,-0.06,0.9740286,0.286479,0.572958,85.64003226,0.44117766,-48.36911436000001
4.07,407,0.03,-1.006,-0.059,1.145916,-0.11459160000000004,0.5156622000000001,85.62857310000003,0.52139178,-48.36338478
4.08,408,0.03,-1.003,-0.058,1.432395,-0.286479,0.4583664000000001,85.64003226,0.5156622000000001,-48.36338478
4.09,409,0.029,-0.998,-0.052000000000000005,1.6615782,-0.4583664000000001,0.2291832000000001,85.65722099999998,0.5099326200000001,-48.36911436000001
4.1,410,0.027000000000000003,-0.995,-0.054000000000000006,1.8334656000000005,-0.6875496,0.286479,85.68013932,0.5099326200000001,-48.37484394
4.109999999999999,411,0.024,-0.995,-0.055,1.7761698,-1.0313244,0.286479,85.69732806,0.5042030399999999,-48.386303100000006
4.12,412,0.022,-0.996,-0.052000000000000005,2.0053530000000004,-1.3750992,0.286479,85.72024638,0.52712136,-48.39776225999999
4.13,413,0.017,-0.998,-0.054000000000000006,2.0626488000000003,-1.5469866,0.2291832000000001,85.73743512,0.52139178,-48.40922142
4.14,414,0.014,-1.0,-0.057,2.0626488000000003,-1.3750992,0.286479,85.76035343999997,0.52139178,-48.42641016
4.1499999999999995,415,0.013,-1.002,-0.059,2.1772404,-1.3750992,0.286479,85.78327176,0.5156622000000001,-48.43786932
4.16,416,0.011,-1.003,-0.057,2.4637194,-1.5469866,0.3437748,85.80619008000002,0.5099326200000001,-48.455058060000006
4.17,417,0.009000000000000001,-1.002,-0.056,2.6356068,-1.6042823999999998,0.4583664000000001,85.82910840000002,0.5156622000000001,-48.47224680000001
4.18,418,0.006,-1.002,-0.056,2.4064236,-1.432395,0.4583664000000001,85.85202672,0.5099326200000001,-48.48370596
4.1899999999999995,419,0.003,-1.001,-0.055,2.4064236,-1.432395,0.4583664000000001,85.87494504,0.5042030399999999,-48.49516512
4.2,420,0.0,-1.003,-0.053,2.6356068,-1.3750992,0.5156622000000001,85.90359294,0.4984734599999999,-48.51235386000001
4.21,421,0.0,-1.005,-0.051,2.8074942000000003,-1.3750992,0.5156622000000001,85.93224083999998,0.49274388,-48.52381301999999
4.22,422,0.0,-1.005,-0.051,2.6356068,-1.3750992,0.5156622000000001,85.95515916000002,0.48128472,-48.54100175999999
4.2299999999999995,423,0.001,-1.005,-0.051,2.578311,-1.3178034,0.572958,85.98380705999998,0.47555514,-48.55246092
4.24,424,0.002,-1.005,-0.05,2.6356068,-1.145916,0.572958,86.00672538,0.46982556,-48.56392008
