TimeStamp(s),FrameCounter,AccX,AccY,AccZ,GyrX,GyrY,GyrZ,EulerX,EulerY,EulerZ
0.01,1,0.093,-1.038,0.075,-15.527161800000002,-7.333862400000001,8.59437,97.52318118,3.6440128800000013,-6.53745078
0.02,2,0.091,-1.037,0.067,-16.558486199999994,-8.880849000000003,9.453807000000001,97.34556419999998,3.56379876,-6.640583220000001
0.03,3,0.092,-1.034,0.055,-17.5325148,-10.7716104,10.255948199999999,97.16221764,3.47785506,-6.760904399999999
0.04,4,0.094,-1.031,0.046,-18.6784308,-12.891555,10.8289062,96.96741192,3.3919113599999995,-6.9041438999999984
0.05,5,0.094,-1.027,0.043,-19.4232762,-14.9542038,11.3445684,96.74968788,3.3059676599999994,-7.06457214
0.060000000000000005,6,0.095,-1.027,0.044,-20.168121600000006,-17.3606274,11.917526400000002,96.53769342,3.2085648000000004,-7.25364828
0.06999999999999999,7,0.096,-1.028,0.042,-21.2567418,-20.2254174,12.5477802,96.3142398,3.11116194,-7.46564274
0.08,8,0.08900000000000001,-1.025,0.04,-22.6891368,-23.7204612,13.2353298,96.07359744,3.0137590800000003,-7.717744259999999
0.09,9,0.07,-1.015,0.034,-24.2361234,-27.903054600000004,13.521808800000002,95.81576634,2.91062664,-8.00995284
0.09999999999999999,10,0.041,-0.991,0.034,-25.0382646,-32.658606,13.2926256,95.5407465,2.81895336,-8.34226848
0.11,11,0.009000000000000001,-0.959,0.049,-24.5798982,-35.52339600000001,12.1467096,95.27718582,2.73873924,-8.7089616
0.12,12,-0.02,-0.938,0.07200000000000001,-25.0382646,-37.7006364,10.5424272,95.01362514,2.67571386,-9.09284346
0.13,13,-0.037000000000000005,-0.923,0.098,-26.69984280000001,-39.3049188,8.59437,94.72714614,2.6356068,-9.48818448
0.14,14,-0.051,-0.931,0.116,-28.6479,-40.393539,6.875496000000001,94.4234784,2.6069589,-9.89498466
0.15000000000000002,15,-0.054000000000000006,-0.94,0.116,-30.366774000000003,-40.2789474,5.2712136,94.10262192,2.58404058,-10.30178484
0.16,16,-0.055,-0.96,0.121,-31.51269000000001,-39.877876799999996,4.0680017999999984,93.77030628,2.5783110000000002,-10.70285544
0.17,17,-0.059,-0.974,0.146,-31.3980984,-38.3308902,3.0366774,93.43799064,2.5783110000000002,-11.0867373
0.18000000000000002,18,-0.066,-1.0,0.18,-29.2781538,-35.809875,2.7501984,93.12859332,2.58404058,-11.44197126
0.19,19,-0.066,-1.046,0.205,-26.69984280000001,-33.6326346,3.3231564,92.8478439,2.57258142,-11.78001648
0.2,20,-0.052000000000000005,-1.111,0.205,-25.6112226,-31.3980984,5.0993262,92.5900128,2.53820394,-12.09514338
0.21000000000000002,21,-0.029,-1.17,0.183,-26.4706596,-30.1375908,7.9641161999999985,92.30926338,2.47517856,-12.39881112
0.22,22,-0.012,-1.208,0.159,-26.5279554,-30.194886600000004,11.229976800000001,92.03424354,2.38350528,-12.70820844
0.23,23,0.006,-1.206,0.14800000000000002,-25.3820394,-30.4240698,14.152062599999999,91.76495328,2.25745452,-13.01760576
0.24000000000000002,24,0.015,-1.177,0.129,-24.9809688,-30.65325300000001,16.157415599999997,91.50712218,2.11421502,-13.32700308
0.25,25,0.017,-1.108,0.094,-26.1268848,-30.8824362,16.615782,91.23783192,1.9595163600000003,-13.642129979999998
0.26,26,0.02,-1.031,0.08199999999999999,-24.8663772,-31.1689152,16.042824000000003,90.98000082,1.81054728,-13.95725688
0.27,27,0.008,-0.975,0.085,-23.7204612,-30.93973200000001,15.183387000000002,90.73362888,1.67303736,-14.266654199999998
0.28,28,-0.016,-0.948,0.092,-24.0069402,-29.507337,14.7823164,90.48152736,1.53552744,-14.564592359999995
0.29000000000000004,29,-0.048,-0.942,0.084,-26.929026,-27.1582092,15.183387000000002,90.20650752,1.39228794,-14.83388262
0.3,30,-0.092,-0.944,0.079,-27.5592798,-24.1788276,15.813640800000002,89.93148768,1.22613012,-15.08025456
0.31,31,-0.135,-0.945,0.077,-29.4500412,-21.027558600000006,16.558486199999994,89.62781994000002,1.06570188,-15.29224902
0.32,32,-0.16,-0.948,0.077,-30.65325300000001,-17.475219,16.7303736,89.31842262,0.89954406,-15.46413642
0.33,33,-0.166,-0.962,0.069,-29.9657034,-13.0634424,16.7876694,89.01475488,0.72765666,-15.59591676
0.34,34,-0.158,-0.965,0.073,-28.1895336,-7.333862400000001,16.386598799999998,88.72827588,0.56722842,-15.6704013
0.35000000000000003,35,-0.14,-0.959,0.08900000000000001,-26.069589,-2.9220857999999996,15.5844576,88.48190394,0.38388186,-15.6990492
0.36000000000000004,36,-0.111,-0.962,0.158,-25.7258142,0.9167328,14.4385416,88.21834326000004,0.24064236,-15.68759004
0.37,37,-0.078,-0.982,0.188,-28.4760126,4.297185,13.8655836,87.93186426,0.10313244,-15.647482979999998
0.38,38,-0.044,-1.013,0.188,-31.79916900000001,7.2765666,14.32395,87.6052782,-0.04010706,-15.57299844
0.39,39,-0.013,-1.031,0.173,-33.9191136,10.599723,15.2406828,87.26150340000002,-0.18907614,-15.46413642
0.4,40,-0.003,-1.034,0.155,-33.9191136,13.0061466,16.4438946,86.93491734,-0.35523396,-15.33235608
0.41000000000000003,41,-0.006999999999999999,-1.031,0.14,-32.142943800000005,14.896907999999998,17.5325148,86.60260170000002,-0.52712136,-15.17765742
0.42000000000000004,42,-0.016,-1.024,0.13,-29.335449600000004,16.615782,17.8762896,86.30466354,-0.69900876,-15.00577002
0.43,43,-0.029,-1.008,0.141,-28.5906042,17.8189938,17.246035799999998,86.00672538,-0.86516658,-14.82242346
0.44,44,-0.039,-0.98,0.151,-27.501984000000004,19.480572,16.1001198,85.72024638,-1.01986524,-14.62188816
0.45,45,-0.047,-0.955,0.17,-26.356068,21.027558600000006,15.126091199999998,85.47387444,-1.16310474,-14.409893700000001
0.46,46,-0.058,-0.938,0.168,-25.496631,21.772404,14.610429000000002,85.20458418000003,-1.30061466,-14.18644008
0.47000000000000003,47,-0.07,-0.934,0.17600000000000002,-23.9496444,22.0015872,14.266654199999998,84.95248266,-1.432395,-13.95725688
0.48000000000000004,48,-0.084,-0.936,0.16899999999999998,-22.91832,21.772404,13.5791046,84.71184029999998,-1.5527161800000002,-13.733803259999998
0.49,49,-0.092,-0.948,0.165,-21.485925,21.7151082,11.745639,84.48838668,-1.6615782,-13.51034964
0.5,50,-0.103,-0.966,0.16399999999999998,-21.3140376,22.058883,9.3392154,84.28785138,-1.7475218999999995,-13.2926256
0.51,51,-0.127,-0.979,0.141,-22.5745452,23.3193906,6.9327918,84.05293859999998,-1.8048176999999999,-13.05771282
0.52,52,-0.147,-0.987,0.111,-22.91832,26.7571386,4.3544808,83.80656666,-1.82773602,-12.78842256
0.53,53,-0.174,-0.996,0.104,-22.1161788,31.22621100000001,2.2345362,83.5659243,-1.82773602,-12.47902524
0.54,54,-0.195,-1.015,0.094,-21.8869956,36.6120162,0.1718874,83.33101152,-1.79908812,-12.12379128
0.55,55,-0.223,-1.048,0.084,-21.027558600000006,41.9978214,-1.6615782,83.11328748,-1.76471064,-11.7169911
0.56,56,-0.249,-1.121,0.055,-21.199446,47.2117392,-2.9793816000000004,82.8783747,-1.6902260999999998,-11.25289512
0.5700000000000001,57,-0.28300000000000003,-1.235,-0.05,-25.210152,49.9619376,-2.7501984,82.60335486,-1.62147114,-10.771610399999998
0.5800000000000001,58,-0.287,-1.354,-0.218,-31.79916900000001,49.560867,-1.2605076000000002,82.25958005999998,-1.55844576,-10.2845961
0.59,59,-0.215,-1.415,-0.295,-32.0283522,49.7327544,-1.8907613999999997,81.91007568,-1.4896908000000002,-9.80331138
0.6,60,-0.08800000000000001,-1.413,-0.276,-27.1009134,52.2537696,-5.3285094000000015,81.6178671,-1.38082878,-9.29910834
0.61,61,0.038,-1.386,-0.22,-18.621135,55.06126379999999,-9.3965112,81.40587264,-1.22040054,-8.77198698
0.62,62,0.135,-1.412,-0.135,-8.880849000000003,55.3477428,-8.193299399999999,81.29701062000002,-1.07716104,-8.24486562
0.63,63,0.162,-1.504,-0.009000000000000001,-5.443101,46.2377106,0.286479,81.22825566,-1.01986524,-7.792228800000001
0.64,64,0.05,-1.568,-0.01,-10.886202,35.236917,11.688343199999998,81.10793448000003,-1.09434978,-7.42553568
0.65,65,-0.147,-1.594,-0.16899999999999998,-14.8396122,35.236917,20.626488,80.94177666,-1.25477802,-7.05311298
0.66,66,-0.322,-1.594,-0.29100000000000004,-15.2979786,40.2216516,19.308684600000007,80.77561884,-1.39228794,-6.62912406
0.67,67,-0.332,-1.503,-0.373,-21.485925,40.2216516,7.5057497999999985,80.54070606,-1.41520626,-6.22232388
0.68,68,-0.218,-1.39,-0.43,-23.0902074,42.112413,-6.016058999999999,80.28860454,-1.30061466,-5.8269828599999975
0.6900000000000001,69,-0.036000000000000004,-1.305,-0.411,-22.631841,44.06047020000001,-16.902261,80.04796218,-1.07716104,-5.42591226
0.7000000000000001,70,0.16399999999999998,-1.2009999999999998,-0.395,-22.459953600000002,44.8053156,-20.05353,79.79586065999997,-0.8078707799999998,-5.01911208
0.7100000000000001,71,0.277,-1.089,-0.406,-23.0902074,43.831287,-15.469866,79.54948872,-0.59014674,-4.6180414800000005
0.72,72,0.269,-0.98,-0.435,-23.204799,42.2270046,-7.7922288,79.30311678,-0.4526368200000001,-4.22270046
0.73,73,0.204,-0.909,-0.446,-21.7151082,41.596750799999995,-2.9220857999999996,79.07393358,-0.36096354,-3.82162986
0.74,74,0.116,-0.843,-0.453,-20.1108258,40.90920120000001,-3.8961144,78.86193912,-0.25783110000000004,-3.43201842
0.75,75,0.055,-0.805,-0.442,-19.1367972,39.0757356,-8.3651868,78.62702634000001,-0.10886202,-3.05959572
0.76,76,0.029,-0.769,-0.4370000000000001,-19.3659804,37.41415739999999,-13.6936962,78.42649104,0.08021412,-2.72728008
0.77,77,0.063,-0.763,-0.403,-17.3606274,35.46610020000001,-18.1054728,78.24314448,0.32085648,-2.41788276
0.78,78,0.134,-0.785,-0.365,-17.131444199999994,33.3461556,-21.4286292,78.07125708,0.5844171599999999,-2.13713334
0.79,79,0.189,-0.815,-0.37,-18.5638392,30.252182399999995,-23.032911600000002,77.87645136,0.8594370000000001,-1.8907613999999997
0.8,80,0.212,-0.86,-0.373,-19.0222056,26.5852512,-22.91832,77.66445689999998,1.15164558,-1.67303736
0.81,81,0.214,-0.91,-0.366,-19.6524594,24.1788276,-21.8869956,77.46392159999998,1.40947668,-1.4896908000000002
0.8200000000000001,82,0.18600000000000005,-0.959,-0.376,-20.8556712,23.6631654,-20.6837838,77.25192713999998,1.65011904,-1.30634424
0.8300000000000001,83,0.135,-1.001,-0.377,-21.8869956,24.0069402,-20.5691922,77.0342031,1.89649098,-1.1172681
0.8400000000000001,84,0.065,-1.021,-0.365,-21.8869956,25.0955604,-20.3973048,76.81647905999998,2.14286292,-0.92246238
0.85,85,-0.005,-1.003,-0.326,-21.6578124,26.8717302,-19.938938399999998,76.58729586000003,2.3777757,-0.7104679199999999
0.86,86,-0.053,-0.941,-0.285,-22.6891368,29.335449600000004,-19.8243468,76.36384224,2.62987722,-0.46982556
0.87,87,-0.075,-0.8540000000000001,-0.257,-23.777757,31.340802600000004,-20.7410796,76.12892946000002,2.8934379,-0.21772404
0.88,88,-0.059,-0.76,-0.225,-23.6631654,33.0596766,-22.2307704,75.89974626,3.1741873200000006,0.04010706
0.89,89,-0.018000000000000002,-0.696,-0.194,-22.8037284,34.37748,-22.7464326,75.67629264,3.4663959,0.31512690000000004
0.9,90,0.048,-0.635,-0.185,-22.0015872,34.7785506,-22.0015872,75.46429817999999,3.752874900000001,0.59587632
0.91,91,0.111,-0.608,-0.159,-18.621135,33.3461556,-20.340009,75.2866812,4.022165159999999,0.86516658
0.92,92,0.171,-0.609,-0.124,-15.0687954,29.67922440000001,-19.0795014,75.14917127999998,4.2685371,1.10580894
0.93,93,0.227,-0.629,-0.11,-12.4904844,24.694489800000003,-17.9335854,75.0288501,4.4977203,1.29488508
0.9400000000000001,94,0.254,-0.6459999999999999,-0.106,-9.6256944,19.0795014,-16.329303,74.9429064,4.6982555999999995,1.43812458
0.9500000000000001,95,0.259,-0.687,-0.098,-7.333862400000001,13.6936962,-15.0687954,74.87988102,4.898790900000002,1.53552744
0.9600000000000001,96,0.249,-0.731,-0.114,-6.3025379999999975,8.7089616,-14.152062599999999,74.82258522,5.05921914,1.5813640800000002
0.97,97,0.228,-0.758,-0.133,-5.6149884000000005,3.6669312000000014,-14.266654199999998,74.76528942,5.2024586400000015,1.5813640800000002
0.98,98,0.202,-0.779,-0.145,-4.1825934,-1.3178034,-16.272007199999994,74.71372319999998,5.3571573,1.52406828
0.99,99,0.171,-0.778,-0.136,-3.2658606,-3.7815227999999994,-19.480572,74.67361614000002,5.53477428,1.43812458
1.0,100,0.16899999999999998,-0.772,-0.145,-1.6615782,-5.5003968,-22.7464326,74.65069782,5.75249832,1.32353298
1.01,101,0.154,-0.774,-0.132,0.6875496,-7.0473834,-25.1528562,74.64496824,5.97595194,1.19175264
1.02,102,0.142,-0.792,-0.136,2.7501984,-6.703608600000001,-25.84040580000001,74.66215697999998,6.210864720000001,1.0599723
1.03,103,0.141,-0.8170000000000001,-0.14,5.6149884000000005,-6.1879464,-24.5226024,74.70226404,6.428588760000001,0.93392154
1.04,104,0.14800000000000002,-0.8390000000000001,-0.139,8.880849000000003,-5.958763200000001,-22.173474600000002,74.78247816,6.62912406,0.8193299399999999
1.05,105,0.175,-0.861,-0.129,13.8082878,-6.760904399999999,-19.194093,74.92571766,6.8182002000000015,0.7104679199999999
1.06,106,0.201,-0.894,-0.118,18.9649098,-8.59437,-16.157415599999997,75.10333464,6.955710119999999,0.5844171599999999
1.07,107,0.221,-0.926,-0.105,23.835052800000003,-11.0580894,-13.6364004,75.33251784000002,7.06457214,0.44690724
1.08,108,0.239,-0.95,-0.104,28.4760126,-14.7250206,-10.255948199999999,75.60180809999999,7.1333271000000025,0.28074942
1.09,109,0.264,-0.967,-0.11,33.518043,-18.9649098,-6.130650599999999,75.92266457999997,7.15624542,0.08021412
1.1,110,0.298,-0.992,-0.101,39.3049188,-23.8923486,-1.7188740000000002,76.30654644,7.144786260000001,-0.14323950000000002
1.11,111,0.336,-1.036,-0.061,46.29500640000001,-29.2781538,2.1772404,76.7477241,7.0703017200000025,-0.41825934
1.12,112,0.34600000000000003,-1.165,-0.121,49.61816279999999,-33.518043,5.443101,77.21754966,6.955710119999999,-0.72765666
1.1300000000000001,113,0.385,-1.37,-0.3670000000000001,41.3675676,-23.7204612,6.6463128000000005,77.61289067999998,6.85257768,-0.93965112
1.1400000000000001,114,0.399,-1.601,-0.8059999999999999,20.8556712,4.9847345999999995,4.1252976000000015,77.83061472,6.82392978,-0.8823553199999999
1.1500000000000001,115,0.228,-1.741,-0.72,23.14750320000001,15.3552744,-0.5156622000000001,78.08271624,6.858307260000001,-0.72765666
1.1600000000000001,116,-0.196,-1.783,-0.363,32.4294228,-6.0733548,0.0,78.40357272,6.8468481,-0.7849524600000001
1.17,117,-0.397,-1.577,-0.227,24.4653066,-30.194886600000004,5.5576926,78.62129675999998,6.743715660000001,-1.07143146
1.18,118,-0.188,-1.2919999999999998,-0.3720000000000001,12.7769634,-39.47680620000001,3.2085648,78.71297003999999,6.65204238,-1.44958374
1.19,119,0.202,-1.152,-0.46,12.605076,-43.4302164,0.4010706,78.79891374,6.57755784,-1.87357266
1.2,120,0.541,-1.11,-0.623,17.3606274,-49.6754586,0.286479,78.91350534,6.5088028799999975,-2.35485738
1.21,121,0.634,-1.071,-0.652,20.2827132,-56.4936588,3.5523396000000003,79.06247442,6.382752120000001,-2.89916748
1.22,122,0.5329999999999999,-0.991,-0.593,14.266654199999998,-63.25456320000001,8.9954406,79.15414770000002,6.19367598,-3.50077338
1.23,123,0.265,-0.904,-0.518,8.479778399999999,-67.7809314,13.8655836,79.18279559999998,5.953033619999999,-4.14248634
1.24,124,-0.002,-0.8740000000000001,-0.446,6.016058999999999,-65.7182826,15.469866,79.18852518,5.7009320999999975,-4.7555514
1.25,125,-0.209,-0.861,-0.414,3.0366774,-57.52498320000001,12.4904844,79.14268854000002,5.443101,-5.28840234
1.26,126,-0.354,-0.848,-0.383,1.432395,-47.841993,7.161975,79.11977021999998,5.29413192,-5.746768739999999
1.27,127,-0.433,-0.87,-0.325,-0.4583664000000001,-39.247623,2.4637194,79.08539274,5.20818822,-6.12492102
1.28,128,-0.446,-0.892,-0.35,-4.1825934,-30.4240698,-2.1199446,79.02236736,5.17954032,-6.428588760000001
1.29,129,-0.385,-0.895,-0.361,-4.8701430000000006,-21.3140376,-5.958763200000001,78.95361240000003,5.2024586400000015,-6.65204238
1.3,130,-0.261,-0.912,-0.35,-4.8128472,-13.464512999999998,-6.589017,78.82756164,5.14516284,-6.783822719999999
1.31,131,-0.146,-0.927,-0.35200000000000004,-6.2452422,-9.2819196,-4.7555514,78.75880667999998,5.17381074,-6.8812255800000015
1.32,132,-0.035,-0.969,-0.361,-5.3285094000000015,-7.1046792000000005,-0.9740286,78.70151088,5.17381074,-6.955710119999999
1.33,133,0.051,-1.041,-0.349,-3.8388186,-6.875496000000001,5.3858052,78.65567424,5.10505578,-7.01300592
1.34,134,0.106,-1.105,-0.315,-1.0886202,-7.6776372,13.5791046,78.6384855,4.96181628,-7.06457214
1.35,135,0.145,-1.108,-0.278,-0.3437748,-8.193299399999999,22.1161788,78.62129675999998,4.74409224,-7.098949620000001
1.36,136,0.14400000000000002,-1.0,-0.261,-0.6875496,-9.453807000000001,27.043617600000005,78.61556718,4.46334282,-7.13905668
1.37,137,0.123,-0.863,-0.253,-1.8334656000000005,-12.2040054,27.1009134,78.59264886000003,4.17686382,-7.20781164
1.3800000000000001,138,0.09,-0.753,-0.227,-3.151269,-15.0114996,25.3820394,78.55827138,3.90184398,-7.305214500000001
1.3900000000000001,139,0.053,-0.687,-0.218,-3.9534102,-17.131444199999994,23.032911600000002,78.51243473999997,3.64974246,-7.42553568
1.4000000000000001,140,0.02,-0.6609999999999999,-0.188,-3.0366774,-18.621135,20.340009,78.46659809999998,3.4148296799999995,-7.56877518
1.4100000000000001,141,-0.012,-0.672,-0.161,-2.5210152000000003,-19.0222056,17.761698000000006,78.43222062,3.2085648000000004,-7.717744259999999
1.42,142,-0.03,-0.6940000000000001,-0.141,-2.291832,-18.5638392,15.5844576,78.40357272,3.02521824,-7.866713339999999
1.43,143,-0.039,-0.715,-0.119,-2.0053530000000004,-18.162768600000003,13.8655836,78.38065440000003,2.85906042,-8.021412
1.44,144,-0.046,-0.726,-0.115,-2.86479,-17.8762896,12.891555,78.34627692000002,2.70436176,-8.17038108
1.45,145,-0.049,-0.728,-0.129,-2.9793816000000004,-17.0168526,11.745639,78.31189943999998,2.54393352,-8.31362058
1.46,146,-0.048,-0.725,-0.121,-1.2605076000000002,-15.527161800000002,10.026765,78.29471070000002,2.42361234,-8.44540092
1.47,147,-0.044,-0.747,-0.146,0.0,-14.037471,9.8548776,78.28898111999997,2.30329116,-8.55999252
1.48,148,-0.05,-0.78,-0.141,3.9534102,-12.0894138,9.6256944,78.32908818,2.18869956,-8.65739538
1.49,149,-0.056,-0.8109999999999999,-0.113,8.136003599999999,-9.568398599999998,10.3705398,78.40930230000002,2.06837838,-8.73187992
1.5,150,-0.05,-0.838,-0.071,12.605076,-5.72958,11.45916,78.55827138,1.93086846,-8.7662574
1.51,151,-0.06,-0.8640000000000001,-0.046,16.386598799999998,-2.6929026,11.688343199999998,78.7244292,1.81627686,-8.7662574
1.52,152,-0.08,-0.899,-0.022,19.4232762,0.0,10.599723,78.9249645,1.71314442,-8.74333908
1.53,153,-0.127,-0.945,-0.003,22.173474600000002,3.0939732,8.5370742,79.14841812,1.6386598799999998,-8.69750244
1.54,154,-0.199,-1.0,-0.014,22.8037284,6.875496000000001,5.6149884000000005,79.3833309,1.59855282,-8.61728832
1.55,155,-0.275,-1.046,-0.028,23.7204612,12.3758928,2.0053530000000004,79.64689158,1.5469866,-8.48550798
1.56,156,-0.326,-1.1,-0.004,26.5279554,21.199446,-1.8907613999999997,79.92191142,1.59855282,-8.2792431
1.57,157,-0.337,-1.149,0.017,28.8770832,32.8877892,-5.3858052,80.21984957999999,1.70168526,-7.9641161999999985
1.58,158,-0.332,-1.1909999999999998,0.077,31.054323600000004,45.4355694,-8.479778399999999,80.54070606,1.85065434,-7.5286681200000025
1.59,159,-0.34600000000000003,-1.237,0.097,28.1895336,56.608250399999996,-11.45916,80.83864422,2.03973048,-6.990087599999999
1.6,160,-0.383,-1.3530000000000002,-0.336,14.495837400000001,64.8015498,-12.7196676,80.99334288,2.24599536,-6.37129296
1.61,161,-0.3,-1.515,-0.725,0.0,71.1613836,-7.2192707999999985,81.01053162,2.4064236,-5.683743359999999
1.62,162,-0.14400000000000002,-1.605,-0.684,-3.4377480000000005,67.1506776,2.1199446,80.99334288,2.46944898,-5.02484166
1.6300000000000001,163,0.029,-1.506,-0.499,-6.6463128000000005,69.041439,2.6356068,80.94750624,2.53247436,-4.34302164
1.6400000000000001,164,0.28300000000000003,-1.3259999999999998,-0.417,-6.8182002000000015,78.60983759999998,-3.724227,80.90166959999998,2.6699842800000004,-3.57525792
1.6500000000000001,165,0.368,-1.084,-0.298,-2.5210152000000003,84.91237559999998,-7.5630456000000015,80.89594002,2.87624916,-2.7501984
1.6600000000000001,166,0.341,-0.894,-0.238,0.6302538000000001,88.06364459999998,-9.9121734,80.93604708,3.08824362,-1.90222056
1.6700000000000002,167,0.261,-0.84,-0.243,4.297185,89.4387438,-9.1100322,81.0162612,3.2945085,-1.03705398
1.68,168,0.114,-0.8340000000000001,-0.264,7.448453999999999,89.7825186,-9.2819196,81.1308528,3.50077338,-0.16615782
1.69,169,0.019,-0.8490000000000001,-0.305,8.250595200000001,86.23017899999998,-11.45916,81.25117398,3.71849742,0.6589017
1.7,170,0.001,-0.861,-0.343,6.6463128000000005,80.3860074,-14.381245800000002,81.33711767999998,3.9534102,1.432395
1.71,171,0.052000000000000005,-0.8640000000000001,-0.366,5.2139178,72.82296179999999,-16.1001198,81.43452054,4.19978214,2.12567418
1.72,172,0.159,-0.8590000000000001,-0.37,4.4690724,67.1506776,-16.329303,81.51473466,4.44615408,2.76165756
1.73,173,0.299,-0.856,-0.345,4.6409598,61.9367598,-15.183387000000002,81.60067836,4.66387812,3.3518043
1.74,174,0.431,-0.89,-0.32,4.5263682,56.436363,-12.891555,81.68662206,4.858683839999999,3.88465524
1.75,175,0.547,-0.948,-0.28300000000000003,3.6669312000000014,51.2224452,-9.6256944,81.74391786,5.06494872,4.38885828
1.76,176,0.528,-1.025,-0.249,4.4117766,44.2896534,-6.875496000000001,81.81840240000002,5.1852699,4.81857678
1.77,177,0.454,-1.108,-0.222,5.2712136,35.2942128,-5.9014674000000005,81.89861652,5.2826727600000005,5.1566220000000005
1.78,178,0.327,-1.165,-0.209,5.5003968,27.9603504,-6.2452422,81.97883064,5.37434604,5.42591226
1.79,179,0.174,-1.199,-0.195,6.0733548,24.9809688,-8.3651868,82.05904475999998,5.48320806,5.66082504
1.8,180,0.047,-1.199,-0.16899999999999998,4.297185,25.0955604,-11.45916,82.12207014,5.6149884000000005,5.895737819999999
1.81,181,-0.054000000000000006,-1.145,-0.166,-0.8021411999999999,28.6479,-14.266654199999998,82.13352929999998,5.7868758,6.1592985
1.82,182,-0.076,-1.052,-0.166,-6.016058999999999,33.3461556,-15.469866,82.09915182,5.97595194,6.4686958200000015
1.83,183,-0.07400000000000001,-0.969,-0.16899999999999998,-9.797581800000001,38.67466500000001,-14.495837400000001,82.03039686,6.1592985,6.829659359999999
1.84,184,-0.029,-0.887,-0.153,-11.688343199999998,42.7426668,-12.2040054,81.95018274,6.3254563200000025,7.23645954
1.85,185,0.019,-0.823,-0.133,-13.6936962,46.065823200000004,-8.9381448,81.85277988,6.45723666,7.677637200000001
1.86,186,0.081,-0.792,-0.111,-13.980175199999998,49.388979600000006,-6.8182002000000015,81.75537702,6.57755784,8.15319234
1.87,187,0.136,-0.789,-0.08800000000000001,-13.6364004,51.1651494,-6.3598338,81.66943332,6.69787902,8.64593622
1.8800000000000001,188,0.172,-0.799,-0.07,-13.5791046,51.68081160000001,-6.3025379999999975,81.58348962,6.82392978,9.15013926
1.8900000000000001,189,0.197,-0.8009999999999999,-0.056,-14.037471,51.6235158,-5.6722842,81.49181634,6.93852138,9.64861272
1.9000000000000001,190,0.209,-0.7859999999999999,-0.035,-14.7250206,51.279741,-4.010706000000001,81.40587264,7.05311298,10.15281576
1.9100000000000001,191,0.195,-0.7609999999999999,-0.016,-15.0114996,50.0765292,-1.7188740000000002,81.30846978000002,7.12759752,10.64555964
1.9200000000000002,192,0.171,-0.716,-0.005,-16.2147114,49.388979600000006,0.0,81.19387818,7.1848933200000005,11.12684436
1.93,193,0.16,-0.669,0.004,-16.558486199999994,48.70143,0.286479,81.07928658,7.242189120000001,11.60812908
1.94,194,0.156,-0.643,0.013,-17.0168526,47.3836266,-0.1718874,80.95896540000003,7.305214500000001,12.07795464
1.95,195,0.165,-0.636,0.002,-15.870936600000002,46.352302200000004,-1.3178034,80.86156254,7.385428619999999,12.53059146
1.96,196,0.152,-0.642,-0.031,-14.8396122,45.1490904,-1.6615782,80.7584301,7.459913160000001,12.977498700000002
1.97,197,0.16399999999999998,-0.665,-0.047,-12.5477802,43.8885828,-0.2291832000000001,80.68394556000001,7.51720896,13.4072172
1.98,198,0.16899999999999998,-0.7070000000000001,-0.041,-8.193299399999999,43.0864416,1.8907613999999997,80.64956808000002,7.551586439999999,13.836935700000002
1.99,199,0.171,-0.774,-0.02,-3.8388186,43.0864416,4.6982556,80.66102724,7.5630456000000015,14.266654199999998
2.0,200,0.158,-0.862,-0.005,-0.9740286,44.5761324,7.7922288,80.72405262,7.551586439999999,14.7250206
2.01,201,0.138,-0.921,0.011,1.4896908000000002,47.269034999999995,11.229976800000001,80.79853716,7.505749800000001,15.212034899999995
2.02,202,0.116,-0.965,0.043,4.8128472,48.128471999999995,14.266654199999998,80.90739918,7.42553568,15.71050836
2.03,203,0.107,-0.986,0.073,8.4224826,47.0398518,17.3606274,81.05063868,7.3166736599999975,16.20325224
2.04,204,0.114,-0.98,0.08900000000000001,13.8082878,45.6647526,20.454600600000006,81.2454444,7.1734341599999984,16.68453696
2.05,205,0.145,-0.985,0.111,20.7410796,43.831287,23.14750320000001,81.53192340000003,7.00727634,17.1600921
2.0599999999999996,206,0.18,-1.023,0.154,26.814434400000003,42.4561878,25.2674478,81.85277988,6.812470620000001,17.6184585
2.07,207,0.244,-1.114,0.057,25.7258142,43.77399120000001,27.1582092,82.1621772,6.5947465800000025,18.08828406
2.0799999999999996,208,0.303,-1.325,-0.387,13.8655836,54.3164184,27.1582092,82.3627125,6.382752120000001,18.66124206
2.09,209,0.376,-1.551,-0.66,-3.2658606,78.1514712,22.2307704,82.40854913999998,6.2452422000000025,19.46338326
2.0999999999999996,210,0.35700000000000004,-1.7,-0.6940000000000001,-2.6929026,87.6052782,11.0580894,82.46011536,6.22805346,20.34573858
2.11,211,0.068,-1.69,-0.512,4.2398892,74.48454,0.572958,82.57470696,6.29680842,21.0848544
2.1199999999999997,212,-0.191,-1.5319999999999998,-0.279,3.2658606,61.6502808,-5.042030400000002,82.66638024,6.411400019999999,21.6864603
2.13,213,-0.197,-1.245,-0.062,5.042030400000002,52.3683612,-5.0993262,82.76951268,6.51453246,22.2021225
2.1399999999999997,214,-0.02,-1.054,-0.029,8.9954406,49.7327544,-1.432395,82.90702259999998,6.57755784,22.69486638
2.15,215,0.228,-0.995,-0.163,15.813640800000002,51.10785360000001,4.6982556,83.1075579,6.60047616,23.21052858
2.1599999999999997,216,0.465,-1.009,-0.317,24.2934192,51.7954032,12.4331886,83.40549606,6.525991620000001,23.74337952
2.17,217,0.5710000000000001,-1.002,-0.417,23.9496444,50.76407879999999,21.027558600000006,83.70343421999998,6.3598338000000005,24.27050088
2.1799999999999997,218,0.501,-0.964,-0.516,15.4125702,50.0192334,28.762491600000004,83.91542868,6.11919144,24.79762224000001
2.19,219,0.304,-0.904,-0.552,7.2192707999999985,52.19647379999999,32.658606,84.03574986,5.83844202,25.34766192
2.1999999999999997,220,0.037000000000000005,-0.84,-0.419,5.2712136,55.748813399999996,32.257535399999995,84.11023440000002,5.54623344,25.93780866
2.21,221,-0.209,-0.804,-0.293,3.724227,59.7022236,30.4813656,84.20190768,5.28840234,26.5566033
2.2199999999999998,222,-0.353,-0.805,-0.219,0.4010706,64.457775,28.7051958,84.25920348,5.05348956,27.22696416
2.23,223,-0.358,-0.843,-0.206,-3.8961144,72.5937786,25.0382646,84.27066264,4.85295426,27.96607998
2.2399999999999998,224,-0.282,-0.899,-0.192,-5.2139178,82.5632478,19.595163600000006,84.27639222,4.72117392,28.80259866
2.25,225,-0.19,-0.975,-0.17,-3.6669312000000014,92.819196,13.120738199999998,84.29358096,4.63523022,29.73079062
2.26,226,-0.084,-1.046,-0.171,-3.6096354,101.0124954,8.651665800000002,84.32795844,4.62377106,30.7391967
2.27,227,0.023,-1.105,-0.174,-2.6356068,105.4815678,9.740286,84.37379508000002,4.6008527400000006,31.79343942000001
2.28,228,0.135,-1.15,-0.181,-1.0313244,107.7733998,16.2147114,84.43109088,4.51490904,32.876330040000006
2.29,229,0.195,-1.151,-0.184,1.5469866,108.40365359999998,25.0382646,84.51703458,4.33729206,33.97067982
2.3,230,0.206,-1.113,-0.158,4.6409598,107.2004418,32.544014399999995,84.63162618,4.0966497,35.05930002
2.31,231,0.175,-1.072,-0.142,6.0733548,104.9659056,36.4974246,84.75194736,3.80444112,36.13073148
2.32,232,0.133,-1.03,-0.131,6.875496000000001,101.9292282,37.24227,84.87226854000002,3.4950437999999995,37.17351504
2.3299999999999996,233,0.111,-0.992,-0.119,5.958763200000001,99.694692,35.5806918,84.98113056000003,3.20283522,38.19338028
2.34,234,0.095,-0.964,-0.091,4.9274388,98.6633676,32.4294228,85.07280384,2.94500412,39.196056780000006
2.3499999999999996,235,0.092,-0.95,-0.07400000000000001,2.3491278,99.121734,28.1322378,85.13582922,2.72728008,40.19873328
2.36,236,0.084,-0.959,-0.076,-0.3437748,100.3249458,23.8923486,85.16447712,2.54393352,41.20713936
2.3699999999999997,237,0.077,-0.968,-0.049,-1.7761698,101.9292282,19.9962342,85.17593628,2.40069402,42.23273418
2.38,238,0.078,-0.996,-0.06,-4.010706000000001,103.5908064,16.501190400000002,85.16447712,2.29756158,43.26405858
2.3899999999999997,239,0.075,-1.003,-0.068,-4.9847345999999995,104.1637644,14.4385416,85.1415588,2.21161788,44.30684214
2.4,240,0.057,-1.003,-0.047,-3.6096354,105.3096804,14.32395,85.13009964,2.13140376,45.36108486
2.4099999999999997,241,0.036000000000000004,-0.989,-0.022,-2.86479,107.143146,17.4179232,85.12437006,2.01681216,46.43251632
2.42,242,0.006999999999999999,-0.961,-0.014,-2.1772404,108.575541,21.829699800000004,85.12437006,1.8621135,47.521136520000006
2.4299999999999997,243,-0.016,-0.941,0.0,-1.3178034,109.20579479999999,26.298772200000002,85.13009964,1.6615782,48.62121588000001
2.44,244,-0.01,-0.932,0.008,-0.286479,110.2371192,30.4813656,85.14728838,1.42666542,49.7327544
2.4499999999999997,245,0.009000000000000001,-0.924,-0.001,0.6302538000000001,111.2684436,32.658606,85.16447712,1.16310474,50.85575208
2.46,246,0.045,-0.904,-0.005,1.9480572,111.84140159999998,31.79916900000001,85.19312502,0.91100322,51.99020892
2.4699999999999998,247,0.091,-0.861,-0.004,3.6096354,111.49762679999999,28.7051958,85.23323208,0.6875496,53.1132066
2.48,248,0.108,-0.809,0.014,4.8701430000000006,109.2630906,25.3247436,85.27906872,0.4984734599999999,54.21328595999999
2.4899999999999998,249,0.092,-0.764,0.011,4.7555514,103.4762148,22.0015872,85.31917578,0.33804522,55.25033994
2.5,250,0.053,-0.726,-0.002,4.1825934,98.2050012,20.9702628,85.35928284,0.18334656,56.2358277
2.51,251,0.01,-0.705,-0.005,3.8961144,95.2256196,21.0848544,85.38793074,0.02291832,57.19266756
2.52,252,-0.027000000000000003,-0.715,-0.002,4.2398892,94.3661826,21.8869956,85.41657864,-0.13750992,58.14377784
2.53,253,-0.062,-0.753,0.011,5.6149884000000005,95.6266902,22.6891368,85.45668570000002,-0.31512690000000004,59.10634728
2.54,254,-0.09,-0.815,0.021,7.161975,99.3509172,22.91832,85.50825191999998,-0.4870143000000001,60.10329420000001
2.55,255,-0.121,-0.884,0.056,8.307891,105.8826384,21.8869956,85.57700688,-0.66463128,61.16899608
2.56,256,-0.171,-0.977,0.073,7.2192707999999985,113.84675459999998,19.194093,85.62284352,-0.79641162,62.3091825
2.57,257,-0.21,-1.11,-0.098,-2.86479,124.61836499999998,14.037471,85.55981814,-0.87662574,63.54677177999999
2.5799999999999996,258,-0.136,-1.277,-0.304,-11.6310474,134.931609,10.5424272,85.39938989999997,-0.91100322,64.88749349999999
2.59,259,0.021,-1.466,-0.422,-17.7044022,140.4320058,8.9954406,85.18166586000002,-0.92819196,66.27978144
2.5999999999999996,260,0.16,-1.6,-0.409,-22.86102420000001,135.16079219999997,8.4224826,84.90664602000003,-0.93392154,67.61477357999999
2.61,261,0.276,-1.597,-0.385,-26.642547,129.3166206,6.016058999999999,84.59724870000002,-0.91100322,68.8981995
2.6199999999999997,262,0.396,-1.459,-0.366,-24.1788276,128.2852962,0.7448454000000001,84.31649927999999,-0.83651868,70.15870709999999
2.63,263,0.434,-1.262,-0.218,-18.162768600000003,127.8269298,-4.4690724,84.09877524000002,-0.69900876,71.41348512
2.6399999999999997,264,0.429,-1.058,-0.114,-17.4179232,128.22800039999998,-9.2819196,83.88678078000002,-0.5099326200000001,72.66826314
2.65,265,0.334,-0.948,-0.09,-16.7303736,131.9522274,-12.032117999999999,83.69197505999998,-0.26929026,73.95741863999999
2.6599999999999997,266,0.232,-0.918,-0.094,-14.7823164,135.1034964,-9.9121734,83.52008766,-0.06302537999999999,75.27522203999997
2.67,267,0.16699999999999998,-0.92,-0.071,-13.750992000000002,135.6191586,-6.589017,83.35965941999999,0.11459160000000004,76.60448459999998
2.6799999999999997,268,0.159,-0.918,-0.087,-17.7044022,134.12946780000001,-2.7501984,83.16485370000002,0.25783110000000004,77.91655842
2.69,269,0.211,-0.901,-0.124,-21.6578124,130.11876180000002,0.11459160000000004,82.9356705,0.3724227000000001,79.19425475999998
2.6999999999999997,270,0.29,-0.914,-0.153,-22.5745452,123.2432658,2.3491278,82.69502814,0.4870143000000001,80.41465529999998
2.71,271,0.383,-0.962,-0.154,-21.829699800000004,115.5083328,4.5263682,82.47157452,0.55576926,81.55484172
2.7199999999999998,272,0.462,-1.02,-0.119,-20.8556712,108.40365359999998,6.6463128000000005,82.25385048,0.6016058999999999,82.62627318
2.73,273,0.496,-1.048,-0.094,-20.05353,99.408213,9.1100322,82.04758559999998,0.61879464,83.61176094
2.7399999999999998,274,0.461,-1.028,-0.073,-18.621135,92.8764918,10.255948199999999,81.85850946000002,0.61879464,84.53422332
2.75,275,0.395,-0.989,-0.063,-16.615782,87.94905299999998,10.1413566,81.69235164,0.64744254,85.41657864
2.76,276,0.31,-0.971,-0.062,-13.9228794,83.53727640000002,9.6256944,81.54911214,0.64744254,86.25309732000002
2.77,277,0.22,-0.97,-0.047,-10.5424272,79.75575359999998,9.6256944,81.44025012,0.64744254,87.04950894
2.78,278,0.136,-0.972,-0.013,-6.5317212,76.8336678,10.6570188,81.37149516,0.63598338,87.81727266
2.79,279,0.076,-0.963,0.022,-3.0939732,75.5731602,11.745639,81.33711767999998,0.6073354799999999,88.57357721999998
2.8,280,0.056,-0.926,0.052000000000000005,-0.4583664000000001,75.74504759999998,12.2040054,81.34857683999998,0.5844171599999999,89.34134094
2.81,281,0.069,-0.899,0.063,2.578311,76.03152659999998,12.318597,81.37149516,0.55576926,90.10337508
2.82,282,0.099,-0.879,0.05,3.4377480000000005,77.0055552,12.9488508,81.40587264,0.52139178,90.87686838
2.8299999999999996,283,0.13699999999999998,-0.858,0.036000000000000004,4.6982556,77.6931048,14.4385416,81.45170928,0.47555514,91.66182084
2.84,284,0.174,-0.8390000000000001,0.03,6.130650599999999,77.80769640000003,16.501190400000002,81.50900508000002,0.40680018,92.45250288
2.8499999999999996,285,0.202,-0.8220000000000001,0.025,7.2765666,77.2920342,18.2773602,81.5892192,0.33804522,93.24318492
2.86,286,0.21,-0.812,0.032,8.3651868,76.77637200000002,19.480572,81.66943332,0.24064236,94.0224078
2.8699999999999997,287,0.211,-0.81,0.037000000000000005,9.2819196,77.062851,19.767051,81.75537702,0.13178034,94.80736026
2.88,288,0.197,-0.812,0.053,10.255948199999999,78.6671334,19.7097552,81.85277988,0.028647900000000007,95.60950146
2.8899999999999997,289,0.177,-0.8170000000000001,0.053,10.9434978,82.62054359999998,19.4232762,81.95018274,-0.06302537999999999,96.45174972
2.9,290,0.157,-0.818,0.046,11.0007936,87.089616,18.907614000000002,82.06477434,-0.13750992,97.33410504
2.9099999999999997,291,0.14,-0.8190000000000001,0.03,10.599723,90.8711388,18.334656,82.15644762000002,-0.21772404,98.25083784
2.92,292,0.131,-0.818,0.011,10.4851314,93.8505204,18.2773602,82.2481209,-0.29793816,99.20194812
2.9299999999999997,293,0.134,-0.821,-0.003,11.4018642,95.7412818,18.7930224,82.34552376,-0.37815228,100.17024714
2.94,294,0.156,-0.826,-0.026,12.3758928,96.8871978,19.7097552,82.4486562,-0.47555514,101.15000532
2.9499999999999997,295,0.185,-0.823,-0.024,14.152062599999999,97.0590852,19.9962342,82.58043654000002,-0.55576926,102.1297635
2.96,296,0.218,-0.83,-0.011,15.469866,96.8871978,19.595163600000006,82.71221688,-0.64744254,103.10952168
2.9699999999999998,297,0.242,-0.841,-0.002,17.5325148,96.6007188,19.1367972,82.86691554,-0.7448454000000001,104.08927986
2.98,298,0.26,-0.8420000000000001,0.006,20.05353,95.5120986,18.162768600000003,83.04453251999998,-0.8307891,105.0518493
2.9899999999999998,299,0.279,-0.8390000000000001,0.014,23.0902074,93.392154,16.8449652,83.25079740000002,-0.91100322,105.99150042
3.0,300,0.28600000000000003,-0.8220000000000001,0.022,26.5279554,89.38144799999998,14.7250206,83.50289891999998,-0.95111028,106.89677406
3.01,301,0.284,-0.794,0.057,29.67922440000001,86.51665799999998,11.5737516,83.77791876,-0.9912173399999998,107.76767022
3.02,302,0.29,-0.7979999999999999,0.032,29.7365202,84.1675302,9.1100322,84.05293859999998,-1.01413566,108.60991848
3.03,303,0.3,-0.799,-0.01,30.0229992,81.64651500000002,7.6776372,84.33368802,-1.0255948199999998,109.42351884
3.04,304,0.324,-0.816,-0.006999999999999999,32.6013102,78.49524600000002,6.760904399999999,84.64308534,-1.03705398,110.2084713
3.05,305,0.355,-0.846,-0.031,31.79916900000001,73.911582,5.3285094000000015,84.9410235,-1.00840608,110.95331670000002
3.06,306,0.377,-0.889,-0.081,27.3300966,70.24465079999999,3.3231564,85.19885459999998,-0.9969469199999998,111.65232546
3.07,307,0.3670000000000001,-0.977,-0.152,21.027558600000006,66.3485364,0.8594370000000001,85.39366032000002,-0.96829902,112.31122716
3.08,308,0.344,-1.065,-0.201,13.6364004,62.5097178,-3.0366774,85.5139815,-0.90527364,112.92429222
3.09,309,0.327,-1.161,-0.236,4.8128472,58.67089920000001,-8.8235532,85.54262940000002,-0.7849524600000001,113.5029798
3.0999999999999996,310,0.297,-1.228,-0.264,-4.8701430000000006,54.7747848,-16.7876694,85.46814486,-0.5786875800000001,114.03010116
3.11,311,0.271,-1.247,-0.271,-16.4438946,51.5089242,-25.7258142,85.29052787999998,-0.29793816,114.51711546
3.1199999999999997,312,0.2,-1.154,-0.192,-21.2567418,48.128471999999995,-36.2109456,85.06707426,0.08021412,114.95829312
3.13,313,0.121,-1.001,-0.105,-26.298772200000002,47.4409224,-46.4668938,84.79205442,0.56722842,115.38801162
3.1399999999999997,314,0.066,-0.831,-0.076,-32.6013102,52.6548402,-52.3683612,84.45973878,1.1172681,115.85783718
3.15,315,0.022,-0.682,-0.03,-36.32553720000001,56.5509546,-53.39968560000001,84.09877524000002,1.6787669399999998,116.35631064
3.1599999999999997,316,0.016,-0.568,-0.021,-39.534102,55.576926,-45.0917946,83.7091638,2.1657812400000003,116.8547841
3.17,317,0.043,-0.535,-0.027000000000000003,-37.3568616,51.7381074,-27.215505,83.3367411,2.47517856,117.33033924
3.1799999999999997,318,0.03,-0.602,-0.062,-32.7731976,48.7587258,-4.1825934,83.0216142,2.55539268,117.80589438
3.19,319,0.011,-0.752,-0.112,-29.220858000000003,50.1911208,17.589810600000003,82.74086478000002,2.42934192,118.31582699999998
3.1999999999999997,320,-0.023,-0.986,-0.003,-20.9702628,51.9672906,32.8877892,82.55751822,2.1485925000000003,118.87159626
3.21,321,-0.056,-1.263,0.114,-15.813640800000002,50.47759979999999,37.2995658,82.40854913999998,1.8334656000000005,119.41590635999998
3.2199999999999998,322,-0.08900000000000001,-1.423,0.204,-13.464512999999998,54.3164184,31.054323600000004,82.28249838,1.5813640800000002,119.98886436
3.23,323,-0.135,-1.456,0.22,-11.1153852,64.97343719999999,19.7097552,82.17936594,1.45531332,120.64776605999998
3.2399999999999998,324,-0.227,-1.3019999999999998,0.237,-4.2398892,73.73969459999998,6.589017,82.14498846000002,1.47250206,121.38115229999998
3.25,325,-0.239,-1.156,0.277,4.9274388,80.5578948,-0.8021411999999999,82.23666174,1.5469866,122.1832935
3.26,326,-0.189,-1.0659999999999998,0.292,8.479778399999999,86.63124959999998,-0.9167328,82.33406459999998,1.64438946,123.03700092
3.27,327,-0.122,-0.976,0.279,8.078707799999998,93.2775624,2.1199446,82.43146746,1.7246035799999997,123.9594633
3.28,328,-0.045,-0.878,0.31,11.6310474,98.4914802,6.760904399999999,82.56897738,1.75898106,124.93349189999999
3.29,329,0.014,-0.7440000000000001,0.365,16.7303736,106.2264132,9.5111028,82.75805352,1.77044022,125.9934642
3.3,330,0.051,-0.627,0.38,17.9335854,109.8360486,8.8235532,82.99296629999998,1.7933585399999998,127.09927314
3.31,331,0.083,-0.534,0.402,22.631841,111.3830352,5.958763200000001,83.23933824000002,1.83919518,128.20508208
3.32,332,0.096,-0.455,0.424,25.8977016,111.72681,1.432395,83.52581724,1.92513888,129.31089102
3.33,333,0.059,-0.405,0.438,27.043617600000005,111.84140159999998,-3.3231564,83.82375540000002,2.05118964,130.41097038
3.34,334,0.0,-0.379,0.4270000000000001,28.4187168,112.7581344,-7.448453999999999,84.13888229999998,2.21161788,131.52250890000002
3.3499999999999996,335,-0.053,-0.416,0.4,30.252182399999995,114.5916,-10.4278356,84.50557542,2.39496444,132.65696573999998
3.36,336,-0.096,-0.5,0.406,31.4553942,117.05531940000002,-12.7769634,84.86080938,2.6012293200000003,133.80288174
3.3699999999999997,337,-0.11,-0.615,0.413,28.8770832,121.2952086,-13.750992000000002,85.19312502,2.8074942000000003,134.99463438
3.38,338,-0.094,-0.7390000000000001,0.388,23.14750320000001,124.44647759999998,-11.745639,85.47387444,2.99084076,136.21503492
3.3899999999999997,339,-0.051,-0.8370000000000001,0.36,19.0222056,128.22800039999998,-7.7349330000000025,85.7145168,3.13408026,137.48127209999998
3.4,340,-0.01,-0.926,0.314,17.3606274,133.5565098,-4.1825934,85.9723479,3.2314831199999987,138.80480508
3.4099999999999997,341,0.017,-1.004,0.205,13.9228794,141.5779218,-2.6356068,86.17288319999999,3.31742682,140.20855218
3.42,342,0.049,-1.055,0.01,3.2085648,153.6673356,-2.4064236,86.27601564,3.39764094,141.72689087999996
3.4299999999999997,343,0.116,-1.048,-0.209,-9.453807000000001,162.6054804,-2.1772404,86.25309732000002,3.48358464,143.33117327999997
3.44,344,0.194,-0.977,-0.382,-16.329303,163.5222132,1.2032118,86.16715362,3.52942128,144.95264442
3.4499999999999997,345,0.255,-0.905,-0.417,-15.4125702,155.04243480000005,13.750992000000002,86.06402118000004,3.4663959,146.49390144
3.46,346,0.389,-0.8420000000000001,-0.4270000000000001,-23.14750320000001,147.1929102,31.111619399999995,85.89213378,3.214294380000001,147.96640349999996
3.4699999999999998,347,0.51,-0.787,-0.565,-36.8411994,129.7176912,50.0192334,85.57127729999998,2.7788463,149.27847732
3.48,348,0.5920000000000001,-0.7290000000000001,-0.713,-44.117766,104.851314,63.7702254,85.15874754000002,2.19442914,150.36136793999995
3.4899999999999998,349,0.6970000000000001,-0.716,-0.667,-35.4088044,76.0888224,69.15603060000001,84.81497274,1.5527161800000002,151.16923872
3.5,350,0.8640000000000001,-0.877,-0.563,-21.6005166,53.5142772,61.87946400000001,84.59151912,1.0026765,151.75365588
3.51,351,0.988,-1.223,-0.461,-10.599723,37.8725238,42.685371,84.4826571,0.6016058999999999,152.16618564
3.52,352,0.79,-1.643,-0.201,-1.8334656000000005,27.6165756,18.6784308,84.46546836,0.43544808,152.45266464000005
3.53,353,0.354,-1.832,-0.07400000000000001,-1.0313244,22.9756158,-1.8907613999999997,84.4540092,0.47555514,152.67611826
3.54,354,0.015,-1.85,-0.041,-2.86479,25.78311,-14.32395,84.41963172,0.6302538000000001,152.91676062
3.55,355,-0.195,-1.843,0.145,0.8021411999999999,34.4920716,-20.798375399999998,84.43109088,0.8594370000000001,153.24334668
3.56,356,-0.281,-1.781,0.308,0.286479,49.560867,-19.5378678,84.43682046,1.0886202,153.71317224
3.57,357,-0.274,-1.713,0.329,-6.417129599999999,69.2706222,-10.1413566,84.37379508000002,1.2318597,154.3835331
3.58,358,-0.238,-1.654,0.332,-14.32395,86.97502440000002,0.4010706,84.23628516,1.2891555000000001,155.24297009999995
3.59,359,-0.155,-1.577,0.292,-20.7410796,100.2103542,6.130650599999999,84.03574986,1.30061466,156.23418744
3.5999999999999996,360,-0.024,-1.429,0.212,-24.2361234,108.9193158,5.3285094000000015,83.81229624,1.32926256,157.31134848
3.61,361,0.083,-1.269,0.177,-20.8556712,113.1019092,-0.8594370000000001,83.61176094,1.42666542,158.422887
3.6199999999999997,362,0.159,-1.133,0.156,-16.959556799999998,110.7527814,-6.875496000000001,83.45133270000002,1.5870936600000003,159.50577761999998
3.63,363,0.262,-0.997,0.165,-13.178034,105.710751,-11.45916,83.33101152,1.7933585399999998,160.53137243999996
3.6399999999999997,364,0.381,-0.845,0.163,-12.032117999999999,98.2050012,-12.2040054,83.22787908000002,1.99962342,161.4882123
3.65,365,0.475,-0.7,0.151,-9.3392154,86.8604328,-9.2819196,83.17631286,2.22307704,162.34191972
3.6599999999999997,366,0.531,-0.5710000000000001,0.177,-3.4950437999999995,73.45321560000002,-4.7555514,83.15912412,2.3376686399999995,163.05811722
3.67,367,0.546,-0.477,0.225,3.5523396000000003,58.0979412,-0.5156622000000001,83.21069034,2.39496444,163.63107522
3.6799999999999997,368,0.505,-0.433,0.255,8.5370742,44.34694920000001,2.0626488000000003,83.3080932,2.41215318,164.07225288
3.69,369,0.428,-0.458,0.213,14.037471,30.93973200000001,1.8334656000000005,83.46279186000002,2.42361234,164.38165020000002
3.6999999999999997,370,0.341,-0.505,0.188,20.7410796,25.6112226,0.8021411999999999,83.7091638,2.47517856,164.65094046
3.71,371,0.26,-0.584,0.199,29.0489706,22.4026578,0.8594370000000001,84.01283154000002,2.48663772,164.87439408
3.7199999999999998,372,0.193,-0.655,0.217,35.2942128,21.2567418,2.4064236,84.37952466,2.48090814,165.09211812
3.73,373,0.14,-0.7120000000000001,0.205,39.1330314,21.772404,5.958763200000001,84.78059526000001,2.44080108,165.31557174000002
3.7399999999999998,374,0.107,-0.7609999999999999,0.173,42.05511720000001,23.2620948,10.4851314,85.21604334,2.35485738,165.55621409999995
3.75,375,0.08800000000000001,-0.818,0.152,44.690724,25.9549974,14.495837400000001,85.70305764,2.2345362,165.83696351999995
3.76,376,0.069,-0.877,0.129,45.4928652,28.4760126,17.589810600000003,86.17288319999999,2.07983754,166.13490167999996
3.77,377,0.037000000000000005,-0.909,0.097,46.065823200000004,31.111619399999995,18.7930224,86.64843834,1.90795014,166.45575816000004
3.78,378,0.021,-0.895,0.07200000000000001,45.9512316,33.403451399999994,17.303331600000003,87.1182639,1.7475218999999995,166.79953296
3.79,379,0.037000000000000005,-0.823,0.084,45.779344200000004,35.2942128,13.0634424,87.59381904,1.6272007199999998,167.16049650000005
3.8,380,0.075,-0.742,0.083,43.48751220000001,35.52339600000001,5.6149884000000005,88.04645586000002,1.5870936600000003,167.52146004
3.81,381,0.112,-0.6859999999999999,0.028,36.2682414,34.60666320000001,-2.9220857999999996,88.41887856000002,1.62147114,167.86523484
3.82,382,0.139,-0.659,-0.073,26.642547,34.4920716,-10.3705398,88.69389840000002,1.7246035799999997,168.20900964
3.83,383,0.118,-0.65,-0.188,14.5531332,34.8931422,-16.272007199999994,88.84859706,1.88503182,168.55278444
3.84,384,0.064,-0.625,-0.249,6.130650599999999,34.8358464,-20.6837838,88.91735202,2.0912967,168.89655924000004
3.8499999999999996,385,-0.01,-0.625,-0.265,-2.4637194,29.7365202,-24.2934192,88.8657858,2.3204799,169.18303824
3.86,386,-0.025,-0.628,-0.256,-10.5424272,25.8977016,-27.8457588,88.76265336,2.59549974,169.43513976
3.8699999999999997,387,0.004,-0.69,-0.262,-17.0741484,27.5592798,-30.4813656,88.59649553999998,2.8934379,169.69870043999995
3.88,388,0.013,-0.833,-0.276,-19.6524594,31.79916900000001,-28.6479,88.40741940000002,3.1799169000000003,170.00236818
3.8899999999999997,389,-0.011,-1.04,-0.272,-23.032911600000002,37.7006364,-22.6891368,88.18969536,3.40337052,170.36906130000003
3.9,390,-0.056,-1.252,-0.29,-26.356068,44.1750618,-13.750992000000002,87.92613467999998,3.52942128,170.79877979999995
3.9099999999999997,391,-0.119,-1.43,-0.212,-23.9496444,43.9458786,-2.578311,87.70841064,3.5580691799999995,171.2284983
3.92,392,-0.149,-1.58,-0.021,-22.5172494,35.6379876,8.136003599999999,87.49641618000004,3.48358464,171.58373225999995
3.9299999999999997,393,-0.08199999999999999,-1.734,0.078,-27.788463,23.6631654,11.3445684,87.22139634,3.3689930400000003,171.82437462
3.94,394,0.009000000000000001,-1.909,0.195,-24.9809688,23.835052800000003,3.8961144,86.98075398,3.33461556,172.05928740000004
3.9499999999999997,395,0.084,-1.903,0.199,-20.9702628,30.9970278,-10.4278356,86.78594826,3.44347758,172.35722556000005
3.96,396,0.098,-1.784,0.129,-14.381245800000002,31.22621100000001,-22.8037284,86.64843834,3.67839036,172.64943413999995
3.9699999999999998,397,0.166,-1.608,0.118,-5.1566220000000005,21.9442914,-26.41336380000001,86.60833127999999,3.94768062,172.85569902
3.98,398,0.29,-1.492,0.16,2.9220857999999996,11.9748222,-17.475219,86.64270875999998,4.1252976000000015,172.96456103999995
3.9899999999999998,399,0.35700000000000004,-1.416,0.224,2.9793816000000004,3.9534102,-1.4896908000000002,86.67708624000002,4.14248634,173.00466809999998
4.0,400,0.281,-1.345,0.199,-3.380452200000001,0.4583664000000001,16.272007199999994,86.66562708000002,3.99351726,173.02185684
4.01,401,0.091,-1.305,0.132,-5.6149884000000005,0.572958,28.1895336,86.60833127999999,3.71276784,173.03904558
4.02,402,-0.114,-1.251,0.133,-3.0939732,4.9847345999999995,27.6738714,86.57968338,3.4377480000000005,173.10780054
4.03,403,-0.261,-1.149,0.155,1.432395,12.318597,21.9442914,86.60260170000002,3.2257535399999995,173.23958088
4.04,404,-0.337,-1.007,0.17600000000000002,2.1199446,22.2307704,13.750992000000002,86.63124959999998,3.0997027800000003,173.46876408
4.05,405,-0.318,-0.835,0.19,3.3231564,33.3461556,2.6356068,86.73438204,3.0080295,173.82399804000005
4.06,406,-0.232,-0.684,0.227,5.72958,43.9458786,-9.9121734,86.80886658,3.11689152,174.25371654
4.07,407,-0.122,-0.589,0.262,10.1986524,52.425657,-19.9962342,86.93491734,3.32888598,174.76364916
4.08,408,-0.02,-0.5670000000000001,0.282,16.673077799999998,57.6968706,-23.777757,87.12972306,3.5809875,175.32514799999996
4.09,409,0.018000000000000002,-0.605,0.28600000000000003,22.631841,61.134618599999996,-19.3659804,87.38755416000002,3.78725238,175.92675390000005
4.1,410,0.016,-0.648,0.259,25.210152,62.738901,-11.917526400000002,87.70268106,3.91330314,176.55127812
4.109999999999999,411,-0.027000000000000003,-0.682,0.233,26.814434400000003,63.5410422,-4.8128472,88.01207838,3.97059894,177.18153192
4.12,412,-0.08199999999999999,-0.71,0.22,26.5279554,64.8588456,0.572958,88.31574612,3.97059894,177.82897445999996
4.13,413,-0.134,-0.731,0.149,24.0069402,66.6350154,3.724227,88.59649553999998,3.93622146,178.49360574
4.14,414,-0.141,-0.73,0.118,23.2620948,70.473834,3.7815227999999994,88.87151537999998,3.896114400000001,179.1926145
4.1499999999999995,415,-0.127,-0.742,0.117,24.4080108,75.343977,2.0053530000000004,89.17518312,3.85027776,179.94891906
4.16,416,-0.093,-0.762,0.126,25.3247436,78.09417540000003,0.572958,89.47312128,3.83308902,-179.26709904
4.17,417,-0.049,-0.77,0.123,23.7204612,77.2920342,0.6875496,89.75387070000002,3.810170700000002,-178.49933532
4.18,418,0.0,-0.76,0.07200000000000001,18.6784308,73.10944079999999,2.2345362,89.98305390000002,3.77006364,-177.77167866
4.1899999999999995,419,0.086,-0.76,-0.038,6.130650599999999,70.07276340000001,4.3544808,90.08045676,3.70703826,-177.07839947999997
4.2,420,0.22,-0.7340000000000001,-0.172,-9.1100322,65.7182826,7.7922288,89.98878348,3.6382833,-176.43095694
4.21,421,0.338,-0.696,-0.241,-14.495837400000001,55.1758554,12.6623718,89.8684623,3.50077338,-175.88664684
4.22,422,0.424,-0.6990000000000001,-0.21,-11.5737516,46.8106686,18.162768600000003,89.77678902,3.3059676599999994,-175.42828043999995
4.2299999999999995,423,0.442,-0.762,-0.153,-12.2040054,43.831287,26.5279554,89.66792699999998,3.03094782,-174.99283236000005
4.24,424,0.366,-0.91,-0.211,-15.6417534,37.1276784,37.9871154,89.5246875,2.64706596,-174.62613924
4.25,425,0.237,-1.054,-0.272,-17.9335854,21.6578124,48.8160216,89.3241522,2.17151082,-174.40841519999995
4.26,426,0.174,-1.256,-0.268,-19.194093,10.5424272,51.9099948,89.12934648,1.65011904,-174.30528276
4.27,427,0.252,-1.414,-0.293,-26.929026,4.5263682,46.00852740000001,88.86005622,1.19175264,-174.25371654
4.28,428,0.3720000000000001,-1.521,-0.275,-29.5646328,-4.0680017999999984,29.9657034,88.55638848,0.8880849000000001,-174.29382360000002
4.29,429,0.505,-1.626,-0.173,-25.3820394,-8.8235532,9.3392154,88.29855738,0.79641162,-174.37976730000003
4.3,430,0.628,-1.662,-0.096,-15.126091199999998,-9.224623800000002,-6.5317212,88.14385872,0.87089616,-174.47717016
4.31,431,0.606,-1.652,0.08800000000000001,9.3965112,-7.448453999999999,-15.5844576,88.24126158,1.0255948199999998,-174.55165469999997
4.32,432,0.252,-1.695,0.282,30.080295,1.2032118,-17.6471064,88.54492932000002,1.2032117999999998,-174.54019554
4.33,433,-0.139,-1.747,0.422,34.4347758,26.069589,-18.6784308,88.90016328,1.39228794,-174.28236443999995
4.34,434,-0.471,-1.7180000000000002,0.495,28.2468294,53.858052,-20.2254174,89.19237186000002,1.5870936600000003,-173.74951349999995
4.35,435,-0.609,-1.56,0.494,17.475219,71.8489332,-18.9649098,89.38717758,1.75325148,-173.03904558
4.36,436,-0.5539999999999999,-1.3530000000000002,0.436,4.0680017999999984,83.4799806,-14.037471,89.44447338,1.87930224,-172.21398606
4.37,437,-0.381,-1.205,0.353,-7.906820400000001,93.4494498,-7.8495246,89.38144799999998,1.94232762,-171.29152368
4.38,438,-0.15,-1.154,0.278,-15.126091199999998,101.4708618,-2.6929026,89.24966766,1.9480572000000005,-170.28884718
4.39,439,0.084,-1.116,0.21600000000000005,-18.048177,102.3302988,-0.4583664000000001,89.08923942,1.94232762,-169.27471152
4.3999999999999995,440,0.359,-1.037,0.168,-18.3919518,97.0590852,-0.572958,88.93454076,1.97097552,-168.31787165999995
4.41,441,0.542,-0.978,0.123,-19.5378678,85.1988546,-1.8907613999999997,88.7511942,1.98243468,-167.47562340000005
4.42,442,0.667,-0.919,0.106,-19.938938399999998,70.9894962,-3.2658606,88.56211806,2.01108258,-166.77661464
4.43,443,0.672,-0.878,0.095,-22.4026578,57.1812084,-3.4950437999999995,88.35012359999996,2.04546006,-166.2151158
4.4399999999999995,444,0.594,-0.838,0.043,-23.9496444,46.29500640000001,-2.578311,88.11521081999999,2.06837838,-165.76247898000003
4.45,445,0.464,-0.792,0.01,-20.5691922,38.61736920000001,-0.9167328,87.91467551999996,2.16005166,-165.37859712
4.46,446,0.332,-0.74,0.016,-13.5791046,33.231564,0.4010706,87.78862475999998,2.15432208,-165.05201105999996
4.47,447,0.194,-0.6809999999999999,0.037000000000000005,-7.0473834,29.793816,0.9740286,87.7198698,2.1485925000000003,-164.75407289999995
4.4799999999999995,448,0.044,-0.607,0.087,1.6042823999999998,27.9603504,0.1718874,87.74278812,2.1485925000000003,-164.47905306
4.49,449,-0.056,-0.5720000000000001,0.153,13.980175199999998,28.5333084,-0.9740286,87.8917572,2.1657812400000003,-164.19257406
4.5,450,-0.123,-0.581,0.254,23.9496444,31.3980984,-0.8594370000000001,88.18396578000002,2.15432208,-163.87171758
4.51,451,-0.14800000000000002,-0.655,0.301,28.1895336,36.03905820000001,2.0626488000000003,88.48190394,2.13713334,-163.51075404
4.52,452,-0.129,-0.7490000000000001,0.269,27.215505,43.6021038,7.333862400000001,88.76838294000002,2.0626488000000003,-163.07530595999995
4.53,453,-0.077,-0.816,0.229,25.496631,50.8786704,13.407217200000002,89.03767320000001,1.93086846,-162.56537334
4.54,454,-0.005,-0.8290000000000001,0.222,22.9756158,55.80610920000001,18.2773602,89.28404514,1.74179232,-162.00960408
4.55,455,0.054000000000000006,-0.8079999999999999,0.215,18.2200644,59.53033620000001,20.1108258,89.50176918,1.5412570200000002,-161.41372776
4.56,456,0.091,-0.77,0.183,11.9748222,64.5723666,18.162768600000003,89.62781994000002,1.3464512999999998,-160.7720148
4.57,457,0.092,-0.738,0.17,8.59437,70.0154676,12.318597,89.71949322,1.20894138,-160.07873562
4.58,458,0.083,-0.722,0.162,8.250595200000001,72.25000379999999,5.844171599999999,89.8111665,1.13445684,-159.36253812
4.59,459,0.07,-0.713,0.133,6.760904399999999,72.3645954,0.4010706,89.88565104,1.11153852,-158.64634062
4.6,460,0.066,-0.696,0.064,5.6149884000000005,71.33327100000002,-3.7815227999999994,89.94867642,1.14018642,-157.94160227999996
4.61,461,0.071,-0.669,-0.027000000000000003,6.9327918,68.01011460000001,-6.990087599999999,90.02316096,1.19175264,-157.27124142
4.62,462,0.07400000000000001,-0.631,-0.086,5.2139178,61.1919144,-9.6829902,90.08045676,1.27196676,-156.66390594
4.63,463,0.069,-0.591,-0.193,3.151269,56.3790672,-13.8655836,90.12056382,1.39228794,-156.1024071
4.64,464,0.035,-0.521,-0.266,1.7188740000000002,52.425657,-21.5432208,90.14348214,1.59282324,-155.5867449
4.6499999999999995,465,-0.001,-0.495,-0.28600000000000003,0.2291832000000001,49.61816279999999,-28.8770832,90.12056382,1.8621135,-155.09400102
4.66,466,-0.037000000000000005,-0.517,-0.231,-6.0733548,49.1025006,-33.804522,90.06899759999996,2.18296998,-154.60698672
4.67,467,-0.005,-0.59,-0.188,-18.334656,58.0979412,-37.0130868,89.8971102,2.53247436,-154.03402871999995
4.68,468,0.053,-0.731,-0.172,-29.392745399999995,72.30729960000002,-38.90384820000001,89.62209035999999,2.89916748,-153.31783122
4.6899999999999995,469,0.032,-0.985,-0.166,-38.61736920000001,80.8443738,-38.7319608,89.26112682,3.2658606,-152.52714917999995
4.7,470,-0.032,-1.366,-0.236,-48.3003594,87.31879920000002,-37.81522800000001,88.80276042,3.62682414,-151.67344176
4.71,471,-0.115,-1.788,-0.234,-51.9099948,95.1683238,-36.8411994,88.32720528,3.9820580999999997,-150.74524979999995
4.72,472,-0.212,-1.967,-0.018000000000000002,-36.38283300000001,95.4548028,-33.403451399999994,88.01207838,4.320103319999999,-149.81132825999995
4.7299999999999995,473,-0.136,-1.848,0.081,-22.86102420000001,90.5846598,-28.8770832,87.83446140000002,4.612311900000001,-148.92324336
4.74,474,0.0,-1.6780000000000002,0.07200000000000001,-15.527161800000002,95.85587340000001,-25.6685184,87.74278812,4.87587258,-147.98359224
4.75,475,0.099,-1.548,0.067,-0.9740286,100.3822416,-23.204799,87.8058135,5.11651494,-146.99810448
4.76,476,0.139,-1.527,0.08,11.5737516,92.4754212,-20.340009,87.99488964000004,5.3285094000000015,-146.08710126
4.77,477,0.209,-1.5490000000000002,0.123,17.0741484,81.360036,-16.902261,88.22980242,5.5003968,-145.27923048
4.78,478,0.264,-1.5659999999999998,0.179,18.2200644,75.9742308,-11.0580894,88.48190394,5.6149884000000005,-144.52292592
4.79,479,0.268,-1.577,0.237,18.162768600000003,73.6823988,-4.1825934,88.72827588,5.65509546,-143.78953968000005
4.8,480,0.193,-1.592,0.209,15.0114996,72.82296179999999,0.8021411999999999,88.94599991999998,5.6436363,-143.0676126
4.81,481,0.093,-1.589,0.177,12.5477802,75.8023434,1.6042823999999998,89.13507606,5.6149884000000005,-142.31130804
4.82,482,-0.023,-1.5219999999999998,0.151,10.026765,80.78707800000002,0.9740286,89.30696345999998,5.59779966,-141.50916684
4.83,483,-0.139,-1.379,0.14400000000000002,5.6722842,87.37609499999998,-0.057295800000000015,89.4387438,5.5863405,-140.63827068
4.84,484,-0.232,-1.186,0.173,0.9740286,97.40286,-0.286479,89.53041707999998,5.56915176,-139.66997166
4.85,485,-0.287,-0.995,0.185,-2.578311,110.2371192,-0.8594370000000001,89.6106312,5.51758554,-138.56416272
4.86,486,-0.28,-0.825,0.18,-5.3858052,124.61836499999998,-3.0939732,89.65646783999998,5.52331512,-137.33230302
4.87,487,-0.212,-0.6970000000000001,0.181,-3.724227,139.11420239999998,-6.417129599999999,89.73668196000001,5.5519630200000005,-135.95147424
4.88,488,-0.123,-0.619,0.257,2.6356068,149.7139254,-9.3392154,89.88565104,5.60925882,-134.46178344
4.89,489,-0.076,-0.616,0.327,7.0473834,158.2509996,-9.8548776,90.09191592,5.66655462,-132.89187852
4.8999999999999995,490,-0.068,-0.637,0.315,6.3025379999999975,161.57415600000004,-7.6203414,90.31536954,5.683743359999999,-131.27613695999997
4.91,491,-0.078,-0.645,0.266,4.583664,162.31900140000005,-3.8388186,90.4987161,5.66655462,-129.66612498
4.92,492,-0.077,-0.643,0.225,1.9480572,161.6887476,-0.286479,90.65914434,5.60925882,-128.06184258
4.93,493,-0.04,-0.619,0.158,-4.3544808,161.6887476,1.7188740000000002,90.74508804,5.5290447,-126.45756018000002
4.9399999999999995,494,0.01,-0.5820000000000001,0.087,-11.2872726,161.97522659999996,0.9167328,90.76227678,5.44883058,-124.85327778
4.95,495,0.055,-0.5770000000000001,-0.014,-17.5325148,162.2617056,-2.0053530000000004,90.70498098,5.40872352,-123.24326580000002
4.96,496,0.08800000000000001,-0.579,-0.1,-19.9962342,161.0584938,-6.3025379999999975,90.63049644,5.40299394,-121.64471298
4.97,497,0.095,-0.5920000000000001,-0.064,-14.32395,156.5321256,-10.9434978,90.6133077,5.45456016,-120.09199680000002
4.9799999999999995,498,0.099,-0.622,0.034,-8.7089616,150.1722918,-15.469866,90.64768518,5.54623344,-118.602306
4.99,499,0.133,-0.6890000000000001,0.081,-8.021412000000002,141.2914428,-19.5378678,90.68206266,5.68947294,-117.1985589
5.0,500,0.191,-0.745,0.079,-8.4224826,131.78034,-22.0015872,90.71644014,5.86708992,-115.88648508
5.01,501,0.239,-0.7659999999999999,0.087,-5.443101,123.2432658,-22.7464326,90.76800636,6.03897732,-114.66035496
5.02,502,0.236,-0.7390000000000001,0.125,1.0313244,115.04996640000002,-21.5432208,90.88832754,6.205135139999999,-113.51443896
5.03,503,0.145,-0.696,0.161,8.880849000000003,107.429625,-18.334656,91.08313326,6.34264506,-112.4430075
5.04,504,0.087,-0.691,0.156,11.9748222,106.3983006,-12.605076,91.30658688,6.417129600000001,-111.37730562
5.05,505,0.135,-0.723,0.1,13.0634424,108.7474284,-6.0733548,91.55295882,6.43431834,-110.294415
5.06,506,0.205,-0.7859999999999999,0.141,18.334656,104.3356518,-1.432395,91.83943782,6.3884817000000025,-109.25736102
5.07,507,0.209,-0.994,0.175,16.042824000000003,91.8451674,3.724227,92.09153934,6.29680842,-108.3463578
5.08,508,0.236,-1.193,0.103,1.3178034,80.2714158,13.2353298,92.17748304,6.113461859999999,-107.55567576
5.09,509,0.264,-1.39,-0.015,-9.453807000000001,68.01011460000001,25.496631,92.14310556,5.815523699999999,-106.89104447999998
5.1,510,0.3720000000000001,-1.648,-0.1,-15.4125702,52.48295279999999,37.0703826,92.02851396,5.42018268,-106.38684144
5.11,511,0.541,-1.888,-0.145,-19.7097552,37.8725238,44.2896534,91.85662656,4.9560867,-106.03160748
5.12,512,0.695,-1.956,-0.16,-21.9442914,28.4760126,42.5134836,91.65036168,4.51490904,-105.76231722
5.13,513,0.695,-1.764,-0.14800000000000002,-19.2513888,21.5432208,30.7105488,91.46701512,4.19405256,-105.56178192
5.14,514,0.606,-1.645,-0.14,-18.2773602,16.272007199999994,15.756345000000001,91.28939814,4.02789474,-105.40708326
5.1499999999999995,515,0.512,-1.649,-0.18,-19.308684600000007,10.1986524,1.0886202,91.09459242,4.022165159999999,-105.3096804
5.16,516,0.381,-1.6980000000000002,-0.127,-1.6615782,11.5737516,-6.760904399999999,91.08313326,4.0794609600000005,-105.19508880000001
5.17,517,0.11,-1.7519999999999998,0.017,20.8556712,25.0955604,-5.9014674000000005,91.31231646,4.131027179999999,-104.9372577
5.18,518,-0.262,-1.77,0.18600000000000005,33.9191136,44.977203,-1.6042823999999998,91.67900958,4.1252976000000015,-104.49035046
5.1899999999999995,519,-0.539,-1.699,0.258,32.085648000000006,68.46848100000001,0.0,92.0457027,4.08519054,-103.80853043999998
5.2,520,-0.6629999999999999,-1.49,0.226,19.0222056,92.9910834,-3.7815227999999994,92.29780422000002,4.04508348,-102.88033848
5.21,521,-0.602,-1.265,0.173,0.4583664000000001,120.1492926,-11.917526400000002,92.37228876,4.0794609600000005,-101.68858584
5.22,522,-0.4270000000000001,-1.126,0.159,-8.021412000000002,134.53053839999998,-21.6005166,92.36655918,4.20551172,-100.34786412
5.2299999999999995,523,-0.16899999999999998,-1.067,0.157,-14.4385416,141.3487386,-30.252182399999995,92.30926338,4.40604702,-98.93838744
5.24,524,0.103,-1.027,0.138,-19.3659804,143.9270496,-33.8618178,92.20613094,4.64668938,-97.50599244
5.25,525,0.32,-0.954,0.123,-19.1367972,141.9216966,-30.3094782,92.10872808,4.87587258,-96.09078618
5.26,526,0.455,-0.873,0.111,-12.9488508,134.2440594,-21.772404,92.0743506,5.00765292,-94.75006446
5.27,527,0.5479999999999999,-0.789,0.104,-7.5057497999999985,121.81087079999999,-11.8602306,92.09153934,5.04775998,-93.54112308
5.28,528,0.596,-0.6920000000000001,0.102,-4.7555514,107.6015124,-3.0366774,92.12018724,5.00765292,-92.4754212
5.29,529,0.578,-0.6409999999999999,0.08800000000000001,-2.3491278,89.20956059999996,0.9740286,92.1602943,4.93889796,-91.59306588
5.3,530,0.519,-0.612,0.068,-3.6096354,76.77637200000002,0.9740286,92.18321262,4.94462754,-90.83103174
5.31,531,0.435,-0.603,0.051,-3.8961144,67.322565,-0.7448454000000001,92.1889422,4.91025006,-90.16640046
5.32,532,0.344,-0.632,0.054000000000000006,-3.4950437999999995,60.7908438,-2.6929026,92.19467178,4.893061319999998,-89.55906498
5.33,533,0.244,-0.672,0.06,-4.1825934,57.7541664,-4.0680017999999984,92.19467178,4.898790900000002,-88.98610698
5.34,534,0.145,-0.728,0.047,-4.1252976000000015,60.2178858,-4.8128472,92.19467178,4.90452048,-88.39023066
5.35,535,0.053,-0.79,0.04,-5.3285094000000015,67.5517482,-5.3285094000000015,92.1889422,4.91025006,-87.7198698
5.36,536,-0.05,-0.873,0.026,-8.4224826,77.17744259999998,-6.2452422,92.1602943,4.921709219999999,-86.95210608
5.37,537,-0.12,-0.966,0.008,-11.2872726,90.24088499999999,-6.703608600000001,92.10872808,4.9274388,-86.05829159999998
5.38,538,-0.174,-1.0590000000000002,0.006,-11.229976800000001,100.840608,-6.016058999999999,92.06289144000002,4.921709219999999,-85.06134468
5.39,539,-0.196,-1.135,0.035,-7.906820400000001,110.580894,-4.8128472,92.06289144000002,4.898790900000002,-83.96126532
5.3999999999999995,540,-0.172,-1.196,0.07400000000000001,-4.5263682,120.0919968,-3.0366774,92.1029985,4.83576552,-82.76951268
5.41,541,-0.113,-1.226,0.118,-1.3750992,129.7176912,-1.2032118,92.17748304,4.76701056,-81.48608676
5.42,542,-0.035,-1.234,0.162,1.3178034,138.31206120000002,0.572958,92.28634506,4.669607699999999,-80.11671714
5.43,543,0.047,-1.215,0.188,1.432395,145.53133200000005,1.145916,92.40093666,4.56074568,-78.67859256
5.4399999999999995,544,0.116,-1.173,0.184,-0.8021411999999999,150.0577002,0.0,92.48688036,4.45188366,-77.19463134
5.45,545,0.152,-1.122,0.165,-3.724227,152.693307,-2.8074942000000003,92.54990574,4.37739912,-75.68202222
5.46,546,0.171,-1.075,0.141,-4.6982556,153.4381524,-6.703608600000001,92.59574238000002,4.33729206,-74.16368352
5.47,547,0.17800000000000002,-1.036,0.128,-4.5263682,153.3235608,-11.2872726,92.6473086,4.33729206,-72.64534482
5.4799999999999995,548,0.18,-1.013,0.123,-5.6149884000000005,152.97978600000005,-15.0114996,92.68168608,4.37166954,-71.12127654
5.49,549,0.192,-0.993,0.112,-7.161975,152.2922364,-17.475219,92.7046044,4.43469492,-69.60866741999999
5.5,550,0.212,-0.969,0.109,-7.8495246,151.6619826,-18.3919518,92.72752272,4.51490904,-68.10178787999999
5.51,551,0.223,-0.954,0.115,-7.906820400000001,149.77122119999999,-18.5638392,92.74471146,4.5836640000000015,-66.61209708
5.52,552,0.243,-0.935,0.111,-8.250595200000001,147.47938919999999,-17.7044022,92.75617062,4.65241896,-65.14532460000001
5.53,553,0.259,-0.917,0.102,-8.307891,144.50000759999998,-16.042824000000003,92.76762978,4.6982555999999995,-63.70720002
5.54,554,0.28,-0.921,0.07200000000000001,-9.3392154,143.0103168,-14.32395,92.77335936,4.73263308,-62.28626418
5.55,555,0.265,-0.957,0.015,-12.4904844,142.8384294,-13.2353298,92.73898188,4.77274014,-60.87105792
5.56,556,0.218,-1.018,-0.058,-16.501190400000002,144.958374,-12.7769634,92.67022692,4.78992888,-59.43293334
5.57,557,0.146,-1.077,-0.107,-18.8503182,147.42209340000005,-12.605076,92.57855364,4.80711762,-57.97189044
5.58,558,0.051,-1.095,-0.135,-17.9335854,145.41674039999995,-12.5477802,92.49833952,4.82430636,-56.52803628
5.59,559,-0.031,-1.0659999999999998,-0.1,-15.985528200000001,138.9996108,-13.521808800000002,92.43531414,4.86441342,-55.14720749999999
5.6,560,-0.063,-0.977,-0.008,-12.1467096,132.8689602,-17.9908812,92.40093666,4.93889796,-53.82367452
5.61,561,-0.037000000000000005,-0.902,0.077,-6.589017,128.34259200000002,-26.1268848,92.42958456,5.10505578,-52.54597818
5.62,562,0.023,-0.8440000000000001,0.117,-3.0366774,125.70698519999999,-34.37748,92.49833952,5.3571573,-51.28547058
5.63,563,0.081,-0.8009999999999999,0.15,-1.6615782,121.81087079999999,-41.1383844,92.57855364,5.683743359999999,-50.05934046
5.64,564,0.132,-0.7759999999999999,0.171,-4.5263682,117.05531940000002,-43.48751220000001,92.64157902,6.0275181600000005,-48.87904698000001
5.6499999999999995,565,0.191,-0.7659999999999999,0.152,-10.8289062,113.159205,-39.7059894,92.64157902,6.348374640000001,-47.73313098
5.66,566,0.212,-0.785,0.092,-16.4438946,110.00793600000002,-31.6845774,92.58428322,6.58328742,-46.63305162
5.67,567,0.187,-0.831,0.061,-19.194093,107.6588082,-21.9442914,92.49833952,6.72079734,-45.55589058
5.68,568,0.07,-0.941,0.053,-19.5378678,105.02320139999999,-11.0580894,92.41239582,6.7551748200000015,-44.50737744
5.6899999999999995,569,-0.04,-1.056,0.076,-18.6784308,102.5021862,-4.583664,92.32645212,6.7322565,-43.48751220000001
5.7,570,-0.122,-1.163,0.106,-16.1001198,102.0438198,-4.3544808,92.26915632,6.686419860000001,-42.47337654
5.71,571,-0.18,-1.254,0.147,-12.6623718,102.845961,-8.7089616,92.246238,6.7036086,-41.4535113
5.72,572,-0.194,-1.315,0.18600000000000005,-8.3651868,103.705398,-14.610429000000002,92.26915632,6.77809314,-40.41645732
5.7299999999999995,573,-0.159,-1.335,0.214,-3.2658606,104.564835,-18.7930224,92.34364086,6.89268474,-39.36794418
5.74,574,-0.085,-1.305,0.21600000000000005,1.432395,105.424272,-18.9649098,92.4754212,7.00727634,-38.31370146
5.75,575,-0.011,-1.241,0.199,4.6409598,105.25238459999998,-14.152062599999999,92.6473086,7.06457214,-37.25945874
5.76,576,0.041,-1.173,0.17600000000000002,7.6776372,102.9032568,-5.9014674000000005,92.83638474,7.0473833999999975,-36.23386392
5.77,577,0.052000000000000005,-1.135,0.18,10.026765,98.4341844,1.7761698,93.04264962,6.955710119999999,-35.25410574
5.78,578,0.038,-1.114,0.177,8.4224826,94.1942952,6.4744254,93.22599618,6.812470620000001,-34.32591377999999
5.79,579,0.02,-1.095,0.16399999999999998,5.9014674000000005,90.4700682,9.167328,93.38069484,6.6463128,-33.432099300000004
5.8,580,0.0,-1.072,0.162,4.2398892,87.0323202,9.969469199999999,93.51820476,6.45723666,-32.572662300000005
5.81,581,-0.016,-1.0590000000000002,0.16699999999999998,2.8074942000000003,84.05293859999998,9.1100322,93.62706678,6.29107884,-31.74760278
5.82,582,-0.025,-1.05,0.165,1.0886202,82.21947300000002,6.990087599999999,93.71874006,6.147839339999999,-30.93973200000001
5.83,583,-0.024,-1.032,0.155,-0.057295800000000015,81.1308528,3.9534102,93.7932246,6.0332477399999975,-30.137590799999998
5.84,584,-0.022,-0.999,0.146,-1.2605076000000002,81.0162612,0.0,93.8505204,5.958763200000001,-29.335449600000004
5.85,585,-0.021,-0.952,0.133,-2.291832,81.81840240000002,-2.9793816000000004,93.9078162,5.89000824,-28.52184924
5.86,586,-0.024,-0.909,0.124,-2.4064236,83.07891,-4.6982556,93.95365284,5.861360339999999,-27.69678972
5.87,587,-0.029,-0.879,0.118,-2.2345362,84.4540092,-5.443101,94.00521906,5.83271244,-26.86027104
5.88,588,-0.031,-0.855,0.11,-2.1772404,85.54262940000002,-5.5576926,94.06251486,5.80406454,-26.00656362
5.89,589,-0.031,-0.84,0.113,-2.2345362,86.63124959999998,-5.844171599999999,94.11408108,5.77541664,-25.14712662
5.8999999999999995,590,-0.026,-0.8320000000000001,0.11,-2.4064236,87.94905299999998,-6.4744254,94.1656473,5.74103916,-24.27623046
5.91,591,-0.022,-0.836,0.1,-1.8334656000000005,88.69389840000002,-6.990087599999999,94.2229431,5.72385042,-23.39387514
5.92,592,-0.022,-0.847,0.08900000000000001,-0.9167328,88.69389840000002,-7.161975,94.29169806,5.7009320999999975,-22.51151982
5.93,593,-0.013,-0.861,0.079,0.4583664000000001,87.94905299999998,-7.3911582,94.37191218,5.68947294,-21.63489408
5.9399999999999995,594,-0.01,-0.8690000000000001,0.084,1.8334656000000005,86.34477059999998,-8.307891,94.46358546,5.67801378,-20.77545708
5.95,595,-0.005,-0.877,0.087,2.6929026,84.2821218,-9.2819196,94.56098832,5.6722842,-19.93320882
5.96,596,0.005,-0.904,0.069,1.6615782,81.0162612,-9.9121734,94.64693201999998,5.683743359999999,-19.12533804
5.97,597,0.055,-0.939,0.059,0.6302538000000001,78.60983759999998,-9.797581800000001,94.72141656,5.6952025200000005,-18.34038558
5.9799999999999995,598,0.091,-0.993,0.053,2.0626488000000003,75.45856859999998,-9.1100322,94.80736026,5.7009320999999975,-17.589810600000003
5.99,599,0.138,-1.041,0.056,2.5210152000000003,72.3645954,-8.4224826,94.89330396,5.70666168,-16.86788352
6.0,600,0.162,-1.085,0.066,2.4637194,67.7809314,-7.6203414,94.9677885,5.71812084,-16.19179308
6.01,601,0.182,-1.112,0.067,0.9740286,61.9367598,-7.3911582,95.03654346,5.71812084,-15.57299844
6.02,602,0.179,-1.127,0.049,0.11459160000000004,57.1239126,-6.990087599999999,95.0823801,5.72385042,-15.000040439999998
6.03,603,0.172,-1.147,0.044,1.6615782,52.712136,-6.3025379999999975,95.14540548,5.72385042,-14.47291908
6.04,604,0.16399999999999998,-1.167,0.059,4.5263682,49.388979600000006,-5.0993262,95.23707876,5.71812084,-13.980175199999998
6.05,605,0.138,-1.1740000000000002,0.085,6.760904399999999,47.3836266,-4.0680017999999984,95.3402112,5.70666168,-13.51034964
6.06,606,0.094,-1.161,0.08900000000000001,8.078707799999998,46.5241896,-3.7815227999999994,95.46053238,5.68947294,-13.04625366
6.07,607,0.043,-1.135,0.091,8.4224826,46.065823200000004,-3.8388186,95.58658314,5.66655462,-12.58788726
6.08,608,0.002,-1.107,0.093,7.906820400000001,45.8939358,-2.9220857999999996,95.70690432,5.6436363,-12.12952086
6.09,609,-0.009000000000000001,-1.058,0.08900000000000001,5.9014674000000005,46.5814854,-1.432395,95.80430718,5.59779966,-11.67115446
6.1,610,-0.003,-1.005,0.076,4.297185,48.6441342,-0.9740286,95.87306214,5.52331512,-11.18986974
6.11,611,0.009000000000000001,-0.965,0.073,3.380452200000001,51.0505578,-1.2605076000000002,95.95327626,5.4717489000000015,-10.6856667
6.12,612,0.024,-0.939,0.068,1.7761698,53.11320660000001,-2.0626488000000003,96.01057206,5.42018268,-10.15854534
6.13,613,0.038,-0.92,0.063,0.2291832000000001,55.290447,-3.151269,96.0564087,5.38007562,-9.60850566
6.14,614,0.047,-0.909,0.062,-0.9167328,57.35309579999999,-4.4690724,96.09651576,5.35142772,-9.04127724
6.15,615,0.055,-0.895,0.067,-2.0626488000000003,59.30115299999999,-6.0733548,96.1137045,5.3285094000000015,-8.451130500000001
6.16,616,0.073,-0.8859999999999999,0.07200000000000001,-2.9220857999999996,61.1919144,-7.8495246,96.13089324,5.32277982,-7.84379502
6.17,617,0.099,-0.899,0.067,-3.724227,62.853492599999996,-8.8235532,96.14235240000001,5.3285094000000015,-7.213541219999999
6.18,618,0.125,-0.915,0.061,-4.3544808,63.6556338,-8.9954406,96.14808198,5.3285094000000015,-6.57755784
6.1899999999999995,619,0.149,-0.933,0.057,-4.297185,63.6556338,-8.651665800000002,96.15381156,5.33423898,-5.94157446
6.2,620,0.168,-0.956,0.052000000000000005,-3.7815227999999994,62.22323879999999,-8.250595200000001,96.14808198,5.3456981400000005,-5.31705024
6.21,621,0.182,-0.971,0.048,-3.3231564,60.7908438,-8.250595200000001,96.16527072,5.3456981400000005,-4.71544434
6.22,622,0.19,-0.977,0.045,-3.4377480000000005,58.9573782,-8.9381448,96.17672988,5.3571573,-4.1252976000000015
6.2299999999999995,623,0.196,-0.976,0.043,-3.8388186,56.0925882,-10.255948199999999,96.18245946,5.385805199999999,-3.5580691799999995
6.24,624,0.201,-0.974,0.04,-4.1825934,52.425657,-11.2872726,96.18245946,5.42591226,-3.03094782
6.25,625,0.207,-0.977,0.041,-4.4117766,48.1857678,-11.2872726,96.15381156,5.5003968,-2.54393352
6.26,626,0.214,-0.993,0.041,-4.4117766,45.1490904,-10.255948199999999,96.14808198,5.540503859999999,-2.0912967
6.27,627,0.224,-1.021,0.046,-3.9534102,41.9978214,-8.9381448,96.14235240000001,5.574881339999999,-1.6673077799999998
6.28,628,0.224,-1.0490000000000002,0.045,-2.8074942000000003,39.19032720000001,-7.6776372,96.14808198,5.59779966,-1.27196676
6.29,629,0.211,-1.065,0.05,-1.7188740000000002,37.0130868,-7.1046792000000005,96.15954114000002,5.6149884000000005,-0.89954406
6.3,630,0.194,-1.065,0.059,-0.4583664000000001,35.6379876,-7.448453999999999,96.16527072,5.66655462,-0.53858052
6.31,631,0.16899999999999998,-1.055,0.068,0.572958,35.122325399999994,-8.193299399999999,96.19964819999998,5.7009320999999975,-0.18334656
6.32,632,0.149,-1.033,0.07400000000000001,0.9167328,35.52339600000001,-9.3392154,96.23975526,5.746768739999999,0.1718874
6.33,633,0.133,-1.003,0.083,0.5156622000000001,36.4401288,-10.4851314,96.27986232,5.79833496,0.5443101
6.34,634,0.123,-0.979,0.08900000000000001,-0.8021411999999999,37.3568616,-10.7143146,96.30278064,5.85563076,0.92246238
6.35,635,0.12,-0.966,0.094,-2.0053530000000004,38.10170700000001,-10.313244,96.30851022,5.9129265600000025,1.30634424
6.36,636,0.122,-0.954,0.095,-3.0939732,38.8465524,-9.6829902,96.3142398,5.953033619999999,1.70168526
6.37,637,0.128,-0.953,0.094,-3.5523396000000003,39.3622146,-8.880849000000003,96.3142398,5.9874111,2.09702628
6.38,638,0.134,-0.959,0.093,-3.6096354,39.47680620000001,-7.906820400000001,96.3142398,6.0160589999999985,2.49809688
6.39,639,0.136,-0.966,0.096,-3.4950437999999995,39.0757356,-6.875496000000001,96.3142398,6.0275181600000005,2.88770832
6.4,640,0.139,-0.971,0.099,-2.8074942000000003,38.38818600000001,-5.9014674000000005,96.30851022,6.05043648,3.27159018
6.41,641,0.142,-0.981,0.091,-1.9480572,37.4714532,-4.9847345999999995,96.32569896,6.0447069,3.64974246
6.42,642,0.139,-0.991,0.083,-1.3750992,36.5547204,-4.3544808,96.3428877,6.03897732,4.010706
6.43,643,0.131,-1.009,0.078,-0.4583664000000001,35.4088044,-3.9534102,96.3715356,6.0275181600000005,4.36593996
6.4399999999999995,644,0.122,-1.027,0.076,0.4583664000000001,34.0337052,-3.9534102,96.40591308,6.02178858,4.703985179999999
6.45,645,0.119,-1.041,0.073,0.6302538000000001,33.0596766,-4.297185,96.42310182,6.0275181600000005,5.03630082
6.46,646,0.128,-1.047,0.067,0.6875496,32.142943800000005,-4.8128472,96.4574793,6.0275181600000005,5.3571573
6.47,647,0.151,-1.037,0.056,0.6302538000000001,30.4240698,-5.0993262,96.49185678,6.03897732,5.66655462
6.4799999999999995,648,0.173,-1.013,0.054000000000000006,1.2605076000000002,26.8717302,-4.5263682,96.53196384,6.0447069,5.93584488
6.49,649,0.175,-0.979,0.07400000000000001,2.578311,20.1108258,-2.6929026,96.5720709,6.0447069,6.13638018
6.5,650,0.17,-0.961,0.098,3.2085648,14.9542038,-1.3750992,96.6007188,6.09627312,6.29107884
6.51,651,0.182,-0.944,0.112,3.380452200000001,10.599723,-0.572958,96.64655544,6.08481396,6.39421128
6.52,652,0.187,-0.949,0.116,4.1825934,7.3911582,-0.11459160000000004,96.69239208,6.079084379999999,6.4686958200000015
6.53,653,0.195,-0.967,0.119,5.2139178,5.2712136,0.2291832000000001,96.74968788,6.067625219999999,6.52026204
6.54,654,0.193,-0.987,0.115,5.5003968,3.6669312000000014,0.9740286,96.81271325999998,6.05616606,6.560369099999999
6.55,655,0.187,-1.003,0.102,4.9847345999999995,2.5210152000000003,1.5469866,96.78979494,6.165028080000001,6.589017
6.56,656,0.18600000000000005,-1.005,0.092,4.0680017999999984,1.2605076000000002,1.7188740000000002,96.83563158,6.147839339999999,6.60047616
6.57,657,0.182,-1.0,0.087,3.5523396000000003,0.0,1.4896908000000002,96.87000906,6.130650600000001,6.60047616
6.58,658,0.174,-1.003,0.086,3.0366774,-0.572958,0.9740286,96.89865696,6.12492102,6.5947465800000025
6.59,659,0.162,-1.007,0.08800000000000001,2.291832,-0.9740286,0.572958,96.92157528,6.11919144,6.58328742
6.6,660,0.159,-1.007,0.09,2.0626488000000003,-1.4896908000000002,0.3437748,96.77833578,6.3025379999999975,6.5718282599999975
6.61,661,0.16699999999999998,-1.001,0.092,2.5210152000000003,-1.9480572,0.4583664000000001,96.8012541,6.29680842,6.554639519999999
6.62,662,0.18,-0.987,0.094,3.6096354,-2.578311,0.7448454000000001,96.83563158,6.29680842,6.525991620000001
6.63,663,0.187,-0.968,0.097,5.0993262,-3.7815227999999994,1.2032118,96.88146822,6.29107884,6.49161414
6.64,664,0.18,-0.953,0.101,6.703608600000001,-5.6722842,2.1772404,96.94449360000002,6.2738901,6.43431834
6.65,665,0.162,-0.954,0.104,8.307891,-8.193299399999999,3.0939732,97.0017894,6.29107884,6.348374640000001
6.66,666,0.146,-0.97,0.108,9.2819196,-10.0840608,3.6096354,97.0877331,6.2738901,6.2452422000000025
6.67,667,0.135,-0.988,0.11,10.0840608,-11.2872726,3.5523396000000003,97.17940638,6.25670136,6.13638018
6.68,668,0.132,-1.003,0.116,10.3705398,-11.917526400000002,3.151269,97.27107966,6.2452422000000025,6.0160589999999985
6.6899999999999995,669,0.136,-1.01,0.119,9.969469199999999,-12.2040054,2.6356068,97.36275294,6.2337830400000005,5.89000824
6.7,670,0.147,-1.007,0.121,9.3965112,-12.3758928,2.291832,97.4315079,6.25670136,5.76968706
6.71,671,0.156,-0.996,0.124,8.651665800000002,-13.0061466,2.1772404,97.50599244,6.25670136,5.63790672
6.72,672,0.161,-0.984,0.125,8.021412000000002,-14.495837400000001,2.5210152000000003,97.5747474,6.25670136,5.4946672199999975
6.7299999999999995,673,0.159,-0.978,0.122,7.448453999999999,-16.501190400000002,3.2658606,97.6320432,6.25097178,5.3285094000000015
6.74,674,0.156,-0.981,0.121,7.5630456000000015,-18.5638392,4.010706000000001,97.69506857999998,6.23951262,5.13943326
6.75,675,0.146,-0.991,0.127,7.8495246,-20.626488,4.6982556,97.74090522,6.2452422000000025,4.93316838
6.76,676,0.131,-1.001,0.127,8.307891,-22.0015872,5.0993262,97.8039306,6.22805346,4.70971476
6.77,677,0.114,-1.013,0.125,8.8235532,-22.5172494,5.1566220000000005,97.87268556,6.2165943,4.48626114
6.78,678,0.097,-1.02,0.124,9.5111028,-22.459953600000002,4.8128472,97.95289968,6.205135139999999,4.25707794
6.79,679,0.08199999999999999,-1.02,0.126,9.9121734,-22.1161788,4.1252976000000015,98.0331138,6.1994055600000015,4.03362432
6.8,680,0.067,-1.015,0.126,9.5111028,-21.3713334,3.2085648,98.09040960000002,6.1879464,3.82162986
6.81,681,0.061,-1.015,0.126,8.3651868,-20.2254174,2.86479,98.15916456,6.19367598,3.62109456
6.82,682,0.062,-1.005,0.121,7.333862400000001,-19.1367972,2.6929026,98.21646036,6.1994055600000015,3.42628884
6.83,683,0.065,-1.001,0.119,6.589017,-18.048177,2.6929026,98.262297,6.205135139999999,3.2486718599999995
6.84,684,0.069,-1.0,0.116,6.0733548,-17.18874,2.9793816000000004,98.30813364,6.205135139999999,3.07678446
6.85,685,0.07400000000000001,-0.998,0.121,6.2452422,-16.272007199999994,3.2085648,98.33105196,6.1879464,2.91062664
6.86,686,0.077,-0.997,0.127,6.5317212,-15.6990492,3.0939732,98.38261818,6.18221682,2.7501984
6.87,687,0.078,-0.998,0.13,6.417129599999999,-15.3552744,2.9793816000000004,98.4341844,6.18221682,2.59549974
6.88,688,0.078,-0.999,0.13,6.130650599999999,-14.9542038,2.6929026,98.48575062,6.18221682,2.44653066
6.89,689,0.076,-1.0,0.127,5.5576926,-14.610429000000002,2.5210152000000003,98.52585768000002,6.18221682,2.30329116
6.9,690,0.07200000000000001,-1.004,0.124,5.2139178,-14.32395,2.291832,98.53731684,6.165028080000001,2.15432208
6.91,691,0.068,-1.006,0.12,5.042030400000002,-13.8082878,2.3491278,98.5774239,6.165028080000001,2.01681216
6.92,692,0.067,-1.006,0.121,5.1566220000000005,-12.834259199999998,2.4637194,98.61753096,6.165028080000001,1.88503182
6.93,693,0.066,-1.003,0.123,5.2139178,-11.745639,2.1199446,98.65763802,6.1592985,1.77044022
6.9399999999999995,694,0.065,-1.001,0.122,5.042030400000002,-10.7716104,1.7188740000000002,98.69774508,6.165028080000001,1.6615782
6.95,695,0.062,-1.003,0.126,4.9274388,-9.797581800000001,1.3750992,98.69774508,6.13638018,1.55844576
6.96,696,0.058,-1.003,0.131,5.042030400000002,-8.7662574,0.9740286,98.74358172,6.14210976,1.47250206
6.97,697,0.058,-1.005,0.134,4.5263682,-7.448453999999999,0.9167328,98.78368878,6.14210976,1.39801752
6.9799999999999995,698,0.059,-1.004,0.135,4.0680017999999984,-6.703608600000001,0.8594370000000001,98.81806626,6.147839339999999,1.3349921400000002
6.99,699,0.062,-1.006,0.136,3.5523396000000003,-5.6722842,0.6302538000000001,98.84671416,6.15356892,1.27769634
7.0,700,0.065,-1.007,0.134,3.2658606,-4.3544808,0.4010706,98.80087752,6.09054354,1.22613012
7.01,701,0.064,-1.008,0.134,3.0939732,-3.0366774,0.0,98.82952542,6.09627312,1.19748222
7.02,702,0.062,-1.01,0.133,2.578311,-1.9480572,-0.2291832000000001,98.85244374,6.1020027,1.18029348
7.03,703,0.062,-1.005,0.131,2.2345362,-0.7448454000000001,-0.4010706,98.87536206,6.1077322800000005,1.1688343199999998
7.04,704,0.063,-0.997,0.129,1.8907613999999997,0.1718874,-0.5156622000000001,98.89828038,6.113461859999999,1.1745638999999999
7.05,705,0.065,-0.995,0.127,1.3178034,1.0313244,-0.6302538000000001,98.70920424,5.98168152,1.1688343199999998
7.06,706,0.067,-0.992,0.12,1.5469866,1.5469866,-0.9167328,98.72639298,5.9931406800000016,1.18602306
7.07,707,0.068,-0.99,0.116,3.0939732,2.0053530000000004,-1.4896908000000002,98.76077046,6.00459984,1.20894138
7.08,708,0.068,-0.995,0.122,4.1825934,2.7501984,-1.9480572,98.8066071,6.0160589999999985,1.23758928
7.09,709,0.065,-0.997,0.131,3.5523396000000003,3.380452200000001,-2.1199446,98.84671416,6.0332477399999975,1.27769634
7.1,710,0.065,-1.0,0.135,2.4637194,4.2398892,-2.1772404,98.81233668,5.99887026,1.3178034
7.11,711,0.066,-0.997,0.129,1.8334656000000005,5.2139178,-2.1199446,98.835255,6.01032942,1.36936962
7.12,712,0.065,-0.995,0.126,2.3491278,5.958763200000001,-1.9480572,98.8639029,6.0160589999999985,1.432395
7.13,713,0.062,-0.994,0.132,3.2085648,6.417129599999999,-1.7188740000000002,98.90400996,6.02178858,1.49542038
7.14,714,0.06,-0.995,0.138,3.3231564,6.8182002000000015,-1.6042823999999998,98.94411702,6.0275181600000005,1.56990492
7.15,715,0.06,-0.992,0.138,2.6929026,7.3911582,-1.5469866,98.93838744,5.9874111,1.6386598799999998
7.16,716,0.063,-0.988,0.13699999999999998,2.291832,8.078707799999998,-1.6615782,98.96703534,5.9874111,1.7188740000000002
7.17,717,0.065,-0.99,0.138,2.0626488000000003,8.9381448,-1.7188740000000002,98.99568324,5.9931406800000016,1.81054728
7.18,718,0.069,-0.995,0.14300000000000002,1.7188740000000002,9.453807000000001,-2.1199446,99.02433114,5.9931406800000016,1.90795014
7.1899999999999995,719,0.07200000000000001,-1.001,0.145,1.2605076000000002,9.6829902,-2.5210152000000003,99.04724946,6.00459984,2.005353
7.2,720,0.078,-1.002,0.146,1.3178034,9.6256944,-2.8074942000000003,99.0357903,5.9931406800000016,2.10275586
7.21,721,0.08,-1.0,0.14800000000000002,1.2605076000000002,9.453807000000001,-2.7501984,99.05870862,6.00459984,2.20015872
7.22,722,0.08199999999999999,-0.994,0.149,1.0886202,9.3965112,-2.578311,99.07589736,6.0160589999999985,2.29756158
7.2299999999999995,723,0.084,-0.989,0.14800000000000002,0.8594370000000001,9.5111028,-2.3491278,99.0930861,6.02178858,2.39496444
7.24,724,0.084,-0.989,0.146,0.6875496,9.568398599999998,-2.1772404,99.11027484,6.02178858,2.4923673
7.25,725,0.081,-0.994,0.14400000000000002,0.572958,9.797581800000001,-2.0626488000000003,99.08735652,6.00459984,2.58404058
7.26,726,0.076,-0.997,0.142,0.4010706,9.6829902,-1.8907613999999997,99.09881568,6.00459984,2.68717302
7.27,727,0.07200000000000001,-1.0,0.139,0.5156622000000001,9.740286,-1.6615782,99.11600442,6.00459984,2.78457588
7.28,728,0.073,-0.996,0.138,0.8021411999999999,9.740286,-1.8907613999999997,99.13319316,6.00459984,2.88197874
7.29,729,0.076,-0.994,0.138,0.8021411999999999,9.5111028,-1.9480572,99.1503819,6.00459984,2.9793816000000004
7.3,730,0.08,-0.99,0.135,0.6875496,9.2819196,-2.1199446,99.11600442,5.9931406800000016,3.07105488
7.31,731,0.086,-0.99,0.133,1.2032118,8.8235532,-2.0626488000000003,99.13892274,5.99887026,3.15699858
7.32,732,0.094,-0.992,0.135,1.7188740000000002,8.250595200000001,-2.0053530000000004,99.16184106,6.00459984,3.24294228
7.33,733,0.1,-0.996,0.139,2.0626488000000003,7.448453999999999,-1.8334656000000005,99.19048896,6.00459984,3.31742682
7.34,734,0.1,-1.0,0.141,1.8334656000000005,6.417129599999999,-1.5469866,99.21913686,6.01032942,3.38618178
7.35,735,0.093,-0.999,0.141,1.5469866,5.9014674000000005,-1.3178034,99.17330022000002,5.99887026,3.44347758
7.36,736,0.085,-1.001,0.14,1.2032118,5.6149884000000005,-0.9740286,99.19048896,5.99887026,3.50077338
7.37,737,0.079,-1.002,0.139,0.6302538000000001,5.443101,-0.8594370000000001,99.20194812,5.99887026,3.5523396000000003
7.38,738,0.075,-1.0,0.134,0.0,5.6722842,-1.145916,99.2076777,5.99887026,3.6096353999999997
7.39,739,0.073,-1.003,0.13,-0.11459160000000004,5.72958,-1.2605076000000002,99.21340727999998,5.99887026,3.67266078
7.4,740,0.077,-0.999,0.131,-0.057295800000000015,5.5576926,-1.3178034,99.121734,5.96449278,3.71849742
7.41,741,0.084,-0.995,0.132,0.11459160000000004,5.0993262,-1.145916,99.12746358,5.97022236,3.77006364
7.42,742,0.091,-0.99,0.135,0.286479,4.3544808,-0.7448454000000001,99.13319316,5.97022236,3.81590028
7.43,743,0.095,-0.989,0.13699999999999998,0.3437748,3.6669312000000014,-0.572958,99.14465232,5.97022236,3.85600734
7.4399999999999995,744,0.095,-0.994,0.135,0.572958,3.151269,-0.4010706,99.1503819,5.96449278,3.88465524
7.45,745,0.09,-0.997,0.133,0.7448454000000001,2.6356068,-0.6302538000000001,99.01287198,5.93584488,3.90757356
7.46,746,0.086,-1.002,0.133,0.9167328,2.1199446,-0.6875496,99.02433114,5.94157446,3.93049188
7.47,747,0.081,-1.005,0.135,1.0313244,1.7188740000000002,-0.7448454000000001,99.04151988,5.94157446,3.94768062
7.48,748,0.076,-1.007,0.136,0.9740286,1.432395,-0.8021411999999999,99.05297904,5.9473040400000015,3.9648693599999993
