TimeStamp(s),FrameCounter,AccX,AccY,AccZ,GyrX,GyrY,GyrZ,EulerX,EulerY,EulerZ
0.01,1,0.037000000000000005,-1.007,-0.016,1.8334656000000005,-5.6722842,-1.3178034,87.30161045999998,4.25707794,-14.467189499999998
0.02,2,0.015,-1.012,-0.014,0.1718874,-2.8074942000000003,0.4583664000000001,87.30161045999998,4.25134836,-14.4958374
0.03,3,0.014,-1.012,-0.013,0.2291832000000001,-2.6929026,0.4583664000000001,87.30734004,4.24561878,-14.5244853
0.04,4,0.013,-1.012,-0.011,0.4010706,-2.5210152000000003,0.4583664000000001,87.30734004,4.2398892,-14.54740362
0.05,5,0.015,-1.011,-0.011,0.4010706,-2.5210152000000003,0.4010706,87.3474471,4.09092012,-14.58751068
0.060000000000000005,6,0.016,-1.011,-0.01,0.3437748,-2.5210152000000003,0.4583664000000001,87.35317668,4.08519054,-14.610429000000002
0.06999999999999999,7,0.016,-1.008,-0.009000000000000001,0.3437748,-2.291832,0.4583664000000001,87.35317668,4.0794609600000005,-14.63334732
0.08,8,0.015,-1.008,-0.009000000000000001,0.4010706,-2.0626488000000003,0.4583664000000001,87.35890626,4.0794609600000005,-14.656265639999996
0.09,9,0.015,-1.008,-0.008,0.4010706,-1.9480572,0.3437748,87.35890626,4.07373138,-14.67345438
0.09999999999999999,10,0.014,-1.01,-0.009000000000000001,0.4010706,-1.7188740000000002,0.2291832000000001,87.42193164,3.86173692,-14.707831860000002
0.11,11,0.014,-1.01,-0.011,0.3437748,-1.3178034,0.1718874,87.42766122,3.86173692,-14.71929102
0.12,12,0.014,-1.012,-0.014,0.2291832000000001,-1.3750992,0.2291832000000001,87.42766122,3.85600734,-14.73647976
0.13,13,0.013,-1.012,-0.013,0.2291832000000001,-1.6042823999999998,0.286479,87.4333908,3.85600734,-14.74793892
0.14,14,0.014,-1.013,-0.01,0.0,-1.432395,0.286479,87.4333908,3.85027776,-14.76512766
0.15000000000000002,15,0.016,-1.012,-0.01,-0.11459160000000004,-1.0886202,0.1718874,87.50787534,3.56952834,-14.79377556
0.16,16,0.018000000000000002,-1.01,-0.01,-0.2291832000000001,-0.8594370000000001,0.11459160000000004,87.50214575999998,3.56952834,-14.80523472
0.17,17,0.016,-1.009,-0.009000000000000001,-0.4010706,-0.6302538000000001,0.1718874,87.50214575999998,3.56379876,-14.810964300000002
0.18000000000000002,18,0.013,-1.009,-0.009000000000000001,-0.7448454000000001,-0.4583664000000001,0.057295800000000015,87.49068659999998,3.56379876,-14.81669388
0.19,19,0.01,-1.012,-0.012,-0.8021411999999999,-0.11459160000000004,0.1718874,87.48495702,3.56379876,-14.81669388
0.2,20,0.008,-1.013,-0.014,-0.7448454000000001,0.057295800000000015,0.2291832000000001,87.50787534,3.28304934,-14.8396122
0.21000000000000002,21,0.008,-1.014,-0.016,-0.6875496,0.1718874,0.2291832000000001,87.50214575999998,3.27731976,-14.83388262
0.22,22,0.011,-1.013,-0.017,-0.6302538000000001,0.0,0.2291832000000001,87.49641618000004,3.27731976,-14.8396122
0.23,23,0.015,-1.011,-0.015,-0.7448454000000001,-0.2291832000000001,0.1718874,87.48495702,3.27159018,-14.8396122
0.24000000000000002,24,0.02,-1.007,-0.014,-0.9167328,-0.1718874,0.1718874,87.47922744,3.27159018,-14.8396122
0.25,25,0.023,-1.004,-0.013,-1.0313244,-0.11459160000000004,0.057295800000000015,87.51360492,3.0997027800000003,-14.85680094
0.26,26,0.021,-1.002,-0.015,-0.9167328,0.0,0.0,87.50214575999998,3.0997027800000003,-14.85680094
0.27,27,0.018000000000000002,-1.002,-0.016,-0.7448454000000001,0.286479,0.0,87.49641618000004,3.0997027800000003,-14.85107136
0.28,28,0.014,-1.003,-0.018000000000000002,-0.4010706,0.4010706,-0.057295800000000015,87.49068659999998,3.0997027800000003,-14.85107136
0.29000000000000004,29,0.011,-1.004,-0.018000000000000002,-0.5156622000000001,0.4583664000000001,-0.11459160000000004,87.48495702,3.0997027800000003,-14.845341780000002
0.3,30,0.011,-1.004,-0.019,-0.5156622000000001,0.4583664000000001,-0.057295800000000015,87.48495702,2.84760126,-14.85680094
0.31,31,0.013,-1.003,-0.02,-0.286479,0.2291832000000001,-0.11459160000000004,87.48495702,2.84760126,-14.85680094
0.32,32,0.015,-1.002,-0.019,-0.2291832000000001,0.0,-0.1718874,87.47922744,2.84760126,-14.85680094
0.33,33,0.017,-1.003,-0.019,-0.1718874,-0.2291832000000001,-0.1718874,87.47922744,2.85333084,-14.85680094
0.34,34,0.018000000000000002,-1.003,-0.018000000000000002,-0.057295800000000015,-0.4583664000000001,-0.1718874,87.47922744,2.85333084,-14.862530519999998
0.35000000000000003,35,0.02,-1.006,-0.017,0.0,-0.572958,-0.1718874,87.51360492,2.71009134,-14.879719259999998
0.36000000000000004,36,0.021,-1.008,-0.014,0.0,-0.6875496,-0.1718874,87.51360492,2.71009134,-14.88544884
0.37,37,0.022,-1.009,-0.014,0.0,-0.6302538000000001,0.0,87.51360492,2.71009134,-14.89117842
0.38,38,0.021,-1.009,-0.015,0.0,-0.4583664000000001,0.0,87.51360492,2.71582092,-14.896907999999998
0.39,39,0.018000000000000002,-1.009,-0.016,0.057295800000000015,-0.286479,0.057295800000000015,87.51360492,2.71009134,-14.90263758
0.4,40,0.015,-1.008,-0.015,0.1718874,-0.3437748,0.0,87.56517113999998,2.50382646,-14.919826320000002
0.41000000000000003,41,0.013,-1.007,-0.014,0.286479,-0.286479,0.0,87.56517113999998,2.50382646,-14.9255559
0.42000000000000004,42,0.012,-1.006,-0.011,0.2291832000000001,-0.3437748,0.0,87.56517113999998,2.50382646,-14.9255559
0.43,43,0.013,-1.008,-0.009000000000000001,0.057295800000000015,-0.572958,-0.057295800000000015,87.57090072000004,2.50955604,-14.93128548
0.44,44,0.013,-1.01,-0.008,-0.286479,-0.8021411999999999,-0.1718874,87.56517113999998,2.50955604,-14.94274464
0.45,45,0.012,-1.011,-0.006999999999999999,-0.9167328,-0.572958,-0.2291832000000001,87.59954862,2.42934192,-14.95993338
0.46,46,0.013,-1.01,-0.006999999999999999,-1.2605076000000002,-0.1718874,-0.1718874,87.58808946,2.4350715000000003,-14.95993338
0.47000000000000003,47,0.014,-1.011,-0.006999999999999999,-1.432395,0.3437748,-0.1718874,87.57663029999998,2.4350715000000003,-14.954203799999998
0.48000000000000004,48,0.015,-1.012,-0.008,-1.6042823999999998,0.9740286,-0.11459160000000004,87.55944156000002,2.4350715000000003,-14.94847422
0.49,49,0.017,-1.014,-0.005,-1.8334656000000005,1.145916,0.0,87.53652324,2.4350715000000003,-14.937015060000002
0.5,50,0.018000000000000002,-1.016,-0.003,-2.1772404,0.8594370000000001,0.057295800000000015,87.54798240000002,2.40069402,-14.93128548
0.51,51,0.02,-1.018,-0.002,-2.6356068,0.572958,0.11459160000000004,87.52506408,2.40069402,-14.9255559
0.52,52,0.022,-1.019,-0.003,-2.9793816000000004,0.0,0.11459160000000004,87.49068659999998,2.40069402,-14.9255559
0.53,53,0.025,-1.018,-0.001,-3.5523396000000003,-0.6302538000000001,0.057295800000000015,87.45630911999999,2.40069402,-14.93128548
0.54,54,0.024,-1.018,0.0,-4.297185,-1.2032118,-0.057295800000000015,87.41047248,2.40069402,-14.94847422
0.55,55,0.023,-1.015,0.0,-4.9847345999999995,-1.2605076000000002,-0.1718874,87.38182458,2.38923486,-14.95993338
0.56,56,0.024,-1.016,0.002,-5.5576926,-1.0313244,-0.4010706,87.32452878000002,2.38923486,-14.97139254
0.5700000000000001,57,0.024,-1.017,0.004,-6.2452422,-0.9167328,-0.6875496,87.26150340000002,2.39496444,-14.9828517
0.5800000000000001,58,0.022,-1.016,0.006,-6.990087599999999,-0.7448454000000001,-1.145916,87.19274844,2.4064236,-14.99431086
0.59,59,0.022,-1.017,0.006,-7.9641161999999985,-0.5156622000000001,-1.7188740000000002,87.10680474,2.42361234,-15.000040439999998
0.6,60,0.023,-1.018,0.004,-9.2819196,-0.4583664000000001,-2.291832,87.03232019999999,2.44080108,-15.011499600000002
0.61,61,0.027000000000000003,-1.019,-0.001,-11.229976800000001,-0.9167328,-2.9220857999999996,86.91772859999998,2.46944898,-15.02295876
0.62,62,0.032,-1.02,-0.006999999999999999,-12.834259199999998,-1.432395,-3.2085648,86.78594826,2.49809688,-15.0401475
0.63,63,0.039,-1.022,-0.009000000000000001,-14.610429000000002,-2.1772404,-3.3231564,86.63697918,2.53247436,-15.06306582
0.64,64,0.044,-1.025,-0.008,-16.615782,-2.6356068,-3.4377480000000005,86.46509178,2.5611222600000003,-15.097443299999998
0.65,65,0.051,-1.034,-0.004,-19.1367972,-2.7501984,-3.8961144,86.27601564,2.6012293200000003,-15.126091199999998
0.66,66,0.054000000000000006,-1.051,0.002,-23.032911600000002,-2.291832,-4.5263682,86.04110286,2.64706596,-15.1547391
0.67,67,0.061,-1.074,0.0,-28.1895336,-1.4896908000000002,-5.2712136,85.75462386000002,2.6929026,-15.17765742
0.68,68,0.056,-1.091,-0.006,-35.0077338,-0.4010706,-5.5576926,85.39938989999997,2.74446882,-15.18911658
0.6900000000000001,69,0.038,-1.099,-0.004,-41.4248634,1.0886202,-5.5576926,84.98113056000003,2.79603504,-15.18911658
0.7000000000000001,70,0.021,-1.086,0.0,-43.3156248,2.9220857999999996,-4.9274388,84.54568248000002,2.84187168,-15.17192784
0.7100000000000001,71,0.006,-1.0590000000000002,-0.006,-41.9978214,7.9641161999999985,-4.3544808,84.12169356000003,2.88770832,-15.097443299999998
0.72,72,0.0,-1.03,-0.011,-39.4195104,15.183387000000002,-3.724227,83.72635254,2.93354496,-14.954203799999998
0.73,73,0.002,-1.009,-0.011,-39.0184398,22.058883,-3.0939732,83.34247067999998,2.9793816000000004,-14.74793892
0.74,74,0.027000000000000003,-0.981,-0.008,-40.2216516,27.8457588,-2.4064236,82.94140008000002,3.02521824,-14.47864866
0.75,75,0.058,-0.953,-0.026,-40.6227222,31.627281600000003,-1.0313244,82.54605906,3.0653253000000005,-14.17498092
0.76,76,0.073,-0.934,-0.062,-39.1330314,34.1482968,0.286479,82.1621772,3.0939732,-13.84266528
0.77,77,0.075,-0.923,-0.106,-36.2682414,35.2942128,0.4583664000000001,81.80694324,3.1226211000000004,-13.4931609
0.78,78,0.061,-0.907,-0.134,-34.0337052,35.9244666,0.0,81.48035718,3.1627281600000003,-13.14365652
0.79,79,0.054000000000000006,-0.884,-0.141,-32.544014399999995,36.7839036,-1.2032118,81.16523028,3.214294380000001,-12.78842256
0.8,80,0.055,-0.8640000000000001,-0.136,-31.340802600000004,37.2995658,-3.0366774,80.85583296,3.28877892,-12.4331886
0.81,81,0.048,-0.843,-0.131,-30.4813656,37.9298196,-4.9847345999999995,80.56362438,3.38618178,-12.07222506
0.8200000000000001,82,0.046,-0.8340000000000001,-0.128,-29.392745399999995,38.38818600000001,-7.2765666,80.28287496,3.50650296,-11.70553194
0.8300000000000001,83,0.041,-0.833,-0.135,-29.1635622,38.67466500000001,-9.2819196,80.00212554,3.64974246,-11.3445684
0.8400000000000001,84,0.038,-0.846,-0.14300000000000002,-29.507337,39.47680620000001,-11.6310474,79.72137612,3.82162986,-10.98360486
0.85,85,0.07,-0.8909999999999999,-0.163,-30.252182399999995,41.023792799999995,-14.4385416,79.42916754,4.022165159999999,-10.61118216
0.86,86,0.109,-0.961,-0.187,-31.2835068,40.90920120000001,-17.0168526,79.13695895999999,4.25134836,-10.24448904
0.87,87,0.131,-1.039,-0.227,-34.1482968,39.47680620000001,-18.5638392,78.8103729,4.49199072,-9.89498466
0.88,88,0.153,-1.108,-0.268,-36.669312,34.66395900000001,-17.8762896,78.45513894,4.72117392,-9.5970465
0.89,89,0.18,-1.155,-0.293,-36.955791,28.5333084,-15.2406828,78.09417540000003,4.91597964,-9.350674559999998
0.9,90,0.204,-1.162,-0.297,-34.66395900000001,22.5172494,-11.0007936,77.75613018,5.0706783,-9.15586884
0.91,91,0.195,-1.128,-0.276,-30.7678446,17.131444199999994,-5.958763200000001,77.45246244,5.1566220000000005,-9.001170179999997
0.92,92,0.13699999999999998,-1.075,-0.249,-27.6165756,12.891555,-2.1772404,77.18317218,5.19672906,-8.88657858
0.93,93,0.049,-1.016,-0.229,-28.1322378,7.2192707999999985,-0.9740286,76.90242276000002,5.21964738,-8.81782362
0.9400000000000001,94,-0.006999999999999999,-0.98,-0.205,-33.4607472,0.6302538000000001,-2.291832,76.55864796,5.23683612,-8.823553200000003
0.9500000000000001,95,-0.015,-0.955,-0.17800000000000002,-39.4195104,-2.1772404,-6.3598338,76.16330694,5.2826727600000005,-8.86366026
0.9600000000000001,96,0.008,-0.974,-0.185,-43.3156248,-2.4637194,-11.172681,75.7163997,5.38007562,-8.91522648
0.97,97,0.026,-1.055,-0.19,-44.2323576,-4.010706000000001,-13.750992000000002,75.2580333,5.4946672199999975,-8.9954406
0.98,98,0.047,-1.171,-0.154,-43.7166954,-4.7555514,-11.6310474,74.81112606,5.59207008,-9.07565472
0.99,99,0.056,-1.279,-0.091,-39.9351726,-6.990087599999999,-4.1825934,74.3985963,5.60925882,-9.15586884
1.0,100,0.043,-1.305,-0.031,-36.4974246,-9.9121734,6.589017,74.03763276000002,5.51758554,-9.24181254
1.01,101,0.026,-1.232,-0.02,-34.2055926,-13.750992000000002,16.329303,73.6823988,5.32277982,-9.33348582
1.02,102,0.003,-1.126,-0.047,-31.6845774,-16.272007199999994,22.1161788,73.35581274,5.06494872,-9.4251591
1.03,103,-0.014,-1.053,-0.077,-27.3873924,-18.7930224,25.1528562,73.06933374,4.77274014,-9.5397507
1.04,104,-0.018000000000000002,-1.01,-0.106,-24.2361234,-22.173474600000002,26.5279554,72.81723222,4.46334282,-9.67726062
1.05,105,-0.009000000000000001,-0.975,-0.123,-22.345362,-25.4393352,26.2414764,72.5937786,4.13675676,-9.84341844
1.06,106,0.011,-0.945,-0.133,-20.8556712,-28.0176462,24.064235999999998,72.37032497999998,3.82735944,-10.04395374
1.07,107,0.039,-0.915,-0.138,-19.767051,-29.621928600000004,20.1108258,72.16406009999999,3.5523396000000003,-10.26740736
1.08,108,0.049,-0.884,-0.147,-18.5638392,-30.366774000000003,15.0687954,71.9635248,3.3231564,-10.5137793
1.09,109,0.038,-0.8490000000000001,-0.153,-17.0741484,-30.4240698,10.5424272,71.78017824,3.1398098400000003,-10.771610399999998
1.1,110,0.009000000000000001,-0.8240000000000001,-0.157,-16.042824000000003,-29.392745399999995,7.161975,71.61975,2.9793816000000004,-11.0294415
1.11,111,-0.02,-0.823,-0.168,-15.813640800000002,-27.9603504,4.9847345999999995,71.44786260000002,2.84760126,-11.28154302
1.12,112,-0.052000000000000005,-0.8340000000000001,-0.171,-15.985528200000001,-26.356068,3.8388186,71.27597519999998,2.73300966,-11.5164558
1.1300000000000001,113,-0.07200000000000001,-0.867,-0.166,-17.8189938,-23.491278,2.7501984,71.08689906,2.6356068,-11.73417984
1.1400000000000001,114,-0.083,-0.903,-0.159,-19.480572,-21.4286292,1.6615782,70.88636376,2.55539268,-11.934715140000002
1.1500000000000001,115,-0.079,-0.946,-0.147,-20.9702628,-20.626488,0.5156622000000001,70.69155803999998,2.46944898,-12.12952086
1.1600000000000001,116,-0.055,-0.957,-0.128,-23.7204612,-20.340009,-0.7448454000000001,70.44518609999999,2.41215318,-12.330056160000002
1.17,117,-0.014,-0.952,-0.105,-24.2361234,-21.3713334,-1.8907613999999997,70.19308457999999,2.36058696,-12.53632104
1.18,118,0.028,-0.968,-0.081,-22.631841,-24.5798982,-2.3491278,69.9581718,2.30329116,-12.7769634
1.19,119,0.063,-1.014,-0.055,-23.5485738,-28.8770832,-2.3491278,69.71179986,2.2345362,-13.05771282
1.2,120,0.091,-1.09,-0.046,-25.0382646,-33.403451399999994,-2.1199446,69.48261666,2.1485925000000003,-13.390028460000002
1.21,121,0.109,-1.209,0.044,-25.0382646,-37.6433406,-1.6042823999999998,69.21905598,2.03973048,-13.74526242
1.22,122,0.114,-1.29,0.096,-31.51269000000001,-43.258329,-0.4010706,68.89246992,1.89649098,-14.15779218
1.23,123,0.075,-1.293,0.099,-40.2789474,-56.436363,0.5156622000000001,68.47421058,1.70168526,-14.684913540000002
1.24,124,0.0,-1.288,0.013,-46.696077,-70.76031300000002,0.572958,67.98719628,1.44958374,-15.34381524
1.25,125,0.0,-1.3119999999999998,-0.097,-48.7587258,-76.48989300000002,1.3750992,67.50018198000001,1.16310474,-16.04855358
1.26,126,0.086,-1.305,-0.14,-50.133825,-77.17744259999998,3.3231564,66.99024935999999,0.8479778399999999,-16.753291920000002
1.27,127,0.156,-1.286,-0.224,-48.2430636,-83.4226848,7.333862400000001,66.50323506,0.46982556,-17.492407739999994
1.28,128,0.165,-1.257,-0.234,-44.8053156,-93.965112,13.6936962,66.05632782,0.0,-18.30027852
1.29,129,0.08800000000000001,-1.21,-0.217,-42.28430039999999,-104.3929476,19.194093,65.64379806000001,-0.5786875800000001,-19.18263384
1.3,130,-0.053,-1.162,-0.162,-40.6227222,-113.445684,22.058883,65.27137536000001,-1.22040054,-20.12801454
1.31,131,-0.233,-1.099,-0.17800000000000002,-35.0650296,-116.76884040000002,23.7204612,64.96197803999999,-1.89649098,-21.09631356
1.32,132,-0.361,-1.061,-0.188,-18.7357266,-115.1072622,23.777757,64.82446811999999,-2.56685184,-22.04169426
1.33,133,-0.488,-1.041,-0.194,-8.9954406,-106.856667,21.3713334,64.79009063999999,-3.18564648,-22.91832
1.34,134,-0.56,-1.02,-0.188,3.6669312000000014,-95.28291540000001,17.131444199999994,64.88749349999999,-3.71276784,-23.71473162
1.35,135,-0.614,-1.011,-0.14,16.8449652,-79.75575359999998,12.032117999999999,65.13386544,-4.16540466,-24.39655164
1.36,136,-0.6509999999999999,-1.022,-0.071,26.7571386,-61.87946400000001,5.3858052,65.45472192,-4.45188366,-24.93513216
1.37,137,-0.685,-1.031,-0.04,32.7731976,-43.3729206,-2.0053530000000004,65.82141504,-4.59512316,-25.33620276
1.3800000000000001,138,-0.684,-1.127,-0.196,31.111619399999995,-27.2728008,-7.906820400000001,66.16518984000001,-4.6180414800000005,-25.61695218
1.3900000000000001,139,-0.7170000000000001,-1.358,-0.649,24.1215318,-20.912967,-12.261301199999998,66.4344801,-4.5836640000000015,-25.85759454
1.4000000000000001,140,-0.705,-1.521,-0.989,15.2406828,-32.6013102,-9.740286,66.61782666,-4.6180414800000005,-26.19563976
1.4100000000000001,141,-0.591,-1.413,-0.928,1.4896908000000002,-31.913760600000003,-4.1252976000000015,66.65793372,-4.69252602,-26.50503708
1.42,142,-0.239,-1.0659999999999998,-0.624,-8.7089616,7.8495246,-4.8128472,66.56626044,-4.62377106,-26.45347086
1.43,143,0.227,-0.612,-0.3720000000000001,-18.621135,52.8840234,-17.8189938,66.33707724,-4.2685371,-26.03521152
1.44,144,0.387,-0.28300000000000003,-0.499,-31.22621100000001,71.21867940000001,-32.7159018,65.97611370000001,-3.70703826,-25.51954932
1.45,145,0.202,-0.18,-0.7509999999999999,-32.945085,70.35924240000001,-38.5027776,65.55785436,-3.0825140400000004,-25.0382646
1.46,146,0.01,-0.274,-0.853,-33.6326346,64.62966239999999,-32.7731976,65.18543166,-2.54393352,-24.58562778000001
1.47,147,-0.19,-0.484,-0.7909999999999999,-27.5592798,59.0719698,-18.907614000000002,64.88176392,-2.14286292,-24.13299096
1.48,148,-0.312,-0.71,-0.6559999999999999,-12.3758928,54.08723520000001,-2.4064236,64.73279484,-1.90795014,-23.65170624000001
1.49,149,-0.318,-0.9,-0.57,-5.958763200000001,50.0765292,7.7349330000000025,64.64685114,-1.78189938,-23.16469194
1.5,150,-0.236,-1.008,-0.527,-4.297185,53.456981400000004,6.8182002000000015,64.57809618,-1.6386598799999998,-22.654759320000004
1.51,151,-0.124,-1.047,-0.489,-6.875496000000001,61.07732280000001,-1.7761698,64.48642290000001,-1.38082878,-22.11044922
1.52,152,0.02,-0.998,-0.463,-14.0947668,68.2965936,-13.9228794,64.32026508,-0.98548776,-21.55467996
1.53,153,0.172,-0.92,-0.438,-22.2880662,73.10944079999999,-24.4653066,64.07962272,-0.46982556,-20.9989107
1.54,154,0.29100000000000004,-0.92,-0.435,-24.4080108,74.82831479999999,-30.194886600000004,63.81606204,0.09740286,-20.46033018
1.55,155,0.329,-1.023,-0.424,-21.1421502,73.51051140000001,-28.934379,63.598338,0.6703608600000001,-19.927479240000004
1.56,156,0.28300000000000003,-1.123,-0.382,-18.5065434,65.8328742,-24.1788276,63.40926186,1.1573751600000002,-19.44619452
1.57,157,0.219,-1.153,-0.35200000000000004,-17.8762896,57.92605379999999,-22.459953600000002,63.23164488,1.59855282,-19.02793518
1.58,158,0.141,-1.171,-0.353,-13.9228794,55.290447,-25.3247436,63.09413496000001,2.05691922,-18.649782899999998
1.59,159,0.058,-1.22,-0.382,-10.6570188,58.67089920000001,-31.8564648,62.99100252,2.58404058,-18.26590104
1.6,160,-0.018000000000000002,-1.3,-0.406,-8.136003599999999,66.23394479999999,-39.0184398,62.92797714000001,3.2085648000000004,-17.85337128
1.61,161,-0.073,-1.393,-0.402,-5.042030400000002,72.479187,-43.1437374,62.89359966000001,3.90184398,-17.40073446
1.62,162,-0.118,-1.469,-0.378,-0.9740286,75.68775179999999,-42.28430039999999,62.90505882,4.59512316,-16.91372016
1.6300000000000001,163,-0.102,-1.5319999999999998,-0.338,2.4064236,77.46392159999998,-35.3515086,62.96808420000001,5.23683612,-16.37513964
1.6400000000000001,164,-0.021,-1.558,-0.278,2.8074942000000003,77.92228800000002,-22.1161788,63.04256874,5.76395748,-15.779263320000002
1.6500000000000001,165,0.067,-1.546,-0.252,3.8961144,78.4379502,-9.2819196,63.14570118,6.17648724,-15.11463204
1.6600000000000001,166,0.123,-1.503,-0.264,9.9121734,80.5578948,1.8907613999999997,63.317588580000006,6.5030733,-14.381245800000002
1.6700000000000002,167,0.142,-1.414,-0.278,16.501190400000002,83.7091638,10.026765,63.56969010000001,6.760904399999999,-13.5791046
1.68,168,0.127,-1.305,-0.306,24.064235999999998,88.35012359999996,14.4385416,63.90773531999999,7.001546759999999,-12.71393802
1.69,169,0.107,-1.195,-0.35700000000000004,32.2002396,97.4601558,16.329303,64.33745382,7.259377859999999,-11.75709816
1.7,170,0.131,-1.091,-0.423,37.8725238,106.79937120000001,17.4179232,64.84738644000001,7.534397699999999,-10.70285544
1.71,171,0.227,-0.949,-0.449,40.966497,107.3150334,17.8762896,65.39169654,7.792228800000001,-9.64288314
1.72,172,0.341,-0.7929999999999999,-0.402,50.420304,87.66257399999998,15.527161800000002,66.01049118,7.9927641,-8.77198698
1.73,173,0.464,-0.672,-0.302,57.86875799999999,68.6403684,11.2872726,66.68658162,8.15319234,-8.08443738
1.74,174,0.585,-0.56,-0.227,62.6243094,51.1651494,7.5057497999999985,67.38559038,8.2792431,-7.574504760000001
1.75,175,0.648,-0.493,-0.16899999999999998,64.4004792,31.79916900000001,8.4224826,68.08459914,8.3651868,-7.2479187
1.76,176,0.604,-0.461,-0.149,62.2805346,6.760904399999999,14.667724800000002,68.73777126,8.25632478,-7.12759752
1.77,177,0.555,-0.391,-0.103,58.38442020000001,-21.1421502,24.5798982,69.31645884000001,7.96984578,-7.23645954
1.78,178,0.521,-0.273,-0.049,59.35844880000001,-40.2789474,33.8618178,69.88941684,7.5286681200000025,-7.49429064
1.79,179,0.478,-0.151,-0.107,61.7075766,-52.8840234,43.20103320000001,70.47956358,6.96716928,-7.84379502
1.8,180,0.402,-0.023,-0.207,66.80690279999999,-85.7145168,50.5348956,71.08689906,6.26243094,-8.49696714
1.81,181,0.341,0.054000000000000006,-0.239,71.8489332,-117.6282774,49.7900502,71.7343416,5.46028974,-9.453807
1.82,182,0.208,-0.011,-0.374,55.6915176,-145.0729656,41.9978214,72.20989674,4.66387812,-10.69712586
1.83,183,0.162,-0.091,-0.43,33.403451399999994,-134.0148762,27.8457588,72.479187,4.0393539,-11.8888785
1.84,184,0.222,-0.246,-0.562,17.4179232,-95.397507,8.7662574,72.61096734,3.70130868,-12.77123382
1.85,185,0.215,-0.537,-0.768,18.048177,-40.966497,-16.558486199999994,72.71409978,3.75860448,-13.21814106
1.86,186,-0.215,-1.233,-0.884,23.777757,-10.8289062,-51.7954032,72.93755340000001,4.22270046,-13.47024258
1.87,187,-1.063,-1.632,-0.378,36.2682414,-29.621928600000004,-87.26150340000002,73.26986904,4.97900502,-14.003093519999998
1.8800000000000001,188,-1.074,-0.981,-0.098,-10.0840608,-56.78013780000001,-55.9779966,73.10944079999999,5.3628868800000005,-14.707831860000002
1.8900000000000001,189,-0.6759999999999999,-0.752,-0.361,-26.929026,-45.263682,-25.8977016,72.78858432000001,5.48893764,-15.21776448
1.9000000000000001,190,-0.39,-0.969,-0.539,-10.599723,-28.074942,-13.6936962,72.63388566,5.50612638,-15.53289138
1.9100000000000001,191,-0.071,-1.269,-0.436,1.0886202,-8.307891,-7.161975,72.63961524,5.5519630200000005,-15.63602382
1.9200000000000002,192,0.244,-1.476,-0.294,3.151269,8.5370742,2.6356068,72.67972230000002,5.54623344,-15.54435054
1.93,193,0.536,-1.466,-0.21,8.3651868,14.8396122,12.0894138,72.77712516,5.4717489000000015,-15.36673356
1.94,194,0.647,-1.346,-0.255,12.6623718,2.8074942000000003,18.5638392,72.91463508000002,5.30559108,-15.28078986
1.95,195,0.527,-1.233,-0.34,6.0733548,-20.912967,21.772404,72.9662013,5.06494872,-15.418299779999998
1.96,196,0.277,-1.173,-0.33,-8.651665800000002,-45.550161,18.2200644,72.85160970000003,4.76701056,-15.80218164
1.97,197,0.064,-1.135,-0.301,-19.480572,-52.0245864,10.7143146,72.62815608,4.5263682,-16.272007199999994
1.98,198,-0.086,-1.09,-0.3,-26.814434400000003,-51.0505578,2.6929026,72.32448833999999,4.36021038,-16.753291920000002
1.99,199,-0.175,-1.054,-0.287,-30.0229992,-45.1490904,-3.8961144,71.99217270000003,4.2685371,-17.19446958
2.0,200,-0.193,-1.055,-0.282,-30.65325300000001,-37.1849742,-7.448453999999999,71.65985706000002,4.20551172,-17.57835144
2.01,201,-0.14800000000000002,-1.069,-0.269,-28.81978740000001,-29.8511118,-5.958763200000001,71.35045973999998,4.17113424,-17.88201918
2.02,202,-0.064,-1.07,-0.225,-25.4393352,-23.6631654,0.7448454000000001,71.07543989999998,4.09092012,-18.1054728
2.03,203,0.02,-1.038,-0.18,-26.069589,-19.0795014,12.1467096,70.80614964,3.9190327200000006,-18.2487123
2.04,204,0.064,-0.983,-0.201,-29.8511118,-22.8037284,24.923673,70.49675232,3.61536498,-18.38622222
2.05,205,0.095,-0.928,-0.2,-31.971056400000002,-28.4187168,32.8877892,70.17589584,3.22002396,-18.54665046
2.0599999999999996,206,0.133,-0.89,-0.203,-33.2888598,-33.3461556,38.67466500000001,69.83212104,2.7501984,-18.7357266
2.07,207,0.125,-0.8759999999999999,-0.196,-37.757932200000006,-35.809875,40.737313799999995,69.44823918,2.25172494,-18.936261899999998
2.0799999999999996,208,0.11,-0.857,-0.236,-42.685371,-36.38283300000001,38.8465524,69.0127911,1.77044022,-19.14252678
2.09,209,0.087,-0.875,-0.279,-44.2896534,-37.9298196,35.122325399999994,68.56015427999999,1.31207382,-19.37170998
2.0999999999999996,210,0.042,-0.879,-0.28300000000000003,-42.7426668,-38.4454818,31.3980984,68.13043578,0.8880849000000001,-19.61808192
2.11,211,-0.015,-0.923,-0.343,-39.47680620000001,-38.1590028,28.7051958,67.73509476,0.4870143000000001,-19.87018344
2.1199999999999997,212,-0.068,-0.942,-0.34700000000000003,-33.403451399999994,-37.0703826,27.215505,67.39704954,0.10313244,-20.1108258
2.13,213,-0.141,-0.968,-0.297,-28.1895336,-32.7731976,26.356068,67.11630012,-0.25783110000000004,-20.31709068
2.1399999999999997,214,-0.203,-0.968,-0.294,-28.7051958,-26.069589,24.8663772,66.82982111999999,-0.5786875800000001,-20.46033018
2.15,215,-0.25,-0.957,-0.277,-25.3247436,-15.756345000000001,23.032911600000002,66.59490833999999,-0.8880849000000001,-20.52335556
2.1599999999999997,216,-0.282,-0.928,-0.215,-19.5378678,-0.572958,20.2254174,66.39437303999999,-1.07716104,-20.454600600000006
2.17,217,-0.334,-0.878,-0.193,-12.1467096,14.896907999999998,16.2147114,66.26832228,-1.1745638999999999,-20.2540653
2.1799999999999997,218,-0.365,-0.818,-0.174,-2.4064236,28.361421000000004,12.318597,66.2339448,-1.18029348,-19.94466798
2.19,219,-0.385,-0.731,-0.12,10.6570188,39.4195104,9.5111028,66.32561808,-1.1172681,-19.54359738
2.1999999999999997,220,-0.38,-0.773,0.027000000000000003,24.350715,41.9405256,5.1566220000000005,66.60063792000001,-1.04851314,-19.15398594
2.21,221,-0.36,-0.851,-0.18,22.5172494,45.550161,9.453807000000001,66.81263238,-0.96256944,-18.69561954
2.2199999999999998,222,-0.377,-1.055,-0.491,18.449247600000003,71.33327100000002,20.168121600000006,66.97879019999999,-0.8880849000000001,-17.95650372
2.23,223,-0.179,-1.361,-0.7509999999999999,-1.3750992,82.7351352,31.2835068,66.94441271999999,-0.87662574,-17.0741484
2.2399999999999998,224,-0.08900000000000001,-1.419,-0.815,-13.2353298,53.456981400000004,45.6074568,66.78971406,-1.10007936,-16.409517119999997
2.25,225,0.034,-1.187,-0.775,-13.980175199999998,40.10706,43.9458786,66.61782666,-1.35218088,-15.8709366
2.26,226,0.265,-0.807,-0.5429999999999999,-20.1108258,45.8939358,29.5646328,66.39437303999999,-1.45531332,-15.33235608
2.27,227,0.463,-0.591,-0.5920000000000001,-24.1215318,58.9000824,8.479778399999999,66.13081236,-1.31207382,-14.75939808
2.28,228,0.433,-0.53,-0.8029999999999999,-26.929026,68.1247062,-12.2040054,65.8328742,-0.95111028,-14.18644008
2.29,229,0.232,-0.606,-0.862,-17.4179232,63.7702254,-19.308684600000007,65.64379806000001,-0.53285094,-13.687966619999996
2.3,230,0.042,-0.8759999999999999,-0.7609999999999999,-9.453807000000001,57.1239126,-17.9908812,65.51774730000001,-0.15469866,-13.24105938
2.31,231,-0.075,-1.157,-0.65,-4.5263682,50.0765292,-14.4385416,65.46618108,0.16615782,-12.84571836
2.32,232,-0.191,-1.272,-0.531,-4.1825934,43.0864416,-10.026765,65.41461486,0.42398892,-12.4904844
2.3299999999999996,233,-0.281,-1.177,-0.487,-6.8182002000000015,43.7166954,-4.2398892,65.3458599,0.6302538000000001,-12.11233212
2.34,234,-0.276,-1.016,-0.459,-4.8128472,49.847346,-1.432395,65.29429368000001,0.83651868,-11.66542488
2.3499999999999996,235,-0.184,-0.871,-0.406,-4.010706000000001,57.86875799999999,-2.6929026,65.24845703999999,1.06570188,-11.149762679999998
2.36,236,-0.085,-0.792,-0.376,-4.9274388,66.9214944,-5.1566220000000005,65.2026204,1.36936962,-10.56534552
2.3699999999999997,237,-0.009000000000000001,-0.768,-0.328,-3.6096354,70.93220040000001,-5.9014674000000005,65.17397249999999,1.70168526,-9.94655088
2.38,238,0.044,-0.7559999999999999,-0.297,-2.6929026,74.771019,-5.3285094000000015,65.15678376,2.03973048,-9.28764918
2.3899999999999997,239,0.073,-0.735,-0.275,-1.145916,79.4119788,-3.8961144,65.16251334,2.38350528,-8.58291084
2.4,240,0.086,-0.7070000000000001,-0.258,0.4583664000000001,83.5945722,-2.86479,65.19116124,2.74446882,-7.8323358600000015
2.4099999999999997,241,0.079,-0.679,-0.257,2.291832,89.6106312,-2.1199446,65.24845703999999,3.11116194,-7.0244650800000015
2.42,242,0.053,-0.6459999999999999,-0.253,3.2085648,96.0850566,-1.6615782,65.31721200000001,3.50077338,-6.1592985
2.4299999999999997,243,-0.01,-0.605,-0.235,3.0939732,101.7573408,-0.6302538000000001,65.39169654,3.90184398,-5.231106540000001
2.44,244,-0.068,-0.555,-0.211,2.1199446,107.4869208,0.7448454000000001,65.47191066,4.30864416,-4.25134836
2.4499999999999997,245,-0.106,-0.514,-0.185,2.1772404,110.4663024,2.3491278,65.56358394,4.6982555999999995,-3.2314831199999987
2.46,246,-0.109,-0.4920000000000001,-0.165,2.1772404,112.24247220000001,3.8388186,65.6609868,5.0935966200000005,-2.18869956
2.4699999999999998,247,-0.075,-0.495,-0.153,1.6615782,111.61221840000002,5.2712136,65.75838966,5.4717489000000015,-1.1459160000000002
2.48,248,-0.011,-0.532,-0.14,0.6875496,109.4922738,6.6463128000000005,65.85006294,5.8269828599999975,-0.11459160000000004
2.4899999999999998,249,0.073,-0.5870000000000001,-0.142,0.0,106.0545258,7.6776372,65.94173622000001,6.1592985,0.8880849000000001
2.5,250,0.165,-0.665,-0.147,-0.572958,100.9551996,8.479778399999999,66.03913908,6.474425399999999,1.85065434
2.51,251,0.248,-0.763,-0.15,-1.2032118,97.2309726,9.740286,66.1193532,6.74944524,2.78457588
2.52,252,0.315,-0.851,-0.155,-1.3178034,95.7985776,11.745639,66.20529690000001,7.001546759999999,3.71276784
2.53,253,0.37,-0.924,-0.16899999999999998,-1.0313244,96.543423,14.495837400000001,66.29697017999999,7.2307299600000015,4.66387812
2.54,254,0.403,-0.989,-0.185,-0.057295800000000015,97.689339,16.501190400000002,66.41156178,7.4427244199999985,5.63217714
2.55,255,0.407,-1.052,-0.207,-0.572958,96.543423,18.621135,66.53188295999999,7.64325972,6.5947465800000025
2.56,256,0.379,-1.104,-0.237,0.11459160000000004,94.13699940000001,20.9702628,66.64647456,7.79795838,7.551586439999999
2.57,257,0.333,-1.144,-0.255,1.5469866,89.4387438,23.14750320000001,66.77825490000001,7.91254998,8.47404882
2.5799999999999996,258,0.28800000000000003,-1.17,-0.236,3.0939732,85.48533359999998,25.3247436,66.9214944,7.9927641,9.3678633
2.59,259,0.228,-1.186,-0.197,4.7555514,84.1675302,29.0489706,67.08192264,8.03287116,10.26167778
2.5999999999999996,260,0.179,-1.215,-0.16,8.136003599999999,83.5945722,33.518043,67.29964668,8.021412,11.172681
2.61,261,0.158,-1.225,-0.145,8.136003599999999,85.1988546,38.7319608,67.50018198000001,7.96984578,12.11233212
2.6199999999999997,262,0.19,-1.23,-0.146,6.589017,86.7458412,44.8626114,67.6949877,7.860983760000001,13.0920903
2.63,263,0.245,-1.225,-0.163,6.5317212,87.66257399999998,51.3943326,67.88406384,7.6948259399999985,14.10622596
2.6399999999999997,264,0.313,-1.214,-0.16,8.7089616,86.2874748,57.2958,68.09605830000001,7.46564274,15.126091199999998
2.65,265,0.383,-1.1909999999999998,-0.122,11.4018642,81.7038108,62.2805346,68.34243024000001,7.17916374,16.12303812
2.6599999999999997,266,0.458,-1.162,-0.111,13.980175199999998,75.45856859999998,65.7755784,68.59453176,6.829659359999999,17.068418819999998
2.67,267,0.54,-1.098,-0.102,18.7357266,67.5517482,67.3798608,68.87528118,6.43431834,17.95077414
2.6799999999999997,268,0.5579999999999999,-1.1,-0.151,23.491278,55.576926,66.463128,69.19040808,5.99887026,18.7070787
2.69,269,0.557,-1.205,-0.405,22.6891368,56.436363,62.051351399999994,69.49407582,5.60925882,19.45765368
2.6999999999999997,270,0.5720000000000001,-1.35,-0.608,16.558486199999994,64.22859179999999,53.628868800000006,69.72325902,5.32277982,20.24833572
2.71,271,0.542,-1.452,-0.75,5.6722842,59.35844880000001,43.258329,69.83785062,5.10505578,20.95307406
2.7199999999999998,272,0.4270000000000001,-1.489,-0.723,0.0,54.20182679999999,32.0283522,69.88941684,4.97900502,21.571868700000003
2.73,273,0.264,-1.372,-0.638,-5.443101,46.123119,26.4706596,69.8722281,4.87587258,22.09899006
2.7399999999999998,274,0.11,-1.135,-0.485,-4.7555514,40.2789474,28.4760126,69.85503936,4.73263308,22.5745452
2.75,275,0.07200000000000001,-0.8340000000000001,-0.47,-1.432395,43.48751220000001,32.945085,69.85503936,4.56647526,23.090207400000004
2.76,276,0.095,-0.66,-0.496,1.145916,53.571573,32.544014399999995,69.90660558,4.42896534,23.70327246
2.77,277,0.147,-0.67,-0.569,0.9167328,62.738901,29.507337,69.96390138000001,4.34875122,24.39655164
2.78,278,0.161,-0.77,-0.605,-2.9793816000000004,65.3745078,27.215505,69.97536054,4.297185000000002,25.10128998
2.79,279,0.121,-0.899,-0.575,-6.2452422,64.6869582,28.2468294,69.9581718,4.23415962,25.80602832
2.8,280,0.047,-1.023,-0.5710000000000001,-7.2192707999999985,60.905435399999995,33.3461556,69.91233516,4.10810886,26.49357792
2.81,281,-0.015,-1.096,-0.54,-6.589017,58.2125328,39.9351726,69.88941684,3.9190327200000006,27.17539794
2.82,282,-0.067,-1.092,-0.523,-5.2712136,57.00932099999999,45.0917946,69.8722281,3.67839036,27.862947540000004
2.8299999999999996,283,-0.155,-1.004,-0.481,-5.958763200000001,59.4157446,46.123119,69.84930978,3.43201842,28.579145040000004
2.84,284,-0.245,-0.913,-0.439,-11.3445684,67.895523,43.48751220000001,69.76909565999999,3.2372127,29.35836792
2.8499999999999996,285,-0.28300000000000003,-0.868,-0.4,-14.32395,76.54718879999999,40.10706,69.66023364,3.0825140400000004,30.212075339999995
2.86,286,-0.266,-0.8740000000000001,-0.37,-14.0947668,87.26150340000002,36.4974246,69.55137162,3.01948866,31.15172646000001
2.8699999999999997,287,-0.227,-0.908,-0.306,-10.3705398,97.975818,34.091001,69.48834624,3.0137590800000003,32.18878044
2.88,288,-0.18,-0.942,-0.251,-6.016058999999999,106.0545258,33.9191136,69.47115749999999,3.0366774000000003,33.30031896000001
2.8899999999999997,289,-0.136,-0.949,-0.239,-4.2398892,110.9246688,35.0650296,69.47688708,3.0653253000000005,34.45769412
2.9,290,-0.084,-0.937,-0.21,-1.7761698,114.13323359999998,36.2109456,69.51699414,3.08824362,35.64944676000001
2.9099999999999997,291,-0.015,-0.909,-0.193,-0.4010706,114.93537479999999,36.8411994,69.56283078,3.11116194,36.85265856
2.92,292,0.051,-0.841,-0.195,0.8594370000000001,114.4197126,38.1590028,69.62012658,3.1226211000000004,38.06159994
2.9299999999999997,293,0.079,-0.7709999999999999,-0.202,2.2345362,113.96134620000001,40.4508348,69.69461112,3.1054323600000004,39.26481174
2.94,294,0.078,-0.71,-0.21600000000000005,3.6669312000000014,115.56562859999998,44.06047020000001,69.7862844,3.0653253000000005,40.50240102
2.9499999999999997,295,0.058,-0.6659999999999999,-0.224,5.3858052,121.2379128,47.9565846,69.89514642,2.9965703400000003,41.80301568
2.96,296,0.025,-0.633,-0.23,5.2712136,129.8895786,50.3057124,70.00400843999999,2.93354496,43.19530362
2.9699999999999998,297,-0.019,-0.613,-0.23,5.2712136,137.45262419999997,49.3316838,70.11287046,2.90489706,44.650616940000006
2.98,298,-0.067,-0.614,-0.226,6.4744254,142.7238378,45.8939358,70.23892122,2.91635622,46.14603732
2.9899999999999998,299,-0.094,-0.643,-0.228,8.9954406,145.58862779999995,40.8519054,70.38789030000002,2.9793816000000004,47.65291686
3.0,300,-0.087,-0.672,-0.2,12.3758928,147.8804598,35.236917,70.57696644,3.0939732,49.16552598
3.01,301,-0.068,-0.705,-0.18,14.495837400000001,147.536685,33.9764094,70.7889609,3.22002396,50.66667594
3.02,302,-0.059,-0.73,-0.193,15.469866,145.244853,35.9817624,71.01241452000002,3.31742682,52.15636674
3.03,303,-0.056,-0.758,-0.192,16.558486199999994,143.35409159999998,40.4508348,71.24732730000002,3.36326346,53.64032796
3.04,304,-0.039,-0.7979999999999999,-0.194,17.9335854,142.953021,46.00852740000001,71.49942881999998,3.34607472,55.14147792
3.05,305,-0.037000000000000005,-0.838,-0.2,19.8243468,141.807105,51.3943326,71.76871908,3.26013102,56.64835746
3.06,306,-0.036000000000000004,-0.8959999999999999,-0.188,22.5745452,141.1195554,54.94667220000001,72.06665724,3.1398098400000003,58.155237
3.07,307,-0.05,-0.933,-0.177,24.694489800000003,139.6871604,56.8947294,72.38178414,2.99084076,59.656386960000006
3.08,308,-0.065,-0.962,-0.177,29.392745399999995,137.3953284,57.63957480000001,72.7370181,2.81895336,61.14034818
3.09,309,-0.061,-1.015,-0.172,33.5753388,136.5931872,57.983349600000004,73.13235912,2.62987722,62.61285024
3.0999999999999996,310,-0.05,-1.035,-0.171,35.9244666,136.4212998,58.72819499999999,73.54488888,2.42361234,64.0853523
3.11,311,-0.035,-1.057,-0.155,37.6433406,135.73375019999997,59.93140680000001,73.97460738,2.19442914,65.55212478000001
3.1199999999999997,312,-0.016,-1.09,-0.152,39.0184398,132.8689602,61.24921020000001,74.40432588,1.93659804,66.99597894
3.13,313,-0.013,-1.077,-0.142,41.9978214,127.769634,61.8221682,74.8569627,1.65011904,68.38826688
3.1399999999999997,314,-0.014,-1.074,-0.124,44.5761324,122.26923719999999,61.30650600000001,75.32678826,1.34072172,69.72325902
3.15,315,-0.057,-1.053,-0.104,45.0917946,116.310474,60.0459984,75.80807297999998,1.01986524,70.99522578
3.1599999999999997,316,-0.117,-1.043,-0.01,45.263682,112.299768,57.58227899999999,76.27216896,0.7104679199999999,72.2213559
3.17,317,-0.184,-1.0659999999999998,0.08800000000000001,41.3675676,109.6068654,53.7434604,76.68469872,0.41825934,73.40737895999997
3.1799999999999997,318,-0.28800000000000003,-1.056,0.117,40.2789474,107.8879914,46.8106686,77.0914989,0.18334656,74.55902454
3.19,319,-0.387,-1.044,0.016,43.544808,117.6282774,37.9298196,77.51548782,0.04010706,75.78515466
3.1999999999999997,320,-0.455,-1.004,-0.038,50.76407879999999,138.2547654,28.4760126,78.01969086,0.00572958,77.18890176
3.21,321,-0.501,-1.004,-0.044,61.87946400000001,162.8346636,18.9649098,78.63275592,0.10886202,78.82183205999998
3.2199999999999998,322,-0.542,-1.035,-0.017,74.7137232,189.362619,8.7662574,79.37187173999997,0.33804522,80.68967513999998
3.23,323,-0.575,-1.058,0.033,84.11023440000002,219.15643500000002,-2.6356068,80.21412000000002,0.69900876,82.83826764
3.2399999999999998,324,-0.589,-1.114,0.097,80.21412,250.382646,-8.479778399999999,81.03344994,1.12299768,85.2847983
3.25,325,-0.449,-1.258,0.053,54.029939399999996,274.733361,-7.448453999999999,81.61213752,1.52979786,87.97197132
3.26,326,-0.155,-1.4509999999999998,-0.177,23.204799,287.6249160000001,2.6929026,81.89288694,1.8334656000000005,90.80238384
3.27,327,0.222,-1.6780000000000002,-0.458,4.583664,282.8120688,23.6058696,81.99601937999998,1.91367972,93.61560762
3.28,328,0.636,-1.429,-0.511,21.3713334,276.165756,44.8053156,82.26530964,1.7761698,96.39445392000002
3.29,329,0.866,-0.902,-0.32,45.3782736,275.879277,53.9726436,82.76951268,1.52979786,99.1790298
3.3,330,0.763,-0.488,-0.133,48.1857678,258.80512860000005,54.14453099999999,83.29090446000002,1.2605076000000002,101.79171827999998
3.31,331,0.5329999999999999,-0.334,-0.06,49.4462754,231.41773619999998,46.00852740000001,83.80656666,1.0026765,104.12938692
3.32,332,0.304,-0.5710000000000001,0.122,47.9565846,201.39473700000002,37.41415739999999,84.29931054,0.7906820400000001,106.15192866
3.33,333,0.127,-0.929,0.284,40.164355799999996,186.9561954,33.3461556,84.70611072,0.59014674,108.0312309
3.34,334,0.058,-1.287,0.433,26.2414764,187.01349119999998,34.5493674,84.96394182,0.36669312,109.91053314
3.3499999999999996,335,0.095,-1.538,0.377,18.1054728,194.80572,41.4821592,85.13582922,0.06875496,111.87004949999998
3.36,336,0.248,-1.609,0.375,20.912967,193.2014376,48.987909,85.31917578,-0.30366774,113.8181067
3.3699999999999997,337,0.379,-1.483,0.386,8.136003599999999,192.0555216,50.420304,85.35928284,-0.69900876,115.75470474
3.38,338,0.481,-1.3159999999999998,0.256,2.578311,197.4413268,50.6494872,85.33063494000002,-1.09434978,117.742869
3.3899999999999997,339,0.573,-1.179,0.109,-1.6615782,195.3213822,45.4928652,85.24469124,-1.44385416,119.70811494
3.4,340,0.627,-1.104,0.158,-4.1825934,193.373325,43.0864416,85.13009964,-1.74179232,121.65044256
3.4099999999999997,341,0.588,-1.09,0.187,-5.0993262,194.29005780000003,45.3782736,84.98686014,-2.07983754,123.60422934
3.42,342,0.446,-1.095,0.149,-6.875496000000001,193.659804,49.1597964,84.81497274,-2.45226024,125.55801612
3.4299999999999997,343,0.299,-1.064,0.135,-5.2712136,189.7636896,49.7327544,84.64881491999998,-2.81895336,127.47742542
3.44,344,0.18600000000000005,-1.035,0.124,-5.1566220000000005,182.773602,47.8992888,84.47119794,-3.1741873200000006,129.32235018
3.4499999999999997,345,0.14800000000000002,-0.967,0.086,-7.6203414,174.00734459999995,45.8939358,84.27639222,-3.50077338,131.08706082
3.46,346,0.149,-0.912,0.06,-7.7349330000000025,166.90266540000005,45.4928652,84.07012734,-3.82735944,132.77728692
3.4699999999999998,347,0.155,-0.8759999999999999,0.039,-5.844171599999999,162.0325224,45.263682,83.87532162,-4.1539455,134.42740596
3.48,348,0.156,-0.86,0.02,-2.1772404,157.849929,42.685371,83.7091638,-4.44615408,136.03168836
3.4899999999999998,349,0.172,-0.8640000000000001,0.014,-1.7188740000000002,156.3602382,36.38283300000001,83.54873556,-4.68106686,137.61305244
3.5,350,0.193,-0.866,0.011,-4.583664,155.32891379999995,27.444688199999998,83.35392984,-4.80138804,139.17722778
3.51,351,0.219,-0.877,0.03,-10.255948199999999,152.97978600000005,18.8503182,83.10182832,-4.85295426,140.70702564
3.52,352,0.236,-0.861,0.024,-18.5638392,148.396122,12.261301199999998,82.76951268,-4.83576552,142.19098686
3.53,353,0.239,-0.8240000000000001,0.02,-24.0069402,141.9789924,7.333862400000001,82.38563081999997,-4.76701056,143.59473396
3.54,354,0.212,-0.804,0.029,-26.1841806,137.1088494,3.8388186,81.9902898,-4.66387812,144.95264442
3.55,355,0.168,-0.7979999999999999,0.031,-27.8457588,130.34794499999998,0.572958,81.59494878,-4.50917946,146.23034076
3.56,356,0.129,-0.799,0.047,-25.8977016,120.8368422,-1.8907613999999997,81.22825566,-4.34302164,147.41636382
3.57,357,0.099,-0.8390000000000001,0.081,-25.210152,113.33109240000002,-4.1825934,80.87302170000002,-4.16540466,148.52217276000005
3.58,358,0.09,-0.883,0.12,-30.0229992,110.2371192,-7.8495246,80.47768067999998,-3.94195104,149.58787464
3.59,359,0.145,-0.899,0.127,-36.2109456,111.2684436,-13.5791046,80.02504386000003,-3.65547204,150.65357652
3.5999999999999996,360,0.237,-0.91,0.114,-38.1590028,113.1019092,-17.9335854,79.57240704,-3.2945085,151.72500798000004
3.61,361,0.308,-0.906,0.098,-38.5027776,116.023995,-19.8243468,79.10831106,-2.92781538,152.81935776
3.6199999999999997,362,0.349,-0.894,0.02,-35.2942128,115.04996640000002,-20.6837838,78.67859256,-2.53820394,153.8965188
3.63,363,0.349,-0.8759999999999999,0.0,-28.934379,109.89334440000002,-19.194093,78.32908818,-2.1657812400000003,154.92784319999996
3.6399999999999997,364,0.34600000000000003,-0.843,-0.07400000000000001,-24.4080108,101.4708618,-15.5844576,78.03115002,-1.83919518,155.88468306
3.65,365,0.33,-0.823,-0.14300000000000002,-21.485925,90.9857304,-11.1153852,77.7790485,-1.53552744,156.73839048
3.6599999999999997,366,0.303,-0.772,-0.166,-18.5065434,81.47462759999998,-7.6203414,77.55559488,-1.3178034,157.51188378
3.67,367,0.273,-0.698,-0.175,-16.042824000000003,73.1667366,-5.3285094000000015,77.37224832,-1.12872726,158.21089253999997
3.6799999999999997,368,0.266,-0.626,-0.171,-13.120738199999998,64.97343719999999,-5.7868758000000025,77.21754966,-0.95111028,158.82968718
3.69,369,0.295,-0.568,-0.142,-13.0634424,57.4103916,-7.7922288,77.06858058,-0.76203414,159.3682677
3.6999999999999997,370,0.34,-0.5589999999999999,-0.079,-15.6417534,53.0559108,-10.599723,76.90242276000002,-0.52139178,159.84955242
3.71,371,0.338,-0.622,-0.052000000000000005,-22.0015872,59.1292656,-12.605076,76.66750998,-0.28074942,160.39386252
3.7199999999999998,372,0.173,-0.74,-0.107,-24.350715,73.1667366,-12.261301199999998,76.40967888,-0.01718874,161.06995296
3.73,373,-0.109,-0.885,-0.179,-12.4904844,74.3699484,-8.7662574,76.27216896,0.21199446,161.76896172000005
3.7399999999999998,374,-0.303,-1.117,-0.189,-8.3651868,75.63045600000002,-7.2192707999999985,76.18049568,0.44117766,162.47942964
3.75,375,-0.295,-1.301,-0.038,-19.9962342,69.7862844,-5.5003968,75.99141954000002,0.62452422,163.14406092
3.76,376,-0.085,-1.39,0.122,-23.3193906,51.0505578,-6.016058999999999,75.75077718,0.7906820400000001,163.61961606
3.77,377,0.117,-1.306,0.145,-16.042824000000003,30.5959572,-7.2765666,75.59034894,0.92819196,163.89463590000003
3.78,378,0.239,-1.214,0.043,-9.9121734,29.7365202,-10.026765,75.4872165,1.0886202,164.152467
3.79,379,0.261,-1.12,0.019,-6.9327918,30.1375908,-11.2872726,75.41846154,1.26623718,164.41602768
3.8,380,0.233,-1.054,0.013,-5.2139178,20.2827132,-10.313244,75.44137986,1.47250206,164.58791508
3.81,381,0.211,-1.014,-0.001,-1.3750992,8.4224826,-6.4744254,75.42992070000003,1.5527161800000002,164.65094046
3.82,382,0.17,-0.971,-0.011,4.6982556,-2.3491278,-1.8907613999999997,75.47575734,1.56990492,164.62229256
3.83,383,0.122,-0.94,-0.006,11.0007936,-9.9121734,1.6615782,75.59034894,1.52979786,164.53634886
3.84,384,0.092,-0.94,-0.006999999999999999,17.0741484,-16.501190400000002,4.4117766,75.76223634,1.45531332,164.38737978
3.8499999999999996,385,0.07400000000000001,-0.96,-0.001,25.0955604,-23.9496444,6.5317212,76.04871534,1.35218088,164.17538532
3.86,386,0.056,-0.981,0.014,31.971056400000002,-31.3980984,7.8495246,76.37530140000001,1.21467096,163.89463590000003
3.8699999999999997,387,0.043,-0.984,0.016,37.757932200000006,-37.41415739999999,8.7662574,76.75345368,1.05424272,163.55659068
3.88,388,0.027000000000000003,-0.959,0.023,43.3156248,-41.3102718,9.6256944,77.19463134,0.8880849000000001,163.1784384
3.8899999999999997,389,0.005,-0.903,0.03,47.0398518,-39.9351726,10.7143146,77.67018648,0.7104679199999999,162.81747486
3.9,390,-0.013,-0.8340000000000001,0.021,50.24841660000001,-35.5806918,11.5737516,78.20303742,0.53858052,162.50234796
3.9099999999999997,391,-0.042,-0.755,-0.011,51.33703679999999,-29.67922440000001,11.688343199999998,78.7244292,0.37815228,162.23878728
3.92,392,-0.078,-0.6679999999999999,-0.04,50.24841660000001,-23.2620948,11.1153852,79.23436182,0.23491278,162.03825197999996
3.9299999999999997,393,-0.093,-0.586,-0.06,47.4409224,-17.7044022,9.797581800000001,79.72137612,0.11459160000000004,161.88928289999996
3.94,394,-0.07200000000000001,-0.5,-0.08800000000000001,43.9458786,-14.266654199999998,7.7922288,80.16828336,0.02291832,161.76896172000005
3.9499999999999997,395,-0.039,-0.436,-0.099,37.9298196,-12.318597,6.3598338,80.55216521999998,-0.04583664,161.6600997
3.96,396,0.04,-0.3670000000000001,-0.112,28.2468294,-11.688343199999998,4.583664,80.83864422,-0.10313244,161.55696726
3.9699999999999998,397,0.147,-0.317,-0.131,17.131444199999994,-15.2406828,1.7188740000000002,81.0162612,-0.13750992,161.40799818
3.98,398,0.245,-0.28800000000000003,-0.159,2.7501984,-21.5432208,-0.6302538000000001,81.04490909999998,-0.16042824,161.19600372
3.9899999999999998,399,0.334,-0.27,-0.166,-10.255948199999999,-24.923673,-3.2085648,80.94750624,-0.16042824,160.94963178
4.0,400,0.398,-0.3,-0.2,-23.3193906,-30.0229992,-4.297185,80.69540472,-0.12032118,160.6287753
4.01,401,0.334,-0.365,-0.235,-39.47680620000001,-40.33624320000001,-4.010706000000001,80.3000637,-0.13750992,160.22770469999998
4.02,402,0.199,-0.409,-0.268,-53.456981400000004,-46.6387812,-4.297185,79.76721276,-0.1718874,159.75787914
4.03,403,0.105,-0.439,-0.261,-60.332477399999995,-52.2537696,-6.703608600000001,79.16560686,-0.18907614,159.2250282
4.04,404,0.059,-0.544,-0.264,-63.942112800000004,-59.7022236,-12.4331886,78.52389389999998,-0.1718874,158.61769272
4.05,405,-0.06,-0.847,-0.417,-80.67248640000003,-73.73969459999998,-19.2513888,77.70456396,-0.13178034,157.849929
4.06,406,-0.342,-1.7480000000000002,-0.948,-145.64592359999997,-74.771019,-34.4347758,76.23779148,0.04010706,157.03632864000005
4.07,407,-0.362,-3.647,-1.485,-157.1050836,-12.7196676,-104.0491728,74.63923866,0.9912173399999998,156.63525804
4.08,408,-1.238,-3.709,-0.123,-2.4064236,-37.1849742,-154.412181,74.59340202,2.38350528,155.87895348
4.09,409,-1.225,-1.835,0.236,-103.3616232,4.0680017999999984,-109.9506402,73.52770014000002,3.43201842,155.60966322
4.1,410,0.141,-1.29,-0.29600000000000004,-54.717489,26.0122932,-63.82752120000001,72.97193088,4.1252976000000015,155.6726886
4.109999999999999,411,0.757,-1.019,-0.264,7.2192707999999985,17.9335854,4.1252976000000015,73.05787458,4.131027179999999,155.85603516
4.12,412,0.901,-0.8270000000000001,-0.281,35.7525792,4.010706000000001,45.1490904,73.43029728,3.71849742,156.02792256
4.13,413,0.851,-0.8240000000000001,-0.252,30.194886600000004,-19.4232762,59.58763199999999,73.73969459999998,3.0997027800000003,156.01073381999996
4.14,414,0.6509999999999999,-0.743,-0.006,14.037471,-57.1239126,68.9268474,73.87720451999998,2.30329116,155.64977028
4.1499999999999995,415,0.4370000000000001,-0.737,0.243,-1.8907613999999997,-79.1254998,67.7809314,73.88293409999999,1.48396122,155.07681227999996
4.16,416,0.264,-0.81,0.197,-19.0222056,-90.1835892,51.56622,73.69385796,0.76776372,154.34915562
4.17,417,0.08900000000000001,-1.008,-0.016,-30.8251404,-86.1728832,28.074942,73.38446064,0.27501984,153.60431022
4.18,418,-0.168,-1.337,-0.1,-34.60666320000001,-72.4218912,1.3178034,73.04068584,0.07448454,152.91103103999995
4.1899999999999995,419,-0.466,-1.449,-0.08900000000000001,-32.2002396,-58.5563076,-22.345362,72.71982936,0.12605075999999998,152.28650682
4.2,420,-0.655,-1.321,-0.1,-30.3094782,-43.77399120000001,-30.7678446,72.42762078,0.26929026,151.77657419999997
4.21,421,-0.637,-1.1909999999999998,-0.105,-22.5745452,-36.955791,-29.9084076,72.19843758,0.4526368200000001,151.33539654
4.22,422,-0.5589999999999999,-1.157,-0.025,-1.9480572,-27.501984000000004,-31.111619399999995,72.17551926,0.6703608600000001,150.98016258
4.2299999999999995,423,-0.446,-1.147,0.024,9.740286,-7.7922288,-30.8251404,72.27292212,0.93965112,150.81400476
4.24,424,-0.335,-1.068,-0.017,8.4224826,13.5791046,-26.8717302,72.35886581999998,1.2318597,150.85984140000005
4.25,425,-0.243,-0.918,-0.06,10.4278356,31.054323600000004,-18.7357266,72.49637574,1.45531332,151.10048376
4.26,426,-0.243,-0.7609999999999999,-0.014,18.907614000000002,44.2323576,-9.224623800000002,72.69118146,1.6673077799999998,151.49582478
4.27,427,-0.243,-0.583,0.044,25.0382646,51.7381074,2.0053530000000004,72.95474214000002,1.78762896,152.00002782
4.28,428,-0.177,-0.417,0.071,33.9191136,53.571573,13.178034,73.3099761,1.8048176999999999,152.5500675
4.29,429,-0.096,-0.376,0.073,43.6021038,54.08723520000001,22.058883,73.76261292000002,1.73606274,153.13448466
4.3,430,-0.034,-0.401,0.03,49.7327544,55.4623344,27.9603504,74.28973427999998,1.6042824000000002,153.74754972
4.31,431,-0.036000000000000004,-0.4,-0.017,52.425657,56.4936588,32.142943800000005,74.82831479999999,1.43812458,154.37780352
4.32,432,-0.085,-0.366,-0.004,53.628868800000006,60.0459984,35.17962120000001,75.38408405999998,1.24331886,155.04816438
4.33,433,-0.134,-0.289,0.06,50.9359662,66.5204238,35.52339600000001,75.90547584,1.04851314,155.78155062000005
4.34,434,-0.162,-0.172,0.105,45.9512316,74.3699484,32.085648000000006,76.37530140000001,0.89954406,156.57796223999995
4.35,435,-0.141,-0.073,0.07200000000000001,36.096354,89.66792699999998,25.7258142,76.7477241,0.8193299399999999,157.5061542
4.36,436,-0.132,0.0,-0.145,21.772404,99.5228046,21.2567418,76.97117771999999,0.8136003599999999,158.52028986
4.37,437,-0.14,-0.045,-0.31,9.9121734,103.9345812,18.6784308,77.07431016000002,0.83651868,159.568803
4.38,438,-0.064,-0.279,-0.274,-1.432395,126.7956054,15.2406828,77.062851,0.93392154,160.8293106
4.39,439,0.132,-0.684,-0.48,-24.7517856,149.0836716,17.4179232,76.81647905999998,1.05424272,162.31327182
4.3999999999999995,440,0.395,-1.863,-1.295,-76.03152659999998,99.8665794,38.0444112,76.04871534,0.8823553199999999,163.35605538
4.41,441,0.948,-3.911,-1.604,-51.1651494,13.980175199999998,104.9659056,75.53305314,-0.09740286,163.74566682
4.42,442,1.994,-3.1460000000000004,-0.444,23.376686399999997,32.7159018,94.3088868,75.76223634,-0.93392154,164.28997692000004
4.43,443,1.636,-1.265,-0.743,-133.212735,-24.8090814,72.9948492,74.41578503999997,-1.7074148399999998,164.22695154000004
4.4399999999999995,444,0.5379999999999999,-0.8640000000000001,-0.772,-36.955791,-70.18735500000001,41.9978214,74.07201024000003,-2.28037284,163.65972312
4.45,445,-0.359,-1.073,-0.393,48.0711762,-57.7541664,-11.917526400000002,74.59340202,-2.32620948,163.07530595999995
4.46,446,-0.913,-1.284,-0.158,52.7694318,-40.164355799999996,-59.24385720000001,75.14917127999998,-1.84492476,162.54245501999995
4.47,447,-1.144,-1.207,-0.038,44.8626114,-22.7464326,-75.8596392,75.61899684,-1.1573751600000002,162.14138441999995
4.4799999999999995,448,-1.07,-1.239,0.058,36.096354,11.0007936,-78.2660628,75.98568996,-0.37815228,162.06117030000001
4.49,449,-0.858,-1.3730000000000002,0.116,7.448453999999999,37.9298196,-62.22323879999999,76.05444492,0.29793816,162.28462392
4.5,450,-0.477,-1.602,-0.062,-12.032117999999999,60.9627312,-31.054323600000004,75.93412373999998,0.72192708,162.79455654
4.51,451,-0.083,-1.72,-0.204,-11.917526400000002,68.182002,3.8961144,75.81380256,0.8307891,163.46491740000005
4.52,452,0.302,-1.578,-0.219,5.3285094000000015,66.69231119999999,25.8977016,75.86536878,0.72192708,164.16965574
4.53,453,0.716,-1.346,-0.238,23.4339822,56.4936588,33.0596766,76.10601113999998,0.52712136,164.79417996
4.54,454,0.95,-1.08,-0.182,42.2270046,32.0283522,28.81978740000001,76.53572964,0.32085648,165.17806181999995
4.55,455,0.96,-0.7879999999999999,0.009000000000000001,59.30115299999999,5.3858052,17.4179232,77.16025386,0.26356068,165.24681678
4.56,456,0.795,-0.612,0.128,66.176649,-17.303331600000003,3.7815227999999994,77.83061472,0.20626488,165.09784770000005
4.57,457,0.5920000000000001,-0.563,0.105,62.6243094,-34.091001,-5.9014674000000005,78.47232768,0.20626488,164.75980248000005
4.58,458,0.387,-0.5379999999999999,0.104,61.07732280000001,-45.72204840000001,-10.1413566,79.0968519,0.23491278,164.2957065
4.59,459,0.246,-0.529,0.172,63.3691548,-49.9619376,-16.386598799999998,79.74429444,0.32658606,163.78577388
4.6,460,0.189,-0.5539999999999999,0.187,69.2706222,-50.6494872,-25.1528562,80.46622152,0.52139178,163.25292294
4.61,461,0.177,-0.639,0.16,76.20341400000002,-52.6548402,-33.6326346,81.23971482,0.7906820400000001,162.69715368
4.62,462,0.204,-0.7170000000000001,0.106,76.77637200000002,-55.5196302,-38.61736920000001,82.0189377,1.11153852,162.10127736
4.63,463,0.24,-0.737,0.025,70.07276340000001,-61.7075766,-38.67466500000001,82.72367604,1.43812458,161.45383482
4.64,464,0.251,-0.6970000000000001,-0.05,60.5616606,-68.75496,-35.236917,83.32528194,1.7246035799999997,160.73763732
4.6499999999999995,465,0.223,-0.621,-0.096,50.9359662,-72.88025760000002,-30.5386614,83.82375540000002,1.98816426,159.99279192
4.66,466,0.08900000000000001,-0.54,-0.152,36.5547204,-81.0162612,-26.5279554,84.17325978,2.18869956,159.1677324
4.67,467,-0.01,-0.4320000000000001,-0.155,15.469866,-77.062851,-27.7311672,84.31076970000002,2.41215318,158.38277994
4.68,468,-0.117,-0.4320000000000001,-0.196,-3.0366774,-66.00476160000001,-33.231564,84.25347389999997,2.6929026,157.70095992
4.6899999999999995,469,-0.244,-0.496,-0.272,-26.2414764,-48.3576552,-39.7059894,83.9669949,3.04813656,157.17956814
4.7,470,-0.407,-0.611,-0.302,-44.2323576,-22.4026578,-44.977203,83.4799806,3.4091001000000003,156.89308913999997
4.71,471,-0.672,-0.8370000000000001,-0.366,-55.748813399999996,7.2765666,-48.0711762,82.91275218,3.88465524,156.90454830000004
4.72,472,-0.919,-1.219,-0.403,-49.2170922,38.4454818,-56.8947294,82.42573788,4.48053156,157.20821604
4.7299999999999995,473,-0.877,-1.348,-0.29,-38.27359439999999,49.61816279999999,-60.0459984,82.06477434,5.1222445200000015,157.61501622
4.74,474,-0.479,-1.099,-0.211,-49.04520479999999,51.4516284,-44.977203,81.60067836,5.6149884000000005,158.05619388
4.75,475,-0.124,-1.12,-0.289,-51.7381074,53.628868800000006,-18.5065434,81.10793448000003,5.849901179999999,158.54893776
4.76,476,0.044,-1.6469999999999998,-0.546,-57.86875799999999,32.31483119999999,3.151269,80.54643564,5.85563076,158.86406466
4.77,477,0.08800000000000001,-2.226,-0.498,-42.112413,9.0527364,17.589810600000003,80.12817629999998,5.68947294,158.97865626
4.78,478,0.049,-2.205,0.101,-13.8082878,23.032911600000002,21.199446,80.01358470000002,5.51758554,159.24221694
4.79,479,0.065,-1.639,0.129,-36.955791,51.9672906,24.1788276,79.68126906,5.35142772,159.79225662
4.8,480,0.162,-1.3019999999999998,-0.069,-25.2674478,55.2331512,21.3140376,79.48073375999998,5.231106540000001,160.37094419999997
4.81,481,0.309,-1.239,-0.147,0.0,34.60666320000001,11.0007936,79.50365208,5.17954032,160.72617816
4.82,482,0.438,-1.209,-0.153,10.886202,9.6256944,6.417129599999999,79.62397326,5.1279740999999985,160.83504018000005
4.83,483,0.474,-1.234,-0.195,10.1986524,-15.985528200000001,13.750992000000002,79.72137612,4.97327544,160.70325984
4.84,484,0.353,-1.269,-0.271,8.4224826,-30.9970278,23.032911600000002,79.79013108000002,4.703985179999999,160.43969915999998
4.85,485,0.183,-1.28,-0.275,11.0580894,-39.591397799999996,26.642547,79.87607478,4.3831287,160.09592436
4.86,486,0.0,-1.264,-0.209,16.386598799999998,-42.8572584,22.173474600000002,80.01931427999997,4.10810886,159.71777208
4.87,487,-0.213,-1.1909999999999998,-0.104,19.0795014,-38.90384820000001,12.6623718,80.19693126,3.93049188,159.35680854
4.88,488,-0.408,-1.063,-0.085,20.168121600000006,-24.2934192,4.2398892,80.3860074,3.85600734,159.12762534
4.89,489,-0.537,-0.928,-0.104,20.912967,-2.7501984,3.0366774,80.59800186,3.82162986,159.1104366
4.8999999999999995,490,-0.5720000000000001,-0.7659999999999999,-0.031,24.2361234,19.767051,10.9434978,80.87302170000002,3.62682414,159.3109719
4.91,491,-0.578,-0.5920000000000001,0.008,27.043617600000005,46.6387812,26.8717302,81.17095986,3.42628884,159.80944535999996
4.92,492,-0.578,-0.469,-0.004,27.1009134,62.5670136,39.3622146,81.47462759999998,3.11689152,160.4855358
4.93,493,-0.539,-0.396,-0.045,28.1322378,74.0834694,47.2117392,81.79548408,2.74446882,161.28194742
4.9399999999999995,494,-0.451,-0.337,-0.042,29.5646328,81.3027402,50.6494872,82.12207014,2.3376686399999995,162.15857316
4.95,495,-0.293,-0.263,-0.004,28.0176462,82.90702259999998,50.5921914,82.43146746,1.90795014,163.0351989
4.96,496,-0.094,-0.145,0.035,24.7517856,79.5838662,48.6441342,82.70075771999998,1.51260912,163.88317674
4.97,497,0.08900000000000001,-0.023,0.062,25.3247436,74.198061,44.6334282,82.9643184,1.1459160000000002,164.67385878
4.9799999999999995,498,0.262,0.057,0.07400000000000001,26.8717302,69.55710119999999,38.90384820000001,83.24506782,0.8307891,165.40724502
4.99,499,0.416,0.046,0.112,16.673077799999998,69.041439,31.913760600000003,83.41122564,0.5729580000000001,166.12344252
5.0,500,0.499,-0.038,0.015,-3.4950437999999995,66.5777196,27.444688199999998,83.37111858,0.41252976,166.7880738
5.01,501,0.529,-0.157,-0.114,-21.8869956,55.748813399999996,25.55392680000001,83.14766496,0.20626488,167.36676138
5.02,502,0.49,-0.35100000000000003,-0.14400000000000002,-35.9244666,46.982556,24.923673,82.77524226,0.0,167.85377567999996
5.03,503,0.481,-0.621,-0.242,-49.1025006,46.065823200000004,24.694489800000003,82.27103922,-0.19480572,168.3350604
5.04,504,0.5529999999999999,-1.215,-0.6709999999999999,-69.900876,31.3980984,29.0489706,81.55484172,-0.4526368200000001,168.67310562
5.05,505,0.652,-2.6860000000000004,-1.158,-89.4387438,-7.5630456000000015,42.28430039999999,80.64956808000002,-0.8880849000000001,168.65591688
5.06,506,0.63,-3.216,-0.207,6.0733548,-13.6364004,45.0344988,80.71259346,-1.3464512999999998,168.5928915
5.07,507,0.412,-2.14,-0.311,-106.6274838,-20.6837838,26.41336380000001,79.641162,-1.64438946,168.42673368
5.08,508,0.179,-1.3969999999999998,-0.376,-74.48454,-34.091001,11.516455800000001,78.90204618,-1.81627686,168.10587719999995
5.09,509,-0.112,-1.22,-0.224,-16.4438946,-44.8626114,-11.8602306,78.7530771,-1.7761698,167.64178122
5.1,510,-0.411,-1.021,-0.101,18.1054728,-44.117766,-27.788463,78.96507156,-1.62147114,167.16049650000005
5.11,511,-0.602,-1.036,-0.028,32.544014399999995,-26.0122932,-32.372127,79.30884636,-1.3464512999999998,166.85109917999995
5.12,512,-0.684,-1.082,-0.006999999999999999,29.621928600000004,5.844171599999999,-27.1009134,79.60678451999998,-1.07143146,166.86255834000005
5.13,513,-0.61,-1.146,0.022,11.9748222,44.977203,-15.2406828,79.71564654,-0.8537074199999999,167.2750881
5.14,514,-0.434,-1.161,-0.028,0.286479,69.4425096,1.2605076000000002,79.70418738,-0.76203414,167.95690812
5.1499999999999995,515,-0.28600000000000003,-1.209,-0.029,13.750992000000002,81.7038108,14.610429000000002,79.83023813999998,-0.7906820400000001,168.78196764
5.16,516,-0.097,-1.3219999999999998,0.044,25.4393352,88.17823620000001,20.912967,80.06515092,-0.86516658,169.6815117
5.17,517,0.14300000000000002,-1.398,0.06,26.7571386,88.5793068,24.7517856,80.31152286,-0.97975818,170.59251492
5.18,518,0.362,-1.3,0.028,30.3094782,83.4799806,24.9809688,80.59227228,-1.11153852,171.4576815
5.1899999999999995,519,0.53,-1.067,0.039,39.3622146,71.79163740000001,19.3659804,80.97042456,-1.2032117999999998,172.19106774
5.2,520,0.583,-0.87,0.095,50.1911208,54.602897399999996,14.152062599999999,81.48035718,-1.20894138,172.74683699999997
5.21,521,0.5,-0.7759999999999999,0.162,64.62966239999999,41.4248634,12.4904844,82.12207014,-1.27769634,173.1765555
5.22,522,0.332,-0.787,0.214,79.24009140000003,35.122325399999994,12.605076,82.91275218,-1.3579104599999998,173.54324862
5.2299999999999995,523,0.228,-0.8490000000000001,0.228,83.25079740000002,35.9817624,9.8548776,83.74354128,-1.41520626,173.9214009
5.24,524,0.185,-0.853,0.18,71.67704579999999,40.393539,3.9534102,84.45973878,-1.4209358399999998,174.32820108
5.25,525,0.157,-0.7829999999999999,0.09,57.467687399999996,42.7426668,-2.9793816000000004,85.03842636,-1.3349921400000002,174.75218999999996
5.26,526,0.138,-0.672,-0.009000000000000001,48.0138804,41.19568020000001,-7.5057497999999985,85.50825191999998,-1.23758928,175.15899018
5.27,527,0.115,-0.591,-0.166,40.164355799999996,32.544014399999995,-8.078707799999998,85.90359294,-1.13445684,175.47984666
5.28,528,-0.006,-0.561,-0.368,21.5432208,14.9542038,-6.703608600000001,86.12131698,-1.0599723,175.62881574
5.29,529,-0.094,-0.556,-0.434,1.3178034,18.621135,-10.4851314,86.12704656,-0.95111028,175.80643272
5.3,530,-0.099,-0.696,-0.463,-22.058883,41.76863820000001,-20.798375399999998,85.83483798,-0.7391158200000001,176.19031458
5.31,531,-0.2,-0.955,-0.619,-50.5921914,65.94746579999999,-34.4347758,85.30198704,-0.3724227000000001,176.80910922
5.32,532,-0.523,-1.454,-0.815,-62.45242200000001,78.95361240000003,-49.7327544,84.66027408,0.15469866,177.54249546
5.33,533,-0.8440000000000001,-2.091,-0.792,-47.2117392,67.0933818,-66.749607,84.17325978,0.8594370000000001,178.13837178
5.34,534,-0.83,-2.278,-0.618,-43.0291458,48.414951,-57.983349600000004,83.73781170000002,1.46677248,178.55090153999996
5.35,535,-0.5489999999999999,-2.264,-0.521,-37.3568616,59.014674,-42.97185,83.36538900000002,1.93086846,179.08375248
5.36,536,-0.3670000000000001,-2.234,-0.318,-20.798375399999998,98.7779592,-36.7266078,83.17631286,2.38350528,-179.98329654
5.37,537,-0.13,-1.85,-0.254,-19.5378678,131.78034,-18.449247600000003,83.01588462000002,2.68144344,-178.71132977999997
5.38,538,0.358,-1.631,-0.312,9.0527364,133.9575804,9.224623800000002,83.15339454,2.71582092,-177.37633764
5.39,539,0.5529999999999999,-1.536,-0.21,36.03905820000001,115.62292439999999,36.2682414,83.56019472,2.4637194,-176.19031458
5.3999999999999995,540,0.5539999999999999,-1.477,-0.11,24.0069402,98.1477054,40.10706,83.82948498,2.16005166,-175.1819085
5.41,541,0.41,-1.4480000000000002,-0.09,2.1199446,81.53192340000003,36.898495200000006,83.87532162,1.85638392,-174.33966024
5.42,542,0.183,-1.4469999999999998,-0.041,-12.834259199999998,66.5204238,34.091001,83.75500044,1.5756344999999998,-173.64638106
5.43,543,-0.066,-1.414,0.016,-22.2880662,59.1292656,32.085648000000006,83.53727640000002,1.30061466,-173.03331599999999
5.4399999999999995,544,-0.281,-1.368,0.055,-26.8717302,62.051351399999994,29.507337,83.26798613999998,1.0599723,-172.39160304
5.45,545,-0.445,-1.298,0.046,-29.0489706,76.1461182,26.1841806,82.98150714,0.8479778399999999,-171.61810974
5.46,546,-0.525,-1.1909999999999998,0.006,-31.4553942,96.4288314,22.4026578,82.66638024,0.7161975,-170.64408114
5.47,547,-0.509,-1.079,-0.034,-35.0077338,121.753575,18.8503182,82.3054167,0.65317212,-169.42368059999995
5.4799999999999995,548,-0.451,-0.959,-0.076,-34.66395900000001,141.6925134,17.7044022,81.95018274,0.6302538000000001,-168.01420392
5.49,549,-0.379,-0.845,-0.08,-30.8824362,159.45421140000005,18.7930224,81.63505583999998,0.62452422,-166.42138068
5.5,550,-0.32,-0.748,-0.056,-26.7571386,174.63759840000003,21.4286292,81.360036,0.59587632,-164.67958836
5.51,551,-0.262,-0.662,-0.028,-25.9549974,188.56047780000003,24.694489800000003,81.09074574,0.5844171599999999,-162.80028612
5.52,552,-0.229,-0.581,0.006999999999999999,-25.6685184,202.88442780000003,28.5333084,80.82718506,0.56149884,-160.76628522
5.53,553,-0.238,-0.509,0.057,-24.923673,216.2343492,31.913760600000003,80.56362438,0.53285094,-158.60050398
5.54,554,-0.256,-0.47,0.108,-26.2414764,230.7301866,33.231564,80.28860454,0.52139178,-156.29148324
5.55,555,-0.226,-0.465,0.12,-30.7678446,254.5652394,31.4553942,79.97920722,0.56149884,-153.7532793
5.56,556,-0.175,-0.493,0.07200000000000001,-34.8358464,277.9419258,28.304125199999998,79.61824368,0.69327918,-150.99162174
5.57,557,-0.104,-0.5529999999999999,0.039,-34.3201842,294.7295952,24.350715,79.26873930000002,0.90527364,-148.06953593999995
5.58,558,-0.068,-0.6659999999999999,-0.002,-34.4920716,310.1994612,21.027558600000006,78.93069408,1.19175264,-145.00994022
5.59,559,-0.041,-0.802,-0.09,-39.820581,322.1169876,20.8556712,78.56400096,1.5183387000000002,-141.83002332
5.6,560,-0.021,-0.965,-0.14800000000000002,-44.7480198,318.564648,24.8090814,78.15720078000003,1.82200644,-138.68448389999998
5.61,561,0.025,-1.166,-0.209,-50.420304,307.2200796,31.627281600000003,77.71029354,2.0626488000000003,-135.63634734
5.62,562,0.19,-1.426,-0.29,-56.8947294,286.8227748,42.91455420000001,77.20036092000002,2.1772404,-132.76582776
5.63,563,0.48,-1.656,-0.333,-58.2698286,251.1274914,57.06661679999999,76.67323956,2.11421502,-130.21043508
5.64,564,0.7659999999999999,-1.633,-0.249,-41.539455,222.2504082,67.036086,76.30654644,1.91367972,-127.90714392
5.6499999999999995,565,0.83,-1.284,-0.157,-15.2406828,212.9684886,60.6189564,76.19195484000002,1.78762896,-125.71271477999998
5.66,566,0.805,-1.052,-0.207,-6.3598338,208.3275288,47.4982182,76.16903651999998,1.76471064,-123.5870406
5.67,567,0.772,-0.893,-0.294,-13.178034,196.4672982,38.7892566,76.07163366,1.8048176999999999,-121.59887634
5.68,568,0.687,-0.767,-0.282,-15.813640800000002,183.2892642,32.4294228,75.9455829,1.87930224,-119.75395158
5.6899999999999995,569,0.5589999999999999,-0.741,-0.213,-13.8082878,175.3824438,24.064235999999998,75.84245046,2.02254174,-118.00642968
5.7,570,0.383,-0.871,-0.158,-14.2093584,169.882047,13.349921400000001,75.73931802,2.2746432600000004,-116.33339232
5.71,571,0.18600000000000005,-1.065,-0.194,-21.5432208,162.20440980000004,5.6149884000000005,75.56743062000002,2.57258142,-114.75775782
5.72,572,0.035,-1.261,-0.231,-25.3247436,155.6726886,4.583664,75.36116574,2.87051958,-113.2451487
5.7299999999999995,573,-0.067,-1.403,-0.188,-22.91832,145.4740362,11.229976800000001,75.18354876,3.08824362,-111.81848327999998
5.74,574,-0.095,-1.38,-0.071,-15.6990492,139.6298646,23.3193906,75.08041632,3.1799169000000003,-110.41473618
5.75,575,-0.05,-1.2,0.034,-8.5370742,143.9270496,33.9191136,75.07468673999998,3.1741873200000006,-108.94223412
5.76,576,0.001,-0.992,0.1,-1.2032118,154.29758940000005,39.3622146,75.13198254,3.151269,-107.35514046
5.77,577,0.031,-0.856,0.168,5.7868758000000025,167.70480659999996,39.247623,75.26376287999999,3.151269,-105.64199604
5.78,578,0.065,-0.7759999999999999,0.192,7.9641161999999985,182.3152356,34.0337052,75.42419112,3.2314831199999987,-103.79707128
5.79,579,0.118,-0.7609999999999999,0.175,5.7868758000000025,199.27479240000002,27.3300966,75.56743062000002,3.4091001000000003,-101.80890702
5.8,580,0.185,-0.799,0.147,2.5210152000000003,207.983754,23.5485738,75.7163997,3.64974246,-99.74052864
5.81,581,0.239,-0.852,0.107,-0.9167328,211.8225726,23.204799,75.81380256,3.87892566,-97.63777278
5.82,582,0.287,-0.8859999999999999,0.068,-2.4064236,212.1663474,25.84040580000001,75.91120542,4.08519054,-95.52355776
5.83,583,0.324,-0.8909999999999999,0.042,-2.2345362,209.3588532,29.793816,76.00860828,4.24561878,-93.42653148
5.84,584,0.345,-0.866,0.022,-1.3750992,203.9157522,33.804522,76.12319987999999,4.34875122,-91.37534184
5.85,585,0.354,-0.8320000000000001,0.006,-0.11459160000000004,196.9829604,37.0703826,76.2607098,4.42323576,-89.38144799999998
5.86,586,0.34600000000000003,-0.802,0.001,1.2032118,188.6177736,38.961144,76.39821972,4.43469492,-87.46203870000002
5.87,587,0.317,-0.807,0.001,3.2085648,179.67962880000005,39.247623,76.54718879999999,4.42323576,-85.62857310000003
5.88,588,0.304,-0.838,-0.004,5.0993262,175.4397396,39.1330314,76.71334662,4.40031744,-83.83521456
5.89,589,0.301,-0.88,-0.017,6.589017,173.26249919999995,39.0184398,76.89669318,4.37166954,-82.06477434
5.8999999999999995,590,0.308,-0.927,-0.028,7.2192707999999985,172.80413280000005,39.3622146,77.0914989,4.34302164,-80.29433412
5.91,591,0.32,-0.967,-0.029,6.760904399999999,172.05928740000004,40.5654264,77.26911588,4.27999626,-78.53535306
5.92,592,0.333,-1.007,-0.03,5.6722842,169.93934280000005,42.5134836,77.43527370000002,4.1883229800000015,-76.78783116
5.93,593,0.354,-1.037,-0.041,4.8701430000000006,167.47562340000005,44.919907200000004,77.58997236,4.0680017999999984,-75.06322758
5.9399999999999995,594,0.374,-1.0490000000000002,-0.052000000000000005,5.1566220000000005,163.80869219999997,47.269034999999995,77.73894143999998,3.91330314,-73.3672719
5.95,595,0.385,-1.045,-0.06,7.2765666,159.7979862,47.67010560000001,77.91082884,3.75860448,-71.71715286
5.96,596,0.393,-1.028,-0.062,9.969469199999999,158.30829540000005,45.4355694,78.09417540000003,3.59817624,-70.07849298
5.97,597,0.381,-1.005,-0.07,11.8029348,157.79263319999995,41.1383844,78.29471070000002,3.47785506,-68.45702184000001
5.9799999999999995,598,0.353,-0.981,-0.08800000000000001,12.5477802,157.276971,35.9817624,78.50097558,3.39764094,-66.85273944
5.99,599,0.312,-0.961,-0.105,12.605076,155.9018718,31.340802600000004,78.70151088,3.35753388,-65.26564578
6.0,600,0.267,-0.943,-0.11,12.4904844,154.81325159999997,28.074942,78.90204618,3.3518043,-63.70147044
6.01,601,0.245,-0.927,-0.079,12.5477802,155.7299844,25.9549974,79.10258148,3.3518043,-62.13156552
6.02,602,0.259,-0.918,-0.035,12.1467096,157.3342668,24.4080108,79.2973872,3.36326346,-60.54447186
6.03,603,0.292,-0.934,-0.03,9.453807000000001,157.3915626,23.4339822,79.46354502,3.380452200000001,-58.96310778000001
6.04,604,0.32299999999999995,-0.972,-0.055,6.1879464,155.04243480000005,23.2620948,79.60105494000003,3.3919113599999995,-57.40466202
6.05,605,0.336,-1.035,-0.097,3.5523396000000003,150.4587708,23.7204612,79.70991696000002,3.40337052,-55.892052899999996
6.06,606,0.32,-1.105,-0.131,4.0680017999999984,145.1302614,24.5798982,79.81877897999998,3.37472262,-54.42528042
6.07,607,0.27,-1.2009999999999998,-0.14300000000000002,8.3651868,141.9789924,24.1788276,79.96774806,3.3518043,-52.99288542000001
6.08,608,0.199,-1.277,-0.184,8.3651868,143.6978664,21.199446,80.11671714,3.34607472,-51.54903126000001
6.09,609,0.083,-1.3030000000000002,-0.156,9.969469199999999,145.1302614,15.6417534,80.28860454,3.40337052,-50.09944752
6.1,610,-0.07400000000000001,-1.248,-0.045,14.495837400000001,147.42209340000005,7.0473834,80.51205816,3.5236917,-48.6441342
6.11,611,-0.138,-1.144,0.05,13.178034,148.7971926,0.8594370000000001,80.71832304,3.71849742,-47.17736172
6.12,612,-0.105,-0.982,0.048,6.2452422,142.66654200000005,0.057295800000000015,80.85583296,3.90184398,-45.779344200000004
6.13,613,-0.042,-0.843,0.034,-0.1718874,132.23870639999998,2.7501984,80.9303175,4.05081306,-44.47299996
6.14,614,0.034,-0.764,0.04,-9.6256944,126.96749280000002,7.448453999999999,80.90166959999998,4.13675676,-43.21249236
6.15,615,0.13699999999999998,-0.758,0.006,-20.340009,126.5091264,12.1467096,80.77561884,4.1883229800000015,-41.95771434
6.16,616,0.225,-0.8370000000000001,-0.051,-28.4187168,128.34259200000002,15.2406828,80.56935396,4.211241299999998,-40.67428842
6.17,617,0.232,-1.011,-0.134,-30.8251404,130.061466,15.9282324,80.33444118,4.22843004,-39.37367376
6.18,618,0.1,-1.296,-0.208,-29.1062664,128.629071,16.2147114,80.11671714,4.24561878,-38.09024784
6.1899999999999995,619,-0.064,-1.5519999999999998,-0.21600000000000005,-27.3300966,121.1233212,18.7357266,79.91045226,4.23415962,-36.869847299999996
6.2,620,-0.159,-1.571,-0.162,-25.4393352,109.3776822,23.835052800000003,79.72137612,4.1539455,-35.75830878
6.21,621,-0.19,-1.388,-0.136,-24.694489800000003,100.4968332,31.22621100000001,79.53229998,3.99924684,-34.7212548
6.22,622,-0.184,-1.173,-0.14800000000000002,-22.5172494,99.1790298,37.3568616,79.36041258,3.7815227999999994,-33.684200819999994
6.2299999999999995,623,-0.158,-1.03,-0.142,-17.6471064,100.8979038,39.7059894,79.24009140000003,3.5523396000000003,-32.6299581
6.24,624,-0.114,-0.954,-0.125,-14.8396122,101.127087,38.8465524,79.13695895999999,3.32888598,-31.5699858
6.25,625,-0.065,-0.93,-0.11,-13.2926256,98.8925508,36.7839036,79.05101526000001,3.1226211000000004,-30.5386614
6.26,626,-0.009000000000000001,-0.956,-0.111,-12.0894138,95.0537322,35.52339600000001,78.97080113999998,2.92781538,-29.54171448
6.27,627,0.038,-1.009,-0.116,-12.261301199999998,89.6106312,35.9817624,78.87912786,2.7215505,-28.60206336
6.28,628,0.057,-1.045,-0.117,-14.610429000000002,86.51665799999998,37.0703826,78.76453626,2.49809688,-27.68533056
6.29,629,0.061,-1.041,-0.121,-17.0741484,84.51130500000002,37.0703826,78.61556718,2.2746432600000004,-26.79151608
6.3,630,0.041,-1.006,-0.123,-18.1054728,83.1362058,35.5806918,78.46086852,2.06837838,-25.91489034
6.31,631,0.002,-0.952,-0.124,-18.334656,82.33406459999998,33.231564,78.29471070000002,1.88503182,-25.04972376
6.32,632,-0.029,-0.902,-0.13,-18.7357266,81.360036,30.5386614,78.11709372,1.73033316,-24.20174592
6.33,633,-0.045,-0.863,-0.151,-19.480572,79.46927459999998,28.1895336,77.93374716000002,1.59282324,-23.37095682
6.34,634,-0.061,-0.835,-0.16699999999999998,-20.2254174,76.89096359999998,26.298772200000002,77.73894143999998,1.4782316400000002,-22.56881562
6.35,635,-0.064,-0.831,-0.17,-20.9702628,74.5418358,24.350715,77.53840613999998,1.36364004,-21.79532232
6.36,636,-0.056,-0.8440000000000001,-0.172,-21.5432208,71.9635248,23.2620948,77.32641168,1.27196676,-21.05047692
6.37,637,-0.044,-0.862,-0.191,-22.345362,67.9528188,22.2880662,77.10295806,1.18602306,-20.34573858
6.38,638,-0.017,-0.882,-0.219,-22.0015872,63.48374640000001,21.1421502,76.88523402000001,1.10007936,-19.68683688
6.39,639,0.013,-0.907,-0.235,-20.2254174,59.1292656,19.595163600000006,76.68469872,1.0255948199999998,-19.06804224
6.4,640,0.044,-0.93,-0.245,-19.4232762,55.2331512,17.6471064,76.48416342,0.9740286,-18.49508424
6.41,641,0.079,-0.943,-0.256,-18.162768600000003,50.82137460000001,15.183387000000002,76.30081686,0.92819196,-17.973692460000006
6.42,642,0.106,-0.943,-0.25,-16.4438946,46.123119,12.261301199999998,76.13465904,0.90527364,-17.498137319999998
6.43,643,0.114,-0.947,-0.232,-15.183387000000002,39.0184398,8.4224826,75.97996038,0.90527364,-17.1027963
6.4399999999999995,644,0.105,-0.959,-0.21,-14.896907999999998,32.486718599999996,6.0733548,75.8309913,0.91100322,-16.77621024
6.45,645,0.077,-0.972,-0.198,-15.0114996,24.9809688,4.1825934,75.68775179999999,0.9453806999999999,-16.524108719999994
6.46,646,0.034,-0.978,-0.192,-14.8396122,17.0741484,3.0366774,75.53878272,0.95111028,-16.35222132
6.47,647,-0.014,-0.979,-0.185,-13.750992000000002,10.0840608,2.291832,75.4012728,0.9453806999999999,-16.254818460000006
6.4799999999999995,648,-0.055,-0.984,-0.183,-12.032117999999999,5.443101,1.7761698,75.27522203999997,0.93965112,-16.197522659999994
6.49,649,-0.092,-0.989,-0.192,-9.9121734,2.7501984,1.432395,75.17781918,0.93392154,-16.16887476
6.5,650,-0.13,-0.985,-0.18600000000000005,-6.3598338,1.0313244,1.4896908000000002,75.24657413999998,0.56722842,-16.18033392
6.51,651,-0.156,-0.973,-0.16899999999999998,-1.6042823999999998,1.0313244,1.2605076000000002,75.2293854,0.55576926,-16.16314518
6.52,652,-0.16399999999999998,-0.953,-0.172,1.7188740000000002,2.2345362,1.145916,75.24657413999998,0.55003968,-16.140226860000002
6.53,653,-0.16699999999999998,-0.928,-0.17800000000000002,5.0993262,4.1825934,1.0886202,75.29814036,0.55003968,-16.09439022
6.54,654,-0.166,-0.906,-0.182,8.3651868,6.2452422,0.9167328,75.38408405999998,0.55576926,-16.031364840000002
6.55,655,-0.161,-0.8909999999999999,-0.181,10.599723,8.59437,0.6302538000000001,75.50440524000003,0.47555514,-15.951150719999998
6.56,656,-0.154,-0.884,-0.18600000000000005,12.605076,9.740286,0.6302538000000001,75.63045600000002,0.49274388,-15.85374786
6.57,657,-0.146,-0.895,-0.157,15.6990492,10.1986524,0.9740286,75.79088424,0.5099326200000001,-15.75061542
6.58,658,-0.128,-0.919,-0.14800000000000002,16.7303736,12.3758928,0.5156622000000001,75.95704206,0.53285094,-15.63029424
6.59,659,-0.097,-0.94,-0.162,16.7876694,16.157415599999997,-0.286479,76.12892946000002,0.56722842,-15.469866
6.6,660,-0.062,-0.963,-0.14,18.5065434,19.5378678,-1.8334656000000005,76.34092392,0.61306506,-15.28651944
6.61,661,-0.033,-0.983,-0.14,18.7930224,22.058883,-3.8961144,76.53000005999998,0.69900876,-15.08025456
6.62,662,-0.013,-0.99,-0.157,19.595163600000006,22.345362,-6.0733548,76.73053536,0.8021412000000001,-14.879719259999998
6.63,663,0.006999999999999999,-1.001,-0.16699999999999998,21.199446,21.485925,-7.5057497999999985,76.9482594,0.92246238,-14.684913540000002
6.64,664,0.041,-1.013,-0.16899999999999998,21.9442914,20.05353,-8.078707799999998,77.17171302,1.04278356,-14.50729656
6.65,665,0.085,-1.021,-0.177,22.5745452,17.131444199999994,-7.333862400000001,77.40662579999999,1.1745638999999999,-14.3525979
6.66,666,0.125,-1.031,-0.189,22.459953600000002,11.45916,-5.5003968,77.63580900000002,1.24904844,-14.24946546
6.67,667,0.146,-1.04,-0.2,21.8869956,4.4690724,-3.724227,77.85353303999999,1.29488508,-14.215087979999998
6.68,668,0.151,-1.041,-0.206,21.199446,-2.0053530000000004,-2.4064236,78.07125708,1.3178034,-14.2380063
6.6899999999999995,669,0.146,-1.031,-0.205,20.8556712,-8.9954406,-1.9480572,78.28325154000002,1.32353298,-14.32395
6.7,670,0.133,-1.008,-0.199,20.6837838,-15.756345000000001,-2.2345362,78.48378684000002,1.3579104599999998,-14.484378240000002
6.71,671,0.11,-0.985,-0.194,20.912967,-22.1161788,-2.9220857999999996,78.6957813,1.3464512999999998,-14.70210228
6.72,672,0.084,-0.968,-0.194,21.1421502,-27.3873924,-4.0680017999999984,78.90777576,1.3464512999999998,-14.97139254
6.7299999999999995,673,0.055,-0.96,-0.19,21.027558600000006,-31.627281600000003,-5.2139178,79.11404064,1.3464512999999998,-15.29224902
6.74,674,0.036000000000000004,-0.961,-0.18,20.2827132,-35.46610020000001,-6.1879464,79.32030552,1.35218088,-15.647482979999998
6.75,675,0.025,-0.968,-0.172,19.0222056,-38.961144,-6.3598338,79.50365208,1.3579104599999998,-16.03709442
6.76,676,0.017,-0.973,-0.17,18.2773602,-42.112413,-5.9014674000000005,79.68699864,1.3579104599999998,-16.45535376
6.77,677,0.01,-0.979,-0.16699999999999998,18.2773602,-45.3782736,-5.042030400000002,79.86461562,1.34072172,-16.90799058
6.78,678,0.006,-0.982,-0.16,17.9335854,-47.67010560000001,-4.1825934,80.04223259999998,1.31207382,-17.37781614
6.79,679,0.003,-0.978,-0.159,16.8449652,-47.4409224,-3.4950437999999995,80.20839042,1.28342592,-17.847641699999997
6.8,680,0.01,-0.978,-0.154,16.329303,-45.3209778,-3.0366774,80.36881866,1.24904844,-18.29454894
6.81,681,0.012,-0.987,-0.154,15.9282324,-42.2270046,-2.86479,80.5292469,1.22040054,-18.71280828
6.82,682,0.003,-0.998,-0.153,16.272007199999994,-38.67466500000001,-2.5210152000000003,80.68967513999998,1.19748222,-19.09096056
6.83,683,-0.006999999999999999,-1.011,-0.14400000000000002,16.7876694,-34.950438,-2.291832,80.86156254,1.1745638999999999,-19.44046494
6.84,684,-0.022,-1.019,-0.135,16.386598799999998,-31.5699858,-2.4637194,81.02199078,1.1573751600000002,-19.74986226
6.85,685,-0.039,-1.027,-0.136,16.042824000000003,-27.501984000000004,-2.6929026,81.18241902,1.13445684,-20.024882100000006
6.86,686,-0.047,-1.029,-0.14,16.042824000000003,-23.7204612,-2.6929026,81.34857683999998,1.13445684,-20.25979488
6.87,687,-0.043,-1.025,-0.145,16.386598799999998,-20.798375399999998,-2.5210152000000003,81.50900508000002,1.13445684,-20.46605976
6.88,688,-0.033,-1.02,-0.149,16.4438946,-18.7357266,-2.0053530000000004,81.6751629,1.13445684,-20.64940632
6.89,689,-0.018000000000000002,-1.016,-0.15,15.6417534,-17.5325148,-1.0886202,81.83559113999998,1.12872726,-20.82129372
6.9,690,0.0,-1.013,-0.145,13.464512999999998,-16.7876694,0.0,81.96164189999998,1.10580894,-20.98745154
6.91,691,0.013,-1.002,-0.146,10.9434978,-16.1001198,0.8594370000000001,82.07050392,1.08289062,-21.1421502
6.92,692,0.022,-0.99,-0.157,9.5111028,-14.896907999999998,1.432395,82.16790678,1.05424272,-21.2853897
6.93,693,0.026,-0.981,-0.168,9.3392154,-13.120738199999998,1.7188740000000002,82.25958005999998,1.01986524,-21.41144046
6.9399999999999995,694,0.031,-0.972,-0.17,9.740286,-11.229976800000001,2.0053530000000004,82.3627125,0.9912173399999998,-21.52030248
6.95,695,0.037000000000000005,-0.964,-0.168,10.3705398,-10.026765,2.4064236,82.43146746,0.9740286,-21.61197576
6.96,696,0.047,-0.959,-0.158,11.2872726,-9.0527364,3.151269,82.54605906,0.93392154,-21.69218988
6.97,697,0.056,-0.958,-0.145,11.8602306,-8.193299399999999,3.8961144,82.66638024,0.8880849000000001,-21.772404
6.9799999999999995,698,0.058,-0.962,-0.14,12.261301199999998,-6.8182002000000015,4.9847345999999995,82.79243100000002,0.83651868,-21.829699800000004
6.99,699,0.051,-0.97,-0.142,11.9748222,-5.3285094000000015,5.958763200000001,82.91275218,0.7734933,-21.87553644
7.0,700,0.041,-0.979,-0.14300000000000002,11.688343199999998,-4.4117766,6.703608600000001,83.00442546000002,0.7161975,-21.90418434
7.01,701,0.029,-0.991,-0.141,11.45916,-4.1252976000000015,7.1046792000000005,83.11901706,0.64744254,-21.93856182
7.02,702,0.014,-1.003,-0.136,11.8029348,-4.010706000000001,7.1046792000000005,83.23933824000002,0.5729580000000001,-21.96720972
7.03,703,0.003,-1.019,-0.125,12.318597,-3.8388186,6.703608600000001,83.36538900000002,0.5042030399999999,-21.99585762
7.04,704,-0.004,-1.036,-0.113,12.5477802,-3.2085648,5.9014674000000005,83.49716934,0.44117766,-22.01877594
7.05,705,-0.004,-1.046,-0.1,12.3758928,-2.2345362,4.8701430000000006,83.61749052,0.38961144,-22.03596468
7.06,706,0.001,-1.052,-0.09,12.4331886,-0.8021411999999999,3.724227,83.74354128,0.35523396,-22.04169426
7.07,707,0.011,-1.054,-0.081,12.605076,1.0886202,2.4064236,83.87532162,0.33231564,-22.02450552
7.08,708,0.019,-1.052,-0.075,12.318597,3.3231564,1.4896908000000002,84.00137237999998,0.32085648,-21.99012804
7.09,709,0.023,-1.046,-0.075,11.516455800000001,5.6149884000000005,0.7448454000000001,84.11596397999998,0.32085648,-21.93283224
7.1,710,0.027000000000000003,-1.037,-0.07200000000000001,10.3705398,7.6776372,0.2291832000000001,84.22482600000002,0.3437748,-21.85261812
7.11,711,0.026,-1.028,-0.073,8.7089616,9.568398599999998,-0.286479,84.31649927999999,0.35523396,-21.76094484
7.12,712,0.022,-1.017,-0.07200000000000001,7.1046792000000005,11.3445684,-0.9740286,84.38525424,0.3724227000000001,-21.64635324
7.13,713,0.018000000000000002,-1.007,-0.07200000000000001,5.443101,13.120738199999998,-1.8334656000000005,84.44255003999999,0.4010706000000001,-21.52030248
7.14,714,0.015,-1.001,-0.073,3.9534102,14.9542038,-2.7501984,84.4826571,0.43544808,-21.3713334
7.15,715,0.016,-1.003,-0.073,2.2345362,16.7876694,-3.4950437999999995,84.49984584,0.49274388,-21.21090516
7.16,716,0.022,-1.008,-0.076,1.2032118,17.8189938,-3.8961144,84.51130500000002,0.5443101,-21.03901776
7.17,717,0.028,-1.016,-0.078,1.0313244,18.2200644,-3.7815227999999994,84.52276416000002,0.59587632,-20.86140078
7.18,718,0.032,-1.022,-0.079,1.2032118,18.3919518,-3.2085648,84.53422332,0.63598338,-20.6837838
7.1899999999999995,719,0.034,-1.026,-0.076,1.7761698,18.5065434,-2.5210152000000003,84.55141205999998,0.67609044,-20.50043724
7.2,720,0.035,-1.025,-0.07,2.4064236,18.7357266,-1.7761698,84.58005996,0.72192708,-20.31709068
7.21,721,0.037000000000000005,-1.024,-0.063,2.9220857999999996,18.8503182,-1.145916,84.60870786,0.7448454000000001,-20.13374412
7.22,722,0.037000000000000005,-1.025,-0.059,2.9793816000000004,19.1367972,-0.8021411999999999,84.63735576,0.76776372,-19.94466798
7.2299999999999995,723,0.037000000000000005,-1.025,-0.059,2.6356068,19.308684600000007,-0.7448454000000001,84.66600365999999,0.7906820400000001,-19.75559184
7.24,724,0.038,-1.025,-0.064,2.1199446,19.3659804,-0.6302538000000001,84.68892198,0.8078707799999998,-19.56078612
7.25,725,0.039,-1.024,-0.067,1.6042823999999998,19.480572,-0.6302538000000001,84.70611072,0.8479778399999999,-19.37170998
7.26,726,0.036000000000000004,-1.022,-0.07,1.2605076000000002,19.480572,-0.5156622000000001,84.71756988,0.86516658,-19.17690426
7.27,727,0.035,-1.019,-0.071,0.7448454000000001,19.194093,-0.4583664000000001,84.72902904,0.8823553199999999,-18.98782812
7.28,728,0.034,-1.013,-0.07200000000000001,0.2291832000000001,18.8503182,-0.5156622000000001,84.72902904,0.89954406,-18.80448156
7.29,729,0.03,-1.005,-0.07200000000000001,-0.11459160000000004,18.3919518,-0.6302538000000001,84.72902904,0.9167328000000001,-18.621135
7.3,730,0.029,-0.998,-0.07200000000000001,-0.11459160000000004,17.9335854,-0.8021411999999999,84.72329946,0.95111028,-18.44351802
7.31,731,0.026,-0.992,-0.07,0.3437748,17.303331600000003,-1.0313244,84.72902904,0.9740286,-18.277360199999997
7.32,732,0.024,-0.993,-0.07200000000000001,0.4010706,16.4438946,-1.2032118,84.73475862000002,0.9912173399999998,-18.11120238
7.33,733,0.022,-0.999,-0.073,0.1718874,15.527161800000002,-1.2605076000000002,84.73475862000002,1.01413566,-17.9622333
7.34,734,0.022,-1.002,-0.075,-0.286479,14.7823164,-1.3750992,84.73475862000002,1.03705398,-17.818993799999994
7.35,735,0.026,-1.009,-0.077,-1.2032118,13.9228794,-1.5469866,84.71756988,1.07716104,-17.68148388
7.36,736,0.029,-1.014,-0.078,-1.8907613999999997,12.6623718,-1.7761698,84.69465156,1.10007936,-17.55543312
7.37,737,0.037000000000000005,-1.021,-0.08199999999999999,-2.4637194,11.172681,-1.9480572,84.67173324000002,1.12872726,-17.4465711
7.38,738,0.043,-1.03,-0.073,-3.5523396000000003,9.3392154,-2.0053530000000004,84.63735576,1.15164558,-17.354897819999998
7.39,739,0.046,-1.033,-0.058,-5.042030400000002,7.7922288,-1.7188740000000002,84.58578954,1.1745638999999999,-17.280413279999998
7.4,740,0.046,-1.027,-0.047,-5.2139178,6.417129599999999,-0.9740286,84.56287122,1.22040054,-17.22311748
7.41,741,0.041,-1.022,-0.042,-4.1252976000000015,4.583664,-0.4010706,84.52276416000002,1.22613012,-17.17728084
7.42,742,0.039,-1.015,-0.037000000000000005,-2.6356068,3.0366774,-0.057295800000000015,84.49411626,1.2318597,-17.14863294
7.43,743,0.037000000000000005,-1.006,-0.033,-2.0626488000000003,1.8907613999999997,0.057295800000000015,84.47692752,1.2318597,-17.131444199999994
7.4399999999999995,744,0.035,-0.998,-0.03,-2.4637194,1.6615782,-0.057295800000000015,84.44827962000002,1.2318597,-17.114255460000006
7.45,745,0.038,-0.993,-0.033,-3.2658606,1.8907613999999997,-0.11459160000000004,84.49984584,1.2891555000000001,-17.09706672
7.46,746,0.04,-0.99,-0.043,-3.2658606,1.7188740000000002,-0.057295800000000015,84.46546836,1.2891555000000001,-17.07987798
7.47,747,0.044,-0.991,-0.056,-2.6929026,0.6302538000000001,0.0,84.44255003999999,1.2891555000000001,-17.0741484
7.4799999999999995,748,0.045,-0.994,-0.064,-2.3491278,-0.5156622000000001,0.0,84.41390214,1.2891555000000001,-17.07987798
7.49,749,0.045,-0.995,-0.065,-2.291832,-2.0626488000000003,0.057295800000000015,84.39098382,1.2891555000000001,-17.1027963
7.5,750,0.048,-0.994,-0.065,-2.1772404,-3.6669312000000014,0.1718874,84.39098382,1.34072172,-17.13717378
7.51,751,0.045,-0.995,-0.062,-1.8334656000000005,-5.2712136,0.1718874,84.3680655,1.3349921400000002,-17.19446958
7.52,752,0.042,-0.995,-0.06,-1.3750992,-7.0473834,0.1718874,84.35087675999998,1.32926256,-17.26322454
7.53,753,0.037000000000000005,-0.995,-0.06,-1.0886202,-8.5370742,0.11459160000000004,84.3394176,1.32353298,-17.34916824
7.54,754,0.032,-0.995,-0.058,-0.9167328,-9.3965112,0.0,84.32795844,1.3178034,-17.44084152
7.55,755,0.027000000000000003,-0.997,-0.058,-0.7448454000000001,-9.969469199999999,-0.1718874,84.34514718,1.3178034,-17.538244380000002
7.56,756,0.024,-1.0,-0.058,-0.6875496,-10.026765,-0.3437748,84.33368802,1.3178034,-17.64137682
7.57,757,0.018000000000000002,-1.003,-0.059,-0.6302538000000001,-10.313244,-0.4010706,84.32795844,1.31207382,-17.74450926
7.58,758,0.016,-1.008,-0.059,-0.6875496,-10.255948199999999,-0.4010706,84.32222886000002,1.31207382,-17.84191212
7.59,759,0.015,-1.009,-0.059,-0.6875496,-10.313244,-0.4010706,84.31076970000002,1.30634424,-17.94504456
7.6,760,0.015,-1.007,-0.057,-0.5156622000000001,-10.1413566,-0.5156622000000001,84.32795844,1.30061466,-18.048177
7.61,761,0.016,-1.005,-0.055,-0.11459160000000004,-9.6256944,-0.6302538000000001,84.32795844,1.30061466,-18.14557986
7.62,762,0.016,-1.004,-0.055,0.1718874,-9.3965112,-0.7448454000000001,84.32795844,1.30061466,-18.23725314
7.63,763,0.014,-1.003,-0.056,0.572958,-9.224623800000002,-0.9167328,84.33368802,1.30634424,-18.32892642
7.64,764,0.013,-1.006,-0.059,0.9167328,-9.167328,-0.9740286,84.3394176,1.31207382,-18.4205997
7.65,765,0.013,-1.008,-0.058,1.0886202,-9.6256944,-1.0313244,84.3680655,1.30634424,-18.518002560000006
7.66,766,0.012,-1.006,-0.057,0.9167328,-10.1413566,-1.0313244,84.37952466,1.31207382,-18.621135
7.67,767,0.011,-1.005,-0.053,0.6302538000000001,-10.5424272,-1.0886202,84.38525424,1.31207382,-18.72426744
7.68,768,0.008,-1.002,-0.051,0.6302538000000001,-10.5424272,-1.0886202,84.39098382,1.3178034,-18.82739988
7.6899999999999995,769,0.006,-1.001,-0.051,0.8594370000000001,-10.255948199999999,-1.2032118,84.39671340000002,1.32353298,-18.93053232
7.7,770,0.005,-1.0,-0.049,1.0886202,-9.568398599999998,-1.2605076000000002,84.43682046,1.31207382,-19.02793518
7.71,771,0.002,-1.001,-0.047,1.0886202,-8.651665800000002,-1.2605076000000002,84.44827962000002,1.32353298,-19.11387888
7.72,772,-0.001,-1.003,-0.048,0.9740286,-7.6776372,-1.145916,84.4540092,1.32926256,-19.194093
7.7299999999999995,773,-0.004,-1.005,-0.049,1.0313244,-6.760904399999999,-0.9167328,84.46546836,1.32926256,-19.26284796
7.74,774,-0.005,-1.008,-0.05,0.9740286,-5.7868758000000025,-0.6302538000000001,84.47692752,1.3349921400000002,-19.32014376
7.75,775,-0.006999999999999999,-1.009,-0.05,0.8594370000000001,-4.9274388,-0.4010706,84.53422332,1.28342592,-19.37170998
7.76,776,-0.008,-1.009,-0.049,0.7448454000000001,-4.1252976000000015,-0.3437748,84.5399529,1.28342592,-19.41181704
7.77,777,-0.008,-1.011,-0.048,0.6875496,-3.380452200000001,-0.3437748,84.54568248000002,1.28342592,-19.44619452
7.78,778,-0.006,-1.013,-0.049,0.572958,-2.4064236,-0.4010706,84.55141205999998,1.2891555000000001,-19.46911284
7.79,779,-0.004,-1.012,-0.049,0.3437748,-1.2605076000000002,-0.4583664000000001,84.55714164,1.2891555000000001,-19.480572
7.8,780,-0.003,-1.013,-0.05,0.11459160000000004,-0.6302538000000001,-0.4583664000000001,84.79778400000002,1.04851314,-19.50349032
7.81,781,-0.001,-1.014,-0.05,-0.1718874,-0.057295800000000015,-0.4010706,84.79778400000002,1.05424272,-19.50349032
7.82,782,0.0,-1.014,-0.052000000000000005,-0.4010706,0.2291832000000001,-0.1718874,84.79205442,1.05424272,-19.50349032
