TimeStamp(s),FrameCounter,AccX,AccY,AccZ,GyrX,GyrY,GyrZ,EulerX,EulerY,EulerZ
0.01,1,0.018000000000000002,-0.998,-0.113,-1.145916,0.5156622000000001,-0.11459160000000004,84.49984584,1.53552744,-7.001546759999999
0.02,2,0.023,-0.993,-0.131,-0.2291832000000001,0.6302538000000001,-0.11459160000000004,84.49984584,1.5412570200000002,-6.99581718
0.03,3,0.023,-0.995,-0.13,-0.11459160000000004,0.5156622000000001,0.0,84.49411626,1.5412570200000002,-6.990087599999999
0.04,4,0.024,-0.996,-0.128,0.0,0.3437748,-0.11459160000000004,84.49411626,1.5412570200000002,-6.990087599999999
0.05,5,0.023,-0.998,-0.125,0.0,0.4583664000000001,-0.11459160000000004,84.23055558,1.5412570200000002,-6.990087599999999
0.060000000000000005,6,0.019,-0.998,-0.125,-0.2291832000000001,0.40107059999999994,-0.11459160000000004,84.22482600000002,1.5412570200000002,-6.98435802
0.06999999999999999,7,0.017,-0.998,-0.127,-0.286479,0.40107059999999994,-0.1718874,84.22482600000002,1.5469866,-6.97862844
0.08,8,0.016,-0.9990000000000001,-0.127,-0.2291832000000001,0.4583664000000001,-0.057295800000000015,84.21909642,1.5469866,-6.97862844
0.09,9,0.017,-1.001,-0.127,-0.1718874,0.5156622000000001,0.0,84.21909642,1.5469866,-6.972898860000001
0.09999999999999999,10,0.017,-1.0,-0.127,-0.1718874,0.572958,0.057295800000000015,84.01856111999999,1.52406828,-6.972898860000001
0.11,11,0.017,-1.0,-0.127,-0.11459160000000004,0.8594370000000001,0.11459160000000004,84.01856111999999,1.52406828,-6.9614397000000015
0.12,12,0.017,-1.0,-0.126,-0.2291832000000001,1.3178034,0.057295800000000015,84.01856111999999,1.52406828,-6.94998054
0.13,13,0.019,-1.001,-0.126,-0.11459160000000004,1.6042823999999998,0.0,84.01283154000002,1.52979786,-6.9327918
0.14,14,0.021,-1.002,-0.127,-0.286479,1.7188740000000002,0.0,84.01283154000002,1.52979786,-6.9156030600000005
0.15000000000000002,15,0.02,-1.002,-0.129,-0.40107059999999994,1.4896908000000002,0.057295800000000015,83.9096991,1.5183387000000002,-6.9041438999999984
0.16,16,0.02,-1.002,-0.126,-0.4583664000000001,1.0313244000000001,0.11459160000000004,83.90396952,1.5183387000000002,-6.89268474
0.17,17,0.019,-1.0,-0.126,-0.6302538000000001,0.6875496,0.2291832000000001,83.89823994000002,1.5183387000000002,-6.8869551599999985
0.18000000000000002,18,0.019,-0.998,-0.126,-0.6875496,0.6875496,0.2291832000000001,83.88678078000002,1.51260912,-6.875496000000001
0.19,19,0.019,-0.997,-0.126,-0.8021411999999999,0.9167328000000001,0.2291832000000001,83.8810512,1.51260912,-6.86976642
0.2,20,0.019,-0.998,-0.127,-0.8594370000000001,1.2605076000000002,0.286479,83.80656666,1.50687954,-6.858307260000001
0.21000000000000002,21,0.018000000000000002,-0.9990000000000001,-0.129,-0.6302538000000001,1.7761698000000001,0.2291832000000001,83.80083708,1.50687954,-6.83538894
0.22,22,0.016,-0.998,-0.128,-0.572958,1.7761698000000001,0.286479,83.7951075,1.50114996,-6.8182002000000015
0.23,23,0.016,-0.9990000000000001,-0.128,-0.572958,1.7188740000000002,0.3437748,83.78937792,1.50114996,-6.8010114600000025
0.24000000000000002,24,0.016,-1.001,-0.126,-0.7448454000000001,1.6042823999999998,0.3437748,83.77791876,1.50114996,-6.783822719999999
0.25,25,0.017,-1.001,-0.126,-0.6875496,1.6615782,0.4583664000000001,83.71489338,1.4896908000000002,-6.77236356
0.26,26,0.022000000000000002,-0.9990000000000001,-0.12300000000000001,-0.8021411999999999,1.432395,0.4583664000000001,83.7091638,1.4896908000000002,-6.7551748200000015
0.27,27,0.022000000000000002,-0.998,-0.121,-0.9167328000000001,1.7761698000000001,0.40107059999999994,83.69770464000001,1.48396122,-6.7379860800000015
0.28,28,0.024,-0.997,-0.129,-1.2605076000000002,2.2345362,0.5156622000000001,83.68624548,1.4782316400000002,-6.7150677599999975
0.29000000000000004,29,0.024,-0.996,-0.136,-1.3750992,2.1772404,0.6875496,83.67478632,1.47250206,-6.69214944
0.3,30,0.026000000000000002,-0.998,-0.135,-1.2032118,2.1199446,0.9740286,83.61749052,1.47250206,-6.669231119999999
0.31,31,0.025,-0.997,-0.134,-1.2032118,1.7761698000000001,0.9167328000000001,83.60030178,1.46677248,-6.65204238
0.32,32,0.023,-0.998,-0.136,-0.9740286,1.6042823999999998,0.8021411999999999,83.5945722,1.45531332,-6.63485364
0.33,33,0.023,-1.001,-0.13699999999999998,-0.6875496,1.5469866,0.8594370000000001,83.58884262000002,1.44958374,-6.6176648999999985
0.34,34,0.023,-1.003,-0.134,-0.6302538000000001,1.6042823999999998,0.8021411999999999,83.57738346,1.44385416,-6.60047616
0.35000000000000003,35,0.023,-1.001,-0.129,-0.572958,1.5469866,0.9167328000000001,83.52581724,1.43812458,-6.58328742
0.36000000000000004,36,0.022000000000000002,-0.998,-0.127,-0.5156622000000001,1.6042823999999998,0.9167328000000001,83.52008766,1.432395,-6.566098679999999
0.37,37,0.022000000000000002,-0.997,-0.129,-0.6875496,1.7761698000000001,0.8594370000000001,83.51435808,1.4209358399999998,-6.54890994
0.38,38,0.018000000000000002,-0.996,-0.131,-0.8021411999999999,1.7761698000000001,0.8594370000000001,83.50289891999998,1.41520626,-6.5317212
0.39,39,0.017,-0.995,-0.129,-0.9167328000000001,1.4896908000000002,0.6875496,83.49716934,1.40947668,-6.51453246
0.4,40,0.019,-0.993,-0.13,-0.9740286,1.0313244000000001,0.572958,83.4226848,1.4037471000000001,-6.5088028799999975
0.41000000000000003,41,0.018000000000000002,-0.992,-0.131,-1.0886202,0.7448454000000001,0.572958,83.41122564,1.39801752,-6.497343719999999
0.42000000000000004,42,0.019,-0.993,-0.132,-0.9740286,0.9167328000000001,0.572958,83.39976648,1.39228794,-6.48588456
0.43,43,0.018000000000000002,-0.9940000000000001,-0.132,-0.9740286,1.0313244000000001,0.4583664000000001,83.38830732,1.38655836,-6.4744253999999986
0.44,44,0.017,-0.995,-0.134,-0.8021411999999999,1.0886202,0.4583664000000001,83.38257774,1.38082878,-6.462966239999997
0.45,45,0.017,-0.9940000000000001,-0.132,-0.6875496,0.9740286,0.3437748,83.29663404,1.3750992,-6.45723666
0.46,46,0.018000000000000002,-0.996,-0.131,-0.6302538000000001,0.8594370000000001,0.286479,83.29090446000002,1.3750992,-6.4457775
0.47000000000000003,47,0.018000000000000002,-0.997,-0.131,-0.572958,0.8594370000000001,0.286479,83.28517488,1.36936962,-6.4400479200000005
0.48000000000000004,48,0.019,-0.998,-0.13,-0.572958,0.9740286,0.286479,83.27944529999998,1.36936962,-6.428588760000001
0.49,49,0.019,-1.001,-0.131,-0.6302538000000001,1.2605076000000002,0.286479,83.27371572000001,1.36936962,-6.417129600000001
0.5,50,0.019,-1.001,-0.135,-0.8021411999999999,1.3178034,0.3437748,83.19923118,1.36364004,-6.39994086
0.51,51,0.02,-1.0,-0.136,-0.8021411999999999,1.3750992,0.3437748,83.19350159999998,1.36364004,-6.3884817000000025
0.52,52,0.019,-1.001,-0.133,-0.8021411999999999,1.145916,0.286479,83.18204244,1.3579104599999998,-6.3770225400000005
0.53,53,0.017,-1.002,-0.133,-0.8021411999999999,0.8594370000000001,0.1718874,83.17631286,1.3579104599999998,-6.3655633799999976
0.54,54,0.016,-1.001,-0.132,-0.8594370000000001,0.572958,0.1718874,83.16485370000002,1.3579104599999998,-6.3598338000000005
0.55,55,0.019,-1.001,-0.134,-0.7448454000000001,0.572958,0.057295800000000015,83.05599168,1.3579104599999998,-6.3598338000000005
0.56,56,0.019,-0.9990000000000001,-0.134,-0.8594370000000001,0.572958,0.0,83.04453251999998,1.3579104599999998,-6.35410422
0.5700000000000001,57,0.019,-0.996,-0.135,-0.8594370000000001,0.572958,0.057295800000000015,83.03880294000002,1.3579104599999998,-6.348374640000001
0.5800000000000001,58,0.018000000000000002,-0.995,-0.133,-0.6875496,0.4583664000000001,0.057295800000000015,83.02734378,1.3579104599999998,-6.34264506
0.59,59,0.015,-0.9940000000000001,-0.132,-0.8021411999999999,0.6302538000000001,0.057295800000000015,83.0216142,1.3579104599999998,-6.33691548
0.6,60,0.013000000000000001,-0.993,-0.131,-0.7448454000000001,0.5156622000000001,0.0,82.9356705,1.3464512999999998,-6.3311859
0.61,61,0.013999999999999999,-0.993,-0.131,-0.7448454000000001,0.6302538000000001,0.057295800000000015,82.92421134,1.3464512999999998,-6.3254563200000025
0.62,62,0.017,-0.9940000000000001,-0.129,-0.6302538000000001,0.7448454000000001,0.0,82.91848175999998,1.3464512999999998,-6.31972674
0.63,63,0.017,-0.996,-0.13,-0.6302538000000001,0.8594370000000001,-0.057295800000000015,82.91275218,1.3464512999999998,-6.30826758
0.64,64,0.016,-0.998,-0.131,-0.6302538000000001,0.8021411999999999,-0.057295800000000015,82.90702259999998,1.35218088,-6.3025379999999975
0.65,65,0.017,-0.998,-0.132,-0.7448454000000001,0.6302538000000001,-0.11459160000000004,82.83253806,1.3464512999999998,-6.29680842
0.66,66,0.018000000000000002,-0.997,-0.134,-0.6875496,0.572958,-0.1718874,82.82680848,1.3464512999999998,-6.29107884
0.67,67,0.02,-0.995,-0.131,-0.572958,0.572958,-0.11459160000000004,82.82107890000002,1.3464512999999998,-6.2853492599999985
0.68,68,0.02,-0.9940000000000001,-0.129,-0.6875496,0.5156622000000001,-0.057295800000000015,82.80961973999997,1.35218088,-6.2796196800000015
0.6900000000000001,69,0.019,-0.9940000000000001,-0.132,-0.572958,0.4583664000000001,-0.1718874,82.80389016000002,1.35218088,-6.2738901
0.7000000000000001,70,0.019,-0.995,-0.13,-0.7448454000000001,0.6302538000000001,-0.2291832000000001,82.71794646,1.35218088,-6.26816052
0.7100000000000001,71,0.019,-0.996,-0.133,-0.7448454000000001,0.9740286,-0.2291832000000001,82.71221688,1.35218088,-6.26243094
0.72,72,0.019,-0.997,-0.134,-0.286479,0.6875496,-0.286479,82.7064873,1.3579104599999998,-6.25670136
0.73,73,0.021,-0.998,-0.136,0.0,0.11459160000000004,-0.286479,82.7064873,1.36364004,-6.25097178
0.74,74,0.022000000000000002,-0.998,-0.135,0.057295800000000015,-0.1718874,-0.2291832000000001,82.71221688,1.36364004,-6.25670136
0.75,75,0.022000000000000002,-0.997,-0.133,0.11459160000000004,-0.40107059999999994,-0.2291832000000001,82.58043654000002,1.38082878,-6.26243094
0.76,76,0.024,-0.996,-0.135,0.11459160000000004,-0.6875496,-0.286479,82.58616612,1.38655836,-6.26816052
0.77,77,0.022000000000000002,-0.996,-0.136,0.2291832000000001,-0.7448454000000001,-0.3437748,82.58616612,1.38655836,-6.2738901
0.78,78,0.019,-0.995,-0.134,0.2291832000000001,-0.572958,-0.40107059999999994,82.59189570000002,1.39228794,-6.2853492599999985
0.79,79,0.018000000000000002,-0.9990000000000001,-0.133,0.2291832000000001,-0.40107059999999994,-0.5156622000000001,82.59189570000002,1.39801752,-6.2853492599999985
0.8,80,0.018000000000000002,-0.9990000000000001,-0.13,0.11459160000000004,-0.286479,-0.5156622000000001,82.48876326,1.39228794,-6.29107884
0.81,81,0.02,-0.998,-0.128,-0.11459160000000004,-0.1718874,-0.40107059999999994,82.48876326,1.39801752,-6.29680842
0.8200000000000001,82,0.02,-0.996,-0.129,-0.286479,-0.11459160000000004,-0.286479,82.48876326,1.4037471000000001,-6.29680842
0.8300000000000001,83,0.02,-0.995,-0.133,-0.3437748,0.057295800000000015,-0.1718874,82.48303368,1.4037471000000001,-6.29680842
0.8400000000000001,84,0.022000000000000002,-0.997,-0.13699999999999998,-0.286479,0.3437748,-0.11459160000000004,82.4773041,1.4037471000000001,-6.29107884
0.85,85,0.021,-0.997,-0.13699999999999998,-0.057295800000000015,0.286479,0.0,82.31114628,1.40947668,-6.29680842
0.86,86,0.019,-0.9990000000000001,-0.13699999999999998,-0.057295800000000015,0.3437748,0.057295800000000015,82.31114628,1.40947668,-6.29107884
0.87,87,0.019,-0.997,-0.139,0.057295800000000015,0.057295800000000015,0.1718874,82.31114628,1.40947668,-6.29107884
0.88,88,0.021,-0.995,-0.139,0.40107059999999994,-0.11459160000000004,0.11459160000000004,82.31687586000002,1.4037471000000001,-6.29107884
0.89,89,0.02,-0.9940000000000001,-0.139,0.40107059999999994,0.0,0.1718874,82.31687586000002,1.4037471000000001,-6.29107884
0.9,90,0.021,-0.993,-0.14300000000000002,0.5156622000000001,0.286479,0.2291832000000001,82.21374342,1.4037471000000001,-6.29107884
0.91,91,0.022000000000000002,-0.993,-0.14400000000000002,0.6302538000000001,0.40107059999999994,0.3437748,82.219473,1.39801752,-6.2853492599999985
0.92,92,0.025,-0.993,-0.139,0.7448454000000001,0.1718874,0.5156622000000001,82.22520258,1.39801752,-6.2796196800000015
0.93,93,0.026000000000000002,-0.992,-0.134,0.6875496,0.1718874,0.572958,82.23666174,1.39228794,-6.2796196800000015
0.9400000000000001,94,0.026000000000000002,-0.992,-0.132,0.572958,0.286479,0.5156622000000001,82.24239132,1.38655836,-6.2738901
0.9500000000000001,95,0.026000000000000002,-0.9940000000000001,-0.135,0.40107059999999994,0.4583664000000001,0.4583664000000001,82.17936594,1.39228794,-6.26816052
0.9600000000000001,96,0.022000000000000002,-0.998,-0.136,0.5156622000000001,0.4583664000000001,0.572958,82.18509551999998,1.38655836,-6.26243094
0.97,97,0.02,-1.0,-0.13699999999999998,0.6875496,0.572958,0.6875496,82.19082510000001,1.38082878,-6.25670136
0.98,98,0.019,-1.002,-0.135,0.9167328000000001,0.5156622000000001,0.8021411999999999,82.20228426,1.3750992,-6.25097178
0.99,99,0.018000000000000002,-1.0,-0.135,0.9167328000000001,0.572958,0.6875496,82.21374342,1.36364004,-6.2452422000000025
1.0,100,0.018000000000000002,-0.996,-0.134,0.9167328000000001,0.6875496,0.5156622000000001,82.18509551999998,1.36364004,-6.2337830400000005
1.01,101,0.019,-0.991,-0.133,0.9740286,0.4583664000000001,0.40107059999999994,82.19655467999998,1.3579104599999998,-6.22805346
1.02,102,0.02,-0.9890000000000001,-0.133,1.2605076000000002,0.2291832000000001,0.286479,82.20801384,1.3579104599999998,-6.22805346
1.03,103,0.021,-0.99,-0.131,1.3750992,0.1718874,0.286479,82.22520258,1.35218088,-6.22232388
1.04,104,0.02,-0.991,-0.13,1.432395,0.2291832000000001,0.286479,82.23666174,1.35218088,-6.22232388
1.05,105,0.019,-0.993,-0.131,1.2032118,0.572958,0.286479,82.219473,1.3464512999999998,-6.2165943
1.06,106,0.019,-0.9940000000000001,-0.131,1.0886202,0.6302538000000001,0.286479,82.23093216,1.3464512999999998,-6.210864720000001
1.07,107,0.016,-0.995,-0.133,1.2605076000000002,0.6302538000000001,0.40107059999999994,82.24239132,1.34072172,-6.1994055600000015
1.08,108,0.018000000000000002,-0.995,-0.134,1.3178034,0.7448454000000001,0.40107059999999994,82.25385048,1.34072172,-6.19367598
1.09,109,0.02,-0.997,-0.134,1.5469866,0.9740286,0.40107059999999994,82.27103922,1.3349921400000002,-6.18221682
1.1,110,0.02,-0.9990000000000001,-0.132,1.7188740000000002,1.0886202,0.3437748,82.27103922,1.3349921400000002,-6.17075766
1.11,111,0.019,-1.001,-0.132,1.7761698000000001,1.3178034,0.40107059999999994,82.28822796,1.32926256,-6.1592985
1.12,112,0.02,-1.001,-0.135,1.7188740000000002,1.4896908000000002,0.5156622000000001,82.3054167,1.32926256,-6.14210976
1.1300000000000001,113,0.019,-0.9990000000000001,-0.142,1.9480572,1.3178034,0.6875496,82.32260544,1.32353298,-6.130650600000001
1.1400000000000001,114,0.019,-0.9990000000000001,-0.14,2.2345362,1.0313244000000001,0.6875496,82.34552376,1.3178034,-6.11919144
1.1500000000000001,115,0.02,-0.998,-0.139,2.4064236,0.6302538000000001,0.7448454000000001,82.34552376,1.31207382,-6.1077322800000005
1.1600000000000001,116,0.018000000000000002,-0.996,-0.135,2.5783110000000002,0.286479,0.6875496,82.37417166,1.30634424,-6.1020027
1.17,117,0.019,-0.9940000000000001,-0.132,2.5783110000000002,0.1718874,0.5156622000000001,82.40281956,1.30061466,-6.1020027
1.18,118,0.018000000000000002,-0.995,-0.131,2.3491277999999998,0.286479,0.3437748,82.42573788,1.29488508,-6.09627312
1.19,119,0.017,-0.997,-0.127,2.3491277999999998,0.2291832000000001,0.1718874,82.4486562,1.29488508,-6.09627312
1.2,120,0.018000000000000002,-0.997,-0.125,2.1199446,0.2291832000000001,0.057295800000000015,82.44292662,1.29488508,-6.09054354
1.21,121,0.019,-0.9990000000000001,-0.12300000000000001,1.8334656000000005,0.4583664000000001,0.0,82.46584494,1.29488508,-6.08481396
1.22,122,0.019,-1.0,-0.12300000000000001,1.6615782,0.6875496,-0.057295800000000015,82.4773041,1.29488508,-6.0790843799999985
1.23,123,0.02,-1.001,-0.124,1.3178034,0.8594370000000001,0.0,82.49449283999998,1.30061466,-6.0733548000000015
1.24,124,0.022000000000000002,-1.003,-0.124,1.0886202,0.9167328000000001,0.2291832000000001,82.50595200000002,1.29488508,-6.06189564
1.25,125,0.021,-1.003,-0.12300000000000001,0.9740286,0.8594370000000001,0.3437748,82.48876326,1.30061466,-6.05043648
1.26,126,0.021,-1.004,-0.121,0.9167328000000001,0.572958,0.40107059999999994,82.49449283999998,1.29488508,-6.0447069
1.27,127,0.02,-1.003,-0.11900000000000001,0.9167328000000001,0.2291832000000001,0.3437748,82.50595200000002,1.2891555,-6.0447069
1.28,128,0.019,-1.005,-0.11699999999999999,0.8594370000000001,0.057295800000000015,0.286479,82.51741116,1.2891555,-6.03897732
1.29,129,0.019,-1.003,-0.114,0.8021411999999999,0.11459160000000004,0.1718874,82.52314074,1.2891555,-6.03897732
1.3,130,0.019,-1.003,-0.113,0.6875496,0.1718874,0.0,82.51168158,1.29488508,-6.03897732
1.31,131,0.019,-1.005,-0.11199999999999999,0.5156622000000001,0.40107059999999994,-0.057295800000000015,82.51741116,1.29488508,-6.0332477399999975
1.32,132,0.022000000000000002,-1.005,-0.11599999999999999,0.40107059999999994,0.5156622000000001,0.0,82.52314074,1.30061466,-6.0275181600000005
1.33,133,0.023,-1.004,-0.11699999999999999,0.2291832000000001,0.5156622000000001,0.0,82.52887032,1.30061466,-6.02178858
1.34,134,0.024,-1.003,-0.12,0.1718874,0.3437748,0.11459160000000004,82.52887032,1.30061466,-6.02178858
1.35,135,0.025,-1.001,-0.11800000000000001,0.286479,0.0,0.286479,82.4773041,1.32926256,-6.016058999999999
1.36,136,0.024,-1.002,-0.11800000000000001,0.11459160000000004,-0.286479,0.3437748,82.48303368,1.32926256,-6.02178858
1.37,137,0.022000000000000002,-1.001,-0.11900000000000001,-0.11459160000000004,-0.5156622000000001,0.4583664000000001,82.4773041,1.32353298,-6.02178858
1.3800000000000001,138,0.02,-1.0,-0.122,-0.11459160000000004,-0.572958,0.40107059999999994,82.4773041,1.3178034,-6.0275181600000005
1.3900000000000001,139,0.017,-1.0,-0.125,-0.2291832000000001,-0.4583664000000001,0.3437748,82.4773041,1.31207382,-6.0332477399999975
1.4000000000000001,140,0.016,-0.9990000000000001,-0.126,-0.1718874,-0.1718874,0.2291832000000001,82.3627125,1.30061466,-6.03897732
1.4100000000000001,141,0.018000000000000002,-1.0,-0.126,-0.11459160000000004,0.11459160000000004,0.2291832000000001,82.35698292000002,1.29488508,-6.03897732
1.42,142,0.019,-0.998,-0.127,-0.2291832000000001,0.286479,0.2291832000000001,82.35698292000002,1.29488508,-6.0332477399999975
1.43,143,0.022000000000000002,-0.998,-0.13,-0.3437748,0.3437748,0.2291832000000001,82.35125334,1.29488508,-6.0275181600000005
1.44,144,0.023,-0.996,-0.131,-0.40107059999999994,0.286479,0.286479,82.34552376,1.2891555,-6.0275181600000005
1.45,145,0.024,-0.996,-0.134,-0.4583664000000001,0.0,0.2291832000000001,82.25385048,1.30634424,-6.0275181600000005
1.46,146,0.024,-0.9990000000000001,-0.134,-0.5156622000000001,-0.40107059999999994,0.2291832000000001,82.2481209,1.30634424,-6.0275181600000005
1.47,147,0.023,-0.9990000000000001,-0.132,-0.6875496,-0.6875496,0.057295800000000015,82.24239132,1.30061466,-6.03897732
1.48,148,0.023,-0.998,-0.133,-0.6875496,-0.7448454000000001,-0.057295800000000015,82.23666174,1.30061466,-6.0447069
1.49,149,0.023,-0.996,-0.133,-0.6875496,-0.572958,0.0,82.22520258,1.30061466,-6.05043648
1.5,150,0.02,-0.9940000000000001,-0.133,-0.6302538000000001,-0.6302538000000001,0.0,82.1621772,1.30061466,-6.05616606
1.51,151,0.018000000000000002,-0.996,-0.132,-0.6302538000000001,-0.286479,0.11459160000000004,82.15644762000002,1.30061466,-6.06189564
1.52,152,0.02,-0.996,-0.135,-0.4583664000000001,-0.1718874,0.4583664000000001,82.15071803999999,1.29488508,-6.06189564
1.53,153,0.023,-0.996,-0.132,-0.3437748,-0.2291832000000001,0.5156622000000001,82.15071803999999,1.2891555,-6.06189564
1.54,154,0.024,-0.996,-0.129,-0.2291832000000001,-0.286479,0.5156622000000001,82.14498846000002,1.28342592,-6.067625219999999
1.55,155,0.026000000000000002,-0.9940000000000001,-0.127,-0.057295800000000015,-0.286479,0.40107059999999994,82.09342224,1.30634424,-6.067625219999999
1.56,156,0.027999999999999997,-0.996,-0.127,-0.1718874,-0.2291832000000001,0.11459160000000004,82.09342224,1.30634424,-6.0733548000000015
1.57,157,0.027999999999999997,-0.998,-0.126,-0.2291832000000001,-0.1718874,0.057295800000000015,82.08769266,1.30634424,-6.0733548000000015
1.58,158,0.025,-0.9990000000000001,-0.128,-0.11459160000000004,-0.286479,0.1718874,82.08769266,1.30061466,-6.0733548000000015
1.59,159,0.021,-1.0,-0.13,0.057295800000000015,-0.40107059999999994,0.3437748,82.08769266,1.30061466,-6.0790843799999985
1.6,160,0.019,-1.002,-0.13,0.2291832000000001,-0.2291832000000001,0.6302538000000001,82.04185602,1.2891555,-6.0790843799999985
1.61,161,0.018000000000000002,-1.0,-0.128,0.2291832000000001,-0.1718874,0.6875496,82.04758559999998,1.28342592,-6.08481396
1.62,162,0.017,-0.9940000000000001,-0.124,0.286479,-0.057295800000000015,0.8021411999999999,82.04758559999998,1.27196676,-6.08481396
1.6300000000000001,163,0.018000000000000002,-0.992,-0.125,0.40107059999999994,0.0,0.8021411999999999,82.05331518,1.26623718,-6.0790843799999985
1.6400000000000001,164,0.018000000000000002,-0.993,-0.125,0.4583664000000001,0.057295800000000015,0.6875496,82.05904475999998,1.2605076000000002,-6.0790843799999985
1.6500000000000001,165,0.018000000000000002,-0.996,-0.126,0.286479,0.2291832000000001,0.4583664000000001,82.03612644,1.25477802,-6.0790843799999985
1.6600000000000001,166,0.018000000000000002,-0.998,-0.125,0.1718874,0.286479,0.40107059999999994,82.03612644,1.25477802,-6.0733548000000015
1.6700000000000002,167,0.018000000000000002,-0.996,-0.124,0.057295800000000015,0.3437748,0.3437748,82.03612644,1.24904844,-6.067625219999999
1.68,168,0.017,-0.9940000000000001,-0.125,0.057295800000000015,0.5156622000000001,0.4583664000000001,82.03612644,1.24904844,-6.06189564
1.69,169,0.018000000000000002,-0.993,-0.13,0.11459160000000004,0.5156622000000001,0.4583664000000001,82.04185602,1.24331886,-6.05616606
1.7,170,0.019,-0.996,-0.132,0.40107059999999994,0.7448454000000001,0.2291832000000001,82.00747854,1.24331886,-6.05043648
1.71,171,0.019,-0.9990000000000001,-0.132,0.572958,0.6875496,0.3437748,82.01320812,1.24331886,-6.03897732
1.72,172,0.02,-1.002,-0.129,0.6302538000000001,0.6875496,0.40107059999999994,82.0189377,1.23758928,-6.0332477399999975
1.73,173,0.019,-1.005,-0.128,0.572958,0.6875496,0.3437748,82.02466728,1.23758928,-6.0275181600000005
1.74,174,0.02,-1.004,-0.129,0.40107059999999994,0.9167328000000001,0.3437748,82.03039686,1.2318597,-6.016058999999999
1.75,175,0.019,-1.002,-0.131,0.3437748,0.9740286,0.3437748,82.00174896,1.23758928,-6.00459984
1.76,176,0.019,-0.9990000000000001,-0.132,0.286479,0.9167328000000001,0.3437748,82.00747854,1.2318597,-5.99887026
1.77,177,0.018000000000000002,-0.998,-0.132,0.286479,0.9167328000000001,0.40107059999999994,82.00747854,1.2318597,-5.9874111
1.78,178,0.02,-0.995,-0.133,0.4583664000000001,0.9167328000000001,0.4583664000000001,82.01320812,1.22613012,-5.97595194
1.79,179,0.02,-0.9940000000000001,-0.131,0.4583664000000001,0.9167328000000001,0.40107059999999994,82.0189377,1.22040054,-5.96449278
1.8,180,0.021,-0.991,-0.131,0.4583664000000001,0.9167328000000001,0.3437748,81.99601937999998,1.22613012,-5.958763200000001
1.81,181,0.021,-0.991,-0.132,0.5156622000000001,0.7448454000000001,0.286479,82.00174896,1.22040054,-5.9473040400000015
1.82,182,0.02,-0.992,-0.133,0.6875496,0.7448454000000001,0.2291832000000001,82.00747854,1.22040054,-5.94157446
1.83,183,0.02,-0.9940000000000001,-0.131,0.8021411999999999,0.6875496,0.1718874,82.0189377,1.22040054,-5.930115299999999
1.84,184,0.019,-0.997,-0.129,0.8021411999999999,0.6875496,0.057295800000000015,82.02466728,1.22040054,-5.92438572
1.85,185,0.018000000000000002,-0.9990000000000001,-0.128,0.8021411999999999,0.6875496,0.057295800000000015,82.01320812,1.22040054,-5.91865614
1.86,186,0.018000000000000002,-0.9990000000000001,-0.126,0.8594370000000001,0.6875496,0.057295800000000015,82.0189377,1.22040054,-5.9129265600000025
1.87,187,0.018000000000000002,-1.001,-0.126,0.6875496,0.7448454000000001,0.0,82.03039686,1.22040054,-5.9014674000000005
1.8800000000000001,188,0.017,-0.9990000000000001,-0.127,0.6302538000000001,0.6875496,0.0,82.03612644,1.22040054,-5.895737819999999
1.8900000000000001,189,0.02,-0.997,-0.128,0.6875496,0.7448454000000001,0.0,82.04185602,1.22040054,-5.89000824
1.9000000000000001,190,0.02,-0.995,-0.129,0.6302538000000001,0.7448454000000001,0.057295800000000015,82.0189377,1.22613012,-5.87854908
1.9100000000000001,191,0.021,-0.9940000000000001,-0.128,0.7448454000000001,0.7448454000000001,0.0,82.03039686,1.22613012,-5.8728194999999985
1.9200000000000002,192,0.02,-0.995,-0.127,0.8021411999999999,0.6875496,0.057295800000000015,82.03612644,1.22613012,-5.86708992
1.93,193,0.02,-0.996,-0.127,0.9167328000000001,0.7448454000000001,0.057295800000000015,82.04758559999998,1.22613012,-5.85563076
1.94,194,0.02,-0.995,-0.127,0.7448454000000001,1.0313244000000001,0.057295800000000015,82.05331518,1.2318597,-5.849901179999999
1.95,195,0.019,-0.996,-0.13,0.3437748,0.7448454000000001,-0.057295800000000015,81.98456021999998,1.2318597,-5.844171599999999
1.96,196,0.018000000000000002,-0.997,-0.128,0.1718874,0.286479,-0.286479,81.98456021999998,1.23758928,-5.83844202
1.97,197,0.019,-0.9990000000000001,-0.127,0.057295800000000015,0.2291832000000001,-0.40107059999999994,81.98456021999998,1.24331886,-5.83844202
1.98,198,0.018000000000000002,-1.002,-0.129,-0.057295800000000015,0.057295800000000015,-0.5156622000000001,81.98456021999998,1.24331886,-5.83844202
1.99,199,0.018000000000000002,-1.004,-0.128,-0.1718874,-0.11459160000000004,-0.4583664000000001,81.97883064,1.24904844,-5.83844202
2.0,200,0.017,-1.004,-0.127,-0.286479,-0.3437748,-0.40107059999999994,81.95018274,1.2605076000000002,-5.844171599999999
2.01,201,0.016,-1.004,-0.127,-0.4583664000000001,-0.1718874,-0.3437748,81.94445316,1.26623718,-5.844171599999999
2.02,202,0.015,-1.003,-0.129,-0.5156622000000001,0.11459160000000004,-0.40107059999999994,81.93872358,1.26623718,-5.844171599999999
2.03,203,0.016,-1.004,-0.128,-0.4583664000000001,0.2291832000000001,-0.3437748,81.93299400000002,1.27196676,-5.844171599999999
2.04,204,0.017,-1.002,-0.124,-0.286479,0.057295800000000015,-0.286479,81.93299400000002,1.27769634,-5.844171599999999
2.05,205,0.02,-1.001,-0.12300000000000001,-0.4583664000000001,0.0,-0.286479,81.91007568,1.29488508,-5.844171599999999
2.0599999999999996,206,0.024,-0.9990000000000001,-0.11900000000000001,-0.572958,0.11459160000000004,-0.057295800000000015,81.90434609999998,1.29488508,-5.844171599999999
2.07,207,0.026000000000000002,-0.998,-0.122,-0.8021411999999999,0.286479,-0.057295800000000015,81.89861652,1.29488508,-5.83844202
2.0799999999999996,208,0.027000000000000003,-0.997,-0.122,-0.9167328000000001,0.0,0.057295800000000015,81.88715736,1.29488508,-5.83844202
2.09,209,0.024,-0.997,-0.121,-1.0886202,-0.2291832000000001,0.11459160000000004,81.8756982,1.29488508,-5.844171599999999
2.0999999999999996,210,0.021,-0.9990000000000001,-0.121,-1.2605076000000002,-0.3437748,0.11459160000000004,81.85850946000002,1.29488508,-5.844171599999999
2.11,211,0.019,-0.997,-0.121,-1.2605076000000002,-0.4583664000000001,0.11459160000000004,81.8470503,1.29488508,-5.849901179999999
2.1199999999999997,212,0.02,-0.996,-0.125,-1.145916,-0.3437748,0.0,81.83559113999998,1.29488508,-5.85563076
2.13,213,0.02,-0.993,-0.129,-1.0313244000000001,0.0,0.0,81.82413198,1.29488508,-5.85563076
2.1399999999999997,214,0.02,-0.991,-0.132,-0.9167328000000001,-0.11459160000000004,0.0,81.81267282,1.2891555,-5.85563076
2.15,215,0.022000000000000002,-0.99,-0.133,-0.8021411999999999,-0.6302538000000001,0.057295800000000015,81.78402492,1.30061466,-5.861360339999999
2.1599999999999997,216,0.022000000000000002,-0.991,-0.131,-0.572958,-1.2605076000000002,0.11459160000000004,81.77829534,1.29488508,-5.8728194999999985
2.17,217,0.022000000000000002,-0.993,-0.131,-0.40107059999999994,-1.7188740000000002,0.0,81.77256575999998,1.29488508,-5.89000824
2.1799999999999997,218,0.021,-0.997,-0.133,-0.4583664000000001,-1.8907614,-0.2291832000000001,81.76683618000001,1.29488508,-5.9129265600000025
2.19,219,0.02,-1.001,-0.134,-0.6302538000000001,-1.7761698000000001,-0.286479,81.76110659999998,1.29488508,-5.930115299999999
2.1999999999999997,220,0.018000000000000002,-1.002,-0.132,-0.7448454000000001,-1.4896908000000002,-0.40107059999999994,81.73818828,1.29488508,-5.9473040400000015
2.21,221,0.018000000000000002,-1.002,-0.132,-0.6302538000000001,-1.0886202,-0.4583664000000001,81.73245870000002,1.30061466,-5.958763200000001
2.2199999999999998,222,0.017,-1.001,-0.133,-0.6302538000000001,-0.6875496,-0.40107059999999994,81.72672911999999,1.30634424,-5.96449278
2.23,223,0.018000000000000002,-0.998,-0.135,-0.6875496,-0.5156622000000001,-0.286479,81.72099954000002,1.30634424,-5.97022236
2.2399999999999998,224,0.017,-0.995,-0.134,-0.6875496,-0.4583664000000001,-0.286479,81.70954037999998,1.30634424,-5.97595194
2.25,225,0.016,-0.993,-0.132,-0.6302538000000001,-0.4583664000000001,-0.1718874,81.68089248,1.31207382,-5.98168152
2.26,226,0.019,-0.993,-0.131,-0.6302538000000001,-0.6875496,-0.11459160000000004,81.6751629,1.31207382,-5.9874111
2.27,227,0.018000000000000002,-0.9940000000000001,-0.132,-0.572958,-1.0886202,-0.1718874,81.66943332,1.31207382,-5.99887026
2.28,228,0.016,-0.996,-0.13,-0.6302538000000001,-1.2605076000000002,-0.40107059999999994,81.65797416000002,1.31207382,-6.016058999999999
2.29,229,0.016,-0.995,-0.128,-0.6302538000000001,-1.3750992,-0.6302538000000001,81.65224458,1.3178034,-6.0275181600000005
2.3,230,0.016,-0.9940000000000001,-0.129,-0.6875496,-1.145916,-0.8021411999999999,81.63505583999998,1.32353298,-6.03897732
2.31,231,0.016,-0.9940000000000001,-0.131,-0.572958,-1.0313244000000001,-0.8021411999999999,81.62932626,1.32926256,-6.05043648
2.32,232,0.018000000000000002,-0.995,-0.133,-0.4583664000000001,-0.7448454000000001,-0.8021411999999999,81.62359668,1.3349921400000002,-6.06189564
2.3299999999999996,233,0.02,-0.996,-0.133,-0.2291832000000001,-0.6875496,-0.7448454000000001,81.62359668,1.34072172,-6.067625219999999
2.34,234,0.022000000000000002,-0.998,-0.132,0.0,-0.8594370000000001,-0.6875496,81.62359668,1.3464512999999998,-6.0790843799999985
2.3499999999999996,235,0.024,-0.998,-0.131,0.0,-0.9740286,-0.572958,81.60640794,1.3579104599999998,-6.09054354
2.36,236,0.024,-1.0,-0.131,0.0,-1.0313244000000001,-0.6302538000000001,81.60640794,1.36364004,-6.1020027
2.3699999999999997,237,0.023,-0.997,-0.13,0.057295800000000015,-0.9740286,-0.6302538000000001,81.60640794,1.36936962,-6.113461859999999
2.38,238,0.023,-0.997,-0.131,0.11459160000000004,-0.9167328000000001,-0.6302538000000001,81.61213752,1.3750992,-6.12492102
2.3899999999999997,239,0.023,-0.995,-0.131,0.1718874,-0.9167328000000001,-0.6302538000000001,81.61213752,1.38082878,-6.130650600000001
2.4,240,0.024,-0.996,-0.131,0.057295800000000015,-0.9740286,-0.572958,81.59494878,1.39801752,-6.14210976
2.4099999999999997,241,0.026000000000000002,-0.996,-0.132,-0.057295800000000015,-0.9740286,-0.5156622000000001,81.5892192,1.39801752,-6.15356892
2.42,242,0.027000000000000003,-0.996,-0.135,-0.057295800000000015,-1.0886202,-0.4583664000000001,81.5892192,1.4037471000000001,-6.165028080000001
2.4299999999999997,243,0.025,-0.997,-0.133,-0.057295800000000015,-1.3178034,-0.40107059999999994,81.5892192,1.4037471000000001,-6.18221682
2.44,244,0.025,-0.997,-0.132,0.057295800000000015,-1.4896908000000002,-0.286479,81.5892192,1.40947668,-6.19367598
2.4499999999999997,245,0.024,-0.997,-0.135,0.286479,-1.6615782,-0.2291832000000001,81.57776004,1.41520626,-6.210864720000001
2.46,246,0.023,-0.997,-0.133,0.4583664000000001,-1.7188740000000002,-0.286479,81.58348962,1.41520626,-6.22805346
2.4699999999999998,247,0.021,-0.997,-0.13,0.4583664000000001,-1.6615782,-0.286479,81.5892192,1.41520626,-6.2452422000000025
2.48,248,0.021,-0.997,-0.132,0.3437748,-1.8334656000000005,-0.2291832000000001,81.5892192,1.41520626,-6.26243094
2.4899999999999998,249,0.022000000000000002,-0.998,-0.133,0.4583664000000001,-1.8907614,-0.2291832000000001,81.59494878,1.41520626,-6.2853492599999985
2.5,250,0.022000000000000002,-1.0,-0.131,0.6302538000000001,-1.8907614,-0.1718874,81.5892192,1.41520626,-6.3025379999999975
2.51,251,0.02,-0.9990000000000001,-0.13,0.40107059999999994,-1.8907614,-0.286479,81.59494878,1.4209358399999998,-6.31972674
2.52,252,0.018000000000000002,-0.998,-0.131,0.3437748,-1.7761698000000001,-0.286479,81.60067836,1.4209358399999998,-6.34264506
2.53,253,0.018000000000000002,-0.9940000000000001,-0.131,0.3437748,-1.7188740000000002,-0.3437748,81.60067836,1.4209358399999998,-6.3598338000000005
2.54,254,0.02,-0.993,-0.128,0.5156622000000001,-1.145916,-0.286479,81.60640794,1.4209358399999998,-6.37129296
2.55,255,0.022000000000000002,-0.995,-0.133,0.40107059999999994,-0.40107059999999994,-0.286479,81.57776004,1.432395,-6.3770225400000005
2.56,256,0.022000000000000002,-0.996,-0.134,0.40107059999999994,-0.2291832000000001,-0.1718874,81.58348962,1.432395,-6.3770225400000005
2.57,257,0.022000000000000002,-0.996,-0.13,0.572958,-0.286479,0.0,81.5892192,1.432395,-6.382752120000001
2.5799999999999996,258,0.021,-0.996,-0.127,0.4583664000000001,-0.40107059999999994,0.1718874,81.59494878,1.432395,-6.382752120000001
2.59,259,0.022000000000000002,-0.996,-0.127,0.286479,-0.5156622000000001,0.286479,81.59494878,1.42666542,-6.3884817000000025
2.5999999999999996,260,0.022000000000000002,-0.9990000000000001,-0.128,0.11459160000000004,-0.5156622000000001,0.3437748,81.57203046,1.42666542,-6.39421128
2.61,261,0.021,-0.9990000000000001,-0.13,0.057295800000000015,-0.3437748,0.1718874,81.57203046,1.4209358399999998,-6.39994086
2.6199999999999997,262,0.023,-0.9990000000000001,-0.131,0.057295800000000015,-0.11459160000000004,0.057295800000000015,81.57203046,1.4209358399999998,-6.39994086
2.63,263,0.022000000000000002,-1.0,-0.129,0.1718874,0.0,-0.057295800000000015,81.57776004,1.4209358399999998,-6.39994086
2.6399999999999997,264,0.023,-0.9990000000000001,-0.13,0.286479,0.1718874,-0.057295800000000015,81.57776004,1.4209358399999998,-6.39421128
2.65,265,0.022000000000000002,-1.0,-0.13,0.286479,0.286479,0.0,81.56630088,1.432395,-6.39421128
2.6599999999999997,266,0.024,-0.9990000000000001,-0.127,0.40107059999999994,0.40107059999999994,0.057295800000000015,81.57203046,1.432395,-6.3884817000000025
2.67,267,0.023,-1.0,-0.127,0.3437748,0.286479,0.1718874,81.57203046,1.42666542,-6.3884817000000025
2.6799999999999997,268,0.023,-0.998,-0.128,0.2291832000000001,0.11459160000000004,0.286479,81.57776004,1.42666542,-6.382752120000001
2.69,269,0.021,-1.0,-0.125,0.11459160000000004,0.11459160000000004,0.3437748,81.57776004,1.4209358399999998,-6.382752120000001
2.6999999999999997,270,0.021,-1.002,-0.126,0.0,0.0,0.286479,81.55484172,1.42666542,-6.382752120000001
2.71,271,0.022000000000000002,-1.0,-0.126,-0.057295800000000015,-0.057295800000000015,0.286479,81.55484172,1.4209358399999998,-6.382752120000001
2.7199999999999998,272,0.022000000000000002,-0.998,-0.126,-0.1718874,-0.057295800000000015,0.1718874,81.55484172,1.4209358399999998,-6.382752120000001
2.73,273,0.021,-0.998,-0.127,-0.3437748,-0.1718874,0.2291832000000001,81.54911214,1.41520626,-6.382752120000001
2.7399999999999998,274,0.019,-0.996,-0.129,-0.1718874,-0.1718874,0.286479,81.54911214,1.41520626,-6.3884817000000025
2.75,275,0.019,-0.996,-0.129,0.057295800000000015,-0.2291832000000001,0.40107059999999994,81.52619381999997,1.41520626,-6.3884817000000025
2.76,276,0.018000000000000002,-0.9990000000000001,-0.129,0.2291832000000001,-0.11459160000000004,0.40107059999999994,81.52619381999997,1.40947668,-6.3884817000000025
2.77,277,0.019,-0.9990000000000001,-0.127,0.286479,0.057295800000000015,0.286479,81.53192340000003,1.4037471000000001,-6.3884817000000025
2.78,278,0.018000000000000002,-1.0,-0.125,0.1718874,0.2291832000000001,0.286479,81.53192340000003,1.4037471000000001,-6.382752120000001
2.79,279,0.018000000000000002,-1.0,-0.126,0.11459160000000004,0.3437748,0.3437748,81.53192340000003,1.39801752,-6.382752120000001
2.8,280,0.018000000000000002,-0.9990000000000001,-0.128,0.1718874,0.40107059999999994,0.3437748,81.52619381999997,1.39228794,-6.3770225400000005
2.81,281,0.018000000000000002,-1.001,-0.129,0.057295800000000015,0.4583664000000001,0.3437748,81.52619381999997,1.38655836,-6.37129296
2.82,282,0.02,-1.001,-0.128,-0.11459160000000004,0.286479,0.4583664000000001,81.52619381999997,1.38082878,-6.3655633799999976
2.8299999999999996,283,0.019,-1.0,-0.127,-0.1718874,0.0,0.5156622000000001,81.52619381999997,1.38082878,-6.3655633799999976
2.84,284,0.02,-0.998,-0.129,0.0,-0.057295800000000015,0.572958,81.52046424,1.3750992,-6.3655633799999976
2.8499999999999996,285,0.019,-0.998,-0.131,0.0,-0.2291832000000001,0.3437748,81.48035718,1.3750992,-6.37129296
2.86,286,0.02,-0.997,-0.13,-0.057295800000000015,-0.1718874,0.1718874,81.48035718,1.36936962,-6.37129296
2.8699999999999997,287,0.02,-0.998,-0.13,0.0,-0.1718874,0.11459160000000004,81.48035718,1.36936962,-6.37129296
2.88,288,0.02,-1.0,-0.13,0.40107059999999994,-0.057295800000000015,0.11459160000000004,81.48608676,1.36936962,-6.37129296
2.8899999999999997,289,0.02,-1.003,-0.129,0.40107059999999994,0.0,0.1718874,81.49181634,1.36364004,-6.37129296
2.9,290,0.017,-1.003,-0.128,0.3437748,0.11459160000000004,0.3437748,81.48608676,1.3579104599999998,-6.37129296
2.9099999999999997,291,0.015,-1.002,-0.125,0.40107059999999994,0.11459160000000004,0.40107059999999994,81.49181634,1.35218088,-6.37129296
2.92,292,0.015,-1.0,-0.122,0.0,0.286479,0.40107059999999994,81.49181634,1.3464512999999998,-6.3655633799999976
2.9299999999999997,293,0.018000000000000002,-0.998,-0.12300000000000001,-0.286479,0.286479,0.40107059999999994,81.48608676,1.34072172,-6.3598338000000005
2.94,294,0.018000000000000002,-0.995,-0.125,-0.3437748,0.40107059999999994,0.3437748,81.48608676,1.34072172,-6.3598338000000005
2.9499999999999997,295,0.019,-0.992,-0.128,-0.4583664000000001,0.3437748,-0.11459160000000004,81.46889802,1.34072172,-6.35410422
2.96,296,0.018000000000000002,-0.99,-0.128,-0.40107059999999994,0.1718874,-0.286479,81.46316844,1.3464512999999998,-6.35410422
2.9699999999999998,297,0.017,-0.99,-0.129,-0.4583664000000001,0.0,-0.2291832000000001,81.45743886,1.3464512999999998,-6.35410422
2.98,298,0.016,-0.991,-0.13,-0.40107059999999994,-0.1718874,-0.286479,81.45170928,1.35218088,-6.35410422
2.9899999999999998,299,0.017,-0.993,-0.13,-0.2291832000000001,-0.4583664000000001,-0.286479,81.45170928,1.35218088,-6.3598338000000005
3.0,300,0.019,-0.996,-0.129,-0.057295800000000015,-0.5156622000000001,-0.3437748,81.43452054,1.3579104599999998,-6.3655633799999976
3.01,301,0.018000000000000002,-0.998,-0.129,-0.057295800000000015,-0.572958,-0.40107059999999994,81.43452054,1.3579104599999998,-6.37129296
3.02,302,0.019,-0.9990000000000001,-0.128,-0.1718874,-0.40107059999999994,-0.5156622000000001,81.43452054,1.36364004,-6.3770225400000005
3.03,303,0.018000000000000002,-1.0,-0.128,-0.057295800000000015,-0.1718874,-0.5156622000000001,81.43452054,1.36936962,-6.382752120000001
3.04,304,0.019,-1.001,-0.13,0.0,-0.2291832000000001,-0.4583664000000001,81.43452054,1.3750992,-6.382752120000001
3.05,305,0.019,-1.001,-0.13,0.057295800000000015,-0.11459160000000004,-0.286479,81.42306138000002,1.38082878,-6.3884817000000025
3.06,306,0.019,-1.0,-0.132,0.11459160000000004,-0.1718874,-0.2291832000000001,81.42306138000002,1.38082878,-6.3884817000000025
3.07,307,0.019,-0.9990000000000001,-0.133,0.057295800000000015,-0.286479,-0.286479,81.42306138000002,1.38655836,-6.39421128
3.08,308,0.02,-0.998,-0.132,0.057295800000000015,-0.3437748,-0.3437748,81.42306138000002,1.38655836,-6.39994086
3.09,309,0.021,-0.996,-0.132,0.1718874,-0.572958,-0.40107059999999994,81.42306138000002,1.39228794,-6.40567044
3.0999999999999996,310,0.02,-0.993,-0.13,0.286479,-0.8594370000000001,-0.5156622000000001,81.4173318,1.39801752,-6.4114000199999985
3.11,311,0.021,-0.993,-0.13,0.3437748,-0.9167328000000001,-0.572958,81.42306138000002,1.4037471000000001,-6.4228591800000014
3.1199999999999997,312,0.019,-0.9940000000000001,-0.128,0.40107059999999994,-1.0313244000000001,-0.572958,81.42879096,1.4037471000000001,-6.43431834
3.13,313,0.019,-0.996,-0.128,0.3437748,-0.9740286,-0.6302538000000001,81.43452054,1.40947668,-6.4457775
3.1399999999999997,314,0.018000000000000002,-0.997,-0.126,0.3437748,-0.8594370000000001,-0.572958,81.43452054,1.41520626,-6.45723666
3.15,315,0.018000000000000002,-0.9990000000000001,-0.126,0.1718874,-0.9167328000000001,-0.40107059999999994,81.44025012,1.41520626,-6.462966239999997
3.1599999999999997,316,0.018000000000000002,-0.9990000000000001,-0.12300000000000001,0.11459160000000004,-0.6875496,-0.2291832000000001,81.44025012,1.4209358399999998,-6.4744253999999986
3.17,317,0.019,-0.997,-0.125,0.11459160000000004,-0.6302538000000001,-0.3437748,81.4459797,1.4209358399999998,-6.48015498
3.1799999999999997,318,0.02,-0.997,-0.126,0.11459160000000004,-0.5156622000000001,-0.3437748,81.4459797,1.42666542,-6.48588456
3.19,319,0.02,-0.996,-0.127,0.11459160000000004,-0.286479,-0.40107059999999994,81.4459797,1.42666542,-6.49161414
3.1999999999999997,320,0.022000000000000002,-0.996,-0.128,0.3437748,-0.1718874,-0.40107059999999994,81.44025012,1.43812458,-6.49161414
3.21,321,0.022000000000000002,-0.996,-0.127,0.3437748,0.057295800000000015,-0.3437748,81.4459797,1.44385416,-6.49161414
3.2199999999999998,322,0.023,-0.998,-0.128,0.4583664000000001,0.0,-0.286479,81.45170928,1.44385416,-6.49161414
3.23,323,0.024,-0.998,-0.129,0.4583664000000001,-0.2291832000000001,-0.2291832000000001,81.45743886,1.44958374,-6.497343719999999
3.2399999999999998,324,0.024,-0.998,-0.128,0.4583664000000001,-0.5156622000000001,-0.3437748,81.46316844,1.44958374,-6.5030733
3.25,325,0.021,-0.998,-0.127,0.6302538000000001,-1.0313244000000001,-0.2291832000000001,81.46889802,1.45531332,-6.5088028799999975
3.26,326,0.021,-0.997,-0.124,0.5156622000000001,-1.3178034,-0.3437748,81.47462759999998,1.45531332,-6.525991620000001
3.27,327,0.02,-0.998,-0.125,0.40107059999999994,-1.432395,-0.40107059999999994,81.48035718,1.45531332,-6.53745078
3.28,328,0.022000000000000002,-0.997,-0.125,0.4583664000000001,-1.432395,-0.6302538000000001,81.48035718,1.4610428999999998,-6.5546395199999985
3.29,329,0.022000000000000002,-0.998,-0.127,0.40107059999999994,-1.3750992,-0.7448454000000001,81.48608676,1.46677248,-6.5718282599999975
3.3,330,0.022000000000000002,-1.0,-0.127,0.40107059999999994,-1.3178034,-0.9167328000000001,81.49181634,1.4782316400000002,-6.58328742
3.31,331,0.022000000000000002,-1.002,-0.126,0.286479,-1.2032118,-0.9740286,81.49181634,1.48396122,-6.60047616
3.32,332,0.021,-1.002,-0.125,0.3437748,-1.3178034,-0.9167328000000001,81.49754592000002,1.4896908000000002,-6.611935319999999
3.33,333,0.02,-1.001,-0.125,0.1718874,-1.432395,-0.8021411999999999,81.49754592000002,1.50114996,-6.62912406
3.34,334,0.018000000000000002,-0.9990000000000001,-0.12300000000000001,0.1718874,-1.432395,-0.6875496,81.49754592000002,1.50114996,-6.6463128
3.3499999999999996,335,0.017,-0.998,-0.122,0.11459160000000004,-1.3178034,-0.572958,81.50900508000002,1.50114996,-6.65777196
3.36,336,0.016,-0.9990000000000001,-0.12300000000000001,0.0,-1.145916,-0.572958,81.50900508000002,1.50114996,-6.669231119999999
3.3699999999999997,337,0.016,-0.9990000000000001,-0.121,-0.057295800000000015,-0.8021411999999999,-0.572958,81.5032755,1.50687954,-6.680690279999999
3.38,338,0.017,-0.9990000000000001,-0.12300000000000001,-0.057295800000000015,-0.4583664000000001,-0.572958,81.5032755,1.51260912,-6.686419860000001
3.3899999999999997,339,0.02,-0.998,-0.126,-0.11459160000000004,-0.11459160000000004,-0.5156622000000001,81.5032755,1.5183387000000002,-6.686419860000001
3.4,340,0.023,-1.0,-0.125,-0.2291832000000001,0.0,-0.40107059999999994,81.5032755,1.52979786,-6.686419860000001
3.4099999999999997,341,0.024,-1.001,-0.12300000000000001,-0.1718874,0.057295800000000015,-0.40107059999999994,81.49754592000002,1.53552744,-6.686419860000001
3.42,342,0.026000000000000002,-1.002,-0.122,-0.2291832000000001,0.0,-0.286479,81.49754592000002,1.5412570200000002,-6.686419860000001
3.4299999999999997,343,0.026000000000000002,-1.002,-0.12300000000000001,-0.286479,-0.11459160000000004,-0.057295800000000015,81.49181634,1.5412570200000002,-6.69214944
3.44,344,0.026000000000000002,-1.002,-0.122,-0.1718874,-0.2291832000000001,0.0,81.49181634,1.5412570200000002,-6.69214944
3.4499999999999997,345,0.024,-1.003,-0.122,-0.3437748,-0.5156622000000001,0.0,81.49181634,1.5412570200000002,-6.69787902
3.46,346,0.021,-1.001,-0.124,-0.572958,-0.6875496,0.1718874,81.48608676,1.53552744,-6.7036086
3.4699999999999998,347,0.02,-1.001,-0.126,-0.5156622000000001,-1.0313244000000001,0.1718874,81.48035718,1.53552744,-6.7150677599999975
3.48,348,0.021,-1.0,-0.125,-0.5156622000000001,-1.2032118,0.286479,81.47462759999998,1.52979786,-6.72652692
3.4899999999999998,349,0.021,-0.998,-0.124,-0.5156622000000001,-1.145916,0.057295800000000015,81.46889802,1.52406828,-6.7379860800000015
3.5,350,0.024,-0.996,-0.124,-0.6875496,-1.0886202,-0.1718874,81.46316844,1.52979786,-6.74944524
3.51,351,0.026000000000000002,-0.9940000000000001,-0.125,-0.7448454000000001,-0.8594370000000001,-0.1718874,81.45743886,1.52979786,-6.7551748200000015
3.52,352,0.027999999999999997,-0.996,-0.126,-0.5156622000000001,-0.7448454000000001,-0.057295800000000015,81.45170928,1.52979786,-6.76663398
3.53,353,0.028999999999999998,-0.998,-0.125,-0.3437748,-0.6875496,0.11459160000000004,81.4459797,1.52979786,-6.77236356
3.54,354,0.028999999999999998,-1.0,-0.126,-0.4583664000000001,-0.7448454000000001,0.286479,81.44025012,1.52406828,-6.77809314
3.55,355,0.023,-1.001,-0.127,-0.5156622000000001,-0.7448454000000001,0.4583664000000001,81.43452054,1.5183387000000002,-6.783822719999999
3.56,356,0.018000000000000002,-0.9990000000000001,-0.129,-0.6875496,-0.8594370000000001,0.5156622000000001,81.42879096,1.51260912,-6.79528188
3.57,357,0.017,-0.9940000000000001,-0.129,-0.572958,-0.9167328000000001,0.5156622000000001,81.4173318,1.50687954,-6.8010114600000025
3.58,358,0.017,-0.992,-0.127,-0.4583664000000001,-0.8594370000000001,0.3437748,81.4173318,1.50114996,-6.812470620000001
3.59,359,0.018000000000000002,-0.992,-0.128,-0.40107059999999994,-0.6875496,0.057295800000000015,81.41160221999998,1.50114996,-6.8182002000000015
3.5999999999999996,360,0.018000000000000002,-0.993,-0.126,-0.40107059999999994,-0.5156622000000001,-0.1718874,81.40587264,1.49542038,-6.82392978
3.61,361,0.018000000000000002,-0.993,-0.128,-0.286479,-0.286479,-0.2291832000000001,81.40014306,1.49542038,-6.829659359999999
3.6199999999999997,362,0.02,-0.992,-0.131,-0.286479,-0.057295800000000015,-0.1718874,81.39441348,1.49542038,-6.829659359999999
3.63,363,0.021,-0.993,-0.133,-0.057295800000000015,0.0,-0.057295800000000015,81.39441348,1.49542038,-6.829659359999999
3.6399999999999997,364,0.02,-0.996,-0.132,0.2291832000000001,-0.1718874,0.0,81.40014306,1.49542038,-6.829659359999999
3.65,365,0.02,-0.9990000000000001,-0.131,0.3437748,-0.2291832000000001,0.0,81.3886839,1.4896908000000002,-6.83538894
3.6599999999999997,366,0.019,-1.0,-0.13,0.1718874,-0.286479,0.0,81.3886839,1.4896908000000002,-6.83538894
3.67,367,0.019,-1.001,-0.127,0.11459160000000004,-0.3437748,0.057295800000000015,81.3886839,1.4896908000000002,-6.8411185199999975
3.6799999999999997,368,0.019,-1.002,-0.125,0.11459160000000004,-0.5156622000000001,0.057295800000000015,81.39441348,1.4896908000000002,-6.8468481
3.69,369,0.017,-1.002,-0.125,0.0,-0.3437748,0.0,81.39441348,1.48396122,-6.8468481
3.6999999999999997,370,0.016,-1.002,-0.126,-0.1718874,-0.2291832000000001,0.057295800000000015,81.40014306,1.44958374,-6.85257768
3.71,371,0.013000000000000001,-1.001,-0.127,-0.3437748,0.057295800000000015,0.057295800000000015,81.39441348,1.44958374,-6.85257768
3.7199999999999998,372,0.015,-1.001,-0.128,-0.3437748,0.40107059999999994,0.057295800000000015,81.39441348,1.44958374,-6.8468481
3.73,373,0.016,-1.0,-0.127,-0.1718874,0.4583664000000001,0.057295800000000015,81.3886839,1.44958374,-6.8411185199999975
3.7399999999999998,374,0.017,-0.997,-0.127,-0.057295800000000015,0.3437748,0.057295800000000015,81.3886839,1.44958374,-6.8411185199999975
3.75,375,0.021,-0.995,-0.128,-0.057295800000000015,0.286479,0.0,81.38295432,1.45531332,-6.83538894
3.76,376,0.023,-0.993,-0.127,0.057295800000000015,0.1718874,0.0,81.38295432,1.45531332,-6.83538894
3.77,377,0.023,-0.992,-0.125,0.11459160000000004,0.057295800000000015,0.057295800000000015,81.38295432,1.44958374,-6.83538894
3.78,378,0.022000000000000002,-0.993,-0.124,0.1718874,0.057295800000000015,0.057295800000000015,81.3886839,1.44958374,-6.829659359999999
3.79,379,0.022000000000000002,-0.997,-0.122,0.057295800000000015,0.2291832000000001,0.1718874,81.3886839,1.44958374,-6.829659359999999
3.8,380,0.022000000000000002,-0.998,-0.11900000000000001,0.0,0.572958,0.1718874,81.4173318,1.44958374,-6.82392978
3.81,381,0.02,-1.001,-0.121,-0.057295800000000015,0.7448454000000001,0.057295800000000015,81.4173318,1.44958374,-6.812470620000001
3.82,382,0.021,-1.0,-0.12,-0.1718874,0.6875496,0.11459160000000004,81.4173318,1.44958374,-6.80674104
3.83,383,0.02,-1.002,-0.124,-0.2291832000000001,0.5156622000000001,0.0,81.41160221999998,1.44958374,-6.8010114600000025
3.84,384,0.019,-1.0,-0.125,-0.3437748,0.40107059999999994,0.0,81.41160221999998,1.44958374,-6.79528188
3.8499999999999996,385,0.02,-1.0,-0.124,-0.286479,0.286479,0.057295800000000015,81.41160221999998,1.44958374,-6.79528188
3.86,386,0.021,-1.0,-0.12300000000000001,-0.4583664000000001,0.057295800000000015,0.0,81.40587264,1.44958374,-6.79528188
3.8699999999999997,387,0.021,-0.997,-0.122,-0.572958,0.2291832000000001,-0.057295800000000015,81.40014306,1.44958374,-6.7895523
3.88,388,0.022000000000000002,-0.997,-0.12300000000000001,-0.6302538000000001,0.286479,-0.11459160000000004,81.39441348,1.45531332,-6.7895523
3.8899999999999997,389,0.023,-0.996,-0.125,-0.6875496,0.1718874,-0.11459160000000004,81.3886839,1.45531332,-6.783822719999999
3.9,390,0.02,-0.998,-0.128,-0.8021411999999999,0.057295800000000015,-0.057295800000000015,81.37149516,1.45531332,-6.783822719999999
3.9099999999999997,391,0.019,-0.9990000000000001,-0.129,-0.8594370000000001,-0.057295800000000015,0.0,81.36576558,1.44958374,-6.7895523
3.92,392,0.018000000000000002,-1.0,-0.127,-1.0313244000000001,-0.057295800000000015,0.0,81.35430642,1.44958374,-6.7895523
3.9299999999999997,393,0.019,-1.001,-0.129,-0.9740286,0.1718874,-0.057295800000000015,81.34284726,1.45531332,-6.783822719999999
3.94,394,0.019,-1.0,-0.13,-0.9167328000000001,0.4583664000000001,0.0,81.33711767999998,1.45531332,-6.783822719999999
3.9499999999999997,395,0.019,-0.9990000000000001,-0.129,-0.9740286,0.572958,-0.057295800000000015,81.32565852,1.45531332,-6.77809314
3.96,396,0.021,-0.997,-0.128,-1.145916,0.4583664000000001,-0.11459160000000004,81.31419936,1.45531332,-6.77236356
3.9699999999999998,397,0.022000000000000002,-0.996,-0.131,-1.2032118,0.0,-0.11459160000000004,81.29701062000002,1.4610428999999998,-6.77236356
3.98,398,0.022000000000000002,-0.9940000000000001,-0.133,-1.145916,-0.3437748,-0.11459160000000004,81.28555146,1.4610428999999998,-6.77809314
3.9899999999999998,399,0.02,-0.9940000000000001,-0.135,-0.9740286,-0.572958,-0.11459160000000004,81.27409229999998,1.4610428999999998,-6.783822719999999
4.0,400,0.02,-0.9940000000000001,-0.132,-0.6875496,-0.6302538000000001,-0.11459160000000004,81.26263314,1.45531332,-6.7895523
4.01,401,0.02,-0.996,-0.129,-0.9167328000000001,-0.6875496,-0.1718874,81.25117398,1.45531332,-6.79528188
4.02,402,0.019,-0.998,-0.128,-1.0313244000000001,-0.6302538000000001,-0.286479,81.23971482,1.4610428999999998,-6.8010114600000025
4.03,403,0.019,-0.997,-0.128,-1.2032118,-0.6302538000000001,-0.5156622000000001,81.22825566,1.46677248,-6.812470620000001
4.04,404,0.018000000000000002,-0.997,-0.128,-1.145916,-0.5156622000000001,-0.6302538000000001,81.21679650000002,1.47250206,-6.8182002000000015
4.05,405,0.018000000000000002,-0.9990000000000001,-0.13,-0.9740286,-0.40107059999999994,-0.6302538000000001,81.20533734,1.47250206,-6.82392978
4.06,406,0.02,-1.0,-0.133,-0.8594370000000001,-0.286479,-0.572958,81.19960776,1.4782316400000002,-6.82392978
4.07,407,0.021,-1.0,-0.133,-0.572958,-0.4583664000000001,-0.40107059999999994,81.19387818,1.4782316400000002,-6.829659359999999
4.08,408,0.021,-1.001,-0.13,-0.5156622000000001,-0.7448454000000001,-0.2291832000000001,81.18814859999998,1.48396122,-6.8411185199999975
4.09,409,0.021,-0.9990000000000001,-0.129,-0.3437748,-1.145916,0.0,81.18241902,1.4782316400000002,-6.85257768
4.1,410,0.021,-0.997,-0.128,-0.40107059999999994,-1.3750992,0.0,81.18814859999998,1.4782316400000002,-6.86403684
4.109999999999999,411,0.021,-0.996,-0.126,-0.4583664000000001,-1.3178034,0.0,81.18241902,1.4782316400000002,-6.8812255800000015
4.12,412,0.022000000000000002,-0.996,-0.126,-0.3437748,-1.3178034,-0.1718874,81.17668943999998,1.4782316400000002,-6.89268474
4.13,413,0.022000000000000002,-0.997,-0.128,-0.057295800000000015,-1.2605076000000002,-0.3437748,81.17668943999998,1.4782316400000002,-6.9041438999999984
4.14,414,0.022000000000000002,-0.998,-0.128,0.0,-1.145916,-0.40107059999999994,81.17668943999998,1.48396122,-6.9156030600000005
4.1499999999999995,415,0.019,-0.9990000000000001,-0.13,0.0,-1.2032118,-0.40107059999999994,81.17668943999998,1.4782316400000002,-6.9327918
4.16,416,0.017,-0.9990000000000001,-0.129,-0.057295800000000015,-1.145916,-0.2291832000000001,81.17668943999998,1.48396122,-6.94425096
4.17,417,0.016,-0.998,-0.127,0.0,-1.2032118,-0.11459160000000004,81.17668943999998,1.48396122,-6.955710119999999
4.18,418,0.018000000000000002,-0.997,-0.126,-0.057295800000000015,-1.0313244000000001,-0.057295800000000015,81.17668943999998,1.4782316400000002,-6.96716928
4.1899999999999995,419,0.018000000000000002,-0.995,-0.126,-0.11459160000000004,-0.7448454000000001,-0.057295800000000015,81.17668943999998,1.4782316400000002,-6.972898860000001
4.2,420,0.019,-0.9940000000000001,-0.129,-0.11459160000000004,-0.6875496,-0.1718874,81.17668943999998,1.47250206,-6.97862844
4.21,421,0.018000000000000002,-0.995,-0.131,0.0,-0.5156622000000001,-0.2291832000000001,81.17668943999998,1.4782316400000002,-6.98435802
4.22,422,0.02,-0.996,-0.13,0.0,-0.4583664000000001,-0.2291832000000001,81.17668943999998,1.4782316400000002,-6.990087599999999
4.2299999999999995,423,0.02,-0.996,-0.131,-0.057295800000000015,-0.40107059999999994,-0.2291832000000001,81.17668943999998,1.4782316400000002,-6.99581718
4.24,424,0.019,-0.998,-0.132,0.0,-0.5156622000000001,-0.1718874,81.17668943999998,1.48396122,-7.001546759999999
4.25,425,0.018000000000000002,-0.9990000000000001,-0.133,-0.11459160000000004,-0.4583664000000001,-0.11459160000000004,81.1595007,1.47250206,-7.00727634
4.26,426,0.018000000000000002,-1.001,-0.134,-0.2291832000000001,-0.3437748,-0.057295800000000015,81.1595007,1.47250206,-7.01300592
4.27,427,0.018000000000000002,-0.998,-0.132,-0.11459160000000004,-0.3437748,0.0,81.1595007,1.47250206,-7.01300592
4.28,428,0.016,-0.996,-0.133,0.0,-0.286479,0.0,81.1595007,1.47250206,-7.018735500000001
4.29,429,0.015,-0.995,-0.135,0.286479,-0.11459160000000004,0.0,81.1595007,1.47250206,-7.018735500000001
4.3,430,0.013999999999999999,-0.993,-0.133,0.4583664000000001,0.0,-0.057295800000000015,81.1595007,1.45531332,-7.018735500000001
4.31,431,0.015,-0.993,-0.132,0.5156622000000001,0.3437748,-0.1718874,81.16523028,1.45531332,-7.01300592
4.32,432,0.018000000000000002,-0.996,-0.13,0.4583664000000001,0.572958,-0.2291832000000001,81.17095986,1.4610428999999998,-7.00727634
4.33,433,0.019,-0.9990000000000001,-0.132,0.4583664000000001,0.5156622000000001,-0.286479,81.17095986,1.46677248,-7.00727634
4.34,434,0.021,-0.998,-0.129,0.5156622000000001,0.3437748,-0.286479,81.18241902,1.46677248,-7.001546759999999
4.35,435,0.021,-0.998,-0.128,0.5156622000000001,0.2291832000000001,-0.286479,81.19387818,1.47250206,-7.001546759999999
4.36,436,0.022000000000000002,-0.9990000000000001,-0.128,0.4583664000000001,0.286479,-0.40107059999999994,81.19387818,1.4782316400000002,-6.99581718
4.37,437,0.023,-1.0,-0.128,0.5156622000000001,0.2291832000000001,-0.3437748,81.19960776,1.4782316400000002,-6.99581718
4.38,438,0.023,-1.0,-0.127,0.6302538000000001,0.4583664000000001,-0.2291832000000001,81.21106692,1.48396122,-6.990087599999999
4.39,439,0.025,-1.002,-0.127,0.572958,0.6302538000000001,-0.1718874,81.21679650000002,1.48396122,-6.98435802
4.3999999999999995,440,0.027000000000000003,-1.002,-0.124,0.5156622000000001,0.7448454000000001,-0.057295800000000015,81.23398524000002,1.50114996,-6.97862844
4.41,441,0.027000000000000003,-1.002,-0.12300000000000001,0.40107059999999994,0.6875496,0.0,81.23971482,1.50114996,-6.96716928
4.42,442,0.026000000000000002,-1.001,-0.125,0.3437748,0.6875496,0.057295800000000015,81.2454444,1.50114996,-6.9614397000000015
4.43,443,0.026000000000000002,-0.9990000000000001,-0.127,0.286479,0.5156622000000001,0.1718874,81.2454444,1.50114996,-6.955710119999999
4.4399999999999995,444,0.024,-0.998,-0.125,0.286479,0.3437748,0.1718874,81.25117398,1.49542038,-6.94998054
4.45,445,0.023,-0.997,-0.125,0.286479,0.286479,0.11459160000000004,81.26263314,1.50114996,-6.94998054
4.46,446,0.022000000000000002,-0.997,-0.124,0.11459160000000004,0.286479,0.057295800000000015,81.26263314,1.50114996,-6.94425096
4.47,447,0.02,-0.997,-0.124,0.1718874,0.1718874,0.057295800000000015,81.26836272,1.50114996,-6.94425096
4.4799999999999995,448,0.02,-0.997,-0.12300000000000001,0.1718874,0.2291832000000001,0.0,81.26836272,1.50114996,-6.93852138
4.49,449,0.021,-0.998,-0.12300000000000001,0.11459160000000004,0.572958,0.057295800000000015,81.26836272,1.50114996,-6.9327918
4.5,450,0.021,-0.9990000000000001,-0.125,0.11459160000000004,0.7448454000000001,0.2291832000000001,81.27982188,1.49542038,-6.9270622200000025
4.51,451,0.022000000000000002,-1.0,-0.126,0.057295800000000015,0.8594370000000001,0.286479,81.27982188,1.49542038,-6.9156030600000005
4.52,452,0.021,-1.0,-0.128,0.11459160000000004,0.6875496,0.286479,81.28555146,1.49542038,-6.90987348
4.53,453,0.02,-1.0,-0.129,0.1718874,0.3437748,0.3437748,81.28555146,1.4896908000000002,-6.9041438999999984
4.54,454,0.02,-0.9990000000000001,-0.126,0.11459160000000004,0.1718874,0.3437748,81.28555146,1.48396122,-6.9041438999999984
4.55,455,0.019,-0.998,-0.127,-0.057295800000000015,0.11459160000000004,0.286479,81.27982188,1.47250206,-6.898414319999999
4.56,456,0.019,-0.998,-0.127,-0.1718874,0.11459160000000004,0.057295800000000015,81.27982188,1.47250206,-6.898414319999999
4.57,457,0.019,-0.996,-0.127,-0.11459160000000004,0.1718874,0.0,81.27982188,1.47250206,-6.898414319999999
4.58,458,0.018000000000000002,-0.997,-0.129,-0.057295800000000015,0.286479,-0.057295800000000015,81.27982188,1.47250206,-6.89268474
4.59,459,0.02,-0.998,-0.128,-0.057295800000000015,0.286479,0.0,81.27409229999998,1.47250206,-6.89268474
4.6,460,0.02,-0.9990000000000001,-0.126,0.0,0.11459160000000004,0.11459160000000004,81.29701062000002,1.4610428999999998,-6.8869551599999985
4.61,461,0.019,-1.001,-0.126,0.0,0.3437748,0.1718874,81.29701062000002,1.4610428999999998,-6.8869551599999985
4.62,462,0.019,-1.001,-0.125,-0.057295800000000015,0.4583664000000001,0.2291832000000001,81.29701062000002,1.45531332,-6.8812255800000015
4.63,463,0.017,-0.9990000000000001,-0.126,-0.3437748,0.0,0.286479,81.29128104,1.45531332,-6.8812255800000015
4.64,464,0.015,-0.997,-0.127,-0.5156622000000001,-0.5156622000000001,0.286479,81.28555146,1.44958374,-6.8869551599999985
4.6499999999999995,465,0.015,-0.998,-0.129,-0.4583664000000001,-0.6302538000000001,0.1718874,81.27982188,1.43812458,-6.89268474
4.66,466,0.016,-0.998,-0.128,-0.5156622000000001,-0.6875496,0.11459160000000004,81.27409229999998,1.432395,-6.898414319999999
4.67,467,0.018000000000000002,-0.997,-0.127,-0.5156622000000001,-0.6302538000000001,0.0,81.26836272,1.432395,-6.9041438999999984
4.68,468,0.02,-0.996,-0.127,-0.40107059999999994,-0.6302538000000001,-0.1718874,81.26836272,1.432395,-6.90987348
4.6899999999999995,469,0.022000000000000002,-0.996,-0.126,-0.5156622000000001,-0.40107059999999994,-0.2291832000000001,81.26263314,1.43812458,-6.9156030600000005
4.7,470,0.022000000000000002,-0.996,-0.126,-0.6302538000000001,-0.5156622000000001,-0.11459160000000004,81.25690356,1.44385416,-6.92133264
4.71,471,0.025,-0.9990000000000001,-0.125,-0.572958,-0.5156622000000001,0.0,81.25117398,1.44385416,-6.9270622200000025
4.72,472,0.024,-1.0,-0.125,-0.5156622000000001,-0.286479,0.1718874,81.2454444,1.43812458,-6.9270622200000025
4.7299999999999995,473,0.022000000000000002,-1.001,-0.128,-0.40107059999999994,-0.1718874,0.286479,81.23971482,1.43812458,-6.9327918
4.74,474,0.019,-1.001,-0.127,-0.2291832000000001,-0.057295800000000015,0.2291832000000001,81.23971482,1.432395,-6.9327918
4.75,475,0.018000000000000002,-0.998,-0.128,-0.11459160000000004,0.0,0.1718874,81.2454444,1.41520626,-6.9327918
4.76,476,0.019,-0.995,-0.127,0.0,0.11459160000000004,0.057295800000000015,81.2454444,1.41520626,-6.9270622200000025
4.77,477,0.021,-0.991,-0.128,0.057295800000000015,0.11459160000000004,-0.057295800000000015,81.2454444,1.41520626,-6.9270622200000025
4.78,478,0.021,-0.993,-0.128,0.1718874,0.0,-0.057295800000000015,81.2454444,1.41520626,-6.9270622200000025
4.79,479,0.022000000000000002,-0.993,-0.127,0.1718874,-0.11459160000000004,-0.1718874,81.25117398,1.4209358399999998,-6.9270622200000025
4.8,480,0.021,-0.996,-0.126,0.1718874,-0.2291832000000001,-0.2291832000000001,81.26263314,1.4209358399999998,-6.9327918
4.81,481,0.021,-0.998,-0.125,0.057295800000000015,-0.4583664000000001,-0.2291832000000001,81.26263314,1.42666542,-6.93852138
4.82,482,0.022000000000000002,-0.997,-0.124,0.057295800000000015,-0.4583664000000001,-0.1718874,81.26263314,1.42666542,-6.94425096
4.83,483,0.023,-0.9990000000000001,-0.125,0.11459160000000004,-0.1718874,-0.2291832000000001,81.26263314,1.42666542,-6.94425096
4.84,484,0.022000000000000002,-1.0,-0.126,0.11459160000000004,0.4583664000000001,-0.2291832000000001,81.26263314,1.432395,-6.93852138
4.85,485,0.021,-1.002,-0.128,0.11459160000000004,0.4583664000000001,-0.1718874,81.26836272,1.43812458,-6.9327918
4.86,486,0.02,-1.002,-0.128,0.11459160000000004,0.40107059999999994,-0.057295800000000015,81.26836272,1.43812458,-6.9327918
4.87,487,0.02,-1.001,-0.127,0.2291832000000001,0.2291832000000001,0.057295800000000015,81.27409229999998,1.43812458,-6.9270622200000025
4.88,488,0.02,-1.001,-0.126,0.3437748,0.1718874,0.057295800000000015,81.27982188,1.43812458,-6.9270622200000025
4.89,489,0.02,-1.0,-0.126,0.2291832000000001,0.1718874,0.0,81.27982188,1.43812458,-6.9270622200000025
4.8999999999999995,490,0.023,-1.0,-0.126,0.1718874,0.0,0.0,81.29128104,1.45531332,-6.92133264
4.91,491,0.023,-0.9990000000000001,-0.127,0.057295800000000015,-0.057295800000000015,-0.057295800000000015,81.29701062000002,1.4610428999999998,-6.9270622200000025
4.92,492,0.019,-0.996,-0.127,0.0,-0.40107059999999994,0.0,81.29701062000002,1.45531332,-6.9270622200000025
4.93,493,0.016,-0.995,-0.125,0.0,-0.6302538000000001,-0.057295800000000015,81.29701062000002,1.4610428999999998,-6.93852138
4.9399999999999995,494,0.015,-0.995,-0.124,-0.11459160000000004,-0.5156622000000001,-0.11459160000000004,81.29128104,1.4610428999999998,-6.93852138
4.95,495,0.013999999999999999,-0.996,-0.124,-0.2291832000000001,-0.3437748,-0.057295800000000015,81.30846978000002,1.432395,-6.94425096
4.96,496,0.015,-0.998,-0.125,-0.286479,-0.2291832000000001,-0.057295800000000015,81.30274019999997,1.432395,-6.94998054
4.97,497,0.015,-0.998,-0.126,-0.4583664000000001,-0.11459160000000004,-0.11459160000000004,81.29701062000002,1.432395,-6.94998054
4.9799999999999995,498,0.017,-0.998,-0.128,-0.286479,-0.11459160000000004,-0.057295800000000015,81.29701062000002,1.432395,-6.94998054
4.99,499,0.02,-0.9990000000000001,-0.127,-0.1718874,-0.2291832000000001,-0.057295800000000015,81.29128104,1.432395,-6.955710119999999
5.0,500,0.021,-0.998,-0.128,-0.286479,-0.11459160000000004,0.0,81.29128104,1.43812458,-6.955710119999999
5.01,501,0.021,-0.996,-0.127,-0.2291832000000001,-0.11459160000000004,0.11459160000000004,81.28555146,1.432395,-6.955710119999999
5.02,502,0.022000000000000002,-0.995,-0.125,-0.1718874,-0.286479,0.2291832000000001,81.28555146,1.432395,-6.9614397000000015
5.03,503,0.02,-0.995,-0.124,-0.2291832000000001,-0.286479,0.3437748,81.27982188,1.42666542,-6.9614397000000015
5.04,504,0.019,-0.997,-0.122,-0.2291832000000001,-0.11459160000000004,0.4583664000000001,81.27982188,1.4209358399999998,-6.9614397000000015
5.05,505,0.018000000000000002,-0.9990000000000001,-0.122,-0.5156622000000001,-0.11459160000000004,0.40107059999999994,81.28555146,1.40947668,-6.9614397000000015
5.06,506,0.017,-0.9990000000000001,-0.12300000000000001,-0.6875496,0.0,0.286479,81.27982188,1.40947668,-6.9614397000000015
5.07,507,0.015,-1.0,-0.126,-0.572958,-0.057295800000000015,0.2291832000000001,81.27409229999998,1.4037471000000001,-6.9614397000000015
5.08,508,0.018000000000000002,-1.001,-0.127,-0.5156622000000001,0.0,0.057295800000000015,81.26836272,1.4037471000000001,-6.9614397000000015
5.09,509,0.021,-1.0,-0.125,-0.5156622000000001,0.057295800000000015,0.0,81.26263314,1.4037471000000001,-6.9614397000000015
5.1,510,0.024,-0.998,-0.125,-0.6302538000000001,0.286479,0.0,81.26836272,1.40947668,-6.9614397000000015
5.11,511,0.025,-0.997,-0.127,-0.9167328000000001,0.572958,0.0,81.25690356,1.41520626,-6.955710119999999
5.12,512,0.026000000000000002,-0.996,-0.129,-0.9167328000000001,0.40107059999999994,0.057295800000000015,81.25117398,1.40947668,-6.94998054
5.13,513,0.024,-0.998,-0.132,-0.8594370000000001,0.0,0.11459160000000004,81.23971482,1.40947668,-6.94998054
5.14,514,0.023,-0.9990000000000001,-0.132,-0.6302538000000001,-0.3437748,0.1718874,81.23398524000002,1.40947668,-6.955710119999999
5.1499999999999995,515,0.023,-0.998,-0.13,-0.286479,-0.5156622000000001,0.1718874,81.22825566,1.41520626,-6.955710119999999
5.16,516,0.023,-0.997,-0.13,-0.1718874,-0.7448454000000001,0.286479,81.22252608,1.40947668,-6.96716928
5.17,517,0.022000000000000002,-0.998,-0.126,-0.3437748,-0.572958,0.1718874,81.22252608,1.4037471000000001,-6.972898860000001
5.18,518,0.021,-0.9990000000000001,-0.124,-0.40107059999999994,-0.3437748,0.11459160000000004,81.21679650000002,1.4037471000000001,-6.972898860000001
5.1899999999999995,519,0.022000000000000002,-0.998,-0.125,-0.572958,-0.3437748,0.0,81.21106692,1.4037471000000001,-6.97862844
5.2,520,0.021,-0.998,-0.12300000000000001,-0.8021411999999999,-0.3437748,-0.057295800000000015,81.21679650000002,1.40947668,-6.97862844
5.21,521,0.02,-0.995,-0.12300000000000001,-0.9740286,-0.3437748,-0.057295800000000015,81.20533734,1.40947668,-6.98435802
5.22,522,0.019,-0.995,-0.129,-1.145916,-0.1718874,0.0,81.19387818,1.40947668,-6.990087599999999
5.2299999999999995,523,0.02,-0.996,-0.131,-1.2032118,-0.057295800000000015,0.1718874,81.18241902,1.4037471000000001,-6.990087599999999
5.24,524,0.019,-0.9990000000000001,-0.13,-0.8594370000000001,-0.1718874,0.286479,81.17095986,1.4037471000000001,-6.990087599999999
5.25,525,0.016,-1.003,-0.128,-0.286479,-0.057295800000000015,0.11459160000000004,81.17095986,1.3750992,-6.990087599999999
5.26,526,0.015,-1.004,-0.127,-0.2291832000000001,-0.3437748,0.11459160000000004,81.17095986,1.3750992,-6.99581718
5.27,527,0.016,-1.002,-0.128,-0.2291832000000001,-0.4583664000000001,0.1718874,81.16523028,1.3750992,-7.001546759999999
5.28,528,0.016,-1.002,-0.128,-0.1718874,-0.3437748,0.286479,81.16523028,1.36936962,-7.001546759999999
5.29,529,0.015,-0.9990000000000001,-0.127,-0.286479,-0.286479,0.3437748,81.1595007,1.36364004,-7.001546759999999
5.3,530,0.013000000000000001,-0.995,-0.127,-0.2291832000000001,-0.11459160000000004,0.286479,81.16523028,1.34072172,-7.00727634
5.31,531,0.011000000000000001,-0.991,-0.129,-0.286479,0.0,0.2291832000000001,81.16523028,1.3349921400000002,-7.00727634
5.32,532,0.006999999999999999,-0.988,-0.132,-0.40107059999999994,-0.11459160000000004,0.057295800000000015,81.1595007,1.3349921400000002,-7.00727634
5.33,533,0.008,-0.987,-0.132,-0.40107059999999994,-0.2291832000000001,-0.057295800000000015,81.15377112,1.3349921400000002,-7.00727634
5.34,534,0.009000000000000001,-0.99,-0.131,-0.11459160000000004,-0.1718874,-0.11459160000000004,81.15377112,1.34072172,-7.01300592
5.35,535,0.011000000000000001,-0.991,-0.133,0.11459160000000004,-0.11459160000000004,-0.3437748,81.14231196,1.32353298,-7.01300592
5.36,536,0.012,-0.9940000000000001,-0.135,0.3437748,0.11459160000000004,-0.40107059999999994,81.14804154,1.32353298,-7.01300592
5.37,537,0.013999999999999999,-0.996,-0.136,0.40107059999999994,0.3437748,-0.40107059999999994,81.15377112,1.32926256,-7.00727634
5.38,538,0.013999999999999999,-0.995,-0.136,0.5156622000000001,0.4583664000000001,-0.286479,81.1595007,1.3349921400000002,-7.00727634
5.39,539,0.013000000000000001,-0.997,-0.13699999999999998,0.572958,0.11459160000000004,-0.1718874,81.16523028,1.3349921400000002,-7.001546759999999
5.3999999999999995,540,0.01,-0.998,-0.135,0.7448454000000001,-0.3437748,-0.2291832000000001,81.16523028,1.32353298,-7.00727634
5.41,541,0.009000000000000001,-1.002,-0.136,0.7448454000000001,-0.4583664000000001,-0.3437748,81.17668943999998,1.32353298,-7.01300592
5.42,542,0.009000000000000001,-1.005,-0.136,0.7448454000000001,-0.4583664000000001,-0.6875496,81.18241902,1.32926256,-7.018735500000001
5.43,543,0.012,-1.004,-0.133,0.6875496,-0.1718874,-0.9167328000000001,81.18814859999998,1.34072172,-7.0244650800000015
5.4399999999999995,544,0.018000000000000002,-1.004,-0.128,0.6875496,0.1718874,-1.0313244000000001,81.19960776,1.35218088,-7.0244650800000015
5.45,545,0.021,-1.003,-0.127,0.40107059999999994,0.6302538000000001,-0.9167328000000001,81.21106692,1.36364004,-7.018735500000001
5.46,546,0.024,-1.002,-0.128,0.0,0.6302538000000001,-0.572958,81.21106692,1.36936962,-7.01300592
5.47,547,0.026000000000000002,-0.998,-0.126,0.0,0.286479,-0.11459160000000004,81.21106692,1.3750992,-7.00727634
5.4799999999999995,548,0.027000000000000003,-0.997,-0.126,-0.1718874,-0.2291832000000001,0.286479,81.20533734,1.36936962,-7.01300592
5.49,549,0.026000000000000002,-0.9940000000000001,-0.128,-0.40107059999999994,-0.572958,0.572958,81.20533734,1.36364004,-7.01300592
5.5,550,0.023,-0.991,-0.13,-0.4583664000000001,-1.0313244000000001,0.572958,81.19387818,1.3579104599999998,-7.0244650800000015
5.51,551,0.019,-0.987,-0.13,-0.4583664000000001,-1.0313244000000001,0.3437748,81.19387818,1.35218088,-7.03592424
5.52,552,0.012,-0.987,-0.129,-0.3437748,-0.6302538000000001,-0.1718874,81.18814859999998,1.35218088,-7.0416538200000005
5.53,553,0.012,-0.9890000000000001,-0.127,-0.11459160000000004,-0.3437748,-0.6875496,81.18814859999998,1.36364004,-7.0473833999999975
5.54,554,0.013999999999999999,-0.995,-0.128,-0.11459160000000004,0.1718874,-0.9740286,81.18241902,1.36936962,-7.0473833999999975
5.55,555,0.021,-1.001,-0.132,0.0,0.4583664000000001,-1.0886202,81.18241902,1.38655836,-7.0416538200000005
5.56,556,0.027999999999999997,-1.0070000000000001,-0.13699999999999998,0.1718874,0.5156622000000001,-0.8021411999999999,81.18241902,1.39801752,-7.0416538200000005
5.57,557,0.031,-1.008,-0.139,0.286479,0.11459160000000004,-0.4583664000000001,81.18814859999998,1.39801752,-7.03592424
5.58,558,0.032,-1.006,-0.14,0.40107059999999994,-0.286479,0.0,81.18814859999998,1.39801752,-7.0416538200000005
5.59,559,0.03,-1.003,-0.13699999999999998,0.4583664000000001,-0.7448454000000001,0.2291832000000001,81.19387818,1.39801752,-7.0473833999999975
5.6,560,0.027000000000000003,-1.001,-0.133,0.40107059999999994,-0.9740286,0.3437748,81.19960776,1.4037471000000001,-7.05884256
5.61,561,0.021,-0.998,-0.131,0.11459160000000004,-1.145916,0.3437748,81.19960776,1.39801752,-7.0703017200000025
5.62,562,0.017,-0.995,-0.132,0.0,-1.3750992,0.11459160000000004,81.19960776,1.39228794,-7.08176088
5.63,563,0.011000000000000001,-0.993,-0.132,0.0,-1.5469866,-0.057295800000000015,81.19960776,1.39228794,-7.098949620000001
5.64,564,0.009000000000000001,-0.991,-0.133,0.11459160000000004,-1.2032118,-0.3437748,81.19960776,1.39801752,-7.11040878
5.6499999999999995,565,0.006999999999999999,-0.9890000000000001,-0.136,0.11459160000000004,-0.9167328000000001,-0.572958,81.19387818,1.38082878,-7.12186794
5.66,566,0.008,-0.9890000000000001,-0.138,0.40107059999999994,-0.7448454000000001,-0.572958,81.19387818,1.38655836,-7.12759752
5.67,567,0.01,-0.99,-0.139,0.572958,-0.572958,-0.6875496,81.19960776,1.39228794,-7.13905668
5.68,568,0.011000000000000001,-0.992,-0.139,0.7448454000000001,-0.5156622000000001,-0.6302538000000001,81.21106692,1.39801752,-7.144786260000001
5.6899999999999995,569,0.011000000000000001,-0.993,-0.139,0.8594370000000001,-0.572958,-0.5156622000000001,81.21679650000002,1.4037471000000001,-7.15051584
5.7,570,0.013000000000000001,-0.9940000000000001,-0.13699999999999998,1.0886202,-0.4583664000000001,-0.5156622000000001,81.22252608,1.4037471000000001,-7.15624542
5.71,571,0.015,-0.992,-0.135,1.2605076000000002,-0.3437748,-0.4583664000000001,81.23398524000002,1.40947668,-7.15624542
5.72,572,0.015,-0.9940000000000001,-0.135,1.3178034,-0.40107059999999994,-0.40107059999999994,81.2454444,1.40947668,-7.161975
5.7299999999999995,573,0.012,-0.995,-0.134,1.432395,-0.6302538000000001,-0.3437748,81.26263314,1.41520626,-7.167704579999999
5.74,574,0.011000000000000001,-0.995,-0.132,1.5469866,-0.8021411999999999,-0.3437748,81.27982188,1.41520626,-7.17916374
5.75,575,0.011000000000000001,-0.998,-0.129,1.432395,-0.9167328000000001,-0.5156622000000001,81.29128104,1.41520626,-7.1906228999999975
5.76,576,0.012,-0.997,-0.129,1.2032118,-0.6302538000000001,-0.5156622000000001,81.30274019999997,1.41520626,-7.19635248
5.77,577,0.01,-0.9990000000000001,-0.13,1.0313244000000001,-0.286479,-0.6875496,81.31419936,1.42666542,-7.20208206
5.78,578,0.012,-0.998,-0.132,0.8021411999999999,0.2291832000000001,-0.6302538000000001,81.32565852,1.432395,-7.19635248
5.79,579,0.017,-0.997,-0.134,0.8594370000000001,0.572958,-0.572958,81.3313881,1.43812458,-7.1906228999999975
5.8,580,0.02,-0.996,-0.134,1.2032118,0.4583664000000001,-0.40107059999999994,81.34284726,1.44385416,-7.1906228999999975
5.81,581,0.02,-0.997,-0.132,1.3178034,0.2291832000000001,-0.3437748,81.35430642,1.44958374,-7.1848933200000005
5.82,582,0.022000000000000002,-0.996,-0.13,1.2032118,0.0,-0.40107059999999994,81.36576558,1.45531332,-7.1848933200000005
5.83,583,0.024,-0.998,-0.131,1.145916,-0.1718874,-0.40107059999999994,81.37722474,1.45531332,-7.1906228999999975
5.84,584,0.024,-0.9990000000000001,-0.132,1.0313244000000001,-0.3437748,-0.3437748,81.3886839,1.4610428999999998,-7.19635248
5.85,585,0.021,-1.0,-0.133,1.145916,-0.5156622000000001,-0.3437748,81.39441348,1.4610428999999998,-7.20208206
5.86,586,0.018000000000000002,-1.0,-0.132,1.2605076000000002,-0.6875496,-0.3437748,81.40587264,1.46677248,-7.20781164
5.87,587,0.013999999999999999,-0.9990000000000001,-0.132,1.3178034,-0.4583664000000001,-0.3437748,81.4173318,1.46677248,-7.213541219999999
5.88,588,0.013000000000000001,-0.996,-0.129,1.2032118,0.0,-0.40107059999999994,81.42879096,1.47250206,-7.213541219999999
5.89,589,0.013000000000000001,-0.9940000000000001,-0.128,1.2032118,0.286479,-0.4583664000000001,81.4459797,1.4782316400000002,-7.213541219999999
5.8999999999999995,590,0.013999999999999999,-0.992,-0.131,1.145916,0.6302538000000001,-0.572958,81.4459797,1.4782316400000002,-7.20781164
5.91,591,0.015,-0.992,-0.133,1.2032118,0.572958,-0.6302538000000001,81.45743886,1.48396122,-7.20208206
5.92,592,0.016,-0.993,-0.133,1.432395,0.572958,-0.6302538000000001,81.47462759999998,1.4896908000000002,-7.19635248
5.93,593,0.018000000000000002,-0.9940000000000001,-0.132,1.5469866,0.572958,-0.6875496,81.49181634,1.50114996,-7.1906228999999975
5.9399999999999995,594,0.019,-0.995,-0.132,1.4896908000000002,0.3437748,-0.6875496,81.5032755,1.50687954,-7.1906228999999975
5.95,595,0.018000000000000002,-0.995,-0.13,1.2032118,0.0,-0.6302538000000001,81.50900508000002,1.50687954,-7.1906228999999975
5.96,596,0.017,-0.996,-0.13,1.145916,-0.057295800000000015,-0.572958,81.52046424,1.51260912,-7.1906228999999975
5.97,597,0.017,-0.998,-0.13,1.0886202,-0.057295800000000015,-0.5156622000000001,81.53192340000003,1.5183387000000002,-7.1906228999999975
5.9799999999999995,598,0.017,-1.0,-0.131,0.9740286,0.11459160000000004,-0.4583664000000001,81.54338256,1.52406828,-7.1906228999999975
5.99,599,0.017,-1.004,-0.131,1.0313244000000001,0.2291832000000001,-0.40107059999999994,81.55484172,1.52979786,-7.1906228999999975
6.0,600,0.017,-1.003,-0.129,1.145916,0.5156622000000001,-0.40107059999999994,81.56057129999998,1.52406828,-7.1848933200000005
6.01,601,0.017,-1.003,-0.13,1.2605076000000002,0.5156622000000001,-0.40107059999999994,81.57203046,1.52979786,-7.17916374
6.02,602,0.017,-1.002,-0.129,1.2605076000000002,0.6302538000000001,-0.286479,81.5892192,1.53552744,-7.1734341599999984
6.03,603,0.018000000000000002,-1.001,-0.127,1.2032118,0.6302538000000001,-0.2291832000000001,81.60067836,1.53552744,-7.167704579999999
6.04,604,0.02,-1.0,-0.128,1.145916,0.6302538000000001,-0.2291832000000001,81.61213752,1.5412570200000002,-7.161975
6.05,605,0.02,-0.998,-0.128,1.0313244000000001,0.6875496,-0.2291832000000001,81.6178671,1.5412570200000002,-7.15624542
6.06,606,0.02,-0.997,-0.128,0.8594370000000001,0.6302538000000001,-0.286479,81.62359668,1.5412570200000002,-7.15051584
6.07,607,0.019,-0.997,-0.129,0.9167328000000001,0.3437748,-0.286479,81.63505583999998,1.5469866,-7.144786260000001
6.08,608,0.017,-0.997,-0.129,0.8021411999999999,0.1718874,-0.286479,81.64078542,1.5469866,-7.144786260000001
6.09,609,0.019,-0.996,-0.129,0.8594370000000001,0.1718874,-0.3437748,81.65224458,1.5527161800000002,-7.13905668
6.1,610,0.017,-0.995,-0.13,0.8594370000000001,0.286479,-0.3437748,81.64651500000002,1.5469866,-7.13905668
6.11,611,0.019,-0.996,-0.13,0.8594370000000001,0.4583664000000001,-0.286479,81.65224458,1.5527161800000002,-7.1333271000000025
6.12,612,0.021,-0.997,-0.128,0.9167328000000001,0.7448454000000001,-0.3437748,81.66370374,1.55844576,-7.12759752
6.13,613,0.022000000000000002,-0.998,-0.129,0.9167328000000001,0.8021411999999999,-0.286479,81.6751629,1.55844576,-7.12186794
6.14,614,0.022000000000000002,-0.9990000000000001,-0.129,0.8594370000000001,0.7448454000000001,-0.2291832000000001,81.68089248,1.56417534,-7.11040878
6.15,615,0.021,-1.0,-0.127,0.9167328000000001,0.6302538000000001,-0.1718874,81.68089248,1.56417534,-7.1046792000000005
6.16,616,0.02,-1.0,-0.127,0.9167328000000001,0.4583664000000001,-0.057295800000000015,81.69235164,1.56417534,-7.1046792000000005
6.17,617,0.019,-1.0,-0.126,0.8594370000000001,0.3437748,0.0,81.7038108,1.56417534,-7.098949620000001
6.18,618,0.019,-1.002,-0.126,-0.286479,-0.057295800000000015,0.286479,81.69808122,1.56417534,-7.098949620000001
6.1899999999999995,619,0.019,-1.001,-0.126,-0.3437748,-0.286479,0.286479,81.69808122,1.55844576,-7.1046792000000005
6.2,620,0.018000000000000002,-1.0,-0.127,-0.4583664000000001,-0.5156622000000001,0.2291832000000001,81.68089248,1.5469866,-7.1046792000000005
6.21,621,0.017,-1.0,-0.128,-0.4583664000000001,-0.5156622000000001,0.11459160000000004,81.6751629,1.5412570200000002,-7.11040878
6.22,622,0.016,-0.998,-0.127,-0.3437748,-0.572958,0.1718874,81.66943332,1.5412570200000002,-7.116138359999999
6.2299999999999995,623,0.016,-0.998,-0.128,-0.40107059999999994,-0.3437748,0.057295800000000015,81.66943332,1.5412570200000002,-7.12186794
6.24,624,0.018000000000000002,-0.997,-0.126,-0.3437748,-0.11459160000000004,0.057295800000000015,81.66370374,1.53552744,-7.12186794
6.25,625,0.018000000000000002,-0.996,-0.126,-0.3437748,0.0,0.0,81.64651500000002,1.52979786,-7.12186794
6.26,626,0.019,-0.995,-0.129,-0.40107059999999994,0.11459160000000004,0.0,81.64078542,1.52979786,-7.12186794
6.27,627,0.02,-0.996,-0.13,-0.40107059999999994,0.0,0.057295800000000015,81.63505583999998,1.52979786,-7.12186794
6.28,628,0.019,-0.9990000000000001,-0.129,-0.3437748,-0.2291832000000001,0.0,81.63505583999998,1.52406828,-7.12186794
6.29,629,0.018000000000000002,-1.001,-0.128,-0.286479,-0.40107059999999994,0.0,81.62932626,1.52406828,-7.12759752
6.3,630,0.018000000000000002,-1.002,-0.126,-0.572958,-0.40107059999999994,-0.057295800000000015,81.6178671,1.5183387000000002,-7.1333271000000025
6.31,631,0.018000000000000002,-1.001,-0.126,-0.572958,-0.40107059999999994,-0.11459160000000004,81.61213752,1.5183387000000002,-7.13905668
6.32,632,0.018000000000000002,-0.998,-0.127,-0.6302538000000001,-0.3437748,-0.057295800000000015,81.60640794,1.5183387000000002,-7.13905668
6.33,633,0.018000000000000002,-0.998,-0.128,-0.6875496,-0.11459160000000004,0.0,81.59494878,1.5183387000000002,-7.144786260000001
6.34,634,0.02,-0.998,-0.129,-0.7448454000000001,0.0,0.057295800000000015,81.5892192,1.5183387000000002,-7.144786260000001
6.35,635,0.018000000000000002,-1.0,-0.129,-0.6875496,-0.286479,0.1718874,81.57203046,1.50687954,-7.144786260000001
6.36,636,0.019,-0.9990000000000001,-0.129,-0.6302538000000001,-0.572958,0.2291832000000001,81.56057129999998,1.50687954,-7.15051584
6.37,637,0.018000000000000002,-0.9990000000000001,-0.129,-0.7448454000000001,-0.7448454000000001,0.1718874,81.55484172,1.50114996,-7.161975
6.38,638,0.018000000000000002,-0.997,-0.128,-0.8021411999999999,-0.572958,0.0,81.54911214,1.50114996,-7.167704579999999
6.39,639,0.019,-0.997,-0.126,-0.572958,-0.4583664000000001,-0.057295800000000015,81.54338256,1.50114996,-7.167704579999999
6.4,640,0.019,-0.997,-0.125,-0.572958,-0.40107059999999994,-0.11459160000000004,81.53765297999998,1.49542038,-7.1734341599999984
6.41,641,0.02,-0.998,-0.124,-0.5156622000000001,-0.11459160000000004,-0.057295800000000015,81.53192340000003,1.49542038,-7.1734341599999984
6.42,642,0.021,-0.998,-0.129,-0.7448454000000001,0.057295800000000015,-0.057295800000000015,81.52619381999997,1.49542038,-7.1734341599999984
6.43,643,0.021,-0.997,-0.132,-0.572958,0.2291832000000001,0.11459160000000004,81.52046424,1.49542038,-7.1734341599999984
6.4399999999999995,644,0.02,-0.996,-0.131,-0.3437748,0.11459160000000004,0.3437748,81.51473466,1.4896908000000002,-7.167704579999999
6.45,645,0.018000000000000002,-0.996,-0.131,-0.2291832000000001,0.057295800000000015,0.4583664000000001,81.49181634,1.47250206,-7.167704579999999
6.46,646,0.017,-0.995,-0.131,-0.286479,0.057295800000000015,0.5156622000000001,81.49181634,1.46677248,-7.167704579999999
6.47,647,0.016,-0.995,-0.132,-0.1718874,0.0,0.286479,81.48608676,1.46677248,-7.167704579999999
6.4799999999999995,648,0.017,-0.9940000000000001,-0.132,0.0,0.057295800000000015,0.057295800000000015,81.48608676,1.46677248,-7.167704579999999
6.49,649,0.018000000000000002,-0.992,-0.134,0.2291832000000001,0.11459160000000004,-0.11459160000000004,81.49181634,1.46677248,-7.167704579999999
6.5,650,0.019,-0.992,-0.136,0.3437748,0.0,-0.2291832000000001,81.4459797,1.46677248,-7.167704579999999
6.51,651,0.02,-0.992,-0.135,0.40107059999999994,0.0,-0.1718874,81.45170928,1.46677248,-7.167704579999999
6.52,652,0.021,-0.995,-0.133,0.5156622000000001,-0.057295800000000015,-0.1718874,81.45743886,1.47250206,-7.167704579999999
6.53,653,0.02,-0.998,-0.132,0.40107059999999994,-0.057295800000000015,-0.11459160000000004,81.45743886,1.47250206,-7.167704579999999
6.54,654,0.019,-1.001,-0.133,0.286479,-0.11459160000000004,-0.11459160000000004,81.46316844,1.47250206,-7.1734341599999984
6.55,655,0.019,-1.0,-0.134,0.3437748,-0.057295800000000015,-0.11459160000000004,81.42306138000002,1.45531332,-7.1734341599999984
6.56,656,0.018000000000000002,-1.002,-0.132,0.4583664000000001,-0.057295800000000015,-0.057295800000000015,81.42306138000002,1.4610428999999998,-7.1734341599999984
6.57,657,0.017,-1.001,-0.132,0.3437748,-0.3437748,-0.1718874,81.42879096,1.4610428999999998,-7.17916374
6.58,658,0.016,-0.998,-0.13,0.2291832000000001,-0.286479,-0.2291832000000001,81.43452054,1.4610428999999998,-7.17916374
6.59,659,0.018000000000000002,-0.997,-0.131,0.286479,-0.1718874,-0.1718874,81.43452054,1.4610428999999998,-7.1848933200000005
6.6,660,0.019,-0.997,-0.129,0.2291832000000001,-0.1718874,-0.2291832000000001,81.42306138000002,1.4610428999999998,-7.1848933200000005
6.61,661,0.018000000000000002,-0.996,-0.128,0.2291832000000001,-0.1718874,-0.1718874,81.42879096,1.4610428999999998,-7.1906228999999975
6.62,662,0.017,-0.997,-0.129,0.3437748,-0.286479,-0.2291832000000001,81.42879096,1.4610428999999998,-7.1906228999999975
6.63,663,0.017,-0.996,-0.127,0.286479,-0.1718874,-0.286479,81.43452054,1.46677248,-7.19635248
6.64,664,0.017,-0.996,-0.126,0.3437748,-0.057295800000000015,-0.286479,81.44025012,1.46677248,-7.19635248
6.65,665,0.016,-0.997,-0.128,0.2291832000000001,0.0,-0.286479,81.43452054,1.45531332,-7.19635248
6.66,666,0.017,-0.998,-0.127,0.3437748,0.057295800000000015,-0.286479,81.44025012,1.4610428999999998,-7.19635248
6.67,667,0.017,-0.998,-0.127,0.286479,0.2291832000000001,-0.2291832000000001,81.4459797,1.4610428999999998,-7.19635248
6.68,668,0.018000000000000002,-0.998,-0.127,0.2291832000000001,0.1718874,-0.2291832000000001,81.4459797,1.46677248,-7.1906228999999975
6.6899999999999995,669,0.016,-0.998,-0.126,0.1718874,0.1718874,-0.057295800000000015,81.4459797,1.46677248,-7.1906228999999975
6.7,670,0.018000000000000002,-0.996,-0.126,0.1718874,0.40107059999999994,-0.1718874,81.4459797,1.4610428999999998,-7.1848933200000005
6.71,671,0.019,-0.996,-0.125,0.057295800000000015,0.6875496,-0.286479,81.4459797,1.46677248,-7.17916374
6.72,672,0.02,-0.995,-0.126,0.11459160000000004,0.7448454000000001,-0.3437748,81.45170928,1.47250206,-7.1734341599999984
6.7299999999999995,673,0.02,-0.995,-0.129,0.2291832000000001,0.572958,-0.40107059999999994,81.45170928,1.47250206,-7.167704579999999
6.74,674,0.019,-0.998,-0.129,0.40107059999999994,0.2291832000000001,-0.40107059999999994,81.45743886,1.4782316400000002,-7.167704579999999
6.75,675,0.02,-1.001,-0.13,0.1718874,0.0,-0.40107059999999994,81.44025012,1.48396122,-7.167704579999999
6.76,676,0.019,-1.001,-0.13,0.11459160000000004,-0.286479,-0.40107059999999994,81.44025012,1.4896908000000002,-7.167704579999999
6.77,677,0.017,-1.0,-0.13,0.0,-0.40107059999999994,-0.40107059999999994,81.44025012,1.4896908000000002,-7.1734341599999984
6.78,678,0.015,-0.9990000000000001,-0.13,0.0,-0.6302538000000001,-0.4583664000000001,81.4459797,1.49542038,-7.17916374
6.79,679,0.013999999999999999,-0.998,-0.131,0.0,-0.6875496,-0.286479,81.4459797,1.49542038,-7.1906228999999975
6.8,680,0.013000000000000001,-0.998,-0.129,-0.057295800000000015,-0.5156622000000001,-0.2291832000000001,81.43452054,1.4782316400000002,-7.19635248
6.81,681,0.013000000000000001,-0.996,-0.13,-0.286479,-0.286479,-0.3437748,81.43452054,1.48396122,-7.19635248
6.82,682,0.016,-0.995,-0.131,-0.2291832000000001,0.2291832000000001,-0.4583664000000001,81.42879096,1.4896908000000002,-7.19635248
6.83,683,0.019,-0.9940000000000001,-0.132,-0.11459160000000004,0.6875496,-0.4583664000000001,81.42879096,1.49542038,-7.1906228999999975
6.84,684,0.022000000000000002,-0.998,-0.133,0.0,0.8021411999999999,-0.3437748,81.42879096,1.50114996,-7.1848933200000005
6.85,685,0.022000000000000002,-1.0,-0.131,-0.11459160000000004,0.6302538000000001,-0.286479,81.4173318,1.50114996,-7.17916374
6.86,686,0.019,-1.002,-0.129,-0.1718874,0.40107059999999994,-0.11459160000000004,81.4173318,1.50114996,-7.1734341599999984
6.87,687,0.018000000000000002,-1.003,-0.127,-0.3437748,0.3437748,0.0,81.41160221999998,1.50114996,-7.167704579999999
6.88,688,0.02,-1.003,-0.128,-0.3437748,0.4583664000000001,0.1718874,81.41160221999998,1.50114996,-7.161975
6.89,689,0.021,-1.002,-0.128,-0.4583664000000001,0.6875496,0.11459160000000004,81.40587264,1.50114996,-7.15624542
6.9,690,0.021,-1.001,-0.131,-0.6875496,0.9740286,0.0,81.3886839,1.50114996,-7.15051584
6.91,691,0.021,-1.0,-0.13,-0.6302538000000001,0.9167328000000001,0.0,81.38295432,1.50114996,-7.13905668
6.92,692,0.023,-0.9990000000000001,-0.129,-0.5156622000000001,0.8021411999999999,0.057295800000000015,81.37722474,1.50114996,-7.1333271000000025
6.93,693,0.027999999999999997,-0.997,-0.129,-0.5156622000000001,0.8594370000000001,0.057295800000000015,81.37149516,1.50114996,-7.12186794
6.9399999999999995,694,0.028999999999999998,-0.995,-0.13,-0.5156622000000001,0.8021411999999999,0.11459160000000004,81.36576558,1.50114996,-7.116138359999999
6.95,695,0.03,-0.996,-0.128,-0.3437748,0.572958,0.11459160000000004,81.360036,1.52406828,-7.1046792000000005
6.96,696,0.031,-0.996,-0.125,-0.1718874,0.4583664000000001,0.286479,81.360036,1.52406828,-7.1046792000000005
6.97,697,0.031,-1.0,-0.124,0.0,0.4583664000000001,0.4583664000000001,81.360036,1.5183387000000002,-7.098949620000001
6.9799999999999995,698,0.027999999999999997,-1.003,-0.125,-0.11459160000000004,0.40107059999999994,0.5156622000000001,81.360036,1.51260912,-7.09322004
6.99,699,0.024,-1.003,-0.127,-0.2291832000000001,0.40107059999999994,0.6875496,81.360036,1.50687954,-7.0874904600000015
7.0,700,0.022000000000000002,-1.0,-0.129,-0.1718874,0.286479,0.8021411999999999,81.35430642,1.50114996,-7.08176088
7.01,701,0.02,-0.997,-0.128,-0.11459160000000004,0.2291832000000001,0.8594370000000001,81.35430642,1.4896908000000002,-7.076031300000001
7.02,702,0.02,-0.9940000000000001,-0.128,-0.057295800000000015,0.3437748,0.7448454000000001,81.35430642,1.48396122,-7.076031300000001
7.03,703,0.02,-0.995,-0.128,-0.057295800000000015,0.40107059999999994,0.572958,81.34857683999998,1.4782316400000002,-7.0703017200000025
7.04,704,0.022000000000000002,-0.9940000000000001,-0.131,-0.11459160000000004,0.6302538000000001,0.3437748,81.34857683999998,1.47250206,-7.05884256
7.05,705,0.021,-0.9940000000000001,-0.13,-0.11459160000000004,0.7448454000000001,0.286479,81.33711767999998,1.47250206,-7.05311298
7.06,706,0.021,-0.995,-0.132,-0.11459160000000004,0.7448454000000001,0.2291832000000001,81.33711767999998,1.47250206,-7.0473833999999975
7.07,707,0.021,-0.997,-0.132,-0.11459160000000004,0.6875496,0.40107059999999994,81.33711767999998,1.46677248,-7.03592424
7.08,708,0.025,-0.9990000000000001,-0.131,-0.286479,0.5156622000000001,0.5156622000000001,81.3313881,1.4610428999999998,-7.030194660000001
7.09,709,0.025,-1.003,-0.131,-0.3437748,0.1718874,0.572958,81.3313881,1.45531332,-7.030194660000001
7.1,710,0.023,-1.002,-0.133,-0.572958,0.0,0.5156622000000001,81.30846978000002,1.45531332,-7.030194660000001
7.11,711,0.022000000000000002,-1.002,-0.133,-0.6875496,-0.057295800000000015,0.5156622000000001,81.30274019999997,1.44958374,-7.030194660000001
7.12,712,0.021,-0.9990000000000001,-0.134,-0.7448454000000001,0.0,0.40107059999999994,81.29701062000002,1.44385416,-7.0244650800000015
7.13,713,0.018000000000000002,-0.996,-0.135,-0.6302538000000001,0.1718874,0.286479,81.29128104,1.44385416,-7.0244650800000015
7.14,714,0.013999999999999999,-0.996,-0.136,-0.572958,0.2291832000000001,0.11459160000000004,81.28555146,1.44385416,-7.0244650800000015
7.15,715,0.012,-0.997,-0.132,-0.5156622000000001,0.40107059999999994,0.1718874,81.26836272,1.4209358399999998,-7.018735500000001
7.16,716,0.013999999999999999,-0.9990000000000001,-0.129,-0.4583664000000001,0.8021411999999999,0.11459160000000004,81.26263314,1.4209358399999998,-7.00727634
7.17,717,0.017,-0.9990000000000001,-0.129,-0.572958,1.2032118,0.2291832000000001,81.25690356,1.4209358399999998,-6.99581718
7.18,718,0.02,-0.9990000000000001,-0.131,-0.572958,1.3178034,0.3437748,81.25117398,1.4209358399999998,-6.98435802
7.1899999999999995,719,0.02,-0.997,-0.131,-0.40107059999999994,1.0313244000000001,0.2291832000000001,81.25117398,1.41520626,-6.972898860000001
7.2,720,0.021,-0.997,-0.13,-0.057295800000000015,0.6302538000000001,0.11459160000000004,81.2454444,1.4209358399999998,-6.96716928
7.21,721,0.019,-0.996,-0.131,-0.057295800000000015,0.5156622000000001,0.11459160000000004,81.2454444,1.4209358399999998,-6.9614397000000015
7.22,722,0.017,-0.995,-0.13,0.057295800000000015,0.5156622000000001,0.11459160000000004,81.2454444,1.4209358399999998,-6.955710119999999
7.2299999999999995,723,0.017,-0.9940000000000001,-0.13,0.1718874,0.572958,0.11459160000000004,81.2454444,1.4209358399999998,-6.94998054
7.24,724,0.017,-0.9940000000000001,-0.13,0.3437748,0.6875496,0.1718874,81.25117398,1.4209358399999998,-6.94425096
7.25,725,0.019,-0.997,-0.128,0.286479,0.8021411999999999,0.11459160000000004,81.25690356,1.41520626,-6.9327918
7.26,726,0.02,-0.9990000000000001,-0.128,0.286479,0.8021411999999999,0.1718874,81.26263314,1.41520626,-6.9270622200000025
7.27,727,0.021,-0.998,-0.128,0.286479,0.8594370000000001,0.2291832000000001,81.26263314,1.41520626,-6.9156030600000005
7.28,728,0.022000000000000002,-0.996,-0.129,0.2291832000000001,1.0313244000000001,0.286479,81.26836272,1.41520626,-6.9041438999999984
7.29,729,0.022000000000000002,-0.996,-0.131,0.286479,0.9740286,0.3437748,81.26836272,1.40947668,-6.898414319999999
7.3,730,0.022000000000000002,-0.997,-0.13,0.286479,1.0313244000000001,0.3437748,81.26836272,1.41520626,-6.8869551599999985
7.31,731,0.022000000000000002,-0.997,-0.132,0.40107059999999994,0.9167328000000001,0.4583664000000001,81.27409229999998,1.40947668,-6.875496000000001
7.32,732,0.022000000000000002,-0.997,-0.132,0.3437748,0.8594370000000001,0.5156622000000001,81.27982188,1.4037471000000001,-6.86403684
7.33,733,0.021,-0.997,-0.131,0.40107059999999994,0.9167328000000001,0.5156622000000001,81.28555146,1.4037471000000001,-6.85257768
7.34,734,0.021,-0.998,-0.131,0.40107059999999994,1.0886202,0.40107059999999994,81.29128104,1.39801752,-6.8411185199999975
7.35,735,0.022000000000000002,-0.998,-0.131,0.3437748,1.0886202,0.286479,81.29128104,1.4037471000000001,-6.829659359999999
7.36,736,0.022000000000000002,-0.998,-0.13,0.2291832000000001,1.0886202,0.40107059999999994,81.29128104,1.39801752,-6.8182002000000015
7.37,737,0.022000000000000002,-0.9990000000000001,-0.131,0.286479,0.9740286,0.4583664000000001,81.29701062000002,1.39228794,-6.812470620000001
7.38,738,0.023,-0.9990000000000001,-0.132,0.2291832000000001,0.9740286,0.5156622000000001,81.29701062000002,1.39228794,-6.8010114600000025
7.39,739,0.023,-0.998,-0.132,0.1718874,0.8594370000000001,0.5156622000000001,81.30274019999997,1.38655836,-6.7895523
7.4,740,0.022000000000000002,-0.9990000000000001,-0.132,-0.057295800000000015,0.8021411999999999,0.5156622000000001,81.29701062000002,1.38655836,-6.783822719999999
7.41,741,0.022000000000000002,-0.998,-0.132,-0.057295800000000015,0.5156622000000001,0.5156622000000001,81.29701062000002,1.38082878,-6.77236356
7.42,742,0.022000000000000002,-0.9990000000000001,-0.134,0.0,0.4583664000000001,0.40107059999999994,81.29701062000002,1.3750992,-6.77236356
7.43,743,0.019,-0.9990000000000001,-0.135,0.0,0.5156622000000001,0.3437748,81.29701062000002,1.3750992,-6.7609043999999985
7.4399999999999995,744,0.017,-0.998,-0.132,0.11459160000000004,0.5156622000000001,0.286479,81.29701062000002,1.36936962,-6.7551748200000015
7.45,745,0.018000000000000002,-0.997,-0.131,0.1718874,0.572958,0.286479,81.29128104,1.36936962,-6.74944524
7.46,746,0.022000000000000002,-0.993,-0.132,0.11459160000000004,0.5156622000000001,0.286479,81.29701062000002,1.36936962,-6.743715660000001
7.47,747,0.023,-0.992,-0.13,0.0,0.3437748,0.40107059999999994,81.29701062000002,1.36364004,-6.743715660000001
7.4799999999999995,748,0.026000000000000002,-0.9940000000000001,-0.127,-0.2291832000000001,0.0,0.5156622000000001,81.29128104,1.3579104599999998,-6.7379860800000015
7.49,749,0.026000000000000002,-0.9990000000000001,-0.126,-0.6302538000000001,-0.2291832000000001,0.6302538000000001,81.28555146,1.35218088,-6.743715660000001
7.5,750,0.024,-1.002,-0.127,-0.6302538000000001,-0.4583664000000001,0.572958,81.27982188,1.35218088,-6.743715660000001
7.51,751,0.023,-1.004,-0.13,-0.5156622000000001,-0.6302538000000001,0.5156622000000001,81.27409229999998,1.3464512999999998,-6.74944524
7.52,752,0.022000000000000002,-1.004,-0.131,-0.6302538000000001,-0.6302538000000001,0.40107059999999994,81.26836272,1.34072172,-6.7551748200000015
7.53,753,0.024,-1.003,-0.13,-0.4583664000000001,-0.572958,0.4583664000000001,81.26263314,1.3349921400000002,-6.7609043999999985
7.54,754,0.022000000000000002,-1.0,-0.131,-0.3437748,-0.572958,0.5156622000000001,81.25690356,1.32926256,-6.76663398
7.55,755,0.02,-0.9940000000000001,-0.131,-0.1718874,-0.286479,0.7448454000000001,81.25117398,1.32353298,-6.77236356
7.56,756,0.019,-0.991,-0.133,0.0,-0.3437748,0.6875496,81.25117398,1.3178034,-6.77236356
7.57,757,0.018000000000000002,-0.987,-0.134,0.0,-0.5156622000000001,0.6875496,81.25117398,1.31207382,-6.77809314
7.58,758,0.018000000000000002,-0.985,-0.135,0.1718874,-0.6875496,0.5156622000000001,81.25117398,1.30061466,-6.783822719999999
7.59,759,0.02,-0.987,-0.133,0.3437748,-0.6875496,0.4583664000000001,81.25690356,1.30061466,-6.7895523
7.6,760,0.022000000000000002,-0.991,-0.133,0.3437748,-0.9167328000000001,0.286479,81.25117398,1.30061466,-6.79528188
7.61,761,0.022000000000000002,-0.996,-0.132,0.3437748,-1.2032118,0.2291832000000001,81.25690356,1.30061466,-6.80674104
7.62,762,0.021,-0.9990000000000001,-0.132,0.286479,-1.2605076000000002,0.2291832000000001,81.25690356,1.29488508,-6.82392978
7.63,763,0.022000000000000002,-1.0,-0.132,0.1718874,-1.0313244000000001,0.3437748,81.26263314,1.2891555,-6.829659359999999
7.64,764,0.022000000000000002,-0.998,-0.135,0.0,-0.9167328000000001,0.286479,81.26263314,1.28342592,-6.8411185199999975
7.65,765,0.022000000000000002,-0.996,-0.135,-0.11459160000000004,-0.8594370000000001,0.4583664000000001,81.2454444,1.28342592,-6.8468481
7.66,766,0.02,-0.9940000000000001,-0.138,0.0,-0.9167328000000001,0.4583664000000001,81.2454444,1.27769634,-6.858307260000001
7.67,767,0.017,-0.991,-0.13699999999999998,0.2291832000000001,-1.145916,0.40107059999999994,81.25117398,1.27196676,-6.86976642
7.68,768,0.015,-0.992,-0.138,0.11459160000000004,-1.3178034,0.286479,81.25117398,1.26623718,-6.8812255800000015
7.6899999999999995,769,0.013999999999999999,-0.995,-0.136,0.2291832000000001,-1.3178034,0.286479,81.25117398,1.26623718,-6.89268474
7.7,770,0.015,-0.998,-0.133,0.1718874,-1.4896908000000002,0.11459160000000004,81.25117398,1.25477802,-6.90987348
7.71,771,0.013999999999999999,-0.9990000000000001,-0.133,0.11459160000000004,-1.3750992,0.0,81.25117398,1.25477802,-6.92133264
7.72,772,0.015,-1.001,-0.135,0.1718874,-1.2605076000000002,-0.057295800000000015,81.25117398,1.25477802,-6.9327918
7.7299999999999995,773,0.016,-0.9990000000000001,-0.135,0.2291832000000001,-0.9740286,-0.057295800000000015,81.25690356,1.25477802,-6.94425096
7.74,774,0.017,-0.998,-0.135,0.1718874,-0.6875496,-0.11459160000000004,81.25690356,1.25477802,-6.94998054
7.75,775,0.017,-0.996,-0.135,0.2291832000000001,-0.7448454000000001,-0.057295800000000015,81.2454444,1.2605076000000002,-6.9614397000000015
7.76,776,0.019,-0.995,-0.134,0.2291832000000001,-0.9167328000000001,0.0,81.2454444,1.25477802,-6.96716928
7.77,777,0.02,-0.993,-0.134,0.4583664000000001,-1.145916,0.11459160000000004,81.25117398,1.25477802,-6.97862844
7.78,778,0.019,-0.993,-0.134,0.5156622000000001,-1.2605076000000002,0.11459160000000004,81.25690356,1.24904844,-6.990087599999999
7.79,779,0.017,-0.993,-0.134,0.6302538000000001,-1.5469866,0.11459160000000004,81.26263314,1.24904844,-7.00727634
7.8,780,0.013999999999999999,-0.996,-0.131,0.6875496,-1.7761698000000001,0.057295800000000015,81.26836272,1.23758928,-7.0244650800000015
7.81,781,0.012,-0.997,-0.131,0.6875496,-1.8907614,0.0,81.27409229999998,1.23758928,-7.0416538200000005
7.82,782,0.01,-0.997,-0.129,0.6875496,-1.6615782,-0.11459160000000004,81.28555146,1.23758928,-7.05884256
7.83,783,0.012,-0.996,-0.127,0.7448454000000001,-1.3178034,-0.2291832000000001,81.29128104,1.23758928,-7.076031300000001
7.84,784,0.013000000000000001,-0.997,-0.129,0.6875496,-0.6875496,-0.3437748,81.29701062000002,1.24331886,-7.08176088
7.85,785,0.013999999999999999,-0.995,-0.129,0.5156622000000001,-0.3437748,-0.286479,81.29701062000002,1.23758928,-7.0874904600000015
7.86,786,0.016,-0.997,-0.13,0.572958,-0.3437748,-0.1718874,81.30274019999997,1.23758928,-7.09322004
7.87,787,0.02,-0.997,-0.13,0.572958,-0.4583664000000001,0.0,81.30846978000002,1.23758928,-7.09322004
7.88,788,0.02,-0.9990000000000001,-0.13,0.4583664000000001,-0.3437748,0.11459160000000004,81.31419936,1.23758928,-7.098949620000001
7.89,789,0.019,-1.0,-0.13,0.057295800000000015,0.2291832000000001,0.0,81.31419936,1.23758928,-7.09322004
7.9,790,0.016,-1.001,-0.132,0.0,0.0,-0.11459160000000004,81.29128104,1.22040054,-7.098949620000001
7.91,791,0.013999999999999999,-1.001,-0.132,0.0,-0.11459160000000004,-0.11459160000000004,81.29128104,1.22040054,-7.098949620000001
7.92,792,0.013000000000000001,-1.001,-0.131,0.0,-0.3437748,-0.1718874,81.29701062000002,1.22040054,-7.1046792000000005
7.93,793,0.013000000000000001,-0.9990000000000001,-0.129,0.0,-0.40107059999999994,-0.2291832000000001,81.29128104,1.22613012,-7.1046792000000005
7.94,794,0.013999999999999999,-0.9990000000000001,-0.129,-0.1718874,-0.2291832000000001,-0.2291832000000001,81.29128104,1.22613012,-7.11040878
7.95,795,0.013000000000000001,-0.9990000000000001,-0.129,-0.3437748,0.11459160000000004,-0.40107059999999994,81.28555146,1.22040054,-7.11040878
7.96,796,0.013000000000000001,-1.0,-0.128,-0.572958,0.6302538000000001,-0.40107059999999994,81.27982188,1.22613012,-7.1046792000000005
7.97,797,0.016,-1.0,-0.13,-0.6875496,0.8021411999999999,-0.3437748,81.27409229999998,1.2318597,-7.09322004
7.9799999999999995,798,0.019,-1.003,-0.13,-0.9740286,0.8021411999999999,-0.2291832000000001,81.26263314,1.2318597,-7.0874904600000015
7.99,799,0.021,-1.004,-0.128,-1.2032118,0.572958,-0.11459160000000004,81.25117398,1.23758928,-7.08176088
8.0,800,0.023,-1.006,-0.125,-1.6042823999999998,0.40107059999999994,0.0,81.23971482,1.24331886,-7.076031300000001
8.01,801,0.024,-1.004,-0.12300000000000001,-1.8334656000000005,0.0,0.11459160000000004,81.22252608,1.24331886,-7.076031300000001
8.02,802,0.023,-1.0,-0.12300000000000001,-1.9480572,-0.057295800000000015,0.11459160000000004,81.19960776,1.23758928,-7.076031300000001
8.03,803,0.022000000000000002,-0.997,-0.127,-2.1199446,0.0,0.057295800000000015,81.17668943999998,1.23758928,-7.076031300000001
8.04,804,0.018000000000000002,-0.998,-0.133,-2.1772404,0.1718874,0.1718874,81.1595007,1.23758928,-7.076031300000001
8.05,805,0.016,-0.998,-0.135,-2.1199446,0.057295800000000015,0.11459160000000004,81.1308528,1.2318597,-7.076031300000001
8.06,806,0.013999999999999999,-0.9990000000000001,-0.133,-1.9480572,-0.057295800000000015,0.0,81.11366405999998,1.2318597,-7.076031300000001
8.07,807,0.013000000000000001,-0.997,-0.133,-1.7188740000000002,-0.1718874,-0.286479,81.09647532,1.23758928,-7.08176088
8.08,808,0.015,-0.997,-0.134,-1.4896908000000002,-0.2291832000000001,-0.4583664000000001,81.07928658,1.24331886,-7.08176088
8.09,809,0.017,-0.998,-0.135,-1.432395,-0.2291832000000001,-0.6302538000000001,81.06782741999999,1.24904844,-7.0874904600000015
8.1,810,0.017,-0.9990000000000001,-0.135,-1.0886202,-0.11459160000000004,-0.4583664000000001,81.05063868,1.24904844,-7.0874904600000015
8.11,811,0.016,-1.0,-0.134,-0.7448454000000001,0.057295800000000015,-0.2291832000000001,81.03917952,1.25477802,-7.0874904600000015
8.12,812,0.015,-0.9990000000000001,-0.136,-0.7448454000000001,0.3437748,0.0,81.03344994,1.25477802,-7.0874904600000015
8.13,813,0.012,-0.996,-0.136,-0.8594370000000001,0.5156622000000001,0.0,81.02772036,1.25477802,-7.08176088
8.14,814,0.01,-0.993,-0.136,-0.9740286,0.7448454000000001,-0.11459160000000004,81.0162612,1.25477802,-7.0703017200000025
8.15,815,0.011000000000000001,-0.9890000000000001,-0.13699999999999998,-1.0313244000000001,0.7448454000000001,-0.286479,80.99334288,1.24904844,-7.06457214
8.16,816,0.012,-0.987,-0.141,-0.9740286,0.5156622000000001,-0.40107059999999994,80.98761329999998,1.25477802,-7.05884256
8.17,817,0.012,-0.987,-0.142,-0.8594370000000001,0.40107059999999994,-0.40107059999999994,80.97615413999998,1.2605076000000002,-7.05884256
8.18,818,0.013999999999999999,-0.987,-0.142,-0.6302538000000001,0.3437748,-0.40107059999999994,80.97042456,1.26623718,-7.05311298
8.19,819,0.013999999999999999,-0.99,-0.145,-0.3437748,0.572958,-0.3437748,80.96469498,1.27196676,-7.0473833999999975
8.2,820,0.015,-0.99,-0.146,-0.286479,0.9167328000000001,-0.286479,80.94177666,1.27196676,-7.0416538200000005
8.209999999999999,821,0.016,-0.992,-0.14400000000000002,-0.2291832000000001,1.0886202,-0.286479,80.94177666,1.27769634,-7.030194660000001
8.22,822,0.017,-0.9940000000000001,-0.145,-0.057295800000000015,1.0886202,-0.286479,80.93604708,1.28342592,-7.018735500000001
8.23,823,0.017,-0.996,-0.14400000000000002,0.0,0.9167328000000001,-0.3437748,80.93604708,1.28342592,-7.01300592
8.24,824,0.016,-0.998,-0.147,-0.057295800000000015,0.9167328000000001,-0.40107059999999994,80.93604708,1.2891555,-7.001546759999999
8.25,825,0.018000000000000002,-1.0,-0.147,-0.11459160000000004,0.7448454000000001,-0.3437748,80.91312875999998,1.29488508,-6.99581718
8.26,826,0.018000000000000002,-1.0,-0.145,-0.057295800000000015,0.4583664000000001,-0.286479,80.91312875999998,1.29488508,-6.990087599999999
8.27,827,0.013999999999999999,-0.998,-0.14400000000000002,0.0,0.11459160000000004,-0.2291832000000001,80.90739918,1.30061466,-6.990087599999999
8.28,828,0.013999999999999999,-0.996,-0.141,0.1718874,0.0,-0.286479,80.91312875999998,1.30061466,-6.990087599999999
8.29,829,0.013999999999999999,-0.996,-0.13699999999999998,0.11459160000000004,0.057295800000000015,-0.286479,80.91312875999998,1.30634424,-6.990087599999999
8.3,830,0.016,-0.992,-0.13699999999999998,0.0,0.1718874,-0.40107059999999994,80.90166959999998,1.30061466,-6.990087599999999
8.31,831,0.016,-0.991,-0.13699999999999998,0.057295800000000015,0.286479,-0.572958,80.90166959999998,1.31207382,-6.990087599999999
8.32,832,0.017,-0.99,-0.138,0.0,0.5156622000000001,-0.7448454000000001,80.90166959999998,1.3178034,-6.98435802
8.33,833,0.017,-0.9890000000000001,-0.139,0.0,0.5156622000000001,-0.8594370000000001,80.90166959999998,1.32926256,-6.97862844
8.34,834,0.016,-0.988,-0.138,0.286479,0.3437748,-0.9167328000000001,80.90739918,1.3349921400000002,-6.97862844
8.35,835,0.017,-0.991,-0.13699999999999998,0.5156622000000001,0.2291832000000001,-0.8594370000000001,80.90739918,1.3464512999999998,-6.97862844
8.36,836,0.02,-0.991,-0.136,0.6302538000000001,0.11459160000000004,-0.8021411999999999,80.91312875999998,1.3579104599999998,-6.972898860000001
8.37,837,0.021,-0.992,-0.136,0.7448454000000001,0.1718874,-0.7448454000000001,80.92458792,1.36364004,-6.972898860000001
8.38,838,0.023,-0.9940000000000001,-0.135,0.8594370000000001,0.0,-0.6875496,80.9303175,1.36936962,-6.972898860000001
8.39,839,0.021,-0.997,-0.132,0.8594370000000001,-0.286479,-0.6302538000000001,80.94177666,1.3750992,-6.97862844
8.4,840,0.019,-0.997,-0.134,0.8021411999999999,-0.3437748,-0.5156622000000001,80.95323582,1.38082878,-6.98435802
8.41,841,0.019,-1.0,-0.132,0.6875496,-0.3437748,-0.572958,80.95896540000003,1.38655836,-6.990087599999999
8.42,842,0.019,-1.0,-0.132,0.4583664000000001,-0.2291832000000001,-0.572958,80.96469498,1.39228794,-6.990087599999999
8.43,843,0.017,-1.0,-0.132,0.40107059999999994,-0.11459160000000004,-0.572958,80.97042456,1.39801752,-6.99581718
8.44,844,0.016,-1.001,-0.132,0.1718874,0.1718874,-0.7448454000000001,80.97042456,1.4037471000000001,-6.99581718
8.45,845,0.016,-1.0,-0.136,0.2291832000000001,0.286479,-0.7448454000000001,80.96469498,1.4037471000000001,-6.990087599999999
8.459999999999999,846,0.016,-1.002,-0.136,0.3437748,0.40107059999999994,-0.6302538000000001,80.97042456,1.40947668,-6.990087599999999
8.47,847,0.017,-1.0,-0.13699999999999998,0.40107059999999994,0.4583664000000001,-0.572958,80.97615413999998,1.4209358399999998,-6.98435802
8.48,848,0.016,-0.9990000000000001,-0.136,0.40107059999999994,0.40107059999999994,-0.3437748,80.98188372,1.4209358399999998,-6.97862844
8.49,849,0.016,-0.9990000000000001,-0.136,0.4583664000000001,0.2291832000000001,-0.3437748,80.98761329999998,1.42666542,-6.97862844
8.5,850,0.018000000000000002,-0.998,-0.136,0.40107059999999994,0.286479,-0.286479,80.98761329999998,1.4209358399999998,-6.97862844
8.51,851,0.018000000000000002,-0.998,-0.135,0.40107059999999994,0.40107059999999994,-0.40107059999999994,80.99334288,1.42666542,-6.972898860000001
8.52,852,0.018000000000000002,-0.997,-0.133,0.1718874,0.5156622000000001,-0.6302538000000001,80.99334288,1.432395,-6.96716928
8.53,853,0.018000000000000002,-0.996,-0.135,0.0,0.8021411999999999,-0.8021411999999999,80.99334288,1.44385416,-6.9614397000000015
8.54,854,0.019,-0.996,-0.13699999999999998,0.0,0.8594370000000001,-0.8594370000000001,80.99334288,1.45531332,-6.955710119999999
8.55,855,0.018000000000000002,-0.998,-0.138,-0.057295800000000015,0.7448454000000001,-0.8594370000000001,80.98188372,1.4610428999999998,-6.94998054
8.56,856,0.018000000000000002,-0.997,-0.138,-0.1718874,0.5156622000000001,-0.7448454000000001,80.98188372,1.46677248,-6.94425096
8.57,857,0.02,-0.997,-0.13699999999999998,0.0,0.1718874,-0.6302538000000001,80.98188372,1.47250206,-6.94425096
8.58,858,0.02,-0.997,-0.134,-0.1718874,-0.057295800000000015,-0.3437748,80.97615413999998,1.4782316400000002,-6.94425096
8.59,859,0.021,-0.995,-0.133,-0.286479,-0.1718874,0.0,80.97615413999998,1.4782316400000002,-6.94425096
8.6,860,0.021,-0.995,-0.133,-0.2291832000000001,0.0,-0.057295800000000015,80.97615413999998,1.4782316400000002,-6.94425096
8.61,861,0.02,-0.995,-0.132,-0.286479,0.1718874,-0.057295800000000015,80.97615413999998,1.4782316400000002,-6.94425096
8.62,862,0.02,-0.997,-0.134,-0.40107059999999994,0.3437748,0.0,80.97042456,1.4782316400000002,-6.94425096
8.63,863,0.021,-0.998,-0.135,-0.40107059999999994,0.2291832000000001,0.11459160000000004,80.96469498,1.4782316400000002,-6.93852138
8.64,864,0.022000000000000002,-1.0,-0.135,-0.286479,0.057295800000000015,0.286479,80.96469498,1.47250206,-6.93852138
8.65,865,0.021,-0.998,-0.135,-0.2291832000000001,-0.1718874,0.1718874,80.95323582,1.4782316400000002,-6.93852138
8.66,866,0.021,-0.9990000000000001,-0.134,-0.40107059999999994,-0.3437748,0.0,80.94750624,1.4782316400000002,-6.94425096
8.67,867,0.021,-0.997,-0.135,-0.40107059999999994,-0.286479,0.0,80.94177666,1.4782316400000002,-6.94425096
8.68,868,0.023,-0.996,-0.135,-0.3437748,-0.057295800000000015,-0.057295800000000015,80.94177666,1.4782316400000002,-6.94425096
8.69,869,0.022000000000000002,-0.997,-0.136,0.0,0.0,0.057295800000000015,80.94177666,1.4782316400000002,-6.94425096
8.7,870,0.021,-0.9990000000000001,-0.134,0.057295800000000015,0.0,0.1718874,80.94750624,1.45531332,-6.94425096
8.71,871,0.019,-0.9990000000000001,-0.135,0.1718874,0.0,0.3437748,80.94750624,1.44958374,-6.94425096
8.72,872,0.018000000000000002,-0.998,-0.135,0.1718874,0.1718874,0.4583664000000001,80.95323582,1.44958374,-6.94425096
8.73,873,0.018000000000000002,-0.997,-0.135,0.11459160000000004,0.2291832000000001,0.4583664000000001,80.95323582,1.44385416,-6.93852138
8.74,874,0.018000000000000002,-0.996,-0.135,0.057295800000000015,0.11459160000000004,0.4583664000000001,80.95323582,1.43812458,-6.93852138
8.75,875,0.017,-0.995,-0.135,0.1718874,0.2291832000000001,0.3437748,80.94750624,1.4209358399999998,-6.9327918
8.76,876,0.016,-0.993,-0.136,0.1718874,0.286479,0.057295800000000015,80.95323582,1.4209358399999998,-6.9327918
8.77,877,0.016,-0.9940000000000001,-0.135,0.2291832000000001,0.286479,-0.057295800000000015,80.95323582,1.4209358399999998,-6.9270622200000025
8.78,878,0.016,-0.992,-0.133,0.286479,0.6302538000000001,-0.11459160000000004,80.95896540000003,1.4209358399999998,-6.92133264
8.79,879,0.018000000000000002,-0.993,-0.135,0.286479,0.6302538000000001,-0.2291832000000001,80.95896540000003,1.42666542,-6.9156030600000005
8.8,880,0.02,-0.9940000000000001,-0.13699999999999998,0.2291832000000001,0.572958,-0.1718874,80.95896540000003,1.42666542,-6.90987348
8.81,881,0.02,-0.995,-0.139,0.40107059999999994,0.40107059999999994,0.0,80.95896540000003,1.432395,-6.9041438999999984
8.82,882,0.019,-0.995,-0.138,0.6302538000000001,0.2291832000000001,0.0,80.97042456,1.432395,-6.9041438999999984
8.83,883,0.019,-0.997,-0.13699999999999998,0.6875496,0.286479,0.057295800000000015,80.97615413999998,1.432395,-6.898414319999999
8.84,884,0.02,-0.997,-0.136,0.7448454000000001,0.3437748,0.0,80.98188372,1.432395,-6.898414319999999
8.85,885,0.018000000000000002,-0.998,-0.134,0.8594370000000001,0.2291832000000001,-0.11459160000000004,80.99334288,1.42666542,-6.89268474
8.86,886,0.018000000000000002,-0.997,-0.133,0.8594370000000001,0.11459160000000004,-0.11459160000000004,81.00480204,1.432395,-6.89268474
8.87,887,0.016,-0.996,-0.134,0.7448454000000001,0.1718874,-0.2291832000000001,81.01053162,1.432395,-6.89268474
8.88,888,0.017,-0.997,-0.133,0.6302538000000001,0.286479,-0.3437748,81.0162612,1.43812458,-6.8869551599999985
8.89,889,0.018000000000000002,-0.997,-0.133,0.2291832000000001,0.3437748,-0.40107059999999994,81.02199078,1.44385416,-6.8869551599999985
8.9,890,0.019,-0.997,-0.134,0.11459160000000004,0.2291832000000001,-0.4583664000000001,81.0162612,1.44958374,-6.8869551599999985
8.91,891,0.021,-0.997,-0.134,0.11459160000000004,0.3437748,-0.40107059999999994,81.0162612,1.44958374,-6.8812255800000015
8.92,892,0.02,-0.997,-0.133,0.057295800000000015,0.3437748,-0.40107059999999994,81.02199078,1.45531332,-6.8812255800000015
8.93,893,0.022000000000000002,-0.998,-0.132,0.0,0.572958,-0.40107059999999994,81.02199078,1.4610428999999998,-6.875496000000001
8.94,894,0.021,-0.997,-0.132,-0.057295800000000015,0.6302538000000001,-0.3437748,81.02199078,1.46677248,-6.86976642
8.95,895,0.022000000000000002,-0.997,-0.13,0.0,0.572958,-0.286479,81.02772036,1.47250206,-6.86403684
8.96,896,0.023,-0.9990000000000001,-0.13,0.0,0.6302538000000001,-0.286479,81.02772036,1.4782316400000002,-6.85257768
8.97,897,0.023,-1.0,-0.129,0.0,0.6875496,-0.1718874,81.02772036,1.48396122,-6.8468481
8.98,898,0.024,-1.0,-0.128,0.057295800000000015,0.7448454000000001,-0.11459160000000004,81.02772036,1.48396122,-6.8411185199999975
8.99,899,0.024,-1.001,-0.127,-0.057295800000000015,0.5156622000000001,0.0,81.02772036,1.48396122,-6.83538894
9.0,900,0.024,-0.9990000000000001,-0.127,-0.2291832000000001,0.3437748,0.057295800000000015,81.05063868,1.4896908000000002,-6.829659359999999
9.01,901,0.024,-0.998,-0.125,-0.2291832000000001,0.286479,0.057295800000000015,81.05063868,1.4896908000000002,-6.829659359999999
9.02,902,0.024,-0.998,-0.126,-0.286479,0.11459160000000004,0.057295800000000015,81.04490909999998,1.4896908000000002,-6.829659359999999
9.03,903,0.023,-0.998,-0.126,-0.2291832000000001,0.11459160000000004,0.11459160000000004,81.04490909999998,1.4896908000000002,-6.82392978
9.04,904,0.023,-1.0,-0.126,-0.1718874,0.0,0.057295800000000015,81.03917952,1.4896908000000002,-6.82392978
9.05,905,0.024,-1.0,-0.127,-0.2291832000000001,0.0,0.11459160000000004,81.07355700000002,1.50114996,-6.82392978
9.06,906,0.026000000000000002,-1.002,-0.127,-0.11459160000000004,0.057295800000000015,0.11459160000000004,81.07355700000002,1.50114996,-6.82392978
9.07,907,0.027000000000000003,-1.001,-0.127,-0.286479,0.2291832000000001,0.1718874,81.07355700000002,1.49542038,-6.82392978
9.08,908,0.026000000000000002,-0.9990000000000001,-0.128,-0.40107059999999994,0.11459160000000004,0.286479,81.06782741999999,1.49542038,-6.8182002000000015
9.09,909,0.027000000000000003,-0.997,-0.129,-0.4583664000000001,0.057295800000000015,0.3437748,81.06209784,1.4896908000000002,-6.8182002000000015
9.1,910,0.027000000000000003,-0.997,-0.13,-0.40107059999999994,0.0,0.4583664000000001,81.06209784,1.50114996,-6.8182002000000015
9.11,911,0.027000000000000003,-0.996,-0.131,-0.5156622000000001,-0.1718874,0.40107059999999994,81.05636826,1.50114996,-6.8182002000000015
9.12,912,0.026000000000000002,-0.996,-0.133,-0.4583664000000001,-0.2291832000000001,0.3437748,81.05636826,1.49542038,-6.8182002000000015
9.13,913,0.025,-0.996,-0.133,-0.40107059999999994,-0.40107059999999994,0.286479,81.05063868,1.4896908000000002,-6.82392978
9.14,914,0.026000000000000002,-0.996,-0.134,-0.286479,-0.572958,0.286479,81.04490909999998,1.48396122,-6.829659359999999
9.15,915,0.026000000000000002,-0.997,-0.133,-0.4583664000000001,-0.6302538000000001,0.1718874,81.04490909999998,1.49542038,-6.83538894
9.16,916,0.027000000000000003,-0.998,-0.131,-0.6875496,-0.572958,0.11459160000000004,81.03917952,1.4896908000000002,-6.8411185199999975
9.17,917,0.027000000000000003,-0.997,-0.132,-0.8021411999999999,-0.572958,0.11459160000000004,81.02772036,1.4896908000000002,-6.8468481
9.18,918,0.026000000000000002,-0.997,-0.134,-0.6302538000000001,-0.7448454000000001,0.11459160000000004,81.02199078,1.48396122,-6.85257768
9.19,919,0.025,-0.996,-0.134,-0.5156622000000001,-1.0313244000000001,0.1718874,81.0162612,1.48396122,-6.86403684
9.2,920,0.024,-0.996,-0.135,-0.40107059999999994,-0.9167328000000001,0.11459160000000004,81.00480204,1.48396122,-6.875496000000001
9.21,921,0.022000000000000002,-0.9990000000000001,-0.13699999999999998,-0.5156622000000001,-0.8021411999999999,0.1718874,81.00480204,1.4782316400000002,-6.8812255800000015
9.22,922,0.022000000000000002,-1.001,-0.136,-0.286479,-0.8594370000000001,0.286479,80.99907246000002,1.47250206,-6.8869551599999985
9.23,923,0.022000000000000002,-1.002,-0.134,-0.2291832000000001,-0.9167328000000001,0.2291832000000001,80.99334288,1.47250206,-6.898414319999999
9.24,924,0.022000000000000002,-1.002,-0.133,-0.40107059999999994,-0.9167328000000001,0.2291832000000001,80.99334288,1.46677248,-6.90987348
9.25,925,0.023,-1.0,-0.133,-0.6875496,-0.8594370000000001,0.057295800000000015,80.98761329999998,1.46677248,-6.9156030600000005
9.26,926,0.024,-0.997,-0.133,-0.6302538000000001,-0.6302538000000001,0.0,80.98188372,1.46677248,-6.92133264
9.27,927,0.025,-0.998,-0.134,-0.5156622000000001,-0.6302538000000001,-0.057295800000000015,80.97615413999998,1.46677248,-6.9270622200000025
9.28,928,0.025,-1.0,-0.133,-0.40107059999999994,-0.4583664000000001,0.057295800000000015,80.97042456,1.46677248,-6.9327918
9.29,929,0.026000000000000002,-1.0,-0.134,-0.4583664000000001,-0.286479,0.2291832000000001,80.96469498,1.4610428999999998,-6.93852138
9.3,930,0.026000000000000002,-0.998,-0.131,-0.40107059999999994,-0.3437748,0.40107059999999994,80.96469498,1.46677248,-6.93852138
9.31,931,0.025,-0.995,-0.132,-0.286479,-0.40107059999999994,0.6875496,80.96469498,1.4610428999999998,-6.94425096
9.32,932,0.025,-0.992,-0.132,-0.1718874,-0.286479,0.8594370000000001,80.95896540000003,1.44958374,-6.94425096
9.33,933,0.024,-0.992,-0.132,-0.11459160000000004,-0.286479,0.8594370000000001,80.95896540000003,1.43812458,-6.94425096
9.34,934,0.022000000000000002,-0.991,-0.131,0.1718874,-0.3437748,0.7448454000000001,80.95896540000003,1.432395,-6.94998054
9.35,935,0.02,-0.991,-0.128,0.2291832000000001,-0.40107059999999994,0.5156622000000001,80.98188372,1.42666542,-6.94998054
9.36,936,0.019,-0.992,-0.127,0.1718874,-0.40107059999999994,0.3437748,80.98188372,1.4209358399999998,-6.955710119999999
9.37,937,0.019,-0.993,-0.128,0.11459160000000004,-0.572958,0.1718874,80.98761329999998,1.4209358399999998,-6.9614397000000015
9.38,938,0.019,-0.995,-0.127,0.11459160000000004,-0.7448454000000001,0.1718874,80.98761329999998,1.41520626,-6.96716928
9.39,939,0.021,-1.0,-0.126,0.0,-0.6875496,0.2291832000000001,80.98761329999998,1.41520626,-6.972898860000001
9.4,940,0.023,-1.002,-0.128,0.0,-0.11459160000000004,0.0,81.0162612,1.4209358399999998,-6.972898860000001
9.41,941,0.023,-1.004,-0.13,0.0,0.4583664000000001,0.0,81.0162612,1.4209358399999998,-6.972898860000001
9.42,942,0.022000000000000002,-1.006,-0.133,0.0,0.7448454000000001,0.0,81.0162612,1.4209358399999998,-6.9614397000000015
9.43,943,0.022000000000000002,-1.006,-0.134,0.11459160000000004,0.9167328000000001,0.11459160000000004,81.0162612,1.4209358399999998,-6.955710119999999
9.44,944,0.022000000000000002,-1.005,-0.133,0.11459160000000004,0.9167328000000001,0.1718874,81.0162612,1.4209358399999998,-6.94425096
9.45,945,0.021,-1.002,-0.132,0.1718874,0.7448454000000001,0.40107059999999994,81.02772036,1.4209358399999998,-6.9327918
9.46,946,0.021,-0.9990000000000001,-0.13,0.11459160000000004,0.6302538000000001,0.40107059999999994,81.02772036,1.41520626,-6.9270622200000025
9.47,947,0.022000000000000002,-0.9990000000000001,-0.127,-0.057295800000000015,0.4583664000000001,0.286479,81.02772036,1.41520626,-6.92133264
9.48,948,0.024,-0.997,-0.126,-0.286479,0.4583664000000001,0.2291832000000001,81.02199078,1.41520626,-6.9156030600000005
9.49,949,0.025,-0.996,-0.128,-0.40107059999999994,0.572958,0.2291832000000001,81.02199078,1.40947668,-6.90987348
9.5,950,0.023,-0.996,-0.13,-0.40107059999999994,0.572958,0.1718874,81.03344994,1.41520626,-6.9041438999999984
