TimeStamp(s),FrameCounter,AccX,AccY,AccZ,GyrX,GyrY,GyrZ,EulerX,EulerY,EulerZ
0.01,1,-0.015,-1.01,0.035,0.286479,5.2139178,-1.7188740000000002,92.05143228,-1.0886202,-22.12763796
0.02,2,-0.023,-1.009,0.038,0.9167328,4.4690724,-1.432395,92.02278438,-1.08289062,-22.07607174
0.03,3,-0.027000000000000003,-1.003,0.037000000000000005,0.9167328,3.6096354,-1.432395,92.03424354,-1.07143146,-22.04169426
0.04,4,-0.025,-0.997,0.039,1.2605076000000002,2.8074942000000003,-1.3750992,92.0457027,-1.0599723,-22.01304636
0.05,5,-0.022,-0.997,0.039,1.432395,2.0053530000000004,-1.3750992,92.06289144000002,-1.04278356,-21.99012804
0.060000000000000005,6,-0.021,-0.998,0.037000000000000005,1.2605076000000002,1.3178034,-1.6042823999999998,92.0743506,-1.0313244,-21.97866888
0.06999999999999999,7,-0.02,-0.999,0.033,1.0886202,0.9740286,-1.7761698,92.01132522,-1.00840608,-21.96148014
0.08,8,-0.02,-0.999,0.03,1.2032118,0.2291832000000001,-1.8907613999999997,92.02278438,-0.98548776,-21.96148014
0.09,9,-0.021,-1.001,0.037000000000000005,1.6042823999999998,-0.286479,-1.8334656000000005,92.03997312,-0.96829902,-21.96148014
0.09999999999999999,10,-0.022,-1.005,0.043,1.7761698,-0.3437748,-1.7761698,92.05716186,-0.95111028,-21.96720972
0.11,11,-0.025,-1.009,0.052000000000000005,1.6042823999999998,-0.11459160000000004,-1.7188740000000002,92.0743506,-0.93392154,-21.96720972
0.12,12,-0.028,-1.011,0.055,1.4896908000000002,-0.1718874,-1.5469866,92.08008018,-0.93965112,-21.96720972
0.13,13,-0.025,-1.012,0.056,1.5469866,-0.5156622000000001,-1.145916,92.09726892,-0.92819196,-21.9729393
0.14,14,-0.023,-1.01,0.062,1.432395,-1.0886202,-0.8021411999999999,92.11445766,-0.9167328000000001,-21.98439846
0.15000000000000002,15,-0.024,-1.008,0.062,1.2605076000000002,-1.3178034,-0.4583664000000001,92.12591682,-0.91100322,-21.99585762
0.16,16,-0.028,-1.01,0.057,0.8594370000000001,-0.7448454000000001,-0.286479,92.13737598,-0.90527364,-22.007316780000004
0.17,17,-0.032,-1.012,0.051,0.8021411999999999,0.057295800000000015,-0.2291832000000001,92.0743506,-0.9740286,-22.0015872
0.18000000000000002,18,-0.031,-1.013,0.049,0.6875496,0.8021411999999999,0.0,92.08580976,-0.9740286,-21.99585762
0.19,19,-0.029,-1.011,0.049,0.572958,0.8021411999999999,0.1718874,92.09153934,-0.97975818,-21.99012804
0.2,20,-0.027000000000000003,-1.008,0.047,0.8594370000000001,0.8594370000000001,0.5156622000000001,92.09726892,-0.98548776,-21.97866888
0.21000000000000002,21,-0.025,-1.008,0.046,1.145916,0.9740286,0.6302538000000001,92.10872808,-0.9912173399999998,-21.96720972
0.22,22,-0.024,-1.011,0.046,1.3750992,1.2605076000000002,0.6875496,92.09153934,-1.0026765,-21.95575056
0.23,23,-0.025,-1.015,0.048,1.6042823999999998,1.6042823999999998,0.7448454000000001,92.1029985,-1.01413566,-21.93856182
0.24000000000000002,24,-0.029,-1.017,0.05,1.8907613999999997,1.7188740000000002,0.7448454000000001,92.12591682,-1.01986524,-21.92137308
0.25,25,-0.033,-1.017,0.053,1.6042823999999998,1.5469866,0.6302538000000001,92.14310556,-1.0313244,-21.90418434
0.26,26,-0.034,-1.016,0.058,1.0886202,1.2605076000000002,0.3437748,92.14883514,-1.0313244,-21.89272518000001
0.27,27,-0.03,-1.014,0.062,0.5156622000000001,1.2032118,0.0,92.1602943,-1.06570188,-21.88126602
0.28,28,-0.029,-1.014,0.062,-0.057295800000000015,0.9740286,-0.1718874,92.1602943,-1.06570188,-21.87553644
0.29000000000000004,29,-0.031,-1.008,0.055,-0.8021411999999999,0.4583664000000001,-0.3437748,92.14883514,-1.06570188,-21.86980686
0.3,30,-0.032,-1.004,0.048,-1.0313244,0.0,-0.4010706,92.13737598,-1.0599723,-21.86980686
0.31,31,-0.032,-1.003,0.045,-0.8594370000000001,-0.11459160000000004,-0.4583664000000001,92.1316464,-1.05424272,-21.86980686
0.32,32,-0.033,-1.004,0.047,-0.8021411999999999,0.11459160000000004,-0.5156622000000001,92.06862102,-1.10580894,-21.86980686
0.33,33,-0.033,-1.007,0.048,-0.7448454000000001,0.3437748,-0.4010706,92.06289144000002,-1.10580894,-21.86407728
0.34,34,-0.033,-1.009,0.045,-0.4583664000000001,0.2291832000000001,-0.2291832000000001,92.05716186,-1.10007936,-21.86407728
0.35000000000000003,35,-0.035,-1.01,0.046,-0.572958,0.2291832000000001,0.0,92.05143228,-1.10007936,-21.8583477
0.36000000000000004,36,-0.036000000000000004,-1.007,0.048,-0.8594370000000001,0.5156622000000001,0.1718874,92.03997312,-1.10580894,-21.85261812
0.37,37,-0.034,-1.004,0.048,-0.6302538000000001,0.8021411999999999,0.057295800000000015,91.9884069,-1.1573751600000002,-21.84688854
0.38,38,-0.033,-1.002,0.049,-0.3437748,1.0886202,-0.1718874,91.98267732,-1.15164558,-21.83542938
0.39,39,-0.033,-1.002,0.054000000000000006,-0.286479,1.2032118,-0.5156622000000001,91.98267732,-1.15164558,-21.82397022
0.4,40,-0.034,-1.004,0.059,-0.1718874,1.145916,-0.572958,91.97694774,-1.1459160000000002,-21.81251106
0.41000000000000003,41,-0.032,-1.009,0.066,-0.4583664000000001,0.8021411999999999,-0.4010706,91.97121816,-1.14018642,-21.8010519
0.42000000000000004,42,-0.032,-1.015,0.066,-0.9167328,-0.057295800000000015,0.1718874,91.98267732,-1.16310474,-21.80678148
0.43,43,-0.031,-1.017,0.062,-1.145916,-0.9167328,0.8594370000000001,91.97121816,-1.1745638999999999,-21.81824064
0.44,44,-0.031,-1.017,0.061,-1.2605076000000002,-1.432395,1.432395,91.959759,-1.18602306,-21.83542938
0.45,45,-0.032,-1.014,0.061,-1.3750992,-1.6042823999999998,1.6615782,91.94257026,-1.2032117999999998,-21.84688854
0.46,46,-0.032,-1.011,0.061,-1.3178034,-1.4896908000000002,1.7188740000000002,91.9311111,-1.22040054,-21.86407728
0.47000000000000003,47,-0.031,-1.006,0.058,-1.4896908000000002,-1.6615782,1.6615782,91.91392236,-1.24331886,-21.88126602
0.48000000000000004,48,-0.033,-1.001,0.054000000000000006,-1.6042823999999998,-2.0053530000000004,1.6042823999999998,91.9024632,-1.2605076000000002,-21.90418434
0.49,49,-0.037000000000000005,-0.997,0.052000000000000005,-1.3178034,-2.3491278,1.5469866,91.88527446,-1.27196676,-21.92710266
0.5,50,-0.042,-0.997,0.053,-1.0313244,-2.6929026,1.3178034,91.87954488,-1.28342592,-21.95575056
0.51,51,-0.044,-0.996,0.052000000000000005,-0.7448454000000001,-2.9220857999999996,1.145916,91.8738153,-1.29488508,-21.98439846
0.52,52,-0.043,-0.998,0.051,-0.6875496,-3.3231564,0.9167328,91.86235614,-1.32926256,-22.01877594
0.53,53,-0.041,-1.002,0.049,-0.6302538000000001,-3.6669312000000014,0.8594370000000001,91.85662656,-1.3349921400000002,-22.058883
0.54,54,-0.038,-1.003,0.047,-0.572958,-4.0680017999999984,0.8021411999999999,91.85089698,-1.34072172,-22.09899006
0.55,55,-0.039,-1.003,0.045,-0.5156622000000001,-4.0680017999999984,0.8021411999999999,91.84516740000001,-1.3464512999999998,-22.13909712
0.56,56,-0.039,-1.002,0.044,-0.286479,-4.2398892,0.7448454000000001,91.84516740000001,-1.35218088,-22.17920418
0.5700000000000001,57,-0.043,-1.004,0.043,-0.057295800000000015,-4.2398892,0.572958,91.82797866,-1.38082878,-22.22504082
0.5800000000000001,58,-0.045,-1.007,0.043,0.057295800000000015,-4.1252976000000015,0.4010706,91.82797866,-1.38655836,-22.26514788
0.59,59,-0.047,-1.012,0.048,-0.057295800000000015,-4.1825934,0.1718874,91.82797866,-1.38655836,-22.30525494
0.6,60,-0.047,-1.014,0.054000000000000006,-0.4010706,-3.7815227999999994,-0.057295800000000015,91.82797866,-1.38082878,-22.345362
0.61,61,-0.047,-1.017,0.056,-0.6875496,-2.86479,-0.11459160000000004,91.82224908,-1.38082878,-22.374009899999997
0.62,62,-0.046,-1.016,0.055,-1.145916,-2.3491278,-0.11459160000000004,91.81078992,-1.40947668,-22.39692822
0.63,63,-0.043,-1.013,0.051,-1.432395,-2.1199446,-0.057295800000000015,91.79360118,-1.40947668,-22.41984654
0.64,64,-0.041,-1.012,0.049,-1.3750992,-1.8907613999999997,0.057295800000000015,91.78214202,-1.40947668,-22.43703528
0.65,65,-0.041,-1.012,0.053,-1.432395,-1.8907613999999997,-0.11459160000000004,91.76495328,-1.4037471,-22.4599536
0.66,66,-0.042,-1.009,0.057,-1.7188740000000002,-2.4064236,-0.4583664000000001,91.74776454000002,-1.39801752,-22.48287192
0.67,67,-0.039,-1.002,0.058,-1.7188740000000002,-2.5210152000000003,-0.9740286,91.74203496,-1.39801752,-22.50579024
0.68,68,-0.034,-0.994,0.06,-1.4896908000000002,-2.3491278,-1.432395,91.72484622,-1.38655836,-22.52870856
0.6900000000000001,69,-0.03,-0.992,0.065,-1.2605076000000002,-1.6615782,-1.6042823999999998,91.71338706000002,-1.36936962,-22.5458973
0.7000000000000001,70,-0.03,-0.995,0.064,-1.2032118,-1.0886202,-1.3750992,91.70192790000002,-1.35218088,-22.55735646
0.7100000000000001,71,-0.035,-1.002,0.06,-1.2032118,-0.5156622000000001,-0.9167328,91.69046874,-1.34072172,-22.56308604
0.72,72,-0.04,-1.007,0.056,-1.2032118,-0.1718874,-0.4583664000000001,91.69619832,-1.4037471,-22.56881562
0.73,73,-0.046,-1.009,0.052000000000000005,-1.0886202,0.0,-0.1718874,91.68473916,-1.39801752,-22.56881562
0.74,74,-0.048,-1.012,0.049,-1.2032118,0.11459160000000004,-0.4010706,91.66755042,-1.39228794,-22.56881562
0.75,75,-0.049,-1.009,0.046,-0.9167328,0.057295800000000015,-0.8021411999999999,91.66182084,-1.38655836,-22.56881562
0.76,76,-0.047,-1.005,0.044,-0.7448454000000001,0.0,-1.0886202,91.65036168,-1.3750992,-22.56881562
0.77,77,-0.045,-1.001,0.043,-0.572958,-0.057295800000000015,-1.145916,91.61025462,-1.42666542,-22.56881562
0.78,78,-0.045,-0.998,0.043,-0.5156622000000001,0.057295800000000015,-1.145916,91.60452504,-1.40947668,-22.56881562
0.79,79,-0.043,-0.997,0.043,-0.4010706,0.4583664000000001,-1.0313244,91.60452504,-1.4037471,-22.56308604
0.8,80,-0.043,-0.997,0.042,-0.1718874,0.9167328,-0.7448454000000001,91.59879546,-1.39228794,-22.55162688
0.81,81,-0.045,-0.999,0.042,0.0,1.145916,-0.5156622000000001,91.59879546,-1.39228794,-22.54016772
0.8200000000000001,82,-0.044,-1.001,0.042,0.286479,1.432395,-0.4010706,91.57587714,-1.432395,-22.52870856
0.8300000000000001,83,-0.043,-1.004,0.042,0.5156622000000001,1.7761698,-0.4583664000000001,91.58160672,-1.432395,-22.51151982
0.8400000000000001,84,-0.046,-1.003,0.042,0.8021411999999999,2.2345362,-0.572958,91.5873363,-1.42666542,-22.4886015
0.85,85,-0.048,-1.007,0.045,0.9740286,2.8074942000000003,-0.572958,91.59879546,-1.4209358399999998,-22.4599536
0.86,86,-0.048,-1.009,0.049,1.2032118,3.2658606,-0.5156622000000001,91.60452504,-1.41520626,-22.42557612
0.87,87,-0.046,-1.009,0.05,1.2032118,3.8388186,-0.572958,91.6159842,-1.432395,-22.39119864
0.88,88,-0.044,-1.009,0.047,1.3178034,4.1825934,-0.4583664000000001,91.62744336,-1.432395,-22.345362
0.89,89,-0.041,-1.012,0.045,1.4896908000000002,4.2398892,-0.1718874,91.6446321,-1.432395,-22.30525494
0.9,90,-0.039,-1.014,0.044,1.6615782,4.7555514,0.057295800000000015,91.65609126,-1.432395,-22.259418300000004
0.91,91,-0.037000000000000005,-1.011,0.041,1.6615782,5.2139178,0.3437748,91.67328,-1.43812458,-22.20785208
0.92,92,-0.037000000000000005,-1.005,0.043,1.5469866,5.443101,0.572958,91.67900958,-1.45531332,-22.15055628
0.93,93,-0.038,-1.001,0.046,1.2605076000000002,5.3858052,0.8021411999999999,91.69046874,-1.46677248,-22.09899006
0.9400000000000001,94,-0.041,-1.002,0.059,0.572958,5.6722842,0.9740286,91.69619832,-1.4782316400000002,-22.04169426
0.9500000000000001,95,-0.05,-1.015,0.068,-0.6302538000000001,6.875496000000001,0.9740286,91.68473916,-1.49542038,-21.9729393
0.9600000000000001,96,-0.055,-1.031,0.064,-2.3491278,8.8235532,1.2605076000000002,91.65609126,-1.51260912,-21.8869956
0.97,97,-0.06,-1.037,0.053,-3.5523396000000003,10.5424272,1.9480572,91.6159842,-1.5527161800000002,-21.78386316000001
0.98,98,-0.066,-1.042,0.047,-4.297185,11.172681,2.5210152000000003,91.57014756,-1.5813640800000002,-21.67500114
0.99,99,-0.076,-1.037,0.039,-4.6982556,10.5424272,2.4637194,91.51858134,-1.61001198,-21.571868700000003
1.0,100,-0.084,-1.026,0.04,-4.6409598,9.568398599999998,1.7188740000000002,91.46701512,-1.6386598799999998,-21.48019542
1.01,101,-0.081,-1.01,0.053,-4.8128472,9.224623800000002,0.8594370000000001,91.40971932,-1.65011904,-21.38852214
1.02,102,-0.071,-1.001,0.065,-5.3858052,8.880849000000003,0.1718874,91.36388268,-1.67303736,-21.30257844
1.03,103,-0.062,-0.992,0.075,-5.958763200000001,7.9641161999999985,-0.11459160000000004,91.3008573,-1.6787669399999998,-21.228093899999998
1.04,104,-0.059,-0.993,0.081,-6.589017,7.1046792000000005,-0.057295800000000015,91.23210234,-1.6787669399999998,-21.15933894
1.05,105,-0.061,-1.002,0.085,-7.0473834,6.3598338,0.4583664000000001,91.1576178,-1.6902260999999998,-21.09631356
1.06,106,-0.069,-1.012,0.086,-7.5630456000000015,4.8128472,0.9740286,91.07740368,-1.70168526,-21.05047692
1.07,107,-0.07400000000000001,-1.015,0.087,-7.5630456000000015,3.6669312000000014,1.3178034,91.03156704,-1.74179232,-21.01609944
1.08,108,-0.078,-1.011,0.092,-7.5057497999999985,2.8074942000000003,1.145916,90.95135292,-1.75898106,-20.98745154
1.09,109,-0.081,-0.999,0.098,-7.161975,2.0626488000000003,0.8021411999999999,90.87686838,-1.76471064,-20.9702628
1.1,110,-0.08800000000000001,-0.987,0.113,-7.0473834,2.1772404,0.0,90.80811342,-1.77044022,-20.94734448
1.11,111,-0.097,-0.986,0.125,-6.9327918,2.7501984,-0.5156622000000001,90.73362888,-1.76471064,-20.924426160000003
1.12,112,-0.107,-0.991,0.13,-7.1046792000000005,3.4377480000000005,-1.0313244,90.72216972,-1.8048176999999999,-20.89577826
1.1300000000000001,113,-0.116,-1.01,0.135,-7.2765666,4.1825934,-1.2032118,90.64768518,-1.7933585399999998,-20.8556712
1.1400000000000001,114,-0.12,-1.028,0.129,-8.4224826,4.9274388,-0.9740286,90.56174148,-1.78762896,-20.80983456
1.1500000000000001,115,-0.118,-1.037,0.12,-9.2819196,5.1566220000000005,-0.6302538000000001,90.46433862,-1.78189938,-20.75826834
1.1600000000000001,116,-0.113,-1.041,0.107,-10.0840608,4.7555514,-0.1718874,90.3554766,-1.78189938,-20.712431700000003
1.17,117,-0.105,-1.036,0.1,-10.886202,4.1252976000000015,0.057295800000000015,90.27526248,-1.81627686,-20.67805422
1.18,118,-0.099,-1.029,0.097,-11.688343199999998,3.724227,0.0,90.15494129999999,-1.81627686,-20.64367674
1.19,119,-0.092,-1.024,0.102,-12.5477802,3.6096354,-0.5156622000000001,90.02889053999998,-1.81627686,-20.60929926
1.2,120,-0.087,-1.015,0.104,-13.750992000000002,3.2085648,-1.2605076000000002,89.88565104,-1.8048176999999999,-20.57492178
1.21,121,-0.084,-1.003,0.094,-15.2979786,2.6929026,-1.8334656000000005,89.73095237999998,-1.78762896,-20.55200346
1.22,122,-0.08,-0.994,0.087,-16.673077799999998,1.5469866,-1.9480572,89.58771288,-1.78762896,-20.5405443
1.23,123,-0.077,-0.986,0.079,-17.0741484,0.6302538000000001,-1.5469866,89.41582548,-1.77044022,-20.53481472
1.24,124,-0.076,-0.98,0.07200000000000001,-17.303331600000003,-0.057295800000000015,-1.0886202,89.2382085,-1.75898106,-20.5405443
1.25,125,-0.07400000000000001,-0.973,0.07200000000000001,-17.18874,-0.8594370000000001,-0.7448454000000001,89.06059152,-1.75325148,-20.55200346
1.26,126,-0.07400000000000001,-0.969,0.073,-16.501190400000002,-1.7761698,-0.6875496,88.89443370000002,-1.7475218999999995,-20.5691922
1.27,127,-0.07400000000000001,-0.972,0.07200000000000001,-15.813640800000002,-2.8074942000000003,-0.7448454000000001,88.76265336,-1.75898106,-20.60356968
1.28,128,-0.075,-0.974,0.071,-15.6417534,-4.2398892,-0.9167328,88.60795470000002,-1.7475218999999995,-20.64940632
1.29,129,-0.077,-0.976,0.068,-15.5844576,-5.5576926,-1.3750992,88.45325604000001,-1.73606274,-20.70670212
1.3,130,-0.078,-0.983,0.061,-15.985528200000001,-7.6203414,-1.8334656000000005,88.2928278,-1.7188740000000002,-20.78118666
1.31,131,-0.076,-0.982,0.057,-16.4438946,-9.1100322,-2.4637194,88.12666998,-1.6959556799999995,-20.87285994
1.32,132,-0.075,-0.986,0.051,-16.8449652,-10.1413566,-3.4377480000000005,87.9777009,-1.67303736,-20.98172196
1.33,133,-0.07400000000000001,-0.99,0.041,-17.3606274,-9.969469199999999,-4.4690724,87.8058135,-1.6329303,-21.0848544
1.34,134,-0.075,-0.987,0.037000000000000005,-17.475219,-9.568398599999998,-5.3285094000000015,87.6339261,-1.5813640800000002,-21.18225726
1.35,135,-0.076,-0.984,0.033,-17.589810600000003,-9.224623800000002,-5.72958,87.45630911999999,-1.52979786,-21.27966012
1.36,136,-0.078,-0.983,0.021,-18.1054728,-8.9954406,-5.5003968,87.27296256,-1.4782316400000002,-21.3713334
1.37,137,-0.08199999999999999,-0.979,-0.008,-17.9908812,-8.9381448,-3.8961144,87.10107516000002,-1.45531332,-21.46300668
1.3800000000000001,138,-0.051,-0.96,-0.012,-16.673077799999998,-8.3651868,-1.432395,86.93491734,-1.44385416,-21.54895038
1.3900000000000001,139,-0.01,-0.936,-0.013,-16.902261,-5.0993262,0.0,86.76302994,-1.44385416,-21.6005166
1.4000000000000001,140,0.033,-0.911,-0.028,-19.1367972,-0.1718874,1.3750992,86.56822422,-1.4610428999999998,-21.60624618
1.4100000000000001,141,0.068,-0.871,-0.046,-21.829699800000004,5.0993262,3.2085648,86.34477059999998,-1.49542038,-21.55467996
1.42,142,0.081,-0.823,-0.047,-23.491278,9.3965112,5.9014674000000005,86.10412824,-1.53552744,-21.46300668
1.43,143,0.084,-0.7929999999999999,-0.022,-24.0069402,12.2040054,9.5111028,85.85202672,-1.6272007199999998,-21.33695592
1.44,144,0.084,-0.799,0.0,-24.8090814,12.7769634,14.037471,85.59419562000002,-1.75898106,-21.199446
1.45,145,0.07200000000000001,-0.865,-0.006,-26.298772200000002,10.313244,19.3659804,85.32490535999997,-1.9480572000000005,-21.0848544
1.46,146,0.052000000000000005,-0.962,0.001,-22.9756158,4.010706000000001,24.5226024,85.08999258,-2.19442914,-21.027558600000006
1.47,147,0.038,-1.062,0.067,-16.615782,0.5156622000000001,27.501984000000004,84.94675308000002,-2.45226024,-21.00464028
1.48,148,0.018000000000000002,-1.164,0.14,-10.599723,-1.5469866,28.4187168,84.83789106,-2.73873924,-20.9989107
1.49,149,-0.009000000000000001,-1.259,0.17600000000000002,-9.969469199999999,-4.6409598,26.1268848,84.74048819999999,-3.00229992,-21.02182902
1.5,150,-0.034,-1.283,0.173,-12.7196676,-8.307891,20.9702628,84.61443744,-3.214294380000001,-21.0848544
1.51,151,-0.057,-1.252,0.159,-12.891555,-10.8289062,13.6936962,84.48838668,-3.35753388,-21.18225726
1.52,152,-0.071,-1.208,0.166,-13.9228794,-12.2040054,4.6982556,84.39671340000002,-3.4148296799999995,-21.30830802
1.53,153,-0.073,-1.144,0.161,-15.0114996,-13.120738199999998,-4.0680017999999984,84.25347389999997,-3.38618178,-21.44008836
1.54,154,-0.07200000000000001,-1.114,0.16399999999999998,-17.0168526,-13.9228794,-13.2353298,84.08731608000002,-3.2658606,-21.59478702
1.55,155,-0.069,-1.088,0.153,-20.9702628,-14.610429000000002,-18.9649098,83.88678078000002,-3.08824362,-21.76094484
1.56,156,-0.064,-1.058,0.132,-25.0382646,-15.183387000000002,-21.772404,83.64613842,-2.88770832,-21.93283224
1.57,157,-0.052000000000000005,-1.025,0.124,-27.8457588,-16.272007199999994,-22.4026578,83.39976648,-2.68144344,-22.12763796
1.58,158,-0.035,-1.003,0.125,-29.7365202,-17.589810600000003,-21.6005166,83.1075579,-2.48663772,-22.32817326
1.59,159,-0.018000000000000002,-0.984,0.113,-31.6845774,-19.480572,-20.2827132,82.79816058,-2.30902074,-22.5458973
1.6,160,0.0,-0.963,0.095,-33.4607472,-21.5432208,-19.2513888,82.46584494,-2.14286292,-22.78653966
1.61,161,0.015,-0.938,0.076,-34.3201842,-23.14750320000001,-18.7357266,82.13352929999998,-1.98816426,-23.04437076
1.62,162,0.023,-0.928,0.062,-34.0337052,-24.4080108,-18.8503182,81.81840240000002,-1.82773602,-23.31366102
1.6300000000000001,163,0.037000000000000005,-0.919,0.054000000000000006,-34.4920716,-24.9809688,-19.595163600000006,81.48035718,-1.6673077799999998,-23.58868086
1.6400000000000001,164,0.039,-0.929,0.051,-35.4088044,-26.1268848,-20.168121600000006,81.1308528,-1.50114996,-23.88088944
1.6500000000000001,165,0.04,-0.934,0.049,-37.0130868,-27.6738714,-20.626488,80.76415968,-1.34072172,-24.18455718
1.6600000000000001,166,0.045,-0.943,0.048,-37.757932200000006,-28.074942,-20.8556712,80.39173698,-1.1745638999999999,-24.49968408
1.6700000000000002,167,0.051,-0.979,0.071,-37.6433406,-27.501984000000004,-20.5691922,80.04223259999998,-1.00840608,-24.8090814
1.68,168,0.039,-0.985,0.08199999999999999,-37.52874900000001,-28.4760126,-19.1367972,79.66980989999998,-0.86516658,-25.12420830000001
1.69,169,-0.005,-1.018,0.138,-36.2109456,-28.304125199999998,-17.3606274,79.30884636,-0.7448454000000001,-25.43360562
1.7,170,-0.025,-1.029,0.14300000000000002,-39.0757356,-27.215505,-15.0114996,78.91923492,-0.64744254,-25.73154378
1.71,171,-0.019,-1.039,0.096,-37.52874900000001,-23.4339822,-13.9228794,78.54108264,-0.55003968,-25.98937488
1.72,172,-0.01,-1.04,0.109,-34.4347758,-19.0795014,-13.349921400000001,78.23168532,-0.4583664000000001,-26.2128285
1.73,173,-0.002,-1.055,0.104,-34.4347758,-17.6471064,-11.9748222,77.88791051999998,-0.37815228,-26.40763422
1.74,174,0.002,-1.054,0.036000000000000004,-35.4088044,-20.3973048,-9.568398599999998,77.53267656,-0.32658606,-26.63108784
1.75,175,0.015,-1.021,0.014,-31.1689152,-26.1841806,-6.875496000000001,77.21754966,-0.30939732,-26.9003781
1.76,176,0.024,-0.971,0.065,-22.631841,-31.4553942,-5.72958,76.99409604,-0.31512690000000004,-27.221234580000004
1.77,177,0.047,-0.929,0.145,-14.495837400000001,-31.8564648,-7.161975,76.91388192,-0.30366774,-27.55355022
1.78,178,0.061,-0.918,0.187,-7.6203414,-28.7051958,-10.7716104,76.83939738000002,-0.25783110000000004,-27.857217960000003
1.79,179,0.078,-0.921,0.202,-4.3544808,-25.0955604,-13.464512999999998,76.79929032,-0.17761697999999998,-28.12650822
1.8,180,0.092,-0.943,0.212,-0.9740286,-21.772404,-14.0947668,76.79356074,-0.08021412,-28.37288016
1.81,181,0.08900000000000001,-0.963,0.199,0.8021411999999999,-19.194093,-12.4331886,76.80501989999998,0.0,-28.58487462
1.82,182,0.067,-0.959,0.18,2.0053530000000004,-15.527161800000002,-9.1100322,76.9482594,0.07448454,-28.762491600000004
1.83,183,0.04,-0.975,0.116,3.4377480000000005,-9.167328,-5.7868758000000025,76.98836646,0.11459160000000004,-28.86562404
1.84,184,-0.011,-1.048,-0.104,2.9220857999999996,3.0366774,-5.2712136,77.01701435999998,0.1718874,-28.8484353
1.85,185,-0.125,-1.163,-0.302,5.2139178,19.5378678,-8.7089616,77.06858058,0.29220857999999994,-28.6765479
1.86,186,-0.287,-1.181,-0.282,9.453807000000001,31.8564648,-12.4331886,77.16025386,0.47555514,-28.395798480000003
1.87,187,-0.403,-1.079,-0.235,6.703608600000001,29.67922440000001,-11.2872726,77.22327924,0.5786875800000001,-28.132237800000002
1.8800000000000001,188,-0.417,-0.927,-0.228,4.1252976000000015,21.199446,-8.021412000000002,77.26911588,0.69327918,-27.94316166
1.8900000000000001,189,-0.303,-0.794,-0.251,4.6409598,16.615782,-5.042030400000002,77.31495251999998,0.7792228800000001,-27.788463
1.9000000000000001,190,-0.188,-0.665,-0.237,0.3437748,13.8082878,-2.3491278,77.3206821,0.8250595199999999,-27.66241224
1.9100000000000001,191,-0.105,-0.57,-0.194,-6.3598338,11.745639,-1.8907613999999997,77.25192713999998,0.86516658,-27.55355022
1.9200000000000002,192,-0.002,-0.5379999999999999,-0.188,-11.8602306,13.407217200000002,-5.0993262,77.12587638,0.9453806999999999,-27.433229040000004
1.93,193,0.121,-0.594,-0.168,-14.8396122,18.2773602,-11.172681,76.97117771999999,1.0886202,-27.28425996
1.94,194,0.16899999999999998,-0.772,-0.138,-16.7303736,28.991674800000002,-18.6784308,76.80501989999998,1.32353298,-27.043617600000005
1.95,195,0.14300000000000002,-1.016,-0.121,-19.480572,36.955791,-23.8923486,76.61021418,1.6272007199999998,-26.73994986000001
1.96,196,0.091,-1.328,-0.14400000000000002,-25.210152,42.05511720000001,-23.5485738,76.35811265999997,1.93659804,-26.39044548
1.97,197,-0.002,-1.616,-0.171,-28.991674800000002,44.8626114,-15.5844576,76.07736324,2.1772404,-25.99510446
1.98,198,-0.094,-1.742,-0.13,-27.1009134,47.7274014,-3.380452200000001,75.80807297999998,2.30902074,-25.54819722
1.99,199,-0.119,-1.737,-0.171,-22.7464326,51.56622,9.3965112,75.59607852,2.32620948,-25.02680544
2.0,200,-0.08,-1.662,-0.189,-19.1367972,53.22779820000001,21.3140376,75.41273196,2.24026578,-24.4653066
2.01,201,-0.001,-1.601,-0.147,-14.9542038,52.54024860000001,30.7105488,75.28095162,2.05691922,-23.88088944
2.02,202,0.076,-1.604,-0.131,-12.261301199999998,44.5761324,35.4088044,75.17208959999998,1.81627686,-23.36522724000001
2.03,203,0.16699999999999998,-1.646,-0.056,-8.59437,33.231564,38.1590028,75.09187548,1.52406828,-22.946967899999997
2.04,204,0.263,-1.671,-0.004,-12.0894138,19.938938399999998,39.47680620000001,74.97155430000002,1.19175264,-22.654759320000004
2.05,205,0.336,-1.6909999999999998,0.052000000000000005,-15.9282324,5.844171599999999,39.9924684,74.81685564,0.8193299399999999,-22.50006066
2.0599999999999996,206,0.397,-1.7380000000000002,0.114,-16.329303,-9.0527364,39.820581,74.65069782,0.41252976,-22.48287192
2.07,207,0.383,-1.749,0.146,-16.558486199999994,-24.2361234,38.4454818,74.49026957999997,0.0,-22.62038184
2.0799999999999996,208,0.338,-1.639,0.151,-13.521808800000002,-36.4974246,36.32553720000001,74.35848924,-0.44117766,-22.87248336
2.09,209,0.255,-1.494,0.117,-8.7662574,-47.0398518,31.340802600000004,74.2840047,-0.8537074199999999,-23.24490606
2.0999999999999996,210,0.156,-1.37,0.033,-8.9381448,-56.3217714,24.9809688,74.20952016,-1.2318597,-23.720461199999995
2.11,211,0.031,-1.278,-0.029,-15.756345000000001,-61.592985,19.0222056,74.07201024000003,-1.56417534,-24.25904172
2.1199999999999997,212,-0.073,-1.153,-0.107,-21.772404,-65.14532460000001,13.6364004,73.88866368000002,-1.8621135,-24.84918846
2.13,213,-0.193,-0.986,-0.135,-12.4904844,-65.317212,10.8289062,73.79126082,-2.13140376,-25.44506478
2.1399999999999997,214,-0.302,-0.857,-0.14300000000000002,-1.6615782,-61.4210976,9.224623800000002,73.80271998,-2.37204612,-26.00656362
2.15,215,-0.353,-0.722,-0.161,8.4224826,-53.1705024,8.136003599999999,73.91731158,-2.58404058,-26.49357792
2.1599999999999997,216,-0.315,-0.598,-0.14400000000000002,18.2773602,-45.1490904,5.5003968,74.12930604,-2.74446882,-26.91183726
2.17,217,-0.248,-0.449,-0.06,32.486718599999996,-38.10170700000001,2.1199446,74.49026957999997,-2.87051958,-27.26707122
2.1799999999999997,218,-0.17800000000000002,-0.334,0.097,45.206386200000004,-30.8824362,1.145916,74.96582472,-2.9507337,-27.559279799999995
2.19,219,-0.126,-0.228,0.223,46.6387812,-35.8671708,4.9847345999999995,75.46429817999999,-3.07105488,-27.891595440000003
2.1999999999999997,220,-0.095,-0.115,0.265,43.4302164,-50.5921914,9.797581800000001,75.93412373999998,-3.27159018,-28.34996184
2.21,221,-0.069,-0.036000000000000004,0.196,44.0031744,-65.2599162,11.516455800000001,76.42686762000002,-3.51796212,-28.95156774
2.2199999999999998,222,-0.029,-0.03,0.062,43.3156248,-72.5937786,6.990087599999999,76.9196115,-3.7299565800000014,-29.63338776
2.23,223,0.006999999999999999,-0.033,-0.086,41.7113424,-67.83822719999999,-2.291832,77.39516663999999,-3.83308902,-30.298019040000003
2.2399999999999998,224,0.018000000000000002,-0.023,-0.117,39.591397799999996,-56.66554620000001,-13.8655836,77.84207388,-3.79871154,-30.87097704
2.25,225,-0.001,-0.016,-0.086,34.262888399999994,-42.34159620000001,-25.84040580000001,78.22595574,-3.62109456,-31.33507302000001
2.26,226,-0.043,0.018000000000000002,-0.055,26.8717302,-20.05353,-32.31483119999999,78.51816432000003,-3.34034514,-31.592904120000004
2.27,227,-0.094,0.012,-0.066,22.5745452,-2.7501984,-30.1375908,78.73588836,-3.0653253000000005,-31.67311824
2.28,228,-0.108,-0.11,-0.243,14.5531332,7.7922288,-19.7097552,78.88485744,-2.85333084,-31.63301118
2.29,229,-0.193,-0.35100000000000003,-0.698,8.9381448,-1.5469866,1.2605076000000002,78.97653072,-2.87051958,-31.64447034
2.3,230,-0.221,-0.61,-0.831,9.9121734,-20.6837838,26.929026,79.08539274,-3.1627281600000003,-31.79343942000001
2.31,231,-0.062,-0.887,-0.5479999999999999,17.8762896,-27.6738714,48.0138804,79.28592804,-3.67839036,-31.97678598
2.32,232,0.14400000000000002,-1.348,-0.361,19.767051,-13.120738199999998,59.0719698,79.48646334,-4.2685371,-31.99397472
2.3299999999999996,233,0.091,-1.668,-0.198,15.469866,4.010706000000001,58.78549079999999,79.63543242,-4.83003594,-31.85073522
2.34,234,-0.214,-1.6569999999999998,-0.031,-1.0886202,27.6738714,40.5654264,79.58959578,-5.1852699,-31.506960419999995
2.3499999999999996,235,-0.5379999999999999,-1.619,-0.08800000000000001,-2.7501984,34.37748,27.9603504,79.52084082,-5.40872352,-31.123078560000003
2.36,236,-0.6679999999999999,-1.6880000000000002,-0.242,4.7555514,26.0122932,22.631841,79.53802956,-5.59207008,-30.8251404
2.3699999999999997,237,-0.575,-1.809,-0.363,4.297185,20.5691922,16.386598799999998,79.55521829999998,-5.72385042,-30.59022762
2.38,238,-0.341,-1.812,-0.278,9.9121734,26.929026,12.7769634,79.62397326,-5.80406454,-30.30374862
2.3899999999999997,239,-0.14400000000000002,-1.865,-0.156,16.8449652,39.47680620000001,7.9641161999999985,79.75002402,-5.82125328,-29.902678020000003
2.4,240,-0.002,-1.885,-0.083,11.3445684,48.4722468,3.6096354,79.80731982,-5.7868758,-29.415663720000005
2.4099999999999997,241,0.059,-1.883,-0.018000000000000002,4.9274388,52.8840234,0.8594370000000001,79.80159024000002,-5.71239126,-28.89427194
2.42,242,0.025,-1.905,0.042,-2.6929026,54.43101,-4.4117766,79.71564654,-5.5863405,-28.36715058
2.4299999999999997,243,-0.071,-1.883,0.08199999999999999,-4.7555514,55.40503860000001,-10.7143146,79.6125141,-5.40299394,-27.84575880000001
2.44,244,-0.198,-1.831,0.121,-0.4010706,59.4730404,-17.475219,79.54948872,-5.13943326,-27.28998954
2.4499999999999997,245,-0.298,-1.783,0.16,0.6302538000000001,63.311859,-23.4339822,79.4979225,-4.812847199999998,-26.71130196
2.46,246,-0.322,-1.673,0.147,-1.0886202,67.322565,-27.3300966,79.42343796,-4.4404245000000016,-26.103966480000004
2.4699999999999998,247,-0.262,-1.547,0.118,-0.572958,72.07811640000001,-28.304125199999998,79.37187173999997,-4.05654264,-25.45079436
2.48,248,-0.171,-1.439,0.065,-2.0053530000000004,77.23473840000003,-26.298772200000002,79.29165762,-3.67839036,-24.74032644
2.4899999999999998,249,-0.05,-1.345,0.028,-2.9793816000000004,80.5578948,-22.058883,79.20571392,-3.34034514,-23.99548104
2.5,250,0.026,-1.236,0.014,-0.4010706,79.6984578,-15.756345000000001,79.14841812,-3.05959572,-23.24490606
2.51,251,0.13699999999999998,-1.114,-0.028,8.3651868,75.2293854,-11.172681,79.18279559999998,-2.83041252,-22.52870856
2.52,252,0.16899999999999998,-0.976,-0.101,21.8869956,69.041439,-8.8235532,79.36614216000002,-2.6069589,-21.86980686
2.53,253,0.163,-0.8079999999999999,-0.132,37.8725238,62.2805346,-7.448453999999999,79.71564654,-2.4350715000000003,-21.26820096
2.54,254,0.14,-0.63,-0.139,50.3057124,56.3790672,-7.9641161999999985,80.19693126,-2.26891368,-20.72389086
2.55,255,0.11,-0.454,-0.121,59.4157446,51.0505578,-9.224623800000002,80.77561884,-2.10275586,-20.23687656
2.56,256,0.112,-0.297,0.011,65.317212,44.5761324,-10.026765,81.4173318,-1.94232762,-19.80715806
2.57,257,0.15,-0.173,0.131,59.1292656,37.757932200000006,-8.8235532,82.01320812,-1.7933585399999998,-19.44046494
2.5799999999999996,258,0.18600000000000005,-0.095,0.173,43.0291458,32.830493399999995,-4.5263682,82.43719704,-1.7074148399999998,-19.11960846
2.59,259,0.198,-0.038,0.138,29.7365202,30.5386614,4.9847345999999995,82.72940562,-1.7246035799999997,-18.81021114
2.5999999999999996,260,0.189,0.011,-0.036000000000000004,25.7258142,23.0902074,18.2773602,82.97577756,-1.87930224,-18.55810962
2.61,261,0.115,0.03,-0.16399999999999998,31.054323600000004,4.6982556,32.257535399999995,83.29090446000002,-2.18869956,-18.47216592
2.6199999999999997,262,0.061,0.039,-0.155,36.7266078,-16.7876694,42.34159620000001,83.65186800000002,-2.61268848,-18.58102794
2.63,263,0.031,0.036000000000000004,-0.132,37.4714532,-31.51269000000001,43.0864416,84.05293859999998,-3.05959572,-18.844588620000003
2.6399999999999997,264,0.059,0.019,-0.099,33.403451399999994,-35.122325399999994,32.257535399999995,84.41390214,-3.40337052,-19.15971552
2.65,265,0.113,0.024,-0.018000000000000002,24.0069402,-26.9863218,10.026765,84.67746281999997,-3.51796212,-19.41181704
2.6599999999999997,266,0.134,0.004,-0.031,14.32395,-12.3758928,-11.0580894,84.83216148,-3.4148296799999995,-19.54359738
2.67,267,0.043,-0.111,-0.212,7.2192707999999985,-6.6463128000000005,-30.8824362,84.8837277,-3.11116194,-19.629541080000006
2.6799999999999997,268,-0.114,-0.316,-0.473,-1.5469866,-4.0680017999999984,-53.22779820000001,84.87226854000002,-2.58977016,-19.72121436
2.69,269,-0.23,-0.594,-0.737,-9.8548776,20.626488,-78.38065440000003,84.76340652,-1.8048176999999999,-19.58370444
2.6999999999999997,270,-0.422,-0.965,-0.7340000000000001,-2.9220857999999996,54.94667220000001,-99.0071424,84.71184029999998,-0.7906820400000001,-19.13106762
2.71,271,-0.55,-1.48,-0.529,-2.2345362,52.19647379999999,-104.2210602,84.67746281999997,0.26929026,-18.7070787
2.7199999999999998,272,-0.405,-1.874,-0.39,-13.464512999999998,16.386598799999998,-87.31879920000002,84.5399529,1.14018642,-18.62686458
2.73,273,0.263,-1.928,-0.07200000000000001,-11.6310474,2.9220857999999996,-45.3209778,84.41963172,1.59282324,-18.63832374
2.7399999999999998,274,0.779,-1.934,-0.077,-11.8029348,4.583664,-12.261301199999998,84.29931054,1.71314442,-18.60967584
2.75,275,0.988,-1.852,-0.105,4.9847345999999995,5.0993262,6.4744254,84.35087675999998,1.6558486199999998,-18.54665046
2.76,276,0.828,-1.778,-0.208,12.891555,-2.578311,12.4904844,84.4826571,1.52979786,-18.5638392
2.77,277,0.516,-1.822,-0.154,9.9121734,-21.2567418,5.5576926,84.58005996,1.46677248,-18.7643745
2.78,278,0.187,-1.974,-0.006,7.0473834,-39.820581,-9.0527364,84.64881491999998,1.52979786,-19.165445100000003
2.79,279,-0.063,-2.076,0.069,-7.2192707999999985,-49.560867,-22.631841,84.56860079999998,1.7188740000000002,-19.67537772
2.8,280,-0.256,-2.04,0.11,-22.058883,-50.24841660000001,-28.934379,84.33368802,1.97097552,-20.20249908
2.81,281,-0.363,-1.975,0.118,-32.7731976,-45.550161,-24.5226024,83.98418364,2.1772404,-20.67805422
2.82,282,-0.337,-1.903,0.084,-35.0077338,-40.8519054,-12.834259199999998,83.62322009999998,2.2631841,-21.09631356
2.8299999999999996,283,-0.196,-1.864,0.115,-28.4187168,-39.47680620000001,1.7188740000000002,83.32528194,2.21161788,-21.49165458
2.84,284,0.015,-1.809,0.122,-24.1788276,-40.393539,18.1054728,83.06745083999998,1.99389384,-21.86980686
2.8499999999999996,285,0.202,-1.69,0.091,-16.7876694,-46.1804148,32.658606,82.88983386,1.6272007199999998,-22.2880662
2.86,286,0.309,-1.539,0.075,-10.8289062,-53.8007562,42.62807520000001,82.78097184,1.15164558,-22.76362134
2.8699999999999997,287,0.315,-1.357,0.009000000000000001,-6.3598338,-61.6502808,48.5868384,82.71794646,0.62452422,-23.31366102
2.88,288,0.223,-1.211,-0.053,-5.5003968,-66.5777196,48.0711762,82.67210982,0.0859437,-23.90953734
2.8899999999999997,289,0.099,-1.025,-0.08199999999999999,0.8594370000000001,-70.87490460000002,40.966497,82.68929856,-0.38388186,-24.55697988
2.9,290,-0.055,-0.872,-0.117,15.126091199999998,-72.88025760000002,32.257535399999995,82.86118596,-0.76776372,-25.23307032
2.9099999999999997,291,-0.145,-0.726,-0.16,32.7159018,-74.5418358,25.1528562,83.21641991999998,-1.08289062,-25.93207908
2.92,292,-0.215,-0.579,-0.098,45.0344988,-72.88025760000002,20.2254174,83.69770464000001,-1.3579104599999998,-26.62535826
2.9299999999999997,293,-0.249,-0.441,0.006,52.19647379999999,-69.55710119999999,16.386598799999998,84.25347389999997,-1.56990492,-27.28998954
2.94,294,-0.27,-0.307,0.128,54.3164184,-64.22859179999999,12.0894138,84.83216148,-1.7246035799999997,-27.903054600000004
2.9499999999999997,295,-0.312,-0.194,0.207,47.3836266,-56.5509546,7.2765666,85.33636451999998,-1.82773602,-28.45309428
2.96,296,-0.341,-0.076,0.188,35.122325399999994,-50.993262,1.0313244,85.7145168,-1.8621135,-28.95156774
2.9699999999999998,297,-0.34700000000000003,0.047,0.093,27.9603504,-48.70143,-8.8235532,86.02391412,-1.82200644,-29.43858204
2.98,298,-0.29100000000000004,0.117,0.042,31.3980984,-44.6334282,-20.340009,86.36195934,-1.6329303,-29.88548928
2.9899999999999998,299,-0.189,0.11,0.012,35.809875,-37.757932200000006,-32.142943800000005,86.7458412,-1.32353298,-30.27510072
3.0,300,-0.064,0.087,-0.045,34.3201842,-26.69984280000001,-41.8832298,87.10107516000002,-0.91100322,-30.55585014
3.01,301,0.04,0.071,-0.104,31.971056400000002,-14.0947668,-45.1490904,87.42766122,-0.46409598,-30.710548800000005
3.02,302,0.049,0.059,-0.125,30.1375908,-4.0680017999999984,-41.023792799999995,87.71414021999998,-0.05156622,-30.76211502
3.03,303,-0.004,0.048,-0.061,27.1582092,3.0366774,-32.8877892,87.98916005999996,0.27501984,-30.7391967
3.04,304,-0.08800000000000001,0.03,-0.055,25.1528562,9.5111028,-23.2620948,88.24699116,0.5099326200000001,-30.65325300000001
3.05,305,-0.129,-0.049,-0.101,23.491278,19.767051,-11.745639,88.48190394,0.62452422,-30.45844728
3.06,306,-0.08800000000000001,-0.205,-0.202,17.0741484,36.5547204,-0.7448454000000001,88.65379134000001,0.63598338,-30.09175416
3.07,307,-0.047,-0.5,-0.5329999999999999,5.042030400000002,46.5814854,15.6990492,88.60222512,0.46982556,-29.621928600000004
3.08,308,-0.083,-0.982,-1.08,-23.3193906,4.7555514,46.8106686,88.36731234,0.0,-29.5646328
3.09,309,0.11,-1.4580000000000002,-1.319,-40.164355799999996,-70.9894962,87.8917572,87.9777009,-0.87089616,-30.24645282
3.0999999999999996,310,0.552,-1.996,-0.64,-0.9740286,-80.44330319999997,113.21650079999999,87.99488964000004,-1.99962342,-31.00848696
3.11,311,0.5770000000000001,-2.289,-0.012,67.609044,-16.959556799999998,91.5013926,88.69389840000002,-2.90489706,-31.1402673
3.1199999999999997,312,-0.16699999999999998,-2.241,0.042,-14.896907999999998,8.021412000000002,43.3729206,88.53347016000002,-3.34034514,-31.054323600000004
3.13,313,-0.825,-1.928,-0.08199999999999999,-34.0337052,20.2827132,6.589017,88.17823620000001,-3.4091001000000003,-30.85951788
3.1399999999999997,314,-1.094,-2.056,-0.21600000000000005,0.3437748,21.2567418,-0.1718874,88.16104745999998,-3.40337052,-30.64752342
3.15,315,-0.8240000000000001,-2.18,-0.379,-3.4950437999999995,12.891555,11.917526400000002,88.12094040000002,-3.5236917,-30.51574308
3.1599999999999997,316,-0.373,-2.197,-0.223,19.767051,24.2361234,25.84040580000001,88.29855738,-3.77579322,-30.263641560000003
3.17,317,-0.048,-2.103,0.026,39.591397799999996,50.1911208,32.945085,88.65952092,-4.102379279999999,-29.75370894
3.1799999999999997,318,0.062,-1.936,0.153,29.2781538,66.176649,30.7105488,88.90016328,-4.40604702,-29.08907766
3.19,319,0.071,-1.7480000000000002,0.184,15.126091199999998,71.44786260000002,23.032911600000002,88.99183656,-4.6409598,-28.37860974
3.1999999999999997,320,0.012,-1.632,0.18,6.4744254,71.1040878,12.834259199999998,88.98610698,-4.77846972,-27.66814182
3.21,321,-0.095,-1.5630000000000002,0.163,5.6149884000000005,69.55710119999999,3.6096354,88.98037740000002,-4.81857678,-26.974862640000005
3.2199999999999998,322,-0.211,-1.5,0.157,12.7769634,70.07276340000001,-4.8128472,89.04340278,-4.77846972,-26.28158346
3.23,323,-0.285,-1.44,0.199,20.8556712,72.3645954,-9.969469199999999,89.18664228,-4.68679644,-25.56538596
3.2399999999999998,324,-0.315,-1.349,0.219,20.9702628,78.03687959999998,-12.7196676,89.32988178,-4.57220484,-24.78616308
3.25,325,-0.29100000000000004,-1.212,0.177,20.798375399999998,86.68854540000002,-11.917526400000002,89.46166212,-4.46334282,-23.92672608
3.26,326,-0.217,-1.086,0.182,25.1528562,95.683986,-7.906820400000001,89.62781994000002,-4.40604702,-22.9756158
3.27,327,-0.091,-0.963,0.17800000000000002,28.1322378,100.7833122,-2.6929026,89.83408482,-4.39458786,-21.9729393
3.28,328,0.046,-0.8109999999999999,0.156,33.2888598,99.121734,0.9740286,90.08618634,-4.42896534,-20.98745154
3.29,329,0.165,-0.7040000000000001,0.107,35.9244666,90.06899759999996,2.6356068,90.36693576,-4.48053156,-20.09363706
3.3,330,0.271,-0.57,0.046,41.7113424,73.10944079999999,2.1772404,90.7278993,-4.5263682,-19.36025082
3.31,331,0.338,-0.456,0.056,49.847346,61.9367598,1.2032118,91.17480654,-4.56074568,-18.74145618
3.32,332,0.396,-0.3720000000000001,0.107,55.3477428,51.9672906,0.6875496,91.69619832,-4.5550161000000005,-18.2200644
3.33,333,0.43,-0.315,0.126,55.748813399999996,40.5654264,4.0680017999999984,92.22331968,-4.6180414800000005,-17.81326422
3.34,334,0.4370000000000001,-0.241,0.071,51.9672906,25.9549974,12.032117999999999,92.72752272,-4.749821819999998,-17.55543312
3.3499999999999996,335,0.43,-0.174,0.037000000000000005,50.47759979999999,9.797581800000001,23.2620948,93.23172576,-4.9847346,-17.46948942
3.36,336,0.429,-0.095,0.006,51.5089242,-1.3750992,34.7212548,93.75884712,-5.32277982,-17.498137319999998
3.3699999999999997,337,0.448,-0.035,-0.053,51.852699,-1.7188740000000002,43.544808,94.2802389,-5.71239126,-17.538244380000002
3.38,338,0.385,0.012,-0.175,48.9306132,0.9740286,47.555514,94.77871236,-6.17648724,-17.561162699999993
3.3899999999999997,339,0.215,0.049,-0.212,44.404245,-4.6409598,48.2430636,95.24280834,-6.6463128,-17.647106400000006
3.4,340,0.031,0.094,-0.183,37.9871154,-15.3552744,50.5921914,95.6553381,-7.12759752,-17.84191212
3.4099999999999997,341,-0.083,0.129,-0.077,34.262888399999994,-22.0015872,53.9726436,96.03921996,-7.63180056,-18.11120238
3.42,342,-0.097,0.157,0.006,29.5646328,-22.86102420000001,55.5196302,96.38872434,-8.158921920000001,-18.39768138
3.4299999999999997,343,-0.064,0.198,0.048,24.5226024,-20.6837838,52.6548402,96.68093292,-8.64593622,-18.66124206
3.44,344,-0.033,0.188,0.073,19.938938399999998,-20.5691922,43.831287,96.92730486,-9.04700682,-18.91334358
3.4499999999999997,345,-0.052000000000000005,0.08900000000000001,0.06,15.2406828,-21.829699800000004,31.111619399999995,97.12211058,-9.32202666,-19.17117468
3.46,346,-0.08199999999999999,-0.168,-0.126,8.59437,-21.3713334,14.5531332,97.25389092,-9.43088868,-19.40035788
3.4699999999999998,347,-0.12,-0.774,-0.503,-22.631841,-7.3911582,-16.2147114,96.99605982,-9.25900128,-19.44619452
3.48,348,-0.128,-1.416,-1.653,-134.4732426,86.34477059999998,-73.6823988,95.47199154,-8.65739538,-18.52373214
3.4899999999999998,349,-0.958,-2.274,-1.992,-119.8055178,187.01349119999998,-137.3380326,93.95365284,-7.505749800000001,-16.56421578
3.5,350,-1.538,-2.9410000000000003,-0.591,12.4331886,134.5878342,-150.4587708,93.88489788,-6.13638018,-15.131820780000002
3.51,351,-1.2819999999999998,-2.481,0.5429999999999999,58.0406454,56.66554620000001,-93.4494498,94.40628966,-5.2654840200000015,-14.49010782
3.52,352,0.16699999999999998,-2.1180000000000003,0.171,-34.262888399999994,55.40503860000001,-37.1276784,93.9937599,-4.95035712,-13.91714982
3.53,353,0.684,-1.862,-0.242,8.250595200000001,76.77637200000002,13.2353298,94.00521906,-5.15089242,-13.16657484
3.54,354,0.657,-2.1,-0.305,54.20182679999999,91.7878716,29.0489706,94.45785588,-5.5290447,-12.278489939999998
3.55,355,0.579,-2.282,-0.303,35.17962120000001,93.105675,14.32395,94.71568698,-5.76968706,-11.36748672
3.56,356,0.489,-2.326,-0.258,9.167328,77.17744259999998,-18.334656,94.71568698,-5.6722842,-10.58826384
3.57,357,0.21600000000000005,-2.186,-0.245,-3.8961144,62.051351399999994,-45.0344988,94.60682496,-5.28840234,-9.93509172
3.58,358,-0.014,-1.991,-0.198,-19.5378678,58.38442020000001,-54.889376399999996,94.34326428,-4.80711762,-9.31629708
3.59,359,-0.16899999999999998,-1.864,-0.113,-29.220858000000003,60.44706899999999,-51.5089242,93.98803032,-4.36021038,-8.68604328
3.5999999999999996,360,-0.321,-1.713,-0.066,-28.0176462,68.6403684,-38.27359439999999,93.63852594,-4.04508348,-7.987034519999999
3.61,361,-0.423,-1.6669999999999998,-0.029,-20.1108258,84.797784,-20.626488,93.3635061,-3.9190327200000006,-7.13905668
3.6199999999999997,362,-0.481,-1.644,0.022,-16.615782,102.273003,-4.1825934,93.11140458,-3.97059894,-6.12492102
3.63,363,-0.405,-1.612,0.041,-15.6990492,118.2585312,9.0527364,92.85357348,-4.1539455,-4.96754586
3.6399999999999997,364,-0.232,-1.548,0.056,-11.917526400000002,131.0354946,15.3552744,92.6186607,-4.40604702,-3.67839036
3.65,365,-0.107,-1.474,0.085,-3.6096354,137.6245116,17.0168526,92.45823246,-4.669607699999999,-2.32620948
3.6599999999999997,366,-0.038,-1.3530000000000002,0.073,6.760904399999999,140.947668,19.0795014,92.3894775,-4.9560867,-0.93965112
3.67,367,0.02,-1.213,0.056,18.162768600000003,147.823164,22.9756158,92.42958456,-5.2826727600000005,0.5099326200000001
3.6799999999999997,368,0.019,-1.008,0.069,23.835052800000003,155.6726886,28.5333084,92.5040691,-5.6722842,2.04546006
3.69,369,-0.017,-0.836,0.039,31.8564648,168.9080184,32.6013102,92.63584944,-6.113461859999999,3.70703826
3.6999999999999997,370,-0.048,-0.74,0.101,37.3568616,181.9714608,32.31483119999999,92.7905481,-6.566098679999999,5.5003968
3.71,371,-0.071,-0.6759999999999999,0.146,32.4294228,189.4772106,28.7051958,92.8764918,-6.990087599999999,7.36823988
3.7199999999999998,372,-0.085,-0.603,0.172,25.84040580000001,196.0662276,24.5798982,92.8764918,-7.385428619999999,9.30483792
3.73,373,-0.093,-0.539,0.222,23.14750320000001,200.1342294,18.7357266,92.82492558,-7.72347384,11.2872726
3.7399999999999998,374,-0.076,-0.51,0.247,23.2620948,198.9310176,11.1153852,92.7619002,-7.9813049399999985,13.263977700000002
3.75,375,-0.016,-0.431,0.16399999999999998,23.6631654,197.0402562,6.589017,92.69887482,-8.193299399999999,15.223494059999998
3.76,376,0.063,-0.376,0.086,28.0176462,191.4252678,4.6409598,92.68741566,-8.382375540000002,17.131444199999994
3.77,377,0.155,-0.31,0.043,32.658606,179.16396659999995,4.8128472,92.72752272,-8.542803780000002,18.92480274
3.78,378,0.252,-0.256,-0.023,36.2682414,164.26705859999996,7.1046792000000005,92.83065516000002,-8.73187992,20.56346262
3.79,379,0.289,-0.208,-0.119,35.0650296,148.7398968,11.745639,92.93951718,-8.96106312,22.04169426
3.8,380,0.242,-0.165,-0.154,32.658606,132.41059380000002,18.2200644,93.04264962,-9.24754212,23.35949766
3.81,381,0.149,-0.121,-0.166,29.2781538,120.2065884,24.0069402,93.1343229,-9.57985776,24.54552072
3.82,382,0.059,-0.045,-0.141,27.6165756,116.1385866,25.9549974,93.18588912,-9.92363256,25.70289588
3.83,383,-0.041,0.042,-0.087,27.1009134,118.88878500000001,22.91832,93.23745534,-10.25021862,26.87745978
3.84,384,-0.151,0.107,-0.028,25.1528562,125.3059146,15.5844576,93.25464408,-10.50804972,28.12650822
3.8499999999999996,385,-0.221,0.139,0.039,22.2307704,136.1921166,6.3598338,93.20880744,-10.679937120000002,29.49014826
3.86,386,-0.231,0.163,0.114,17.131444199999994,150.97443299999995,-2.9793816000000004,93.08275668,-10.77733998,31.00848696
3.8699999999999997,387,-0.205,0.145,0.16899999999999998,9.8548776,161.6314518,-12.834259199999998,92.87076222,-10.78879914,32.635687680000004
3.88,388,-0.107,0.067,0.175,1.6615782,177.1013178,-22.8037284,92.52698742,-10.69712586,34.42331664
3.8899999999999997,389,0.316,-0.214,0.062,-3.380452200000001,223.6255074,-26.356068,92.0457027,-10.58253426,36.68077116
3.9,390,0.466,-0.936,-0.339,-24.2361234,221.161788,-8.9954406,91.36388268,-10.62264132,38.89811862
3.9099999999999997,391,0.411,-1.914,-1.35,-111.6695142,116.7115446,41.4821592,90.00024264,-11.09246688,40.05549378
3.92,392,1.027,-2.92,-1.551,-123.0713784,15.2406828,127.0247886,88.71681672,-12.36443364,40.21019244
3.9299999999999997,393,1.128,-2.047,0.117,105.137793,59.30115299999999,130.9781988,89.63354952,-13.6650483,40.84617582
3.94,394,-0.032,-2.093,0.481,73.45321560000002,101.127087,71.7343416,90.11483424,-14.39843454,41.883229799999995
3.9499999999999997,395,-0.923,-1.941,-0.006999999999999999,27.1009134,136.364004,14.4385416,90.02316096,-14.5817811,43.28124732
3.96,396,-1.361,-1.6569999999999998,0.093,26.8717302,161.23038119999995,-26.642547,89.85700313999996,-14.3525979,44.92563678000001
3.9699999999999998,397,-1.216,-1.641,0.117,20.798375399999998,185.5238004,-40.2216516,89.5819833,-13.99736394,46.82212776
3.98,398,-0.785,-2.003,-0.006,22.2880662,201.6239202,-24.8663772,89.28977472,-13.78536948,48.8733174
3.9899999999999998,399,-0.325,-2.253,0.024,28.304125199999998,221.04719640000002,2.2345362,89.00902529999998,-13.836935700000002,51.12504234
4.0,400,0.004,-2.195,0.183,37.1849742,238.86619019999998,20.511896399999998,88.76838294000002,-14.05465974,53.56584342
4.01,401,0.146,-2.041,0.165,27.3873924,257.6019168,32.257535399999995,88.36158276,-14.381245800000002,56.20717980000001
4.02,402,0.209,-1.952,0.154,21.0848544,262.5866514,30.4813656,87.86883888,-14.66199522,58.9000824
4.03,403,0.2,-1.921,0.239,19.4232762,259.09160760000003,16.501190400000002,87.35317668,-14.78804598,61.55860752
4.04,404,0.223,-1.932,0.354,13.0061466,250.32535019999997,-1.8907613999999997,86.80313699999998,-14.71356144,64.11400019999999
4.05,405,0.287,-1.945,0.36,-1.3178034,240.98613480000003,-14.667724800000002,86.13850572,-14.49010782,66.56626044
4.06,406,0.325,-1.849,0.28300000000000003,-8.9381448,235.0273716,-15.3552744,85.42230822,-14.22654714,68.94976572
4.07,407,0.295,-1.664,0.202,-7.333862400000001,233.6522724,-6.760904399999999,84.74621778000002,-14.020282259999998,71.32181184
4.08,408,0.2,-1.475,0.185,-1.9480572,236.11599180000002,4.2398892,84.11023440000002,-13.89996108,73.72250586
4.09,409,0.13,-1.35,0.209,7.2192707999999985,242.1893466,17.303331600000003,83.56019472,-13.87704276,76.20341400000002
4.1,410,0.097,-1.256,0.26,15.126091199999998,245.512503,24.9809688,83.07318042,-13.90569066,78.7244292
4.109999999999999,411,0.113,-1.117,0.299,17.8762896,247.5751518,28.1895336,82.60908443999998,-13.945797720000002,81.26836272
4.12,412,0.16899999999999998,-0.974,0.264,21.9442914,246.37194,26.69984280000001,82.20228426,-13.93433856,83.80083708
4.13,413,0.203,-0.88,0.22,24.2361234,240.4704726,23.8923486,81.82413198,-13.90569066,86.27028606
4.14,414,0.243,-0.773,0.199,23.204799,233.99604720000002,21.5432208,81.45170928,-13.84266528,88.67098008
4.1499999999999995,415,0.278,-0.653,0.147,26.2414764,225.8027478,19.938938399999998,81.13658238,-13.75672158,90.9857304
4.16,416,0.279,-0.5529999999999999,0.122,31.3980984,218.12511060000003,16.501190400000002,80.89594002,-13.642129979999998,93.21453702
4.17,417,0.287,-0.483,0.13699999999999998,35.4088044,211.0777272,12.032117999999999,80.73551178,-13.45878342,95.36312952
4.18,418,0.292,-0.422,0.18600000000000005,33.9191136,206.837838,10.599723,80.56935396,-13.281166440000002,97.46588538
4.1899999999999995,419,0.271,-0.365,0.183,34.3201842,203.0563152,11.8029348,80.42038488,-13.120738199999998,99.53426376
4.2,420,0.235,-0.284,0.189,36.2682414,201.16555380000003,14.7250206,80.29433412,-12.98322828,101.57972382
4.21,421,0.205,-0.193,0.18,37.9871154,198.5872428,19.8816426,80.20266084,-12.89728458,103.61372472
4.22,422,0.179,-0.115,0.14800000000000002,38.8465524,194.1754662,25.6685184,80.13963546,-12.85144794,105.60761856
4.2299999999999995,423,0.14,-0.063,0.119,38.961144,188.4458862,31.22621100000001,80.07661008,-12.88582542,107.55567576
4.24,424,0.098,-0.029,0.119,39.19032720000001,182.8881936,35.809875,80.02504386000003,-12.97176912,109.45789632
4.25,425,0.053,-0.009000000000000001,0.129,39.877876799999996,177.1013178,39.3049188,79.9849368,-13.0920903,111.30855066
4.26,426,0.026,0.002,0.132,39.4195104,175.7835144,40.7946096,79.94482974,-13.2353298,113.14774584
4.27,427,0.009000000000000001,-0.003,0.115,38.90384820000001,176.8148388,40.8519054,79.91045226,-13.372839720000002,114.99840018
4.28,428,-0.013,-0.031,0.145,36.6120162,177.1013178,39.47680620000001,79.82450856,-13.4931609,116.8547841
4.29,429,-0.052000000000000005,-0.113,0.085,27.788463,174.8667816,35.7525792,79.65835074,-13.584834179999998,118.67679054
4.3,430,-0.036000000000000004,-0.261,-0.1,18.7357266,179.5650372,28.4760126,79.38906048,-13.584834179999998,120.53317445999998
4.31,431,0.031,-0.462,-0.251,7.0473834,192.800367,17.131444199999994,78.97080113999998,-13.447324259999998,122.50414998
4.32,432,0.013,-0.738,-0.373,-7.6776372,204.6605976,0.3437748,78.38065440000003,-13.09781988,124.55533962
4.33,433,-0.13,-1.162,-0.511,-23.777757,212.3382348,-19.5378678,77.65299774,-12.53059146,126.62944758
4.34,434,-0.217,-1.624,-0.342,-19.2513888,194.7484242,-32.830493399999995,77.0342031,-11.84304186,128.49156108
4.35,435,-0.18,-1.925,-0.151,-17.8189938,160.6001274,-35.122325399999994,76.53000005999998,-11.18986974,129.99271104
4.36,436,0.051,-1.937,-0.077,-12.891555,145.7605152,-24.923673,76.11747030000002,-10.64555964,131.36781023999998
4.37,437,0.303,-1.823,-0.051,-4.4117766,148.682601,-14.495837400000001,75.80234340000001,-10.18146366,132.79447566
4.38,438,0.441,-1.786,-0.136,4.7555514,154.35488519999996,-7.8495246,75.57316019999998,-9.7689339,134.28416646
4.39,439,0.504,-1.731,-0.233,7.6776372,148.62530519999999,-4.010706000000001,75.38981364,-9.40224078,135.72802062
4.3999999999999995,440,0.485,-1.6569999999999998,-0.18600000000000005,11.0007936,133.1554392,-5.9014674000000005,75.27522203999997,-9.04700682,137.01144654
4.41,441,0.348,-1.7280000000000002,-0.129,14.5531332,116.596953,-13.5791046,75.24084456,-8.651665800000002,138.11725548
4.42,442,0.188,-1.823,-0.039,9.224623800000002,108.3463578,-18.048177,75.17781918,-8.22767688,139.12566156
4.43,443,0.059,-1.858,0.053,1.6042823999999998,99.981171,-18.621135,75.05176842,-7.820876699999999,140.04812394
4.4399999999999995,444,-0.027000000000000003,-1.943,0.138,-0.9740286,91.7878716,-16.4438946,74.91425849999997,-7.45418358,140.89610178
4.45,445,-0.008,-2.022,0.194,-4.4117766,79.6984578,-10.5424272,74.76528942,-7.167704579999999,141.64094717999996
4.46,446,0.084,-2.009,0.233,-8.193299399999999,65.4890994,-0.2291832000000001,74.59340202,-7.01300592,142.27120098
4.47,447,0.203,-1.941,0.224,-11.1153852,53.7434604,12.7196676,74.41578503999997,-7.001546759999999,142.82697024
4.4799999999999995,448,0.28,-1.806,0.18,-12.261301199999998,43.4302164,25.210152,74.22097932,-7.13905668,143.31398454
4.49,449,0.335,-1.642,0.13,-11.9748222,31.627281600000003,35.809875,74.04909192,-7.408346939999999,143.71505513999998
4.5,450,0.321,-1.51,0.073,-7.5630456000000015,25.8977016,41.4821592,73.91731158,-7.74066258,144.07601868
4.51,451,0.29100000000000004,-1.3769999999999998,0.049,-1.0886202,23.835052800000003,44.06047020000001,73.86001578,-8.10162612,144.43125263999997
4.52,452,0.259,-1.253,-0.01,0.3437748,22.2307704,44.2323576,73.83709746000002,-8.42821218,144.76356828
4.53,453,0.2,-1.168,-0.09,0.6875496,20.2827132,41.252976,73.79699040000001,-8.7662574,145.0729656
4.54,454,0.08900000000000001,-1.098,-0.127,0.572958,19.9962342,35.695283399999994,73.75688333999999,-9.05846598,145.36517418
4.55,455,-0.043,-1.01,-0.128,4.1825934,20.2254174,30.4813656,73.75115376,-9.29910834,145.65165317999995
4.56,456,-0.18600000000000005,-0.935,-0.166,9.5111028,20.454600600000006,26.298772200000002,73.80271998,-9.49964364,145.92094344
4.57,457,-0.31,-0.833,-0.16399999999999998,18.2773602,17.18874,21.4286292,73.95741863999999,-9.69444936,146.15012664
4.58,458,-0.338,-0.743,-0.107,25.84040580000001,16.501190400000002,17.3606274,74.18087225999999,-9.82050012,146.36212110000002
4.59,459,-0.285,-0.6729999999999999,-0.03,31.054323600000004,18.1054728,12.5477802,74.46162168000002,-9.89498466,146.57411556
4.6,460,-0.211,-0.5670000000000001,0.028,34.7785506,21.6005166,7.3911582,74.771019,-9.9121734,146.80902834
4.61,461,-0.092,-0.458,0.111,45.263682,25.7258142,2.6929026,75.18354876,-9.87206634,147.06685943999997
4.62,462,0.035,-0.435,0.183,46.352302200000004,26.356068,-3.8961144,75.63045600000002,-9.75747474,147.31896096
4.63,463,0.108,-0.333,0.174,46.5814854,23.491278,-10.0840608,76.06590408,-9.60277608,147.52522584000005
4.64,464,0.147,-0.276,0.109,51.1651494,19.5378678,-17.3606274,76.55864796,-9.39078162,147.68565408
4.6499999999999995,465,0.163,-0.234,0.023,49.274388,15.183387000000002,-25.84040580000001,77.03993267999998,-9.10430262,147.77732736000004
4.66,466,0.155,-0.177,-0.017,49.7327544,17.303331600000003,-30.3094782,77.52694698,-8.77198698,147.88618938
4.67,467,0.127,-0.138,-0.039,50.8786704,24.4080108,-31.3980984,78.00823170000002,-8.39956428,148.06953593999995
4.68,468,0.06,-0.112,-0.052000000000000005,47.555514,33.231564,-30.65325300000001,78.44367978,-8.03860074,148.3388262
4.6899999999999995,469,-0.03,-0.084,-0.042,40.5654264,37.7006364,-28.4187168,78.8103729,-7.6948259399999985,148.65395310000005
4.7,470,-0.14300000000000002,-0.076,-0.077,33.9764094,38.2162986,-25.3820394,79.10258148,-7.385428619999999,148.98626874
4.71,471,-0.238,-0.122,-0.045,32.6013102,41.1383844,-19.0222056,79.3833309,-7.12759752,149.35869144
4.72,472,-0.187,-0.218,-0.06,30.8824362,55.6915176,-11.6310474,79.61824368,-6.94425096,149.89154238
4.7299999999999995,473,-0.132,-0.433,-0.221,22.058883,64.97343719999999,-2.1772404,79.75575359999998,-6.8182002000000015,150.52752575999997
4.74,474,-0.126,-0.6759999999999999,-0.398,3.4950437999999995,62.45242200000001,7.9641161999999985,79.70991696000002,-6.80674104,151.15777956000005
4.75,475,-0.158,-0.927,-0.511,-11.4018642,54.20182679999999,21.9442914,79.52084082,-6.93852138,151.73073756
4.76,476,-0.104,-1.29,-0.535,-11.516455800000001,45.6074568,40.04976420000001,79.33176468,-7.259377859999999,152.25212934
4.77,477,0.02,-1.669,-0.416,-8.7662574,43.3156248,57.00932099999999,79.16560686,-7.746392160000001,152.77925069999995
4.78,478,0.077,-1.843,-0.239,-4.7555514,49.1025006,61.36380179999999,79.02809694,-8.26778394,153.3808566
4.79,479,0.03,-1.894,-0.17600000000000002,-11.0007936,58.8427866,53.1705024,78.8103729,-8.691772859999999,154.05694704
4.8,480,-0.086,-1.841,-0.17,-11.0580894,63.08267579999999,40.6227222,78.58118970000002,-8.98398144,154.76168538
4.81,481,-0.134,-1.7719999999999998,-0.155,-0.8021411999999999,64.11400019999999,23.4339822,78.46086852,-9.10430262,155.43777582
4.82,482,-0.067,-1.705,-0.14800000000000002,3.0366774,68.6403684,8.8235532,78.37492482,-9.06419556,156.131055
4.83,483,-0.005,-1.743,-0.07200000000000001,8.250595200000001,71.8489332,-0.1718874,78.34054734,-8.9381448,156.84152292
4.84,484,0.01,-1.837,0.006,7.161975,72.30729960000002,-6.2452422,78.29471070000002,-8.749068659999999,157.54053168
4.85,485,0.016,-1.881,0.079,-1.8907613999999997,69.8435802,-12.032117999999999,78.16293035999998,-8.51415588,158.20516296
4.86,486,0.025,-1.852,0.096,-8.59437,68.6403684,-16.501190400000002,77.97385421999998,-8.233406460000001,158.84687592
4.87,487,0.001,-1.839,0.122,-9.740286,70.1300592,-19.938938399999998,77.78477808,-7.906820399999999,159.48858888
4.88,488,-0.045,-1.83,0.17,-7.5057497999999985,73.1667366,-22.6891368,77.60716109999998,-7.551586439999999,160.15894974
4.89,489,-0.079,-1.7990000000000002,0.209,-5.2139178,76.54718879999999,-24.0069402,77.45246244,-7.17916374,160.8579585
4.8999999999999995,490,-0.08900000000000001,-1.736,0.215,-9.797581800000001,80.7297822,-23.491278,77.25192713999998,-6.79528188,161.59707432
4.91,491,-0.049,-1.6569999999999998,0.16399999999999998,-14.381245800000002,86.68854540000002,-21.1421502,76.99982562,-6.428588760000001,162.39348594
4.92,492,0.0,-1.534,0.098,-14.610429000000002,92.4754212,-19.9962342,76.75918326,-6.0447069,163.24719336
4.93,493,0.03,-1.43,0.059,-14.2093584,94.7672532,-17.7044022,76.51281132,-5.683743359999999,164.12954868
4.9399999999999995,494,0.024,-1.29,0.022,-15.183387000000002,94.7672532,-13.6936962,76.2607098,-5.3571573,165.01190400000004
4.95,495,0.096,-1.111,0.001,-10.7143146,93.2775624,-7.2765666,76.0601745,-5.0935966200000005,165.89998889999995
4.96,496,0.204,-0.926,-0.032,-3.2658606,92.819196,-3.3231564,75.93412373999998,-4.86441342,166.79380338
4.97,497,0.239,-0.778,-0.045,10.0840608,86.1728832,-0.6875496,75.96850122000002,-4.63523022,167.62459248
4.9799999999999995,498,0.247,-0.601,-0.084,24.1788276,75.45856859999998,-1.4896908000000002,76.14611819999998,-4.45761324,168.35224914
4.99,499,0.241,-0.478,-0.127,37.0130868,64.17129600000001,-3.4377480000000005,76.46697467999998,-4.28572584,168.97104378
5.0,500,0.14300000000000002,-0.389,-0.17,46.8679644,52.998615,-4.0680017999999984,76.89669318,-4.13675676,169.48097639999997
5.01,501,0.079,-0.287,-0.08199999999999999,50.5348956,38.5027776,-2.6929026,77.3779779,-4.02789474,169.8533991
5.02,502,0.079,-0.194,0.068,45.8939358,24.694489800000003,0.3437748,77.84207388,-3.97059894,170.09977104
5.03,503,0.11,-0.106,0.16,34.950438,18.9649098,5.844171599999999,78.1801191,-3.98778768,170.30030634
5.04,504,0.156,0.023,0.145,25.78311,19.938938399999998,15.3552744,78.42649104,-4.102379279999999,170.52948954
5.05,505,0.177,0.13,0.073,24.923673,18.048177,25.9549974,78.66140382,-4.320103319999999,170.75867274
5.06,506,0.151,0.16399999999999998,0.039,31.6845774,9.3392154,34.3201842,78.97080113999998,-4.63523022,170.91910098
5.07,507,0.067,0.14400000000000002,0.07400000000000001,37.1849742,-2.3491278,40.393539,79.354683,-5.03057124,170.97066719999995
5.08,508,0.008,0.093,0.099,36.6120162,-10.4851314,41.19568020000001,79.72710570000002,-5.443101,170.94774888
5.09,509,-0.024,0.041,0.077,32.31483119999999,-12.7196676,36.03905820000001,80.06515092,-5.80979412,170.8847235
5.1,510,0.006999999999999999,-0.025,0.017,26.5279554,-8.651665800000002,24.4653066,80.34017076,-6.06189564,170.84461644
5.11,511,0.035,-0.14300000000000002,-0.16699999999999998,16.673077799999998,-3.7815227999999994,7.6203414,80.51205816,-6.13638018,170.82169812
5.12,512,0.034,-0.392,-0.573,1.3178034,3.0366774,-18.1054728,80.36308908,-5.93584488,170.83315728
5.13,513,0.004,-0.6679999999999999,-0.872,-9.5111028,28.7051958,-48.0138804,80.23703832,-5.42591226,171.03369258
5.14,514,-0.206,-0.993,-0.769,-2.4637194,51.7954032,-73.052145,80.17401294,-4.63523022,171.42330402
5.1499999999999995,515,-0.3720000000000001,-1.276,-0.446,-5.958763200000001,43.3729206,-82.04758559999998,80.08233966,-3.77006364,171.70978302
5.16,516,-0.358,-1.396,-0.39,-25.3247436,15.527161800000002,-72.5364828,79.81877897999998,-3.04240698,171.73843091999996
5.17,517,-0.045,-1.339,-0.308,-24.8090814,5.443101,-53.39968560000001,79.56667746000002,-2.50382646,171.69259428
5.18,518,0.25,-1.294,-0.199,-16.042824000000003,5.0993262,-34.7785506,79.40051964,-2.16005166,171.68113512
5.1899999999999995,519,0.431,-1.3730000000000002,-0.297,-3.9534102,5.0993262,-18.334656,79.36041258,-1.97097552,171.69832386
5.2,520,0.56,-1.589,-0.332,9.8548776,4.4117766,-5.0993262,79.45781544,-1.91367972,171.73270134
5.21,521,0.499,-1.783,-0.298,15.756345000000001,-0.8594370000000001,-2.9220857999999996,79.61824368,-1.88503182,171.71551259999995
5.22,522,0.384,-1.822,-0.153,13.750992000000002,-10.0840608,-9.167328,79.76721276,-1.79908812,171.60665058
5.2299999999999995,523,0.252,-1.817,-0.065,5.2712136,-19.1367972,-18.5065434,79.83023813999998,-1.65011904,171.38319696
5.24,524,0.098,-1.793,-0.037000000000000005,-5.2712136,-23.14750320000001,-26.1841806,79.7844015,-1.42666542,171.11390669999997
5.25,525,-0.015,-1.821,0.02,-13.0061466,-23.204799,-28.8770832,79.66408032,-1.18029348,170.83315728
5.26,526,-0.08800000000000001,-1.886,0.07,-22.345362,-20.9702628,-24.8090814,79.4406267,-0.9740286,170.58105575999997
5.27,527,-0.095,-1.948,0.108,-22.4026578,-20.626488,-14.381245800000002,79.22863224,-0.86516658,170.35187256
5.28,528,0.047,-1.972,0.16,-19.308684600000007,-23.8923486,1.8907613999999997,79.03382652,-0.92246238,170.12268936
5.29,529,0.201,-1.989,0.18600000000000005,-19.194093,-30.194886600000004,17.9908812,78.85047996,-1.15164558,169.85912868
5.3,530,0.326,-1.938,0.159,-21.2567418,-38.5027776,30.8251404,78.64994466,-1.5183387000000002,169.5382722
5.31,531,0.386,-1.811,0.128,-17.475219,-52.2537696,39.4195104,78.48951642,-1.99389384,169.1085537
5.32,532,0.398,-1.654,0.098,-11.8029348,-67.9528188,43.0864416,78.40930230000002,-2.5210152000000003,168.52413654
5.33,533,0.343,-1.485,0.087,-3.9534102,-82.79243100000002,43.3156248,78.42076146,-3.0825140400000004,167.80220946
5.34,534,0.247,-1.344,0.075,-0.9740286,-95.2256196,40.8519054,78.47232768,-3.6440128800000013,166.95423162
5.35,535,0.106,-1.22,0.051,2.291832,-100.554129,37.4714532,78.56973054,-4.17686382,166.04895798
5.36,536,-0.08199999999999999,-1.097,-0.011,1.3750992,-98.6633676,31.4553942,78.6671334,-4.65241896,165.14368434
5.37,537,-0.262,-0.959,-0.131,9.167328,-93.9078162,25.0382646,78.85047996,-5.07640788,164.27851776
5.38,538,-0.4,-0.823,-0.094,25.8977016,-86.5739538,20.3973048,79.19998434,-5.40872352,163.47064698
5.39,539,-0.434,-0.706,-0.015,31.51269000000001,-74.198061,14.5531332,79.59532535999998,-5.66655462,162.77163822
5.3999999999999995,540,-0.441,-0.532,0.028,38.5600734,-59.30115299999999,9.224623800000002,80.05369175999998,-5.83844202,162.20440979999995
5.41,541,-0.403,-0.424,0.106,41.6540466,-46.2377106,2.8074942000000003,80.5292469,-5.930115299999999,161.76323214
5.42,542,-0.348,-0.304,0.138,40.4508348,-34.8931422,-5.5003968,80.99907246000002,-5.9473040400000015,161.41372776
5.43,543,-0.281,-0.18,0.152,38.67466500000001,-28.8770832,-15.527161800000002,81.42879096,-5.8269828599999975,161.11006002
5.4399999999999995,544,-0.205,-0.067,0.21,37.1849742,-29.1062664,-28.4187168,81.84132072,-5.58061092,160.78347396
5.45,545,-0.126,-0.022,0.116,37.0703826,-31.111619399999995,-40.5081306,82.25385048,-5.20818822,160.42824000000005
5.46,546,-0.038,-0.036000000000000004,-0.038,38.90384820000001,-26.7571386,-47.4409224,82.67783940000002,-4.76701056,160.10738351999996
5.47,547,0.039,-0.064,-0.119,36.6120162,-15.527161800000002,-49.388979600000006,83.04453251999998,-4.27999626,159.89538906
5.4799999999999995,548,0.067,-0.066,-0.16,33.0596766,-2.578311,-46.5814854,83.38830732,-3.82162986,159.82090452
5.49,549,0.035,-0.038,-0.145,29.1635622,8.880849000000003,-40.164355799999996,83.6805159,-3.4148296799999995,159.86674116
5.5,550,-0.026,0.018000000000000002,-0.085,23.9496444,16.2147114,-31.5699858,83.9096991,-3.08824362,159.99852149999995
5.51,551,-0.107,0.063,-0.038,19.9962342,19.308684600000007,-20.511896399999998,84.10450482,-2.87051958,160.17040889999996
5.52,552,-0.147,0.0,-0.055,16.8449652,23.777757,-7.333862400000001,84.24201474,-2.79603504,160.39959209999995
5.53,553,-0.066,-0.213,-0.285,10.599723,36.2682414,7.7922288,84.32222886000002,-2.84760126,160.76628522
5.54,554,-0.058,-0.5489999999999999,-0.6759999999999999,-1.7188740000000002,22.2307704,29.793816,84.29358096,-3.12835068,161.01265716
5.55,555,-0.033,-0.813,-1.069,-19.9962342,-36.32553720000001,57.467687399999996,84.11023440000002,-3.724227,160.70898942
5.56,556,0.194,-1.037,-0.654,2.1199446,-65.94746579999999,76.03152659999998,84.18471894,-4.5206386200000015,160.13030184
5.57,557,0.455,-1.547,-0.34,11.5737516,-43.544808,73.51051140000001,84.3394176,-5.2712136,159.77506788
5.58,558,0.342,-1.769,-0.202,4.5263682,-3.380452200000001,51.7954032,84.38525424,-5.781146219999999,159.79225662
5.59,559,-0.152,-1.635,-0.068,-34.60666320000001,22.86102420000001,19.308684600000007,84.00710196,-5.958763200000001,160.03289898
5.6,560,-0.591,-1.459,-0.106,-40.5081306,29.2781538,0.9167328,83.56019472,-5.953033619999999,160.31937798
5.61,561,-0.75,-1.65,-0.307,-13.980175199999998,15.813640800000002,-0.5156622000000001,83.39976648,-5.93584488,160.47407664
5.62,562,-0.5720000000000001,-1.903,-0.355,-17.18874,7.448453999999999,4.6982556,83.21641991999998,-5.97595194,160.55429076
5.63,563,-0.267,-2.006,-0.17,-4.2398892,15.6990492,9.6829902,83.15339454,-6.06189564,160.72044857999995
5.64,564,-0.027000000000000003,-2.1630000000000003,0.019,17.131444199999994,33.9764094,12.9488508,83.28517488,-6.15356892,161.06995296
5.6499999999999995,565,0.092,-2.12,0.128,2.1772404,46.5814854,13.349921400000001,83.25079740000002,-6.2452422000000025,161.55123768
5.66,566,0.123,-1.896,0.14,-14.2093584,50.76407879999999,12.1467096,83.04453251999998,-6.31972674,162.06689988
5.67,567,0.122,-1.796,0.104,-18.6784308,47.4409224,8.9381448,82.79816058,-6.3598338000000005,162.54245501999995
5.68,568,0.07400000000000001,-1.744,0.112,-15.469866,42.28430039999999,3.6096354,82.58616612,-6.3598338000000005,162.96644394
5.6899999999999995,569,-0.033,-1.731,0.16699999999999998,-7.8495246,40.4508348,-6.4744254,82.46011536,-6.25097178,163.35605538
5.7,570,-0.168,-1.716,0.2,-6.3025379999999975,43.6021038,-14.495837400000001,82.34552376,-6.067625219999999,163.76858513999997
5.71,571,-0.268,-1.632,0.219,-6.990087599999999,50.0192334,-19.5378678,82.219473,-5.82125328,164.23841069999997
5.72,572,-0.321,-1.528,0.183,-7.1046792000000005,59.24385720000001,-21.5432208,82.09342224,-5.5519630200000005,164.78845038
5.7299999999999995,573,-0.292,-1.4280000000000002,0.123,-6.5317212,68.9268474,-20.5691922,81.95591232000002,-5.2712136,165.44162250000005
5.74,574,-0.21,-1.3259999999999998,0.079,-3.151269,76.03152659999998,-16.4438946,81.85277988,-5.02484166,166.16927916
5.75,575,-0.091,-1.183,0.066,4.010706000000001,78.4379502,-12.1467096,81.81267282,-4.81857678,166.92558372000005
5.76,576,0.039,-1.031,0.062,12.7196676,78.5525418,-8.651665800000002,81.86996862,-4.6409598,167.68761786
5.77,577,0.128,-0.852,0.071,21.027558600000006,73.85428619999998,-5.3285094000000015,82.03612644,-4.4748019800000005,168.40954494
5.78,578,0.179,-0.698,-0.006999999999999999,28.2468294,66.80690279999999,-4.583664,82.26530964,-4.3544808,169.06844664
5.79,579,0.18600000000000005,-0.561,-0.063,38.2162986,59.64492779999999,-3.8388186,82.60335486,-4.25134836,169.6528638
5.8,580,0.177,-0.426,-0.068,44.690724,53.39968560000001,-2.3491278,83.01015504,-4.17113424,170.17998516
5.81,581,0.158,-0.259,-0.065,50.5348956,47.3836266,-2.578311,83.4799806,-4.0966497,170.64981071999995
5.82,582,0.214,-0.132,0.016,55.80610920000001,39.7632852,-1.7188740000000002,84.0242907,-4.01643558,171.05088131999997
5.83,583,0.231,-0.058,0.105,52.19647379999999,34.091001,0.11459160000000004,84.52276416000002,-3.98778768,171.38892654
5.84,584,0.235,-0.013,0.094,43.0864416,31.340802600000004,6.1879464,84.93529392,-4.022165159999999,171.70978302
5.85,585,0.265,0.029,0.057,35.236917,25.8977016,16.7876694,85.26760956,-4.17113424,171.98480286
5.86,586,0.237,0.047,-0.032,37.0130868,15.2406828,26.069589,85.62857310000003,-4.41750618,172.16241983999996
5.87,587,0.149,0.05,-0.102,45.263682,0.6875496,33.8618178,86.06975076,-4.73263308,172.19679732
5.88,588,0.098,-0.005,-0.104,51.5089242,-14.2093584,38.38818600000001,86.60260170000002,-5.11651494,172.0879353
5.89,589,0.066,-0.029,-0.108,49.90464179999999,-26.9863218,39.3622146,87.13545264000004,-5.50612638,171.84156336
5.8999999999999995,590,0.087,-0.023,-0.092,42.5707794,-35.236917,36.955791,87.6052782,-5.87854908,171.5149773
5.91,591,0.132,-0.015,-0.034,30.4240698,-41.6540466,29.220858000000003,87.96624174,-6.17075766,171.11390669999997
5.92,592,0.131,-0.08199999999999999,-0.055,16.501190400000002,-44.977203,13.120738199999998,88.16677704,-6.285349259999999,170.67272903999995
5.93,593,0.017,-0.316,-0.325,-4.010706000000001,-45.83664,-9.568398599999998,88.18396578000002,-6.1879464,170.21436264
5.9399999999999995,594,-0.017,-0.7020000000000001,-0.754,-37.1276784,-22.2307704,-45.0344988,87.83446140000002,-5.746768739999999,169.97372028
5.95,595,-0.343,-1.163,-1.38,-65.7182826,49.3316838,-93.105675,87.1182639,-4.81857678,170.41489794
5.96,596,-0.8290000000000001,-1.919,-1.079,-27.6165756,109.9506402,-138.59854019999997,86.7458412,-3.42055926,171.43476318
5.97,597,-1.016,-2.037,-0.087,55.86340500000001,61.87946400000001,-127.2539718,87.27869214,-2.14286292,171.98480286
5.9799999999999995,598,-0.406,-2.092,0.257,24.2361234,0.0,-70.473834,87.52506408,-1.43812458,171.96188454
5.99,599,0.5539999999999999,-1.97,-0.134,-34.4347758,-23.6058696,-16.1001198,87.18128928,-1.2891555000000001,171.71551259999995
6.0,600,0.963,-1.972,-0.219,8.3651868,-21.485925,22.058883,87.27296256,-1.51260912,171.5149773
6.01,601,0.728,-2.276,-0.28300000000000003,37.52874900000001,-3.2085648,16.329303,87.65684442,-1.6673077799999998,171.49205898
6.02,602,0.309,-2.182,-0.341,19.7097552,-4.010706000000001,-5.72958,87.85737972,-1.61001198,171.45195192
6.03,603,0.118,-2.073,-0.232,21.6578124,-27.3873924,-26.5852512,88.08656292,-1.3464512999999998,171.17693208
6.04,604,0.013,-1.943,-0.101,18.449247600000003,-42.2270046,-40.5081306,88.28709822,-0.9453806999999999,170.74721358
6.05,605,-0.064,-1.753,-0.009000000000000001,3.5523396000000003,-41.596750799999995,-44.1750618,88.33293486,-0.5042030399999999,170.32895424
6.06,606,-0.162,-1.575,0.01,-10.313244,-32.8877892,-38.4454818,88.23553199999998,-0.12605075999999998,169.99090902
6.07,607,-0.247,-1.401,-0.006999999999999999,-14.152062599999999,-22.459953600000002,-25.2674478,88.0922925,0.09740286,169.76172582
6.08,608,-0.29,-1.269,-0.027000000000000003,-8.078707799999998,-10.1986524,-5.2712136,88.01207838,0.14896908,169.6528638
6.09,609,-0.301,-1.207,-0.035,2.291832,4.0680017999999984,9.2819196,88.03499670000002,0.057295800000000015,169.69870043999995
6.1,610,-0.276,-1.19,-0.019,6.703608600000001,15.4125702,18.2773602,88.10375166,-0.12032118,169.85912868
6.11,611,-0.232,-1.155,0.016,5.844171599999999,24.694489800000003,23.032911600000002,88.15531788,-0.3437748,170.1112302
6.12,612,-0.16699999999999998,-1.113,0.06,6.875496000000001,31.4553942,23.777757,88.23553199999998,-0.6016058999999999,170.43208668
6.13,613,-0.096,-1.0759999999999998,0.087,11.0007936,34.8931422,23.7204612,88.33866443999996,-0.83651868,170.78159105999995
6.14,614,-0.045,-1.042,0.098,16.8449652,34.8931422,23.6058696,88.49909268,-1.06570188,171.13682502
6.15,615,0.0,-0.987,0.085,19.938938399999998,34.1482968,24.637194,88.69389840000002,-1.31207382,171.48059982
6.16,616,0.029,-0.887,0.057,23.835052800000003,34.37748,25.0955604,88.9230816,-1.56417534,171.8301042
6.17,617,0.038,-0.79,0.048,31.8564648,37.24227,24.4080108,89.23247891999998,-1.79908812,172.2025269
6.18,618,0.014,-0.6970000000000001,0.069,36.4401288,39.4195104,22.8037284,89.58771288,-2.02827132,172.59786792
6.1899999999999995,619,-0.014,-0.597,0.114,37.6433406,42.398892,19.2513888,89.94867642,-2.22880662,173.02185684
6.2,620,-0.065,-0.506,0.159,35.6379876,47.0398518,12.7196676,90.28672164,-2.36631654,173.4916824
6.21,621,-0.102,-0.408,0.173,31.22621100000001,53.7434604,6.6463128000000005,90.57320064,-2.44653066,174.03026291999996
6.22,622,-0.124,-0.312,0.192,25.210152,62.5670136,0.0,90.813843,-2.48663772,174.64905756000005
6.2299999999999995,623,-0.17,-0.217,0.098,17.589810600000003,68.0674104,-8.307891,90.95135292,-2.42934192,175.32514799999996
6.24,624,-0.201,-0.109,-0.04,16.4438946,67.83822719999999,-17.4179232,91.08313326,-2.28610242,176.00123844
6.25,625,-0.185,-0.019,-0.076,30.1375908,68.2392978,-23.032911600000002,91.35242352,-2.08556712,176.68878804000005
6.26,626,-0.115,0.03,0.012,44.7480198,69.2706222,-23.14750320000001,91.77641244,-1.8907613999999997,177.38206722
6.27,627,-0.04,0.029,0.13,48.5868384,65.3745078,-17.761698000000006,92.26342674,-1.75325148,178.04096892
6.28,628,-0.032,0.0,0.192,41.596750799999995,58.0406454,-9.9121734,92.65876776,-1.6959556799999995,178.62538608
6.29,629,-0.061,-0.058,0.189,36.669312,50.47759979999999,-3.8388186,93.01400172,-1.6902260999999998,179.12958912
6.3,630,-0.08199999999999999,-0.16899999999999998,0.219,38.38818600000001,46.6387812,-1.7761698,93.38069484,-1.7074148399999998,179.59368510000004
6.31,631,-0.09,-0.273,0.189,37.1276784,48.70143,-4.6409598,93.7359288,-1.70168526,-179.91454158
6.32,632,-0.057,-0.368,0.08900000000000001,29.335449600000004,61.6502808,-14.610429000000002,94.00521906,-1.6157415599999996,-179.29001736
6.33,633,0.062,-0.474,-0.047,17.9908812,92.0743506,-25.55392680000001,94.15418814,-1.44958374,-178.36755498
6.34,634,0.264,-0.665,-0.25,1.6042823999999998,127.36856340000001,-30.4240698,94.11981066,-1.27769634,-177.08985864000005
6.35,635,0.529,-1.137,-0.685,-31.1689152,155.3862096,-16.558486199999994,93.75311754,-1.26623718,-175.55433119999995
6.36,636,0.5539999999999999,-1.864,-1.602,-101.8146366,81.5892192,31.4553942,92.68741566,-1.6558486199999998,-174.7808379
6.37,637,0.977,-2.681,-2.079,-109.2630906,-28.074942,102.2157072,91.59306588,-2.65852512,-175.10742396
6.38,638,1.162,-2.604,-0.565,17.475219,1.0886202,124.8475482,91.77641244,-3.896114400000001,-175.13034227999995
6.39,639,0.525,-2.715,-0.189,29.220858000000003,32.7731976,95.970465,92.0457027,-4.86441342,-174.8381337
6.4,640,-0.528,-2.26,-0.304,-17.0168526,50.5348956,44.117766,91.82224908,-5.33423898,-174.35684898
6.41,641,-1.101,-1.929,-0.55,17.0168526,55.06126379999999,14.381245800000002,91.93684068,-5.51185596,-173.81253887999995
6.42,642,-1.109,-1.999,-0.674,21.199446,72.479187,-7.3911582,92.06862102,-5.48320806,-173.0906118
6.43,643,-0.898,-2.074,-0.528,23.376686399999997,96.543423,-13.5791046,92.20040136,-5.40872352,-172.12231278
6.4399999999999995,644,-0.545,-1.963,-0.282,34.950438,125.4205062,-15.527161800000002,92.42385498,-5.33423898,-170.87326434
6.45,645,-0.209,-1.78,-0.07400000000000001,29.392745399999995,154.29758940000005,-20.511896399999998,92.56136490000002,-5.23683612,-169.33200731999997
6.46,646,0.011,-1.618,0.053,13.6364004,173.60627399999996,-26.0122932,92.51552826,-5.10505578,-167.59594458
6.47,647,0.208,-1.4269999999999998,0.073,-2.8074942000000003,184.8935466,-25.78311,92.3035338,-4.96181628,-165.7567494
6.4799999999999995,648,0.279,-1.3219999999999998,0.075,-16.329303,183.0027852,-17.246035799999998,91.95402942,-4.91025006,-163.94047254
6.49,649,0.211,-1.221,0.064,-23.3193906,168.10587719999995,0.11459160000000004,91.55295882,-5.0133825000000005,-162.27889434000005
6.5,650,0.14300000000000002,-1.129,0.011,-25.4393352,153.09437759999997,14.8396122,91.14042906,-5.23683612,-160.76628522
6.51,651,0.115,-1.0759999999999998,-0.027000000000000003,-23.9496444,143.0103168,26.069589,90.74508804,-5.56342218,-159.35680854
6.52,652,0.111,-1.061,-0.035,-21.1421502,139.7444562,31.8564648,90.36693576,-5.91865614,-157.97597976
6.53,653,0.07,-1.061,-0.022,-21.7151082,141.00496379999996,30.4813656,89.98305390000002,-6.26243094,-156.57796223999995
6.54,654,-0.019,-1.025,-0.025,-22.2880662,141.807105,25.78311,89.57625372,-6.554639519999999,-155.16848556
6.55,655,-0.087,-0.942,0.015,-20.2827132,139.11420239999998,20.05353,89.19237186000002,-6.77809314,-153.78765678
6.56,656,-0.08199999999999999,-0.8590000000000001,0.041,-16.157415599999997,134.98890480000003,14.610429000000002,88.84859706,-6.93852138,-152.44120548
6.57,657,-0.047,-0.77,0.08,-6.2452422,131.4365652,9.1100322,88.61941386,-7.030194660000001,-151.13486124000005
6.58,658,-0.019,-0.716,0.13,1.145916,129.1447332,4.9847345999999995,88.45898561999998,-7.0874904600000015,-149.84570574
6.59,659,0.019,-0.672,0.114,3.8961144,128.45718359999998,1.432395,88.3214757,-7.098949620000001,-148.56227982
6.6,660,0.034,-0.6459999999999999,0.13699999999999998,7.333862400000001,126.623718,0.11459160000000004,88.22407283999998,-7.098949620000001,-147.30177222
6.61,661,0.048,-0.629,0.177,11.45916,122.1546456,0.9167328,88.17250662000002,-7.098949620000001,-146.08137168
6.62,662,0.079,-0.617,0.215,14.2093584,116.76884040000002,1.8907613999999997,88.18396578000002,-7.09322004,-144.92399652
6.63,663,0.119,-0.604,0.229,18.449247600000003,114.53430420000001,2.0626488000000003,88.21261368,-7.11040878,-143.77808052
6.64,664,0.152,-0.604,0.235,24.350715,116.310474,1.7761698,88.30428696,-7.12186794,-142.61497577999995
6.65,665,0.17800000000000002,-0.606,0.23,29.793816,118.1439396,2.9793816000000004,88.44179688,-7.15051584,-141.43468230000005
6.66,666,0.184,-0.601,0.211,34.4347758,118.4304186,5.72958,88.63087302,-7.20781164,-140.24865924
6.67,667,0.189,-0.5920000000000001,0.188,40.10706,118.9460808,9.8548776,88.88297453999998,-7.282296179999999,-139.06263618
6.68,668,0.187,-0.5820000000000001,0.157,45.263682,120.72225060000001,14.495837400000001,89.17518312,-7.43699484,-137.84796522000002
6.6899999999999995,669,0.16899999999999998,-0.58,0.163,48.8160216,122.1546456,18.162768600000003,89.49031002000002,-7.63180056,-136.6218351
6.7,670,0.129,-0.5579999999999999,0.155,48.0138804,124.5610692,20.9702628,89.79397776,-7.866713339999999,-135.37851624
6.71,671,0.055,-0.5379999999999999,0.071,47.4982182,128.629071,22.86102420000001,90.08045676,-8.12454444,-134.08936074
6.72,672,-0.07200000000000001,-0.5489999999999999,-0.021,45.779344200000004,132.41059380000002,22.8037284,90.33255828,-8.38810512,-132.76009818
6.7299999999999995,673,-0.2,-0.589,0.011,43.0864416,134.87431320000002,21.6578124,90.5560119,-8.651665800000002,-131.40791729999998
6.74,674,-0.313,-0.6579999999999999,0.001,34.1482968,139.11420239999998,19.5378678,90.6706035,-8.89230816,-130.01562936
6.75,675,-0.39,-0.75,-0.043,24.9809688,141.5779218,15.527161800000002,90.68206266,-9.098573040000002,-128.6004231
6.76,676,-0.392,-0.8220000000000001,-0.008,17.589810600000003,144.6145992,9.969469199999999,90.6133077,-9.2532717,-127.15083936
6.77,677,-0.328,-0.91,0.014,13.6936962,150.5160666,1.8334656000000005,90.48725694,-9.3392154,-125.64395982
6.78,678,-0.21600000000000005,-1.051,-0.006999999999999999,11.8029348,155.7872802,-10.255948199999999,90.33255828,-9.29337876,-124.08551406
6.79,679,-0.081,-1.284,-0.08900000000000001,7.5057497999999985,157.21967519999995,-28.5333084,90.13202298,-9.05846598,-122.50414998
6.8,680,-0.011,-1.582,-0.183,-4.3544808,165.18379140000005,-53.285094,89.8111665,-8.57145168,-120.85403094
6.81,681,-0.039,-1.843,-0.32,-13.178034,176.47106399999996,-74.31265259999998,89.40436632,-7.87244292,-119.09504988
6.82,682,-0.116,-1.7819999999999998,-0.245,-1.2605076000000002,175.09596480000005,-77.2920342,89.13507606,-7.12759752,-117.35898714
6.83,683,-0.075,-1.5630000000000002,-0.194,6.1879464,167.64751080000005,-61.5356892,88.97464782,-6.53745078,-115.69740894000002
6.84,684,0.087,-1.395,-0.17600000000000002,2.5210152000000003,158.422887,-42.112413,88.80848999999998,-6.130650600000001,-114.12750402
6.85,685,0.17800000000000002,-1.254,-0.171,-2.4064236,158.0791122,-24.4653066,88.59649553999998,-5.895737819999999,-112.56332868
6.86,686,0.15,-1.108,-0.163,-0.1718874,162.6627762,-11.3445684,88.40741940000002,-5.7868758,-110.94758712
6.87,687,0.059,-1.056,-0.114,7.8495246,166.73077800000004,-2.1199446,88.2928278,-5.75249832,-109.2917385
6.88,688,-0.027000000000000003,-1.071,-0.06,6.1879464,170.7987798,2.291832,88.16104745999998,-5.76968706,-107.59005324
6.89,689,-0.104,-1.112,-0.021,-2.7501984,172.746837,2.1772404,87.93759384,-5.781146219999999,-105.87117924000002
6.9,690,-0.14800000000000002,-1.158,-0.019,-10.026765,174.58030259999995,0.7448454000000001,87.63965568,-5.76968706,-104.14084608
6.91,691,-0.177,-1.2009999999999998,-0.04,-12.6623718,177.903459,-0.7448454000000001,87.30734004,-5.735309579999999,-102.37613544
6.92,692,-0.182,-1.222,-0.048,-12.834259199999998,184.6643634,-2.8074942000000003,86.96929482,-5.6722842,-100.54266984
6.93,693,-0.184,-1.206,-0.042,-11.745639,193.2014376,-4.9274388,86.63697918,-5.56915176,-98.62899012
6.9399999999999995,694,-0.192,-1.17,-0.033,-8.880849000000003,200.9363706,-5.7868758000000025,86.33331144,-5.44883058,-96.64082586
6.95,695,-0.172,-1.12,-0.003,-6.875496000000001,207.4680918,-4.6409598,86.04110286,-5.32277982,-94.58390664
6.96,696,-0.155,-1.063,0.015,-5.0993262,213.6560382,-1.7761698,85.76608302,-5.2139178,-92.46396204
6.97,697,-0.139,-1.017,0.038,-2.6356068,218.3542938,1.2032118,85.51971108000002,-5.1222445200000015,-90.30391038
6.9799999999999995,698,-0.113,-0.994,0.05,-0.9167328,221.04719640000002,3.2658606,85.2847983,-5.042030400000002,-88.10948124000002
6.99,699,-0.096,-0.98,0.047,0.8594370000000001,223.167141,3.8388186,85.07280384,-4.95035712,-85.89213378
7.0,700,-0.08,-0.961,0.061,2.3491278,225.0579024,3.8388186,84.87799812,-4.858683839999999,-83.66332716000002
7.01,701,-0.08,-0.931,0.059,4.2398892,227.750805,3.724227,84.70038114,-4.749821819999998,-81.40587264
7.02,702,-0.084,-0.889,0.07200000000000001,5.2139178,230.615595,4.0680017999999984,84.54568248000002,-4.6409598,-79.11977021999998
7.03,703,-0.083,-0.8759999999999999,0.086,7.3911582,234.91277999999997,3.3231564,84.40244298,-4.51490904,-76.78783116
7.04,704,-0.092,-0.868,0.103,7.8495246,240.2985852,0.4583664000000001,84.26493306,-4.34875122,-74.41005546
7.05,705,-0.104,-0.867,0.102,8.59437,245.22602400000002,-2.291832,84.13888229999998,-4.14821592,-71.98644312
7.06,706,-0.083,-0.879,0.113,7.333862400000001,246.0281652,-3.0366774,84.01283154000002,-3.93622146,-69.56283078
7.07,707,-0.068,-0.895,0.115,5.6722842,244.2519954,-2.0626488000000003,83.88678078000002,-3.724227,-67.15067760000001
7.08,708,-0.058,-0.918,0.099,4.9274388,241.55909280000003,-0.3437748,83.75500044,-3.52942128,-64.76717232
7.09,709,-0.059,-0.954,0.085,4.5263682,238.7515986,1.8334656000000005,83.62894968,-3.3518043,-62.40658536
7.1,710,-0.063,-0.994,0.078,3.6669312000000014,236.11599180000002,4.3544808,83.49716934,-3.19710564,-60.0746463
7.11,711,-0.07400000000000001,-1.008,0.054000000000000006,2.1199446,234.39711780000002,6.3025379999999975,83.36538900000002,-3.05959572,-57.754166399999995
7.12,712,-0.07200000000000001,-0.997,0.028,1.0886202,231.8188068,7.448453999999999,83.22787908000002,-2.93354496,-55.4623344
7.13,713,-0.061,-0.968,0.044,0.3437748,227.52162180000005,7.8495246,83.09036916,-2.80176462,-53.21060946
7.14,714,-0.041,-0.949,0.061,-1.3750992,223.22443680000003,7.161975,82.94140008000002,-2.6642547000000003,-50.99899158
7.15,715,-0.023,-0.949,0.049,-2.7501984,218.6980686,5.5003968,82.78670142,-2.51528562,-48.83893992
7.16,716,-0.009000000000000001,-0.969,0.032,-3.0366774,214.6300668,2.8074942000000003,82.63773234,-2.33193906,-46.7247249
7.17,717,0.014,-0.998,0.031,-2.6356068,210.5047692,-0.6302538000000001,82.51168158,-2.10848544,-44.65634652
7.18,718,0.045,-1.024,0.042,-2.1199446,206.2075842,-4.2398892,82.39136040000002,-1.85638392,-42.62807520000001
7.1899999999999995,719,0.078,-1.036,0.062,-1.2032118,201.681216,-7.0473834,82.29395754,-1.5756344999999998,-40.65709968
7.2,720,0.097,-1.026,0.078,0.11459160000000004,195.2640864,-8.59437,82.219473,-1.28342592,-38.74914954000001
7.21,721,0.108,-1.002,0.078,0.8594370000000001,187.5864492,-9.0527364,82.16790678,-0.9912173399999998,-36.91568394
7.22,722,0.096,-0.976,0.08,0.3437748,179.8515162,-9.1100322,82.13925888,-0.69900876,-35.16243246
7.2299999999999995,723,0.085,-0.956,0.07400000000000001,-1.5469866,173.5489782,-9.5111028,82.08196308000002,-0.41825934,-33.46647678
7.24,724,0.063,-0.937,0.052000000000000005,-4.010706000000001,167.24644019999997,-10.4851314,82.00747854,-0.13178034,-31.839276060000003
7.25,725,0.038,-0.937,0.023,-7.2765666,160.714719,-12.261301199999998,81.91580526,0.16042824,-30.2808303
7.26,726,0.025,-0.946,-0.044,-11.917526400000002,154.18299779999995,-13.980175199999998,81.77829534,0.47555514,-28.78540992
7.27,727,0.018000000000000002,-0.948,-0.07200000000000001,-13.464512999999998,147.3075018,-14.2093584,81.64078542,0.7849524600000001,-27.3587445
7.28,728,0.041,-0.943,-0.043,-12.6623718,143.2395,-13.6936962,81.52046424,1.08289062,-25.97218614
7.29,729,0.075,-0.943,-0.047,-12.5477802,144.78648660000005,-14.037471,81.40014306,1.39228794,-24.57416862
7.3,730,0.084,-0.94,-0.068,-12.7196676,146.4480648,-13.5791046,81.29128104,1.7074148399999998,-23.15896236
7.31,731,0.069,-0.946,-0.099,-11.8602306,144.8437824,-11.3445684,81.19387818,1.99389384,-21.75521526
7.32,732,0.051,-0.967,-0.125,-11.45916,139.22879400000002,-7.5057497999999985,81.10793448000003,2.24026578,-20.40303438
7.33,733,0.075,-0.999,-0.131,-10.886202,132.8116644,-2.4637194,81.03344994,2.4350715000000003,-19.10241972
7.34,734,0.13,-1.008,-0.128,-10.886202,127.9415214,0.7448454000000001,80.96469498,2.58977016,-17.847641699999997
7.35,735,0.237,-1.03,-0.16699999999999998,-12.6623718,124.61836499999998,0.9167328,80.87302170000002,2.73873924,-16.621511579999996
7.36,736,0.329,-1.057,-0.166,-15.2406828,120.32118,-0.8594370000000001,80.7584301,2.90489706,-15.44694768
7.37,737,0.392,-1.096,-0.16399999999999998,-17.6471064,113.2737966,-1.3750992,80.62092018,3.0939732,-14.34113874
7.38,738,0.422,-1.126,-0.153,-17.18874,100.4968332,1.145916,80.48913983999998,3.22002396,-13.3499214
7.39,739,0.406,-1.125,-0.116,-14.4385416,84.91237559999998,6.3025379999999975,80.38027782,3.27159018,-12.507673139999998
7.4,740,0.35100000000000003,-1.077,-0.079,-10.3705398,69.7862844,11.45916,80.30579328,3.25440144,-11.80866438
7.41,741,0.281,-1.009,-0.048,-6.3598338,60.10329419999999,14.7823164,80.26568621999998,3.1913760600000005,-11.19559932
7.42,742,0.208,-0.964,-0.048,-4.7555514,54.94667220000001,15.5844576,80.25995664,3.14553942,-10.6283709
7.43,743,0.139,-0.926,-0.075,-4.6982556,52.139178,14.0947668,80.23130874,3.0825140400000004,-10.09551996
7.4399999999999995,744,0.079,-0.925,-0.081,-3.3231564,48.9306132,10.1413566,80.21984957999999,3.04813656,-9.5970465
7.45,745,0.043,-0.949,-0.08199999999999999,-1.8907613999999997,45.8939358,6.589017,80.21984957999999,3.04813656,-9.138680099999998
7.46,746,0.038,-0.977,-0.07,-1.7761698,43.0291458,4.4690724,80.21984957999999,3.0653253000000005,-8.7089616
7.47,747,0.055,-0.993,-0.041,-0.6302538000000001,41.023792799999995,4.0680017999999984,80.26568621999998,3.08824362,-8.302161420000001
7.4799999999999995,748,0.08199999999999999,-0.998,-0.024,2.1199446,38.961144,4.9847345999999995,80.30579328,3.0939732,-7.91254998
7.49,749,0.121,-1.011,-0.029,5.7868758000000025,35.4088044,6.1879464,80.37454824,3.0825140400000004,-7.551586439999999
7.5,750,0.156,-1.017,-0.034,8.59437,30.0229992,7.6203414,80.47768067999998,3.04813656,-7.242189120000001
7.51,751,0.196,-0.992,-0.026,11.1153852,24.0069402,8.9954406,80.59800186,2.9965703400000003,-6.990087599999999
7.52,752,0.227,-0.956,-0.021,13.6364004,15.5844576,9.740286,80.79280758000002,3.00229992,-6.8182002000000015
7.53,753,0.251,-0.919,-0.015,14.381245800000002,7.2765666,9.797581800000001,80.94177666,2.91635622,-6.7322565
7.54,754,0.273,-0.892,-0.011,13.2926256,-1.6615782,9.2819196,81.07928658,2.82468294,-6.7322565
7.55,755,0.301,-0.882,-0.013,11.6310474,-10.4278356,8.136003599999999,81.19387818,2.73300966,-6.82392978
7.56,756,0.318,-0.897,-0.009000000000000001,9.3965112,-18.5065434,6.3598338,81.28555146,2.64706596,-6.99581718
7.57,757,0.315,-0.93,-0.016,6.9327918,-25.7258142,4.6409598,81.3886839,2.68717302,-7.23645954
7.58,758,0.304,-0.972,-0.027000000000000003,4.9847345999999995,-31.8564648,3.6096354,81.42879096,2.61268848,-7.54012728
7.59,759,0.285,-1.007,-0.045,3.724227,-37.2995658,4.0680017999999984,81.45743886,2.52674478,-7.90109082
7.6,760,0.26,-1.019,-0.054000000000000006,4.8128472,-44.919907200000004,5.7868758000000025,81.49181634,2.41788276,-8.3365389
7.61,761,0.223,-1.025,-0.053,8.7662574,-49.274388,7.2765666,81.56630088,2.28610242,-8.80636446
7.62,762,0.183,-1.011,-0.038,11.2872726,-52.597544400000004,8.078707799999998,81.68662206,2.17151082,-9.3105675
7.63,763,0.139,-0.999,-0.026,14.32395,-55.5196302,8.479778399999999,81.82413198,2.02827132,-9.84341844
7.64,764,0.109,-0.968,-0.008,14.9542038,-57.86875799999999,9.1100322,81.96164189999998,1.87357266,-10.3991877
7.65,765,0.08900000000000001,-0.946,0.006,17.761698000000006,-59.93140680000001,9.8548776,82.13352929999998,1.71314442,-10.9721457
7.66,766,0.076,-0.926,0.006,18.9649098,-60.8481396,10.255948199999999,82.31687586000002,1.5469866,-11.55656286
7.67,767,0.062,-0.935,0.008,20.798375399999998,-60.38977320000001,10.4851314,82.54032948,1.39228794,-12.135250439999998
7.68,768,0.052000000000000005,-0.961,-0.001,20.798375399999998,-57.35309579999999,10.4278356,82.75232394,1.23758928,-12.68529012
7.6899999999999995,769,0.043,-0.997,-0.019,20.454600600000006,-54.029939399999996,10.8289062,82.95285924,1.07716104,-13.20095232
7.7,770,0.022,-1.051,-0.048,18.449247600000003,-48.8160216,10.7143146,83.14193537999998,0.92819196,-13.6650483
7.71,771,-0.009000000000000001,-1.091,-0.08900000000000001,19.480572,-42.685371,9.568398599999998,83.3367411,0.79641162,-14.07184848
7.72,772,-0.056,-1.134,-0.092,21.0848544,-36.4401288,7.3911582,83.55446514,0.68182002,-14.42135286
7.7299999999999995,773,-0.113,-1.142,-0.08199999999999999,21.3140376,-30.4240698,4.6409598,83.77218918,0.61306506,-14.71356144
7.74,774,-0.153,-1.111,-0.077,21.199446,-24.4653066,2.4637194,83.98991322,0.56722842,-14.954203799999998
7.75,775,-0.174,-1.06,-0.069,21.6578124,-18.1054728,0.8594370000000001,84.20763725999998,0.55003968,-15.126091199999998
7.76,776,-0.179,-1.01,-0.067,21.027558600000006,-8.136003599999999,-0.4583664000000001,84.42536129999998,0.55003968,-15.206305319999998
7.77,777,-0.16399999999999998,-0.987,-0.078,19.8816426,-0.5156622000000001,-1.6042823999999998,84.61443744,0.46409598,-15.212034899999995
7.78,778,-0.134,-0.977,-0.094,17.7044022,6.5317212,-3.151269,84.79778400000002,0.4984734599999999,-15.149009520000002
7.79,779,-0.091,-0.965,-0.103,16.042824000000003,11.917526400000002,-3.724227,84.95821224,0.5443101,-15.03441792
7.8,780,-0.031,-0.96,-0.108,16.2147114,13.9228794,-2.9793816000000004,85.12437006,0.5844171599999999,-14.896907999999998
7.81,781,0.022,-0.967,-0.107,17.8762896,13.349921400000001,-0.5156622000000001,85.30198704,0.6016058999999999,-14.75939808
7.82,782,0.067,-0.971,-0.091,18.8503182,10.6570188,2.8074942000000003,85.47960402,0.61306506,-14.65053606
7.83,783,0.105,-0.97,-0.086,19.767051,6.3025379999999975,6.875496000000001,85.68013932,0.55003968,-14.5817811
7.84,784,0.125,-0.963,-0.07200000000000001,23.2620948,-1.3178034,10.8289062,85.92078168,0.44690724,-14.58751068
7.85,785,0.112,-0.964,-0.047,26.1268848,-6.9327918,13.120738199999998,86.18434235999996,0.31512690000000004,-14.64480648
7.86,786,0.086,-0.966,-0.011,25.496631,-11.4018642,13.9228794,86.44217346,0.17761697999999998,-14.74220934
7.87,787,0.056,-0.965,0.005,25.84040580000001,-14.32395,13.0634424,86.72292288,0.057295800000000015,-14.87398968
7.88,788,0.027000000000000003,-0.974,0.009000000000000001,26.41336380000001,-16.2147114,10.1986524,86.99221314,-0.04010706,-15.028688340000002
7.89,789,0.001,-0.98,0.001,27.043617600000005,-17.6471064,6.703608600000001,87.26723297999996,-0.10886202,-15.19484616
7.9,790,-0.025,-0.981,0.002,28.361421000000004,-18.621135,3.2658606,87.55944156000002,-0.14323950000000002,-15.37819272
7.91,791,-0.05,-0.983,0.016,30.0229992,-18.9649098,0.057295800000000015,87.86883888,-0.14323950000000002,-15.561539280000002
7.92,792,-0.066,-0.993,0.022,31.340802600000004,-18.6784308,-2.4637194,88.20115452,-0.13178034,-15.74488584
7.93,793,-0.071,-1.006,0.021,31.79916900000001,-17.9908812,-3.724227,88.52201099999998,-0.09167328,-15.91677324
7.94,794,-0.067,-1.015,0.024,32.142943800000005,-17.131444199999994,-4.0680017999999984,88.85432664,-0.05156622,-16.08293106
7.95,795,-0.057,-1.028,0.028,32.257535399999995,-16.615782,-3.724227,89.1809127,-0.00572958,-16.24908888
7.96,796,-0.051,-1.039,0.027000000000000003,31.2835068,-16.7876694,-2.9220857999999996,89.50176918,0.02291832,-16.409517119999997
7.97,797,-0.042,-1.048,0.027000000000000003,29.67922440000001,-16.8449652,-1.8907613999999997,89.8111665,0.03437748,-16.57567494
7.9799999999999995,798,-0.039,-1.052,0.021,27.788463,-16.386598799999998,-0.5156622000000001,90.09191592,0.04583664,-16.7303736
7.99,799,-0.036000000000000004,-1.046,0.012,25.9549974,-15.870936600000002,0.6302538000000001,90.36120618,0.04583664,-16.88507226
8.0,800,-0.031,-1.041,0.001,24.5226024,-15.3552744,1.6615782,90.60757812,0.04010706,-17.034041339999998
8.01,801,-0.025,-1.034,-0.008,23.204799,-15.4125702,1.8334656000000005,90.84822048,0.028647900000000007,-17.188740000000006
8.02,802,-0.017,-1.03,-0.013,21.6578124,-15.3552744,1.432395,91.04875578,0.01718874,-17.33770908
8.03,803,-0.015,-1.028,-0.014,20.05353,-15.126091199999998,0.6302538000000001,91.25502066,0.01718874,-17.48094858
8.04,804,-0.018000000000000002,-1.03,-0.01,18.2200644,-15.2406828,0.0,91.43836722,0.028647900000000007,-17.62991766
8.05,805,-0.018000000000000002,-1.032,-0.002,16.1001198,-15.3552744,-0.286479,91.60452504,0.04010706,-17.77888674
8.06,806,-0.022,-1.039,0.003,13.8082878,-15.126091199999998,0.11459160000000004,91.74776454000002,0.05156622,-17.927855819999994
8.07,807,-0.035,-1.045,0.009000000000000001,11.4018642,-14.5531332,1.2605076000000002,91.83943782,0.028647900000000007,-18.07109532
8.08,808,-0.041,-1.0490000000000002,0.019,9.6256944,-13.9228794,2.4637194,91.94257026,0.01145916,-18.20860524
8.09,809,-0.052000000000000005,-1.046,0.028,7.8495246,-13.120738199999998,3.3231564,92.02278438,-0.00572958,-18.34038558
8.1,810,-0.058,-1.043,0.026,5.844171599999999,-11.8602306,4.010706000000001,92.08580976,-0.04010706,-18.46070676
8.11,811,-0.062,-1.039,0.025,4.583664,-11.45916,4.583664,92.1316464,-0.07448454,-18.57529836
8.12,812,-0.064,-1.035,0.035,4.1825934,-10.9434978,5.3858052,92.1602943,-0.16042824,-18.68416038
8.13,813,-0.062,-1.033,0.036000000000000004,3.8961144,-10.313244,6.1879464,92.20040136,-0.21772404,-18.78729282
8.14,814,-0.056,-1.028,0.038,4.1825934,-9.8548776,6.8182002000000015,92.246238,-0.28074942,-18.88469568
8.15,815,-0.052000000000000005,-1.019,0.042,4.3544808,-9.224623800000002,6.990087599999999,92.29207464,-0.3437748,-18.982098540000006
8.16,816,-0.053,-1.013,0.045,4.4690724,-8.021412000000002,6.1879464,92.33791128,-0.39534102,-19.06231266
8.17,817,-0.054000000000000006,-1.004,0.05,4.5263682,-6.8182002000000015,5.0993262,92.37801834,-0.4870143000000001,-19.13106762
8.18,818,-0.06,-1.001,0.056,4.9274388,-6.4744254,4.297185,92.42958456,-0.52712136,-19.194093
8.19,819,-0.064,-0.999,0.067,5.3858052,-6.875496000000001,3.9534102,92.48115077999998,-0.56149884,-19.268577540000006
8.2,820,-0.065,-1.002,0.07,5.5576926,-7.3911582,3.724227,92.54417616,-0.59014674,-19.34306208
8.209999999999999,821,-0.068,-1.002,0.07,5.2712136,-7.5630456000000015,3.380452200000001,92.59574238000002,-0.61879464,-19.41754662
8.22,822,-0.071,-0.996,0.067,4.9274388,-7.333862400000001,2.9793816000000004,92.6473086,-0.70473834,-19.492031160000003
8.23,823,-0.075,-0.986,0.06,4.3544808,-6.9327918,2.2345362,92.69314524,-0.72192708,-19.56078612
8.24,824,-0.077,-0.98,0.056,3.8388186,-6.016058999999999,1.0886202,92.73325229999999,-0.72765666,-19.61808192
8.25,825,-0.076,-0.978,0.053,3.5523396000000003,-4.9847345999999995,0.0,92.77335936,-0.72192708,-19.66964814
8.26,826,-0.07400000000000001,-0.982,0.055,3.4377480000000005,-4.2398892,-0.9740286,92.80773684,-0.7104679199999999,-19.7097552
8.27,827,-0.07200000000000001,-0.989,0.06,3.8961144,-3.4377480000000005,-1.432395,92.83638474,-0.7849524600000001,-19.74413268
8.28,828,-0.064,-0.999,0.062,4.010706000000001,-1.8334656000000005,-1.7188740000000002,92.8764918,-0.76203414,-19.76132142
8.29,829,-0.053,-1.013,0.051,3.9534102,-0.057295800000000015,-1.5469866,92.91659886,-0.75057498,-19.76132142
8.3,830,-0.048,-1.027,0.04,4.2398892,0.6302538000000001,-1.145916,92.9624355,-0.7391158200000001,-19.74986226
8.31,831,-0.042,-1.031,0.037000000000000005,5.042030400000002,0.11459160000000004,-0.3437748,93.01400172,-0.73338624,-19.74986226
8.32,832,-0.036000000000000004,-1.021,0.04,6.0733548,-1.7761698,0.6875496,93.02546088,-0.76203414,-19.767051000000002
8.33,833,-0.029,-0.998,0.053,7.1046792000000005,-3.724227,1.7188740000000002,93.09994542,-0.7734933,-19.80142848
8.34,834,-0.023,-0.971,0.07400000000000001,8.4224826,-4.4690724,2.291832,93.18588912,-0.79641162,-19.84726512
8.35,835,-0.02,-0.959,0.085,9.3965112,-4.1825934,2.2345362,93.28329198,-0.8136003599999999,-19.88737218
8.36,836,-0.024,-0.958,0.093,9.740286,-3.6669312000000014,2.0626488000000003,93.38642442,-0.8307891,-19.927479240000004
8.37,837,-0.031,-0.966,0.108,10.313244,-3.151269,1.8334656000000005,93.52393434,-0.8594370000000001,-19.95612714
8.38,838,-0.039,-0.983,0.118,10.7143146,-2.9793816000000004,2.0053530000000004,93.63279636,-0.87662574,-19.99050462
8.39,839,-0.051,-1.006,0.126,11.0007936,-2.8074942000000003,2.4637194,93.74165838,-0.89381448,-20.01915252
8.4,840,-0.062,-1.022,0.128,11.229976800000001,-2.291832,2.5210152000000003,93.85624998,-0.9167328000000001,-20.04207084
8.41,841,-0.075,-1.027,0.126,11.0580894,-1.9480572,2.291832,93.97084158,-0.93965112,-20.05925958
8.42,842,-0.086,-1.022,0.123,10.5424272,-1.3178034,1.5469866,94.1083515,-1.0313244,-20.07644832
8.43,843,-0.095,-1.013,0.117,9.6829902,-0.1718874,0.5156622000000001,94.20575436,-1.03705398,-20.07644832
8.44,844,-0.101,-1.006,0.112,8.7662574,1.6042823999999998,-0.9740286,94.29742764,-1.0255948199999998,-20.05925958
8.45,845,-0.103,-0.999,0.109,7.6203414,3.5523396000000003,-2.5210152000000003,94.37191218,-1.00840608,-20.01915252
8.459999999999999,846,-0.1,-1.001,0.104,6.8182002000000015,5.72958,-3.8961144,94.44066714,-0.9740286,-19.96185672
8.47,847,-0.087,-1.012,0.091,5.7868758000000025,7.906820400000001,-5.0993262,94.48650378,-0.97975818,-19.87591302
8.48,848,-0.085,-1.028,0.076,4.583664,9.2819196,-5.6722842,94.52661084,-0.93392154,-19.77851016
8.49,849,-0.07,-1.031,0.071,3.4950437999999995,8.7662574,-5.2712136,94.56098832,-0.8880849000000001,-19.68683688
8.5,850,-0.057,-1.019,0.07200000000000001,2.3491278,7.0473834,-4.0680017999999984,94.58390664,-0.8537074199999999,-19.61808192
8.51,851,-0.037000000000000005,-1.011,0.078,2.1772404,6.9327918,-3.5523396000000003,94.60109538,-0.8307891,-19.54359738
8.52,852,-0.024,-1.011,0.08,2.1199446,8.59437,-3.4950437999999995,94.60109538,-0.79641162,-19.4519241
8.53,853,-0.013,-1.01,0.085,2.578311,10.4278356,-3.0939732,94.6240137,-0.7792228800000001,-19.34879166
8.54,854,-0.01,-1.01,0.08800000000000001,3.4950437999999995,10.886202,-2.6929026,94.65839118,-0.76203414,-19.23992964
8.55,855,-0.01,-1.017,0.086,4.4117766,10.5424272,-2.5210152000000003,94.69849824,-0.75057498,-19.13106762
8.56,856,-0.009000000000000001,-1.021,0.084,4.010706000000001,9.3965112,-2.578311,94.7386053,-0.73338624,-19.03939434
8.57,857,-0.009000000000000001,-1.021,0.086,3.380452200000001,8.651665800000002,-2.9220857999999996,94.75006446,-0.70473834,-18.94772106
8.58,858,-0.016,-1.021,0.083,2.291832,8.651665800000002,-3.380452200000001,94.7672532,-0.68182002,-18.86177736
8.59,859,-0.025,-1.023,0.078,1.7188740000000002,8.5370742,-3.724227,94.78444194,-0.65317212,-18.77010408
8.6,860,-0.037000000000000005,-1.023,0.075,1.432395,8.4224826,-4.010706000000001,94.7959011,-0.62452422,-18.68416038
8.61,861,-0.042,-1.015,0.079,1.3750992,8.078707799999998,-3.9534102,94.80736026,-0.59587632,-18.60394626
8.62,862,-0.041,-1.004,0.09,1.3750992,7.9641161999999985,-3.7815227999999994,94.81308984,-0.59587632,-18.518002560000006
8.63,863,-0.036000000000000004,-0.996,0.098,0.9740286,8.59437,-3.6669312000000014,94.81881942,-0.56722842,-18.43205886
8.64,864,-0.032,-0.995,0.097,0.8594370000000001,10.3705398,-3.9534102,94.824549,-0.53858052,-18.32319684
8.65,865,-0.029,-0.996,0.098,1.2032118,11.745639,-4.0680017999999984,94.83600816,-0.5099326200000001,-18.20860524
8.66,866,-0.023,-0.997,0.1,1.4896908000000002,12.891555,-4.3544808,94.84746732,-0.48128472,-18.0768249
8.67,867,-0.015,-0.999,0.101,1.432395,13.464512999999998,-4.583664,94.8531969,-0.4526368200000001,-17.93931498
8.68,868,-0.008,-1.0,0.098,1.2032118,13.464512999999998,-4.4690724,94.86465606,-0.41825934,-17.80180506
8.69,869,0.0,-1.001,0.097,1.2605076000000002,12.6623718,-4.1252976000000015,94.87611522,-0.39534102,-17.6757543
8.7,870,0.003,-1.007,0.096,1.2605076000000002,11.6310474,-3.6096354,94.88757438,-0.3724227000000001,-17.55543312
8.71,871,0.006,-1.013,0.1,0.9740286,10.3705398,-3.151269,94.89330396,-0.34950438,-17.45230068
8.72,872,0.005,-1.016,0.103,0.057295800000000015,8.7089616,-2.7501984,94.88757438,-0.30939732,-17.3606274
8.73,873,0.0,-1.018,0.102,-0.7448454000000001,7.906820400000001,-2.6356068,94.87611522,-0.29220857999999994,-17.280413279999998
8.74,874,-0.006999999999999999,-1.017,0.1,-1.3178034,7.448453999999999,-2.6356068,94.86465606,-0.27501984,-17.20592874
8.75,875,-0.012,-1.02,0.097,-1.7761698,7.3911582,-2.7501984,94.84173774,-0.25783110000000004,-17.131444199999994
8.76,876,-0.013,-1.019,0.095,-2.0053530000000004,7.161975,-2.578311,94.81881942,-0.24064236,-17.056959659999997
8.77,877,-0.012,-1.017,0.092,-1.7761698,6.990087599999999,-2.4064236,94.78444194,-0.22345362,-16.9882047
8.78,878,-0.005,-1.015,0.091,-1.8907613999999997,6.875496000000001,-2.578311,94.76152362,-0.20626488,-16.919449739999994
8.79,879,-0.002,-1.01,0.09,-2.0053530000000004,6.703608600000001,-2.578311,94.7386053,-0.18907614,-16.850694779999998
8.8,880,0.0,-1.005,0.08900000000000001,-1.8907613999999997,6.3025379999999975,-2.5210152000000003,94.72141656,-0.1718874,-16.787669400000002
8.81,881,0.002,-1.001,0.092,-1.7761698,5.5003968,-2.2345362,94.69849824,-0.15469866,-16.7303736
8.82,882,0.003,-1.0,0.096,-1.7188740000000002,4.4690724,-1.8907613999999997,94.66985034,-0.11459160000000004,-16.68453696
8.83,883,0.005,-1.004,0.099,-1.8907613999999997,3.4950437999999995,-1.6042823999999998,94.6526616,-0.10313244,-16.6444299
8.84,884,0.004,-1.011,0.101,-2.1199446,2.3491278,-1.4896908000000002,94.62974328,-0.09167328,-16.621511579999996
8.85,885,0.004,-1.015,0.092,-2.5210152000000003,1.2032118,-1.2605076000000002,94.60109538,-0.08021412,-16.61005242
8.86,886,0.003,-1.012,0.08900000000000001,-2.4637194,0.286479,-0.9167328,94.57817706,-0.06875496,-16.604322840000002
8.87,887,-0.003,-1.009,0.087,-1.8907613999999997,-0.4583664000000001,-0.5156622000000001,94.4807742,-0.06302537999999999,-16.604322840000002
8.88,888,-0.008,-1.007,0.083,-1.5469866,-0.9740286,-0.3437748,94.46358546,-0.057295800000000015,-16.615782
8.89,889,-0.013,-1.005,0.081,-1.432395,-1.3178034,-0.11459160000000004,94.4521263,-0.05156622,-16.62724116
8.9,890,-0.014,-1.001,0.083,-1.432395,-1.5469866,-0.11459160000000004,94.43493756,-0.05156622,-16.6444299
8.91,891,-0.018000000000000002,-0.997,0.081,-1.6042823999999998,-1.4896908000000002,-0.1718874,94.41774882,-0.04583664,-16.66161864
8.92,892,-0.019,-0.997,0.077,-1.432395,-1.5469866,-0.1718874,94.31461638,-0.10313244,-16.6730778
8.93,893,-0.024,-0.999,0.075,-1.2605076000000002,-1.7761698,-0.057295800000000015,94.30315722,-0.09740286,-16.69026654
8.94,894,-0.029,-1.0,0.077,-0.7448454000000001,-1.7188740000000002,0.057295800000000015,94.29169806,-0.09740286,-16.707455279999998
8.95,895,-0.029,-1.005,0.08,-0.3437748,-1.6042823999999998,0.11459160000000004,94.29169806,-0.09740286,-16.72464402
8.96,896,-0.025,-1.005,0.085,-0.057295800000000015,-1.145916,0.1718874,94.29169806,-0.09740286,-16.736103179999994
8.97,897,-0.023,-1.006,0.08800000000000001,-0.3437748,-0.572958,0.11459160000000004,94.17710646,-0.29793816,-16.74183276
8.98,898,-0.02,-1.008,0.083,-0.7448454000000001,-0.057295800000000015,0.0,94.17137688,-0.29793816,-16.74183276
