TimeStamp(s),FrameCounter,AccX,AccY,AccZ,GyrX,GyrY,GyrZ,EulerX,EulerY,EulerZ
0.01,1,0.005,-0.996,0.19,-2.1199446,-1.2605076000000002,3.7815228,96.22256652,1.1459160000000002,-21.69791946
0.02,2,0.003,-0.9940000000000001,0.19,-1.8334656000000005,-1.6042823999999998,3.4950437999999995,96.19964819999998,1.11153852,-21.7151082
0.03,3,0.001,-0.991,0.195,-1.5469866,-1.8907614,3.3231564,96.18245946,1.08289062,-21.73802652
0.04,4,0.0,-0.99,0.195,-1.4896908000000002,-2.1772404,3.2658606,96.1710003,1.05424272,-21.76094484
0.05,5,0.001,-0.991,0.19399999999999998,-1.6042823999999998,-2.291832,3.1512689999999997,96.15381156,1.0255948199999998,-21.78959274
0.060000000000000005,6,0.0,-0.99,0.193,-1.6042823999999998,-2.1772404,3.0939732,96.22256652,0.97975818,-21.80678148
0.06999999999999999,7,0.0,-0.9890000000000001,0.193,-1.6042823999999998,-2.4064236,3.0939732,96.20537778,0.95111028,-21.83542938
0.08,8,-0.001,-0.985,0.192,-1.5469866,-2.3491277999999998,3.1512689999999997,96.18818904,0.92246238,-21.86407728
0.09,9,-0.006,-0.978,0.191,-0.8594370000000001,-2.3491277999999998,2.9793816000000004,96.18245946,0.89954406,-21.886995600000002
0.09999999999999999,10,-0.01,-0.9790000000000001,0.19,-0.286479,-2.1199446,2.8074942000000003,96.17672988,0.87089616,-21.90991392
0.11,11,-0.011000000000000001,-0.981,0.192,-0.11459160000000004,-1.8334656000000005,2.4637194,96.30851022,0.8078707799999998,-21.90991392
0.12,12,-0.009000000000000001,-0.981,0.191,-0.11459160000000004,-1.4896908000000002,2.291832,96.30851022,0.7849524600000001,-21.92710266
0.13,13,-0.01,-0.9790000000000001,0.188,0.3437748,-1.6042823999999998,2.1772404,96.3142398,0.76776372,-21.944291399999997
0.14,14,-0.011000000000000001,-0.976,0.188,1.145916,-1.7761698000000001,2.0053530000000004,96.32569896,0.75057498,-21.96720972
0.15000000000000002,15,-0.009000000000000001,-0.975,0.187,1.7188740000000002,-1.8907614,1.8907614,96.34288769999999,0.73338624,-21.98439846
0.16,16,-0.006999999999999999,-0.977,0.18899999999999997,2.4637194,-1.7761698000000001,1.6615782,96.45174972,0.69900876,-21.99585762
0.17,17,-0.005,-0.982,0.188,2.6929026,-1.4896908000000002,1.5469866,96.48039762,0.6875496,-22.01304636
0.18000000000000002,18,-0.006,-0.985,0.19,3.0939732,-1.432395,1.3178034,96.5147751,0.67609044,-22.02450552
0.19,19,-0.009000000000000001,-0.988,0.192,3.380452200000001,-1.2605076000000002,1.2605076000000002,96.54915258,0.66463128,-22.04169426
0.2,20,-0.01,-0.987,0.192,3.6096353999999997,-1.2605076000000002,1.145916,96.58353006,0.65317212,-22.05315342
0.21000000000000002,21,-0.01,-0.985,0.19399999999999998,3.8961144,-1.2605076000000002,0.9740286,96.70958082,0.62452422,-22.05315342
0.22,22,-0.01,-0.985,0.19899999999999998,3.9534102,-0.6875496,0.8594370000000001,96.74968788,0.61879464,-22.06461258
0.23,23,-0.008,-0.981,0.196,3.7815228,-0.2291832000000001,0.6875496,96.78406536,0.6073354799999999,-22.06461258
0.24000000000000002,24,-0.008,-0.9790000000000001,0.19,4.1825934,-0.11459160000000004,0.286479,96.829902,0.6073354799999999,-22.07034216
0.25,25,-0.006999999999999999,-0.9840000000000001,0.18600000000000005,4.6982555999999995,-0.286479,-0.057295800000000015,96.87573864,0.6073354799999999,-22.07034216
0.26,26,-0.01,-0.988,0.19,5.042030400000002,-0.4583664000000001,-0.4583664000000001,96.99605982,0.59014674,-22.058882999999998
0.27,27,-0.012,-0.987,0.198,5.5576926,-0.6875496,-0.8021411999999999,97.05335562,0.6016058999999999,-22.06461258
0.28,28,-0.012,-0.986,0.204,5.844171599999999,-0.8021411999999999,-1.0886202,97.116381,0.61306506,-22.07034216
0.29000000000000004,29,-0.013000000000000001,-0.985,0.207,5.7868758000000025,-0.9167328000000001,-1.2605076000000002,97.1736768,0.62452422,-22.08180132
0.3,30,-0.01,-0.988,0.203,5.5003968,-1.0886202,-1.3750992,97.23097259999999,0.64171296,-22.0875309
0.31,31,-0.006,-0.9890000000000001,0.2,4.8701430000000006,-1.0886202,-1.432395,97.33983462,0.64744254,-22.0875309
0.32,32,-0.004,-0.985,0.201,4.583664,-1.432395,-1.3750992,97.38567126,0.66463128,-22.09899006
0.33,33,0.0,-0.98,0.19899999999999998,4.4690724,-1.432395,-1.3178034,97.4315079,0.67609044,-22.1161788
0.34,34,0.002,-0.981,0.201,4.583664,-1.4896908000000002,-1.3750992,97.47734454000002,0.69327918,-22.12763796
0.35000000000000003,35,0.005,-0.985,0.20600000000000002,4.6409598,-1.7761698000000001,-1.2605076000000002,97.52318118,0.7104679199999999,-22.13909712
0.36000000000000004,36,0.004,-0.986,0.212,5.0993262,-2.1199446,-0.9740286,97.64350236,0.72192708,-22.16201544
0.37,37,0.003,-0.987,0.217,5.2712136,-2.3491277999999998,-0.8594370000000001,97.69506857999998,0.73338624,-22.17920418
0.38,38,0.005,-0.988,0.21899999999999997,5.1566220000000005,-2.5210152000000003,-0.6875496,97.7466348,0.7448454000000001,-22.2021225
0.39,39,0.004,-0.9890000000000001,0.221,4.8128472,-2.6929026,-0.6302538000000001,97.79820102,0.75630456,-22.2307704
0.4,40,0.005,-0.99,0.226,4.4690724,-2.6356068,-0.6875496,97.84403766,0.76776372,-22.25368872
0.41000000000000003,41,0.005,-0.991,0.23,3.8961144,-2.4064236,-0.7448454000000001,97.975818,0.7734933,-22.27087746
0.42000000000000004,42,0.005,-0.9940000000000001,0.22699999999999998,3.2658606,-2.1772404,-0.7448454000000001,98.00446590000001,0.7849524600000001,-22.29379578
0.43,43,0.006,-0.993,0.22899999999999998,2.7501984,-2.1199446,-0.7448454000000001,98.0331138,0.79641162,-22.31098452
0.44,44,0.006,-0.991,0.22899999999999998,2.291832,-2.2345362,-0.8594370000000001,98.0617617,0.8078707799999998,-22.33390284
0.45,45,0.005,-0.987,0.22899999999999998,2.1199446,-2.4064236,-0.7448454000000001,98.07895044,0.8193299399999999,-22.35682116000001
0.46,46,0.008,-0.987,0.235,2.2345362,-2.6929026,-0.8021411999999999,98.2050012,0.8307891,-22.37973948
0.47000000000000003,47,0.006999999999999999,-0.985,0.23600000000000002,2.3491277999999998,-2.9793816000000004,-0.9167328000000001,98.2336491,0.8479778399999999,-22.40838738
0.48000000000000004,48,0.01,-0.985,0.23800000000000002,2.6356068,-3.2085647999999996,-0.9740286,98.25656742,0.86516658,-22.43703528
0.49,49,0.006,-0.982,0.245,3.1512689999999997,-3.4377480000000005,-1.0886202,98.2909449,0.8823553199999999,-22.47141276
0.5,50,0.0,-0.982,0.249,3.380452200000001,-3.8388186,-1.0313244000000001,98.32532238000002,0.89954406,-22.50579024
0.51,51,0.0,-0.985,0.245,3.1512689999999997,-4.0680017999999984,-1.0886202,98.4341844,0.90527364,-22.53443814
0.52,52,0.0,-0.9890000000000001,0.244,2.7501984,-3.8388186,-1.145916,98.4628323,0.92246238,-22.5745452
0.53,53,0.001,-0.9890000000000001,0.242,2.5210152000000003,-3.1512689999999997,-1.2032118,98.4914802,0.93965112,-22.603193100000002
0.54,54,0.002,-0.987,0.24,2.3491277999999998,-2.4637194,-1.3178034,98.51439852,0.95683986,-22.62038184
0.55,55,0.001,-0.985,0.24,2.4637194,-2.4637194,-1.432395,98.53731684,0.9740286,-22.64330016
0.56,56,0.0,-0.983,0.24,2.6356068,-2.5783110000000002,-1.432395,98.65190844,0.97975818,-22.6604889
0.5700000000000001,57,-0.002,-0.981,0.23800000000000002,2.6356068,-2.5210152000000003,-1.5469866,98.68055634,0.9969469199999998,-22.67767764
0.5800000000000001,58,-0.002,-0.981,0.233,2.6929026,-2.6929026,-1.6615782,98.70920424,1.01986524,-22.70632554
0.59,59,-0.004,-0.981,0.23600000000000002,2.5783110000000002,-2.6356068,-1.8907614,98.73785214,1.04278356,-22.72351428
0.6,60,0.0,-0.98,0.237,2.7501984,-2.3491277999999998,-2.0053530000000004,98.76077046,1.06570188,-22.7464326
0.61,61,0.001,-0.981,0.243,2.6356068,-1.9480572,-2.1199446,98.88682122,1.07716104,-22.75216218
0.62,62,0.002,-0.983,0.249,2.291832,-1.3750992,-2.0053530000000004,98.90973954,1.10007936,-22.76362134
0.63,63,-0.001,-0.9790000000000001,0.247,1.8334656000000005,-1.0886202,-2.0053530000000004,98.92692828,1.12299768,-22.76935092
0.64,64,0.003,-0.9790000000000001,0.244,1.3178034,-1.145916,-1.9480572,98.93838744,1.1459160000000002,-22.78081008
0.65,65,0.006,-0.983,0.244,1.0886202,-1.2032118,-2.0626488000000003,98.94984659999999,1.1688343199999998,-22.78653966
0.66,66,0.003,-0.985,0.245,1.0886202,-0.9167328000000001,-2.2345362,99.09881568,1.1688343199999998,-22.78081008
0.67,67,0.006,-0.988,0.25,0.7448454000000001,-0.3437748,-2.3491277999999998,99.11027484,1.19175264,-22.78081008
0.68,68,0.009000000000000001,-0.993,0.252,0.2291832000000001,0.3437748,-2.2345362,99.11027484,1.21467096,-22.76935092
0.6900000000000001,69,0.012,-0.993,0.254,-0.11459160000000004,0.4583664000000001,-2.1772404,99.11027484,1.2318597,-22.76362134
0.7000000000000001,70,0.016,-0.9890000000000001,0.252,0.2291832000000001,-0.057295800000000015,-2.1772404,99.11027484,1.25477802,-22.76362134
0.7100000000000001,71,0.027000000000000003,-0.992,0.251,0.40107059999999994,-1.0886202,-2.4064236,99.25924392,1.31207382,-22.78653966
0.72,72,0.031,-0.996,0.254,0.0,-1.6615782,-2.1772404,99.25924392,1.3349921400000002,-22.79799882
0.73,73,0.028999999999999998,-0.996,0.255,-0.40107059999999994,-1.4896908000000002,-1.8907614,99.25351434,1.3579104599999998,-22.80945798
0.74,74,0.026000000000000002,-0.987,0.248,-1.145916,-1.3178034,-1.8907614,99.24205518,1.3750992,-22.82091714
0.75,75,0.026000000000000002,-0.9790000000000001,0.251,-1.6042823999999998,-1.4896908000000002,-2.0626488000000003,99.22486644,1.39801752,-22.8323763
0.76,76,0.015,-0.973,0.248,-0.9740286,-2.1772404,-2.1772404,99.31081014,1.40947668,-22.83810588
0.77,77,0.009000000000000001,-0.97,0.245,-0.057295800000000015,-2.86479,-2.5783110000000002,99.31081014,1.43812458,-22.8610242
0.78,78,0.016,-0.972,0.253,0.057295800000000015,-3.2658606,-2.6929026,99.31081014,1.47250206,-22.8896721
0.79,79,0.015,-0.975,0.25,0.11459160000000004,-3.5523396000000003,-2.7501984,99.31653972,1.50687954,-22.91832
0.8,80,0.011000000000000001,-0.977,0.247,-0.11459160000000004,-3.8961144,-3.0366774,99.31081014,1.5412570200000002,-22.95269748
0.81,81,0.012,-0.9790000000000001,0.244,-0.286479,-4.0680017999999984,-3.4950437999999995,99.36810594,1.5756344999999998,-22.98134538
0.8200000000000001,82,0.013000000000000001,-0.983,0.24100000000000002,-0.5156622000000001,-4.4117766,-4.010706000000001,99.36237636,1.6272007199999998,-23.015722860000004
0.8300000000000001,83,0.015,-0.983,0.243,-0.6875496,-4.4117766,-4.4117766,99.35664678,1.6787669399999998,-23.05582992
0.8400000000000001,84,0.015,-0.9840000000000001,0.242,-0.8594370000000001,-4.2398892,-4.583664,99.34518762,1.73033316,-23.090207400000004
0.85,85,0.013000000000000001,-0.987,0.243,-1.0313244000000001,-4.583664,-4.8701430000000006,99.33372846,1.78762896,-23.12458488
0.86,86,0.009000000000000001,-0.987,0.245,-0.6875496,-4.297185,-5.3858052,99.3795651,1.8334656000000005,-23.1475032
0.87,87,0.002,-0.9840000000000001,0.248,-0.5156622000000001,-3.6096353999999997,-5.9014674000000005,99.37383552,1.89649098,-23.17042152
0.88,88,0.006999999999999999,-0.9840000000000001,0.244,-0.6302538000000001,-3.9534102,-6.130650599999999,99.36810594,1.96524594,-23.19906942
0.89,89,0.01,-0.987,0.243,-0.9740286,-4.4117766,-6.4744254,99.35664678,2.0340009,-23.2334469
0.9,90,0.01,-0.983,0.24100000000000002,-1.145916,-4.583664,-6.6463128000000005,99.34518762,2.10848544,-23.26782438
0.91,91,0.009000000000000001,-0.9790000000000001,0.237,-1.2032118,-4.583664,-7.1046792000000005,99.36810594,2.18296998,-23.29647228
0.92,92,0.031,-0.982,0.247,-1.3178034,-3.5523396000000003,-7.734933000000002,99.3509172,2.2631841,-23.3193906
0.93,93,0.035,-0.982,0.243,-1.3178034,-2.6929026,-8.136003599999999,99.33945804,2.3491278,-23.33084976
0.9400000000000001,94,0.022000000000000002,-0.9790000000000001,0.253,-0.9167328000000001,-2.5783110000000002,-8.479778399999999,99.32799888,2.4350715000000003,-23.34230892
0.9500000000000001,95,0.025,-0.975,0.26,-0.8594370000000001,-2.2345362,-9.453807,99.3222693,2.53247436,-23.3480385
0.9600000000000001,96,0.03,-0.975,0.258,-0.7448454000000001,-1.432395,-10.313244000000001,99.36237636,2.62987722,-23.34230892
0.97,97,0.021,-0.975,0.254,-1.0313244000000001,-0.7448454000000001,-10.886202,99.3509172,2.73873924,-23.33084976
0.98,98,0.008,-0.976,0.262,-1.5469866,0.572958,-11.745639,99.33945804,2.85333084,-23.30793144
0.99,99,0.01,-0.9690000000000001,0.258,-1.9480572,2.7501984,-13.0061466,99.31653972,2.9736520200000003,-23.25636522
1.0,100,0.016,-0.966,0.263,-2.5783110000000002,5.6149884000000005,-14.610429000000002,99.2936214,3.11116194,-23.18188068
1.01,101,0.044000000000000004,-0.963,0.271,-2.9793816000000004,9.9121734,-16.329303,99.2936214,3.25440144,-23.05582992
1.02,102,0.05,-0.973,0.244,-2.6929026,10.599723,-17.18874,99.27070308,3.39764094,-22.92404958
1.03,103,0.025,-0.992,0.226,-2.0626488000000003,9.2819196,-17.589810600000003,99.25924392,3.5580691799999995,-22.80945798
1.04,104,0.015,-0.991,0.23,-1.6615782,8.59437,-18.8503182,99.24778476,3.7242269999999995,-22.69486638
1.05,105,0.02,-0.981,0.23199999999999998,-1.145916,8.021412000000002,-20.454600600000006,99.23632559999999,3.90757356,-22.58027478
1.06,106,0.026000000000000002,-0.971,0.233,-0.6875496,7.6776372,-21.886995600000002,99.25351434,4.0966497,-22.46568318
1.07,107,0.027000000000000003,-0.9690000000000001,0.231,-0.11459160000000004,6.9327918,-22.91832,99.25924392,4.30864416,-22.35682116000001
1.08,108,0.03,-0.9790000000000001,0.23800000000000002,0.0,5.6149884000000005,-24.064236,99.2649735,4.53782736,-22.26514788
1.09,109,0.037000000000000005,-0.991,0.243,-1.2605076000000002,3.2085647999999996,-25.4393352,99.25351434,4.77846972,-22.19066334
1.1,110,0.045,-0.991,0.244,-2.2345362,0.9740286,-26.4706596,99.23632559999999,5.03630082,-22.13909712
1.11,111,0.055,-0.9940000000000001,0.24,-3.0939732,-1.4896908000000002,-27.100913399999996,99.21913686,5.2998615,-22.10471964000001
1.12,112,0.067,-1.001,0.242,-3.8961144,-3.8961144,-27.4446882,99.18475938,5.574881339999999,-22.09899006
1.1300000000000001,113,0.077,-1.003,0.261,-4.6409598,-5.5576926,-27.6165756,99.13319316,5.85563076,-22.11044922
1.1400000000000001,114,0.08,-1.012,0.27699999999999997,-5.5576926,-6.3025379999999975,-27.7311672,99.07589736,6.13638018,-22.12763796
1.1500000000000001,115,0.071,-1.023,0.268,-7.5630456000000015,-6.4744254,-28.074942,98.99568324,6.428588760000001,-22.14482670000001
1.1600000000000001,116,0.071,-1.021,0.266,-9.1100322,-7.6203414,-28.934378999999996,98.91546912,6.7150677599999975,-22.173474600000002
1.17,117,0.076,-1.0090000000000001,0.261,-10.4851314,-10.026765,-30.5386614,98.80087752,7.03592424,-22.22504082
1.18,118,0.08199999999999999,-0.9990000000000001,0.26,-11.2872726,-11.401864199999999,-31.856464799999998,98.68055634,7.3625102999999985,-22.2880662
1.19,119,0.07,-0.9890000000000001,0.255,-12.032118,-11.1153852,-33.403451399999994,98.548776,7.71201468,-22.345361999999998
1.2,120,0.07,-0.995,0.255,-12.2040054,-10.943497800000001,-35.52339600000001,98.42272524,8.0787078,-22.4026578
1.21,121,0.081,-0.992,0.265,-13.464512999999998,-11.8602306,-38.159002799999996,98.2909449,8.46831924,-22.459953600000002
1.22,122,0.10099999999999999,-0.977,0.26,-14.5531332,-12.891555,-40.1643558,98.13051665999998,8.880849000000003,-22.52870856
1.23,123,0.10400000000000001,-0.9690000000000001,0.24100000000000002,-14.610429000000002,-13.178034,-41.883229799999995,97.97008842,9.31629708,-22.603193100000002
1.24,124,0.105,-0.978,0.23199999999999998,-14.037471,-13.2353298,-43.831286999999996,97.82111934,9.7689339,-22.67194806
1.25,125,0.10400000000000001,-0.9890000000000001,0.22699999999999998,-14.037471,-13.750992000000002,-45.6647526,97.66642068,10.23875946,-22.7464326
1.26,126,0.105,-0.99,0.22399999999999998,-14.32395,-13.980175199999998,-47.269035,97.51172202,10.7143146,-22.81518756
1.27,127,0.10400000000000001,-0.991,0.225,-14.7250206,-14.438541599999999,-48.987909,97.35129378,11.21851764,-22.89540168
1.28,128,0.105,-0.983,0.22399999999999998,-15.3552744,-15.2406828,-51.10785360000001,97.17940638,11.745639,-22.98134538
1.29,129,0.113,-0.975,0.223,-15.5844576,-14.438541599999999,-52.998615,97.0017894,12.28421952,-23.0615595
1.3,130,0.128,-0.9590000000000001,0.207,-16.1001198,-13.178034,-54.6028974,96.829902,12.84571836,-23.13031446
1.31,131,0.139,-0.9490000000000001,0.19,-15.756345,-12.4331886,-56.149884,96.6580146,13.4072172,-23.18188068
1.32,132,0.15,-0.961,0.17800000000000002,-14.667724800000002,-12.891555,-57.58227899999999,96.49758636,13.99163436,-23.24490606
1.33,133,0.151,-0.971,0.182,-13.3499214,-14.0947668,-58.15523699999999,96.34288769999999,14.581781099999999,-23.3193906
1.34,134,0.16899999999999998,-0.988,0.187,-12.261301199999998,-15.183387000000002,-57.92605379999999,96.19964819999998,15.17192784,-23.4053343
1.35,135,0.193,-1.005,0.201,-11.9748222,-16.615782,-57.2385042,96.05067912,15.762074579999998,-23.51419632
1.36,136,0.233,-1.0090000000000001,0.213,-12.318597,-17.9908812,-56.4936588,95.90171004,16.33503258,-23.634517499999998
1.37,137,0.271,-1.005,0.207,-12.3758928,-20.168121600000006,-55.5196302,95.72982263999998,16.91372016,-23.78348658
1.3800000000000001,138,0.289,-1.0070000000000001,0.193,-12.3758928,-23.777757,-54.6028974,95.55220566,17.48094858,-23.96683314
1.3900000000000001,139,0.27699999999999997,-1.012,0.17,-13.0634424,-28.934378999999996,-53.39968560000001,95.34594078,18.04244742,-24.21320508
1.4000000000000001,140,0.266,-1.011,0.18100000000000002,-13.3499214,-34.3201842,-52.2537696,95.12248716,18.59821668,-24.522602400000004
1.4100000000000001,141,0.256,-1.003,0.20199999999999999,-14.9542038,-35.8671708,-51.33703679999999,94.87611522,19.1367972,-24.8377293
1.42,142,0.258,-0.987,0.214,-16.501190400000002,-33.0596766,-50.993262,94.61255454,19.67537772,-25.14139704
1.43,143,0.26899999999999996,-0.977,0.20199999999999999,-18.5638392,-29.392745399999995,-50.5348956,94.3375347,20.20822866,-25.40495772
1.44,144,0.285,-0.975,0.188,-19.8243468,-25.4393352,-49.61816279999999,94.05678528,20.72389086,-25.639870499999997
1.45,145,0.29,-0.975,0.166,-21.5432208,-21.314037600000002,-49.1025006,93.77030628,21.2280939,-25.82894664
1.46,146,0.282,-0.9620000000000001,0.153,-23.7204612,-17.589810600000003,-49.04520479999999,93.48382728,21.72083778,-25.97218614
1.47,147,0.282,-0.9420000000000001,0.145,-24.923673,-14.7250206,-50.420303999999994,93.18015954,22.2307704,-26.103966480000004
1.48,148,0.3,-0.924,0.145,-25.4393352,-12.776963400000001,-52.998615,92.88222138,22.76362134,-26.20709892
1.49,149,0.317,-0.914,0.124,-25.0955604,-10.886202,-55.977996600000004,92.59574238000002,23.32512018,-26.2987722
1.5,150,0.326,-0.907,0.114,-24.637194,-9.0527364,-58.78549079999999,92.31499296,23.91526692,-26.37325674
1.51,151,0.33899999999999997,-0.9109999999999999,0.113,-24.2361234,-6.703608600000001,-61.1346186,92.05143228,24.51687282,-26.41336380000001
1.52,152,0.359,-0.9109999999999999,0.106,-25.2674478,-5.2139178,-62.45242200000001,91.78214202,25.13566746,-26.447741279999995
1.53,153,0.364,-0.903,0.125,-26.0122932,-5.2139178,-63.1972674,91.5013926,25.76592126,-26.48784834
1.54,154,0.371,-0.884,0.141,-26.069589,-5.2712136,-64.28588760000001,91.21491359999999,26.40190464,-26.533684980000004
1.55,155,0.381,-0.856,0.141,-26.69984280000001,-5.0993262,-66.3485364,90.92270502,27.06080634,-26.57379204
1.56,156,0.39399999999999996,-0.8290000000000001,0.14,-26.1841806,-5.2139178,-69.6716928,90.64768518,27.75408552,-26.61962868
1.57,157,0.4,-0.81,0.134,-23.9496444,-5.72958,-73.6823988,90.37839492,28.48747176,-26.67692448
1.58,158,0.396,-0.804,0.142,-21.5432208,-5.042030400000002,-77.17744259999998,90.13202298,29.24950590000001,-26.728490700000002
1.59,159,0.392,-0.81,0.145,-19.652459399999998,-4.1252976000000015,-80.2714158,89.90856936,30.04591752,-26.77432734000001
1.6,160,0.39799999999999996,-0.82,0.139,-18.6784308,-3.2658606,-82.7351352,89.6965749,30.87097704,-26.8144344
1.61,161,0.419,-0.835,0.141,-17.9908812,-2.3491277999999998,-85.42803780000001,89.50749876,31.70749572,-26.84308230000001
1.62,162,0.446,-0.852,0.14400000000000002,-17.475219,-1.6042823999999998,-88.06364459999998,89.31269304,32.58412146,-26.8717302
1.6300000000000001,163,0.465,-0.879,0.139,-16.902261,-0.3437748,-91.21491359999999,89.12934648,33.4893951,-26.88891894
1.6400000000000001,164,0.465,-0.897,0.134,-17.3606274,0.057295800000000015,-94.5953658,88.94027034,34.42331664,-26.90610768
1.6500000000000001,165,0.475,-0.895,0.122,-18.6784308,0.8594370000000001,-97.2882684,88.73973504,35.39161566,-26.91756684
1.6600000000000001,166,0.484,-0.883,0.122,-20.3973048,-0.8594370000000001,-99.2936214,88.52201099999998,36.36564426,-26.94621474
1.6700000000000002,167,0.48,-0.861,0.138,-21.5432208,-2.0053530000000004,-101.81463659999999,88.26417990000002,37.37405034,-27.00351054
1.68,168,0.489,-0.841,0.115,-22.517249399999997,-0.7448454000000001,-105.0232014,88.0063488,38.4168339,-27.05507676
1.69,169,0.483,-0.815,0.10800000000000001,-24.350715,1.145916,-107.8306956,87.73132896,39.48253578,-27.08945424
1.7,170,0.494,-0.7979999999999999,0.113,-25.668518399999996,5.2139178,-109.5495696,87.47349786,40.57115598,-27.08372466
1.71,171,0.523,-0.8009999999999999,0.07200000000000001,-26.4706596,9.5111028,-110.4663024,87.24431466,41.6540466,-27.014969699999998
1.72,172,0.5770000000000001,-0.8079999999999999,0.053,-26.69984280000001,10.599723,-111.4976268,87.01513145999998,42.75985554,-26.95194432000001
1.73,173,0.632,-0.7959999999999999,0.017,-25.668518399999996,8.651665800000002,-110.9246688,86.78021868,43.8599349,-26.91183726
1.74,174,0.6779999999999999,-0.8,0.023,-23.0902074,6.2452422,-109.3203864,86.53957632,44.9485551,-26.91183726
1.75,175,0.7020000000000001,-0.809,0.027999999999999997,-21.829699800000004,6.0733548,-106.68477959999998,86.31039312,46.00279782,-26.92329642
1.76,176,0.722,-0.8270000000000001,0.005,-22.345361999999998,5.72958,-102.9605526,86.06975076,47.01693347999999,-26.929026
1.77,177,0.763,-0.8370000000000001,0.002,-21.829699800000004,2.4637194,-98.09040959999999,85.8004605,47.99096208,-26.99778096
1.78,178,0.831,-0.833,0.027999999999999997,-21.944291399999997,-2.5783110000000002,-93.85052040000001,85.46814486,48.91342446,-27.14102046
1.79,179,0.8690000000000001,-0.799,0.005,-23.5485738,-5.6722842,-89.1522648,85.07853342,49.79577978,-27.34155576
1.8,180,0.8420000000000001,-0.745,-0.019,-25.9549974,-8.4224826,-84.11023440000002,84.62016702,50.61510972,-27.5879277
1.81,181,0.768,-0.664,-0.027999999999999997,-27.272800800000002,-6.3025379999999975,-79.5838662,84.17325978,51.39433260000001,-27.805651739999995
1.82,182,0.6629999999999999,-0.593,-0.023,-26.356068,-0.2291832000000001,-76.8336678,83.80083708,52.15063716,-27.94316166
1.83,183,0.62,-0.565,-0.001,-24.809081399999997,6.875496000000001,-75.05749800000002,83.52581724,52.89548255999999,-27.96607998
1.84,184,0.623,-0.6,0.005,-26.0122932,13.0061466,-72.479187,83.31955236,53.61740964000001,-27.891595440000003
1.85,185,0.667,-0.624,0.008,-29.8511118,17.589810600000003,-70.6457214,83.1362058,54.32787755999999,-27.73689678
1.86,186,0.745,-0.612,-0.03,-30.882436199999997,20.912967000000002,-69.9581718,82.98723672,55.03261590000001,-27.52490232
1.87,187,0.805,-0.545,-0.048,-31.111619399999995,21.829699800000004,-70.7030172,82.85545637999998,55.748813399999996,-27.3014487
1.8800000000000001,188,0.7959999999999999,-0.486,-0.07400000000000001,-27.903054600000004,20.340009,-72.479187,82.72940562,56.47647006,-27.10664298
1.8900000000000001,189,0.7140000000000001,-0.445,-0.08,-24.1788276,17.0741484,-73.625103,82.59189570000002,57.215585880000006,-26.96913306
1.9000000000000001,190,0.644,-0.39399999999999996,-0.08199999999999999,-21.2567418,15.756345,-74.48454,82.46584494,57.96616086,-26.86027104
1.9100000000000001,191,0.603,-0.349,-0.069,-19.8243468,15.813640800000002,-75.05749800000002,82.35125334,58.722465420000006,-26.7571386
1.9200000000000002,192,0.611,-0.312,-0.04,-18.6784308,18.6784308,-75.74504759999998,82.29395754,59.48449956,-26.596710360000003
1.93,193,0.621,-0.298,-0.046,-16.157415599999997,24.2361234,-74.82831479999999,82.36844208,60.24653370000001,-26.315960940000004
1.94,194,0.607,-0.302,-0.027999999999999997,-13.2353298,30.194886600000004,-73.052145,82.58616612,60.99710868000001,-25.90343118
1.95,195,0.649,-0.308,-0.037000000000000005,-13.0061466,37.872523799999996,-71.61975,82.97004798,61.73622450000001,-25.30755486
1.96,196,0.731,-0.326,-0.064,-10.7143146,39.47680620000001,-71.1040878,83.4226848,62.47534032,-24.6658419
1.97,197,0.8079999999999999,-0.397,-0.034,-9.224623800000002,37.7006364,-71.1040878,83.89823994000002,63.20872656,-24.01839936
1.98,198,0.9109999999999999,-0.445,-0.021,-8.651665800000002,41.0237928,-71.5051584,84.47692752,63.94784238,-23.26782438
1.99,199,0.9620000000000001,-0.44799999999999995,0.011000000000000001,-8.307891,44.4615408,-72.93755340000001,85.16447712,64.69268778,-22.4026578
2.0,200,0.9520000000000001,-0.428,0.054000000000000006,-9.9121734,47.0398518,-75.1147938,85.93224083999998,65.4604515,-21.43435878
2.01,201,0.983,-0.4370000000000001,0.026000000000000002,-8.880849000000003,46.925260200000004,-74.88561059999998,86.76875952,66.21675606,-20.41449354
2.02,202,1.035,-0.451,0.019,-8.9954406,42.1697088,-72.70837019999998,87.55371198,66.95014230000001,-19.4519241
2.03,203,1.073,-0.397,0.027000000000000003,-9.453807,36.554720399999994,-72.88025760000002,88.25272074,67.67206938000001,-18.58102794
2.04,204,1.089,-0.34600000000000003,0.098,-8.7089616,31.1689152,-74.5418358,88.88297453999998,68.4111852,-17.80180506
2.05,205,1.0959999999999999,-0.32899999999999996,0.126,-6.589017,27.100913399999996,-76.1461182,89.47885086,69.16748976,-17.085607560000003
2.0599999999999996,206,1.0859999999999999,-0.359,0.094,-3.6096353999999997,22.058882999999998,-75.343977,90.03462012,69.91233516,-16.44962418
2.07,207,1.1079999999999999,-0.34,0.095,-4.6982555999999995,18.334656,-73.45321560000002,90.50444568,70.63426224,-15.8995845
2.0799999999999996,208,1.121,-0.287,0.035,-3.5523396000000003,13.120738199999998,-71.1040878,90.8711388,71.333271,-15.469866
2.09,209,1.093,-0.24,0.044000000000000004,-1.8907614,9.5111028,-69.4998054,91.17480654,72.02082060000002,-15.126091199999998
2.0999999999999996,210,1.005,-0.21600000000000005,0.062,0.286479,8.021412000000002,-68.98414319999999,91.48420386,72.70264062,-14.80523472
2.11,211,0.9009999999999999,-0.198,0.11199999999999999,1.8907614,8.5370742,-69.15603060000001,91.89673362,73.39019022,-14.39843454
2.1199999999999997,212,0.845,-0.201,0.114,2.3491277999999998,11.401864199999999,-69.0987348,92.40093666,74.07201024000003,-13.89996108
2.13,213,0.8079999999999999,-0.19399999999999998,0.092,2.1199446,15.813640800000002,-68.6403684,93.09994542,74.74237109999999,-13.18949316
2.1399999999999997,214,0.784,-0.171,0.09300000000000001,3.2085647999999996,19.4232762,-68.41118519999999,94.01667822,75.4012728,-12.27276036
2.15,215,0.7559999999999999,-0.128,0.175,4.297185,24.694489800000003,-68.6403684,95.23707876,76.05444492,-11.05235982
2.1599999999999997,216,0.741,-0.081,0.245,6.1879464,33.2888598,-69.21332640000001,97.04189646,76.70188746,-9.26473086
2.17,217,0.764,-0.049,0.24600000000000002,8.021412000000002,40.4508348,-68.98414319999999,99.2649735,77.31495251999998,-7.06457214
2.1799999999999997,218,0.805,-0.055,0.215,10.599723,45.2063862,-67.9528188,101.9292282,77.88218094,-4.4404245000000016
2.19,219,0.848,-0.07400000000000001,0.156,12.605075999999999,47.784697200000004,-66.176649,104.97163518,78.39784313999998,-1.45531332
2.1999999999999997,220,0.8690000000000001,-0.062,0.133,14.610429000000002,51.5089242,-65.4890994,108.46667898,78.86193912,1.9595163600000003
2.21,221,0.885,-0.037000000000000005,0.15,18.2200644,55.1758554,-66.2912406,112.53468078,79.28019846,5.9129265600000025
2.2199999999999998,222,0.929,-0.016,0.196,22.1161788,58.2698286,-66.86419860000001,117.04386024,79.62970284,10.2845961
2.23,223,0.996,0.003,0.23,26.41336380000001,59.473040399999995,-66.749607,121.93692156,79.90472267999998,14.99431086
2.2399999999999998,224,1.057,-0.002,0.293,29.335449600000004,59.7022236,-66.00476160000001,127.07062524,80.09379881999998,19.9102905
2.25,225,1.131,0.013999999999999999,0.314,30.997027799999998,58.6136034,-65.603691,132.31892052,80.21412000000002,24.92940258
2.26,226,1.219,0.026000000000000002,0.3,31.6845774,58.2125328,-65.317212,137.67607782,80.25422705999998,30.04018794000001
2.27,227,1.28,0.01,0.25,31.2835068,57.06661679999999,-62.96808420000001,142.8384294,80.20839042,34.96762674
2.28,228,1.368,-0.035,0.299,30.7678446,53.7434604,-57.8114622,147.56533290000004,80.08806924,39.45388788
2.29,229,1.4869999999999999,-0.086,0.349,26.5279554,51.6235158,-47.784697200000004,151.56457974,79.87607478,43.25259942
2.3,230,1.5659999999999998,-0.106,0.409,18.506543399999998,48.414951,-33.3461556,154.52104302,79.58959578,46.07155278000001
2.31,231,1.53,-0.087,0.473,13.407217200000002,43.7166954,-18.7357266,156.49201854,79.26300972,47.94512544000001
2.32,232,1.436,-0.068,0.455,10.2559482,40.5654264,-7.906820400000001,157.72960782,78.91923492,49.1025006
2.3299999999999996,233,1.3219999999999998,-0.071,0.406,9.396511199999999,35.0650296,0.3437748,158.41715742000005,78.59264886000003,49.70983608
2.34,234,1.158,-0.053,0.4370000000000001,7.161975,32.7159018,5.7868758000000025,158.7666618,78.2660628,49.99631508
2.3499999999999996,235,1.018,-0.048,0.43,6.5317212,33.8618178,6.875496000000001,159.0531408,77.92801758,50.23122786
2.36,236,0.9009999999999999,-0.015,0.40299999999999997,3.4377480000000005,30.8251404,3.6669312000000014,159.66047627999995,77.57278362,50.78126754
2.3699999999999997,237,0.831,0.055,0.39899999999999997,1.5469866,28.361421000000004,-1.4896908000000002,160.13603142000005,77.31495251999998,51.25682267999999
2.38,238,0.767,0.113,0.349,0.6302538000000001,27.903054600000004,-6.130650599999999,160.76628522,77.06858058,51.90426521999999
2.3899999999999997,239,0.7,0.145,0.299,3.5523396000000003,31.1689152,-11.3445684,161.6600997,76.81074948,52.78089096
2.4,240,0.675,0.141,0.263,6.8182002000000015,32.830493399999995,-13.636400400000001,162.65704662000005,76.54145922000002,53.7434604
2.4099999999999997,241,0.701,0.051,0.266,10.026765,33.231564,-13.2353298,163.6941006,76.24925064,54.70030026000001
2.42,242,0.752,-0.071,0.282,11.401864199999999,34.2055926,-9.6256944,164.5248897,75.9455829,55.43941608
2.4299999999999997,243,0.813,-0.113,0.29,9.6256944,36.096354,-5.3858052,165.15514349999995,75.61326726,55.99518534
2.44,244,0.866,-0.055,0.327,7.734933000000002,38.10170700000001,-2.2345362,165.64215780000004,75.25230372,56.42490384
2.4499999999999997,245,0.9259999999999999,0.0,0.34299999999999997,7.333862400000001,38.38818600000001,-0.1718874,166.03176924000005,74.87988102,56.75721948
2.46,246,1.022,0.016,0.34600000000000003,7.333862400000001,37.9871154,2.1199446,166.38700319999995,74.50172874,57.03223932000001
2.4699999999999998,247,1.111,0.006,0.345,6.417129599999999,36.1536498,4.010706000000001,166.57607934,74.1407652,57.16974924
2.48,248,1.131,-0.025,0.35700000000000004,4.4117766,32.142943800000005,5.7868758000000025,166.6448343,73.81990872,57.19839714
2.4899999999999998,249,1.1,-0.07200000000000001,0.366,0.8021411999999999,28.0176462,6.9327918,166.6161864,73.53342971999999,57.16401966
2.5,250,1.053,-0.111,0.364,-4.5263682,23.0902074,7.0473834,166.49013564,73.29278736,57.08380553999999
2.51,251,1.052,-0.115,0.371,-7.906820400000001,21.142150199999996,6.0733548,166.34689614,73.06360416,57.02078016
2.52,252,1.053,-0.094,0.38,-7.6203414,20.454600600000006,5.0993262,166.2437637,72.85733927999998,56.99786184000001
2.53,253,1.053,-0.076,0.413,-5.3285094000000015,19.7097552,4.1252976000000015,166.1864679,72.65680397999998,56.99786184000001
2.54,254,0.9990000000000001,-0.073,0.39799999999999996,-4.0680017999999984,16.501190400000002,2.4064236,166.17500874,72.49064616,57.0379689
2.55,255,0.95,-0.076,0.42,-5.443101,13.407217200000002,0.6875496,166.1864679,72.35886581999998,57.10099428
2.56,256,0.937,-0.085,0.395,-6.990087599999999,9.9694692,0.5156622000000001,166.16927916,72.21562631999998,57.16401966
2.57,257,0.932,-0.091,0.392,-8.9381448,5.7868758000000025,-0.057295800000000015,166.11771294,72.16406009999999,57.20412672
2.5799999999999996,258,0.9490000000000001,-0.095,0.408,-9.682990199999999,3.5523396000000003,-1.3178034,166.07760588000005,72.12968262000003,57.267152100000004
2.59,259,0.94,-0.11900000000000001,0.38799999999999996,-10.7716104,-1.5469866,-2.0053530000000004,166.01458050000005,72.15260094,57.31871832
2.5999999999999996,260,0.9359999999999999,-0.129,0.391,-12.776963400000001,-6.130650599999999,-3.380452200000001,165.94009596,72.2213559,57.37601412
2.61,261,0.94,-0.12,0.4270000000000001,-13.407217200000002,-8.7662574,-4.010706000000001,165.85988184,72.2786517,57.43330992
2.6199999999999997,262,0.9570000000000001,-0.10800000000000001,0.428,-12.2040054,-11.45916,-4.010706000000001,165.77393813999996,72.39897288,57.47914656
2.63,263,0.958,-0.114,0.46,-10.1986524,-11.917526400000002,-3.9534102,165.71091276,72.52502364,57.51352404000001
2.6399999999999997,264,0.965,-0.105,0.46399999999999997,-10.313244000000001,-10.5424272,-2.9793816000000004,165.62496905999996,72.63388566,57.53071278
2.65,265,0.96,-0.08900000000000001,0.473,-8.8235532,-10.828906199999999,-1.9480572,165.51610704,72.74274768000002,57.51352404000001
2.6599999999999997,266,0.956,-0.09,0.491,-8.9954406,-10.2559482,-0.9167328000000001,165.43589292,72.77139558,57.51352404000001
2.67,267,0.9690000000000001,-0.091,0.49,-8.9381448,-9.7975818,0.572958,165.25254636,72.86879844,57.41612118000001
2.6799999999999997,268,0.978,-0.08,0.502,-8.5370742,-10.943497800000001,2.291832,165.01190400000004,72.9662013,57.24996336
2.69,269,0.9740000000000001,-0.084,0.48700000000000004,-7.0473834,-12.3758928,3.4377480000000005,164.73115458,73.07506332,57.0379689
2.6999999999999997,270,0.97,-0.094,0.489,-5.958763200000001,-11.6310474,4.297185,164.44467558000005,73.17819576000002,56.79732654000001
2.71,271,0.9590000000000001,-0.105,0.47600000000000003,-5.3285094000000015,-9.740286,4.6982555999999995,164.2097628,73.17819576000002,56.60252082
2.7199999999999998,272,0.9390000000000001,-0.107,0.45899999999999996,-4.1252976000000015,-7.6776372,4.9274388,163.94620212,73.24122114,56.37333762000001
2.73,273,0.915,-0.10400000000000001,0.441,-3.3231564,-7.161975,5.5576926,163.67691186,73.29278736,56.121236100000004
2.7399999999999998,274,0.9279999999999999,-0.084,0.4270000000000001,-3.5523396000000003,-7.6776372,6.8182002000000015,163.35605538,73.35008316,55.82329794
2.75,275,0.941,-0.069,0.39399999999999996,-3.4950437999999995,-10.886202,8.8235532,162.94352562,73.43029728,55.42795692
2.76,276,0.9620000000000001,-0.066,0.39399999999999996,-3.4377480000000005,-15.297978599999999,10.4278356,162.50234796,73.51624097999998,54.992508840000006
2.77,277,0.977,-0.08,0.39899999999999997,-2.3491277999999998,-17.8762896,11.2299768,161.94657869999998,73.64802132,54.43673958
2.78,278,0.966,-0.105,0.385,-1.3750992,-18.907614,11.401864199999999,161.38507986000005,73.79699040000001,53.86378158
2.79,279,0.976,-0.121,0.397,-1.3178034,-21.027558600000006,10.599723,160.81212186,73.95741863999999,53.27936442
2.8,280,1.005,-0.11699999999999999,0.431,-1.4896908000000002,-22.9756158,9.6256944,160.23916386,74.14649478,52.69494725999999
2.81,281,1.022,-0.1,0.436,-1.0313244000000001,-23.777757,9.2819196,159.7120425,74.30692302,52.14490758000001
2.82,282,1.01,-0.085,0.392,-1.5469866,-26.814434400000003,9.453807,159.07605912,74.52464705999998,51.49746504
2.8299999999999996,283,1.012,-0.079,0.377,-1.3750992,-30.595957199999997,10.026765,158.35413204000002,74.77674858,50.75834922
2.84,284,1.016,-0.084,0.379,0.286479,-34.950438,10.886202,157.54053168,75.057498,49.90464180000001
2.8499999999999996,285,1.033,-0.094,0.365,1.3750992,-38.159002799999996,10.7716104,156.66390594,75.36689532,48.98217942
2.86,286,1.061,-0.11800000000000001,0.35,2.3491277999999998,-40.6227222,9.740286,155.78155062000005,75.68775179999999,48.0425283
2.8699999999999997,287,1.052,-0.134,0.353,1.8334656000000005,-42.685371,8.078707799999998,154.85908823999995,76.04298576,47.06277012
2.88,288,1.023,-0.146,0.342,0.8021411999999999,-44.2896534,6.589017,153.90797795999995,76.41540846000002,46.065823200000004
2.8899999999999997,289,1.005,-0.13699999999999998,0.342,0.2291832000000001,-42.5134836,5.844171599999999,152.9511381,76.77064241999999,45.07460586000001
2.9,290,0.988,-0.127,0.312,-0.11459160000000004,-39.534102000000004,5.5576926,152.00575740000005,77.09722848,44.10057726
2.9099999999999997,291,0.973,-0.121,0.295,-0.5156622000000001,-37.872523799999996,5.443101,151.08902460000004,77.38370748,43.16092614
2.92,292,0.9590000000000001,-0.13,0.27899999999999997,-1.8334656000000005,-38.27359439999999,6.0160589999999985,150.04051146,77.68737522,42.09522426
2.9299999999999997,293,0.956,-0.128,0.259,-2.9220858,-38.961144,6.703608600000001,148.87740672,77.99677254,40.93211952
2.94,294,0.9329999999999999,-0.121,0.255,-2.5210152000000003,-38.7892566,6.8182002000000015,147.66273575999998,78.28898111999997,39.71171898
2.9499999999999997,295,0.905,-0.115,0.245,-1.6042823999999998,-37.1276784,6.2452422,146.46525354,78.56973054,38.5027776
2.96,296,0.8640000000000001,-0.11900000000000001,0.23600000000000002,-0.286479,-35.4088044,5.844171599999999,145.31360795999996,78.81610248000001,37.328213700000006
2.9699999999999998,297,0.8240000000000001,-0.125,0.223,0.572958,-34.37748,5.3858052,144.13904406,79.06820400000002,36.11927232
2.98,298,0.8,-0.126,0.22399999999999998,1.8334656000000005,-31.79916900000001,4.0680017999999984,143.05042386,79.2973872,34.984815479999995
2.9899999999999998,299,0.7879999999999999,-0.12,0.209,2.6929026,-28.074942,2.5210152000000003,142.10504315999995,79.50938166,33.99359814
3.0,300,0.779,-0.11,0.191,4.010706000000001,-23.2620948,0.6875496,141.37165692,79.69272822,33.2029161
3.01,301,0.7759999999999999,-0.109,0.17300000000000001,5.3858052,-18.907614,-1.3178034,140.85599471999996,79.83596772,32.62422852
3.02,302,0.8290000000000001,-0.127,0.159,5.72958,-15.870936600000002,-2.1199446,140.47784244,79.97347764,32.177321279999994
3.03,303,0.841,-0.126,0.146,4.8701430000000006,-14.209358400000001,-3.5523396000000003,140.19136344,80.10525798,31.83354648000001
3.04,304,0.865,-0.134,0.14,5.5003968,-12.891555,-4.8128472,140.00801688,80.23703832,31.592904120000004
3.05,305,0.68,-0.071,0.172,5.5576926,-10.943497800000001,-7.906820400000001,140.0309352,80.36881866,31.55279706
3.06,306,0.9159999999999999,-0.184,0.134,10.1986524,-6.0160589999999985,-7.9641161999999985,140.13979722,80.43184404,31.58144496
3.07,307,0.973,-0.168,0.152,7.333862400000001,-6.6463128000000005,-7.1046792000000005,140.30022545999998,80.5292469,31.66738866
3.08,308,0.938,-0.134,0.17300000000000001,8.307891,-7.6203414,-8.193299399999999,140.49503118,80.64383849999999,31.776250680000004
3.09,309,1.037,-0.192,0.146,9.7975818,-5.72958,-9.568398599999998,140.83880598000005,80.74697094,32.0283522
3.0999999999999996,310,1.047,-0.187,0.153,7.6776372,-6.5317212,-8.59437,141.09663708,80.85010338000002,32.20596918
3.11,311,1.069,-0.182,0.145,7.7922288,-8.4224826,-8.4224826,141.15393288,80.95896540000003,32.19451002
3.1199999999999997,312,1.047,-0.16899999999999998,0.14800000000000002,6.5317212,-11.45916,-7.5630456000000015,141.15966246,81.09074574,32.13721422
3.13,313,1.072,-0.18,0.152,6.4744254,-13.5791046,-6.4744254,141.0336117,81.23971482,31.93667892
3.1399999999999997,314,1.053,-0.17,0.166,4.8128472,-15.2406828,-5.3858052,140.75859186,81.39441348,31.61009286
3.15,315,1.02,-0.155,0.157,3.380452200000001,-15.3552744,-5.2712136,140.44919454,81.54911214,31.26058848000001
3.1599999999999997,316,0.995,-0.133,0.177,2.6929026,-14.610429000000002,-5.844171599999999,140.25438881999997,81.66943332,31.03713486
3.17,317,0.996,-0.127,0.18899999999999997,2.4637194,-12.3758928,-6.1879464,140.09396058,81.80694324,30.84232914
3.1799999999999997,318,0.998,-0.124,0.187,1.8334656000000005,-10.828906199999999,-6.3598338,139.98509855999998,81.92726442,30.71627838
3.19,319,0.996,-0.11900000000000001,0.17600000000000002,0.4583664000000001,-10.2559482,-6.703608600000001,139.91061402,82.05331518,30.63033468
3.1999999999999997,320,0.985,-0.11599999999999999,0.168,-0.572958,-11.0580894,-6.875496000000001,139.79029284,82.17936594,30.51574308
3.21,321,0.968,-0.111,0.171,-1.6615782,-11.688343199999998,-6.875496000000001,139.73299704,82.28822796,30.475636020000003
3.2199999999999998,322,0.951,-0.099,0.17,-2.3491277999999998,-11.688343199999998,-6.6463128000000005,139.54392090000002,82.42000829999998,30.3094782
3.23,323,0.9390000000000001,-0.08199999999999999,0.17300000000000001,-2.7501984,-10.7716104,-6.7609043999999985,139.39495182000002,82.54605906,30.18342744
3.2399999999999998,324,0.9359999999999999,-0.081,0.171,-3.6669312000000014,-8.307891,-6.875496000000001,139.35484476,82.65492108,30.18342744
3.25,325,0.94,-0.084,0.174,-3.7815228,-4.8128472,-6.4744254,139.46370678,82.7351352,30.32666694000001
3.26,326,0.935,-0.09,0.18,-3.2658606,-1.8334656000000005,-5.7868758000000025,140.04812394,82.72367604,30.94546158
3.27,327,0.934,-0.092,0.17600000000000002,-3.8961144,1.7761698000000001,-5.5003968,140.42054664,82.74659436,31.36372092
3.28,328,0.9309999999999999,-0.084,0.179,-3.8961144,4.4117766,-5.2712136,140.91329052,82.74659436,31.89657186
3.29,329,0.93,-0.08,0.171,-4.0680017999999984,7.2765666,-5.1566220000000005,141.520626,82.71794646,32.55547356
3.3,330,0.9309999999999999,-0.07,0.177,-4.010706000000001,10.1986524,-4.5263682,142.21963476,82.66638024,33.30604854
3.31,331,0.9490000000000001,-0.071,0.18100000000000002,-3.7815228,12.4904844,-3.4950437999999995,143.17074504,82.5632478,34.291536300000004
3.32,332,0.9620000000000001,-0.071,0.179,-3.6669312000000014,14.438541599999999,-2.1199446,143.88121296,82.46011536,35.04784086
3.33,333,0.966,-0.071,0.174,-3.4377480000000005,15.6990492,-0.8594370000000001,144.54584424,82.33406459999998,35.7525792
3.34,334,0.965,-0.065,0.18600000000000005,-3.3231564,16.2147114,-0.3437748,145.18182761999995,82.20228426,36.43439922
3.3499999999999996,335,0.9640000000000001,-0.052000000000000005,0.198,-3.1512689999999997,16.615782,-0.8021411999999999,145.84072932,82.07050392,37.13340798
3.36,336,0.958,-0.046,0.19899999999999998,-3.0366774,16.8449652,-1.7761698000000001,146.80329876000005,81.92153484,38.12462532
3.3699999999999997,337,0.955,-0.045,0.19899999999999998,-2.9220858,17.246035799999998,-2.8074942000000003,147.55387374,81.7897545,38.90957778
3.38,338,0.9620000000000001,-0.052000000000000005,0.19399999999999998,-2.9793816000000004,17.9908812,-3.5523396000000003,148.34455578,81.65224458,39.74609646
3.3899999999999997,339,0.9840000000000001,-0.065,0.19699999999999998,-3.8388186,19.194093,-3.9534102,149.16388572,81.50900508000002,40.61699262000001
3.4,340,0.993,-0.07200000000000001,0.195,-4.2398892,19.767051000000002,-3.4950437999999995,149.94310860000004,81.35430642,41.44778172
3.4099999999999997,341,0.997,-0.076,0.2,-4.3544808,19.767051000000002,-2.5210152000000003,150.72806106,81.17668943999998,42.29002998
3.42,342,1.0,-0.08,0.21100000000000002,-4.4117766,19.5378678,-1.4896908000000002,151.32966696,81.01053162,42.9432021
3.4299999999999997,343,0.998,-0.084,0.213,-4.6409598,19.595163600000006,-0.286479,151.83959958,80.83864422,43.51043052
3.44,344,0.995,-0.084,0.215,-5.0993262,19.7097552,0.5156622000000001,152.28077724,80.66675682,44.01463356000001
3.4499999999999997,345,0.998,-0.085,0.222,-5.443101,19.9962342,1.2605076000000002,152.67611826,80.47768067999998,44.47299996
3.46,346,0.992,-0.084,0.225,-5.3285094000000015,19.9389384,2.0053530000000004,153.07718886,80.2714158,44.93709594
3.4699999999999998,347,0.986,-0.086,0.237,-5.5003968,19.5378678,2.4064236,153.36366786,80.08806924,45.28660032
3.48,348,0.983,-0.09,0.244,-5.2139178,19.136797199999997,2.6929026,153.62149896,79.90472267999998,45.60172722
3.4899999999999998,349,0.9840000000000001,-0.091,0.256,-4.5263682,18.449247600000003,2.6929026,153.85641174,79.72710570000002,45.88820622
3.5,350,0.988,-0.094,0.27,-3.8961144,18.1054728,2.4064236,154.09705409999995,79.55521829999998,46.18041480000001
3.51,351,0.987,-0.095,0.285,-2.8074942000000003,17.18874,2.291832,154.4408289,79.34322384000002,46.5528375
3.52,352,0.9840000000000001,-0.092,0.298,-1.9480572,16.329303,2.0626488000000003,154.66428252,79.18279559999998,46.80493902
3.53,353,0.98,-0.095,0.302,-1.2605076000000002,15.183387000000002,2.0053530000000004,154.86481782,79.0395561,47.02266306
3.54,354,0.983,-0.098,0.306,-0.6302538000000001,14.1520626,1.8334656000000005,155.05962354,78.90204618,47.22892794
3.55,355,0.985,-0.1,0.314,0.0,13.2926256,1.4896908000000002,155.24869968000004,78.77599542,47.42373366
3.56,356,0.9890000000000001,-0.10300000000000001,0.314,0.9740286,12.3758928,1.2032118,155.58101532,78.58118970000002,47.75031972
3.57,357,0.992,-0.105,0.318,1.7761698000000001,11.172680999999999,0.8021411999999999,155.77582103999995,78.47232768,47.9279367
3.58,358,0.99,-0.107,0.317,2.5210152000000003,10.084060800000001,0.40107059999999994,155.97062676000004,78.38065440000003,48.09982409999999
3.59,359,0.986,-0.11,0.319,3.380452200000001,8.3651868,0.286479,156.14251416,78.30044028,48.2430636
3.5999999999999996,360,0.9890000000000001,-0.11199999999999999,0.32,3.6096353999999997,6.703608600000001,0.286479,156.28575366,78.2374149,48.35192562
3.61,361,0.993,-0.115,0.324,3.6096353999999997,5.0993262,0.1718874,156.55504392,78.0655275,48.58683840000001
3.6199999999999997,362,1.001,-0.11199999999999999,0.325,3.6096353999999997,3.7815228,0.0,156.65817636,78.03115002,48.65559336000001
3.63,363,1.0070000000000001,-0.11,0.319,3.7815228,2.4064236,-0.286479,156.74984964,78.01396128,48.71288916
3.6399999999999997,364,1.004,-0.11199999999999999,0.317,3.6669312000000014,0.7448454000000001,-0.4583664000000001,156.82433418,78.00823170000002,48.75299622
3.65,365,1.002,-0.11199999999999999,0.316,2.9793816000000004,-0.9167328000000001,-0.6875496,156.87017082,78.01969086,48.77018496
3.6599999999999997,366,1.004,-0.11,0.313,2.5783110000000002,-2.1772404,-0.9740286,157.0764357,77.90509926,48.94780193999999
3.67,367,0.995,-0.107,0.308,2.291832,-3.5523396000000003,-1.0313244000000001,157.08789486,77.94520632,48.9306132
3.6799999999999997,368,0.9840000000000001,-0.10400000000000001,0.299,1.8334656000000005,-4.583664,-1.0886202,157.08216528,77.99104296,48.9019653
3.69,369,0.976,-0.102,0.295,1.5469866,-5.443101,-1.3178034,157.06497654,78.04260918,48.86758782
3.6999999999999997,370,0.972,-0.099,0.294,1.145916,-5.72958,-1.4896908000000002,157.04205822,78.10563456,48.83321034
3.71,371,0.9690000000000001,-0.099,0.285,0.6302538000000001,-5.844171599999999,-1.4896908000000002,157.16237940000005,78.05979792000002,48.94207236
3.7199999999999998,372,0.965,-0.095,0.28,-0.057295800000000015,-5.9014674000000005,-1.6042823999999998,157.13373149999995,78.12282330000002,48.91342446
3.73,373,0.9640000000000001,-0.095,0.27899999999999997,-0.4583664000000001,-6.2452422,-1.7188740000000002,157.09935402000005,78.18584868,48.87904698000001
3.7399999999999998,374,0.963,-0.094,0.273,-1.0313244000000001,-6.589017,-1.7188740000000002,157.04778779999995,78.25460364,48.83893992
3.75,375,0.963,-0.092,0.272,-1.3178034,-6.8182002000000015,-1.6042823999999998,156.990492,78.32335859999998,48.79310328
3.76,376,0.9620000000000001,-0.091,0.275,-1.432395,-7.0473834,-1.6615782,157.06497654,78.32335859999998,48.87904698000001
3.77,377,0.973,-0.08800000000000001,0.271,-2.0626488000000003,-6.875496000000001,-1.7188740000000002,157.00195116,78.39211356000001,48.83321034
3.78,378,0.976,-0.08800000000000001,0.272,-2.0053530000000004,-7.161975,-1.7188740000000002,156.93319619999997,78.46659809999998,48.78164412
3.79,379,0.9740000000000001,-0.087,0.268,-2.291832,-7.2765666,-1.6042823999999998,156.85298208,78.53535306,48.72434832
3.8,380,0.973,-0.085,0.263,-2.6356068,-7.2192707999999985,-1.6042823999999998,156.76703838,78.60983759999998,48.66132294000001
3.81,381,0.972,-0.084,0.259,-2.8074942000000003,-7.3911582,-1.4896908000000002,156.80714544,78.63275592,48.72434832
3.82,382,0.9670000000000001,-0.084,0.255,-2.5210152000000003,-7.734933000000002,-1.3178034,156.70401299999997,78.70724046000002,48.63840462
3.83,383,0.961,-0.08199999999999999,0.26,-2.291832,-7.6776372,-1.2032118,156.59515098,78.781725,48.54673134
3.84,384,0.966,-0.079,0.253,-2.2345362,-7.6776372,-1.2032118,156.48055938,78.86193912,48.46078764
3.8499999999999996,385,0.968,-0.079,0.255,-1.8334656000000005,-7.6776372,-1.2032118,156.37169736,78.93642365999997,48.36911436000001
3.86,386,0.965,-0.079,0.257,-1.4896908000000002,-7.2192707999999985,-1.145916,156.4748298,78.93642365999997,48.46651722
3.8699999999999997,387,0.963,-0.08,0.252,-0.9740286,-6.9327918,-1.0313244000000001,156.38315652,79.00517862,48.38057352000001
3.88,388,0.9620000000000001,-0.08,0.249,-0.7448454000000001,-6.5317212,-0.8594370000000001,156.29148324,79.06820400000002,48.29462982
3.8899999999999997,389,0.96,-0.08199999999999999,0.244,-0.4583664000000001,-5.958763200000001,-0.6875496,156.19980995999995,79.1254998,48.20868612
3.9,390,0.956,-0.08199999999999999,0.24,-0.286479,-5.3858052,-0.572958,156.11959584000004,79.17706602000001,48.13420158
3.9099999999999997,391,0.9520000000000001,-0.083,0.24,-0.11459160000000004,-4.583664,-0.40107059999999994,156.33731988000005,79.0968519,48.33473688
3.92,392,0.953,-0.084,0.24100000000000002,-0.11459160000000004,-3.5523396000000003,-0.3437748,156.28575366,79.13122938000002,48.28317066
3.9299999999999997,393,0.956,-0.085,0.23800000000000002,-0.286479,-2.86479,-0.2291832000000001,156.23418744,79.15987728,48.23160444
3.94,394,0.96,-0.083,0.237,-0.286479,-2.5210152000000003,-0.057295800000000015,156.18835080000005,79.18279559999998,48.185767799999994
3.9499999999999997,395,0.963,-0.08199999999999999,0.239,-0.40107059999999994,-2.0626488000000003,0.057295800000000015,156.13678458,79.19998434,48.13993116
3.96,396,0.968,-0.086,0.239,-0.40107059999999994,-1.4896908000000002,0.3437748,156.5607735,78.97653072,48.54673134
3.9699999999999998,397,0.966,-0.08900000000000001,0.24,-0.572958,-0.9740286,0.5156622000000001,156.50920728,78.98226030000002,48.50662428
3.98,398,0.966,-0.091,0.24,-0.5156622000000001,-0.40107059999999994,0.6302538000000001,156.46337064,78.98226030000002,48.46651722
3.9899999999999998,399,0.968,-0.095,0.243,-0.572958,0.057295800000000015,0.6302538000000001,156.42899316,78.97653072,48.43786932
4.0,400,0.97,-0.094,0.243,-0.6302538000000001,0.286479,0.5156622000000001,156.40607484,78.97653072,48.414951
4.01,401,0.968,-0.095,0.244,-0.5156622000000001,0.2291832000000001,0.3437748,156.97903284,78.51816432000003,48.99363858
4.02,402,0.966,-0.095,0.245,-0.5156622000000001,0.2291832000000001,0.11459160000000004,156.96757368000004,78.51243473999997,48.99363858
4.03,403,0.966,-0.095,0.248,-0.5156622000000001,0.40107059999999994,-0.11459160000000004,156.97903284,78.50670516,49.00509774
4.04,404,0.973,-0.095,0.249,-0.7448454000000001,0.9740286,-0.40107059999999994,157.00768074,78.50097558,49.04520480000001
4.05,405,0.9740000000000001,-0.092,0.248,-0.9167328000000001,1.5469866,-0.5156622000000001,157.04778779999995,78.48951642,49.09677102000001
4.06,406,0.97,-0.09,0.245,-1.0313244000000001,1.7188740000000002,-0.6302538000000001,157.32280764,78.35200649999999,49.37179086
4.07,407,0.966,-0.09,0.24600000000000002,-1.0313244000000001,1.7188740000000002,-0.6875496,157.37437386,78.34054734,49.43481624
4.08,408,0.968,-0.08800000000000001,0.247,-0.9167328000000001,1.6042823999999998,-0.7448454000000001,157.42594007999998,78.32908818,49.49784162
4.09,409,0.9690000000000001,-0.08800000000000001,0.249,-0.8021411999999999,1.432395,-0.8021411999999999,157.47750630000004,78.31762902,49.560867
4.1,410,0.972,-0.08900000000000001,0.255,-0.572958,1.3178034,-0.8021411999999999,157.5348021,78.30616986,49.62389238
4.109999999999999,411,0.973,-0.08800000000000001,0.261,-0.6302538000000001,1.6042823999999998,-0.8021411999999999,157.90722480000005,78.14001204,49.98485592
4.12,412,0.975,-0.084,0.262,-0.4583664000000001,1.9480572,-0.6302538000000001,157.96452060000001,78.12282330000002,50.04788129999999
4.13,413,0.976,-0.08199999999999999,0.26,-0.3437748,2.1199446,-0.5156622000000001,158.02181639999995,78.10563456,50.11090668000001
4.14,414,0.971,-0.083,0.261,-0.2291832000000001,2.1199446,-0.3437748,158.06765304,78.08271624,50.1624729
4.1499999999999995,415,0.97,-0.084,0.262,-0.2291832000000001,2.2345362,-0.40107059999999994,158.11921926,78.0655275,50.2197687
4.16,416,0.972,-0.085,0.261,-0.11459160000000004,2.291832,-0.3437748,158.49164195999995,77.8936401,50.56927308
4.17,417,0.972,-0.086,0.262,-0.057295800000000015,2.3491277999999998,-0.286479,158.5374786,77.87072178,50.62083930000001
4.18,418,0.972,-0.084,0.259,0.0,1.8907614,-0.286479,158.58331524,77.85353303999999,50.66667594
4.1899999999999995,419,0.976,-0.084,0.264,0.0,1.4896908000000002,-0.2291832000000001,158.61769272,77.84207388,50.70105342
4.2,420,0.981,-0.08199999999999999,0.267,0.0,1.0313244000000001,-0.11459160000000004,158.64061104,77.83061472,50.72397174
4.21,421,0.983,-0.084,0.266,0.0,0.572958,-0.057295800000000015,159.55734384,77.42381454,51.57194958
4.22,422,0.981,-0.085,0.26899999999999996,-0.057295800000000015,0.40107059999999994,0.0,159.56307342,77.42381454,51.57767916
4.2299999999999995,423,0.978,-0.086,0.27,-0.11459160000000004,0.3437748,0.0,159.568803,77.41808496,51.58340874
4.24,424,0.973,-0.087,0.271,-0.3437748,0.40107059999999994,0.0,159.568803,77.41235538,51.58913832
4.25,425,0.9690000000000001,-0.087,0.27,-0.5156622000000001,0.286479,-0.11459160000000004,159.57453258,77.41235538,51.60059748
4.26,426,0.9690000000000001,-0.087,0.271,-0.7448454000000001,0.0,-0.1718874,160.13603142000005,77.05139184,52.139178
4.27,427,0.971,-0.087,0.26899999999999996,-0.9740286,0.0,-0.2291832000000001,160.13030184,77.05139184,52.14490758000001
4.28,428,0.975,-0.087,0.266,-0.8021411999999999,0.0,-0.286479,160.13603142000005,77.05139184,52.15636674
4.29,429,0.975,-0.08900000000000001,0.265,-0.8021411999999999,-0.3437748,-0.3437748,160.13603142000005,77.05712142,52.1678259
4.3,430,0.9740000000000001,-0.08900000000000001,0.266,-0.8594370000000001,-0.8594370000000001,-0.286479,160.13030184,77.062851,52.1678259
4.31,431,0.975,-0.09,0.267,-0.9167328000000001,-1.0886202,-0.2291832000000001,160.23343428,76.95971856,52.2824175
4.32,432,0.975,-0.091,0.266,-0.9740286,-1.2032118,-0.286479,160.22197512,76.97117771999999,52.27668792000001
4.33,433,0.975,-0.09,0.266,-1.145916,-1.2605076000000002,-0.40107059999999994,160.20478638,76.98263688,52.27668792000001
4.34,434,0.975,-0.09,0.267,-1.2605076000000002,-1.0886202,-0.5156622000000001,160.19905680000005,76.99982562,52.2824175
4.35,435,0.973,-0.091,0.264,-1.3178034,-1.0313244000000001,-0.6302538000000001,160.19905680000005,77.01128478000003,52.29387666
4.36,436,0.972,-0.092,0.264,-1.432395,-0.9740286,-0.7448454000000001,160.27927092,76.93680024,52.39127952
4.37,437,0.97,-0.086,0.262,-1.6042823999999998,-1.0886202,-0.9167328000000001,160.2850005,76.95398897999998,52.41419784
4.38,438,0.968,-0.083,0.26,-1.6042823999999998,-1.3178034,-1.0886202,160.29073008,76.97117771999999,52.43711616
4.39,439,0.968,-0.08199999999999999,0.26,-1.3750992,-1.4896908000000002,-1.0886202,160.30218924000005,76.98836646,52.46576406000001
4.3999999999999995,440,0.9670000000000001,-0.08199999999999999,0.26,-0.8594370000000001,-1.6615782,-1.0886202,160.3136484,77.00555519999998,52.48295279999999
4.41,441,0.966,-0.08199999999999999,0.259,-0.572958,-1.6615782,-0.9167328000000001,160.49699496,76.94252982,52.66056978
4.42,442,0.97,-0.081,0.259,-0.286479,-1.6042823999999998,-0.9167328000000001,160.50845411999995,76.96544814,52.67202894
4.43,443,0.975,-0.083,0.256,-0.3437748,-1.8334656000000005,-0.9167328000000001,160.51991328,76.98263688,52.68921768
4.4399999999999995,444,0.978,-0.081,0.253,-0.2291832000000001,-1.8334656000000005,-0.572958,160.51991328,77.00555519999998,52.68921768
4.45,445,0.98,-0.08,0.254,-0.11459160000000004,-2.1772404,-0.6875496,160.51418370000005,77.02847352,52.68921768
4.46,446,0.9840000000000001,-0.081,0.259,0.0,-2.5783110000000002,-0.5156622000000001,160.64596404,76.99409604,52.80380928
4.47,447,0.993,-0.08,0.26,0.0,-2.9220858,-0.11459160000000004,160.61731614,77.01701435999998,52.76943180000001
4.4799999999999995,448,1.002,-0.08199999999999999,0.263,0.1718874,-3.4950437999999995,0.1718874,160.56574992,77.05139184,52.71786558
4.49,449,1.008,-0.081,0.263,0.2291832000000001,-4.4117766,0.572958,160.4855358,77.0914989,52.63192188000001
4.5,450,1.013,-0.08,0.265,0.1718874,-5.2712136,0.9740286,160.37667377999998,77.13733554,52.51733028
4.51,451,1.008,-0.079,0.265,0.1718874,-6.0733548,1.3178034,160.32510756,77.16025386,52.44857532
4.52,452,1.01,-0.079,0.255,-0.3437748,-6.1879464,2.0626488000000003,160.14749058,77.21182008000002,52.27095833999999
4.53,453,1.014,-0.085,0.242,-1.7761698000000001,-6.9327918,2.86479,159.91830738000004,77.26911588,52.04750471999999
4.54,454,1.006,-0.084,0.237,-4.297185,-7.9641161999999985,3.7242269999999995,159.60318048000005,77.33214126,51.77248488
4.55,455,0.9940000000000001,-0.07200000000000001,0.231,-4.3544808,-7.9641161999999985,4.0680017999999984,159.27659441999995,77.39516663999999,51.48027629999999
4.56,456,0.987,-0.08199999999999999,0.233,-3.2658606,-7.333862400000001,4.583664,158.95573794,77.43527370000002,51.18806772
4.57,457,0.998,-0.10099999999999999,0.247,-3.7815228,-7.6776372,5.6149884000000005,158.5661265,77.4925695,50.827104180000006
4.58,458,1.013,-0.11,0.253,-4.4690724,-9.2819196,6.3598338,158.1077601,77.55559488,50.40311526000001
4.59,459,1.028,-0.105,0.242,-5.2712136,-10.7143146,6.7609043999999985,157.59782748,77.63007941999999,49.9332897
4.6,460,1.014,-0.102,0.24100000000000002,-6.0160589999999985,-14.32395,6.3598338,157.03632864000005,77.73894143999998,49.4176275
4.61,461,1.0070000000000001,-0.098,0.23600000000000002,-4.9274388,-19.595163600000006,5.9014674000000005,156.41753400000005,77.88791051999998,48.83321034
4.62,462,1.035,-0.107,0.272,-3.6669312000000014,-24.2934192,6.130650599999999,155.68414776,78.08271624,48.12274242
4.63,463,1.046,-0.11199999999999999,0.263,-4.9274388,-25.668518399999996,6.0733548,154.89346572,78.29471070000002,47.36070828
4.64,464,1.026,-0.105,0.248,-7.448453999999999,-28.533308399999996,5.2139178,154.02829914,78.52962348,46.5528375
4.6499999999999995,465,1.01,-0.102,0.24600000000000002,-7.2765666,-32.2002396,3.7815228,153.11729592,78.80464332,45.6934005
4.66,466,1.002,-0.113,0.273,-8.880849000000003,-35.17962120000001,2.9220858,152.13753774,79.09112232,44.78239728
4.67,467,0.9940000000000001,-0.12,0.24600000000000002,-10.1986524,-36.955791,2.9793816000000004,151.02599922000005,79.40051964,43.75107288
4.68,468,0.97,-0.113,0.239,-11.745639,-39.304918799999996,3.4950437999999995,149.74830288,79.72710570000002,42.56504982
4.6899999999999995,469,0.9790000000000001,-0.107,0.239,-11.45916,-41.3102718,3.5523396000000003,148.33309662,80.06515092,41.24151684
4.7,470,1.033,-0.10800000000000001,0.23800000000000002,-10.3705398,-42.05511720000001,3.7815228,146.79756917999995,80.40319614,39.78620352
4.71,471,1.088,-0.11699999999999999,0.24600000000000002,-12.318597,-45.034498799999994,3.8388186,145.05577685999995,80.75270051999998,38.14181406
4.72,472,1.111,-0.11199999999999999,0.21899999999999997,-16.2147114,-49.3316838,3.9534102,142.95302099999995,81.1308528,36.17083854
4.7299999999999995,473,1.0959999999999999,-0.114,0.2,-16.386598799999998,-53.34238979999999,4.6982555999999995,140.47211285999998,81.52619381999997,33.82171074
4.74,474,1.023,-0.11599999999999999,0.207,-19.0222056,-53.9153478,5.72958,137.64742992,81.90434609999998,31.15745604
4.75,475,0.9890000000000001,-0.11900000000000001,0.22899999999999998,-23.0902074,-51.56622,5.7868758000000025,134.63367084,82.24239132,28.33850268
4.76,476,0.9540000000000001,-0.096,0.20800000000000002,-27.100913399999996,-45.263682,6.4744254,131.68866672,82.50595200000002,25.639870499999997
4.77,477,0.965,-0.09699999999999999,0.159,-30.194886600000004,-41.4248634,8.021412000000002,128.6004231,82.71794646,22.82664672
4.78,478,0.935,-0.096,0.135,-32.4867186,-41.9405256,8.59437,125.25434838,82.90702259999998,19.78423974
4.79,479,0.932,-0.111,0.099,-35.6379876,-41.5967508,9.1100322,121.70773836,83.06745083999998,16.56994536
4.8,480,0.9009999999999999,-0.105,0.121,-38.5600734,-38.5027776,9.9121734,118.1725875,83.18204244,13.40148762
4.81,481,0.877,-0.09,0.11199999999999999,-39.8778768,-31.79916900000001,11.0580894,115.02704808,83.22787908000002,10.6283709
4.82,482,0.855,-0.08900000000000001,0.092,-38.8465524,-25.496631,11.3445684,112.28257926,83.23360865999999,8.262054359999999
4.83,483,0.835,-0.08800000000000001,0.071,-36.2682414,-21.371333399999997,11.802934800000001,109.87615566,83.20496076,6.2051351399999986
4.84,484,0.8059999999999999,-0.08199999999999999,0.063,-34.8931422,-16.272007199999994,14.037471,107.84788434,83.12474663999998,4.5206386200000015
4.85,485,0.853,-0.079,0.063,-34.7212548,-8.021412000000002,15.2406828,106.46705556,83.00442546000002,3.48358464
4.86,486,0.902,-0.078,0.053,-34.60666320000001,-0.9167328000000001,18.048177,105.63053688,82.84399721999998,2.98511118
4.87,487,0.934,-0.106,0.077,-35.3515086,3.7242269999999995,21.199446,105.06903804,82.62627318,2.78457588
4.88,488,0.961,-0.136,0.076,-38.38818600000001,7.5630456000000015,24.064236,104.71953366,82.37417166,2.82468294
4.89,489,0.983,-0.145,0.063,-42.398892,12.6623718,26.642546999999997,104.62786038,82.08196308000002,3.16845774
4.8999999999999995,490,1.003,-0.14,0.028999999999999998,-43.831286999999996,18.793022399999998,29.507337,104.86850274,81.74391786,3.86173692
4.91,491,1.035,-0.145,0.061,-42.62807520000001,25.3247436,32.31483119999999,105.44719032,81.360036,4.88733174
4.92,492,1.0759999999999998,-0.147,0.08,-40.966497,29.0489706,36.096354,106.12328076,80.92458792,5.9931406800000016
4.93,493,1.12,-0.14800000000000002,0.061,-39.820581,27.788463,39.304918799999996,106.60456548000002,80.46622152,6.89268474
4.9399999999999995,494,1.175,-0.155,0.098,-41.0237928,24.5798982,41.76863820000001,106.79364162,79.99066638000002,7.51147938
4.95,495,1.224,-0.16899999999999998,0.069,-42.5134836,21.2567418,43.029145799999995,106.74780498,79.51511124,7.906820399999999
4.96,496,1.24,-0.18,0.071,-41.19568020000001,18.2200644,44.175061799999995,106.53581052,79.0395561,8.11881486
4.97,497,1.237,-0.185,0.085,-38.0444112,14.1520626,45.1490904,106.15192866,78.56400096,8.11881486
4.9799999999999995,498,1.2,-0.193,0.121,-33.5753388,9.9694692,46.7533728,105.62480729999999,78.08271624,7.929738719999999
4.99,499,1.17,-0.198,0.10400000000000001,-31.1689152,7.3911582,48.3003594,105.01747182,77.60143152,7.63180056
5.0,500,1.146,-0.201,0.121,-27.8457588,2.1772404,48.414951,104.26689684,77.12587638,7.15051584
5.01,501,1.141,-0.185,0.153,-24.350715,-0.6302538000000001,48.8160216,103.50486270000002,76.66178040000001,6.6176648999999985
5.02,502,1.119,-0.16899999999999998,0.139,-22.058882999999998,-2.5210152000000003,50.82137460000001,102.69126233999998,76.1747661,6.00459984
5.03,503,1.084,-0.192,0.136,-22.0015872,-5.443101,52.998615,101.79171827999998,75.67629264,5.311320660000002
5.04,504,1.05,-0.20199999999999999,0.13,-22.1734746,-8.9381448,54.6028974,100.8119601,75.16063044,4.5263682
5.05,505,1.0170000000000001,-0.20800000000000002,0.109,-20.168121600000006,-11.45916,56.0925882,99.81501318,74.63923866,3.70703826
5.06,506,0.98,-0.228,0.09699999999999999,-16.7876694,-11.3445684,56.4936588,98.92692828,74.10638772,2.9507337000000002
5.07,507,0.9259999999999999,-0.226,0.12300000000000001,-14.266654199999998,-11.8602306,56.264475600000004,98.09040960000002,73.57353678,2.22880662
5.08,508,0.885,-0.204,0.153,-9.5111028,-13.464512999999998,57.4676874,97.29399798,73.02922668,1.49542038
5.09,509,0.971,-0.183,0.16899999999999998,-9.7975818,-13.980175199999998,55.92070079999999,96.53196384,72.49637574,0.79641162
5.1,510,0.986,-0.174,0.162,-9.568398599999998,-14.381245800000002,56.2071798,95.7985776,71.9635248,0.13178034
5.11,511,0.982,-0.192,0.084,-8.9954406,-15.6990492,57.92605379999999,95.07665052000002,71.4192147,-0.53858052
5.12,512,0.953,-0.22399999999999998,0.054000000000000006,-7.5057497999999985,-19.2513888,59.24385720000001,94.30315722,70.85771586000001,-1.28342592
5.13,513,0.963,-0.253,0.077,-5.1566220000000005,-21.371333399999997,58.78549079999999,93.53539350000001,70.29048744,-2.03973048
5.14,514,0.9640000000000001,-0.282,0.067,-1.6615782,-25.2674478,58.842786600000004,92.74471146,69.72898860000001,-2.87051958
5.1499999999999995,515,0.937,-0.282,0.054000000000000006,-2.6929026,-28.81978740000001,59.1865614,91.89673362,69.16176018,-3.752874900000001
5.16,516,0.976,-0.294,0.027000000000000003,-1.9480572,-29.9084076,58.78549079999999,91.0716741,68.60599092,-4.62377106
5.17,517,0.991,-0.307,0.031,0.0,-32.7159018,58.44171600000001,90.24661458,68.03303292000001,-5.52331512
5.18,518,0.997,-0.33399999999999996,0.026000000000000002,2.4637194,-33.4607472,58.9573782,89.46739170000002,67.46007492,-6.39994086
5.1899999999999995,519,0.985,-0.358,0.0,2.9793816000000004,-33.9764094,59.24385720000001,88.7225463,66.87565776,-7.242189120000001
5.2,520,0.951,-0.361,0.005,2.6356068,-36.669312,59.874111,87.95478258,66.27978144,-8.11881486
5.21,521,0.9209999999999999,-0.35100000000000003,0.008,3.5523396000000003,-39.534102000000004,60.6189564,87.17555970000002,65.67817554,-9.01835892
5.22,522,0.907,-0.361,0.01,5.72958,-41.4821592,61.020027,86.41925513999998,65.05938090000001,-9.92363256
5.2299999999999995,523,0.9470000000000001,-0.377,-0.03,5.958763200000001,-40.7946096,61.592985,85.72024638,64.43485668000001,-10.771610399999998
5.24,524,0.9109999999999999,-0.39899999999999997,-0.026000000000000002,9.5111028,-40.7373138,62.738901,85.09572216000002,63.79314372,-11.579481179999998
5.25,525,0.861,-0.41600000000000004,0.003,9.9121734,-37.9298196,62.2805346,84.56287122,63.15716034,-12.295678679999998
5.26,526,0.8240000000000001,-0.409,0.001,10.886202,-36.2109456,61.764872399999994,84.10450482,62.52117696000001,-12.9488508
5.27,527,0.809,-0.428,-0.02,10.4278356,-35.0650296,62.16594300000001,83.6805159,61.87946400000001,-13.550456700000002
5.28,528,0.794,-0.428,0.0,8.5370742,-33.231564,61.9367598,83.29663404,61.24348062,-14.0947668
5.29,529,0.836,-0.431,0.019,10.4278356,-29.507337,61.24921020000001,83.01588462000002,60.61322682,-14.541674039999998
5.3,530,0.867,-0.45,0.057,11.745639,-28.3041252,61.24921020000001,82.78097184,59.98297302,-14.954203799999998
5.31,531,0.941,-0.46799999999999997,0.011000000000000001,12.318597,-28.0176462,61.592985,82.58043654000002,59.3584488,-15.34381524
5.32,532,0.9620000000000001,-0.489,-0.027999999999999997,9.7975818,-31.1689152,62.3951262,82.3054167,58.71100626,-15.7849929
5.33,533,0.903,-0.501,-0.045,9.396511199999999,-34.091001,61.994055599999996,82.00174896,58.06356372000001,-16.26627762
5.34,534,0.826,-0.489,-0.049,7.906820400000001,-35.0077338,60.67625219999999,81.6751629,57.42758034,-16.753291920000002
5.35,535,0.795,-0.495,-0.03,8.5370742,-34.7212548,60.16059,81.37722474,56.79732654000001,-17.2173879
5.36,536,0.846,-0.4920000000000001,-0.002,10.2559482,-34.262888399999994,60.44706899999999,81.12512322,56.16707274,-17.65856556
5.37,537,0.8690000000000001,-0.505,-0.005,11.45916,-35.4088044,61.764872399999994,80.87302170000002,55.5196302,-18.1054728
5.38,538,0.865,-0.55,-0.004,10.3705398,-36.8411994,62.68160520000001,80.60946102,54.85499892,-18.5638392
5.39,539,0.8490000000000001,-0.5670000000000001,0.013000000000000001,6.4744254,-33.1742682,63.02538000000001,80.36881866,54.19609722,-18.94772106
5.3999999999999995,540,0.8240000000000001,-0.552,0.009000000000000001,8.9381448,-29.9657034,63.6556338,80.20839042,53.53146594,-19.268577540000006
5.41,541,0.77,-0.541,0.07200000000000001,9.9694692,-27.100913399999996,63.88481700000001,80.12817629999998,52.87256424,-19.51494948
5.42,542,0.7709999999999999,-0.59,0.063,11.3445684,-23.204798999999998,65.08802879999999,80.09379881999998,52.20220338,-19.7097552
5.43,543,0.747,-0.64,0.069,8.8235532,-21.772404,67.49445240000001,80.05942134,51.5089242,-19.86445386
5.4399999999999995,544,0.684,-0.637,0.069,5.3858052,-21.7151082,69.15603060000001,80.00212554,50.80418586,-20.01915252
5.45,545,0.634,-0.581,0.078,2.8074942000000003,-17.5325148,69.72898860000001,79.97347764,50.09944752,-20.09936664
5.46,546,0.6679999999999999,-0.546,0.003,9.568398599999998,-11.9748222,71.21867940000001,80.08806924,49.38897959999999,-20.08790748
5.47,547,0.713,-0.564,-0.009000000000000001,14.0947668,-11.917526400000002,75.4012728,80.2427679,48.63267504,-20.07071874
5.4799999999999995,548,0.7759999999999999,-0.605,0.005,19.480572,-10.4851314,80.1568242,80.47768067999998,47.83626342,-20.03061168
5.49,549,0.789,-0.6709999999999999,-0.075,18.506543399999998,-11.5737516,83.53727640000002,80.69540472,46.99974474,-19.9962342
5.5,550,0.8340000000000001,-0.68,-0.078,13.980175199999998,-13.750992000000002,83.8810512,80.83864422,46.16322606,-20.00196378
5.51,551,0.804,-0.649,-0.028999999999999998,15.4125702,-15.870936600000002,81.7038108,80.97615413999998,45.3496257,-20.04207084
5.52,552,0.8059999999999999,-0.665,-0.045,17.9908812,-20.3973048,79.87034519999997,81.08501616,44.54175492,-20.15093286
5.53,553,0.8590000000000001,-0.688,-0.013999999999999999,18.449247600000003,-27.559279800000002,77.5785132,81.1308528,43.7453433,-20.36292732
5.54,554,0.846,-0.723,-0.047,19.7097552,-37.586044799999996,75.2293854,81.09647532,42.96612042,-20.70670212
5.55,555,0.8640000000000001,-0.746,-0.11599999999999999,18.907614,-48.3003594,70.7030172,80.96469498,42.20981586,-21.20517558
5.56,556,0.852,-0.721,-0.083,17.4179232,-64.744254,64.22859179999999,80.67248640000003,41.50507752,-21.92137308
5.57,557,0.836,-0.71,-0.063,18.5638392,-70.5311298,60.5616606,80.3573595,40.81752792,-22.70632554
5.58,558,0.862,-0.723,-0.095,20.8556712,-74.2553568,60.8481396,80.04796218,40.11851916,-23.52565548
5.59,559,0.792,-0.767,-0.031,20.340009,-80.21412,61.9367598,79.70418738,39.40232166,-24.4080108
5.6,560,0.7170000000000001,-0.767,-0.013999999999999999,19.5378678,-78.20876700000002,60.7908438,79.3833309,38.68612416,-25.25025906
5.61,561,0.6659999999999999,-0.7509999999999999,0.001,19.0222056,-76.54718879999999,60.6189564,79.0968519,37.98138582,-26.052400259999995
5.62,562,0.5770000000000001,-0.713,0.01,20.168121600000006,-76.4325972,59.874111,78.82183205999998,37.27664748,-26.85454146
5.63,563,0.524,-0.7120000000000001,-0.04,19.2513888,-74.31265259999998,58.2698286,78.56973054,36.5833683,-27.6165756
5.64,564,0.506,-0.752,-0.07200000000000001,18.7357266,-74.0834694,56.4936588,78.32335859999998,35.91300744,-28.37288016
5.6499999999999995,565,0.504,-0.773,-0.044000000000000004,18.7357266,-72.4218912,57.35309579999999,78.10563456,35.22545784,-29.09480724
5.66,566,0.48700000000000004,-0.767,-0.067,17.3606274,-71.67704579999999,58.15523699999999,77.8936401,34.53217866,-29.793815999999996
5.67,567,0.479,-0.768,-0.10800000000000001,16.2147114,-69.4425096,57.4676874,77.6931048,33.85035864,-30.46417686
5.68,568,0.473,-0.772,-0.132,14.896907999999998,-64.744254,57.1812084,77.52121740000003,33.17999778,-31.07151234
5.6899999999999995,569,0.474,-0.777,-0.151,16.1001198,-59.473040399999995,57.58227899999999,77.40089622,32.509636920000005,-31.61009286
5.7,570,0.474,-0.782,-0.177,16.7876694,-53.34238979999999,58.6136034,77.33214126,31.839276060000003,-32.07418884
5.71,571,0.485,-0.785,-0.209,18.449247600000003,-48.071176200000004,60.3324774,77.31495251999998,31.168915200000004,-32.46952986
5.72,572,0.48100000000000004,-0.813,-0.214,18.449247600000003,-44.748019799999994,61.7075766,77.33214126,30.48709518,-32.81903423999999
5.7299999999999995,573,0.479,-0.8220000000000001,-0.187,16.4438946,-44.34694920000001,62.22323879999999,77.33787084,29.79954558,-33.15707946
5.74,574,0.48,-0.805,-0.19,14.7823164,-42.5134836,62.5670136,77.33787084,29.11199598,-33.477935939999995
5.75,575,0.473,-0.785,-0.187,13.2353298,-37.872523799999996,63.02538000000001,77.34933000000002,28.43017596,-33.74149662000001
5.76,576,0.4370000000000001,-0.7809999999999999,-0.16699999999999998,11.8602306,-34.950438,64.457775,77.37224832,27.74262636,-33.97067982
5.77,577,0.402,-0.794,-0.14800000000000002,11.917526400000002,-32.4867186,66.4058322,77.40662579999999,27.037888020000004,-34.15975596
5.78,578,0.33799999999999997,-0.82,-0.128,12.2040054,-27.8457588,68.182002,77.47538076,26.3274201,-34.30299546
5.79,579,0.213,-0.847,-0.076,10.828906199999999,-22.517249399999997,68.8695516,77.55559488,25.61695218,-34.37748000000001
5.8,580,0.113,-0.885,-0.062,14.037471,-11.45916,68.98414319999999,77.71602312,24.92940258,-34.343102519999995
5.81,581,0.083,-0.922,-0.081,15.183387000000002,-1.8907614,68.8695516,77.93947674,24.22466424,-34.17694470000001
5.82,582,0.08900000000000001,-0.9490000000000001,-0.08800000000000001,15.928232399999999,3.1512689999999997,68.2965936,78.1801191,23.56576254,-33.99359814
5.83,583,0.1,-0.935,-0.091,16.7876694,2.86479,67.9528188,78.42076146,22.91259042,-33.81025158
5.84,584,0.163,-0.9109999999999999,-0.08199999999999999,20.2827132,2.3491277999999998,66.176649,78.69005172,22.27087746,-33.64409376
5.85,585,0.226,-0.924,-0.08199999999999999,23.3766864,3.0366774,64.4004792,78.99371946,21.65208282,-33.477935939999995
5.86,586,0.24,-0.956,-0.077,24.809081399999997,3.8961144,63.4264506,79.31457594,21.027558600000006,-33.30031896000001
5.87,587,0.23399999999999999,-1.001,-0.061,26.5852512,5.042030400000002,63.5410422,79.64689158,20.42022312,-33.12270198
5.88,588,0.213,-1.04,-0.049,25.8977016,6.0160589999999985,64.97343719999999,79.97347764,19.7956989,-32.93935542
5.89,589,0.177,-1.045,-0.02,25.152856200000002,8.5370742,66.3485364,80.3000637,19.15971552,-32.72736096
5.8999999999999995,590,0.16,-1.026,-0.028999999999999998,23.663165399999997,12.6623718,66.2912406,80.62092018,18.52946172,-32.48098902
5.91,591,0.151,-0.992,-0.037000000000000005,22.345361999999998,15.297978599999999,64.97343719999999,80.94177666,17.899207920000006,-32.2002396
5.92,592,0.131,-0.9620000000000001,-0.031,23.5485738,16.7303736,63.25456320000001,81.26263314,17.303331600000003,-31.92521976
5.93,593,0.168,-0.9670000000000001,-0.032,24.064236,18.907614,59.8168152,81.5892192,16.74183276,-31.63874076
5.9399999999999995,594,0.193,-0.953,-0.026000000000000002,23.491278,18.9649098,56.3217714,81.90434609999998,16.208981819999998,-31.35799134
5.95,595,0.21,-0.94,-0.028999999999999998,23.663165399999997,18.7357266,53.571573,82.219473,15.704778780000002,-31.08870108
5.96,596,0.20600000000000002,-0.937,-0.045,23.2620948,17.303331600000003,51.7954032,82.52314074,15.212034899999995,-30.83659956
5.97,597,0.198,-0.9259999999999999,-0.04,23.663165399999997,17.3606274,51.10785360000001,82.82680848,14.73075018,-30.59022762
5.9799999999999995,598,0.193,-0.9329999999999999,-0.054000000000000006,24.2934192,20.3973048,49.9619376,83.1362058,14.25519504,-30.32093736
5.99,599,0.179,-0.937,-0.077,23.5485738,25.0955604,48.8160216,83.45133270000002,13.796828639999998,-30.00581046
6.0,600,0.15,-0.937,-0.113,21.7151082,30.882436199999997,48.3576552,83.75500044,13.349921400000001,-29.63911734
6.01,601,0.081,-0.903,-0.044000000000000004,23.0902074,33.6899304,49.388979600000006,84.0815865,12.88009584,-29.23231716
6.02,602,0.07,-0.856,-0.013999999999999999,26.642546999999997,34.1482968,50.47759979999999,84.43682046,12.404540699999998,-28.83697614
6.03,603,0.125,-0.8390000000000001,-0.032,29.9084076,35.695283399999994,48.071176200000004,84.82070232,11.95763346,-28.42444638
6.04,604,0.19,-0.867,-0.028999999999999998,34.4347758,38.67466500000001,42.28430039999999,85.25042082,11.562292439999998,-27.99472788
6.05,605,0.21100000000000002,-0.9359999999999999,0.003,37.872523799999996,41.5967508,36.4401288,85.72024638,11.22424722,-27.54782064
6.06,606,0.20199999999999999,-1.011,0.018000000000000002,36.8411994,45.3209778,32.0283522,86.19007194,10.932038639999998,-27.06080634
6.07,607,0.172,-1.055,-0.005,34.4920716,48.3003594,30.080295,86.62552002,10.65128922,-26.5566033
6.08,608,0.149,-1.1,-0.012,32.830493399999995,50.8786704,30.366774000000003,87.04950894,10.3705398,-26.02375236
6.09,609,0.11699999999999999,-1.109,-0.027000000000000003,31.1689152,52.2537696,32.4867186,87.45630911999999,10.06114248,-25.47944226
6.1,610,0.115,-1.125,0.0,29.5646328,52.5975444,33.9764094,87.84592056,9.72882684,-24.93513216
6.11,611,0.09300000000000001,-1.112,-0.004,26.929026,50.6494872,34.8358464,88.20115452,9.38505204,-24.4080108
6.12,612,0.099,-1.093,-0.004,24.350715,45.4928652,34.8931422,88.51628142,9.04127724,-23.94391482
6.13,613,0.13,-1.103,-0.016,22.517249399999997,41.9978214,34.66395900000001,88.80848999999998,8.69750244,-23.50846674
6.14,614,0.151,-1.117,-0.011000000000000001,21.7151082,38.0444112,35.0077338,89.07778026000004,8.34799806,-23.12458488
6.15,615,0.149,-1.127,0.008,21.314037600000002,32.945085,36.03905820000001,89.34134094,7.987034519999999,-22.78653966
6.16,616,0.153,-1.119,0.040999999999999995,20.5691922,28.361421000000004,37.299565799999996,89.58771288,7.60888224,-22.50006066
6.17,617,0.134,-1.101,0.043,19.480572,24.2361234,38.159002799999996,89.81689608,7.2307299600000015,-22.25368872
6.18,618,0.109,-1.069,0.052000000000000005,18.277360199999997,20.168121600000006,38.5600734,90.02316096,6.8411185199999975,-22.05315342
6.1899999999999995,619,0.07,-1.028,0.08199999999999999,18.277360199999997,17.303331600000003,39.0757356,90.22942584,6.451507079999999,-21.88126602
6.2,620,0.054000000000000006,-0.995,0.107,18.9649098,15.6417534,38.8465524,90.43569072,6.06189564,-21.72656736
6.21,621,0.035,-0.975,0.11900000000000001,19.4232762,15.4125702,37.9298196,90.65914434,5.6722842,-21.56613912
6.22,622,0.023,-0.961,0.138,20.5118964,15.469866,37.013086799999996,90.88259796,5.2998615,-21.41717004
6.2299999999999995,623,0.013000000000000001,-0.955,0.17,21.5432208,16.673077799999998,36.6120162,91.11178116,4.9274388,-21.2567418
6.24,624,0.005,-0.9590000000000001,0.17600000000000002,22.0015872,18.2200644,36.669312,91.34669394,4.5550161000000005,-21.0848544
6.25,625,0.003,-0.966,0.165,21.027558600000006,19.9389384,36.8411994,91.57587714,4.1825934,-20.89004868
6.26,626,0.001,-0.9740000000000001,0.151,20.8556712,21.2567418,36.2109456,91.81078992,3.80444112,-20.6837838
6.27,627,-0.003,-0.978,0.168,22.058882999999998,20.6837838,35.695283399999994,92.0457027,3.4377480000000005,-20.49470766
6.28,628,0.004,-0.9790000000000001,0.177,21.7151082,19.079501399999998,35.4088044,92.2748859,3.07678446,-20.31709068
6.29,629,0.013999999999999999,-0.978,0.179,21.5432208,18.506543399999998,34.950438,92.49833952,2.7215505,-20.14520328
6.3,630,0.0,-0.98,0.184,21.142150199999996,17.3606274,34.37748,92.72179314,2.36631654,-19.98477504
6.31,631,-0.003,-0.993,0.179,20.626488000000002,16.558486199999994,34.4347758,92.94524676,2.01108258,-19.83580596
6.32,632,-0.002,-1.001,0.17600000000000002,20.7410796,15.183387000000002,35.0077338,93.1629708,1.65011904,-19.704025620000003
6.33,633,-0.001,-1.0090000000000001,0.18,20.9702628,13.2353298,35.52339600000001,93.37496526,1.2891555,-19.58943402
6.34,634,-0.013000000000000001,-1.016,0.17800000000000002,21.314037600000002,11.0580894,35.46610020000001,93.59268929999999,0.92819196,-19.50349032
6.35,635,-0.013999999999999999,-1.0170000000000001,0.17300000000000001,20.5691922,10.3705398,34.262888399999994,93.79895417999998,0.5844171599999999,-19.41754662
6.36,636,-0.018000000000000002,-1.05,0.17300000000000001,21.027558600000006,11.745639,32.372127,94.0224078,0.25210152,-19.32587334
6.37,637,-0.015,-1.0490000000000002,0.16399999999999998,20.1108258,12.318597,31.3980984,94.22867268000002,-0.06875496,-19.2227409
6.38,638,-0.015,-1.037,0.15,20.454600600000006,12.1467096,31.455394199999997,94.43493756,-0.38961144,-19.12533804
6.39,639,0.0,-1.038,0.152,19.8243468,10.599723,31.111619399999995,94.63547286,-0.70473834,-19.04512392
6.4,640,0.0,-1.038,0.182,19.9962342,8.880849000000003,30.7678446,94.83600816,-1.01986524,-18.982098540000006
6.41,641,-0.02,-1.04,0.18,18.5638392,7.161975,30.595957199999997,95.03654346,-1.32926256,-18.9362619
6.42,642,-0.036000000000000004,-1.046,0.16899999999999998,16.2147114,6.2452422,30.366774000000003,95.1969717,-1.6329303,-18.89615484
6.43,643,-0.043,-1.056,0.159,13.750992000000002,6.3598338,29.67922440000001,95.33448162,-1.93659804,-18.86177736
6.4399999999999995,644,-0.053,-1.058,0.15,11.45916,6.0733548,28.7051958,95.44907322,-2.22307704,-18.82739988
6.45,645,-0.051,-1.0590000000000002,0.16399999999999998,9.9694692,7.1046792000000005,27.6165756,95.55220566,-2.50955604,-18.78729282
6.46,646,-0.032,-1.046,0.175,8.250595200000001,8.250595200000001,26.929026,95.64387894,-2.77311672,-18.7357266
6.47,647,-0.027000000000000003,-1.031,0.175,6.990087599999999,8.250595200000001,26.642546999999997,95.7126339,-3.04813656,-18.6784308
6.4799999999999995,648,-0.052000000000000005,-1.0170000000000001,0.17800000000000002,6.0160589999999985,6.3025379999999975,26.642546999999997,95.7699297,-3.31742682,-18.64405332
6.49,649,-0.069,-1.0070000000000001,0.217,4.9274388,6.7609043999999985,26.2987722,95.81576634,-3.58671708,-18.60394626
6.5,650,-0.07400000000000001,-1.013,0.207,2.5210152000000003,10.3705398,26.1268848,95.83868466,-3.86173692,-18.52946172
6.51,651,-0.10300000000000001,-1.014,0.188,0.9167328000000001,11.745639,25.84040580000001,95.8558734,-4.13675676,-18.43778844
6.52,652,-0.11,-1.011,0.20800000000000002,-0.11459160000000004,15.068795399999999,24.4653066,95.84441424,-4.40031744,-18.31173768
6.53,653,-0.11,-1.01,0.221,0.3437748,18.9649098,22.7464326,95.83295508,-4.64668938,-18.15130944
6.54,654,-0.115,-1.0190000000000001,0.233,-0.6302538000000001,23.835052800000003,21.7151082,95.80430718,-4.893061319999998,-17.93931498
6.55,655,-0.146,-1.0190000000000001,0.23199999999999998,-1.7761698000000001,26.1268848,21.600516600000002,95.76420011999998,-5.13943326,-17.704402199999997
6.56,656,-0.171,-1.006,0.23600000000000002,-3.0366774,28.3041252,21.199446,95.72409306,-5.3972643599999985,-17.44084152
6.57,657,-0.185,-0.985,0.237,-3.5523396000000003,31.627281600000003,19.8243468,95.6553381,-5.63217714,-17.15436252
6.58,658,-0.192,-0.972,0.23800000000000002,-1.9480572,33.9764094,18.2200644,95.60377188,-5.85563076,-16.83350604
6.59,659,-0.184,-0.961,0.281,0.3437748,35.809875,16.386598799999998,95.56366482,-6.06189564,-16.501190400000002
6.6,660,-0.16899999999999998,-0.9640000000000001,0.3,1.7188740000000002,39.018439799999996,15.126091199999998,95.5407465,-6.26243094,-16.1287677
6.61,661,-0.156,-0.955,0.299,1.9480572,40.2789474,14.4958374,95.5407465,-6.45723666,-15.75061542
6.62,662,-0.138,-0.9540000000000001,0.282,2.291832,39.820581,13.750992000000002,95.51782818,-6.6463128,-15.36673356
6.63,663,-0.147,-0.946,0.255,2.3491277999999998,37.586044799999996,13.3499214,95.49490986,-6.82392978,-15.011499600000002
6.64,664,-0.174,-0.9329999999999999,0.251,3.9534102,35.9817624,12.4904844,95.48918028,-6.990087599999999,-14.667724799999998
6.65,665,-0.193,-0.92,0.24100000000000002,5.0993262,35.7525792,11.2872726,95.49490986,-7.144786260000001,-14.32395
6.66,666,-0.198,-0.909,0.248,6.3598338,36.2109456,9.453807,95.5407465,-7.29375534,-13.96871604
6.67,667,-0.2,-0.905,0.248,8.136003599999999,36.554720399999994,7.3911582,95.56939440000001,-7.41407652,-13.61348208
6.68,668,-0.187,-0.917,0.23399999999999999,9.2819196,37.586044799999996,5.6149884000000005,95.61523104,-7.51720896,-13.246788959999998
6.6899999999999995,669,-0.19699999999999998,-0.927,0.225,9.9121734,35.52339600000001,4.4117766,95.66106768,-7.603152659999999,-12.89728458
6.7,670,-0.214,-0.9440000000000001,0.214,10.2559482,33.403451399999994,3.3231564,95.71836348,-7.677637200000001,-12.57069852
6.71,671,-0.21,-0.9490000000000001,0.20199999999999999,9.2819196,31.627281600000003,2.3491277999999998,95.78711844,-7.75785132,-12.25557162
6.72,672,-0.20600000000000002,-0.95,0.183,9.167328,28.81978740000001,0.7448454000000001,95.83868466,-7.80368796,-11.96909262
6.7299999999999995,673,-0.21600000000000005,-0.963,0.172,8.651665800000002,26.1268848,-0.6875496,95.8845213,-7.82660628,-11.70553194
6.74,674,-0.233,-0.9740000000000001,0.14300000000000002,7.906820400000001,23.663165399999997,-2.291832,95.93035794,-7.838065440000001,-11.470619159999998
6.75,675,-0.226,-0.978,0.11900000000000001,6.9327918,21.371333399999997,-4.5263682,95.970465,-7.820876699999999,-11.25289512
6.76,676,-0.2,-0.971,0.11,6.5317212,18.277360199999997,-7.0473834,96.00484248,-7.792228800000001,-11.05235982
6.77,677,-0.18600000000000005,-0.97,0.109,6.0160589999999985,15.813640800000002,-8.250595200000001,96.03921996,-7.72920342,-10.886202
6.78,678,-0.175,-0.9670000000000001,0.106,4.9274388,13.2926256,-8.479778399999999,96.06786786,-7.66044846,-10.7429625
6.79,679,-0.161,-0.9640000000000001,0.098,3.8961144,8.9381448,-8.651665800000002,96.09651576,-7.58596392,-10.64555964
6.8,680,-0.145,-0.9670000000000001,0.094,2.6929026,3.0366774,-8.59437,96.1137045,-7.505749800000001,-10.60545258
6.81,681,-0.133,-0.975,0.09300000000000001,1.0313244000000001,-2.2345362,-8.8235532,96.10224534,-7.41407652,-10.61118216
6.82,682,-0.13,-0.985,0.091,-0.40107059999999994,-6.1879464,-9.5111028,96.10797492,-7.31094408,-10.66274838
6.83,683,-0.14300000000000002,-0.9990000000000001,0.105,-1.9480572,-8.8235532,-10.4278356,96.09651576,-7.19635248,-10.7429625
6.84,684,-0.156,-1.003,0.107,-4.010706000000001,-10.084060800000001,-12.1467096,96.06786786,-7.06457214,-10.8289062
6.85,685,-0.174,-1.003,0.11,-5.72958,-11.2872726,-13.5791046,96.02203122,-6.9156030600000005,-10.92630906
6.86,686,-0.18,-1.006,0.10800000000000001,-7.5630456000000015,-12.318597,-14.7250206,95.95327626,-6.77236356,-11.02371192
6.87,687,-0.172,-1.004,0.11900000000000001,-8.7089616,-13.0061466,-16.157415599999997,95.87879172,-6.5947465800000025,-11.13830352
6.88,688,-0.168,-1.002,0.136,-9.224623800000002,-13.3499214,-17.8762896,95.7985776,-6.39994086,-11.25289512
6.89,689,-0.161,-1.0070000000000001,0.14400000000000002,-9.5111028,-12.032118,-19.480572,95.7126339,-6.19367598,-11.35029798
6.9,690,-0.153,-1.004,0.16,-10.084060800000001,-10.084060800000001,-20.7410796,95.62096062,-5.97595194,-11.4305121
6.91,691,-0.15,-0.998,0.19,-10.1413566,-8.136003599999999,-21.600516600000002,95.5407465,-5.76395748,-11.4878079
6.92,692,-0.14,-0.992,0.17600000000000002,-10.7716104,-5.2712136,-21.485925,95.43761406,-5.54623344,-11.52218538
6.93,693,-0.139,-0.9940000000000001,0.17,-10.313244000000001,-5.1566220000000005,-20.912967000000002,95.33448162,-5.33423898,-11.55083328
6.9399999999999995,694,-0.134,-0.991,0.17800000000000002,-9.682990199999999,-4.7555514,-20.7410796,95.24280834,-5.1222445200000015,-11.579481179999998
6.95,695,-0.12300000000000001,-0.988,0.172,-8.193299399999999,-3.8961144,-20.7410796,95.15686464,-4.91597964,-11.602399499999999
6.96,696,-0.09300000000000001,-0.9840000000000001,0.16899999999999998,-6.589017,-3.380452200000001,-20.340009,95.11675757999998,-4.703985179999999,-11.62531782
6.97,697,-0.079,-0.97,0.179,-5.0993262,-4.4117766,-19.9962342,95.06519136,-4.50344988,-11.64823614
6.9799999999999995,698,-0.07200000000000001,-0.966,0.20600000000000002,-2.5210152000000003,-6.0160589999999985,-19.5378678,95.04227304,-4.30291458,-11.69407278
6.99,699,-0.053,-0.983,0.214,-1.3750992,-5.2712136,-18.621135,95.03081388,-4.11383844,-11.72845026
7.0,700,-0.002,-0.961,0.237,-1.432395,-6.990087599999999,-17.7044022,95.01935472,-3.93049188,-11.78001648
7.01,701,-0.013000000000000001,-0.973,0.24600000000000002,-0.5156622000000001,-8.8235532,-17.6471064,95.07092094,-3.7242269999999995,-11.87168976
7.02,702,-0.024,-0.99,0.235,-1.3178034,-9.740286,-16.8449652,95.06519136,-3.54661002,-11.95190388
7.03,703,-0.035,-0.997,0.233,-2.3491277999999998,-10.026765,-16.272007199999994,95.04800262,-3.37472262,-12.032117999999999
7.04,704,-0.040999999999999995,-1.005,0.233,-3.0939732,-9.2819196,-15.6990492,95.01935472,-3.2085648000000004,-12.11233212
7.05,705,-0.048,-1.011,0.22399999999999998,-3.6669312000000014,-7.734933000000002,-15.6990492,94.98497724,-3.04240698,-12.1753575
7.06,706,-0.054000000000000006,-1.0190000000000001,0.215,-4.5263682,-7.0473834,-15.469866,94.97924766,-2.88197874,-12.23838288
7.07,707,-0.045,-1.025,0.20800000000000002,-5.2139178,-7.6776372,-15.297978599999999,94.92768144,-2.7215505,-12.30140826
7.08,708,-0.031,-1.021,0.203,-6.0160589999999985,-8.4224826,-15.3552744,94.87038564,-2.5611222600000003,-12.370163219999998
7.09,709,-0.017,-1.012,0.19899999999999998,-6.0160589999999985,-8.59437,-15.6417534,94.81308984,-2.39496444,-12.44464776
7.1,710,-0.002,-1.012,0.179,-6.130650599999999,-8.9381448,-15.527161800000002,94.75579404,-2.2345362,-12.5191323
7.11,711,-0.003,-1.018,0.16399999999999998,-5.72958,-9.224623800000002,-15.297978599999999,94.72141656,-2.05691922,-12.605075999999999
7.12,712,-0.011000000000000001,-1.0170000000000001,0.158,-5.5576926,-10.5424272,-15.068795399999999,94.66985034,-1.89649098,-12.696749280000002
7.13,713,-0.023,-1.0190000000000001,0.156,-4.8128472,-11.802934800000001,-15.068795399999999,94.62401369999999,-1.73606274,-12.8056113
7.14,714,-0.018000000000000002,-1.01,0.152,-4.4117766,-11.9748222,-15.126091199999998,94.58390664,-1.5756344999999998,-12.90874374
7.15,715,-0.013999999999999999,-1.004,0.161,-3.6669312000000014,-11.172680999999999,-14.266654199999998,94.54952916,-1.4209358399999998,-13.0061466
7.16,716,-0.017,-1.0,0.156,-3.3231564,-9.453807,-12.261301199999998,94.53806999999999,-1.28342592,-13.09781988
7.17,717,-0.013999999999999999,-0.992,0.158,-3.2658606,-8.9954406,-10.886202,94.5094221,-1.1688343199999998,-13.178034
7.18,718,-0.006,-0.982,0.157,-3.2085647999999996,-8.250595200000001,-10.026765,94.48077420000001,-1.0599723,-13.25251854
7.1899999999999995,719,-0.001,-0.971,0.149,-3.6096353999999997,-7.906820400000001,-9.396511199999999,94.44639672,-0.96256944,-13.321273499999998
7.2,720,-0.001,-0.966,0.13699999999999998,-3.6669312000000014,-8.7089616,-8.8235532,94.40628966,-0.86516658,-13.40148762
7.21,721,-0.009000000000000001,-0.968,0.125,-3.8961144,-10.084060800000001,-8.7662574,94.38337134,-0.76203414,-13.4931609
7.22,722,-0.018000000000000002,-0.975,0.126,-3.380452200000001,-10.943497800000001,-9.2819196,94.35472344,-0.6589017,-13.596293340000004
7.2299999999999995,723,-0.025,-0.9840000000000001,0.125,-3.0366774,-10.5424272,-10.2559482,94.32034596,-0.55003968,-13.6936962
7.24,724,-0.025,-0.986,0.13,-2.291832,-9.167328,-10.943497800000001,94.30315722,-0.4297185000000001,-13.77391032
7.25,725,-0.017,-0.9940000000000001,0.124,-2.1772404,-7.906820400000001,-10.886202,94.28023890000001,-0.31512690000000004,-13.84266528
7.26,726,-0.008,-0.998,0.124,-2.2345362,-7.0473834,-10.084060800000001,94.27450932,-0.20626488,-13.911420239999998
7.27,727,0.0,-1.002,0.131,-1.7188740000000002,-6.703608600000001,-8.9954406,94.25732058,-0.10886202,-13.96871604
7.28,728,0.013000000000000001,-1.002,0.133,-1.7761698000000001,-6.9327918,-8.136003599999999,94.24013184,-0.02291832,-14.03174142
7.29,729,0.013999999999999999,-0.9940000000000001,0.135,-1.2032118,-7.9641161999999985,-6.990087599999999,94.22867268000002,0.04583664,-14.10049638
7.3,730,0.006999999999999999,-0.982,0.146,-0.057295800000000015,-8.7662574,-6.0160589999999985,94.22867268000002,0.11459160000000003,-14.18644008
7.31,731,0.0,-0.977,0.154,0.6302538000000001,-8.651665800000002,-5.5003968,94.28023890000001,0.18334656,-14.272383780000002
7.32,732,-0.006,-0.976,0.161,1.2605076000000002,-7.5630456000000015,-5.3285094000000015,94.29169806,0.24064236,-14.34113874
7.33,733,-0.012,-0.972,0.16699999999999998,2.1199446,-6.7609043999999985,-5.3858052,94.31461638,0.30366774,-14.40416412
7.34,734,-0.013000000000000001,-0.9670000000000001,0.17300000000000001,3.380452200000001,-5.844171599999999,-5.6149884000000005,94.34899386,0.36669312,-14.45573034
7.35,735,-0.013999999999999999,-0.9620000000000001,0.185,5.2139178,-4.9274388,-5.72958,94.40628966,0.4297185000000001,-14.495837400000001
7.36,736,-0.011000000000000001,-0.965,0.19699999999999998,6.417129599999999,-4.1825934,-5.443101,94.53806999999999,0.48128472,-14.53594446
7.37,737,-0.006999999999999999,-0.97,0.21,6.7609043999999985,-4.5263682,-4.7555514,94.60682496,0.53285094,-14.576051520000002
7.38,738,-0.001,-0.973,0.22,7.333862400000001,-5.042030400000002,-4.1825934,94.68130949999998,0.5786875800000001,-14.62188816
7.39,739,0.004,-0.98,0.222,7.6203414,-5.2712136,-3.7815228,94.75579404,0.62452422,-14.667724799999998
7.4,740,0.005,-0.99,0.22699999999999998,7.734933000000002,-5.1566220000000005,-3.5523396000000003,94.83600816,0.66463128,-14.71356144
7.41,741,0.0,-1.0,0.225,7.7922288,-5.3858052,-3.6096353999999997,94.97924766,0.70473834,-14.76512766
7.42,742,-0.005,-1.014,0.21,7.3911582,-5.042030400000002,-3.6669312000000014,95.0537322,0.7448454000000001,-14.810964300000002
7.43,743,-0.01,-1.026,0.203,6.4744254,-4.297185,-3.8388186,95.12248716,0.7906820400000001,-14.85107136
7.4399999999999995,744,-0.015,-1.032,0.20199999999999999,6.0160589999999985,-3.380452200000001,-4.1825934,95.17978295999998,0.83651868,-14.879719259999998
7.45,745,-0.017,-1.0290000000000001,0.19899999999999998,5.0993262,-2.0626488000000003,-4.4690724,95.23134918,0.8823553199999999,-14.896907999999998
7.46,746,-0.02,-1.018,0.20800000000000002,4.7555514,-0.7448454000000001,-4.3544808,95.38031826,0.8880849000000001,-14.88544884
7.47,747,-0.024,-0.9990000000000001,0.218,5.5576926,0.11459160000000004,-4.010706000000001,95.43761406,0.93392154,-14.879719259999998
7.4799999999999995,748,-0.023,-0.9890000000000001,0.22399999999999998,5.72958,1.4896908000000002,-3.5523396000000003,95.49490986,0.96829902,-14.862530519999998
7.49,749,-0.019,-0.9840000000000001,0.22699999999999998,5.443101,2.6929026,-3.0366774,95.55220566,0.9912173399999998,-14.82815304
7.5,750,-0.016,-0.9840000000000001,0.225,4.7555514,2.86479,-2.1772404,95.60377188,1.00840608,-14.799505140000004
7.51,751,-0.009000000000000001,-0.985,0.223,3.7242269999999995,2.9220858,-1.5469866,95.76420011999998,1.0026765,-14.76512766
7.52,752,0.001,-0.992,0.209,2.8074942000000003,2.6356068,-1.3178034,95.79284802,1.01413566,-14.73647976
7.53,753,0.002,-1.0090000000000001,0.196,1.7188740000000002,1.7761698000000001,-1.2032118,95.81576634,1.0255948199999998,-14.71929102
7.54,754,0.001,-1.026,0.179,0.40107059999999994,1.6615782,-0.9740286,95.81576634,1.0313244000000001,-14.70210228
7.55,755,-0.006999999999999999,-1.03,0.16399999999999998,-1.0313244000000001,1.3750992,-0.8021411999999999,95.81003676,1.03705398,-14.684913540000002
7.56,756,-0.017,-1.015,0.171,-1.9480572,0.2291832000000001,-0.6875496,95.970465,0.93965112,-14.6390769
7.57,757,-0.013999999999999999,-0.995,0.188,-1.7761698000000001,0.0,-0.7448454000000001,95.95327626,0.9453807,-14.6390769
7.58,758,-0.01,-0.981,0.191,-1.5469866,-0.4583664000000001,-0.9167328000000001,95.93608752,0.95683986,-14.64480648
7.59,759,-0.001,-0.97,0.20199999999999999,-0.9740286,-0.286479,-1.0313244000000001,95.92462836,0.96256944,-14.64480648
7.6,760,0.002,-0.9740000000000001,0.21100000000000002,-0.057295800000000015,-0.1718874,-1.0886202,95.92462836,0.9740286,-14.64480648
7.61,761,0.002,-0.991,0.218,0.0,-0.4583664000000001,-0.6302538000000001,96.6580146,0.91100322,-14.66199522
7.62,762,-0.003,-1.0,0.22,-0.5156622000000001,-1.2032118,-0.057295800000000015,96.65228502,0.91100322,-14.67345438
7.63,763,-0.006,-1.003,0.212,-1.6615782,-1.3178034,-0.3437748,96.63509628,0.9167328,-14.684913540000002
7.64,764,-0.004,-1.006,0.201,-3.0366774,0.0,-0.9740286,96.6007188,0.92819196,-14.684913540000002
7.65,765,-0.002,-1.0090000000000001,0.195,-3.8388186,0.7448454000000001,-1.432395,96.56634132,0.93965112,-14.67345438
7.66,766,-0.002,-1.012,0.18899999999999997,-4.2398892,0.9740286,-1.432395,96.58353006,0.93965112,-14.66199522
7.67,767,0.0,-1.008,0.193,-4.4117766,1.145916,-1.3750992,96.543423,0.95111028,-14.65053606
7.68,768,0.002,-1.003,0.195,-4.2398892,1.0313244000000001,-1.2605076000000002,96.49758636,0.95683986,-14.6390769
7.6899999999999995,769,0.003,-1.003,0.198,-4.297185,0.8594370000000001,-0.8594370000000001,96.45174972,0.96829902,-14.62761774
7.7,770,0.003,-1.005,0.203,-4.4690724,0.6302538000000001,-0.7448454000000001,96.41164266,0.9740286,-14.62188816
7.71,771,0.005,-0.997,0.21100000000000002,-4.5263682,0.40107059999999994,-0.6302538000000001,96.49758636,0.96829902,-14.62188816
7.72,772,0.005,-0.992,0.214,-4.583664,0.4583664000000001,-0.7448454000000001,96.45174972,0.9740286,-14.61615858
7.7299999999999995,773,0.004,-0.988,0.213,-4.6982555999999995,0.572958,-0.8594370000000001,96.40591308,0.98548776,-14.610429000000002
7.74,774,0.01,-0.9890000000000001,0.205,-4.7555514,0.8594370000000001,-0.7448454000000001,96.35434686,0.9912173399999998,-14.59896984
7.75,775,0.018000000000000002,-0.993,0.198,-5.0993262,0.572958,-0.5156622000000001,96.30278064,0.9912173399999998,-14.593240260000002
7.76,776,0.021,-0.993,0.198,-5.443101,-0.2291832000000001,-0.2291832000000001,96.34288769999999,1.00840608,-14.610429000000002
7.77,777,0.02,-0.985,0.192,-5.443101,-1.0886202,0.11459160000000004,96.28559190000001,1.00840608,-14.62188816
7.78,778,0.02,-0.983,0.187,-5.3285094000000015,-1.4896908000000002,0.286479,96.23402568,1.00840608,-14.6390769
7.79,779,0.016,-0.9890000000000001,0.182,-5.042030400000002,-1.7761698000000001,0.286479,96.18245946,1.00840608,-14.656265639999996
7.8,780,0.011000000000000001,-0.993,0.185,-4.9847346,-2.3491277999999998,0.286479,96.13089324,1.00840608,-14.684913540000002
7.81,781,0.005,-0.9890000000000001,0.185,-4.8701430000000006,-2.9793816000000004,0.11459160000000004,96.1423524,0.9969469199999998,-14.71356144
7.82,782,0.002,-0.987,0.18,-4.8701430000000006,-3.0939732,-0.11459160000000004,96.09651576,1.0026765,-14.74220934
7.83,783,0.0,-0.988,0.17800000000000002,-4.6982555999999995,-3.0939732,-0.6302538000000001,96.04494954,1.01413566,-14.77658682
7.84,784,0.003,-0.988,0.177,-4.297185,-2.9793816000000004,-1.0313244000000001,96.00484248,1.0255948199999998,-14.80523472
7.85,785,0.009000000000000001,-0.981,0.177,-4.0680017999999984,-2.6356068,-1.2605076000000002,95.95900584,1.04278356,-14.82815304
7.86,786,0.013999999999999999,-0.98,0.175,-3.5523396000000003,-2.7501984,-1.145916,95.98765374,1.0599723,-14.85680094
7.87,787,0.011000000000000001,-0.981,0.16899999999999998,-3.0366774,-3.2085647999999996,-0.8594370000000001,95.95327626,1.07143146,-14.89117842
7.88,788,0.011000000000000001,-0.986,0.16399999999999998,-2.8074942000000003,-3.380452200000001,-0.6875496,95.92462836,1.08289062,-14.9255559
7.89,789,0.005,-0.992,0.163,-2.6356068,-3.6096353999999997,-0.572958,95.89598046,1.09434978,-14.95993338
