TimeStamp(s),FrameCounter,AccX,AccY,AccZ,GyrX,GyrY,GyrZ,EulerX,EulerY,EulerZ
0.01,1,-0.024,-1.012,0.003,-0.8021411999999999,5.6722842,0.8594370000000001,90.63622602,-1.0886202,-38.10170700000001
0.02,2,-0.022,-1.014,-0.006999999999999999,-1.8334656000000005,8.7089616,1.8334656000000005,90.6133077,-1.10580894,-38.015763299999996
0.03,3,-0.022,-1.013,-0.006999999999999999,-1.7188740000000002,8.7089616,2.0626488000000003,90.59038938,-1.13445684,-37.9298196
0.04,4,-0.021,-1.011,-0.005,-1.7761698,8.4224826,2.0053530000000004,90.57320064,-1.1573751600000002,-37.84960548
0.05,5,-0.021,-1.009,-0.001,-1.8334656000000005,7.906820400000001,1.6615782,90.53882316,-1.1745638999999999,-37.76939136
0.060000000000000005,6,-0.02,-1.008,-0.002,-2.1772404,7.7349330000000025,1.2605076000000002,90.51590484,-1.19175264,-37.69490682
0.06999999999999999,7,-0.021,-1.004,-0.004,-2.578311,7.7922288,1.0886202,90.48152736,-1.2032117999999998,-37.6146927
0.08,8,-0.023,-1.003,-0.009000000000000001,-2.7501984,8.078707799999998,1.145916,90.45287946,-1.22040054,-37.54020816
0.09,9,-0.025,-1.002,-0.013,-2.7501984,8.307891,1.2032118,90.42423156,-1.2318597,-37.45426446000001
0.09999999999999999,10,-0.026,-1.0,-0.018000000000000002,-2.5210152000000003,8.4224826,1.2605076000000002,90.37839492,-1.24904844,-37.37405034
0.11,11,-0.027000000000000003,-0.999,-0.017,-2.2345362,8.5370742,1.2032118,90.34974702,-1.26623718,-37.28810664
0.12,12,-0.029,-1.001,-0.016,-1.8334656000000005,8.9954406,1.2032118,90.3268287,-1.27769634,-37.20216294
0.13,13,-0.034,-1.006,-0.012,-1.432395,9.453807000000001,1.145916,90.30963996,-1.29488508,-37.10476008
0.14,14,-0.036000000000000004,-1.007,-0.009000000000000001,-1.2032118,10.4278356,1.145916,90.29245122,-1.31207382,-37.00162764
0.15000000000000002,15,-0.045,-1.005,-0.003,-0.8021411999999999,11.3445684,1.2032118,90.27526248,-1.32926256,-36.89276562
0.16,16,-0.041,-1.009,-0.002,-0.7448454000000001,12.4331886,1.432395,90.26380332,-1.35218088,-36.76671485999999
0.17,17,-0.043,-1.013,-0.001,-0.9167328,13.5791046,2.1199446,90.24661458,-1.3750992,-36.63493452
0.18000000000000002,18,-0.051,-1.019,0.009000000000000001,-1.2032118,14.667724800000002,2.8074942000000003,90.22942584,-1.40947668,-36.49169502
0.19,19,-0.058,-1.029,0.018000000000000002,-2.578311,15.2406828,3.8961144,90.19504836000002,-1.44958374,-36.33699636
0.2,20,-0.067,-1.036,0.014,-4.010706000000001,15.4125702,5.3858052,90.14921172,-1.5183387000000002,-36.18802728
0.21000000000000002,21,-0.085,-1.04,0.009000000000000001,-5.3285094000000015,15.756345000000001,6.760904399999999,90.08618634,-1.5870936600000003,-36.03332862
0.22,22,-0.115,-1.042,0.011,-6.8182002000000015,16.8449652,7.7922288,90.0117018,-1.67303736,-35.8671708
0.23,23,-0.139,-1.034,0.016,-8.307891,19.0222056,8.307891,89.92002852,-1.75898106,-35.67809466
0.24000000000000002,24,-0.142,-1.027,-0.01,-9.568398599999998,20.168121600000006,8.479778399999999,89.8111665,-1.85065434,-35.47755936
0.25,25,-0.139,-1.022,-0.027000000000000003,-9.797581800000001,19.7097552,8.078707799999998,89.6965749,-1.9480572000000005,-35.28275364
0.26,26,-0.127,-1.021,-0.045,-10.4851314,18.7357266,7.2765666,89.5819833,-2.02254174,-35.09940708000001
0.27,27,-0.123,-1.021,-0.047,-10.9434978,18.9649098,7.161975,89.46166212,-2.10275586,-34.91033094
0.28,28,-0.121,-1.016,-0.039,-10.4851314,20.2254174,7.5057497999999985,89.34707052,-2.18296998,-34.71552522
0.29000000000000004,29,-0.113,-1.013,-0.044,-9.8548776,21.4286292,7.6776372,89.23247891999998,-2.2631841,-34.503530760000004
0.3,30,-0.109,-1.009,-0.052000000000000005,-9.3392154,22.2880662,7.6203414,89.12361690000002,-2.3491277999999998,-34.28007714
0.31,31,-0.109,-0.996,-0.048,-8.5370742,22.9756158,7.333862400000001,89.02048446,-2.42361234,-34.050893939999995
0.32,32,-0.111,-0.976,-0.047,-7.7349330000000025,23.491278,6.875496000000001,88.92881118,-2.49809688,-33.82171074
0.33,33,-0.116,-0.961,-0.042,-6.302537999999998,24.064235999999998,6.589017,88.85432664,-2.56685184,-33.58106838
0.34,34,-0.129,-0.959,-0.033,-4.297185,24.350715,6.9327918,88.79703083999998,-2.6356068,-33.34042602
0.35000000000000003,35,-0.14,-0.958,-0.021,-3.2658606,24.923673,7.161975,88.74546462,-2.7215505,-33.08832450000001
0.36000000000000004,36,-0.141,-0.952,-0.006,-2.86479,25.553926800000006,6.875496000000001,88.69962798,-2.79030546,-32.836222979999995
0.37,37,-0.135,-0.948,-0.005,-3.151269,25.6112226,6.2452422,88.65379134000001,-2.85333084,-32.57839188
0.38,38,-0.133,-0.952,-0.004,-3.4950437999999995,25.0382646,5.3858052,88.60222512,-2.91062664,-32.332019939999995
0.39,39,-0.127,-0.956,0.0,-3.7815227999999994,24.5798982,4.1825934,88.54492932000002,-2.9507337,-32.085648
0.4,40,-0.122,-0.964,0.0,-3.8961144,23.835052800000003,2.7501984,88.4933631,-2.99084076,-31.85073522
0.41000000000000003,41,-0.113,-0.974,0.0,-4.2398892,22.7464326,1.432395,88.43033772,-3.0080295,-31.62155202000001
0.42000000000000004,42,-0.101,-0.983,-0.001,-4.3544808,21.6005166,0.0,88.37304191999998,-3.0080295,-31.409557560000003
0.43,43,-0.086,-0.991,-0.004,-4.1252976000000015,20.168121600000006,-1.4896908000000002,88.3214757,-2.99084076,-31.20902226
0.44,44,-0.068,-0.999,-0.005,-3.724227,18.5638392,-2.86479,88.26990948,-2.96219286,-31.0256757
0.45,45,-0.055,-1.004,-0.009000000000000001,-3.2658606,16.329303,-4.010706000000001,88.22407283999998,-2.9220858,-30.87097704
0.46,46,-0.046,-1.012,-0.004,-3.2085648,14.037471,-5.042030400000002,88.18396578000002,-2.87051958,-30.73346712
0.47000000000000003,47,-0.044,-1.015,-0.002,-3.6096354,11.516455800000001,-5.9014674000000005,88.13812913999998,-2.81322378,-30.61887552
0.48000000000000004,48,-0.045,-1.012,-0.004,-3.9534102,9.0527364,-6.6463128000000005,88.0922925,-2.74446882,-30.53293182
0.49,49,-0.05,-1.006,0.0,-4.4690724,7.2192707999999985,-7.2765666,88.04072628,-2.6699842800000004,-30.46417686
0.5,50,-0.059,-1.003,0.006,-5.7868758000000025,5.9014674000000005,-8.021412000000002,87.98343048000002,-2.59549974,-30.40688106
0.51,51,-0.066,-1.01,0.005,-7.9641161999999985,5.1566220000000005,-8.479778399999999,87.90321636,-2.50955604,-30.36104442
0.52,52,-0.066,-1.018,-0.003,-10.026765,4.9274388,-8.8235532,87.79435434000001,-2.42361234,-30.31520778
0.53,53,-0.066,-1.028,-0.016,-12.032117999999999,4.8128472,-8.8235532,87.66830358,-2.3376686399999995,-30.269371140000004
0.54,54,-0.07,-1.033,-0.032,-13.750992000000002,4.010706000000001,-8.307891,87.53079366,-2.25172494,-30.234993660000004
0.55,55,-0.073,-1.036,-0.056,-14.610429000000002,2.86479,-7.1046792000000005,87.37036542000001,-2.18869956,-30.212075339999995
0.56,56,-0.069,-1.028,-0.069,-14.7823164,3.666931200000001,-5.844171599999999,87.22139634,-2.13140376,-30.17769786
0.5700000000000001,57,-0.063,-1.008,-0.081,-13.5791046,5.844171599999999,-4.583664,87.07815683999998,-2.08556712,-30.12613164
0.5800000000000001,58,-0.061,-0.988,-0.086,-11.3445684,7.6776372,-3.4950437999999995,86.95783566,-2.05118964,-30.051647100000004
0.59,59,-0.054000000000000006,-0.969,-0.086,-9.1100322,10.1986524,-2.8074942000000003,86.8604328,-2.02254174,-29.95424424
0.6,60,-0.042,-0.938,-0.08800000000000001,-7.0473834,13.464512999999998,-2.6929026,86.76875952,-1.98816426,-29.822463899999995
0.61,61,-0.032,-0.909,-0.092,-5.6722842,18.048177,-2.9793816000000004,86.70573413999998,-1.95378678,-29.64484692000001
0.62,62,-0.022,-0.8859999999999999,-0.103,-5.3285094000000015,23.7204612,-2.1772404,86.64270875999998,-1.92513888,-29.40993414
0.63,63,-0.006,-0.86,-0.119,-4.9274388,28.4760126,-0.057295800000000015,86.5739538,-1.9194093000000003,-29.129184719999994
0.64,64,0.005,-0.8370000000000001,-0.134,-4.3544808,31.5699858,2.578311,86.51665799999998,-1.93659804,-28.81405782
0.65,65,0.011,-0.8170000000000001,-0.129,-4.010706000000001,32.6013102,4.9847345999999995,86.45363262000002,-1.97097552,-28.49320134
0.66,66,0.026,-0.8190000000000001,-0.105,-4.4117766,33.0596766,6.9327918,86.39060724,-2.02827132,-28.1608857
0.67,67,0.028,-0.857,-0.083,-6.4744254,30.4240698,9.0527364,86.31039312,-2.10848544,-27.857217960000003
0.68,68,0.0,-0.928,-0.063,-7.333862400000001,26.1268848,11.45916,86.22444942,-2.21161788,-27.593657279999995
0.6900000000000001,69,-0.015,-1.01,-0.044,-6.589017,21.4286292,12.5477802,86.1442353,-2.32620948,-27.37020366
0.7000000000000001,70,0.001,-1.083,-0.024,-2.9793816000000004,17.5325148,10.7716104,86.10985782,-2.41788276,-27.192586680000005
0.7100000000000001,71,0.027000000000000003,-1.129,-0.006999999999999999,1.5469866,16.329303,6.5317212,86.11558740000002,-2.47517856,-27.02642886
0.72,72,0.047,-1.158,0.012,5.2712136,16.673077799999998,1.7761698,86.16142404,-2.48663772,-26.86027104
0.73,73,0.059,-1.156,0.049,6.875496000000001,15.5844576,-2.1199446,86.21871984,-2.45798982,-26.70557238
0.74,74,0.06,-1.137,0.107,6.417129599999999,14.381245800000002,-3.9534102,86.27601564,-2.41788276,-26.56806246
0.75,75,0.05,-1.146,0.149,4.2398892,10.9434978,-4.6409598,86.34477059999998,-2.3491277999999998,-26.45920044
0.76,76,0.038,-1.17,0.16899999999999998,-0.22918320000000006,5.042030400000002,-4.6409598,86.33904102,-2.30329116,-26.41336380000001
0.77,77,0.041,-1.179,0.158,-5.3858052,1.432395,-5.3858052,86.28747480000001,-2.24599536,-26.40190464
0.78,78,0.057,-1.2,0.11,-8.59437,2.0626488000000003,-7.6776372,86.19580152,-2.17151082,-26.39044548
0.79,79,0.07,-1.215,0.061,-11.45916,2.3491278,-10.8289062,86.08120991999998,-2.0626488000000003,-26.37325674
0.8,80,0.094,-1.219,0.039,-13.2353298,0.4010706,-13.9228794,85.94942957999999,-1.91367972,-26.37898632000001
0.81,81,0.13,-1.206,0.025,-14.495837400000001,-2.8074942000000003,-15.813640800000002,85.80619008000002,-1.75898106,-26.42482296
0.8200000000000001,82,0.153,-1.193,0.027000000000000003,-14.8396122,-6.8182002000000015,-16.8449652,85.65722099999998,-1.59855282,-26.50503708
0.8300000000000001,83,0.161,-1.205,0.028,-13.980175199999998,-9.568398599999998,-17.8762896,85.51971108000002,-1.42666542,-26.613899100000005
0.8400000000000001,84,0.14400000000000002,-1.221,0.031,-12.5477802,-9.568398599999998,-18.621135,85.39366032000002,-1.24904844,-26.722761119999994
0.85,85,0.098,-1.229,0.049,-11.516455800000001,-8.7662574,-18.2773602,85.29052787999998,-1.06570188,-26.825893560000004
0.86,86,0.049,-1.23,0.075,-12.2040054,-7.6203414,-17.303331600000003,85.16447712,-0.89954406,-26.91756684
0.87,87,0.025,-1.229,0.08800000000000001,-14.610429000000002,-5.2712136,-16.2147114,85.02123762,-0.7448454000000001,-26.9863218
0.88,88,0.013,-1.213,0.08900000000000001,-16.959556799999998,-2.7501984,-15.6417534,84.84935021999998,-0.59014674,-27.02642886
0.89,89,0.005,-1.188,0.07200000000000001,-18.2200644,-0.4010706,-15.527161800000002,84.66027408,-0.44117766,-27.04934718
0.9,90,0.0,-1.155,0.052000000000000005,-18.5638392,0.8021411999999999,-15.756345000000001,84.48838668,-0.28074942,-27.05507676
0.91,91,0.0,-1.119,0.043,-17.761698000000006,2.0053530000000004,-15.9282324,84.30504012,-0.12605075999999998,-27.04934718
0.92,92,-0.003,-1.072,0.043,-17.7044022,3.4377480000000005,-15.985528200000001,84.12742313999998,0.028647900000000004,-27.03215844
0.93,93,-0.003,-1.013,0.029,-18.907614000000002,6.130650599999999,-15.527161800000002,83.93261742,0.18334656,-26.992051380000003
0.9400000000000001,94,0.002,-0.941,0.026,-20.2827132,8.8235532,-14.152062599999999,83.72635254,0.32658606,-26.92329642
0.9500000000000001,95,0.01,-0.87,0.011,-20.626488,12.032117999999999,-12.7769634,83.52008766,0.46409598,-26.82016398
0.9600000000000001,96,0.031,-0.802,-0.024,-19.595163600000006,17.6471064,-11.8602306,83.31955236,0.59587632,-26.659735739999995
0.97,97,0.054000000000000006,-0.722,-0.034,-15.527161800000002,21.485925,-10.5424272,83.15912412,0.7161975,-26.45920044
0.98,98,0.075,-0.613,-0.036000000000000004,-10.599723,22.631841,-9.0527364,83.05599168,0.8250595199999999,-26.25293556
0.99,99,0.08900000000000001,-0.53,-0.047,-6.302537999999998,20.3973048,-7.9641161999999985,82.98723672,0.92246238,-26.05812984
1.0,100,0.107,-0.464,-0.065,-3.9534102,15.527161800000002,-7.2192707999999985,82.94712966,1.01413566,-25.91489034
1.01,101,0.122,-0.4270000000000001,-0.077,-1.3178034,9.6829902,-6.760904399999999,82.9356705,1.0886202,-25.82894664
1.02,102,0.14300000000000002,-0.402,-0.087,0.0,2.6356068,-6.302537999999998,82.9356705,1.1573751600000002,-25.8117579
1.03,103,0.161,-0.38,-0.099,1.3750992,-6.2452422,-5.6722842,82.94712966,1.20894138,-25.880512860000003
1.04,104,0.166,-0.35100000000000003,-0.08900000000000001,2.2345362,-16.673077799999998,-4.8128472,82.97004798,1.23758928,-26.052400259999995
1.05,105,0.153,-0.312,-0.075,2.578311,-29.5646328,-3.9534102,82.99296629999998,1.2605076000000002,-26.34460884
1.06,106,0.114,-0.251,-0.027000000000000003,3.7815227999999994,-43.48751220000001,-2.7501984,83.02734378,1.24331886,-26.780056920000003
1.07,107,0.06,-0.2,-0.004,4.1252976000000015,-61.020027,-0.4583664000000001,83.06172126,1.19748222,-27.381662819999995
1.08,108,0.006,-0.205,-0.111,0.9740286,-77.34933000000002,-2.0626488000000003,83.06745083999998,1.1459160000000002,-28.14369696
1.09,109,-0.079,-0.321,-0.389,-0.286479,-87.26150340000002,-17.475219,83.05599168,1.23758928,-29.0203227
1.1,110,-0.2,-0.6629999999999999,-0.184,6.8182002000000015,-73.3959198,-44.2323576,83.11901706,1.59282324,-29.793816
1.11,111,-0.298,-1.336,0.022,-7.9641161999999985,-20.5691922,-64.28588760000001,83.03307336,2.2058883,-30.07456542
1.12,112,-0.341,-1.775,-0.189,-13.980175199999998,18.5638392,-67.2079734,82.88983386,2.88770832,-29.97143298
1.1300000000000001,113,-0.313,-1.7380000000000002,-0.16899999999999998,1.2605076000000002,18.3919518,-42.7999626,82.90702259999998,3.3231564,-29.839652640000004
1.1400000000000001,114,-0.21,-1.587,-0.02,11.1153852,15.0687954,-15.126091199999998,83.02734378,3.48931422,-29.7078723
1.1500000000000001,115,-0.107,-1.654,0.049,12.6623718,16.615782,2.9220857999999996,83.16485370000002,3.47785506,-29.54171448
1.1600000000000001,116,-0.025,-1.861,0.057,8.4224826,17.9908812,6.2452422,83.26225656,3.43201842,-29.35263834
1.17,117,0.126,-1.988,0.006999999999999999,5.5003968,18.5065434,5.5576926,83.32528194,3.3919113599999995,-29.1635622
1.18,118,0.201,-2.066,0.005,7.2765666,17.0741484,6.2452422,83.41122564,3.34607472,-28.98594522
1.19,119,0.223,-2.097,0.06,10.6570188,14.266654199999998,9.6256944,83.52581724,3.2658606,-28.83697614
1.2,120,0.2,-2.052,0.077,8.7662574,8.59437,10.8289062,83.61749052,3.16845774,-28.73957328
1.21,121,0.136,-1.996,0.044,2.578311,2.6356068,8.880849000000003,83.64613842,3.0825140400000004,-28.69946622
1.22,122,0.065,-1.922,-0.005,-3.4950437999999995,-1.5469866,7.0473834,83.61176094,3.0080295,-28.71092538000001
1.23,123,0.014,-1.805,-0.029,-6.760904399999999,-5.3858052,9.2819196,83.54300598,2.91062664,-28.756762020000004
1.24,124,-0.059,-1.652,-0.059,-8.307891,-7.7349330000000025,14.381245800000002,83.45706228,2.76165756,-28.81405782
1.25,125,-0.126,-1.489,-0.115,-9.9121734,-7.906820400000001,18.7357266,83.35392984,2.5611222600000003,-28.87135362
1.26,126,-0.17800000000000002,-1.3330000000000002,-0.159,-9.3392154,-6.589017,21.1421502,83.25652698,2.3491277999999998,-28.91719026
1.27,127,-0.18600000000000005,-1.202,-0.179,-7.5057497999999985,-4.4117766,21.199446,83.18204244,2.13140376,-28.934379
1.28,128,-0.155,-1.09,-0.18600000000000005,-4.3544808,-0.9740286,19.8243468,83.1362058,1.93659804,-28.92291984
1.29,129,-0.087,-0.975,-0.173,0.7448454000000001,2.4064236,18.7357266,83.14766496,1.75325148,-28.877083199999998
1.3,130,-0.014,-0.847,-0.154,6.6463128000000005,3.8961144,18.6784308,83.20496076,1.56990492,-28.81405782
1.31,131,0.048,-0.737,-0.14400000000000002,13.120738199999998,1.3750992,18.9649098,83.34247067999998,1.38655836,-28.77968034
1.32,132,0.109,-0.635,-0.117,16.501190400000002,-3.2085648,19.480572,83.5086285,1.19175264,-28.78540992
1.33,133,0.146,-0.546,-0.105,17.3606274,-9.167328,19.0795014,83.68624548,0.9969469199999998,-28.854164879999995
1.34,134,0.15,-0.454,-0.095,15.813640800000002,-17.131444199999994,17.5325148,83.84667372,0.8136003599999999,-29.003133960000003
1.35,135,0.133,-0.373,-0.093,12.6623718,-24.5798982,15.0114996,83.97272448,0.65317212,-29.23231716
1.36,136,0.09,-0.28300000000000003,-0.108,10.255948199999999,-29.0489706,11.229976800000001,84.07585692,0.52139178,-29.507337
1.37,137,0.02,-0.19,-0.161,10.1413566,-29.7365202,8.7662574,84.18471894,0.41252976,-29.78808642
1.3800000000000001,138,-0.068,-0.107,-0.16,11.8602306,-27.3873924,8.307891,84.30504012,0.30939732,-30.051647100000004
1.3900000000000001,139,-0.133,-0.05,-0.154,11.229976800000001,-20.340009,7.2192707999999985,84.41963172,0.22918320000000003,-30.24072324
1.4000000000000001,140,-0.154,-0.006,-0.179,7.161975,-15.5844576,5.042030400000002,84.4826571,0.15469866,-30.38969232
1.4100000000000001,141,-0.135,0.026,-0.202,2.8074942000000003,-11.917526400000002,2.5210152000000003,84.51130500000002,0.12605075999999998,-30.510013500000003
1.42,142,-0.09,0.042,-0.191,0.4583664000000001,-9.9121734,0.4010706,84.51703458,0.11459160000000002,-30.607416359999995
1.43,143,-0.04,0.056,-0.155,-0.6302538000000001,-9.5111028,-1.0313244,84.51130500000002,0.11459160000000002,-30.69908964
1.44,144,-0.006999999999999999,0.07200000000000001,-0.081,0.0,-8.193299399999999,-3.151269,84.51130500000002,0.14323950000000002,-30.78503334
1.45,145,0.021,0.052000000000000005,-0.011,-0.4010706,-2.2345362,-5.844171599999999,84.50557542,0.20053530000000008,-30.81368124
1.46,146,0.011,-0.07400000000000001,0.001,-4.8128472,6.0733548,-5.3858052,84.4540092,0.25783110000000004,-30.76211502
1.47,147,0.061,-0.304,-0.129,-20.5691922,15.756345000000001,0.9167328,84.24201474,0.25783110000000004,-30.607416359999995
1.48,148,0.221,-0.552,-0.251,-29.621928600000004,31.741873200000004,7.448453999999999,83.938347,0.20626488,-30.28655988
1.49,149,0.31,-0.942,-0.358,-24.8090814,35.0650296,13.407217200000002,83.68624548,0.10313244,-29.93132592
1.5,150,0.2,-1.66,-0.403,-19.767051,3.2658606,17.475219,83.48571018,-0.06302537999999999,-29.8797597
1.51,151,0.149,-2.469,-0.16699999999999998,-5.9014674000000005,-36.32553720000001,18.621135,83.42841438,-0.28074942,-30.21780492
1.52,152,0.042,-2.555,0.0,9.969469199999999,-42.97185,8.3651868,83.54300598,-0.4010706000000001,-30.63033468
1.53,153,-0.119,-2.019,0.048,15.0687954,-39.1330314,-1.6042823999999998,83.70343421999998,-0.41252976,-31.01994612
1.54,154,-0.203,-1.756,0.146,23.6631654,-38.38818600000001,-6.875496000000001,83.94980616,-0.3724227000000001,-31.40382798
1.55,155,-0.233,-1.911,0.263,22.345362,-28.934379,-12.5477802,84.18471894,-0.26929026,-31.69603656
1.56,156,-0.213,-2.133,0.359,12.5477802,-16.157415599999997,-13.349921400000001,84.31649927999999,-0.14896908,-31.86792396
1.57,157,-0.188,-2.297,0.34,1.6615782,-0.1718874,-11.1153852,84.33368802,-0.04010706,-31.87938312
1.58,158,-0.136,-2.332,0.29600000000000004,-5.72958,12.7769634,-7.6203414,84.27066264,0.04010706,-31.76479152
1.59,159,-0.101,-2.252,0.245,-8.7089616,23.032911600000002,-4.9847345999999995,84.17898936,0.10313244,-31.541337899999995
1.6,160,-0.093,-2.112,0.199,-10.9434978,31.741873200000004,-3.151269,84.06439776,0.16042824,-31.23194058
1.61,161,-0.076,-1.96,0.14400000000000002,-15.469866,38.961144,-1.6042823999999998,83.90396952,0.20053530000000008,-30.84805872
1.62,162,-0.013,-1.828,0.06,-21.3713334,44.690724,-1.0313244,83.68624548,0.24637194,-30.41261064
1.6300000000000001,163,0.08,-1.693,-0.003,-29.621928600000004,48.6441342,-1.8907613999999997,83.37684816,0.30366774,-29.9370555
1.6400000000000001,164,0.155,-1.52,-0.056,-31.1689152,47.555514,-3.4377480000000005,83.05599168,0.37815228,-29.4786891
1.6500000000000001,165,0.172,-1.3030000000000002,-0.111,-26.41336380000001,42.62807520000001,-5.0993262,82.78670142,0.47555514,-29.06615934
1.6600000000000001,166,0.138,-1.056,-0.15,-17.4179232,35.7525792,-6.3598338,82.60908443999998,0.5729580000000001,-28.728114120000004
1.6700000000000002,167,0.06,-0.8240000000000001,-0.165,-7.1046792000000005,30.080295,-7.7922288,82.5345999,0.67609044,-28.44163512
1.68,168,-0.022,-0.608,-0.147,1.6615782,28.5333084,-8.651665800000002,82.55178864,0.7906820400000001,-28.17234486
1.69,169,-0.05,-0.446,-0.115,9.6256944,31.6845774,-9.568398599999998,82.6491915,0.9167328000000001,-27.86867712
1.7,170,-0.046,-0.261,-0.084,13.8655836,37.6433406,-9.8548776,82.78670142,1.04851314,-27.50771358
1.71,171,-0.018000000000000002,-0.118,-0.056,18.3919518,45.6647526,-8.651665800000002,82.97577756,1.18029348,-27.06653592
1.72,172,0.028,-0.037000000000000005,-0.066,17.475219,50.420304,-7.2192707999999985,83.15912412,1.30061466,-26.57952162
1.73,173,0.063,-0.014,-0.087,15.0114996,50.76407879999999,-5.5576926,83.31382278,1.4037471,-26.08677774
1.74,174,0.086,-0.028,-0.13699999999999998,9.2819196,48.2430636,-3.9534102,83.41695522,1.48396122,-25.6112226
1.75,175,0.104,-0.06,-0.184,2.4637194,45.9512316,-2.7501984,83.43414396,1.55844576,-25.16431536
1.76,176,0.127,-0.07,-0.261,-3.2658606,44.7480198,-3.2085648,83.40549606,1.6329303,-24.72886728
1.77,177,0.157,-0.046,-0.327,-5.6722842,42.4561878,-6.130650599999999,83.35392984,1.73033316,-24.31633752
1.78,178,0.187,0.03,-0.35,-2.2345362,38.0444112,-9.3965112,83.3367411,1.85638392,-23.95537398
1.79,179,0.193,0.094,-0.295,8.9381448,22.345362,-10.5424272,83.42841438,1.9767051,-23.74337952
1.8,180,0.175,0.141,-0.225,12.7769634,8.136003599999999,-9.740286,83.54873556,2.09702628,-23.67462456
1.81,181,0.139,0.162,-0.112,14.7823164,-3.7815227999999994,-7.2192707999999985,83.69770464000001,2.1657812400000003,-23.720461199999995
1.82,182,0.07400000000000001,0.125,-0.057,5.6722842,-16.902261,-2.86479,83.74927086,2.18296998,-23.8923486
1.83,183,-0.006999999999999999,0.042,-0.07200000000000001,-8.7662574,-33.3461556,1.3178034,83.65186800000002,2.14286292,-24.21893466
1.84,184,-0.139,-0.08199999999999999,-0.195,-20.8556712,-55.576926,-4.010706000000001,83.42841438,2.13140376,-24.77470392
1.85,185,-0.08199999999999999,-0.482,-0.531,-21.027558600000006,-38.3308902,-27.9603504,83.16485370000002,2.36058696,-25.18723368
1.86,186,-0.237,-1.187,-0.37,-17.9908812,-28.4187168,-48.70143,82.97004798,2.81322378,-25.5252789
1.87,187,-0.478,-2.3,-0.037000000000000005,-14.8396122,-12.7196676,-59.4730404,82.80961973999997,3.38618178,-25.7258142
1.8800000000000001,188,-0.002,-2.617,0.025,-8.59437,-1.5469866,-44.977203,82.71794646,3.82735944,-25.80029874
1.8900000000000001,189,0.414,-2.514,-0.036000000000000004,7.448453999999999,-21.4286292,-32.4294228,82.77524226,4.131027179999999,-26.04667068
1.9000000000000001,190,0.5479999999999999,-2.524,-0.017,9.453807000000001,-9.8548776,-26.1268848,82.86691554,4.37739912,-26.17845102
1.9100000000000001,191,0.489,-2.395,-0.128,10.6570188,-6.875496000000001,-21.6005166,82.97004798,4.5836640000000015,-26.270124300000006
1.9200000000000002,192,0.458,-2.33,-0.07200000000000001,6.703608600000001,-11.688343199999998,-19.194093,83.02734378,4.76701056,-26.40763422
1.93,193,0.34,-2.346,0.014,3.8961144,-13.9228794,-12.605076,83.05599168,4.87587258,-26.562332880000003
1.94,194,0.202,-2.345,0.032,-1.8907613999999997,-12.4331886,-8.7662574,83.02734378,4.95035712,-26.69411322
1.95,195,0.173,-2.278,0.002,-6.417129599999999,-4.6982556,-7.906820400000001,82.95858882,5.02484166,-26.75140902
1.96,196,0.225,-2.165,-0.006999999999999999,-6.8182002000000015,-3.3804522000000006,-3.5523396000000003,82.88410428,5.05921914,-26.79151608
1.97,197,0.257,-2.021,-0.064,-6.760904399999999,-9.9121734,3.4377480000000005,82.80961973999997,5.0133825000000005,-26.88318936
1.98,198,0.189,-1.842,-0.172,-7.8495246,-21.829699800000004,9.5111028,82.71221688,4.898790900000002,-27.08945424
1.99,199,0.069,-1.638,-0.28800000000000003,-9.3965112,-32.4294228,14.381245800000002,82.59762528,4.72117392,-27.39312198
2.0,200,-0.037000000000000005,-1.422,-0.369,-8.193299399999999,-38.4454818,17.761698000000006,82.48303368,4.50344988,-27.74835594
2.01,201,-0.122,-1.195,-0.409,-2.9793816000000004,-37.3568616,19.0795014,82.43146746,4.27426668,-28.09213074
2.02,202,-0.157,-0.8740000000000001,-0.394,6.9327918,-30.366774000000003,20.8556712,82.48876326,4.0393539,-28.36715058
2.03,203,-0.094,-0.634,-0.338,17.3606274,-17.589810600000003,24.9809688,82.65492108,3.77579322,-28.5046605
2.04,204,0.006,-0.472,-0.281,21.9442914,-9.6829902,29.335449600000004,82.8783747,3.47785506,-28.56768588
2.05,205,0.097,-0.343,-0.201,21.772404,-9.2819196,33.9764094,83.09036916,3.14553942,-28.61352252
2.0599999999999996,206,0.155,-0.219,-0.145,16.558486199999994,-16.501190400000002,37.41415739999999,83.25079740000002,2.76165756,-28.7338437
2.07,207,0.14400000000000002,-0.112,-0.133,12.834259199999998,-27.1582092,38.27359439999999,83.37684816,2.36058696,-28.95729732
2.0799999999999996,208,0.073,-0.053,-0.081,10.6570188,-34.7785506,36.6120162,83.4799806,1.97097552,-29.26096506
2.09,209,-0.011,-0.026,-0.016,5.7868758000000025,-34.37748,33.0596766,83.53727640000002,1.6157415599999996,-29.55890322
2.0999999999999996,210,-0.083,-0.018000000000000002,0.055,-1.145916,-30.93973200000001,28.6479,83.52581724,1.29488508,-29.83392306
2.11,211,-0.127,-0.012,0.043,-11.4018642,-28.4187168,21.3140376,83.41122564,1.0599723,-30.09175416
2.1199999999999997,212,-0.131,-0.023,-0.018000000000000002,-21.027558600000006,-27.215505,13.2926256,83.19350159999998,0.89954406,-30.34958526
2.13,213,-0.07400000000000001,-0.047,-0.08800000000000001,-27.903054600000004,-24.4653066,6.016058999999999,82.91275218,0.8193299399999999,-30.58449804
2.1399999999999997,214,-0.02,-0.064,-0.14800000000000002,-30.4240698,-23.7204612,0.8594370000000001,82.60335486,0.7849524600000001,-30.819410819999995
2.15,215,0.009000000000000001,-0.064,-0.2,-32.31483119999999,-26.4706596,-1.0313244,82.25958005999998,0.76203414,-31.08870108
2.1599999999999997,216,0.004,-0.037000000000000005,-0.264,-32.4294228,-30.93973200000001,0.3437748,81.93299400000002,0.72192708,-31.39236882
2.17,217,-0.01,0.029,-0.34,-27.7311672,-34.66395900000001,2.9220857999999996,81.64651500000002,0.65317212,-31.73614362
2.1799999999999997,218,-0.054000000000000006,0.124,-0.349,-13.120738199999998,-32.372127,5.3285094000000015,81.51473466,0.56149884,-32.04554094
2.19,219,-0.035,0.14400000000000002,-0.211,0.9740286,-20.912967,7.161975,81.52619381999997,0.46409598,-32.24034666
2.1999999999999997,220,0.194,-0.189,-0.29,-30.4813656,6.9327918,16.329303,81.19387818,0.32658606,-32.15440296
2.21,221,0.105,-0.338,-0.74,-64.11400019999999,-25.4393352,41.9978214,80.54643564,-0.12032118,-32.34920868
2.2199999999999998,222,-0.23,-0.42,-0.17800000000000002,-13.407217200000002,-86.7458412,48.70143,80.42611446000002,-0.7161975,-33.1169724
2.23,223,0.344,-0.855,0.023,-12.3758928,-6.875496000000001,22.173474600000002,80.30579328,-0.9453806999999999,-33.15134988
2.2399999999999998,224,0.247,-1.4880000000000002,-0.044,-20.168121600000006,10.7143146,-10.6570188,80.09379881999998,-0.8250595199999999,-33.06540618
2.25,225,-0.26,-2.391,0.028,-9.6829902,-16.1001198,-19.7097552,80.00212554,-0.6589017,-33.260211899999995
2.26,226,-0.355,-2.82,0.017,1.4896908000000002,12.3758928,-15.126091199999998,80.01358470000002,-0.49274388,-33.16280904
2.27,227,-0.237,-2.386,-0.371,-24.2934192,8.078707799999998,1.0886202,79.76721276,-0.49274388,-33.082594920000005
2.28,228,-0.08199999999999999,-2.23,-0.231,-20.798375399999998,1.8907613999999997,12.1467096,79.55521829999998,-0.61306506,-33.048217439999995
2.29,229,-0.141,-2.138,-0.21600000000000005,-25.210152,0.5156622000000001,12.6623718,79.2973872,-0.73338624,-33.01956954
2.3,230,-0.118,-2.249,0.023,-27.215505,15.0114996,10.313244,79.01663778,-0.8136003599999999,-32.859141300000005
2.31,231,-0.109,-2.36,0.003,-34.7212548,30.5386614,7.161975,78.65567424,-0.83651868,-32.54974398
2.32,232,-0.096,-2.309,0.016,-37.3568616,40.680018,-0.1718874,78.2660628,-0.7734933,-32.15440296
2.3299999999999996,233,-0.114,-2.169,-0.031,-39.0757356,46.123119,-6.016058999999999,77.85926262000002,-0.63598338,-31.72468446
2.34,234,-0.097,-2.006,-0.116,-39.820581,51.56622,-6.302537999999998,77.44100327999998,-0.48128472,-31.23767016
2.3499999999999996,235,-0.063,-1.883,-0.253,-42.112413,57.6968706,-2.1199446,77.00555519999998,-0.35523396,-30.68763048000001
2.36,236,0.031,-1.715,-0.274,-39.47680620000001,60.50436480000001,-0.5156622000000001,76.59302543999998,-0.23491278,-30.1089429
2.3699999999999997,237,0.114,-1.494,-0.248,-35.2942128,58.15523699999999,-4.583664,76.22633232000003,-0.07448454,-29.55890322
2.38,238,0.207,-1.306,-0.247,-33.002380800000005,57.86875799999999,-10.4278356,75.88255752,0.14323950000000002,-29.02605228
2.3899999999999997,239,0.262,-1.107,-0.29600000000000004,-34.8358464,55.3477428,-15.2406828,75.52159398,0.40680018,-28.53330840000001
2.4,240,0.279,-0.879,-0.348,-29.9657034,53.0559108,-21.772404,75.2007375,0.75057498,-28.08067158
2.4099999999999997,241,0.246,-0.669,-0.334,-20.5691922,56.0352924,-29.2781538,74.99447262,1.1573751600000002,-27.62230518
2.42,242,0.116,-0.374,-0.256,-12.5477802,55.748813399999996,-33.2888598,74.86842186,1.6042824000000002,-27.16966836
2.4299999999999997,243,0.064,-0.092,-0.128,-5.1566220000000005,48.2430636,-33.6899304,74.82258522,2.03973048,-26.79151608
2.44,244,0.105,0.095,-0.147,-4.3544808,42.685371,-29.621928600000004,74.78247816,2.42361234,-26.45920044
2.4499999999999997,245,0.131,0.124,-0.191,-3.8961144,35.695283399999994,-20.168121600000006,74.73664152,2.71009134,-26.17272144
2.46,246,0.126,0.126,-0.076,-1.432395,27.3873924,-9.3392154,74.73091194,2.86479,-25.93207908
2.4699999999999998,247,0.203,0.115,0.021,-0.4583664000000001,19.194093,-0.6302538000000001,74.73091194,2.91635622,-25.74873252
2.48,248,0.13699999999999998,0.105,-0.079,-15.9282324,3.0939732,2.578311,74.57048370000003,2.8934379,-25.714355040000004
2.4899999999999998,249,-0.009000000000000001,0.05,-0.067,-22.86102420000001,-10.026765,3.8961144,74.33557092,2.83041252,-25.80602832
2.5,250,-0.102,-0.051,-0.127,-24.064235999999998,-7.5057497999999985,4.7555514,74.07773982,2.75592798,-25.86332412
2.51,251,-0.092,-0.025,-0.124,-13.980175199999998,1.3178034,4.3544808,73.93450032,2.71582092,-25.840405800000003
2.52,252,-0.086,0.039,-0.014,0.7448454000000001,3.4377480000000005,0.057295800000000015,73.94595948,2.7215505,-25.8117579
2.53,253,-0.075,0.075,0.25,9.3392154,10.1986524,-4.6982556,74.04336234,2.79030546,-25.7258142
2.54,254,-0.039,0.086,0.382,10.0840608,24.2934192,-4.2398892,74.15222436,2.8934379,-25.50236058
2.55,255,-0.065,0.069,0.392,7.3911582,35.0077338,1.3750992,74.26681596,2.96219286,-25.15858578000001
2.56,256,-0.153,0.039,0.342,1.6615782,46.1804148,7.1046792000000005,74.30119343999998,3.00229992,-24.694489800000003
2.57,257,-0.247,-0.062,0.36,-4.297185,57.467687399999996,9.568398599999998,74.27827512,3.04813656,-24.1215318
2.5799999999999996,258,-0.333,-0.198,0.274,-26.7571386,66.5777196,7.161975,74.03190318,3.1398098400000003,-23.4626301
2.59,259,-0.451,-0.246,0.285,-38.2162986,77.9795838,1.2032118,73.67666922,3.31742682,-22.7177847
2.5999999999999996,260,-0.613,-0.321,0.349,-35.0077338,83.93834700000002,-2.2345362,73.38446064,3.50650296,-21.9156435
2.61,261,-0.777,-0.475,0.35700000000000004,-39.3622146,85.65722099999998,-7.8495246,73.02349709999999,3.79871154,-21.12496146
2.6199999999999997,262,-0.855,-0.721,0.447,-46.8106686,100.4968332,-24.4653066,72.59950818,4.29145542,-20.24260614
2.63,263,-0.557,-1.21,0.4920000000000001,-58.2698286,127.4258592,-46.696077,72.07811640000001,5.07640788,-19.17117468
2.6399999999999997,264,-0.325,-1.6780000000000002,0.258,-65.2599162,135.50456699999998,-53.5142772,71.49942881999998,5.958763200000001,-18.05390658
2.65,265,0.221,-1.6980000000000002,0.141,-70.30194660000001,121.2379128,-45.6074568,70.88636376,6.7322565,-17.05123008
2.6599999999999997,266,0.3670000000000001,-1.327,-0.106,-70.7030172,94.9391406,-29.392745399999995,70.25038038,7.288025760000001,-16.254818460000006
2.67,267,0.451,-0.853,-0.212,-55.2331512,64.5723666,-19.938938399999998,69.75190692,7.6719076200000025,-15.71623794
2.6799999999999997,268,0.6809999999999999,-0.443,-0.434,-45.8939358,43.258329,-14.4385416,69.32791800000001,7.94119788,-15.36100398
2.69,269,0.84,-0.248,-0.631,-39.0757356,27.6165756,-4.7555514,68.96122488,8.067248639999999,-15.12036162
2.6999999999999997,270,0.845,-0.248,-0.73,-40.2216516,11.917526400000002,4.5263682,68.50858806,8.14173318,-15.01722918
2.71,271,0.644,-0.378,-0.75,-45.0917946,1.5469866,6.6463128000000005,68.05595124,8.0787078,-14.9828517
2.7199999999999998,272,0.305,-0.477,-0.737,-57.467687399999996,-3.8388186,3.3804522000000006,67.4658045,8.02714158,-15.011499600000002
2.73,273,0.091,-0.3720000000000001,-0.895,-79.0109082,-3.8388186,-2.8074942000000003,66.65793372,8.02714158,-15.06306582
2.7399999999999998,274,0.126,-0.09,-1.198,-98.0331138,7.906820400000001,-10.313244,65.66671638,8.14173318,-15.0401475
2.75,275,0.263,0.066,-1.342,-111.61221840000002,22.91832,-16.272007199999994,64.52080038,8.37091638,-14.90836716
2.76,276,0.404,0.016,-1.45,-127.0247886,32.0283522,-19.4232762,63.26029278,8.65739538,-14.71356144
2.77,277,0.484,-0.238,-0.954,-164.78272080000005,29.220858000000003,-20.3973048,61.60444416,8.94387438,-14.5531332
2.78,278,0.457,-0.71,-0.627,-193.8316914,-7.448453999999999,-20.626488,59.61055032,9.06419556,-14.73075018
2.79,279,0.184,-1.3259999999999998,-0.175,-208.7858952,-72.5364828,-36.898495200000006,57.37028454,8.98971102,-15.567268860000002
2.8,280,0.083,-2.062,0.002,-255.1381974,-11.8602306,-54.94667220000001,54.717489,9.350674559999998,-15.991257780000002
2.81,281,0.048,-2.214,-0.25,-264.706596,-12.5477802,-56.3790672,51.95583144,9.69444936,-16.4438946
2.82,282,-0.643,-2.1180000000000003,0.509,-259.1489034,17.761698000000006,-67.0933818,49.274388,10.2845961,-16.74183276
2.8299999999999996,283,-0.847,-2.425,0.322,-279.7753914,71.5051584,-73.2240324,46.43251632,11.24716554,-16.69599612
2.84,284,-0.909,-2.439,0.454,-288.8854236,109.0912032,-58.0406454,43.56199674,12.35870406,-16.317843840000002
2.8499999999999996,285,-0.374,-1.802,0.328,-296.9641314,123.4151532,-37.1849742,40.66855884,13.447324259999998,-15.739156259999998
2.86,286,0.378,-0.939,0.195,-289.6875648,119.28985559999998,-37.4714532,37.83241674,14.53021488,-15.240682800000002
2.8699999999999997,287,0.915,-0.421,0.145,-279.08784180000004,93.5640414,-44.8626114,35.04211128,15.48705474,-15.02295876
2.88,288,1.171,-0.187,0.236,-268.31623140000005,62.45242200000001,-50.82137460000001,32.29764246,16.23190014,-15.08598414
2.8899999999999997,289,1.001,0.029,0.196,-241.3872054,50.706783,-56.5509546,29.77662726,16.91372016,-15.303708179999996
2.9,290,0.649,0.064,0.246,-220.01587200000003,39.9351726,-65.08802879999999,27.42176988,17.55543312,-15.68759004
2.9099999999999997,291,0.517,0.14300000000000002,0.002,-194.0035788,17.9908812,-74.771019,25.2674478,18.01379952,-16.29492552
2.92,292,0.7829999999999999,0.284,-0.152,-167.9912856,3.8961144,-78.03687959999998,23.33084976,18.34611516,-17.0168526
2.9299999999999997,293,1.411,0.419,-0.355,-160.65742319999995,-32.4294228,-80.32871159999998,21.41717004,18.334656000000006,-17.92212624
2.94,294,2.194,0.884,-1.014,-191.0241972,-94.5953658,-81.2454444,19.136797199999997,17.72159094,-19.07377182
2.9499999999999997,295,2.603,1.396,-1.5719999999999998,-219.442914,-198.5872428,-89.26685640000002,16.47827208,16.117308540000003,-20.626488000000002
2.96,296,2.519,1.761,-1.861,-207.6399792,-263.9617506,-93.50674559999999,13.96871604,13.836935700000002,-22.32244368
2.9699999999999998,297,1.6880000000000002,1.075,-1.584,-192.227409,-291.5210304000001,-83.76645959999998,11.7169911,11.20705848,-23.87515986
2.98,298,0.583,0.652,-1.095,-209.0723742,-301.2613164,-61.1919144,9.41942952,8.382375540000002,-25.10701956
2.9899999999999998,299,-0.056,0.943,-1.148,-177.330501,-277.8273342,-19.6524594,7.574504760000001,5.68947294,-25.77165084
3.0,300,-0.797,0.951,-1.3630000000000002,-157.73533740000005,-248.5491804,26.356068,5.9931406800000016,3.20283522,-25.86332412
3.01,301,-1.7919999999999998,0.802,-2.193,-137.1088494,-212.1090516,48.5868384,4.6409598,1.0599723,-25.62268176
3.02,302,-1.476,0.835,-2.678,-128.91555,-174.00734459999995,35.236917,3.35753388,-0.6875496,-25.43360562
3.03,303,0.159,1.025,-3.837,-185.4665046,-133.1554392,34.091001,1.48396122,-2.03973048,-25.17577452
3.04,304,1.01,1.999,-3.996,-195.6078612,-77.34933000000002,53.22779820000001,-0.5042030399999999,-2.83041252,-24.660112320000003
3.05,305,1.344,2.194,-3.866,-99.4655088,-84.91237559999998,80.09952840000003,-1.5469866,-3.6669312000000005,-23.85797112
3.06,306,0.762,1.681,-3.14,-45.206386200000004,-125.9934642,93.678633,-2.05691922,-4.893061319999998,-22.91832
3.07,307,-0.345,1.461,-2.696,-70.35924240000001,-185.924871,76.89096359999998,-2.82468294,-6.7036086,-22.12190838
3.08,308,-0.989,1.209,-2.651,-73.51051140000001,-207.2389086,56.0925882,-3.62682414,-8.73187992,-21.49165458
3.09,309,-1.452,0.757,-1.781,-66.69231119999999,-168.22046880000005,25.7258142,-4.33729206,-10.38199896,-21.15933894
3.0999999999999996,310,-1.317,0.537,-1.061,-77.17744259999998,-81.81840240000002,-5.5576926,-5.11078536,-11.21851764,-21.15933894
3.11,311,-1.112,0.7140000000000001,-1.103,-75.17208959999998,-36.6120162,-7.7349330000000025,-5.861360339999999,-11.59094034,-21.20517558
3.1199999999999997,312,-0.959,1.079,-1.007,-74.771019,-15.469866,1.145916,-6.623394479999999,-11.75136858,-21.17652768
3.13,313,-1.031,1.158,-1.09,-67.2079734,4.2398892,1.2032118,-7.31094408,-11.7169911,-21.15933894
3.1399999999999997,314,-0.7020000000000001,1.1,-0.995,-47.4409224,25.78311,7.1046792000000005,-7.80368796,-11.45916,-21.1135023
3.15,315,-0.277,1.031,-0.6679999999999999,-27.9603504,36.8411994,14.7823164,-8.193299399999999,-11.08100772,-20.99318112
3.1599999999999997,316,-0.105,0.906,-0.312,-23.5485738,19.480572,8.250595200000001,-8.44540092,-10.88047242,-20.93015574
3.17,317,0.012,0.8079999999999999,-0.14400000000000002,-17.5325148,-2.8074942000000003,-5.2139178,-8.61155874,-10.92057948,-20.97599238
3.1799999999999997,318,0.166,0.748,-0.128,-6.990087599999999,-25.78311,-17.131444199999994,-8.65739538,-11.19559932,-21.1135023
3.19,319,0.269,0.612,-0.106,-0.8594370000000001,-37.9871154,-31.340802600000004,-8.60582916,-11.61958824,-21.38279256
3.1999999999999997,320,0.214,0.469,-0.193,1.0886202,-39.3049188,-36.7839036,-8.554262940000001,-12.03784758,-21.70364904
3.21,321,0.024,0.403,-0.318,1.4896908000000002,-39.9924684,-33.0596766,-8.47404882,-12.47902524,-21.98439846
3.2199999999999998,322,-0.162,0.425,-0.426,3.8388186,-41.3675676,-24.8663772,-8.38810512,-12.920202899999998,-22.18493376
3.23,323,-0.24,0.463,-0.477,10.599723,-43.77399120000001,-14.7823164,-8.250595200000001,-13.372839720000002,-22.2880662
3.2399999999999998,324,-0.181,0.519,-0.498,18.621135,-47.0398518,-10.1986524,-8.044330319999998,-13.84839486,-22.33390284
3.25,325,-0.115,0.58,-0.539,28.304125199999998,-48.987909,-7.906820400000001,-7.792228800000001,-14.32967958,-22.35682116000001
3.26,326,-0.097,0.579,-0.574,41.3102718,-50.6494872,-6.2452422,-7.3625102999999985,-14.83388262,-22.36828032
3.27,327,-0.117,0.518,-0.573,53.1705024,-53.628868800000006,-4.583664,-6.812470620000001,-15.36100398,-22.36828032
3.28,328,-0.146,0.456,-0.564,62.3378304,-56.149884,-3.5523396000000003,-6.17648724,-15.91104366,-22.36255074
3.29,329,-0.203,0.426,-0.574,66.2912406,-55.00396800000001,-2.9793816000000004,-5.5003968,-16.44962418,-22.35682116000001
3.3,330,-0.274,0.405,-0.613,66.5204238,-51.7381074,-2.9220857999999996,-4.8414950999999995,-16.959556799999998,-22.35109158
3.31,331,-0.29,0.399,-0.6890000000000001,66.11935319999999,-46.352302200000004,-4.8701430000000006,-4.1539455,-17.4179232,-22.38546906
3.32,332,-0.271,0.396,-0.763,67.5517482,-41.6540466,-8.307891,-3.4377480000000005,-17.824723380000005,-22.4599536
3.33,333,-0.234,0.361,-0.8420000000000001,68.75496,-38.0444112,-12.032117999999999,-2.69863218,-18.197146080000003,-22.58600436
3.34,334,-0.251,0.312,-0.917,69.6716928,-37.1849742,-15.183387000000002,-1.93659804,-18.5638392,-22.7464326
3.3499999999999996,335,-0.271,0.258,-0.962,69.6716928,-40.164355799999996,-17.18874,-1.18029348,-18.95918022,-22.92977916
3.36,336,-0.363,0.21,-1.014,66.5777196,-40.33624320000001,-18.162768600000003,-0.4297185000000001,-19.34879166,-23.13031446
3.3699999999999997,337,-0.436,0.153,-1.083,61.30650600000001,-37.7006364,-18.1054728,0.25783110000000004,-19.71548478,-23.336579340000004
3.38,338,-0.496,0.095,-1.155,53.7434604,-36.32553720000001,-16.8449652,0.87662574,-20.06498916,-23.53138506
3.3899999999999997,339,-0.578,0.02,-1.25,41.7113424,-33.8618178,-14.495837400000001,1.36364004,-20.39157522,-23.70900204
3.4,340,-0.613,-0.031,-1.325,30.8251404,-32.31483119999999,-13.178034,1.73606274,-20.70670212,-23.869430280000003
3.4099999999999997,341,-0.5820000000000001,-0.064,-1.358,20.8556712,-32.945085,-14.495837400000001,2.01681216,-21.027558600000006,-24.04704726
3.42,342,-0.564,-0.061,-1.337,13.2353298,-37.41415739999999,-16.042824000000003,2.22880662,-21.38852214,-24.24185298
3.4299999999999997,343,-0.542,-0.073,-1.254,4.4690724,-42.62807520000001,-17.475219,2.36058696,-21.8010519,-24.45957702
3.44,344,-0.48,-0.073,-1.152,-7.448453999999999,-43.77399120000001,-17.4179232,2.37204612,-22.22504082,-24.67730106
3.4499999999999997,345,-0.421,-0.043,-1.052,-18.907614000000002,-41.76863820000001,-16.673077799999998,2.25745452,-22.62611142,-24.88356594
3.46,346,-0.35100000000000003,0.003,-0.975,-22.2880662,-41.9978214,-16.329303,2.1199446,-23.03864118,-25.08983082
3.4699999999999998,347,-0.287,0.009000000000000001,-0.91,-17.0741484,-43.3729206,-16.902261,2.0340008999999997,-23.4626301,-25.30182528000001
3.48,348,-0.247,0.0,-0.884,-12.6623718,-45.1490904,-19.194093,2.005353,-23.90380776,-25.53673806
3.4899999999999998,349,-0.246,-0.01,-0.8420000000000001,-8.307891,-47.0398518,-21.9442914,2.03973048,-24.35644458,-25.8117579
3.5,350,-0.28800000000000003,-0.004,-0.812,-4.4690724,-47.67010560000001,-23.7204612,2.11421502,-24.81481098,-26.0982369
3.51,351,-0.32299999999999995,0.0,-0.8240000000000001,0.11459160000000003,-47.4409224,-24.2361234,2.24599536,-25.27317738,-26.40190464
3.52,352,-0.378,0.003,-0.8340000000000001,5.844171599999999,-44.404245,-24.064235999999998,2.44080108,-25.69716630000001,-26.699842800000006
3.53,353,-0.409,0.009000000000000001,-0.845,13.0061466,-36.955791,-23.6058696,2.70436176,-26.052400259999995,-26.9863218
3.54,354,-0.4,0.035,-0.841,19.8816426,-31.340802600000004,-23.376686399999997,3.0366774000000003,-26.34460884,-27.27853038
3.55,355,-0.353,0.095,-0.782,25.6685184,-28.5906042,-25.78311,3.42055926,-26.60816952,-27.58219812
3.56,356,-0.32,0.114,-0.7070000000000001,27.903054600000004,-27.3300966,-29.0489706,3.8674665,-26.85454146,-27.93743208
3.57,357,-0.316,0.066,-0.6659999999999999,24.4653066,-26.7571386,-31.054323600000004,4.29145542,-27.08945424,-28.30985478
3.58,358,-0.376,0.021,-0.66,18.907614000000002,-24.5798982,-32.830493399999995,4.66387812,-27.301448699999998,-28.7051958
3.59,359,-0.44,-0.051,-0.7120000000000001,12.7196676,-22.9756158,-34.1482968,4.9847346,-27.496254420000003,-29.11772556
3.5999999999999996,360,-0.483,-0.105,-0.8170000000000001,5.6722842,-20.05353,-33.002380800000005,5.23683612,-27.673871400000003,-29.51306658
3.61,361,-0.529,-0.113,-0.9,2.2345362,-16.7303736,-29.5646328,5.42591226,-27.805651739999995,-29.86830054
3.6199999999999997,362,-0.5660000000000001,-0.093,-0.928,2.1772404,-13.980175199999998,-24.1788276,5.58061092,-27.92024334000001,-30.15477954
3.63,363,-0.586,-0.055,-0.939,2.5210152000000003,-14.152062599999999,-20.2254174,5.72385042,-28.04056452,-30.40115148
3.6399999999999997,364,-0.5710000000000001,-0.028,-0.919,2.4064236,-17.761698000000006,-18.7930224,5.861360339999999,-28.19526318,-30.64179384
3.65,365,-0.5479999999999999,-0.041,-0.902,0.572958,-23.032911600000002,-18.621135,5.97595194,-28.41298722,-30.87670662
3.6599999999999997,366,-0.54,-0.058,-0.888,-1.5469866,-26.814434400000003,-18.6784308,6.08481396,-28.65362958,-31.12880814
3.67,367,-0.551,-0.06,-0.875,-3.4950437999999995,-29.1062664,-18.6784308,6.17075766,-28.91719026,-31.380909660000004
3.6799999999999997,368,-0.527,-0.053,-0.862,-5.042030400000002,-29.507337,-18.5638392,6.2452422000000025,-29.186480520000003,-31.63874076
3.69,369,-0.511,-0.05,-0.877,-5.9014674000000005,-29.4500412,-17.8762896,6.31399716,-29.45577078,-31.8851127
3.6999999999999997,370,-0.487,-0.044,-0.878,-6.417129599999999,-30.080295,-17.6471064,6.3598338000000005,-29.73079062,-32.12575506
3.71,371,-0.476,-0.036000000000000004,-0.89,-6.5317212,-30.9970278,-17.9335854,6.4228591800000014,-30.01154004,-32.37785658
3.7199999999999998,372,-0.458,-0.029,-0.878,-5.5003968,-33.9764094,-17.8762896,6.5030733,-30.32666694000001,-32.635687680000004
3.73,373,-0.463,-0.015,-0.843,-3.2085648,-37.4714532,-17.475219,6.60620574,-30.67617132,-32.89924836
3.7399999999999998,374,-0.466,-0.006999999999999999,-0.82,-1.5469866,-40.164355799999996,-16.4438946,6.72652692,-31.04859402,-33.15134988
3.75,375,-0.477,-0.009000000000000001,-0.797,1.2605076000000002,-41.023792799999995,-15.0687954,6.85257768,-31.43247588,-33.38626266
3.76,376,-0.488,-0.025,-0.7909999999999999,4.0680017999999984,-40.966497,-13.521808800000002,7.018735500000001,-31.81635774,-33.61544586
3.77,377,-0.507,-0.038,-0.7979999999999999,6.016058999999999,-41.023792799999995,-12.2040054,7.20208206,-32.2002396,-33.82744032
3.78,378,-0.516,-0.044,-0.8140000000000001,6.589017,-41.76863820000001,-11.688343199999998,7.385428619999999,-32.58985104,-34.03943478
3.79,379,-0.516,-0.035,-0.8220000000000001,5.958763200000001,-42.112413,-11.9748222,7.56877518,-32.98519206,-34.262888399999994
3.8,380,-0.52,-0.03,-0.815,5.7868758000000025,-41.0810886,-12.4904844,7.74066258,-33.36907392,-34.48061244
3.81,381,-0.528,-0.038,-0.804,5.9014674000000005,-38.1590028,-11.9748222,7.92400914,-33.72430788,-34.692606899999994
3.82,382,-0.537,-0.042,-0.802,5.958763200000001,-34.2055926,-10.4278356,8.10162612,-34.03943478,-34.887412620000006
3.83,383,-0.5489999999999999,-0.045,-0.812,6.5317212,-30.7105488,-7.7349330000000025,8.25632478,-34.33164336,-35.04211128
3.84,384,-0.574,-0.04,-0.816,7.5630456000000015,-28.7051958,-5.042030400000002,8.40529386,-34.60093362,-35.16243246
3.8499999999999996,385,-0.602,-0.033,-0.809,9.1100322,-28.5906042,-2.9793816000000004,8.53134462,-34.88168304,-35.24264658
3.86,386,-0.624,-0.03,-0.8,9.9121734,-29.9084076,-2.6929026,8.691772859999999,-35.16816204,-35.34004944
3.8699999999999997,387,-0.636,-0.038,-0.7909999999999999,9.224623800000002,-30.194886600000004,-3.9534102,8.857930679999997,-35.45464104,-35.45464104
3.88,388,-0.63,-0.067,-0.789,7.0473834,-29.0489706,-5.2139178,9.00689976,-35.72966088,-35.58642138000001
3.8899999999999997,389,-0.61,-0.08199999999999999,-0.8,4.1825934,-26.5279554,-5.844171599999999,9.12722094,-35.97603282,-35.71820172
3.9,390,-0.597,-0.077,-0.794,2.6929026,-22.5745452,-5.5003968,9.20170548,-36.19375686,-35.82133416
3.9099999999999997,391,-0.579,-0.057,-0.7759999999999999,2.0626488000000003,-18.907614000000002,-4.4690724,9.28764918,-36.37137384,-35.91873702
3.92,392,-0.598,-0.035,-0.7559999999999999,1.8907613999999997,-15.813640800000002,-3.3231564,9.350674559999998,-36.52034292,-35.99895114
3.9299999999999997,393,-0.629,-0.028,-0.733,2.0053530000000004,-13.178034,-2.0053530000000004,9.407970359999998,-36.64639368,-36.05051736
3.94,394,-0.6579999999999999,-0.037000000000000005,-0.7290000000000001,1.9480572,-12.261301199999998,-1.432395,9.45953658,-36.76098528,-36.10208358
3.9499999999999997,395,-0.698,-0.052000000000000005,-0.7140000000000001,2.7501984,-12.318597,-1.8334656000000005,9.47672532,-36.94433184,-36.11927232
3.96,396,-0.7240000000000001,-0.066,-0.713,2.2345362,-12.6623718,-2.1199446,9.53402112,-37.06465302,-36.17656812
3.9699999999999998,397,-0.732,-0.058,-0.71,1.7188740000000002,-11.8029348,-2.3491278,9.59131692,-37.17351504,-36.23386392
3.98,398,-0.748,-0.06,-0.7120000000000001,2.0053530000000004,-9.969469199999999,-1.7188740000000002,9.63715356,-37.2709179,-36.27970056
3.9899999999999998,399,-0.752,-0.062,-0.708,1.8907613999999997,-8.5370742,-0.8021411999999999,9.67726062,-37.35113202,-36.31407804
4.0,400,-0.755,-0.056,-0.701,0.7448454000000001,-7.906820400000001,-0.8021411999999999,9.6256944,-37.58031522,-36.28543014
4.01,401,-0.754,-0.055,-0.716,-0.8021411999999999,-7.5057497999999985,-1.432395,9.63715356,-37.64907018,-36.31980762
4.02,402,-0.735,-0.059,-0.738,-1.9480572,-5.6149884000000005,-2.0053530000000004,9.64288314,-37.7006364,-36.35991468
4.03,403,-0.721,-0.058,-0.748,-2.291832,-1.7188740000000002,-1.432395,9.63142398,-37.71209556,-36.38283300000001
4.04,404,-0.691,-0.045,-0.755,-2.1199446,1.2032118,-0.7448454000000001,9.61423524,-37.7006364,-36.38856258
4.05,405,-0.67,-0.031,-0.746,-1.6615782,2.4064236,-0.4010706,9.33348582,-37.83814632,-36.22813434
4.06,406,-0.657,-0.03,-0.735,-1.145916,3.151269,-0.7448454000000001,9.32202666,-37.80376884,-36.22813434
4.07,407,-0.653,-0.033,-0.727,-0.572958,3.666931200000001,-1.145916,9.31629708,-37.76939136,-36.23386392
4.08,408,-0.655,-0.04,-0.722,0.11459160000000003,3.8388186,-1.432395,9.32202666,-37.7292843,-36.24532308
4.09,409,-0.659,-0.042,-0.718,0.11459160000000003,4.297185,-1.0886202,9.32775624,-37.68344766,-36.24532308
4.1,410,-0.664,-0.035,-0.7240000000000001,0.9740286,5.1566220000000005,-0.1718874,9.16159842,-37.74074346,-36.13073148
4.109999999999999,411,-0.6679999999999999,-0.029,-0.7509999999999999,1.0886202,5.0993262,0.4583664000000001,9.16159842,-37.69490682,-36.11354274
4.12,412,-0.652,-0.019,-0.775,0.9740286,4.4117766,0.4010706,9.16159842,-37.64907018,-36.096354
4.13,413,-0.634,-0.026,-0.7859999999999999,1.2032118,4.010706000000001,0.1718874,9.167328,-37.6146927,-36.08489484
4.14,414,-0.619,-0.032,-0.773,2.2345362,4.1825934,-0.286479,9.19024632,-37.56885606,-36.07916526
4.1499999999999995,415,-0.612,-0.036000000000000004,-0.758,3.2085648,4.8128472,-0.572958,9.098573040000002,-37.54593774,-36.01041030000001
4.16,416,-0.608,-0.036000000000000004,-0.764,3.4377480000000005,6.130650599999999,-0.6875496,9.13295052,-37.48291236,-36.00468072
4.17,417,-0.609,-0.033,-0.7759999999999999,3.4377480000000005,8.021412000000002,-0.4583664000000001,9.15586884,-37.40269823999999,-35.99322156
4.18,418,-0.605,-0.036000000000000004,-0.794,3.8961144,10.7143146,0.11459160000000003,9.17878716,-37.299565799999996,-35.96457366
4.1899999999999995,419,-0.58,-0.043,-0.7979999999999999,4.010706000000001,12.3758928,0.572958,9.1959759,-37.17924462,-35.93019618
4.2,420,-0.5539999999999999,-0.046,-0.7829999999999999,4.010706000000001,11.688343199999998,0.4010706,9.15013926,-37.04746428,-35.86144122
4.21,421,-0.544,-0.047,-0.7759999999999999,3.6096354,9.167328,0.057295800000000015,9.17305758,-36.96152058,-35.8385229
4.22,422,-0.552,-0.048,-0.773,3.3231564,5.844171599999999,0.3437748,9.1959759,-36.90422478,-35.82133416
4.2299999999999995,423,-0.57,-0.048,-0.7709999999999999,3.151269,4.0680017999999984,0.9167328,9.21316464,-36.86411772,-35.79841584000001
4.24,424,-0.593,-0.045,-0.7709999999999999,3.0939732,3.8388186,1.3750992,9.23035338,-36.82974024,-35.77549752
4.25,425,-0.609,-0.042,-0.775,3.2085648,4.1825934,1.2032118,9.12149136,-36.81828108000001,-35.67809466
4.26,426,-0.611,-0.039,-0.785,2.291832,5.2712136,0.4583664000000001,9.13295052,-36.76671485999999,-35.66090592
4.27,427,-0.604,-0.032,-0.792,1.7761698,6.0733548,-0.22918320000000006,9.14440968,-36.70941906,-35.64944676000001
4.28,428,-0.5920000000000001,-0.034,-0.7909999999999999,1.8334656000000005,5.7868758000000025,-0.9167328,9.16159842,-36.65212326,-35.64371718
4.29,429,-0.589,-0.036000000000000004,-0.7859999999999999,1.6615782,4.6982556,-1.5469866,9.18451674,-36.60055704,-35.65517634
4.3,430,-0.585,-0.036000000000000004,-0.782,1.432395,4.9274388,-1.7188740000000002,9.05846598,-36.554720399999994,-35.5806918
4.31,431,-0.5870000000000001,-0.037000000000000005,-0.79,1.5469866,5.2139178,-1.2032118,9.07565472,-36.50315418,-35.58642138000001
4.32,432,-0.586,-0.043,-0.7979999999999999,1.7761698,5.042030400000002,-0.6302538000000001,9.09284346,-36.45158796,-35.5806918
4.33,433,-0.5920000000000001,-0.053,-0.794,2.0053530000000004,5.0993262,-0.286479,9.1100322,-36.40002174,-35.57496222
4.34,434,-0.601,-0.058,-0.787,1.9480572,5.042030400000002,-0.11459160000000003,9.12149136,-36.3541851,-35.56350306
4.35,435,-0.614,-0.061,-0.784,2.1199446,4.4117766,-0.057295800000000015,8.9954406,-36.3541851,-35.47182978
4.36,436,-0.613,-0.058,-0.7829999999999999,1.6615782,3.3231564,-0.22918320000000006,9.01262934,-36.31980762,-35.47182978
4.37,437,-0.61,-0.056,-0.7759999999999999,1.0313244,2.6356068,-0.22918320000000006,9.01835892,-36.2968893,-35.46610020000001
4.38,438,-0.613,-0.051,-0.772,1.145916,2.6929026,0.0,9.02981808,-36.2682414,-35.46037062
4.39,439,-0.615,-0.051,-0.772,1.4896908000000002,3.7815227999999994,0.3437748,9.03554766,-36.23386392,-35.44891146
4.3999999999999995,440,-0.62,-0.055,-0.778,1.6042823999999998,5.0993262,0.572958,8.93241522,-36.23386392,-35.36869734
4.41,441,-0.62,-0.056,-0.779,1.3750992,6.1879464,0.9167328,8.92668564,-36.17083854,-35.34004944
4.42,442,-0.615,-0.055,-0.777,1.2032118,6.016058999999999,1.0886202,8.92668564,-36.11354274,-35.31713112
4.43,443,-0.616,-0.059,-0.7809999999999999,0.6302538000000001,4.6982556,0.6875496,8.92095606,-36.067706099999995,-35.29421280000001
4.4399999999999995,444,-0.615,-0.059,-0.7829999999999999,0.6302538000000001,3.6096354,0.057295800000000015,8.92095606,-36.03332862,-35.28848322
4.45,445,-0.616,-0.058,-0.7879999999999999,1.0313244,3.0939732,-0.057295800000000015,8.73187992,-36.07343568,-35.16816204
4.46,446,-0.614,-0.055,-0.792,1.0886202,3.724227,0.057295800000000015,8.7376095,-36.03905820000001,-35.16243246
4.47,447,-0.609,-0.046,-0.7929999999999999,1.3750992,4.9274388,0.4010706,8.74333908,-35.98749198,-35.14524372
4.4799999999999995,448,-0.597,-0.042,-0.784,2.1199446,6.302537999999998,0.6302538000000001,8.749068659999999,-35.93019618,-35.122325399999994
4.49,449,-0.5870000000000001,-0.044,-0.7759999999999999,2.2345362,6.6463128000000005,0.6302538000000001,8.76052782,-35.86144122,-35.09940708000001
4.5,450,-0.583,-0.046,-0.772,1.432395,6.0733548,0.3437748,8.634477059999998,-35.82706374,-35.0077338
4.51,451,-0.584,-0.047,-0.777,0.7448454000000001,5.0993262,0.22918320000000006,8.634477059999998,-35.7812271,-34.99627464
4.52,452,-0.591,-0.047,-0.779,0.3437748,4.2398892,0.11459160000000003,8.62874748,-35.73539046000001,-34.984815479999995
4.53,453,-0.601,-0.052000000000000005,-0.7829999999999999,0.4583664000000001,3.8961144,0.0,8.62874748,-35.70101298,-34.97335632
4.54,454,-0.605,-0.055,-0.787,0.6875496,3.8388186,0.0,8.62874748,-35.66090592,-34.96762674
4.55,455,-0.604,-0.046,-0.785,0.8594370000000001,4.4690724,-0.22918320000000006,8.47404882,-35.6666355,-34.870223880000005
4.56,456,-0.6,-0.036000000000000004,-0.785,1.3750992,5.3285094000000015,-0.5156622000000001,8.48550798,-35.61506928,-34.864494300000004
4.57,457,-0.594,-0.033,-0.784,1.5469866,5.443101,-0.572958,8.50269672,-35.55777348,-34.85876472
4.58,458,-0.588,-0.042,-0.787,1.2605076000000002,4.583664,-0.572958,8.51415588,-35.51193684000001,-34.85876472
4.59,459,-0.5870000000000001,-0.057,-0.7929999999999999,1.0886202,4.2398892,-0.3437748,8.519885460000001,-35.47182978,-34.85303514
4.6,460,-0.591,-0.063,-0.799,1.3178034,4.8128472,0.1718874,8.422482599999999,-35.44318188,-34.78428018
4.61,461,-0.588,-0.057,-0.8109999999999999,1.3750992,5.443101,0.8021411999999999,8.422482599999999,-35.39161566,-34.76136186
4.62,462,-0.5820000000000001,-0.044,-0.809,1.4896908000000002,5.2139178,1.0313244,8.422482599999999,-35.34004944,-34.73844354
4.63,463,-0.581,-0.032,-0.8029999999999999,1.6615782,5.2712136,0.9740286,8.42821218,-35.28848322,-34.71552522
4.64,464,-0.58,-0.03,-0.7979999999999999,1.9480572,5.443101,0.8021411999999999,8.43394176,-35.236917,-34.692606899999994
4.6499999999999995,465,-0.574,-0.046,-0.789,1.7761698,5.042030400000002,0.8021411999999999,8.3365389,-35.20826909999999,-34.61239278000001
4.66,466,-0.573,-0.063,-0.784,0.8594370000000001,4.2398892,0.9740286,8.33080932,-35.16816204,-34.59520404
4.67,467,-0.5720000000000001,-0.068,-0.7929999999999999,0.0,3.666931200000001,1.2032118,8.319350159999999,-35.133784559999995,-34.57228572
4.68,468,-0.569,-0.057,-0.8,-0.11459160000000003,3.2658606,1.432395,8.302161420000001,-35.09940708000001,-34.5493674
4.6899999999999995,469,-0.561,-0.046,-0.8,0.286479,3.4377480000000005,1.8334656000000005,8.28497268,-35.07075918,-34.51498992
4.7,470,-0.57,-0.042,-0.7979999999999999,0.7448454000000001,3.3804522000000006,2.0053530000000004,8.136003599999999,-35.0650296,-34.41185748
4.71,471,-0.58,-0.047,-0.7929999999999999,1.4896908000000002,2.7501984,1.4896908000000002,8.14173318,-35.03638170000001,-34.38320958
4.72,472,-0.589,-0.056,-0.79,1.6042823999999998,1.6042823999999998,0.8594370000000001,8.14746276,-35.02492254,-34.37175042
4.7299999999999995,473,-0.598,-0.057,-0.797,0.9740286,1.432395,0.4583664000000001,8.15319234,-35.0077338,-34.36029126
4.74,474,-0.6,-0.053,-0.802,0.1718874,2.1199446,0.286479,8.14746276,-34.99054506,-34.35456168
4.75,475,-0.597,-0.045,-0.804,-0.572958,3.0939732,0.3437748,7.9641161999999985,-35.0077338,-34.24569966
4.76,476,-0.5870000000000001,-0.038,-0.804,-0.9167328,4.4117766,0.5156622000000001,7.94692746,-34.96189716,-34.23424050000001
4.77,477,-0.583,-0.038,-0.795,-0.9740286,5.1566220000000005,0.5156622000000001,7.92400914,-34.91606052,-34.217051760000004
4.78,478,-0.585,-0.041,-0.7929999999999999,-1.0313244,4.4117766,0.4010706,7.906820399999999,-34.870223880000005,-34.19986302
4.79,479,-0.5870000000000001,-0.043,-0.7909999999999999,-0.7448454000000001,2.7501984,0.22918320000000006,7.889631660000001,-34.84730556,-34.19413344
4.8,480,-0.589,-0.047,-0.7909999999999999,-0.7448454000000001,1.145916,0.0,7.39688778,-35.01346338,-33.913384019999995
4.81,481,-0.596,-0.046,-0.795,-0.8021411999999999,0.5156622000000001,-0.057295800000000015,7.385428619999999,-35.0077338,-33.913384019999995
4.82,482,-0.598,-0.041,-0.8009999999999999,-0.8594370000000001,1.0886202,-0.057295800000000015,7.37396946,-34.99627464,-33.913384019999995
4.83,483,-0.594,-0.033,-0.802,-0.7448454000000001,2.0626488000000003,0.0,7.3625102999999985,-34.97335632,-33.90765444
4.84,484,-0.59,-0.032,-0.7959999999999999,-0.6875496,2.86479,0.0,7.3567807200000015,-34.950438,-33.901924859999994
4.85,485,-0.5820000000000001,-0.035,-0.7929999999999999,-0.5156622000000001,2.6929026,-0.057295800000000015,7.12759752,-34.9790859,-33.7758741
4.86,486,-0.58,-0.041,-0.785,-0.8021411999999999,2.4637194,-0.4010706,7.116138359999999,-34.95616758,-33.7758741
4.87,487,-0.585,-0.045,-0.7959999999999999,-1.3750992,1.6615782,-0.8021411999999999,7.1046792000000005,-34.93897884,-33.78160368
4.88,488,-0.585,-0.044,-0.8059999999999999,-1.6615782,0.572958,-0.9740286,7.09322004,-34.933249260000004,-33.79306284
4.89,489,-0.5770000000000001,-0.042,-0.805,-1.4896908000000002,0.6302538000000001,-1.0313244,7.0874904600000015,-34.9217901,-33.80452200000001
4.8999999999999995,490,-0.568,-0.043,-0.805,-1.0886202,1.145916,-0.8594370000000001,6.85257768,-34.92751968,-33.689930399999994
4.91,491,-0.5670000000000001,-0.045,-0.805,-0.4010706,1.0886202,-0.4010706,6.85257768,-34.91606052,-33.69565998
4.92,492,-0.574,-0.05,-0.802,0.0,0.22918320000000006,-0.1718874,6.85257768,-34.91033094,-33.69565998
4.93,493,-0.583,-0.046,-0.8,0.3437748,-0.4010706,-0.286479,6.858307260000001,-34.91606052,-33.70138956
4.9399999999999995,494,-0.583,-0.042,-0.7929999999999999,1.145916,-0.4583664000000001,-0.5156622000000001,6.875496000000001,-34.91606052,-33.70711914
4.95,495,-0.578,-0.039,-0.795,1.6042823999999998,-0.1718874,-0.7448454000000001,6.669231119999999,-34.95616758,-33.592527540000006
4.96,496,-0.568,-0.04,-0.804,1.9480572,0.1718874,-0.8021411999999999,6.69787902,-34.95616758,-33.6039867
4.97,497,-0.564,-0.044,-0.804,2.9220857999999996,0.22918320000000006,-0.572958,6.7322565,-34.950438,-33.60971628
4.9799999999999995,498,-0.57,-0.05,-0.809,3.6096354,-0.4010706,-0.22918320000000006,6.77236356,-34.95616758,-33.61544586
4.99,499,-0.58,-0.054000000000000006,-0.807,3.4950437999999995,-0.9167328,0.0,6.80674104,-34.96762674,-33.61544586
5.0,500,-0.585,-0.054000000000000006,-0.81,2.8074942000000003,-0.8594370000000001,0.22918320000000006,6.6806902799999985,-35.01346338,-33.52950216000001
5.01,501,-0.586,-0.052000000000000005,-0.802,1.9480572,0.0,0.1718874,6.69787902,-35.0077338,-33.52377258
5.02,502,-0.583,-0.05,-0.795,1.0313244,1.2605076000000002,0.22918320000000006,6.7036086,-34.99627464,-33.518043
5.03,503,-0.581,-0.048,-0.8,0.572958,1.145916,0.22918320000000006,6.7093381800000005,-34.984815479999995,-33.512313420000005
5.04,504,-0.581,-0.047,-0.804,0.1718874,0.11459160000000003,0.1718874,6.7093381800000005,-34.984815479999995,-33.512313420000005
5.05,505,-0.579,-0.047,-0.805,0.22918320000000006,-0.4010706,0.1718874,6.25097178,-35.07075918,-33.25448232
5.06,506,-0.5820000000000001,-0.048,-0.807,0.22918320000000006,-0.8594370000000001,0.3437748,6.25097178,-35.082218340000004,-33.25448232
5.07,507,-0.586,-0.051,-0.804,0.6302538000000001,-0.9740286,0.5156622000000001,6.25670136,-35.093677500000005,-33.24875274
5.08,508,-0.59,-0.049,-0.8009999999999999,0.6875496,-0.7448454000000001,0.6875496,6.26243094,-35.09940708000001,-33.24302315999999
5.09,509,-0.5920000000000001,-0.048,-0.7859999999999999,0.22918320000000006,0.0,0.7448454000000001,6.25670136,-35.09940708000001,-33.231564
5.1,510,-0.591,-0.043,-0.7829999999999999,-0.1718874,0.9740286,0.8594370000000001,6.0332477399999975,-35.18535078,-33.09978366
5.11,511,-0.5920000000000001,-0.037000000000000005,-0.789,-0.286479,1.2032118,0.8594370000000001,6.0275181600000005,-35.17389162,-33.08832450000001
5.12,512,-0.593,-0.036000000000000004,-0.792,-0.5156622000000001,0.7448454000000001,0.6875496,6.0160589999999985,-35.16816204,-33.07686534
5.13,513,-0.593,-0.038,-0.7979999999999999,-0.8594370000000001,0.0,0.5156622000000001,5.99887026,-35.17389162,-33.07113576
5.14,514,-0.594,-0.04,-0.8029999999999999,-0.9167328,-0.4583664000000001,0.4583664000000001,5.9874111,-35.17389162,-33.06540618
5.1499999999999995,515,-0.594,-0.041,-0.804,-0.6875496,-0.4010706,0.4583664000000001,5.66082504,-35.27129448,-32.88205962
5.16,516,-0.593,-0.04,-0.8079999999999999,-0.11459160000000003,-0.22918320000000006,0.6875496,5.65509546,-35.27702406,-32.87060046000001
5.17,517,-0.595,-0.038,-0.804,0.4010706,0.0,0.7448454000000001,5.65509546,-35.27702406,-32.86487088
5.18,518,-0.5920000000000001,-0.037000000000000005,-0.802,0.5156622000000001,0.7448454000000001,0.572958,5.65509546,-35.27129448,-32.853411720000004
5.1899999999999995,519,-0.588,-0.037000000000000005,-0.799,0.8021411999999999,1.7188740000000002,0.5156622000000001,5.66082504,-35.25410574,-32.84768214
5.2,520,-0.586,-0.038,-0.795,1.0313244,2.291832,0.4010706,5.54623344,-35.27129448,-32.76746802
5.21,521,-0.584,-0.04,-0.7909999999999999,1.2605076000000002,2.6356068,0.11459160000000003,5.5576926,-35.24264658,-32.76746802
5.22,522,-0.584,-0.042,-0.792,1.0886202,2.578311,0.057295800000000015,5.56342218,-35.21972826,-32.76173844
5.2299999999999995,523,-0.588,-0.043,-0.795,0.6302538000000001,2.1772404,0.11459160000000003,5.56342218,-35.19680993999999,-32.756008859999994
5.24,524,-0.5870000000000001,-0.044,-0.799,0.1718874,2.1772404,0.3437748,5.56342218,-35.17389162,-32.7445497
5.25,525,-0.583,-0.046,-0.797,0.0,2.578311,0.4583664000000001,5.44883058,-35.18535078,-32.67579474
5.26,526,-0.5820000000000001,-0.05,-0.794,0.0,2.9793816000000004,0.572958,5.443101,-35.15670288,-32.66433558
5.27,527,-0.5820000000000001,-0.047,-0.789,0.0,3.4950437999999995,0.6875496,5.4316418399999975,-35.122325399999994,-32.65287642
5.28,528,-0.5760000000000001,-0.042,-0.7879999999999999,0.057295800000000015,3.6096354,0.572958,5.42591226,-35.08794792,-32.635687680000004
5.29,529,-0.578,-0.044,-0.794,0.4010706,3.151269,0.572958,5.42591226,-35.05357044,-32.62422852
5.3,530,-0.58,-0.05,-0.802,0.8021411999999999,3.3231564,0.9167328,5.3628868800000005,-35.04211128,-32.57839188
5.31,531,-0.5820000000000001,-0.053,-0.8029999999999999,0.9167328,3.9534102,1.2032118,5.3628868800000005,-35.00200422,-32.55547356
5.32,532,-0.586,-0.052000000000000005,-0.807,0.9740286,4.4690724,1.4896908000000002,5.3571573,-34.96189716,-32.53255524
5.33,533,-0.593,-0.046,-0.81,1.0886202,4.6982556,1.8334656000000005,5.35142772,-34.91606052,-32.50390734
5.34,534,-0.599,-0.036000000000000004,-0.8029999999999999,1.7188740000000002,4.8701430000000006,1.7188740000000002,5.35142772,-34.870223880000005,-32.47525944
5.35,535,-0.597,-0.033,-0.7959999999999999,2.291832,4.9847345999999995,1.432395,5.30559108,-34.84730556,-32.41796364
5.36,536,-0.59,-0.037000000000000005,-0.795,2.2345362,4.7555514,0.9740286,5.32277982,-34.80146892,-32.4007749
5.37,537,-0.586,-0.043,-0.794,2.4637194,4.6982556,0.8021411999999999,5.33423898,-34.75563228,-32.38358616
5.38,538,-0.583,-0.048,-0.7929999999999999,2.4064236,5.0993262,0.9167328,5.35142772,-34.70979564,-32.36639742
5.39,539,-0.5870000000000001,-0.051,-0.7979999999999999,2.2345362,5.443101,1.2605076000000002,5.3571573,-34.652499840000004,-32.3434791
5.3999999999999995,540,-0.5870000000000001,-0.05,-0.804,1.7188740000000002,5.5576926,1.432395,5.31705024,-34.62385194,-32.29764246
5.41,541,-0.584,-0.045,-0.8059999999999999,1.0886202,5.958763200000001,1.3750992,5.31705024,-34.56655614,-32.26899456
5.42,542,-0.579,-0.042,-0.807,0.5156622000000001,6.0733548,1.145916,5.30559108,-34.503530760000004,-32.24607624
5.43,543,-0.5760000000000001,-0.042,-0.805,-0.057295800000000015,5.7868758000000025,0.8021411999999999,5.29413192,-34.44623496,-32.2288875
5.4399999999999995,544,-0.5720000000000001,-0.042,-0.81,-0.572958,4.8128472,0.7448454000000001,5.27694318,-34.40039832,-32.211698760000004
5.45,545,-0.5670000000000001,-0.044,-0.818,-0.8594370000000001,3.4950437999999995,0.8594370000000001,5.19099948,-34.37175042,-32.15440296
5.46,546,-0.563,-0.04,-0.8170000000000001,-0.9740286,2.0626488000000003,0.8594370000000001,5.16808116,-34.35456168,-32.142943800000005
5.47,547,-0.562,-0.038,-0.8190000000000001,-1.0886202,1.9480572,0.7448454000000001,5.15089242,-34.33737294,-32.13148464
5.4799999999999995,548,-0.56,-0.036000000000000004,-0.821,-0.9167328,1.7188740000000002,0.572958,5.13943326,-34.3201842,-32.120025479999995
5.49,549,-0.5579999999999999,-0.034,-0.821,-0.6302538000000001,1.3750992,0.4010706,5.1279740999999985,-34.30872504,-32.114295899999995
5.5,550,-0.556,-0.034,-0.8220000000000001,-0.6302538000000001,0.4010706,0.1718874,4.675337279999999,-34.28007714,-31.86792396
5.51,551,-0.5529999999999999,-0.038,-0.818,-0.8021411999999999,-0.6875496,-0.1718874,4.669607699999999,-34.28580672,-31.87365354
5.52,552,-0.551,-0.039,-0.815,-1.145916,-1.6615782,-0.3437748,4.65814854,-34.30299546,-31.87938312
5.53,553,-0.552,-0.04,-0.815,-1.432395,-2.578311,-0.4010706,4.64668938,-34.32591377999999,-31.8851127
5.54,554,-0.5539999999999999,-0.039,-0.8170000000000001,-1.3750992,-3.666931200000001,-0.1718874,4.6409598,-34.36602084,-31.89657186
5.55,555,-0.557,-0.034,-0.815,-1.3178034,-3.8961144,-0.286479,4.56074568,-34.4061279,-31.86219438
5.56,556,-0.5589999999999999,-0.029,-0.815,-0.8594370000000001,-3.7815227999999994,-0.5156622000000001,4.56074568,-34.440505380000005,-31.87365354
5.57,557,-0.561,-0.026,-0.812,-0.286479,-3.3804522000000006,-0.9167328,4.56647526,-34.47488286,-31.89084228
5.58,558,-0.564,-0.031,-0.812,0.286479,-3.0366774,-1.145916,4.57793442,-34.503530760000004,-31.90803102
5.59,559,-0.5710000000000001,-0.036000000000000004,-0.809,0.8594370000000001,-2.578311,-1.145916,4.6008527400000006,-34.52644908,-31.92521976
5.6,560,-0.575,-0.038,-0.805,1.0886202,-2.2345362,-1.0313244,4.54355694,-34.5780153,-31.902301439999995
5.61,561,-0.578,-0.036000000000000004,-0.8,0.9167328,-1.4896908000000002,-0.8594370000000001,4.56074568,-34.59520404,-31.913760600000003
5.62,562,-0.579,-0.032,-0.797,1.0313244,-0.5156622000000001,-0.7448454000000001,4.57793442,-34.59520404,-31.92521976
5.63,563,-0.579,-0.031,-0.7929999999999999,1.3750992,0.22918320000000006,-0.6302538000000001,4.59512316,-34.59520404,-31.93094934
5.64,564,-0.5820000000000001,-0.032,-0.792,1.5469866,0.8594370000000001,-0.4583664000000001,4.6180414800000005,-34.58374488,-31.93667892
5.6499999999999995,565,-0.585,-0.035,-0.7909999999999999,1.8907613999999997,1.2605076000000002,-0.3437748,4.549286520000001,-34.62958152,-31.89084228
5.66,566,-0.588,-0.036000000000000004,-0.792,2.1199446,1.7761698,-0.286479,4.57220484,-34.61239278000001,-31.89657186
5.67,567,-0.596,-0.038,-0.792,2.1772404,2.1199446,-0.1718874,4.59512316,-34.58947446,-31.89657186
5.68,568,-0.6,-0.039,-0.794,2.4064236,2.3491278,-0.057295800000000015,4.6180414800000005,-34.56655614,-31.89084228
5.6899999999999995,569,-0.602,-0.038,-0.795,2.6356068,2.7501984,0.0,4.6409598,-34.53790823999999,-31.89084228
5.7,570,-0.605,-0.039,-0.7929999999999999,2.9793816000000004,3.0366774,0.286479,4.62377106,-34.555096979999995,-31.856464799999998
5.71,571,-0.606,-0.041,-0.7929999999999999,3.151269,3.4950437999999995,0.4010706,4.64668938,-34.5207195,-31.84500564
5.72,572,-0.607,-0.043,-0.7959999999999999,3.151269,3.5523396000000003,0.4583664000000001,4.675337279999999,-34.48634202,-31.83354648000001
5.7299999999999995,573,-0.604,-0.041,-0.799,2.86479,3.8388186,0.4583664000000001,4.6982555999999995,-34.44623496,-31.8278169
5.74,574,-0.6,-0.043,-0.802,2.6356068,3.9534102,0.286479,4.72117392,-34.41185748,-31.81635774
5.75,575,-0.597,-0.046,-0.804,2.4064236,3.9534102,0.1718874,4.6982555999999995,-34.4061279,-31.78770984
5.76,576,-0.589,-0.049,-0.804,2.1199446,3.8961144,0.0,4.71544434,-34.37175042,-31.78198026
5.77,577,-0.581,-0.048,-0.807,1.8907613999999997,3.8961144,0.286479,4.73263308,-34.33164336,-31.770521100000003
5.78,578,-0.5770000000000001,-0.045,-0.8109999999999999,1.7188740000000002,4.0680017999999984,0.5156622000000001,4.74409224,-34.291536300000004,-31.75906194
5.79,579,-0.5670000000000001,-0.043,-0.8109999999999999,2.0626488000000003,4.010706000000001,0.6302538000000001,4.7555514,-34.25142924,-31.74760278
5.8,580,-0.557,-0.042,-0.8140000000000001,2.1772404,3.8388186,0.8021411999999999,4.72117392,-34.21132218,-31.70749572
5.81,581,-0.556,-0.044,-0.816,2.291832,3.3231564,0.8021411999999999,4.73263308,-34.18267428,-31.690306979999995
5.82,582,-0.556,-0.047,-0.8140000000000001,2.291832,2.578311,0.6875496,4.749821819999998,-34.15402638,-31.67884782
5.83,583,-0.56,-0.048,-0.8140000000000001,2.1199446,1.8334656000000005,0.8021411999999999,4.76701056,-34.13683764,-31.66738866
5.84,584,-0.56,-0.048,-0.812,1.7188740000000002,1.432395,0.9167328,4.77846972,-34.12537848,-31.65592950000001
5.85,585,-0.5589999999999999,-0.046,-0.81,1.3750992,1.5469866,1.0886202,4.71544434,-34.12537848,-31.5986337
5.86,586,-0.561,-0.046,-0.81,1.0313244,1.2032118,1.0313244,4.71544434,-34.113919319999994,-31.58717454
5.87,587,-0.5589999999999999,-0.046,-0.8079999999999999,1.0313244,1.0886202,1.2605076000000002,4.71544434,-34.10246016,-31.5699858
5.88,588,-0.5589999999999999,-0.044,-0.8079999999999999,1.2032118,1.2605076000000002,1.432395,4.71544434,-34.091001,-31.55279706
5.89,589,-0.561,-0.044,-0.812,1.6042823999999998,1.4896908000000002,1.4896908000000002,4.72117392,-34.079541840000005,-31.52987874
5.8999999999999995,590,-0.565,-0.041,-0.816,1.6615782,1.6615782,1.3750992,4.65814854,-34.079541840000005,-31.47258294
5.91,591,-0.569,-0.04,-0.8220000000000001,1.6615782,1.6615782,1.0886202,4.669607699999999,-34.0623531,-31.46112378
5.92,592,-0.569,-0.037000000000000005,-0.821,1.6615782,1.7761698,0.6302538000000001,4.68106686,-34.04516436,-31.44966462
5.93,593,-0.5670000000000001,-0.03,-0.818,1.8907613999999997,1.6615782,0.1718874,4.6982555999999995,-34.02797562,-31.443935040000003
5.9399999999999995,594,-0.5660000000000001,-0.023,-0.813,2.1199446,1.2032118,-0.5156622000000001,4.72117392,-34.016516460000005,-31.44966462
5.95,595,-0.56,-0.023,-0.805,2.7501984,1.0313244,-0.9740286,4.66387812,-34.02797562,-31.409557560000003
5.96,596,-0.56,-0.032,-0.8009999999999999,2.578311,0.6302538000000001,-1.2605076000000002,4.6982555999999995,-34.016516460000005,-31.4267463
5.97,597,-0.565,-0.04,-0.8079999999999999,2.1199446,0.057295800000000015,-1.3750992,4.73263308,-34.016516460000005,-31.443935040000003
5.9799999999999995,598,-0.564,-0.041,-0.8140000000000001,1.9480572,-0.572958,-1.432395,4.76128098,-34.02224604,-31.46112378
5.99,599,-0.5589999999999999,-0.039,-0.8190000000000001,1.8907613999999997,-0.7448454000000001,-1.6042823999999998,4.79565846,-34.02797562,-31.484042100000003
6.0,600,-0.5539999999999999,-0.037000000000000005,-0.821,1.8907613999999997,-0.9740286,-1.6615782,4.749821819999998,-34.03943478,-31.46112378
6.01,601,-0.551,-0.038,-0.8190000000000001,1.7188740000000002,-1.2032118,-1.7761698,4.784199299999999,-34.04516436,-31.48977168
6.02,602,-0.552,-0.04,-0.816,1.7188740000000002,-1.6042823999999998,-1.7761698,4.812847199999998,-34.0623531,-31.512690000000006
6.03,603,-0.555,-0.043,-0.8109999999999999,1.6615782,-1.9480572,-1.7761698,4.8414950999999995,-34.079541840000005,-31.53560832
6.04,604,-0.561,-0.043,-0.815,1.3178034,-2.4064236,-1.7188740000000002,4.8701430000000006,-34.10246016,-31.558526640000004
6.05,605,-0.568,-0.041,-0.8140000000000001,1.4896908000000002,-2.4637194,-1.6042823999999998,4.8414950999999995,-34.14256722,-31.55279706
6.06,606,-0.573,-0.043,-0.812,1.5469866,-2.3491278,-1.7761698,4.87587258,-34.16548554000001,-31.57571538
6.07,607,-0.5710000000000001,-0.046,-0.8059999999999999,-0.11459160000000003,-2.1772404,-2.0053530000000004,4.88733174,-34.18267428,-31.60436328
6.08,608,-0.563,-0.04,-0.812,-2.0053530000000004,-2.4064236,-2.6929026,4.88733174,-34.2055926,-31.63874076
6.09,609,-0.561,-0.037000000000000005,-0.823,-2.0053530000000004,-2.9220857999999996,-2.9793816000000004,4.88733174,-34.23424050000001,-31.67884782
6.1,610,-0.565,-0.045,-0.812,-1.3750992,-3.3804522000000006,-2.8074942000000003,4.858683839999999,-34.27434756,-31.69603656
6.11,611,-0.568,-0.05,-0.799,-3.4377480000000005,-4.2398892,-2.291832,4.84722468,-34.31445462,-31.73041404
6.12,612,-0.5670000000000001,-0.047,-0.794,-6.016058999999999,-5.2139178,-1.8334656000000005,4.80138804,-34.36602084,-31.75906194
6.13,613,-0.5670000000000001,-0.046,-0.809,-6.875496000000001,-5.9014674000000005,-1.6615782,4.74409224,-34.42331664,-31.78770984
6.14,614,-0.583,-0.057,-0.8,-10.0840608,-8.193299399999999,-1.2605076000000002,4.65814854,-34.503530760000004,-31.81062816
6.15,615,-0.588,-0.046,-0.76,-14.266654199999998,-8.3651868,-1.432395,4.5206386200000015,-34.60093362,-31.83354648000001
6.16,616,-0.578,-0.03,-0.782,-14.0947668,-7.448453999999999,-2.0053530000000004,4.39458786,-34.67541816,-31.86792396
6.17,617,-0.5770000000000001,-0.034,-0.792,-11.9748222,-7.906820400000001,-1.5469866,4.29145542,-34.7499027,-31.89657186
6.18,618,-0.579,-0.048,-0.804,-10.599723,-8.021412000000002,-0.057295800000000015,4.1883229800000015,-34.83011682,-31.902301439999995
6.1899999999999995,619,-0.596,-0.046,-0.789,-12.3758928,-12.318597,1.0313244,4.0680017999999984,-34.95616758,-31.902301439999995
6.2,620,-0.586,-0.027000000000000003,-0.706,-14.4385416,-14.8396122,1.2605076000000002,3.91330314,-35.122325399999994,-31.902301439999995
6.21,621,-0.547,-0.033,-0.674,-13.2926256,-10.9434978,1.7761698,3.77579322,-35.23118742,-31.89084228
6.22,622,-0.53,-0.058,-0.688,-11.5737516,-5.5003968,5.2139178,3.62109456,-35.28848322,-31.83354648000001
6.2299999999999995,623,-0.557,-0.07200000000000001,-0.695,-9.797581800000001,0.286479,8.7662574,3.46066632,-35.29421280000001,-31.72468446
6.24,624,-0.569,-0.061,-0.735,-9.6256944,5.7868758000000025,10.1986524,3.28877892,-35.24264658,-31.592904120000004
6.25,625,-0.583,-0.017,-0.804,-7.333862400000001,8.136003599999999,10.255948199999999,3.11689152,-35.17962120000001,-31.44966462
6.26,626,-0.613,0.017,-0.8009999999999999,-1.5469866,8.3651868,9.167328,3.03094782,-35.09940708000001,-31.32934344
6.27,627,-0.624,0.036000000000000004,-0.799,1.6615782,9.9121734,7.906820400000001,2.98511118,-35.0077338,-31.22048142
6.28,628,-0.626,0.053,-0.836,4.4117766,10.886202,7.3911582,2.9736520200000003,-34.89887178,-31.123078560000003
6.29,629,-0.652,0.032,-0.828,7.0473834,11.0007936,6.990087599999999,2.99084076,-34.79573934,-31.03140528
6.3,630,-0.665,-0.002,-0.812,7.0473834,12.7196676,6.8182002000000015,2.99084076,-34.692606899999994,-30.92827284
6.31,631,-0.66,-0.018000000000000002,-0.855,4.8701430000000006,12.2040054,6.6463128000000005,2.99084076,-34.57228572,-30.83659956
6.32,632,-0.648,-0.025,-0.8340000000000001,3.2658606,10.026765,6.417129599999999,2.9736520200000003,-34.47488286,-30.75065586
6.33,633,-0.648,-0.032,-0.785,0.6302538000000001,11.516455800000001,5.72958,2.93354496,-34.36602084,-30.67044174
6.34,634,-0.638,-0.054000000000000006,-0.785,-3.8388186,11.516455800000001,5.6149884000000005,2.84760126,-34.25715882,-30.59022762
6.35,635,-0.63,-0.055,-0.818,-8.078707799999998,10.255948199999999,6.8182002000000015,2.71009134,-34.17121512000001,-30.498554340000005
6.36,636,-0.6409999999999999,-0.046,-0.846,-9.8548776,7.7349330000000025,7.5630456000000015,2.55539268,-34.10246016,-30.40115148
6.37,637,-0.645,-0.047,-0.83,-11.4018642,8.7662574,8.021412000000002,2.3777757,-34.016516460000005,-30.29228946
6.38,638,-0.633,-0.033,-0.838,-12.261301199999998,12.9488508,9.2819196,2.18296998,-33.89619528,-30.17196828
6.39,639,-0.622,-0.02,-0.82,-12.2040054,16.7876694,12.1467096,1.96524594,-33.73576704,-30.01154004
6.4,640,-0.608,-0.025,-0.774,-15.2406828,19.6524594,16.272007199999994,1.6902260999999998,-33.55815006,-29.79954558
6.41,641,-0.584,-0.01,-0.789,-20.5691922,22.7464326,20.168121600000006,1.34072172,-33.34042602,-29.54171448
6.42,642,-0.5710000000000001,-0.004,-0.867,-21.485925,22.5172494,23.6058696,0.95683986,-33.12843156,-29.24950590000001
6.43,643,-0.59,0.0,-0.8270000000000001,-22.459953600000002,26.298772200000002,27.2728008,0.53858052,-32.876330040000006,-28.91146068
6.4399999999999995,644,-0.653,0.026,-0.825,-25.7258142,35.46610020000001,29.392745399999995,0.08021412,-32.53255524,-28.544767560000004
6.45,645,-0.7290000000000001,0.05,-0.8490000000000001,-27.788463,40.393539,29.1062664,-0.39534102,-32.142943800000005,-28.1895336
6.46,646,-0.797,0.08,-0.8490000000000001,-30.194886600000004,42.7426668,27.444688199999998,-0.8880849000000001,-31.72468446,-27.857217960000003
6.47,647,-0.787,0.133,-0.84,-33.804522,46.00852740000001,26.069589,-1.39801752,-31.26631806,-27.54209106
6.4799999999999995,648,-0.7559999999999999,0.166,-0.858,-35.7525792,49.7327544,25.6685184,-1.9194093000000003,-30.773574180000004,-27.2441529
6.49,649,-0.745,0.132,-0.856,-35.8671708,53.858052,27.6165756,-2.45226024,-30.234993660000004,-26.929026
