TimeStamp(s),FrameCounter,AccX,AccY,AccZ,GyrX,GyrY,GyrZ,EulerX,EulerY,EulerZ
0.01,1,-0.036000000000000004,-0.999,0.15,-0.5156622000000001,0.5156622000000001,-0.4583664000000001,95.47772112,-1.44958374,-11.49926706
0.02,2,-0.033,-1.0,0.158,-1.2605076000000002,0.0,-0.057295800000000015,95.46053238,-1.44958374,-11.49926706
0.03,3,-0.034,-0.998,0.158,-1.145916,-0.057295800000000015,-0.057295800000000015,95.44907322,-1.44958374,-11.49926706
0.04,4,-0.033,-0.996,0.158,-0.9167328,-0.11459160000000003,0.0,95.44334364,-1.44958374,-11.50499664
0.05,5,-0.031,-0.996,0.158,-0.6875496,-0.22918320000000006,-0.057295800000000015,95.63241978,-1.45531332,-11.5164558
0.060000000000000005,6,-0.033,-0.997,0.161,-0.6302538000000001,-0.4010706,-0.1718874,95.6266902,-1.44958374,-11.52218538
0.06999999999999999,7,-0.032,-0.997,0.162,-0.7448454000000001,-0.5156622000000001,-0.1718874,95.61523104,-1.44958374,-11.52791496
0.08,8,-0.031,-0.999,0.16,-1.0313244,-0.4583664000000001,-0.22918320000000006,95.60950146,-1.44385416,-11.53364454
0.09,9,-0.029,-0.997,0.16,-1.3178034,-0.22918320000000006,-0.1718874,95.59231272,-1.44385416,-11.53364454
0.09999999999999999,10,-0.03,-0.998,0.158,-1.3178034,-0.057295800000000015,-0.057295800000000015,95.72409306,-1.432395,-11.55083328
0.11,11,-0.031,-0.995,0.158,-1.4896908000000002,0.057295800000000015,-0.057295800000000015,95.70690432,-1.432395,-11.545103700000002
0.12,12,-0.031,-0.994,0.157,-1.3178034,0.0,0.0,95.69544516,-1.432395,-11.545103700000002
0.13,13,-0.032,-0.993,0.158,-1.145916,0.0,0.0,95.683986,-1.432395,-11.545103700000002
0.14,14,-0.031,-0.992,0.158,-0.9740286,0.0,-0.057295800000000015,95.67252684,-1.432395,-11.55083328
0.15000000000000002,15,-0.028,-0.993,0.16,-0.572958,0.0,-0.11459160000000003,95.94754668,-1.39801752,-11.579481179999998
0.16,16,-0.028,-0.994,0.159,-0.4583664000000001,0.0,-0.1718874,95.9418171,-1.39801752,-11.579481179999998
0.17,17,-0.027000000000000003,-0.995,0.161,-0.3437748,-0.057295800000000015,-0.11459160000000003,95.93608752,-1.39801752,-11.579481179999998
0.18000000000000002,18,-0.026,-0.996,0.161,-0.286479,-0.11459160000000003,0.0,95.93608752,-1.39801752,-11.579481179999998
0.19,19,-0.029,-0.996,0.16,-0.4583664000000001,-0.11459160000000003,-0.057295800000000015,95.93035794,-1.39801752,-11.579481179999998
0.2,20,-0.031,-0.997,0.161,-0.572958,-0.22918320000000006,0.0,96.10224534,-1.4037471,-11.59094034
0.21000000000000002,21,-0.034,-0.998,0.159,-0.8021411999999999,-0.4010706,-0.057295800000000015,96.09651576,-1.4037471,-11.59666992
0.22,22,-0.034,-0.999,0.159,-0.9167328,-0.286479,-0.22918320000000006,96.0850566,-1.4037471,-11.59666992
0.23,23,-0.033,-0.997,0.158,-0.9740286,0.0,-0.286479,96.07932702,-1.39801752,-11.59666992
0.24000000000000002,24,-0.032,-0.996,0.159,-0.9167328,0.0,-0.4583664000000001,96.06786786,-1.39228794,-11.59666992
0.25,25,-0.033,-0.997,0.158,-0.8021411999999999,0.11459160000000003,-0.4010706,96.15954114000002,-1.4037471,-11.59666992
0.26,26,-0.033,-0.997,0.158,-0.7448454000000001,0.1718874,-0.4583664000000001,96.15381156,-1.39801752,-11.59666992
0.27,27,-0.031,-0.997,0.158,-0.7448454000000001,0.0,-0.286479,96.14808198,-1.39228794,-11.59666992
0.28,28,-0.029,-0.996,0.157,-0.7448454000000001,-0.11459160000000003,0.0,96.13662282,-1.39228794,-11.59666992
0.29000000000000004,29,-0.03,-0.999,0.157,-0.8021411999999999,-0.1718874,0.0,96.13089324,-1.39228794,-11.59666992
0.3,30,-0.032,-0.999,0.157,-0.8594370000000001,0.0,0.057295800000000015,96.23402568,-1.41520626,-11.59666992
0.31,31,-0.036000000000000004,-1.0,0.156,-0.8594370000000001,0.11459160000000003,0.11459160000000003,96.22256652,-1.41520626,-11.59666992
0.32,32,-0.036000000000000004,-1.001,0.157,-0.8594370000000001,0.572958,0.11459160000000003,96.21683694,-1.41520626,-11.59094034
0.33,33,-0.035,-1.002,0.16,-0.9167328,0.8594370000000001,0.0,96.20537778,-1.4209358399999998,-11.58521076
0.34,34,-0.033,-1.001,0.16,-1.0886202,1.0886202,0.0,96.19391862,-1.4209358399999998,-11.5737516
0.35000000000000003,35,-0.03,-1.0,0.16,-1.2032118,0.9740286,-0.11459160000000003,96.24548484,-1.41520626,-11.56802202
0.36000000000000004,36,-0.028,-1.002,0.16,-1.4896908000000002,0.8594370000000001,-0.057295800000000015,96.2282961,-1.41520626,-11.562292439999998
0.37,37,-0.027000000000000003,-1.001,0.159,-1.8907613999999997,0.9167328,-0.057295800000000015,96.21110736,-1.41520626,-11.55083328
0.38,38,-0.028,-0.998,0.158,-2.0053530000000004,0.6302538000000001,0.0,96.18818904,-1.4209358399999998,-11.545103700000002
0.39,39,-0.027000000000000003,-0.994,0.156,-2.0053530000000004,0.4583664000000001,0.1718874,96.1710003,-1.4209358399999998,-11.53937412
0.4,40,-0.03,-0.992,0.155,-1.7761698,0.1718874,0.22918320000000006,96.20537778,-1.42666542,-11.53937412
0.41000000000000003,41,-0.03,-0.989,0.155,-1.3750992,0.11459160000000003,0.22918320000000006,96.19391862,-1.432395,-11.53937412
0.42000000000000004,42,-0.033,-0.99,0.159,-1.0886202,0.057295800000000015,0.3437748,96.18245946,-1.43812458,-11.53937412
0.43,43,-0.035,-0.992,0.158,-1.0886202,0.286479,0.22918320000000006,96.1710003,-1.43812458,-11.53937412
0.44,44,-0.037000000000000005,-0.995,0.158,-1.145916,0.286479,0.22918320000000006,96.15954114000002,-1.44385416,-11.53364454
0.45,45,-0.038,-0.995,0.16,-1.3178034,0.22918320000000006,0.11459160000000003,96.21110736,-1.4610428999999998,-11.53364454
0.46,46,-0.037000000000000005,-0.996,0.155,-1.3750992,0.4010706,0.0,96.19391862,-1.4610428999999998,-11.52791496
0.47000000000000003,47,-0.036000000000000004,-0.996,0.156,-1.3750992,0.4583664000000001,-0.057295800000000015,96.18245946,-1.4610428999999998,-11.52218538
0.48000000000000004,48,-0.034,-0.998,0.155,-1.3178034,0.6302538000000001,-0.11459160000000003,96.16527072,-1.4610428999999998,-11.5164558
0.49,49,-0.033,-0.999,0.153,-1.3178034,0.6875496,-0.057295800000000015,96.15381156,-1.4610428999999998,-11.51072622
0.5,50,-0.033,-1.0,0.154,-1.2605076000000002,0.4583664000000001,0.0,96.20537778,-1.46677248,-11.50499664
0.51,51,-0.033,-1.001,0.155,-1.145916,0.286479,0.11459160000000003,96.19391862,-1.46677248,-11.50499664
0.52,52,-0.033,-1.001,0.157,-1.145916,0.286479,0.057295800000000015,96.18245946,-1.46677248,-11.49926706
0.53,53,-0.036000000000000004,-1.001,0.156,-1.3178034,0.5156622000000001,0.11459160000000003,96.16527072,-1.47250206,-11.49926706
0.54,54,-0.035,-1.0,0.155,-1.3750992,0.7448454000000001,0.22918320000000006,96.15381156,-1.47250206,-11.4878079
0.55,55,-0.035,-1.0,0.156,-1.432395,0.7448454000000001,0.286479,96.18818904,-1.48396122,-11.48207832
0.56,56,-0.035,-0.997,0.158,-1.4896908000000002,0.7448454000000001,0.1718874,96.1710003,-1.4896908000000002,-11.47634874
0.5700000000000001,57,-0.033,-0.996,0.157,-1.4896908000000002,0.7448454000000001,0.057295800000000015,96.15381156,-1.4896908000000002,-11.470619159999998
0.5800000000000001,58,-0.034,-0.997,0.154,-1.2605076000000002,0.5156622000000001,0.0,96.14235240000001,-1.4896908000000002,-11.46488958
0.59,59,-0.036000000000000004,-0.997,0.154,-0.286479,0.22918320000000006,-0.057295800000000015,96.13662282,-1.4896908000000002,-11.45916
0.6,60,-0.037000000000000005,-0.998,0.155,-0.4010706,0.057295800000000015,-0.1718874,96.26267357999998,-1.52406828,-11.45343042
0.61,61,-0.037000000000000005,-0.997,0.156,-0.572958,0.1718874,-0.22918320000000006,96.256944,-1.52406828,-11.45343042
0.62,62,-0.036000000000000004,-0.994,0.156,-0.6302538000000001,0.1718874,-0.3437748,96.25121442,-1.5183387000000002,-11.45343042
0.63,63,-0.033,-0.992,0.157,-0.572958,0.1718874,-0.4010706,96.24548484,-1.51260912,-11.44770084
0.64,64,-0.032,-0.992,0.155,-0.4010706,0.1718874,-0.5156622000000001,96.23975526,-1.50687954,-11.44770084
0.65,65,-0.031,-0.994,0.154,-0.286479,0.0,-0.4583664000000001,96.34861728,-1.50114996,-11.45343042
0.66,66,-0.033,-0.995,0.153,-0.22918320000000006,-0.22918320000000006,-0.4583664000000001,96.3428877,-1.49542038,-11.45916
0.67,67,-0.033,-0.995,0.156,-0.1718874,-0.11459160000000003,-0.4010706,96.3428877,-1.4896908000000002,-11.45916
0.68,68,-0.034,-0.996,0.156,0.0,0.0,-0.286479,96.3428877,-1.4896908000000002,-11.45916
0.6900000000000001,69,-0.033,-0.995,0.157,0.11459160000000003,0.0,-0.22918320000000006,96.3428877,-1.48396122,-11.45916
0.7000000000000001,70,-0.037000000000000005,-0.996,0.157,0.1718874,0.057295800000000015,-0.11459160000000003,96.61790754,-1.5527161800000002,-11.45343042
0.7100000000000001,71,-0.036000000000000004,-0.998,0.155,0.1718874,0.0,-0.057295800000000015,96.61790754,-1.5527161800000002,-11.45343042
0.72,72,-0.032,-0.998,0.153,0.0,0.0,0.0,96.61790754,-1.5527161800000002,-11.45343042
0.73,73,-0.032,-0.998,0.152,0.057295800000000015,-0.1718874,-0.11459160000000003,96.61790754,-1.5527161800000002,-11.45343042
0.74,74,-0.042,-0.994,0.153,0.1718874,-0.5156622000000001,0.0,96.62363712,-1.5469866,-11.45916
0.75,75,-0.042,-0.993,0.156,0.3437748,-0.4583664000000001,-0.057295800000000015,96.70958082,-1.56990492,-11.45916
0.76,76,-0.031,-0.997,0.155,0.4010706,-0.057295800000000015,-0.11459160000000003,96.7153104,-1.56990492,-11.46488958
0.77,77,-0.03,-1.0,0.15,0.4010706,-0.057295800000000015,0.0,96.72103998,-1.56990492,-11.46488958
0.78,78,-0.031,-0.996,0.15,0.4010706,-0.572958,0.11459160000000003,96.72103998,-1.56990492,-11.470619159999998
0.79,79,-0.033,-0.992,0.149,0.286479,-0.6875496,0.1718874,96.72676956,-1.56990492,-11.47634874
0.8,80,-0.035,-0.993,0.149,0.4583664000000001,-0.8021411999999999,0.1718874,96.76114704,-1.5756344999999998,-11.48207832
0.81,81,-0.036000000000000004,-0.994,0.151,0.6302538000000001,-0.9167328,0.22918320000000006,96.76687662,-1.5756344999999998,-11.49353748
0.8200000000000001,82,-0.048,-0.993,0.151,0.7448454000000001,-0.9740286,0.22918320000000006,96.7726062,-1.5756344999999998,-11.50499664
0.8300000000000001,83,-0.04,-0.995,0.154,0.8594370000000001,-0.8021411999999999,0.22918320000000006,96.78406536,-1.5813640800000002,-11.51072622
0.8400000000000001,84,-0.039,-0.995,0.157,0.9167328,-0.4583664000000001,0.1718874,96.79552452,-1.5813640800000002,-11.5164558
0.85,85,-0.038,-1.0,0.155,0.8021411999999999,-0.1718874,0.1718874,96.85282032,-1.59855282,-11.5164558
0.86,86,-0.033,-1.001,0.15,0.5156622000000001,0.1718874,0.286479,96.8585499,-1.59855282,-11.5164558
0.87,87,-0.033,-1.0,0.146,0.3437748,0.11459160000000003,0.4010706,96.86427948,-1.6042824000000002,-11.5164558
0.88,88,-0.035,-0.997,0.14800000000000002,0.4010706,0.0,0.286479,96.86427948,-1.61001198,-11.5164558
0.89,89,-0.036000000000000004,-0.996,0.147,0.286479,0.11459160000000003,0.286479,96.87000906,-1.61001198,-11.5164558
0.9,90,-0.034,-0.997,0.145,0.3437748,0.057295800000000015,0.22918320000000006,96.89292738,-1.6157415599999996,-11.5164558
0.91,91,-0.034,-0.999,0.145,0.3437748,-0.057295800000000015,0.1718874,96.89865696,-1.6157415599999996,-11.5164558
0.92,92,-0.034,-0.998,0.14400000000000002,0.3437748,-0.286479,0.057295800000000015,96.89865696,-1.6157415599999996,-11.5164558
0.93,93,-0.035,-0.997,0.14400000000000002,0.286479,-0.286479,-0.057295800000000015,96.90438654,-1.6157415599999996,-11.52218538
0.9400000000000001,94,-0.036000000000000004,-0.997,0.146,0.22918320000000006,-0.22918320000000006,-0.11459160000000003,96.91011612,-1.6157415599999996,-11.52218538
0.9500000000000001,95,-0.036000000000000004,-0.998,0.14800000000000002,0.11459160000000003,0.11459160000000003,-0.1718874,96.93303444,-1.62147114,-11.52218538
0.9600000000000001,96,-0.035,-0.999,0.145,0.1718874,0.3437748,-0.1718874,96.93876402,-1.62147114,-11.5164558
0.97,97,-0.034,-1.0,0.145,0.057295800000000015,0.22918320000000006,-0.057295800000000015,96.93876402,-1.62147114,-11.5164558
0.98,98,-0.03,-0.998,0.14400000000000002,0.0,0.11459160000000003,0.057295800000000015,96.93876402,-1.62147114,-11.51072622
0.99,99,-0.028,-0.996,0.142,-0.057295800000000015,-0.1718874,0.3437748,96.93303444,-1.6272007199999998,-11.5164558
1.0,100,-0.028,-0.997,0.14300000000000002,-0.057295800000000015,-0.4583664000000001,0.3437748,96.94449360000002,-1.6042824000000002,-11.52791496
1.01,101,-0.031,-0.998,0.14300000000000002,0.0,-0.6302538000000001,0.3437748,96.94449360000002,-1.6042824000000002,-11.53364454
1.02,102,-0.036000000000000004,-0.998,0.14400000000000002,0.22918320000000006,-0.572958,0.4010706,96.94449360000002,-1.61001198,-11.545103700000002
1.03,103,-0.037000000000000005,-0.999,0.14400000000000002,0.4010706,-0.5156622000000001,0.5156622000000001,96.95022318,-1.6157415599999996,-11.55083328
1.04,104,-0.035,-1.0,0.151,0.572958,-0.4583664000000001,0.3437748,96.95595276,-1.6157415599999996,-11.55656286
1.05,105,-0.033,-1.0,0.153,0.6302538000000001,-0.4010706,0.1718874,97.0017894,-1.6042824000000002,-11.562292439999998
1.06,106,-0.034,-1.003,0.154,0.4010706,-0.5156622000000001,0.057295800000000015,97.0017894,-1.6042824000000002,-11.56802202
1.07,107,-0.033,-1.002,0.153,0.057295800000000015,-0.6875496,0.057295800000000015,97.00751898,-1.6042824000000002,-11.5737516
1.08,108,-0.032,-1.0,0.154,-0.286479,-0.6875496,0.0,97.0017894,-1.6042824000000002,-11.58521076
1.09,109,-0.032,-0.996,0.15,-0.4010706,-0.6875496,0.11459160000000003,96.99605982,-1.6042824000000002,-11.59094034
1.1,110,-0.032,-0.993,0.14800000000000002,-0.4010706,-0.6875496,0.1718874,97.00751898,-1.6042824000000002,-11.59666992
1.11,111,-0.036000000000000004,-0.992,0.14800000000000002,-0.286479,-0.7448454000000001,0.1718874,97.00751898,-1.6042824000000002,-11.60812908
1.12,112,-0.037000000000000005,-0.991,0.149,0.0,-0.5156622000000001,0.22918320000000006,97.00751898,-1.6042824000000002,-11.613858660000002
1.1300000000000001,113,-0.04,-0.991,0.14800000000000002,0.286479,-0.22918320000000006,0.286479,97.00751898,-1.61001198,-11.613858660000002
1.1400000000000001,114,-0.04,-0.992,0.149,0.3437748,0.057295800000000015,0.286479,97.01324856,-1.61001198,-11.613858660000002
1.1500000000000001,115,-0.04,-0.993,0.14800000000000002,0.4010706,0.4010706,0.1718874,97.03616688,-1.6386598799999998,-11.6023995
1.1600000000000001,116,-0.041,-0.993,0.14800000000000002,0.3437748,0.8594370000000001,0.1718874,97.04189646,-1.6386598799999998,-11.59666992
1.17,117,-0.038,-0.994,0.149,0.4010706,1.0313244,0.057295800000000015,97.04189646,-1.64438946,-11.58521076
1.18,118,-0.038,-0.995,0.14800000000000002,0.286479,1.0313244,0.0,97.04762603999998,-1.64438946,-11.5737516
1.19,119,-0.039,-0.998,0.146,0.1718874,1.0886202,0.0,97.04762603999998,-1.64438946,-11.562292439999998
1.2,120,-0.037000000000000005,-0.999,0.147,0.11459160000000003,1.2032118,-0.057295800000000015,97.05335562,-1.6558486199999998,-11.55083328
1.21,121,-0.036000000000000004,-1.001,0.14800000000000002,0.1718874,1.145916,-0.11459160000000003,97.05335562,-1.6558486199999998,-11.53937412
1.22,122,-0.036000000000000004,-1.001,0.149,0.11459160000000003,1.0313244,0.0,97.0590852,-1.6558486199999998,-11.52791496
1.23,123,-0.036000000000000004,-1.0,0.15,0.057295800000000015,1.2032118,0.0,97.0590852,-1.6615782,-11.5164558
1.24,124,-0.036000000000000004,-1.0,0.151,0.0,1.432395,0.11459160000000003,97.05335562,-1.6615782,-11.49926706
1.25,125,-0.038,-1.0,0.152,-0.057295800000000015,1.7761698,0.286479,97.06481478,-1.6787669399999998,-11.48207832
1.26,126,-0.038,-1.0,0.149,-0.22918320000000006,2.0626488000000003,0.286479,97.0590852,-1.6844965200000002,-11.46488958
1.27,127,-0.039,-0.998,0.147,-0.286479,2.1772404,0.22918320000000006,97.05335562,-1.6902260999999998,-11.44197126
1.28,128,-0.04,-0.995,0.14800000000000002,-0.057295800000000015,1.7761698,0.1718874,97.05335562,-1.6959556799999995,-11.42478252
1.29,129,-0.04,-0.998,0.151,0.0,1.5469866,0.11459160000000003,97.05335562,-1.6959556799999995,-11.40759378
1.3,130,-0.041,-0.997,0.152,0.0,1.5469866,0.0,97.07054436,-1.71314442,-11.39040504
1.31,131,-0.043,-0.998,0.152,-0.11459160000000003,1.4896908000000002,-0.057295800000000015,97.06481478,-1.71314442,-11.3732163
1.32,132,-0.043,-0.997,0.152,-0.22918320000000006,1.3750992,-0.057295800000000015,97.06481478,-1.7188740000000002,-11.36175714
1.33,133,-0.043,-0.997,0.15,-0.3437748,1.3750992,-0.057295800000000015,97.0590852,-1.7188740000000002,-11.35029798
1.34,134,-0.044,-0.999,0.15,-0.22918320000000006,1.3178034,0.057295800000000015,97.05335562,-1.7188740000000002,-11.33310924
1.35,135,-0.042,-1.0,0.15,-0.22918320000000006,1.2605076000000002,0.057295800000000015,97.0590852,-1.73606274,-11.32165008
1.36,136,-0.042,-1.001,0.153,-0.1718874,1.2605076000000002,0.0,97.0590852,-1.74179232,-11.30446134
1.37,137,-0.041,-1.003,0.153,-0.22918320000000006,1.6042823999999998,0.0,97.05335562,-1.74179232,-11.29300218
1.3800000000000001,138,-0.04,-1.005,0.152,-0.4583664000000001,1.9480572,-0.057295800000000015,97.04762603999998,-1.7475218999999995,-11.27008386
1.3900000000000001,139,-0.036000000000000004,-1.007,0.152,-0.572958,2.4637194,0.057295800000000015,97.04189646,-1.7475218999999995,-11.24716554
1.4000000000000001,140,-0.035,-1.008,0.149,-0.7448454000000001,2.5210152000000003,0.286479,97.03616688,-1.75325148,-11.22424722
1.4100000000000001,141,-0.035,-1.007,0.147,-0.9740286,2.3491278,0.4010706,97.02470772,-1.76471064,-11.2013289
1.42,142,-0.037000000000000005,-1.004,0.14800000000000002,-1.145916,2.1199446,0.4010706,97.00751898,-1.77044022,-11.18414016
1.43,143,-0.037000000000000005,-1.004,0.147,-1.3750992,2.0626488000000003,0.286479,96.99605982,-1.7761698,-11.16122184
1.44,144,-0.037000000000000005,-1.003,0.146,-1.5469866,2.0053530000000004,0.1718874,96.97887108,-1.78189938,-11.1440331
1.45,145,-0.036000000000000004,-1.002,0.147,-1.7188740000000002,2.0626488000000003,0.11459160000000003,96.96168234,-1.78762896,-11.12111478
1.46,146,-0.037000000000000005,-1.001,0.146,-1.8907613999999997,1.9480572,0.0,96.93876402,-1.78762896,-11.10392604
1.47,147,-0.036000000000000004,-0.999,0.146,-2.291832,1.9480572,0.0,96.9158457,-1.7933585399999998,-11.08100772
1.48,148,-0.038,-0.998,0.14300000000000002,-2.4064236,1.7188740000000002,0.057295800000000015,96.89292738,-1.79908812,-11.06954856
1.49,149,-0.04,-0.994,0.141,-2.4064236,1.2032118,0.057295800000000015,96.86427948,-1.79908812,-11.0580894
1.5,150,-0.042,-0.993,0.142,-2.3491278,0.8594370000000001,0.0,96.84709073999998,-1.81054728,-11.04663024
1.51,151,-0.043,-0.99,0.145,-2.2345362,0.6302538000000001,-0.057295800000000015,96.82417242,-1.81054728,-11.04090066
1.52,152,-0.045,-0.99,0.14400000000000002,-1.9480572,0.4010706,-0.22918320000000006,96.8012541,-1.81054728,-11.03517108
1.53,153,-0.045,-0.99,0.145,-1.8334656000000005,0.286479,-0.22918320000000006,96.78406536,-1.8048176999999999,-11.0294415
1.54,154,-0.047,-0.992,0.147,-1.7761698,0.286479,-0.4583664000000001,96.76114704,-1.8048176999999999,-11.0294415
1.55,155,-0.047,-0.993,0.14800000000000002,-1.6615782,0.286479,-0.4010706,96.76114704,-1.81627686,-11.01798234
1.56,156,-0.047,-0.995,0.14800000000000002,-1.7188740000000002,0.22918320000000006,-0.4583664000000001,96.7439583,-1.81627686,-11.01798234
1.57,157,-0.047,-0.995,0.14800000000000002,-1.7761698,0.22918320000000006,-0.5156622000000001,96.72103998,-1.81054728,-11.01225276
1.58,158,-0.046,-0.998,0.147,-1.7761698,0.572958,-0.6302538000000001,96.70385124,-1.8048176999999999,-11.00652318
1.59,159,-0.045,-1.0,0.147,-1.7188740000000002,0.6875496,-0.572958,96.6866625,-1.79908812,-11.0007936
1.6,160,-0.044,-1.002,0.14800000000000002,-1.8334656000000005,0.7448454000000001,-0.6302538000000001,96.67520334,-1.8048176999999999,-10.98933444
1.61,161,-0.042,-1.002,0.147,-1.9480572,0.8594370000000001,-0.7448454000000001,96.6580146,-1.79908812,-10.98360486
1.62,162,-0.041,-1.005,0.14400000000000002,-2.0626488000000003,0.9740286,-0.8594370000000001,96.63509628,-1.78762896,-10.9721457
1.6300000000000001,163,-0.042,-1.006,0.142,-2.3491278,0.8021411999999999,-1.0313244,96.61217795999998,-1.78189938,-10.96068654
1.6400000000000001,164,-0.042,-1.006,0.14300000000000002,-2.4064236,0.6302538000000001,-1.0886202,96.58353006,-1.77044022,-10.95495696
1.6500000000000001,165,-0.044,-1.004,0.142,-2.578311,0.4010706,-1.145916,96.56061174,-1.77044022,-10.94922738
1.6600000000000001,166,-0.043,-1.004,0.141,-2.7501984,0.057295800000000015,-1.0886202,96.53196384,-1.75898106,-10.9434978
1.6700000000000002,167,-0.037000000000000005,-1.005,0.14300000000000002,-3.0366774,0.0,-1.0886202,96.50331594,-1.7475218999999995,-10.9434978
1.68,168,-0.037000000000000005,-1.008,0.141,-3.3804522000000006,0.286479,-1.0886202,96.46893846,-1.73606274,-10.93776822
1.69,169,-0.036000000000000004,-1.011,0.139,-3.8961144,0.286479,-0.9167328,96.4288314,-1.73033316,-10.93776822
1.7,170,-0.039,-1.007,0.134,-4.3544808,0.286479,-0.6875496,96.38299476,-1.73033316,-10.932038639999998
1.71,171,-0.047,-1.003,0.133,-4.583664,0.0,-0.4010706,96.33715812,-1.73033316,-10.932038639999998
1.72,172,-0.036000000000000004,-0.999,0.134,-4.6409598,0.1718874,-0.4010706,96.2855919,-1.7246035799999997,-10.92630906
1.73,173,-0.032,-1.001,0.131,-4.6409598,0.3437748,-0.4010706,96.23975526,-1.7188740000000002,-10.92630906
1.74,174,-0.034,-1.004,0.13,-4.8128472,0.057295800000000015,-0.286479,96.18818904,-1.7188740000000002,-10.92630906
1.75,175,-0.039,-1.001,0.132,-5.042030400000002,-0.11459160000000003,-0.22918320000000006,96.14235240000001,-1.7188740000000002,-10.92630906
1.76,176,-0.042,-0.997,0.135,-4.9847345999999995,-0.4010706,-0.4583664000000001,96.09078618,-1.71314442,-10.92630906
1.77,177,-0.043,-0.999,0.139,-4.9847345999999995,-0.4010706,-0.6875496,96.03921996,-1.7074148399999998,-10.932038639999998
1.78,178,-0.039,-1.007,0.136,-5.5003968,-0.22918320000000006,-0.8021411999999999,95.98192416,-1.70168526,-10.93776822
1.79,179,-0.037000000000000005,-1.011,0.13,-6.302537999999998,-0.11459160000000003,-0.6302538000000001,95.91889878,-1.6902260999999998,-10.93776822
1.8,180,-0.036000000000000004,-1.008,0.128,-6.8182002000000015,-0.1718874,-0.5156622000000001,95.85014382,-1.6902260999999998,-10.93776822
1.81,181,-0.035,-1.006,0.126,-6.990087599999999,-0.286479,-0.4583664000000001,95.78138886,-1.6844965200000002,-10.9434978
1.82,182,-0.035,-1.005,0.125,-6.990087599999999,-0.22918320000000006,-0.4010706,95.70690432,-1.6787669399999998,-10.9434978
1.83,183,-0.035,-1.003,0.124,-6.9327918,-0.3437748,-0.22918320000000006,95.63814936,-1.6787669399999998,-10.94922738
1.84,184,-0.037000000000000005,-1.001,0.126,-7.0473834,-0.4010706,-0.1718874,95.56366482,-1.67303736,-10.95495696
1.85,185,-0.039,-1.0,0.127,-7.1046792000000005,-0.4010706,-0.11459160000000003,95.50063944,-1.6787669399999998,-10.96068654
1.86,186,-0.041,-1.001,0.127,-7.2765666,-0.286479,-0.057295800000000015,95.4261549,-1.6787669399999998,-10.96068654
1.87,187,-0.045,-1.004,0.125,-7.6776372,-0.286479,-0.1718874,95.34594078,-1.67303736,-10.96641612
1.8800000000000001,188,-0.046,-1.004,0.125,-8.193299399999999,-0.22918320000000006,-0.3437748,95.26572666,-1.67303736,-10.9721457
1.8900000000000001,189,-0.046,-1.008,0.123,-8.8235532,-0.22918320000000006,-0.4583664000000001,95.17405338,-1.6673077799999998,-10.9721457
1.9000000000000001,190,-0.047,-1.01,0.12,-9.2819196,-0.11459160000000003,-0.572958,95.0823801,-1.6673077799999998,-10.9721457
1.9100000000000001,191,-0.043,-1.013,0.117,-9.6256944,0.0,-0.572958,94.98497724,-1.6615782,-10.9721457
1.9200000000000002,192,-0.043,-1.013,0.113,-9.8548776,-0.22918320000000006,-0.5156622000000001,94.88757438,-1.6558486199999998,-10.97787528
1.93,193,-0.044,-1.013,0.114,-10.255948199999999,-0.4010706,-0.3437748,94.77871236,-1.65011904,-10.98360486
1.94,194,-0.044,-1.01,0.117,-10.5424272,-0.3437748,-0.22918320000000006,94.67557992,-1.65011904,-10.98933444
1.95,195,-0.044,-1.008,0.113,-11.0580894,-0.057295800000000015,-0.057295800000000015,94.5667179,-1.6558486199999998,-10.98933444
1.96,196,-0.046,-1.01,0.11,-11.2872726,0.286479,0.11459160000000003,94.4521263,-1.6558486199999998,-10.98933444
1.97,197,-0.046,-1.013,0.109,-11.4018642,0.572958,0.22918320000000006,94.33180511999998,-1.6615782,-10.98360486
1.98,198,-0.042,-1.014,0.109,-11.745639,0.6302538000000001,0.286479,94.21148394,-1.6673077799999998,-10.97787528
1.99,199,-0.041,-1.013,0.108,-12.0894138,0.5156622000000001,0.22918320000000006,94.09116276,-1.6673077799999998,-10.97787528
2.0,200,-0.041,-1.013,0.107,-12.4904844,0.286479,0.11459160000000003,93.965112,-1.67303736,-10.9721457
2.01,201,-0.04,-1.015,0.106,-13.0634424,0.286479,0.11459160000000003,93.83333166,-1.6787669399999998,-10.9721457
2.02,202,-0.041,-1.014,0.104,-13.6364004,0.1718874,0.0,93.69582174,-1.6787669399999998,-10.9721457
2.03,203,-0.041,-1.015,0.102,-14.0947668,0.0,-0.057295800000000015,93.55258224,-1.6787669399999998,-10.9721457
2.04,204,-0.039,-1.014,0.102,-14.4385416,0.0,-0.057295800000000015,93.40934274,-1.6787669399999998,-10.97787528
2.05,205,-0.038,-1.014,0.099,-14.9542038,-0.11459160000000003,-0.11459160000000003,93.26037366,-1.6787669399999998,-10.97787528
2.0599999999999996,206,-0.037000000000000005,-1.014,0.095,-15.3552744,-0.22918320000000006,0.0,93.105675,-1.6787669399999998,-10.98360486
2.07,207,-0.039,-1.016,0.094,-15.813640800000002,-0.4010706,0.057295800000000015,92.94524676,-1.6787669399999998,-10.98933444
2.0799999999999996,208,-0.041,-1.014,0.099,-16.157415599999997,-0.1718874,0.11459160000000003,92.77908894,-1.6844965200000002,-10.99506402
2.09,209,-0.042,-1.014,0.1,-16.7876694,0.0,0.1718874,92.60720154,-1.6844965200000002,-10.99506402
2.0999999999999996,210,-0.04,-1.014,0.098,-17.589810600000003,0.572958,0.1718874,92.43531414,-1.6902260999999998,-10.98933444
2.11,211,-0.037000000000000005,-1.02,0.08800000000000001,-18.5065434,1.432395,0.286479,92.246238,-1.6959556799999995,-10.97787528
2.1199999999999997,212,-0.037000000000000005,-1.024,0.08,-19.308684600000007,1.6615782,0.4010706,92.05143228,-1.70168526,-10.96641612
2.13,213,-0.04,-1.025,0.083,-19.8243468,1.8907613999999997,0.4583664000000001,91.85089698,-1.71314442,-10.94922738
2.1399999999999997,214,-0.042,-1.024,0.083,-20.3973048,2.1772404,0.4583664000000001,91.63890252,-1.7188740000000002,-10.932038639999998
2.15,215,-0.053,-1.021,0.078,-21.3713334,2.5210152000000003,0.3437748,91.42690806,-1.73033316,-10.90339074
2.1599999999999997,216,-0.051,-1.023,0.078,-22.1161788,3.2085648,0.1718874,91.20345444,-1.73606274,-10.87474284
2.17,217,-0.043,-1.024,0.08199999999999999,-23.204799,4.1252976000000015,-0.057295800000000015,90.96281208,-1.73606274,-10.84036536
2.1799999999999997,218,-0.039,-1.026,0.08,-24.2934192,4.6409598,-0.057295800000000015,90.71644014,-1.74179232,-10.79452872
2.19,219,-0.038,-1.027,0.069,-26.0122932,4.9274388,0.057295800000000015,90.44714988,-1.7475218999999995,-10.74869208
2.1999999999999997,220,-0.038,-1.023,0.057,-27.1009134,5.2139178,0.0,90.17213004,-1.7475218999999995,-10.70285544
2.21,221,-0.042,-1.02,0.053,-27.7311672,5.5003968,-0.3437748,89.89138061999998,-1.7475218999999995,-10.65128922
2.2199999999999998,222,-0.045,-1.022,0.048,-28.4187168,5.443101,-0.572958,89.59917204,-1.7475218999999995,-10.599723
2.23,223,-0.049,-1.022,0.04,-29.0489706,5.042030400000002,-0.572958,89.30123388000001,-1.74179232,-10.55388636
2.2399999999999998,224,-0.044,-1.017,0.039,-29.4500412,4.8128472,-0.7448454000000001,89.00329572000004,-1.74179232,-10.50804972
2.25,225,-0.045,-1.018,0.035,-29.9657034,4.8701430000000006,-1.0313244,88.69962798,-1.73606274,-10.46221308
2.26,226,-0.047,-1.021,0.032,-30.65325300000001,4.9274388,-1.2605076000000002,88.38450107999998,-1.7246035799999997,-10.41637644
2.27,227,-0.047,-1.022,0.034,-31.8564648,5.3285094000000015,-1.2605076000000002,88.05791502,-1.71314442,-10.3705398
2.28,228,-0.05,-1.018,0.027000000000000003,-32.8877892,5.958763200000001,-1.2032118,87.72559937999998,-1.70168526,-10.313244000000001
2.29,229,-0.044,-1.015,0.023,-33.8618178,6.4744254,-1.145916,87.37609499999998,-1.6959556799999995,-10.2559482
2.3,230,-0.04,-1.013,0.015,-34.7785506,6.875496000000001,-0.9740286,87.02659062000002,-1.6844965200000002,-10.18719324
2.31,231,-0.038,-1.015,0.005,-35.809875,6.4744254,-0.8594370000000001,86.6598975,-1.6787669399999998,-10.12989744
2.32,232,-0.047,-1.018,-0.001,-36.955791,6.130650599999999,-0.9167328,86.28174521999998,-1.67303736,-10.07260164
2.3299999999999996,233,-0.052000000000000005,-1.019,-0.002,-37.8725238,6.0733548,-1.2032118,85.89213378,-1.6615782,-10.02103542
2.34,234,-0.056,-1.022,-0.005,-39.0757356,6.5317212,-1.7188740000000002,85.49106318,-1.64438946,-9.95801004
2.3499999999999996,235,-0.053,-1.025,-0.004,-40.393539,7.5057497999999985,-2.0626488000000003,85.08426299999998,-1.62147114,-9.88925508
2.36,236,-0.049,-1.026,-0.008,-41.8832298,8.307891,-2.0626488000000003,84.66027408,-1.6042824000000002,-9.81477054
2.3699999999999997,237,-0.045,-1.025,-0.018000000000000002,-43.65939960000001,8.880849000000003,-1.8334656000000005,84.21336684,-1.5813640800000002,-9.73455642
2.38,238,-0.044,-1.024,-0.037000000000000005,-45.263682,8.9381448,-1.6615782,83.74927086,-1.56417534,-9.64861272
2.3899999999999997,239,-0.041,-1.026,-0.049,-46.6387812,8.59437,-1.6615782,83.26798613999998,-1.5412570200000002,-9.57412818
2.4,240,-0.044,-1.031,-0.059,-47.9565846,7.9641161999999985,-1.5469866,82.78670142,-1.52406828,-9.49964364
2.4099999999999997,241,-0.049,-1.028,-0.062,-49.1025006,7.2192707999999985,-1.6042823999999998,82.28249838,-1.50687954,-9.43661826
2.42,242,-0.052000000000000005,-1.022,-0.056,-50.706783,6.760904399999999,-1.8907613999999997,81.76683618000001,-1.48396122,-9.37932246
2.4299999999999997,243,-0.055,-1.016,-0.053,-52.139178,6.760904399999999,-2.4637194,81.23398524000002,-1.45531332,-9.32202666
2.44,244,-0.057,-1.021,-0.061,-53.571573,7.7349330000000025,-2.6929026,80.68967513999998,-1.42666542,-9.2532717
2.4499999999999997,245,-0.054000000000000006,-1.028,-0.067,-55.86340500000001,8.8235532,-2.8074942000000003,80.12244672,-1.39228794,-9.17878716
2.46,246,-0.057,-1.039,-0.067,-57.983349600000004,9.6256944,-2.6929026,79.53229998,-1.3579104599999998,-9.09284346
2.4699999999999998,247,-0.058,-1.031,-0.067,-60.44706899999999,9.969469199999999,-2.6929026,78.91350534,-1.32353298,-9.00689976
2.48,248,-0.058,-1.019,-0.083,-62.6243094,10.1986524,-3.3231564,78.27179238,-1.27769634,-8.92095606
2.4899999999999998,249,-0.06,-1.022,-0.093,-64.9161414,10.5424272,-3.724227,77.61289067999998,-1.2318597,-8.82928278
2.5,250,-0.058,-1.023,-0.091,-68.0674104,11.688343199999998,-4.010706000000001,76.92534108,-1.1745638999999999,-8.73187992
2.51,251,-0.054000000000000006,-1.01,-0.102,-69.9581718,13.178034,-4.1252976000000015,76.20914358,-1.1172681,-8.623017899999999
2.52,252,-0.047,-1.008,-0.12,-72.25000379999999,14.0947668,-4.2398892,75.47002776000002,-1.05424272,-8.50269672
2.53,253,-0.046,-1.008,-0.132,-74.7137232,14.495837400000001,-4.4117766,74.70799362,-0.98548776,-8.376645960000001
2.54,254,-0.044,-1.006,-0.136,-77.1201468,14.495837400000001,-4.8128472,73.92304116,-0.91100322,-8.262054359999999
2.55,255,-0.043,-1.003,-0.146,-79.24009140000003,14.5531332,-5.0993262,73.12089996,-0.83651868,-8.14173318
2.56,256,-0.046,-1.005,-0.151,-81.360036,14.667724800000002,-5.3285094000000015,72.29011086,-0.75630456,-8.021412
2.57,257,-0.046,-1.002,-0.156,-84.05293859999998,14.2093584,-5.443101,71.43640344,-0.67609044,-7.91254998
2.5799999999999996,258,-0.043,-0.998,-0.165,-86.80313699999998,13.5791046,-5.72958,70.54831854,-0.59014674,-7.80941754
2.59,259,-0.039,-0.997,-0.175,-90.5846598,14.381245800000002,-6.130650599999999,69.62585616,-0.4984734599999999,-7.70055552
2.5999999999999996,260,-0.038,-0.994,-0.171,-92.8764918,14.8396122,-6.5317212,68.69193462000001,-0.4010706000000001,-7.59742308
2.61,261,-0.039,-0.986,-0.156,-95.397507,13.980175199999998,-6.990087599999999,67.71790602000002,-0.29793816,-7.500020219999999
2.6199999999999997,262,-0.035,-0.984,-0.159,-97.8612264,13.178034,-6.875496000000001,66.72095909999999,-0.20053530000000008,-7.408346939999999
2.63,263,-0.035,-0.978,-0.17600000000000002,-101.2416786,12.6623718,-6.4744254,65.69536428,-0.10313244,-7.328132819999999
2.6399999999999997,264,-0.045,-0.979,-0.204,-105.02320139999999,13.464512999999998,-6.3598338,64.62393282000001,-0.00572958,-7.23645954
2.65,265,-0.046,-0.981,-0.23,-108.7474284,15.756345000000001,-6.2452422,63.52958304,0.09167328,-7.12759752
2.6599999999999997,266,-0.04,-0.979,-0.248,-111.89869740000002,19.0222056,-6.589017,62.38939661999999,0.21772404,-6.99581718
2.67,267,-0.03,-0.97,-0.241,-116.5396572,21.772404,-6.589017,61.20337356,0.35523396,-6.8411185199999975
2.6799999999999997,268,-0.021,-0.952,-0.212,-120.3784758,19.194093,-6.417129599999999,59.98297302,0.4870143000000001,-6.7150677599999975
2.69,269,-0.026,-0.929,-0.231,-122.040054,16.8449652,-6.3598338,58.73965416000001,0.6073354799999999,-6.60620574
2.6999999999999997,270,-0.035,-0.909,-0.264,-124.6756608,18.449247600000003,-7.0473834,57.47914656,0.7391158200000001,-6.49161414
2.71,271,-0.044,-0.895,-0.28300000000000003,-126.7956054,21.5432208,-7.5630456000000015,56.19572064000001,0.89954406,-6.3598338000000005
2.7199999999999998,272,-0.043,-0.8859999999999999,-0.285,-129.3739164,25.0382646,-8.193299399999999,54.87791724,1.08289062,-6.205135139999999
2.73,273,-0.033,-0.877,-0.29,-132.75436860000002,28.2468294,-8.651665800000002,53.53146594,1.29488508,-6.0275181600000005
2.7399999999999998,274,-0.028,-0.861,-0.287,-135.67645439999998,28.762491600000004,-8.651665800000002,52.15636674,1.51260912,-5.85563076
2.75,275,-0.026,-0.841,-0.303,-138.59854019999997,29.793816,-8.7662574,50.75834922,1.73606274,-5.67801378
2.76,276,-0.022,-0.818,-0.309,-141.0622596,31.4553942,-8.5370742,49.32595422,1.9767051,-5.4946672199999975
2.77,277,-0.022,-0.794,-0.322,-141.9216966,32.257535399999995,-8.651665800000002,47.88782964,2.22307704,-5.311320660000002
2.78,278,-0.023,-0.7929999999999999,-0.34,-143.0103168,32.830493399999995,-8.4224826,46.44397548,2.48090814,-5.1279740999999985
2.79,279,-0.015,-0.763,-0.353,-145.58862779999995,33.116972399999995,-7.906820400000001,44.96574384,2.73873924,-4.94462754
2.8,280,-0.016,-0.733,-0.369,-145.4740362,33.6326346,-7.161975,43.50470094,2.9965703400000003,-4.76128098
2.81,281,-0.008,-0.706,-0.373,-145.3594446,34.7212548,-6.9327918,42.03219888,3.27159018,-4.57220484
2.82,282,-0.004,-0.67,-0.366,-145.1302614,34.091001,-7.161975,40.5654264,3.54661002,-4.40031744
2.8299999999999996,283,-0.016,-0.638,-0.35700000000000004,-142.78113359999998,33.231564,-8.021412000000002,39.12157224,3.82162986,-4.2398892
2.84,284,-0.017,-0.612,-0.349,-140.08823099999998,33.3461556,-8.5370742,37.70636598,4.10810886,-4.0966497
2.8499999999999996,285,-0.009000000000000001,-0.608,-0.365,-138.1974696,34.60666320000001,-8.4224826,36.31980762,4.40604702,-3.9534102
2.86,286,-0.004,-0.606,-0.406,-136.5931872,38.0444112,-8.9954406,34.93897884,4.73836266,-3.79298196
2.8699999999999997,287,-0.012,-0.613,-0.436,-133.90028460000002,43.258329,-9.9121734,33.58679796,5.1222445200000015,-3.62682414
2.88,288,-0.009000000000000001,-0.621,-0.423,-131.6657484,48.128471999999995,-10.313244,32.26326498,5.5519630200000005,-3.4377480000000005
2.8899999999999997,289,0.002,-0.607,-0.472,-130.11876180000002,50.0192334,-10.7716104,30.95119116,6.00459984,-3.26013102
2.9,290,0.039,-0.58,-0.5329999999999999,-130.061466,50.0192334,-11.8029348,29.6505765,6.4686958200000015,-3.0939732
2.9099999999999997,291,0.087,-0.555,-0.5489999999999999,-125.5923936,48.3003594,-13.349921400000001,28.38433932,6.9270622200000025,-2.96792244
2.92,292,0.139,-0.542,-0.601,-120.3784758,49.5035712,-15.0687954,27.16966836,7.4026173600000025,-2.85333084
2.9299999999999997,293,0.193,-0.542,-0.688,-116.7115446,53.34238979999999,-15.813640800000002,25.99510446,7.92400914,-2.74446882
2.94,294,0.217,-0.556,-0.675,-110.7527814,51.9672906,-15.183387000000002,24.87783636,8.43394176,-2.6413363800000003
2.9499999999999997,295,0.22,-0.56,-0.6859999999999999,-101.0697912,49.7327544,-12.4904844,23.86370070000001,8.91522648,-2.53820394
2.96,296,0.206,-0.561,-0.782,-92.13164640000001,47.3836266,-9.5111028,22.94123832,9.36213372,-2.41788276
2.9699999999999998,297,0.221,-0.59,-0.8809999999999999,-86.40206640000002,41.4248634,-6.2452422,22.08180132,9.75174516,-2.30329116
2.98,298,0.192,-0.653,-0.8859999999999999,-75.51586440000001,32.31483119999999,0.4010706,21.33122634,10.03249458,-2.17151082
2.9899999999999998,299,0.081,-0.6829999999999999,-0.939,-61.5356892,26.5852512,6.9327918,20.73535002,10.23875946,-1.99962342
3.0,300,-0.028,-0.736,-0.961,-54.54560160000001,24.5226024,10.1413566,20.2254174,10.41064686,-1.8048176999999999
3.01,301,-0.087,-0.828,-0.973,-52.8840234,23.9496444,12.9488508,19.72121436,10.58253426,-1.59282324
3.02,302,-0.048,-0.963,-0.982,-51.3943326,24.637194,15.469866,19.24565922,10.74869208,-1.35218088
3.03,303,-0.018000000000000002,-1.031,-0.995,-52.0818822,28.0176462,15.870936600000002,18.75864492,10.94922738,-1.10007936
3.04,304,-0.016,-0.975,-1.058,-53.5142772,32.257535399999995,13.8655836,18.26017146,11.2013289,-0.8537074199999999
3.05,305,0.006,-0.931,-1.141,-54.14453099999999,37.0130868,12.7196676,17.761698000000006,11.49353748,-0.6016058999999999
3.06,306,0.059,-0.882,-1.197,-55.3477428,37.1849742,12.834259199999998,17.246035799999998,11.79720522,-0.34950438
3.07,307,0.156,-0.901,-1.269,-57.7541664,30.5959572,13.464512999999998,16.701725699999994,12.03784758,-0.12032118
3.08,308,0.21,-0.951,-1.277,-58.9000824,20.2827132,12.318597,16.140226860000002,12.18108708,0.05729580000000001
3.09,309,0.244,-0.983,-1.222,-58.5563076,10.886202,10.4278356,15.57299844,12.24984204,0.20053530000000008
3.0999999999999996,310,0.26,-0.995,-1.109,-58.3271244,6.5317212,10.4278356,15.01722918,12.278489939999998,0.32658606
3.11,311,0.212,-0.973,-1.008,-60.16059,5.443101,12.318597,14.438541599999999,12.2899491,0.46409598
3.1199999999999997,312,0.161,-0.968,-0.976,-64.457775,4.9274388,14.667724800000002,13.81974696,12.2899491,0.62452422
3.13,313,0.111,-0.955,-1.006,-70.8176088,0.4583664000000001,15.469866,13.132197359999996,12.24984204,0.7849524600000001
3.1399999999999997,314,0.094,-0.895,-1.062,-74.9429064,-9.568398599999998,12.9488508,12.39881112,12.118061700000002,0.89381448
3.15,315,0.128,-0.8420000000000001,-1.012,-79.46927459999998,-23.0902074,7.5057497999999985,11.613858660000002,11.87168976,0.92246238
3.1599999999999997,316,0.16,-0.8,-0.945,-87.49068659999998,-28.819787400000006,3.2658606,10.72577376,11.5737516,0.89381448
3.17,317,0.166,-0.74,-0.935,-96.3142398,-30.5959572,0.8594370000000001,9.740286,11.26435428,0.8479778399999999
3.1799999999999997,318,0.221,-0.706,-1.005,-110.6954856,-33.74722620000001,-4.6409598,8.60009958,10.92630906,0.7448454000000001
3.19,319,0.309,-0.637,-0.974,-120.66495479999999,-38.961144,-13.0061466,7.34532156,10.55388636,0.55576926
3.1999999999999997,320,0.37,-0.5760000000000001,-0.907,-126.623718,-45.3209778,-20.626488,6.0332477399999975,10.12416786,0.29220857999999994
3.21,321,0.365,-0.474,-0.861,-133.1554392,-49.90464179999999,-24.8663772,4.63523022,9.63715356,0.0
3.2199999999999998,322,0.344,-0.32,-0.696,-132.639777,-55.1758554,-25.0955604,3.2486718599999995,9.098573040000002,-0.29793816
3.23,323,0.199,-0.139,-0.431,-123.70163219999999,-62.3378304,-23.5485738,1.9595163600000003,8.479778399999999,-0.5729580000000001
3.2399999999999998,324,0.029,-0.016,-0.335,-113.9040504,-62.3951262,-23.14750320000001,0.7734933,7.85525418,-0.8250595199999999
3.25,325,0.001,0.015,-0.14,-101.0124954,-63.48374640000001,-22.4026578,-0.27501984,7.2192707999999985,-1.06570188
3.26,326,0.012,0.051,0.111,-86.40206640000002,-63.08267579999999,-21.9442914,-1.1688343199999998,6.58328742,-1.28342592
3.27,327,0.083,0.094,0.259,-76.6617804,-52.8840234,-22.4026578,-1.96524594,6.0447069,-1.50114996
3.28,328,0.192,0.099,0.35,-66.5777196,-44.34694920000001,-23.6058696,-2.65852512,5.59207008,-1.73033316
3.29,329,0.293,0.118,0.474,-56.4936588,-35.6379876,-21.2567418,-3.2486718599999995,5.21964738,-1.92513888
3.3,330,0.301,0.031,0.56,-45.3209778,-25.0955604,-12.834259199999998,-3.71849742,4.97900502,-2.03973048
3.31,331,0.165,0.054000000000000006,0.519,-33.116972399999995,-14.0947668,-4.9847345999999995,-4.05654264,4.83576552,-2.08556712
3.32,332,0.043,0.18,0.467,-25.78311,-1.5469866,-2.1772404,-4.320103319999999,4.812847199999998,-2.10275586
3.33,333,-0.13,0.308,0.5539999999999999,-20.626488,20.05353,-3.9534102,-4.53782736,5.00765292,-2.1485925000000003
3.34,334,-0.344,0.382,0.536,-26.298772200000002,40.6227222,-1.145916,-4.812847199999998,5.40299394,-2.18296998
3.3499999999999996,335,-0.503,0.417,0.495,-27.1582092,60.0459984,9.740286,-5.11651494,5.97595194,-2.10848544
3.36,336,-0.608,0.526,0.21,-19.7097552,88.0063488,28.4187168,-5.2998615,6.86403684,-1.87930224
3.3699999999999997,337,-0.71,0.632,-0.015,-1.3178034,109.3776822,48.3003594,-5.27694318,7.987034519999999,-1.46677248
3.38,338,-0.5589999999999999,0.691,-0.023,9.6256944,135.96293340000003,63.59833800000001,-5.11078536,9.38505204,-0.92246238
3.3899999999999997,339,-0.35200000000000004,0.586,-0.1,29.793816,176.5856556,69.9581718,-4.7269035000000015,11.18986974,-0.32085648
3.4,340,-0.195,0.513,-0.269,35.46610020000001,210.848544,76.4325972,-4.26280752,13.32700308,0.33231564
3.4099999999999997,341,-0.009000000000000001,0.5770000000000001,-0.373,33.1742682,248.14810980000001,75.9742308,-3.78725238,15.83082954,1.0026765
3.42,342,0.066,0.696,-0.467,32.945085,277.9419258,70.87490460000002,-3.3059676599999994,18.621135,1.6329303
3.4299999999999997,343,0.184,0.794,-0.607,30.5959572,297.5370894,64.6869582,-2.82468294,21.6005166,2.2345362
3.44,344,0.256,0.775,-0.705,30.65325300000001,305.44390980000014,56.149884,-2.3376686399999995,24.64292358,2.7788463
3.4499999999999997,345,0.34600000000000003,0.613,-0.795,32.085648000000006,302.75100719999995,53.1705024,-1.81627686,27.65668266,3.33461556
3.46,346,0.823,0.3,-1.192,33.2888598,294.6150036,51.5089242,-1.2318597,30.58449804,3.9190327200000006
3.4699999999999998,347,-0.062,1.159,-1.714,-23.0902074,252.5025906,2.0626488000000003,-1.48396122,33.07686534,3.9648693599999993
3.48,348,-0.079,3.377,-3.3680000000000003,-102.9032568,174.465711,-153.6100398,-3.59244666,34.72698438,2.10275586
3.4899999999999998,349,2.2840000000000003,3.292,-3.991,-103.7626938,129.54580380000002,-218.9845476,-6.25097178,35.81560458,-0.61879464
3.5,350,3.39,1.013,-3.786,-64.6869582,64.11400019999999,-137.79639899999998,-7.94692746,36.27397098,-2.36631654
3.51,351,3.99,1.244,-2.41,-42.7999626,174.2365278,-69.4998054,-9.06992514,37.87825338,-3.47785506
3.52,352,3.542,1.396,-3.89,-48.414951,169.99663859999995,20.05353,-9.60277608,39.57420906,-3.5122325400000003
3.53,353,3.389,1.251,-3.1180000000000003,-47.4982182,72.25000379999999,77.8649922,-9.52829154,40.39926858,-2.6356068
3.54,354,3.497,1.289,-2.12,-13.8655836,16.042824000000003,76.8336678,-9.04700682,40.680018,-1.67303736
3.55,355,3.5,0.519,-1.32,23.7204612,7.6203414,83.25079740000002,-8.107355700000001,40.8805533,-0.6073354799999999
3.56,356,2.977,0.579,-0.266,14.2093584,-6.0733548,84.22482600000002,-7.23645954,40.92638994,0.49274388
3.57,357,1.565,0.637,0.401,12.261301199999998,-79.4119788,61.9940556,-6.51453246,40.2216516,1.38655836
3.58,358,0.504,0.478,0.301,-32.830493399999995,-136.2494124,28.762491600000004,-6.497343719999999,38.9038482,1.90795014
3.59,359,0.065,0.107,0.065,-49.1597964,-145.4740362,5.0993262,-6.83538894,37.47718278000001,2.14286292
3.5999999999999996,360,0.066,-0.107,-0.086,-30.8251404,-120.77954640000002,-16.1001198,-7.15624542,36.26251182,2.0912967
3.61,361,0.076,0.085,0.009000000000000001,-19.308684600000007,-93.6213372,-41.825934,-7.56877518,35.28848322,1.70168526
3.6199999999999997,362,0.106,0.382,0.058,-21.3713334,-61.020027,-60.38977320000001,-8.14746276,34.60666320000001,1.0599723
3.63,363,0.4970000000000001,0.531,-0.104,-24.5798982,-28.934379,-58.5563076,-8.76052782,34.23424050000001,0.40680018
3.6399999999999997,364,0.703,0.476,-0.228,-22.345362,-13.120738199999998,-43.0864416,-9.25900128,34.03943478,-0.07448454
3.65,365,0.6890000000000001,0.337,-0.353,-18.8503182,-11.9748222,-29.8511118,-9.66580146,33.90765444,-0.4297185000000001
3.6599999999999997,366,0.6920000000000001,0.262,-0.416,-18.162768600000003,-15.870936600000002,-25.0955604,-9.9981171,33.70711914,-0.69327918
3.67,367,0.594,0.28,-0.48,-19.4232762,-18.6784308,-24.8090814,-10.33616232,33.477935939999995,-0.95111028
3.6799999999999997,368,0.502,0.359,-0.528,-16.8449652,-15.469866,-24.1215318,-10.63983006,33.28313022,-1.2032117999999998
3.69,369,0.431,0.434,-0.542,-12.3758928,-9.6256944,-21.485925,-10.89193158,33.145620300000004,-1.432395
3.6999999999999997,370,0.392,0.503,-0.55,-8.651665800000002,-3.5523396000000003,-17.18874,-11.2013289,33.07113576,-1.6844965200000002
3.71,371,0.451,0.521,-0.608,-6.4744254,0.11459160000000003,-12.032117999999999,-11.3445684,33.048217439999995,-1.82200644
3.7199999999999998,372,0.446,0.534,-0.6609999999999999,-6.875496000000001,-2.8074942000000003,-7.0473834,-11.45343042,33.00811038,-1.89649098
3.73,373,0.453,0.5579999999999999,-0.716,-6.703608600000001,-6.5317212,-3.3804522000000006,-11.53364454,32.933625840000005,-1.92513888
3.7399999999999998,374,0.454,0.575,-0.753,-7.7349330000000025,-10.6570188,0.11459160000000003,-11.6023995,32.8304934,-1.89649098
3.75,375,0.433,0.589,-0.737,-7.1046792000000005,-14.152062599999999,3.666931200000001,-11.75709816,32.67006516,-1.88503182
3.76,376,0.4270000000000001,0.579,-0.7559999999999999,-4.4690724,-13.5791046,7.5630456000000015,-11.73990942,32.54974398,-1.76471064
3.77,377,0.447,0.536,-0.778,-2.9793816000000004,-13.349921400000001,14.2093584,-11.659695300000001,32.45234112,-1.5756344999999998
3.78,378,0.508,0.458,-0.8140000000000001,-1.7761698,-15.0687954,23.8923486,-11.5164558,32.34920868,-1.26623718
3.79,379,0.516,0.366,-0.9,-1.145916,-16.501190400000002,31.340802600000004,-11.31019092,32.25180582,-0.87089616
3.8,380,0.4920000000000001,0.31,-0.967,-1.3750992,-22.5172494,35.809875,-11.09246688,32.085648,-0.41825934
3.81,381,0.4970000000000001,0.233,-0.973,-0.4583664000000001,-26.4706596,37.6433406,-10.83463578,31.89657186,0.05729580000000001
3.82,382,0.457,0.132,-0.924,1.5469866,-26.069589,36.8411994,-10.56534552,31.7132253,0.52712136
3.83,383,0.399,0.069,-0.8959999999999999,1.8907613999999997,-21.772404,33.403451399999994,-10.32470316,31.558526640000004,0.95111028
3.84,384,0.388,0.061,-0.893,0.5156622000000001,-12.891555,27.8457588,-10.13562702,31.47831252,1.29488508
3.8499999999999996,385,0.449,0.071,-0.908,-1.9480572,-4.1252976000000015,21.1421502,-10.00384668,31.44966462,1.55844576
3.86,386,0.5479999999999999,0.056,-0.93,-3.7815227999999994,0.3437748,16.2147114,-9.9408213,31.47831252,1.74179232
3.8699999999999997,387,0.541,0.086,-0.917,-5.72958,0.572958,13.0634424,-9.92363256,31.506960419999995,1.8907613999999997
3.88,388,0.504,0.134,-0.913,-5.7868758000000025,-0.22918320000000006,11.5737516,-9.9121734,31.52414916,2.02827132
3.8899999999999997,389,0.555,0.185,-0.892,-5.3858052,-0.286479,11.0580894,-9.90071424,31.541337899999995,2.15432208
3.9,390,0.5710000000000001,0.19,-0.865,-3.8961144,1.7761698,11.8602306,-9.88925508,31.57571538,2.28037284
3.9099999999999997,391,0.569,0.175,-0.845,-2.3491278,4.5263682,13.0634424,-9.83768886,31.64447034,2.42361234
3.92,392,0.517,0.16899999999999998,-0.838,-1.5469866,1.2605076000000002,14.5531332,-9.7689339,31.67884782,2.58977016
3.9299999999999997,393,0.468,0.157,-0.8220000000000001,-0.057295800000000015,-1.4896908000000002,15.0687954,-9.67153104,31.690306979999995,2.76738714
3.94,394,0.399,0.08900000000000001,-0.809,0.5156622000000001,-2.0053530000000004,16.959556799999998,-9.56266902,31.70176614,2.96219286
3.9499999999999997,395,0.34700000000000003,0.036000000000000004,-0.7959999999999999,0.4583664000000001,-0.286479,17.9335854,-9.4251591,31.6845774,3.1913760600000005
3.96,396,0.331,0.018000000000000002,-0.7959999999999999,0.0,2.4637194,17.0168526,-9.32202666,31.73614362,3.3804522000000006
3.9699999999999998,397,0.365,0.008,-0.804,-0.4010706,5.7868758000000025,14.9542038,-9.24181254,31.81635774,3.54661002
3.98,398,0.392,0.005,-0.8029999999999999,-0.286479,4.583664,12.7769634,-9.167328,31.87938312,3.68411994
3.9899999999999998,399,0.42,0.077,-0.802,-2.0053530000000004,-0.9167328,8.8235532,-9.13295052,31.8851127,3.79298196
4.0,400,0.46,0.048,-0.826,-0.22918320000000006,-9.224623800000002,7.6776372,-9.0527364,31.78770984,3.91330314
4.01,401,0.447,0.027000000000000003,-0.845,1.9480572,-14.610429000000002,7.3911582,-8.97252228,31.65592950000001,4.01643558
4.02,402,0.453,0.049,-0.867,2.9793816000000004,-18.334656,5.844171599999999,-8.88657858,31.484042100000003,4.11383844
4.03,403,0.461,0.08199999999999999,-0.8859999999999999,3.3804522000000006,-20.454600600000006,4.2398892,-8.81209404,31.294965959999995,4.19405256
4.04,404,0.487,0.087,-0.893,4.0680017999999984,-19.5378678,2.8074942000000003,-8.7376095,31.10588982,4.25134836
4.05,405,0.507,0.087,-0.899,4.3544808,-17.18874,1.432395,-8.65739538,30.92827284,4.297185000000002
4.06,406,0.536,0.085,-0.897,4.4117766,-14.037471,0.057295800000000015,-8.60009958,30.79076292,4.320103319999999
4.07,407,0.563,0.08199999999999999,-0.889,4.4117766,-9.969469199999999,-1.432395,-8.554262940000001,30.693360060000003,4.31437374
4.08,408,0.589,0.077,-0.873,4.4117766,-5.6149884000000005,-3.0939732,-8.52561504,30.63033468,4.28572584
4.09,409,0.616,0.075,-0.858,4.010706000000001,-2.7501984,-4.9847345999999995,-8.5084263,30.595957199999997,4.23415962
4.1,410,0.638,0.08,-0.835,3.3231564,-0.572958,-7.2765666,-8.5084263,30.64179384,4.14821592
4.109999999999999,411,0.657,0.092,-0.812,2.6356068,1.2605076000000002,-9.167328,-8.5370742,30.64179384,4.0393539
4.12,412,0.665,0.112,-0.795,1.7188740000000002,2.2345362,-10.255948199999999,-8.58291084,30.64752342,3.9190327200000006
4.13,413,0.6729999999999999,0.132,-0.787,0.572958,2.0053530000000004,-10.4278356,-8.640206639999999,30.653253000000003,3.79871154
4.14,414,0.672,0.14800000000000002,-0.7929999999999999,-0.9167328,1.0313244,-9.6829902,-8.7089616,30.64752342,3.68411994
4.1499999999999995,415,0.66,0.161,-0.804,-2.1199446,0.3437748,-8.59437,-8.81782362,30.710548800000005,3.5580691799999995
4.16,416,0.635,0.166,-0.81,-3.151269,-1.4896908000000002,-7.161975,-8.88657858,30.68190090000001,3.47785506
4.17,417,0.5870000000000001,0.166,-0.8109999999999999,-3.8388186,-5.7868758000000025,-5.958763200000001,-8.95533354,30.61887552,3.42055926
4.18,418,0.535,0.172,-0.816,-3.5523396000000003,-8.021412000000002,-4.7555514,-9.01262934,30.53293182,3.3804522000000006
4.1899999999999995,419,0.515,0.17800000000000002,-0.813,-3.0939732,-7.5057497999999985,-3.4950437999999995,-9.05846598,30.4527177,3.3518043
4.2,420,0.483,0.189,-0.823,-2.7501984,-7.1046792000000005,-2.3491278,-9.14440968,30.35531484,3.3116972399999995
4.21,421,0.463,0.189,-0.8440000000000001,-1.7761698,-6.875496000000001,-1.432395,-9.167328,30.28655988,3.3059676599999994
4.22,422,0.45,0.182,-0.86,-0.6302538000000001,-6.417129599999999,-1.0313244,-9.17305758,30.2235345,3.3059676599999994
4.2299999999999995,423,0.441,0.171,-0.871,0.4010706,-5.6722842,-0.6875496,-9.167328,30.166238699999997,3.3059676599999994
4.24,424,0.435,0.161,-0.872,1.145916,-5.5576926,-0.572958,-9.15586884,30.1089429,3.3059676599999994
4.25,425,0.435,0.151,-0.863,1.9480572,-4.9274388,-0.572958,-9.167328,29.994351300000005,3.30023808
4.26,426,0.442,0.14800000000000002,-0.845,2.1199446,-3.4377480000000005,-0.1718874,-9.14440968,29.95997382,3.3059676599999994
4.27,427,0.434,0.146,-0.847,2.1199446,-2.6929026,0.22918320000000006,-9.11576178,29.9370555,3.3116972399999995
4.28,428,0.434,0.142,-0.8590000000000001,2.578311,-2.0626488000000003,0.1718874,-9.08711388,29.91413718,3.31742682
4.29,429,0.43,0.132,-0.8759999999999999,2.578311,-0.6875496,0.0,-9.06419556,29.9084076,3.31742682
4.3,430,0.431,0.124,-0.8909999999999999,2.291832,0.057295800000000015,-0.286479,-9.03554766,29.70214272,3.34034514
4.31,431,0.4320000000000001,0.12,-0.9,2.4064236,0.3437748,-1.145916,-9.01835892,29.7078723,3.3231564
4.32,432,0.442,0.115,-0.89,3.151269,0.286479,-1.8907613999999997,-9.001170179999997,29.7078723,3.30023808
4.33,433,0.46,0.116,-0.871,4.0680017999999984,-0.5156622000000001,-2.1772404,-8.97252228,29.69641314,3.27731976
4.34,434,0.466,0.113,-0.855,3.8388186,-1.2032118,-2.2345362,-8.94387438,29.68495398,3.25440144
4.35,435,0.48,0.114,-0.857,3.0939732,-1.2032118,-2.0626488000000003,-8.92095606,29.64484692000001,3.2314831199999987
4.36,436,0.479,0.118,-0.861,1.6042823999999998,-0.7448454000000001,-1.8334656000000005,-8.91522648,29.63338776,3.214294380000001
4.37,437,0.476,0.118,-0.872,0.572958,-0.1718874,-1.3178034,-8.92095606,29.627658180000005,3.19710564
4.38,438,0.479,0.123,-0.8759999999999999,-0.22918320000000006,0.11459160000000003,-0.6875496,-8.92668564,29.627658180000005,3.1913760600000005
4.39,439,0.472,0.127,-0.877,-1.0313244,0.057295800000000015,-0.286479,-8.9381448,29.627658180000005,3.18564648
4.3999999999999995,440,0.465,0.128,-0.8759999999999999,-1.5469866,-0.22918320000000006,0.0,-9.001170179999997,29.46150036,3.18564648
4.41,441,0.462,0.131,-0.8690000000000001,-1.6615782,0.286479,0.1718874,-9.01835892,29.46722994,3.18564648
4.42,442,0.47,0.133,-0.856,-1.7188740000000002,1.2032118,0.5156622000000001,-9.03554766,29.4786891,3.1913760600000005
4.43,443,0.487,0.133,-0.846,-2.3491278,1.8907613999999997,0.9167328,-9.0527364,29.50160742,3.19710564
4.4399999999999995,444,0.5,0.13,-0.8420000000000001,-3.0366774,2.3491278,1.2032118,-9.081384300000002,29.524525739999994,3.2085648000000004
4.45,445,0.505,0.128,-0.852,-3.666931200000001,2.3491278,1.3178034,-9.12149136,29.54744406,3.22002396
4.46,446,0.51,0.127,-0.8590000000000001,-3.8388186,2.1772404,1.2605076000000002,-9.15586884,29.57609196000001,3.2314831199999987
4.47,447,0.51,0.13,-0.855,-3.4377480000000005,1.7188740000000002,1.2605076000000002,-9.18451674,29.5932807,3.24294228
4.4799999999999995,448,0.513,0.131,-0.848,-3.0939732,1.6042823999999998,1.145916,-9.21316464,29.61046944000001,3.25440144
4.49,449,0.518,0.134,-0.843,-3.0939732,1.432395,1.0313244,-9.24181254,29.627658180000005,3.26013102
4.5,450,0.523,0.135,-0.8420000000000001,-3.5523396000000003,1.3750992,0.6302538000000001,-9.29910834,29.66776524,3.25440144
4.51,451,0.5329999999999999,0.135,-0.8390000000000001,-4.1252976000000015,1.3178034,0.1718874,-9.3392154,29.6792244,3.25440144
4.52,452,0.535,0.139,-0.843,-3.9534102,0.572958,0.057295800000000015,-9.37932246,29.68495398,3.25440144
4.53,453,0.529,0.141,-0.8440000000000001,-3.4377480000000005,-0.4583664000000001,-0.1718874,-9.41942952,29.6792244,3.25440144
4.54,454,0.518,0.14,-0.843,-2.8074942000000003,-1.432395,-0.4583664000000001,-9.44807742,29.66776524,3.2486718599999995
4.55,455,0.511,0.142,-0.846,-2.1772404,-1.6042823999999998,-0.7448454000000001,-9.5111028,29.65630608,3.2257535399999995
4.56,456,0.51,0.14400000000000002,-0.8490000000000001,-1.4896908000000002,-1.432395,-1.0313244,-9.52829154,29.63911734,3.22002396
4.57,457,0.509,0.149,-0.851,-0.8021411999999999,-1.4896908000000002,-1.2032118,-9.54548028,29.621928600000004,3.2085648000000004
4.58,458,0.508,0.14800000000000002,-0.8490000000000001,0.057295800000000015,-1.9480572,-1.2032118,-9.54548028,29.599010280000005,3.19710564
4.59,459,0.504,0.142,-0.845,0.572958,-2.1199446,-1.0886202,-9.54548028,29.57609196000001,3.18564648
4.6,460,0.498,0.135,-0.843,0.6302538000000001,-2.1772404,-0.9740286,-9.568398599999998,29.55317364,3.16845774
4.61,461,0.491,0.131,-0.847,0.3437748,-2.0053530000000004,-0.9740286,-9.568398599999998,29.53025532,3.1627281600000003
4.62,462,0.477,0.13,-0.853,0.11459160000000003,-1.9480572,-0.9740286,-9.568398599999998,29.507337,3.151269
4.63,463,0.47,0.133,-0.861,0.0,-1.7188740000000002,-1.0886202,-9.57412818,29.49014826,3.1398098400000003
4.64,464,0.467,0.139,-0.866,0.0,-1.4896908000000002,-1.3750992,-9.57985776,29.47295952,3.12835068
4.6499999999999995,465,0.466,0.147,-0.873,0.3437748,-1.432395,-1.6042823999999998,-9.6256944,29.38128624,3.0997027800000003
4.66,466,0.469,0.14800000000000002,-0.873,0.8594370000000001,-1.2605076000000002,-1.6615782,-9.6256944,29.364097500000003,3.0825140400000004
4.67,467,0.475,0.14,-0.867,1.145916,-0.8594370000000001,-1.6615782,-9.6256944,29.35263834,3.0653253000000005
4.68,468,0.48,0.134,-0.858,0.8594370000000001,-0.6302538000000001,-1.6042823999999998,-9.6256944,29.34690876,3.04813656
4.6899999999999995,469,0.474,0.131,-0.8540000000000001,0.3437748,-1.3750992,-1.432395,-9.6256944,29.32972002,3.0366774000000003
4.7,470,0.466,0.129,-0.856,-0.11459160000000003,-1.432395,-1.432395,-9.64861272,29.23804674,3.02521824
4.71,471,0.462,0.135,-0.862,-0.3437748,-0.572958,-1.4896908000000002,-9.66007188,29.23231716,3.0080295
4.72,472,0.465,0.14300000000000002,-0.863,-0.6302538000000001,0.0,-1.2605076000000002,-9.67153104,29.22658758,2.99084076
4.7299999999999995,473,0.475,0.147,-0.861,-0.7448454000000001,0.0,-1.0313244,-9.68871978,29.22658758,2.9793816000000004
4.74,474,0.481,0.146,-0.8590000000000001,-0.6875496,-0.286479,-0.6302538000000001,-9.69444936,29.220858000000003,2.9736520200000003
4.75,475,0.484,0.14300000000000002,-0.8590000000000001,-0.9740286,-0.6875496,-0.3437748,-9.76320432,29.16929178,2.9507337
4.76,476,0.484,0.145,-0.86,-0.9740286,-0.5156622000000001,-0.11459160000000003,-9.77466348,29.1635622,2.9507337
4.77,477,0.484,0.145,-0.86,-0.8021411999999999,-0.057295800000000015,0.0,-9.78039306,29.1635622,2.9507337
4.78,478,0.484,0.14400000000000002,-0.8540000000000001,-1.0886202,0.4010706,0.1718874,-9.79185222,29.1635622,2.9564632800000004
4.79,479,0.481,0.145,-0.851,-1.2032118,0.11459160000000003,0.4010706,-9.80331138,29.16929178,2.9564632800000004
4.8,480,0.476,0.14400000000000002,-0.852,-1.145916,0.0,0.4010706,-9.88925508,29.08334808,2.93927454
4.81,481,0.477,0.147,-0.8590000000000001,-0.8594370000000001,0.1718874,0.22918320000000006,-9.89498466,29.08334808,2.94500412
4.82,482,0.482,0.152,-0.862,-0.3437748,0.572958,0.286479,-9.90071424,29.08907766,2.94500412
4.83,483,0.491,0.154,-0.862,0.057295800000000015,0.6302538000000001,0.286479,-9.89498466,29.09480724,2.9507337
4.84,484,0.494,0.15,-0.862,0.3437748,0.572958,0.4010706,-9.88925508,29.1062664,2.9507337
4.85,485,0.493,0.142,-0.8640000000000001,0.6302538000000001,0.22918320000000006,0.4010706,-9.93509172,29.06042976,2.93927454
4.86,486,0.4920000000000001,0.13699999999999998,-0.861,0.7448454000000001,0.0,0.22918320000000006,-9.92363256,29.06042976,2.94500412
4.87,487,0.491,0.138,-0.855,0.8021411999999999,-0.5156622000000001,0.1718874,-9.9121734,29.05470018,2.94500412
4.88,488,0.49,0.139,-0.852,0.8594370000000001,-0.8594370000000001,0.1718874,-9.90071424,29.0489706,2.9507337
4.89,489,0.488,0.138,-0.853,0.8594370000000001,-0.5156622000000001,0.1718874,-9.88925508,29.04324102,2.9507337
4.8999999999999995,490,0.489,0.135,-0.855,0.4010706,-0.22918320000000006,0.1718874,-9.98665794,28.940108580000004,2.9220858
4.91,491,0.485,0.134,-0.86,0.11459160000000003,0.0,0.057295800000000015,-9.98665794,28.940108580000004,2.9220858
4.92,492,0.482,0.136,-0.8590000000000001,0.22918320000000006,-0.057295800000000015,-0.11459160000000003,-9.98665794,28.940108580000004,2.9220858
4.93,493,0.483,0.139,-0.857,0.286479,-0.11459160000000003,-0.4010706,-9.98092836,28.934379,2.91635622
4.9399999999999995,494,0.485,0.142,-0.856,0.4010706,-0.4010706,-0.5156622000000001,-9.98092836,28.92864942,2.91062664
4.95,495,0.488,0.141,-0.855,0.5156622000000001,-0.6875496,-0.5156622000000001,-10.00957626,28.91146068,2.8934379
4.96,496,0.491,0.139,-0.855,0.4583664000000001,-0.7448454000000001,-0.6302538000000001,-10.00957626,28.905731099999997,2.88770832
4.97,497,0.4920000000000001,0.136,-0.858,0.3437748,-0.572958,-0.6302538000000001,-10.00957626,28.89427194,2.88197874
4.9799999999999995,498,0.4920000000000001,0.134,-0.863,0.11459160000000003,-0.1718874,-0.6302538000000001,-10.00957626,28.89427194,2.87051958
4.99,499,0.49,0.134,-0.866,-0.1718874,0.0,-0.572958,-10.01530584,28.89427194,2.86479
5.0,500,0.487,0.13699999999999998,-0.862,-0.4010706,-0.5156622000000001,-0.6875496,-10.04395374,28.85989446,2.85333084
5.01,501,0.487,0.141,-0.86,-0.3437748,-0.9167328,-0.8021411999999999,-10.04968332,28.854164879999995,2.84187168
5.02,502,0.487,0.14400000000000002,-0.8540000000000001,-0.22918320000000006,-1.0886202,-0.8021411999999999,-10.0554129,28.83697614,2.8361421
5.03,503,0.484,0.14400000000000002,-0.855,-0.3437748,-1.2032118,-0.6302538000000001,-10.06687206,28.82551698,2.83041252
5.04,504,0.481,0.14300000000000002,-0.857,-0.4010706,-0.9167328,-0.6302538000000001,-10.07260164,28.81405782,2.82468294
5.05,505,0.48,0.141,-0.858,-0.1718874,0.0,-0.6302538000000001,-10.12416786,28.76822118,2.80176462
5.06,506,0.481,0.14,-0.857,0.0,0.5156622000000001,-0.6875496,-10.12989744,28.77395076,2.79030546
5.07,507,0.482,0.135,-0.8590000000000001,0.1718874,0.4010706,-0.8021411999999999,-10.12989744,28.77395076,2.78457588
5.08,508,0.483,0.133,-0.857,-0.11459160000000003,0.0,-0.9740286,-10.13562702,28.77395076,2.77311672
5.09,509,0.483,0.138,-0.856,-0.22918320000000006,-0.8021411999999999,-1.0886202,-10.14708618,28.762491600000004,2.76165756
5.1,510,0.481,0.142,-0.857,0.0,-1.3750992,-1.2605076000000002,-10.1700045,28.7338437,2.73873924
5.11,511,0.483,0.14400000000000002,-0.858,0.0,-1.5469866,-1.2605076000000002,-10.17573408,28.71665496,2.72728008
5.12,512,0.486,0.14400000000000002,-0.863,0.0,-1.432395,-1.0886202,-10.18146366,28.69946622,2.7215505
5.13,513,0.484,0.146,-0.87,0.286479,-1.2032118,-0.9740286,-10.18146366,28.68227748,2.71009134
5.14,514,0.479,0.14800000000000002,-0.875,0.8594370000000001,-0.6875496,-1.0886202,-10.18146366,28.6765479,2.69863218
5.1499999999999995,515,0.472,0.151,-0.877,1.5469866,-0.572958,-1.2032118,-10.1986524,28.63071126,2.67571386
5.16,516,0.472,0.153,-0.8759999999999999,2.4064236,-0.572958,-1.2605076000000002,-10.17573408,28.62498168,2.6642547000000003
5.17,517,0.471,0.149,-0.871,3.151269,-1.0313244,-1.3178034,-10.15281576,28.61352252,2.65279554
5.18,518,0.475,0.147,-0.861,3.4950437999999995,-1.432395,-1.2605076000000002,-10.12416786,28.59633378,2.6356068
5.1899999999999995,519,0.478,0.145,-0.8540000000000001,3.6096354,-1.3750992,-1.2032118,-10.08979038,28.579145040000004,2.62414764
5.2,520,0.477,0.14400000000000002,-0.852,3.3231564,-1.2605076000000002,-0.9167328,-10.07260164,28.55622672,2.61268848
5.21,521,0.477,0.141,-0.856,2.9793816000000004,-0.9167328,-0.8594370000000001,-10.04968332,28.544767560000004,2.6069589
5.22,522,0.478,0.141,-0.861,2.8074942000000003,-0.6875496,-0.8021411999999999,-10.02103542,28.53903798,2.59549974
5.2299999999999995,523,0.48,0.142,-0.862,2.8074942000000003,-0.6875496,-0.6875496,-9.9981171,28.52757882,2.58977016
5.24,524,0.48,0.142,-0.8640000000000001,2.8074942000000003,-0.6302538000000001,-0.4583664000000001,-9.9694692,28.52184924,2.58404058
5.25,525,0.478,0.139,-0.8640000000000001,2.9220857999999996,-0.4583664000000001,-0.22918320000000006,-9.95228046,28.49893092000001,2.5783110000000002
5.26,526,0.477,0.135,-0.8640000000000001,2.8074942000000003,0.0,-0.057295800000000015,-9.92363256,28.49893092000001,2.5783110000000002
5.27,527,0.476,0.133,-0.863,2.7501984,0.4583664000000001,0.0,-9.89498466,28.5046605,2.5783110000000002
5.28,528,0.476,0.133,-0.86,2.578311,0.6875496,0.057295800000000015,-9.87206634,28.51039008,2.5783110000000002
5.29,529,0.474,0.136,-0.862,2.4637194,0.572958,0.0,-9.84341844,28.516119660000005,2.5783110000000002
5.3,530,0.475,0.135,-0.866,2.5210152000000003,0.4010706,-0.11459160000000003,-9.83195928,28.49893092000001,2.57258142
5.31,531,0.477,0.136,-0.8690000000000001,2.5210152000000003,-0.1718874,-0.3437748,-9.80331138,28.49893092000001,2.56685184
5.32,532,0.479,0.135,-0.867,2.578311,-0.8021411999999999,-0.572958,-9.78039306,28.48747176,2.5611222600000003
5.33,533,0.478,0.135,-0.862,2.6356068,-0.9167328,-0.572958,-9.75747474,28.48174218,2.55539268
5.34,534,0.478,0.133,-0.858,2.578311,-0.1718874,-0.4583664000000001,-9.73455642,28.4760126,2.5496631
5.35,535,0.479,0.133,-0.856,2.3491278,0.4010706,-0.286479,-9.72309726,28.47028302,2.54393352
5.36,536,0.478,0.131,-0.858,2.0626488000000003,0.6302538000000001,-0.3437748,-9.70590852,28.4760126,2.53820394
5.37,537,0.481,0.128,-0.863,1.8334656000000005,0.6875496,-0.4583664000000001,-9.68871978,28.48174218,2.52674478
5.38,538,0.483,0.13,-0.865,1.7188740000000002,0.286479,-0.6302538000000001,-9.67726062,28.48747176,2.5210152000000003
5.39,539,0.485,0.13699999999999998,-0.866,2.0053530000000004,0.0,-0.6875496,-9.66007188,28.48174218,2.51528562
5.3999999999999995,540,0.486,0.139,-0.866,2.3491278,-0.11459160000000003,-0.6302538000000001,-9.66007188,28.4760126,2.49809688
5.41,541,0.484,0.136,-0.863,2.291832,-0.22918320000000006,-0.572958,-9.63715356,28.47028302,2.4923673
5.42,542,0.484,0.132,-0.861,2.1772404,-0.22918320000000006,-0.572958,-9.61996482,28.47028302,2.48663772
5.43,543,0.483,0.13,-0.86,2.1199446,-0.22918320000000006,-0.4583664000000001,-9.60277608,28.46455344,2.48090814
5.4399999999999995,544,0.481,0.131,-0.86,1.9480572,-0.4010706,-0.5156622000000001,-9.57985776,28.458823859999995,2.47517856
5.45,545,0.48,0.132,-0.863,1.9480572,-0.4583664000000001,-0.4583664000000001,-9.57985776,28.44163512,2.4637194
5.46,546,0.481,0.134,-0.862,2.0626488000000003,-0.572958,-0.4583664000000001,-9.56266902,28.43590554,2.45798982
5.47,547,0.478,0.135,-0.862,2.291832,-0.7448454000000001,-0.4010706,-9.5397507,28.43017596,2.45226024
5.4799999999999995,548,0.474,0.133,-0.863,2.4064236,-0.8021411999999999,-0.4583664000000001,-9.51683238,28.4187168,2.44653066
5.49,549,0.476,0.133,-0.867,2.6356068,-0.8021411999999999,-0.572958,-9.49391406,28.41298722,2.44080108
5.5,550,0.477,0.13,-0.868,2.6929026,-1.0313244,-0.6875496,-9.47672532,28.390068900000006,2.4350715000000003
5.51,551,0.476,0.128,-0.867,2.6356068,-1.0313244,-0.8021411999999999,-9.453807,28.37860974,2.42361234
5.52,552,0.473,0.126,-0.863,2.5210152000000003,-1.432395,-0.8021411999999999,-9.43088868,28.361421000000004,2.41788276
5.53,553,0.472,0.126,-0.866,2.4637194,-1.7188740000000002,-0.9167328,-9.407970359999998,28.34423226,2.41215318
5.54,554,0.471,0.129,-0.867,2.3491278,-2.0053530000000004,-0.9167328,-9.39078162,28.32131394,2.40069402
5.55,555,0.469,0.133,-0.8690000000000001,2.5210152000000003,-2.5210152000000003,-0.9740286,-9.37359288,28.28120688000001,2.39496444
5.56,556,0.47,0.13,-0.8690000000000001,2.6356068,-2.578311,-0.9740286,-9.350674559999998,28.25828856,2.38350528
5.57,557,0.471,0.126,-0.8690000000000001,2.578311,-2.1772404,-0.8021411999999999,-9.32775624,28.23537024,2.3777757
5.58,558,0.472,0.125,-0.866,2.1772404,-1.4896908000000002,-0.6875496,-9.3105675,28.2181815,2.37204612
5.59,559,0.468,0.123,-0.863,1.7761698,-0.8594370000000001,-0.5156622000000001,-9.29337876,28.20672234,2.36631654
5.6,560,0.463,0.124,-0.862,1.432395,-0.4010706,-0.572958,-9.29337876,28.1608857,2.36058696
5.61,561,0.465,0.127,-0.86,1.2032118,-0.057295800000000015,-0.572958,-9.28764918,28.1608857,2.35485738
5.62,562,0.468,0.129,-0.8590000000000001,1.145916,-0.286479,-0.7448454000000001,-9.27619002,28.15515612,2.34339822
5.63,563,0.471,0.131,-0.861,1.3750992,-0.22918320000000006,-0.9167328,-9.26473086,28.14942654,2.33193906
5.64,564,0.477,0.13,-0.862,1.4896908000000002,-0.4010706,-0.9740286,-9.25900128,28.14369696,2.32620948
5.6499999999999995,565,0.478,0.128,-0.865,1.432395,-0.4010706,-0.9167328,-9.25900128,28.132237800000002,2.30902074
5.66,566,0.475,0.127,-0.87,1.5469866,0.0,-0.572958,-9.24754212,28.132237800000002,2.30329116
5.67,567,0.468,0.126,-0.8690000000000001,1.5469866,0.286479,-0.3437748,-9.23035338,28.132237800000002,2.29756158
5.68,568,0.467,0.127,-0.8690000000000001,1.5469866,0.6302538000000001,-0.286479,-9.21889422,28.13796738,2.2918320000000003
5.6899999999999995,569,0.47,0.127,-0.868,1.5469866,1.145916,-0.3437748,-9.20743506,28.14942654,2.28610242
5.7,570,0.473,0.126,-0.865,1.3178034,1.145916,-0.22918320000000006,-9.20743506,28.14942654,2.2746432600000004
5.71,571,0.471,0.126,-0.863,0.8021411999999999,0.8594370000000001,-0.286479,-9.20170548,28.15515612,2.26891368
5.72,572,0.471,0.126,-0.8590000000000001,0.8594370000000001,0.8021411999999999,-0.286479,-9.1959759,28.1608857,2.26891368
5.7299999999999995,573,0.472,0.123,-0.858,0.9167328,0.8021411999999999,-0.4010706,-9.19024632,28.17234486,2.25745452
5.74,574,0.477,0.119,-0.86,0.6875496,0.7448454000000001,-0.4583664000000001,-9.18451674,28.17807444,2.25172494
5.75,575,0.482,0.115,-0.86,0.286479,0.6875496,-0.5156622000000001,-9.167328,28.1895336,2.25172494
5.76,576,0.482,0.117,-0.862,0.0,0.286479,-0.6875496,-9.17305758,28.1895336,2.24599536
5.77,577,0.482,0.122,-0.862,-0.057295800000000015,0.0,-0.6302538000000001,-9.17305758,28.1895336,2.24026578
5.78,578,0.482,0.124,-0.8640000000000001,0.0,-0.057295800000000015,-0.4583664000000001,-9.17878716,28.1895336,2.2345362
5.79,579,0.479,0.122,-0.868,-0.22918320000000006,0.11459160000000003,-0.22918320000000006,-9.18451674,28.1895336,2.22880662
5.8,580,0.473,0.122,-0.873,-0.4583664000000001,0.3437748,-0.286479,-9.1959759,28.14369696,2.22880662
5.81,581,0.471,0.126,-0.872,-0.4010706,0.572958,-0.4583664000000001,-9.20170548,28.14369696,2.22307704
5.82,582,0.469,0.129,-0.8690000000000001,-0.286479,0.4583664000000001,-0.6302538000000001,-9.20743506,28.14942654,2.21161788
5.83,583,0.471,0.13,-0.868,0.0,0.057295800000000015,-0.6875496,-9.21316464,28.14942654,2.2058883
5.84,584,0.473,0.131,-0.8640000000000001,0.286479,-0.22918320000000006,-0.6302538000000001,-9.21316464,28.14942654,2.20015872
5.85,585,0.475,0.129,-0.861,0.3437748,-0.6302538000000001,-0.6875496,-9.24181254,28.12650822,2.18296998
5.86,586,0.475,0.127,-0.86,0.3437748,-0.7448454000000001,-0.6302538000000001,-9.23608296,28.11504906,2.1772404
5.87,587,0.477,0.126,-0.861,0.22918320000000006,-0.572958,-0.6302538000000001,-9.23608296,28.10931948,2.1657812400000003
5.88,588,0.476,0.127,-0.861,0.057295800000000015,-0.4583664000000001,-0.5156622000000001,-9.24181254,28.10358990000001,2.1657812400000003
5.89,589,0.472,0.127,-0.862,0.0,-0.4583664000000001,-0.4010706,-9.24181254,28.09786032,2.16005166
5.8999999999999995,590,0.472,0.127,-0.862,0.057295800000000015,0.0,-0.3437748,-9.30483792,28.02910536,2.13140376
5.91,591,0.47,0.126,-0.862,-0.057295800000000015,0.1718874,-0.286479,-9.3105675,28.02910536,2.13140376
5.92,592,0.469,0.126,-0.861,-0.286479,0.11459160000000003,-0.22918320000000006,-9.31629708,28.02910536,2.12567418
5.93,593,0.469,0.126,-0.858,-0.4010706,0.11459160000000003,-0.286479,-9.32202666,28.03483494,2.1199446
5.9399999999999995,594,0.467,0.126,-0.857,-0.572958,0.057295800000000015,-0.11459160000000003,-9.32775624,28.03483494,2.1199446
5.95,595,0.464,0.124,-0.858,-0.8021411999999999,-0.057295800000000015,0.0,-9.3392154,27.9889983,2.1199446
5.96,596,0.462,0.122,-0.861,-1.0886202,0.11459160000000003,0.0,-9.350674559999998,27.9889983,2.1199446
5.97,597,0.461,0.124,-0.868,-1.2605076000000002,0.3437748,0.0,-9.3678633,27.99472788,2.1199446
5.9799999999999995,598,0.464,0.126,-0.8690000000000001,-1.145916,0.3437748,-0.11459160000000003,-9.37932246,28.00045746,2.1199446
5.99,599,0.463,0.126,-0.8690000000000001,-0.9740286,0.22918320000000006,-0.22918320000000006,-9.39078162,28.00045746,2.11421502
6.0,600,0.465,0.126,-0.8690000000000001,-0.8594370000000001,0.057295800000000015,-0.3437748,-9.407970359999998,27.94889124,2.10848544
6.01,601,0.467,0.127,-0.868,-0.7448454000000001,0.057295800000000015,-0.4583664000000001,-9.41942952,27.94889124,2.10275586
6.02,602,0.472,0.128,-0.865,-0.8021411999999999,0.0,-0.5156622000000001,-9.43088868,27.94889124,2.09702628
6.03,603,0.477,0.127,-0.865,-1.0313244,0.0,-0.3437748,-9.44234784,27.94889124,2.09702628
6.04,604,0.475,0.126,-0.867,-1.2032118,0.22918320000000006,-0.1718874,-9.45953658,27.94889124,2.0912967
6.05,605,0.471,0.126,-0.865,-1.3178034,0.6302538000000001,0.0,-9.47672532,27.94316166,2.0912967
6.06,606,0.469,0.127,-0.866,-1.4896908000000002,0.9167328,-0.057295800000000015,-9.49391406,27.94889124,2.0912967
6.07,607,0.469,0.129,-0.867,-1.5469866,1.3178034,-0.1718874,-9.5111028,27.96607998,2.08556712
6.08,608,0.472,0.131,-0.868,-1.6042823999999998,1.2605076000000002,-0.1718874,-9.52829154,27.97753914,2.07983754
6.09,609,0.476,0.132,-0.867,-1.4896908000000002,1.0313244,-0.22918320000000006,-9.54548028,27.9889983,2.07983754
6.1,610,0.477,0.133,-0.8640000000000001,-1.432395,0.572958,-0.22918320000000006,-9.58558734,27.9889983,2.0626488000000003
6.11,611,0.476,0.133,-0.862,-1.2605076000000002,0.22918320000000006,-0.1718874,-9.5970465,27.9889983,2.0626488000000003
6.12,612,0.474,0.133,-0.866,-1.0886202,0.1718874,-0.286479,-9.61423524,27.99472788,2.05691922
6.13,613,0.473,0.132,-0.868,-0.9167328,0.3437748,-0.286479,-9.6256944,27.99472788,2.05691922
6.14,614,0.472,0.133,-0.867,-0.8594370000000001,0.286479,-0.4010706,-9.63715356,27.99472788,2.05118964
6.15,615,0.471,0.132,-0.865,-0.8594370000000001,0.0,-0.3437748,-9.67153104,27.9603504,2.03973048
6.16,616,0.47,0.131,-0.866,-0.8021411999999999,-0.1718874,-0.3437748,-9.67726062,27.9603504,2.0340008999999997
6.17,617,0.47,0.13,-0.868,-0.8021411999999999,-0.286479,-0.4010706,-9.68871978,27.954620819999995,2.02827132
6.18,618,0.469,0.13,-0.8640000000000001,-1.0313244,-0.4583664000000001,-0.4583664000000001,-9.70017894,27.94889124,2.02827132
6.1899999999999995,619,0.47,0.133,-0.865,-1.0886202,-0.3437748,-0.4010706,-9.71736768,27.94889124,2.02254174
6.2,620,0.469,0.133,-0.866,-1.145916,0.0,-0.286479,-9.740286,27.92024334000001,2.01681216
6.21,621,0.469,0.133,-0.8690000000000001,-1.0886202,0.0,-0.286479,-9.75747474,27.92024334000001,2.01108258
6.22,622,0.467,0.131,-0.8690000000000001,-0.8021411999999999,-0.057295800000000015,-0.286479,-9.76320432,27.92024334000001,2.005353
6.2299999999999995,623,0.466,0.131,-0.868,-0.6875496,-0.286479,-0.4010706,-9.77466348,27.91451376,2.005353
6.24,624,0.466,0.133,-0.868,-0.4583664000000001,-0.11459160000000003,-0.4010706,-9.78039306,27.91451376,1.99962342
6.25,625,0.469,0.134,-0.865,-0.3437748,-0.1718874,-0.4010706,-9.80904096,27.88013628,1.98816426
6.26,626,0.469,0.133,-0.863,-0.572958,-0.1718874,-0.4583664000000001,-9.82050012,27.8744067,1.98243468
6.27,627,0.471,0.131,-0.866,-0.6302538000000001,0.0,-0.3437748,-9.8262297,27.8744067,1.9767051
6.28,628,0.472,0.13,-0.866,-0.8021411999999999,0.1718874,-0.3437748,-9.83768886,27.8744067,1.97097552
6.29,629,0.471,0.132,-0.8690000000000001,-0.8021411999999999,0.286479,-0.3437748,-9.84914802,27.88013628,1.97097552
6.3,630,0.471,0.132,-0.8690000000000001,-0.8021411999999999,0.572958,-0.286479,-9.86633676,27.862947540000004,1.96524594
6.31,631,0.47,0.133,-0.868,-0.8021411999999999,0.5156622000000001,-0.286479,-9.87779592,27.86867712,1.9595163600000003
6.32,632,0.471,0.135,-0.867,-0.8021411999999999,0.4010706,-0.22918320000000006,-9.883525500000001,27.86867712,1.95378678
6.33,633,0.472,0.133,-0.866,-0.6302538000000001,0.22918320000000006,-0.3437748,-9.89498466,27.86867712,1.95378678
6.34,634,0.474,0.134,-0.865,-0.6875496,0.11459160000000003,-0.286479,-9.90071424,27.8744067,1.9480572000000005
6.35,635,0.475,0.135,-0.866,-0.6875496,0.0,-0.3437748,-9.93509172,27.85148838,1.93659804
6.36,636,0.472,0.134,-0.868,-0.572958,-0.057295800000000015,-0.286479,-9.9408213,27.85148838,1.93086846
6.37,637,0.472,0.134,-0.87,-0.6302538000000001,0.0,-0.3437748,-9.95228046,27.84575880000001,1.92513888
6.38,638,0.47,0.135,-0.87,-0.6302538000000001,0.057295800000000015,-0.4010706,-9.963739620000002,27.84575880000001,1.92513888
6.39,639,0.469,0.136,-0.87,-0.6302538000000001,0.0,-0.4583664000000001,-9.9694692,27.84575880000001,1.9194093000000003
6.4,640,0.47,0.13699999999999998,-0.867,-0.6302538000000001,0.11459160000000003,-0.4010706,-9.99238752,27.82857006,1.90795014
6.41,641,0.47,0.138,-0.865,-0.5156622000000001,0.057295800000000015,-0.057295800000000015,-9.9981171,27.82857006,1.90795014
6.42,642,0.466,0.138,-0.863,-0.6875496,0.0,0.0,-10.00384668,27.83429964,1.90795014
6.43,643,0.46,0.13699999999999998,-0.861,-0.572958,0.4583664000000001,0.0,-10.00957626,27.83429964,1.90795014
6.4399999999999995,644,0.461,0.134,-0.861,-0.5156622000000001,0.8021411999999999,0.0,-10.02103542,27.84575880000001,1.90222056
6.45,645,0.467,0.129,-0.863,-0.6302538000000001,0.8021411999999999,-0.11459160000000003,-10.01530584,27.84575880000001,1.90795014
6.46,646,0.472,0.126,-0.863,-0.9167328,0.5156622000000001,-0.1718874,-10.026765,27.84575880000001,1.90222056
6.47,647,0.471,0.127,-0.865,-1.2605076000000002,0.0,-0.4583664000000001,-10.04395374,27.84575880000001,1.89649098
6.4799999999999995,648,0.469,0.134,-0.865,-1.2032118,-0.057295800000000015,-0.6302538000000001,-10.06114248,27.84575880000001,1.8907613999999997
6.49,649,0.469,0.13699999999999998,-0.866,-0.22918320000000006,0.0,-0.286479,-10.06114248,27.84575880000001,1.88503182
6.5,650,0.47,0.13699999999999998,-0.8690000000000001,-0.286479,0.1718874,-0.11459160000000003,-10.07833122,27.805651739999995,1.88503182
6.51,651,0.468,0.138,-0.873,-0.3437748,0.4010706,0.0,-10.0840608,27.805651739999995,1.87930224
6.52,652,0.467,0.139,-0.8740000000000001,-0.1718874,0.5156622000000001,-0.057295800000000015,-10.08979038,27.81138132,1.87930224
6.53,653,0.466,0.141,-0.872,0.11459160000000003,0.572958,-0.11459160000000003,-10.08979038,27.8171109,1.87930224
6.54,654,0.465,0.14400000000000002,-0.87,0.286479,0.057295800000000015,-0.11459160000000003,-10.0840608,27.8171109,1.87357266
6.55,655,0.462,0.14300000000000002,-0.8690000000000001,0.6302538000000001,-0.4010706,-0.286479,-10.09551996,27.78273342,1.86784308
6.56,656,0.461,0.139,-0.8690000000000001,0.7448454000000001,-0.5156622000000001,-0.4583664000000001,-10.08979038,27.77700384,1.8621135
6.57,657,0.465,0.138,-0.865,0.6302538000000001,-0.286479,-0.4010706,-10.08979038,27.77127426,1.85638392
6.58,658,0.47,0.14,-0.8640000000000001,0.7448454000000001,-0.286479,-0.4583664000000001,-10.0840608,27.76554468,1.85638392
6.59,659,0.473,0.141,-0.8640000000000001,0.8594370000000001,-0.11459160000000003,-0.3437748,-10.07260164,27.76554468,1.85065434
6.6,660,0.476,0.14,-0.867,1.0886202,-0.11459160000000003,-0.1718874,-10.0840608,27.7598151,1.83919518
6.61,661,0.476,0.13699999999999998,-0.868,1.145916,-0.3437748,0.0,-10.07260164,27.7598151,1.83919518
6.62,662,0.475,0.135,-0.865,0.9740286,-0.6302538000000001,0.0,-10.06114248,27.75408552,1.83919518
6.63,663,0.471,0.132,-0.86,0.4010706,-0.6302538000000001,0.057295800000000015,-10.0554129,27.74262636,1.84492476
6.64,664,0.466,0.133,-0.8590000000000001,0.0,-0.6302538000000001,0.0,-10.0554129,27.73689678,1.84492476
6.65,665,0.468,0.138,-0.862,-0.11459160000000003,-0.4010706,-0.057295800000000015,-10.10697912,27.7025193,1.82200644
6.66,666,0.472,0.141,-0.866,-0.22918320000000006,-0.4010706,0.0,-10.10697912,27.69678972,1.82200644
6.67,667,0.473,0.14,-0.87,-0.286479,-0.6875496,0.11459160000000003,-10.1127087,27.69106014,1.82773602
6.68,668,0.473,0.138,-0.871,-0.057295800000000015,-0.7448454000000001,0.11459160000000003,-10.1127087,27.68533056,1.82773602
6.6899999999999995,669,0.471,0.138,-0.875,0.11459160000000003,-0.6302538000000001,0.11459160000000003,-10.10697912,27.679600980000004,1.8334656000000003
6.7,670,0.468,0.138,-0.875,0.22918320000000006,-0.4583664000000001,0.1718874,-10.11843828,27.62803476,1.8334656000000003
6.71,671,0.468,0.136,-0.871,0.5156622000000001,-0.286479,0.11459160000000003,-10.1127087,27.62230518,1.8334656000000003
6.72,672,0.468,0.135,-0.8690000000000001,0.5156622000000001,-0.286479,0.0,-10.10697912,27.62230518,1.8334656000000003
6.7299999999999995,673,0.466,0.135,-0.8640000000000001,0.4583664000000001,-0.3437748,0.0,-10.10124954,27.6165756,1.8334656000000003
6.74,674,0.464,0.138,-0.862,0.4583664000000001,-0.7448454000000001,-0.1718874,-10.09551996,27.610846020000004,1.8334656000000003
