TimeStamp(s),FrameCounter,AccX,AccY,AccZ,GyrX,GyrY,GyrZ,EulerX,EulerY,EulerZ
0.01,1,-0.024,-1.012,0.055,-1.6615782,3.0366774,-0.11459160000000004,92.1029985,-1.31207382,-39.24189342
0.02,2,-0.021,-1.014,0.051,-1.7761698000000001,2.6356068,0.0,92.08580976,-1.3178034,-39.2189751
0.03,3,-0.019,-1.013,0.05,-1.7188740000000002,2.5210152000000003,0.0,92.06862102,-1.3178034,-39.19032720000001
0.04,4,-0.023,-1.014,0.05,-1.4896908000000002,2.5210152000000003,-0.057295800000000015,92.05143228,-1.3178034,-39.16740888
0.05,5,-0.027999999999999997,-1.011,0.048,-1.2605076000000002,2.6929026,-0.057295800000000015,92.01132522,-1.3178034,-39.13876098
0.060000000000000005,6,-0.028999999999999998,-1.0090000000000001,0.05,-0.9167328000000001,2.86479,0.1718874,91.99986606,-1.32353298,-39.11011308
0.06999999999999999,7,-0.027999999999999997,-1.006,0.053,-0.8594370000000001,3.3231564,0.1718874,91.99413648,-1.32926256,-39.08146518
0.08,8,-0.027999999999999997,-1.005,0.053,-1.0313244000000001,3.6669312000000014,0.0,91.98267732,-1.32926256,-39.04135812
0.09,9,-0.027000000000000003,-1.003,0.05,-1.145916,3.6096353999999997,-0.286479,91.96548857999998,-1.32926256,-39.00698064
0.09999999999999999,10,-0.026000000000000002,-1.006,0.048,-1.2032118,3.4950437999999995,-0.572958,91.93684068,-1.32353298,-38.97260316
0.11,11,-0.026000000000000002,-1.0090000000000001,0.047,-1.0886202,3.6096353999999997,-0.6302538000000001,91.92538152,-1.3178034,-38.93822568
0.12,12,-0.022000000000000002,-1.0070000000000001,0.05,-1.0886202,3.6096353999999997,-0.5156622000000001,91.91392236,-1.31207382,-38.89811862
0.13,13,-0.018000000000000002,-1.006,0.052000000000000005,-1.0886202,3.5523396000000003,-0.8594370000000001,91.9024632,-1.30634424,-38.86374114
0.14,14,-0.018000000000000002,-1.0090000000000001,0.054000000000000006,-1.145916,3.5523396000000003,-1.3750992,91.88527446,-1.29488508,-38.82936366
0.15000000000000002,15,-0.019,-1.01,0.05,-1.432395,3.5523396000000003,-1.7188740000000002,91.86235614,-1.27196676,-38.7892566
0.16,16,-0.019,-1.013,0.051,-1.4896908000000002,3.3231564,-1.8907614,91.85089698,-1.25477802,-38.75487912000001
0.17,17,-0.02,-1.011,0.054000000000000006,-1.0886202,3.1512689999999997,-1.6042823999999998,91.83370824,-1.23758928,-38.72623122
0.18000000000000002,18,-0.017,-1.01,0.057,-0.8021411999999999,3.0366774,-1.2605076000000002,91.82797866,-1.22613012,-38.69185374
0.19,19,-0.013999999999999999,-1.008,0.057,-0.9740286,3.1512689999999997,-0.8021411999999999,91.8165195,-1.22040054,-38.66320584
0.2,20,-0.011000000000000001,-1.011,0.057,-1.2605076000000002,3.3231564,-0.4583664000000001,91.81078992,-1.19175264,-38.62882836
0.21000000000000002,21,-0.012,-1.011,0.057999999999999996,-2.1772404,3.8388186,-0.057295800000000015,91.78214202,-1.19175264,-38.588721299999996
0.22,22,-0.015,-1.012,0.059000000000000004,-2.5210152000000003,4.1825934,0.40107059999999994,91.7592237,-1.2032117999999998,-38.54861424
0.23,23,-0.016,-1.014,0.057,-2.5210152000000003,4.1252976000000015,0.6302538000000001,91.7305758,-1.20894138,-38.50850718
0.24000000000000002,24,-0.013999999999999999,-1.012,0.051,-2.6356068,4.1252976000000015,0.4583664000000001,91.70192790000002,-1.21467096,-38.46840012
0.25,25,-0.011000000000000001,-1.0090000000000001,0.043,-2.9793816000000004,3.8388186,0.11459160000000004,91.65609126,-1.2032117999999998,-38.42829306
0.26,26,-0.013999999999999999,-1.008,0.039,-3.1512689999999997,3.380452200000001,-0.11459160000000004,91.62171378,-1.2032117999999998,-38.39391558
0.27,27,-0.017,-1.006,0.038,-3.2085647999999996,3.0366774,-0.1718874,91.5873363,-1.2032117999999998,-38.36526768
0.28,28,-0.018000000000000002,-1.0070000000000001,0.038,-3.3231564,2.8074942000000003,0.0,91.55295882,-1.2032117999999998,-38.33661978
0.29000000000000004,29,-0.017,-1.004,0.039,-3.5523396000000003,2.7501984,0.1718874,91.51858134,-1.20894138,-38.30797188
0.3,30,-0.015,-0.9990000000000001,0.035,-3.8388186,2.86479,0.11459160000000004,91.45555596,-1.19748222,-38.27932398
0.31,31,-0.013999999999999999,-0.9990000000000001,0.035,-4.010706000000001,3.0366774,-0.057295800000000015,91.4154489,-1.19748222,-38.25067608
0.32,32,-0.013000000000000001,-1.001,0.036000000000000004,-4.0680017999999984,3.2085647999999996,-0.286479,91.37534184,-1.19748222,-38.2162986
0.33,33,-0.013000000000000001,-1.006,0.037000000000000005,-4.0680017999999984,3.2085647999999996,-0.572958,91.3295052,-1.19175264,-38.187650700000006
0.34,34,-0.013000000000000001,-1.008,0.038,-3.8961144,2.9793816000000004,-0.6875496,91.28939814,-1.18602306,-38.159002799999996
0.35000000000000003,35,-0.012,-1.006,0.037000000000000005,-3.6669312000000014,2.2345362,-0.5156622000000001,91.2435615,-1.16310474,-38.1303549
0.36000000000000004,36,-0.011000000000000001,-1.002,0.040999999999999995,-3.4950437999999995,1.7188740000000002,-0.3437748,91.20345444,-1.1573751600000002,-38.11316616000001
0.37,37,-0.012,-1.004,0.043,-3.2658606,1.3178034,-0.2291832000000001,91.16907696,-1.1573751600000002,-38.10170700000001
0.38,38,-0.013000000000000001,-1.008,0.042,-3.2085647999999996,1.3178034,-0.057295800000000015,91.14042906,-1.1573751600000002,-38.09024784
0.39,39,-0.019,-1.011,0.043,-2.9793816000000004,1.432395,-0.11459160000000004,91.10605158,-1.1573751600000002,-38.0730591
0.4,40,-0.021,-1.0090000000000001,0.043,-3.0366774,1.5469866,-0.11459160000000004,91.08313326,-1.15164558,-38.06159994
0.41000000000000003,41,-0.024,-1.006,0.042,-3.0939732,1.3178034,-0.11459160000000004,91.04875578,-1.15164558,-38.0444112
0.42000000000000004,42,-0.026000000000000002,-1.002,0.042,-3.2085647999999996,1.3750992,-0.1718874,91.01437829999999,-1.15164558,-38.03295204
0.43,43,-0.025,-1.004,0.042,-3.3231564,1.8907614,-0.3437748,90.98000082,-1.15164558,-38.0157633
0.44,44,-0.019,-1.0090000000000001,0.040999999999999995,-3.5523396000000003,2.8074942000000003,-0.6302538000000001,90.94562334,-1.1459160000000002,-37.9871154
0.45,45,-0.013999999999999999,-1.013,0.042,-3.7815228,3.0939732,-0.8594370000000001,90.91124586,-1.12299768,-37.95273792
0.46,46,-0.011000000000000001,-1.008,0.043,-3.3231564,2.0626488000000003,-0.6302538000000001,90.87686838,-1.1172681,-37.93554918
0.47000000000000003,47,-0.008,-1.004,0.04,-3.2085647999999996,0.572958,-0.2291832000000001,90.84249090000002,-1.11153852,-37.9298196
0.48000000000000004,48,-0.013000000000000001,-1.005,0.038,-3.380452200000001,-0.286479,0.11459160000000004,90.80811342,-1.1172681,-37.9298196
0.49,49,-0.018000000000000002,-1.008,0.035,-3.6096353999999997,-0.3437748,0.3437748,90.77373594,-1.1172681,-37.93554918
0.5,50,-0.022000000000000002,-1.0070000000000001,0.027000000000000003,-3.6669312000000014,0.11459160000000004,0.1718874,90.70498098,-1.1172681,-37.93554918
0.51,51,-0.026000000000000002,-1.003,0.02,-3.5523396000000003,0.4583664000000001,0.0,90.6706035,-1.1172681,-37.9298196
0.52,52,-0.027999999999999997,-0.9940000000000001,0.019,-3.0366774,0.6302538000000001,-0.286479,90.6419556,-1.1172681,-37.92409002
0.53,53,-0.026000000000000002,-0.992,0.022000000000000002,-2.4637194,0.8594370000000001,-0.2291832000000001,90.61330770000001,-1.11153852,-37.91836044
0.54,54,-0.025,-0.993,0.025,-2.291832,0.4583664000000001,-0.11459160000000004,90.59038938,-1.11153852,-37.91263086
0.55,55,-0.026000000000000002,-0.997,0.028999999999999998,-2.4064236,-0.11459160000000004,0.286479,90.56174148,-1.12299768,-37.91263086
0.56,56,-0.03,-1.001,0.034,-2.291832,-0.7448454000000001,0.572958,90.53882316,-1.12872726,-37.92409002
0.5700000000000001,57,-0.033,-1.0090000000000001,0.039,-2.1772404,-0.7448454000000001,0.5156622000000001,90.51590484,-1.13445684,-37.9298196
0.5800000000000001,58,-0.033,-1.013,0.049,-2.1199446,-0.2291832000000001,0.1718874,90.49298652,-1.13445684,-37.93554918
0.59,59,-0.035,-1.014,0.051,-2.291832,0.286479,0.057295800000000015,90.4700682,-1.14018642,-37.9298196
0.6,60,-0.038,-1.0190000000000001,0.05,-2.6929026,0.572958,0.286479,90.48725694,-1.1745639,-37.9298196
0.61,61,-0.044000000000000004,-1.025,0.053,-3.2085647999999996,0.9167328000000001,0.7448454000000001,90.45287946,-1.18029348,-37.91836044
0.62,62,-0.05,-1.036,0.057999999999999996,-4.1252976000000015,1.9480572,1.145916,90.41277240000001,-1.19748222,-37.901171700000006
0.63,63,-0.047,-1.0390000000000001,0.053,-4.8701430000000006,2.8074942000000003,1.2032118,90.36120618,-1.20894138,-37.8725238
0.64,64,-0.043,-1.041,0.053,-5.2712136,3.4377480000000005,0.9167328000000001,90.30391038,-1.22040054,-37.83814632
0.65,65,-0.039,-1.0390000000000001,0.053,-5.6722842,3.6096353999999997,0.6875496,90.2695329,-1.23758928,-37.80376884
0.66,66,-0.042,-1.03,0.057,-5.9014674000000005,2.86479,0.572958,90.2122371,-1.24904844,-37.77512094
0.67,67,-0.045,-1.026,0.07,-6.0733548,2.4637194,0.5156622000000001,90.14921172,-1.25477802,-37.75220262000001
0.68,68,-0.052000000000000005,-1.03,0.08800000000000001,-6.5317212,2.9793816000000004,0.572958,90.08045676,-1.2605076000000002,-37.72355472
0.6900000000000001,69,-0.055,-1.032,0.084,-8.136003599999999,3.1512689999999997,0.9167328000000001,89.99451306,-1.27196676,-37.69490682
0.7000000000000001,70,-0.055999999999999994,-1.026,0.073,-9.6256944,2.5210152000000003,0.9167328000000001,89.9257581,-1.30061466,-37.67198850000001
0.7100000000000001,71,-0.054000000000000006,-1.021,0.065,-10.828906199999999,1.7188740000000002,0.5156622000000001,89.81689608,-1.30634424,-37.65479976
0.72,72,-0.048,-1.014,0.053,-12.605075999999999,1.7188740000000002,-0.286479,89.69084532,-1.30634424,-37.63761102
0.73,73,-0.043,-1.008,0.033,-13.9228794,1.2032118,-1.2032118,89.54760582,-1.29488508,-37.63188144
0.74,74,-0.04,-0.992,0.023,-14.438541599999999,-0.057295800000000015,-1.4896908000000002,89.39863674,-1.27769634,-37.63188144
0.75,75,-0.037000000000000005,-0.976,0.02,-14.32395,-1.0313244000000001,-1.3750992,89.26112682,-1.27196676,-37.6433406
0.76,76,-0.037000000000000005,-0.968,0.024,-13.464512999999998,-1.6042823999999998,-1.2032118,89.12361690000002,-1.2605076000000002,-37.66052934
0.77,77,-0.042,-0.9670000000000001,0.031,-12.0894138,-1.4896908000000002,-0.6875496,89.00329572000004,-1.25477802,-37.67771808
0.78,78,-0.049,-0.971,0.034,-10.828906199999999,-1.3178034,-0.2291832000000001,88.89443370000002,-1.24904844,-37.69490682
0.79,79,-0.057,-0.98,0.037000000000000005,-10.2559482,-1.3178034,0.0,88.79130126,-1.25477802,-37.70636598
0.8,80,-0.061,-0.992,0.038,-10.5424272,-0.9740286,-0.057295800000000015,88.71108714,-1.27769634,-37.72355472
0.81,81,-0.055999999999999994,-0.998,0.033,-11.3445684,-1.0313244000000001,-0.1718874,88.59649553999998,-1.27769634,-37.73501388
0.8200000000000001,82,-0.048,-1.0070000000000001,0.025,-12.2040054,-1.5469866,-0.11459160000000004,88.47044478000002,-1.27769634,-37.75220262000001
0.8300000000000001,83,-0.039,-1.015,0.019,-12.891555,-2.5210152000000003,-0.057295800000000015,88.33866443999996,-1.27769634,-37.77512094
0.8400000000000001,84,-0.03,-1.012,0.019,-13.5791046,-3.4950437999999995,-0.40107059999999994,88.2068841,-1.27196676,-37.81522800000001
0.85,85,-0.031,-1.01,0.02,-14.5531332,-4.3544808,-0.6875496,88.07510376,-1.27196676,-37.86106464
0.86,86,-0.032,-1.011,0.025,-15.011499599999999,-5.443101,-0.6302538000000001,87.92040510000002,-1.26623718,-37.91263086
0.87,87,-0.039,-1.015,0.028999999999999998,-15.297978599999999,-5.9014674000000005,-0.5156622000000001,87.76570644,-1.2605076000000002,-37.97565624
0.88,88,-0.049,-1.015,0.034,-15.9855282,-6.3025379999999975,-0.3437748,87.6052782,-1.2605076000000002,-38.03868162
0.89,89,-0.055999999999999994,-1.0090000000000001,0.03,-17.0168526,-6.589017,-0.6875496,87.43912037999998,-1.25477802,-38.10743658
0.9,90,-0.062,-1.005,0.026000000000000002,-18.162768600000003,-6.875496000000001,-1.2032118,87.27296256,-1.2605076000000002,-38.18192112
0.91,91,-0.068,-1.0090000000000001,0.024,-19.136797199999997,-6.875496000000001,-1.6615782,87.07815683999998,-1.24331886,-38.25067608
0.92,92,-0.065,-1.015,0.02,-20.2254174,-6.5317212,-1.7188740000000002,86.87762153999998,-1.2318597,-38.31943104
0.93,93,-0.055,-1.02,0.013000000000000001,-21.2567418,-6.3598338,-1.8334656000000005,86.6598975,-1.21467096,-38.38245642
0.9400000000000001,94,-0.047,-1.018,0.006999999999999999,-21.142150199999996,-6.9327918,-1.8907614,86.44790304,-1.2032117999999998,-38.45694096
0.9500000000000001,95,-0.044000000000000004,-1.008,0.012,-20.2254174,-7.734933000000002,-1.7188740000000002,86.26455648,-1.19175264,-38.53715508000001
0.9600000000000001,96,-0.045,-0.993,0.019,-19.194093,-8.479778399999999,-1.7761698000000001,86.07548034,-1.18029348,-38.62309878
0.97,97,-0.049,-0.98,0.02,-18.6784308,-8.7089616,-2.0626488000000003,85.8864042,-1.1688343199999998,-38.71477206
0.98,98,-0.05,-0.9740000000000001,0.024,-18.162768600000003,-8.880849000000003,-2.5210152000000003,85.70305764,-1.1459160000000002,-38.80644534
0.99,99,-0.05,-0.9740000000000001,0.023,-17.6471064,-9.224623800000002,-2.3491277999999998,85.52544065999999,-1.12872726,-38.9038482
1.0,100,-0.049,-0.983,0.026000000000000002,-17.18874,-10.084060800000001,-1.9480572,85.38220116,-1.12299768,-39.00698064
1.01,101,-0.053,-1.0,0.025,-16.959556799999998,-11.0580894,-1.4896908000000002,85.21604334,-1.1172681,-39.12157224
1.02,102,-0.061,-1.013,0.018000000000000002,-16.7876694,-11.2299768,-1.2605076000000002,85.04988552,-1.11153852,-39.23043426
1.03,103,-0.064,-1.015,0.016,-16.902261,-10.313244000000001,-1.6615782,84.87799812,-1.10580894,-39.33929628
1.04,104,-0.062,-1.012,0.011000000000000001,-17.589810600000003,-8.651665800000002,-2.2345362,84.70611072,-1.0886202,-39.42523998
1.05,105,-0.062,-1.01,0.005,-18.3919518,-7.5057497999999985,-2.6929026,84.54568248000002,-1.08289062,-39.5054541
1.06,106,-0.061,-1.002,0.005,-18.506543399999998,-7.0473834,-2.86479,84.35660634000001,-1.0599723,-39.57993864
1.07,107,-0.057,-0.99,0.006999999999999999,-18.9649098,-6.3025379999999975,-3.2085647999999996,84.1675302,-1.0313244000000001,-39.6486936
1.08,108,-0.046,-0.981,0.001,-20.7410796,-4.6409598,-3.2658606,83.95553574,-1.00840608,-39.70025982
1.09,109,-0.028999999999999998,-0.978,-0.005,-22.4026578,-2.2345362,-2.4064236,83.73208212,-0.98548776,-39.72890772
1.1,110,-0.006,-0.973,-0.019,-23.605869600000002,0.11459160000000004,-0.6875496,83.51435808,-0.9740286,-39.72890772
1.11,111,0.026000000000000002,-0.9440000000000001,-0.021,-24.8663772,2.8074942000000003,0.8594370000000001,83.26225656,-0.97975818,-39.7059894
1.12,112,0.064,-0.903,-0.018000000000000002,-25.78311,6.130650599999999,1.9480572,82.99869588,-0.9969469199999998,-39.64296402
1.1300000000000001,113,0.098,-0.8740000000000001,-0.019,-28.2468294,8.021412000000002,3.2085647999999996,82.7064873,-1.0255948199999998,-39.5627499
1.1400000000000001,114,0.126,-0.863,-0.011000000000000001,-32.4294228,7.906820400000001,4.9847346,82.37417166,-1.06570188,-39.48253578
1.1500000000000001,115,0.127,-0.882,-0.016,-37.013086799999996,6.990087599999999,7.2765666,82.01320812,-1.11153852,-39.408051240000006
1.1600000000000001,116,0.1,-0.924,-0.03,-41.252976000000004,6.0733548,9.2819196,81.5892192,-1.19748222,-39.33929628
1.17,117,0.07200000000000001,-0.987,-0.045,-43.029145799999995,6.3598338,9.682990199999999,81.15377112,-1.29488508,-39.26481174
1.18,118,0.027000000000000003,-1.051,-0.043,-40.10706,8.021412000000002,7.734933000000002,80.74124136,-1.36364004,-39.17886804
1.19,119,-0.004,-1.1,-0.01,-34.4347758,9.7975818,4.8701430000000006,80.3860074,-1.39801752,-39.08146518
1.2,120,-0.022000000000000002,-1.1420000000000001,0.05,-28.934378999999996,11.1153852,1.6615782,80.12817629999998,-1.4037471000000001,-38.97260316
1.21,121,-0.040999999999999995,-1.198,0.10099999999999999,-27.788463,11.6310474,-1.4896908000000002,79.84169729999998,-1.3750992,-38.86374114
1.22,122,-0.085,-1.2329999999999999,0.102,-30.7678446,14.1520626,-4.7555514,79.52084082,-1.30634424,-38.73769038
1.23,123,-0.126,-1.204,0.063,-34.7212548,17.475219,-7.7922288,79.16560686,-1.20894138,-38.58299172
1.24,124,-0.141,-1.138,0.039,-38.5600734,20.05353,-11.401864199999999,78.77026584,-1.07143146,-38.41110432
1.25,125,-0.131,-1.095,0.042,-41.9978214,24.522602399999997,-14.610429000000002,78.35773608,-0.89954406,-38.20483944
1.26,126,-0.11800000000000001,-1.069,0.038,-43.3729206,29.2781538,-17.7044022,77.91082884,-0.68182002,-37.96419708000001
1.27,127,-0.10300000000000001,-1.048,0.040999999999999995,-44.4615408,32.4867186,-20.912967000000002,77.45246244,-0.42398892,-37.69490682
1.28,128,-0.076,-1.023,0.062,-46.466893799999994,32.945085,-24.4080108,76.97117771999999,-0.12605075999999998,-37.43134614
1.29,129,-0.031,-0.983,0.076,-48.6441342,33.4607472,-26.814434400000003,76.47270426,0.18907614,-37.17351504
1.3,130,0.006,-0.9520000000000001,0.07,-50.133825,33.518043,-27.6738714,75.98568996,0.52139178,-36.91568394
1.31,131,0.035,-0.9440000000000001,0.044000000000000004,-51.279740999999994,31.6845774,-27.6165756,75.46429817999999,0.8537074199999999,-36.68650074
1.32,132,0.053,-0.94,0.013000000000000001,-51.279740999999994,30.194886600000004,-27.7311672,74.9429064,1.18029348,-36.46877670000001
1.33,133,0.057999999999999996,-0.9520000000000001,-0.012,-50.76407879999999,29.793815999999996,-27.6738714,74.42724419999998,1.51260912,-36.25678224
1.34,134,0.032,-0.948,0.0,-49.9619376,28.3041252,-26.5279554,73.92304116,1.82773602,-36.06197652
1.35,135,0.026000000000000002,-0.9390000000000001,0.02,-46.8679644,29.5646328,-25.382039399999996,73.47613392,2.14286292,-35.84998205999999
1.36,136,0.025,-0.956,0.016,-44.34694920000001,32.4867186,-25.210151999999997,73.02922668,2.45798982,-35.61506928
1.37,137,0.034,-0.9990000000000001,0.018000000000000002,-44.175061799999995,34.091001,-25.55392680000001,72.58804902,2.79030546,-35.36869734
1.3800000000000001,138,0.057,-1.0590000000000002,0.024,-43.4302164,34.950438,-25.7258142,72.15260094,3.1226211000000004,-35.11659582
1.3900000000000001,139,0.094,-1.122,0.02,-42.2270046,33.2888598,-25.7258142,71.7343416,3.45493674,-34.88168304
1.4000000000000001,140,0.11599999999999999,-1.1740000000000002,0.017,-39.1330314,28.132237800000002,-26.41336380000001,71.37337806000002,3.7815228,-34.70406606
1.4100000000000001,141,0.11900000000000001,-1.203,0.002,-35.5806918,23.5485738,-27.1582092,71.0181441,4.102379279999999,-34.56655614
1.42,142,0.15,-1.213,-0.038,-33.2888598,23.4339822,-27.6165756,70.68582846,4.42896534,-34.440505380000005
1.43,143,0.18100000000000002,-1.227,-0.027999999999999997,-30.882436199999997,23.7204612,-26.356068,70.37643114,4.74409224,-34.30299546
1.44,144,0.19399999999999998,-1.192,-0.033,-30.7105488,23.14750320000001,-22.6891368,70.07276340000001,5.02484166,-34.16548554000001
1.45,145,0.196,-1.141,-0.044000000000000004,-30.4240698,21.4286292,-17.761698000000006,69.80920272,5.2654840200000015,-34.02224604
1.46,146,0.166,-1.104,-0.042,-30.7678446,18.793022399999998,-12.0894138,69.50553498000001,5.43737142,-33.8904657
1.47,147,0.134,-1.055,-0.040999999999999995,-31.51269000000001,16.4438946,-6.0160589999999985,69.19613766,5.5405038599999985,-33.75868536
1.48,148,0.122,-1.0,-0.04,-31.51269000000001,14.4958374,-0.4583664000000001,68.88674033999999,5.59207008,-33.626905019999995
1.49,149,0.136,-0.9159999999999999,-0.098,-30.882436199999997,11.1153852,5.2139178,68.58880218,5.574881339999999,-33.506583840000005
1.5,150,0.16899999999999998,-0.8109999999999999,-0.154,-28.4760126,4.5263682,8.7089616,68.3252415,5.5290447,-33.432099300000004
1.51,151,0.19899999999999998,-0.6970000000000001,-0.153,-25.2674478,-3.8388186,11.0007936,68.0674104,5.40872352,-33.432099300000004
1.52,152,0.201,-0.595,-0.09699999999999999,-26.7571386,-11.401864199999999,11.401864199999999,67.79239056,5.25975444,-33.49512468
1.53,153,0.22399999999999998,-0.529,-0.111,-33.002380800000005,-18.621135,11.2872726,67.44861576,5.08786704,-33.626905019999995
1.54,154,0.249,-0.371,-0.256,-32.544014399999995,-34.4347758,11.802934800000001,67.09911138,4.85295426,-33.901924859999994
1.55,155,0.192,-0.251,-0.294,-11.6310474,-59.7595194,7.8495246,66.93295356,4.57220484,-34.429046220000004
1.56,156,0.042,-0.285,-0.11599999999999999,-7.5630456000000015,-64.8015498,-3.0939732,66.81836196,4.36593996,-35.03638170000001
1.57,157,-0.032,-0.382,-0.28300000000000003,-12.776963400000001,-40.966497,-17.6471064,66.6636633,4.37739912,-35.48901852
1.58,158,-0.086,-0.534,-0.321,-11.45916,-24.1788276,-26.41336380000001,66.52042379999999,4.5263682,-35.81560458
1.59,159,-0.08900000000000001,-0.684,-0.278,-12.0894138,-10.828906199999999,-24.7517856,66.38291388,4.70971476,-36.01041030000001
1.6,160,-0.06,-0.738,-0.315,-12.2040054,-12.4904844,-13.8655836,66.24540396,4.76128098,-36.18229770000001
1.61,161,-0.061,-0.83,-0.218,-7.3911582,-24.064236,-6.9327918,66.15373068,4.73836266,-36.43439922
1.62,162,-0.017,-1.177,-0.17800000000000002,-8.9381448,-22.5745452,-8.136003599999999,66.04486865999999,4.7269035000000015,-36.67504158
1.6300000000000001,163,0.055,-1.643,-0.254,-9.396511199999999,-17.5325148,-10.5424272,65.93600663999999,4.7555514,-36.88130646000001
1.6400000000000001,164,0.087,-2.012,-0.203,-0.8594370000000001,-17.761698000000006,-7.3911582,65.91308832,4.7555514,-37.0703826
1.6500000000000001,165,0.128,-2.174,-0.141,10.4851314,-16.157415599999997,-2.4064236,66.01049118,4.71544434,-37.23081084
1.6600000000000001,166,0.259,-2.162,-0.18100000000000002,17.18874,-18.621135,-1.6042823999999998,66.17664900000001,4.66387812,-37.40842782
1.6700000000000002,167,0.405,-2.1790000000000003,-0.16399999999999998,21.829699800000004,-28.361421000000004,-1.7188740000000002,66.37718430000001,4.57793442,-37.67198850000001
1.68,168,0.48200000000000004,-2.263,-0.124,23.663165399999997,-41.4248634,1.0313244000000001,66.59490833999999,4.41750618,-38.05014078
1.69,169,0.519,-2.23,-0.099,22.345361999999998,-56.264475600000004,4.9274388,66.78971406,4.16540466,-38.54288466000001
1.7,170,0.461,-2.116,-0.086,21.600516600000002,-74.0834694,8.880849000000003,66.97879019999999,3.82162986,-39.19032720000001
1.71,171,0.364,-1.984,-0.038,21.199446,-87.8917572,13.5791046,67.16213676,3.38618178,-39.94663176
1.72,172,0.249,-1.8230000000000002,-0.036000000000000004,21.829699800000004,-98.1477054,22.4026578,67.35121290000001,2.83041252,-40.76596170000001
1.73,173,0.083,-1.662,-0.128,19.767051000000002,-106.9139628,31.2835068,67.52882988,2.1657812400000003,-41.636857860000006
1.74,174,-0.109,-1.537,-0.251,14.8396122,-109.6068654,33.804522,67.66633979999999,1.47250206,-42.51921318
1.75,175,-0.33,-1.409,-0.332,11.45916,-109.0339074,33.3461556,67.78666098,0.7734933,-43.40729808
1.76,176,-0.46799999999999997,-1.244,-0.348,12.5477802,-101.700045,29.793815999999996,67.92417090000001,0.14896908,-44.2323576
1.77,177,-0.499,-1.02,-0.34600000000000003,17.589810600000003,-87.8917572,24.7517856,68.11324704,-0.3724227000000001,-44.95428468
1.78,178,-0.415,-0.7879999999999999,-0.335,27.7311672,-69.8435802,20.6837838,68.4111852,-0.8021412000000001,-45.52724268
1.79,179,-0.252,-0.5579999999999999,-0.302,42.34159620000001,-52.5975444,20.05353,68.85809244000001,-1.1573751600000002,-45.93977244
1.8,180,-0.066,-0.38799999999999996,-0.267,52.7694318,-44.977203,24.2934192,69.39667296,-1.52406828,-46.27208808
1.81,181,0.004,-0.23800000000000002,-0.184,54.25912260000001,-51.33703679999999,27.6165756,69.96390138000001,-1.93659804,-46.65596994000001
1.82,182,-0.024,-0.11800000000000001,-0.2,52.998615,-60.8481396,26.642546999999997,70.5311298,-2.36631654,-47.13152508
1.83,183,-0.10400000000000001,-0.034,-0.198,52.7694318,-67.7236356,20.168121600000006,71.1040878,-2.75592798,-47.70448308
1.84,184,-0.21600000000000005,0.046,-0.149,49.2170922,-67.322565,9.740286,71.64266832,-3.0366774000000003,-48.30608897999999
1.85,185,-0.245,0.127,-0.08800000000000001,40.7373138,-55.290447,-0.9167328000000001,72.07811640000001,-3.19710564,-48.83321034
1.86,186,-0.191,0.23,-0.034,29.2781538,-34.37748,-10.4851314,72.39897288,-3.1913760600000005,-49.1884443
1.87,187,-0.115,0.305,0.017,25.78311,-15.928232399999999,-17.131444199999994,72.67399272,-3.07105488,-49.38897959999999
1.8800000000000001,188,-0.06,0.293,0.015,26.9863218,-12.834259199999998,-16.7876694,72.96047172,-2.93927454,-49.560867
1.8900000000000001,189,-0.013000000000000001,0.182,0.013000000000000001,28.533308399999996,-14.7250206,-11.5737516,73.25840988,-2.86479,-49.7327544
1.9000000000000001,190,-0.013999999999999999,0.045,-0.01,27.6738714,-13.6936962,-4.8128472,73.53915930000002,-2.86479,-49.87599390000001
1.9100000000000001,191,-0.024,-0.062,-0.019,28.361421000000004,-8.9954406,1.2605076000000002,73.83136787999999,-2.8934379,-49.95620802
1.9200000000000002,192,0.001,-0.20199999999999999,-0.11199999999999999,25.7258142,0.9740286,5.844171599999999,74.08919897999998,-2.94500412,-49.92756012
1.93,193,0.11599999999999999,-0.613,-0.7090000000000001,-13.2353298,15.928232399999999,18.8503182,73.94595948,-3.08824362,-49.72702482
1.94,194,0.067,-0.77,-0.982,-21.4286292,-7.448453999999999,35.695283399999994,73.72823544,-3.4492071599999994,-49.70410650000001
1.95,195,0.045,-0.953,-0.295,22.9756158,-12.318597,31.455394199999997,73.98033696,-3.76433406,-49.7327544
1.96,196,-0.065,-1.412,-0.256,25.0955604,3.8388186,9.7975818,74.23243848,-3.84454818,-49.66399944
1.97,197,-0.39,-1.732,-0.262,29.507337,1.9480572,-1.4896908000000002,74.53037664,-3.82162986,-49.6468107
1.98,198,-0.523,-2.0580000000000003,-0.015,39.47680620000001,0.7448454000000001,-0.9167328000000001,74.93144724,-3.810170700000002,-49.64108112
1.99,199,-0.402,-2.3890000000000002,-0.212,23.9496444,8.7089616,8.021412000000002,75.16636002,-3.86173692,-49.5322191
2.0,200,-0.32,-2.521,-0.301,15.011499599999999,10.3705398,18.2200644,75.30959952,-4.010706,-49.38325002
2.01,201,-0.397,-2.386,-0.243,17.5325148,14.610429000000002,21.314037600000002,75.47002776000002,-4.1825934,-49.1884443
2.02,202,-0.491,-2.2969999999999997,-0.036000000000000004,20.6837838,30.4813656,18.6784308,75.65337432,-4.297185000000002,-48.8446695
2.03,203,-0.479,-2.322,0.036000000000000004,13.178034,50.420303999999994,16.4438946,75.73931802,-4.34302164,-48.31754814
2.04,204,-0.39399999999999996,-2.2680000000000002,0.079,8.880849000000003,66.6350154,11.745639,75.76796592000002,-4.30864416,-47.641457700000004
2.05,205,-0.342,-2.09,0.028999999999999998,9.2819196,76.77637200000002,5.5576926,75.80234340000001,-4.19978214,-46.88515314
2.0599999999999996,206,-0.261,-1.891,0.07200000000000001,14.667724800000002,83.82375540000002,0.5156622000000001,75.88255752,-4.022165159999999,-46.07155278000001
2.07,207,-0.17600000000000002,-1.6869999999999998,0.081,14.9542038,93.6213372,-4.0680017999999984,75.96277164,-3.7815228,-45.177738299999994
2.0799999999999996,208,-0.039,-1.5319999999999998,0.028999999999999998,10.313244000000001,105.25238459999998,-6.2452422,75.98568996,-3.4950437999999995,-44.16933222
2.09,209,0.16699999999999998,-1.403,-0.102,3.7242269999999995,110.7527814,-6.875496000000001,75.95131248,-3.1913760600000005,-43.1150895
2.0999999999999996,210,0.374,-1.186,-0.19699999999999998,5.844171599999999,102.3302988,-9.396511199999999,75.9455829,-2.84760126,-42.15252006
2.11,211,0.452,-0.983,-0.18,17.131444199999994,88.06364459999998,-12.2040054,76.07163366,-2.54393352,-41.32746054
2.1199999999999997,212,0.39,-0.772,-0.128,30.022999199999997,75.63045600000002,-12.6623718,76.33519434,-2.25745452,-40.6227222
2.13,213,0.273,-0.537,-0.10400000000000001,42.398892,66.80690279999999,-11.5164558,76.73053536,-2.005353,-39.99819798
2.1399999999999997,214,0.19,-0.34,-0.068,48.3576552,63.1972674,-8.193299399999999,77.19463134,-1.79908812,-39.39659208
2.15,215,0.149,-0.185,-0.055,50.8786704,58.0979412,-1.8334656000000005,77.68164564,-1.65011904,-38.83509324
2.1599999999999997,216,0.124,-0.095,-0.006,50.5348956,52.0818822,6.6463128000000005,78.17438952,-1.6157415599999996,-38.30797188
2.17,217,0.141,-0.025,-0.033,43.544808,47.6128098,17.0741484,78.59837844,-1.6959556799999995,-37.80949842
2.1799999999999997,218,0.17800000000000002,0.025,-0.162,33.74722620000001,44.690723999999996,26.069589,78.91923492,-1.87357266,-37.31675454
2.19,219,0.196,0.073,-0.289,25.0382646,35.695283399999994,32.2002396,79.15414770000002,-2.12567418,-36.90995436
2.1999999999999997,220,0.151,0.147,-0.344,22.91832,14.4958374,35.236917,79.34322384000002,-2.4350715000000003,-36.70941906
2.21,221,0.092,0.25,-0.29,29.793815999999996,-14.266654199999998,34.0337052,79.64689158,-2.78457588,-36.7839036
2.2199999999999998,222,0.069,0.26899999999999996,-0.21600000000000005,36.898495200000006,-25.0955604,26.5279554,80.03650302,-3.07678446,-36.97870931999999
2.23,223,0.111,0.221,-0.15,39.5913978,-21.314037600000002,14.438541599999999,80.45476235999998,-3.2486718599999995,-37.16205588
2.2399999999999998,224,0.16699999999999998,0.135,-0.059000000000000004,39.1330314,-12.9488508,2.6929026,80.86156254,-3.28877892,-37.28237706
2.25,225,0.184,0.047,-0.02,35.0077338,-5.72958,-3.5523396000000003,81.21679650000002,-3.2314831199999987,-37.33967286
2.26,226,0.157,0.013999999999999999,0.005,31.3980984,-7.161975,-1.9480572,81.53765297999998,-3.22002396,-37.41415739999999
2.27,227,0.08800000000000001,-0.006,0.016,29.392745399999995,-17.7044022,3.2085647999999996,81.8470503,-3.2658606,-37.58031522
2.28,228,0.005,-0.05,-0.045,25.382039399999996,-35.17962120000001,5.2712136,82.13352929999998,-3.35753388,-37.91836044
2.29,229,-0.138,-0.188,-0.192,18.506543399999998,-63.59833800000001,-2.86479,82.3627125,-3.3919113599999995,-38.54288466000001
2.3,230,-0.19399999999999998,-0.5920000000000001,-0.6559999999999999,4.3544808,-78.6671334,-31.340802600000004,82.42000829999998,-3.1741873200000006,-39.3622146
2.31,231,-0.21,-1.536,-0.7120000000000001,-3.1512689999999997,-14.1520626,-87.66257399999998,82.40281956,-2.32620948,-39.61431612
2.32,232,-0.244,-2.875,-0.6890000000000001,-17.761698000000006,99.3509172,-123.758928,82.18509551999998,-1.0026765,-38.80071576
2.3299999999999996,233,-0.268,-2.8939999999999997,-0.258,19.308684600000007,60.10329419999999,-72.13541219999998,82.3627125,-0.22918320000000006,-38.302242299999996
2.34,234,0.16,-2.032,-0.312,27.1582092,23.5485738,-27.559279800000002,82.63773234,0.06302537999999999,-38.10170700000001
2.3499999999999996,235,0.265,-2.008,-0.084,38.2162986,-1.5469866,-19.767051000000002,83.02734378,0.26356068,-38.13608448
2.36,236,0.32,-2.428,-0.057,26.0122932,-15.2406828,-19.8243468,83.29090446000002,0.44690724,-38.30797188
2.3699999999999997,237,0.605,-2.622,0.042,25.210151999999997,-24.8663772,-15.2406828,83.54873556,0.5786875800000001,-38.56580298
2.38,238,0.625,-2.4819999999999998,0.059000000000000004,24.8663772,-38.5600734,-11.2872726,83.80083708,0.66463128,-38.95541442
2.3899999999999997,239,0.529,-2.326,0.064,20.454600600000006,-46.982556,-10.828906199999999,84.01283154000002,0.73338624,-39.43096956
2.4,240,0.358,-2.208,0.07400000000000001,17.761698000000006,-55.80610920000001,-8.3651868,84.19044852,0.7792228800000001,-39.98673882
2.4099999999999997,241,0.244,-2.0909999999999997,0.059000000000000004,14.209358400000001,-60.9627312,-3.8388186,84.33368802,0.7734933,-40.58834472
2.42,242,0.134,-1.901,0.016,16.7876694,-69.32791800000001,6.2452422,84.50557542,0.6703608600000001,-41.26443516
2.4299999999999997,243,-0.031,-1.69,-0.019,20.2254174,-77.5785132,18.5638392,84.71756988,0.43544808,-42.00928055999999
2.44,244,-0.204,-1.5019999999999998,-0.05,19.136797199999997,-80.1568242,27.3873924,84.91810518,0.11459160000000003,-42.77704428
2.4499999999999997,245,-0.354,-1.2990000000000002,-0.063,18.5638392,-79.81304940000003,30.65325300000001,85.11864048,-0.24637194,-43.53907842
2.46,246,-0.40700000000000003,-1.1,-0.084,19.136797199999997,-72.65107440000001,28.762491600000004,85.33063494000002,-0.5729580000000001,-44.2323576
2.4699999999999998,247,-0.349,-0.907,-0.069,24.9809688,-62.10864720000001,25.2674478,85.5999252,-0.8479778399999999,-44.82250434
2.48,248,-0.261,-0.759,-0.034,30.194886600000004,-51.1651494,22.2880662,85.92078168,-1.09434978,-45.30951864000001
2.4899999999999998,249,-0.14,-0.632,0.01,30.8251404,-43.7166954,21.657812399999997,86.24736774,-1.32353298,-45.7220484
2.5,250,-0.048,-0.4920000000000001,0.068,26.1841806,-43.315624799999995,22.86102420000001,86.53957632,-1.56417534,-46.13457816
2.51,251,-0.013999999999999999,-0.316,0.078,21.199446,-44.51883660000001,23.777757,86.7744891,-1.81054728,-46.55856708
2.52,252,-0.011000000000000001,-0.198,-0.032,15.870936600000002,-39.5913978,21.2567418,86.95210608,-2.02827132,-46.93671936
2.53,253,-0.071,-0.076,-0.23,12.834259199999998,-32.830493399999995,15.126091199999998,87.10107516000002,-2.18869956,-47.25757584
2.54,254,-0.16899999999999998,0.054000000000000006,-0.355,13.750992000000002,-27.501984000000004,9.3392154,87.25577381999999,-2.28610242,-47.521136520000006
2.55,255,-0.257,0.217,-0.387,18.621135,-17.0741484,2.6356068,87.39901332,-2.35485738,-47.70448308
2.56,256,-0.27699999999999997,0.35100000000000003,-0.29,32.2002396,-5.9014674000000005,-4.3544808,87.73132896,-2.30902074,-47.76177888
2.57,257,-0.217,0.358,-0.07200000000000001,41.19568020000001,5.3285094000000015,-7.3911582,88.14385872,-2.22880662,-47.70448308
2.5799999999999996,258,-0.08800000000000001,0.306,0.031,35.4088044,14.32395,-5.042030400000002,88.49909268,-2.1772404,-47.56124358
2.59,259,0.044000000000000004,0.18100000000000002,-0.043,28.6479,16.8449652,1.5469866,88.7798421,-2.18869956,-47.38935618000001
2.5999999999999996,260,0.084,0.036000000000000004,-0.177,18.277360199999997,10.4851314,11.2872726,88.92881118,-2.2918320000000003,-47.28622374
2.61,261,0.026000000000000002,-0.096,-0.358,5.443101,-3.7242269999999995,23.892348600000002,88.98610698,-2.53247436,-47.32060122
2.6199999999999997,262,0.01,-0.033,-0.29600000000000004,3.8388186,-13.0634424,31.340802600000004,89.03194361999998,-2.84187168,-47.44092239999999
2.63,263,0.003,0.037000000000000005,-0.215,10.943497800000001,-5.1566220000000005,31.2835068,89.14653522,-3.1512689999999997,-47.48675904
2.6399999999999997,264,0.045,-0.077,-0.21,7.8495246,13.464512999999998,28.3041252,89.21529018,-3.43201842,-47.34924912
2.65,265,0.055999999999999994,-0.39399999999999996,-0.162,-5.2712136,14.5531332,27.3300966,89.12934648,-3.68411994,-47.20028004
2.6599999999999997,266,0.21899999999999997,-1.268,-0.841,-63.88481700000001,35.3515086,45.9512316,88.45325604000001,-4.14821592,-46.85077566
2.67,267,0.27,-2.5,-1.425,-90.8711388,-26.642546999999997,63.9994086,87.55371198,-4.79565846,-47.10287718
2.6799999999999997,268,-0.244,-2.593,-0.32,41.6540466,-64.6869582,30.65325300000001,88.04072628,-5.10505578,-47.72740140000001
2.69,269,-0.5529999999999999,-2.0980000000000003,0.575,88.80849,-43.315624799999995,-4.5263682,88.98610698,-5.05348956,-48.15139032
2.6999999999999997,270,-0.631,-2.0909999999999997,0.325,60.7908438,-1.2605076000000002,9.2819196,89.60490161999998,-5.14516284,-48.1571199
2.71,271,-0.672,-2.6489999999999996,0.278,42.5707794,29.8511118,17.475219,90.00597222,-5.32277982,-47.85345216
2.7199999999999998,272,-0.569,-2.747,0.24600000000000002,26.8717302,44.175061799999995,22.91832,90.22942584,-5.5576926,-47.4122745
2.73,273,-0.451,-2.575,0.309,21.314037600000002,61.994055599999996,25.6112226,90.37839492,-5.83271244,-46.79920943999999
2.7399999999999998,274,-0.34,-2.439,0.233,15.297978599999999,74.48454,26.5279554,90.44714988,-6.11919144,-46.06009362
2.75,275,-0.23399999999999999,-2.34,0.29,12.891555,80.04223259999998,25.382039399999996,90.48152736,-6.39994086,-45.263682
2.76,276,-0.242,-2.104,0.33399999999999996,15.068795399999999,83.53727640000002,22.2307704,90.53309358,-6.65204238,-44.4328929
2.77,277,-0.251,-1.874,0.35600000000000004,20.454600600000006,92.4754212,16.8449652,90.61903728,-6.85257768,-43.51616009999999
2.78,278,-0.215,-1.662,0.317,22.058882999999998,100.8979038,11.688343199999998,90.70498098,-7.00727634,-42.50775402
2.79,279,-0.159,-1.43,0.255,21.4286292,107.08585020000001,7.161975,90.77946552,-7.116138359999999,-41.44205214
2.8,280,-0.113,-1.273,0.215,17.4179232,114.24782520000001,3.7815228,90.80811342,-7.19635248,-40.30186572
2.81,281,0.0,-1.09,0.083,5.6149884000000005,121.5816876,2.6356068,90.69352182,-7.270837019999999,-39.09292434
2.82,282,0.21,-0.903,-0.039,-3.2085647999999996,125.3632104,2.4064236,90.48725694,-7.34532156,-37.84387589999999
2.8299999999999996,283,0.44299999999999995,-0.66,-0.245,-5.0993262,115.6229244,2.86479,90.2695329,-7.41407652,-36.6979599
2.84,284,0.529,-0.479,-0.31,13.2353298,91.95975899999999,5.5003968,90.27526248,-7.49429064,-35.77549752
2.8499999999999996,285,0.51,-0.406,-0.21899999999999997,31.6845774,71.61975,10.828906199999999,90.47579778,-7.574504760000001,-35.05930002
2.86,286,0.41200000000000003,-0.319,-0.133,38.7892566,59.4157446,18.162768600000003,90.77946552,-7.7750400599999985,-34.46915328
2.8699999999999997,287,0.28600000000000003,-0.228,-0.084,41.76863820000001,47.4409224,24.637194,91.13469948,-8.03860074,-33.99359814
2.88,288,0.151,-0.161,-0.018000000000000002,44.2323576,37.81522800000001,28.5906042,91.52431092,-8.3365389,-33.61544586
2.8899999999999997,289,0.052000000000000005,-0.159,-0.004,40.33624320000001,34.1482968,30.65325300000001,91.87954488,-8.65739538,-33.28313022
2.9,290,-0.015,-0.141,-0.135,31.054323600000004,30.366774000000003,31.79916900000001,92.12591682,-8.98971102,-32.98519206
2.9099999999999997,291,-0.01,-0.062,-0.35600000000000004,26.9863218,19.2513888,28.5906042,92.36655918,-9.28764918,-32.8018455
2.92,292,0.035,0.028999999999999998,-0.38299999999999995,33.4607472,4.1825934,18.9649098,92.69887482,-9.47672532,-32.76746802
2.9299999999999997,293,0.09,0.055999999999999994,-0.235,45.6647526,0.8021411999999999,8.136003599999999,93.1629708,-9.55120986,-32.756008859999994
2.94,294,0.152,0.008,-0.111,44.9199072,10.7716104,2.5210152000000003,93.59841887999998,-9.58558734,-32.647146840000005
2.9499999999999997,295,0.196,-0.01,-0.073,36.4401288,21.4286292,2.5783110000000002,93.91927536,-9.60277608,-32.429422800000005
2.96,296,0.201,-0.012,-0.064,28.2468294,26.2987722,6.3598338,94.15991772,-9.68871978,-32.16586212
2.9699999999999998,297,0.16399999999999998,-0.026000000000000002,-0.077,21.944291399999997,23.204798999999998,10.886202,94.34326428,-9.81477054,-31.94240850000001
2.98,298,0.12,-0.035,-0.08,14.8396122,18.277360199999997,12.4331886,94.45785588,-9.95801004,-31.770521100000003
2.9899999999999998,299,0.12,-0.006,-0.11,8.7662574,15.6417534,9.682990199999999,94.52088126,-10.07260164,-31.61582244
3.0,300,0.057999999999999996,0.004,-0.149,9.568398599999998,2.6929026,4.9847346,94.58390664,-10.12416786,-31.592904120000004
3.01,301,-0.111,-0.07200000000000001,-0.124,11.745639,-20.9702628,-2.5783110000000002,94.74433488,-10.07833122,-31.799169
3.02,302,-0.27899999999999997,-0.52,-0.142,-2.0626488000000003,-35.7525792,-23.4339822,94.78444194,-9.80331138,-32.13721422
3.03,303,-0.29100000000000004,-1.412,-0.27899999999999997,-46.696077,-21.772404,-65.603691,94.34326428,-9.138680099999998,-32.30337204
3.04,304,-0.634,-3.273,-0.8390000000000001,-140.8330764,80.32871159999998,-134.4732426,92.77335936,-7.88390208,-31.43247588
3.05,305,-0.725,-2.747,-0.736,-122.21194140000001,164.2097628,-141.86440080000003,91.29512772,-6.58328742,-29.765168100000004
3.06,306,-0.6729999999999999,-1.786,-0.5539999999999999,13.3499214,139.515273,-80.90166959999998,91.26075024,-5.849901179999999,-28.35569142
3.07,307,-0.37799999999999995,-1.87,0.015,60.67625219999999,104.4502434,-36.2109456,91.75349412,-5.5405038599999985,-27.3014487
3.08,308,0.36,-2.3890000000000002,0.20199999999999999,21.5432208,73.28132819999998,-11.802934800000001,91.89673362,-5.466019319999999,-26.56806246
3.09,309,0.883,-2.472,0.204,-1.5469866,39.9351726,-5.443101,91.83370824,-5.43737142,-26.17272144
3.0999999999999996,310,0.922,-2.34,0.111,1.145916,23.0902074,-1.432395,91.82224908,-5.4316418399999975,-25.94353824
3.11,311,0.625,-2.16,0.14300000000000002,7.3911582,16.157415599999997,0.3437748,91.87954488,-5.443101,-25.78311
3.1199999999999997,312,0.243,-1.921,0.139,5.2139178,17.3606274,0.11459160000000004,91.91392236,-5.45456016,-25.60549302
3.13,313,-0.08,-1.7990000000000002,0.12300000000000001,2.1772404,22.86102420000001,-1.145916,91.91392236,-5.45456016,-25.382039399999996
3.1399999999999997,314,-0.32899999999999996,-1.7369999999999999,0.133,2.5210152000000003,30.137590799999998,0.9167328000000001,91.90819278,-5.48320806,-25.08410124000001
3.15,315,-0.47,-1.672,0.151,5.0993262,39.4195104,8.250595200000001,91.91965194,-5.59207008,-24.694489800000003
3.1599999999999997,316,-0.465,-1.5759999999999998,0.17600000000000002,9.6256944,52.0245864,16.386598799999998,91.95975899999999,-5.7868758,-24.18455718
3.17,317,-0.381,-1.446,0.174,13.980175199999998,67.895523,20.3973048,92.02278438,-6.0332477399999975,-23.51419632
3.1799999999999997,318,-0.251,-1.3159999999999998,0.15,16.4438946,83.8810512,19.9389384,92.09153934,-6.2796196800000015,-22.6891368
3.19,319,-0.129,-1.177,0.086,15.469866,96.7153104,17.7044022,92.12591682,-6.52026204,-21.73229694
3.1999999999999997,320,-0.04,-1.043,0.032,11.3445684,105.0804972,16.2147114,92.10872808,-6.7379860800000015,-20.69524296
3.21,321,0.009000000000000001,-0.861,-0.008,5.3858052,108.57554099999999,16.2147114,92.0170548,-6.96716928,-19.61808192
3.2199999999999998,322,0.024,-0.688,-0.067,-0.572958,109.6641612,15.6417534,91.86235614,-7.1848933200000005,-18.5351913
3.23,323,0.005,-0.474,-0.092,-4.2398892,113.3883882,12.2040054,91.66182084,-7.37396946,-17.412193620000004
3.2399999999999998,324,-0.009000000000000001,-0.33399999999999996,-0.11599999999999999,-5.2139178,122.613012,8.3651868,91.43263764,-7.52293854,-16.19179308
3.25,325,-0.040999999999999995,-0.192,-0.161,-1.8907614,131.37926940000003,5.5576926,91.20345444,-7.648989299999997,-14.88544884
3.26,326,-0.055999999999999994,-0.08,-0.13,8.136003599999999,133.0408476,4.1825934,91.09459242,-7.75212174,-13.56191586
3.27,327,-0.036000000000000004,-0.054000000000000006,-0.071,14.9542038,128.8582542,3.2085647999999996,91.05448536,-7.84379502,-12.278489939999998
3.28,328,-0.027000000000000003,-0.083,-0.10800000000000001,14.266654199999998,122.613012,3.2085647999999996,91.01437829999999,-7.929738719999999,-11.05235982
3.29,329,0.009000000000000001,-0.14400000000000002,-0.177,8.479778399999999,118.7168976,4.0680017999999984,90.92270502,-8.021412,-9.86633676
3.3,330,0.078,-0.133,-0.221,3.7242269999999995,117.1126152,4.9274388,90.7565472,-8.11308528,-8.69750244
3.31,331,0.113,-0.042,-0.175,5.0993262,115.85210759999998,7.5057497999999985,90.62476686,-8.22767688,-7.545856859999999
3.32,332,0.061,0.013000000000000001,-0.147,1.9480572,104.851314,14.037471,90.48152736,-8.41102344,-6.497343719999999
3.33,333,0.004,0.077,-0.122,-1.6042823999999998,97.23097259999999,19.308684600000007,90.30963996,-8.634477059999998,-5.5290447
3.34,334,-0.062,0.11,-0.085,0.6875496,92.4754212,21.4286292,90.16640046,-8.87511942,-4.60658232
3.3499999999999996,335,-0.146,0.10400000000000001,-0.025,3.4377480000000005,91.5013926,19.079501399999998,90.04034970000002,-9.11576178,-3.6955791
3.36,336,-0.273,0.145,0.025,8.021412000000002,94.7099574,12.891555,89.96013558000001,-9.27046044,-2.7501984
3.3699999999999997,337,-0.268,0.115,0.166,18.162768600000003,110.6954856,5.042030400000002,89.94867642,-9.350674559999998,-1.6386598799999998
3.38,338,0.21100000000000002,-0.382,0.23800000000000002,7.8495246,161.80333919999995,5.958763200000001,89.74241154,-9.44807742,-0.01718874
3.3899999999999997,339,0.733,-1.4480000000000002,-0.44799999999999995,-59.24385720000001,218.0678148,27.3873924,88.7511942,-9.75747474,2.16005166
3.4,340,0.6729999999999999,-2.414,-1.8969999999999998,-164.4962418,164.8973124,66.23394479999999,86.76875952,-10.41637644,3.82162986
3.4099999999999997,341,0.32299999999999995,-2.707,-1.338,-73.3959198,45.3209778,52.48295279999999,85.92651126,-10.92630906,4.30291458
3.42,342,-0.175,-1.8130000000000002,0.192,76.0888224,-3.380452200000001,10.026765,86.70573413999998,-11.01798234,4.28572584
3.4299999999999997,343,-0.316,-1.4569999999999999,0.7040000000000001,99.981171,45.0917946,4.6409598,87.62246694,-11.05235982,4.749821819999998
3.44,344,-0.35200000000000004,-2.033,0.26899999999999996,53.1705024,106.68477959999998,13.178034,87.94332342,-11.16695142,5.83844202
3.4499999999999997,345,-0.152,-2.559,0.081,19.652459399999998,126.2226474,16.042824000000003,87.87456846,-11.31019092,7.116138359999999
3.46,346,0.068,-2.718,0.085,0.6875496,136.1348208,12.9488508,87.59381904,-11.42478252,8.49123756
3.4699999999999998,347,0.152,-2.616,0.077,-8.651665800000002,148.7398968,8.651665800000002,87.18701886,-11.4878079,9.9981171
3.48,348,0.14300000000000002,-2.49,0.10099999999999999,-13.980175199999998,160.25635259999999,15.183387000000002,86.70000456,-11.59666992,11.61958824
3.4899999999999998,349,0.018000000000000002,-2.334,0.133,-10.943497800000001,168.62153940000005,21.0848544,86.21871984,-11.75136858,13.33273266
3.5,350,-0.08199999999999999,-2.158,0.084,-6.5317212,178.07534640000003,24.350715,85.76035343999997,-11.917526400000002,15.14327994
3.51,351,-0.064,-1.9969999999999999,0.043,-2.0053530000000004,185.12272980000003,26.1268848,85.31917578,-12.08368422,17.034041339999998
3.52,352,-0.009000000000000001,-1.818,0.027000000000000003,0.9167328000000001,187.2426744,25.9549974,84.90091644,-12.2326533,18.94199148
3.53,353,0.04,-1.641,0.049,0.40107059999999994,187.4145618,25.55392680000001,84.47692752,-12.36443364,20.86140078
3.54,354,0.09699999999999999,-1.501,0.079,1.9480572,188.6177736,25.84040580000001,84.05293859999998,-12.48475482,22.792269240000003
3.55,355,0.113,-1.345,0.079,4.8701430000000006,192.227409,28.361421000000004,83.65759758,-12.59934642,24.76324476
3.56,356,0.18100000000000002,-1.175,0.076,11.6310474,198.1861722,32.31483119999999,83.30236362,-12.75404508,26.79724566
3.57,357,0.253,-0.993,0.079,16.1001198,201.16555380000003,35.4088044,82.97577756,-12.91447332,28.87135362
3.58,358,0.302,-0.816,0.073,21.5432208,200.248821,35.809875,82.7064873,-13.07490156,30.94546158
3.59,359,0.342,-0.682,0.05,28.418716800000002,198.4153554,33.2888598,82.50022242,-13.20095232,32.99092164
3.5999999999999996,360,0.358,-0.5820000000000001,0.005,36.554720399999994,198.4153554,29.621928600000004,82.37990124000002,-13.25824812,35.03638170000001
3.61,361,0.345,-0.507,0.02,43.65939960000001,196.524594,27.788463,82.33406459999998,-13.32700308,37.06465302
3.6199999999999997,362,0.304,-0.423,0.027999999999999997,46.29500640000001,192.8576628,27.8457588,82.31687586000002,-13.390028460000002,39.05281728
3.63,363,0.272,-0.34299999999999997,0.040999999999999995,48.0138804,186.497829,28.533308399999996,82.33406459999998,-13.47597216,40.98368574
3.6399999999999997,364,0.262,-0.28,0.017,45.72204840000001,175.7262186,30.7105488,82.34552376,-13.59056376,42.80569218
3.65,365,0.258,-0.22399999999999998,-0.031,42.5134836,167.9912856,32.7159018,82.33979418,-13.71088494,44.55321408
3.6599999999999997,366,0.242,-0.149,-0.069,40.5654264,158.995845,33.4607472,82.33979418,-13.8655836,46.209062700000004
3.67,367,0.195,-0.08,-0.08800000000000001,39.3622146,148.6253052,32.658606,82.34552376,-14.03174142,47.76177888
3.6799999999999997,368,0.125,-0.028999999999999998,-0.096,38.0444112,138.9996108,30.4813656,82.35698292000002,-14.180710500000002,49.2170922
3.69,369,0.065,-0.019,-0.07,36.2109456,133.09814340000003,28.418716800000002,82.3627125,-14.31822042,50.60938014
3.6999999999999997,370,0.031,-0.044000000000000004,-0.063,29.67922440000001,134.87431320000002,26.642546999999997,82.28249838,-14.43281202,52.01885682000001
3.71,371,0.035,-0.052000000000000005,-0.11800000000000001,20.3973048,139.515273,25.8977016,82.11061098,-14.53594446,53.47417014
3.7199999999999998,372,0.037000000000000005,-0.04,-0.16699999999999998,15.9855282,140.60389320000002,28.6479,81.88142778,-14.66199522,54.94094262
3.73,373,-0.006,-0.021,-0.099,18.621135,130.34794499999998,32.31483119999999,81.7038108,-14.82815304,56.31031224
3.7399999999999998,374,-0.024,-0.067,0.106,21.886995600000002,122.040054,34.2055926,81.57776004,-15.02295876,57.60519732
3.75,375,-0.039,-0.233,0.011000000000000001,9.0527364,122.5557162,31.79916900000001,81.30846978000002,-15.183387,58.9000824
3.76,376,-0.32,-0.5539999999999999,-0.405,-10.828906199999999,110.81007720000001,18.793022399999998,80.87875127999997,-15.23495322,60.05745756
3.77,377,-0.313,-1.246,-0.35700000000000004,-22.517249399999997,140.14552680000003,-13.980175199999998,80.2714158,-14.90836716,61.44974549999999
3.78,378,-0.256,-2.383,-0.625,-63.82752120000001,220.1877594,-50.133825,79.05674484,-14.0947668,63.57541968
3.79,379,-0.42,-2.929,-0.43799999999999994,-37.299565799999996,224.7714234,-22.5745452,78.12282330000002,-13.49889048,65.78130798
3.8,380,-0.064,-2.395,-0.049,14.32395,187.75833659999998,26.814434400000003,77.80196682,-13.41867636,67.71790602000002
3.81,381,0.36200000000000004,-1.734,0.139,21.600516600000002,182.2579398,34.60666320000001,77.55559488,-13.412946780000002,69.614397
3.82,382,0.38799999999999996,-1.4280000000000002,0.205,31.455394199999997,154.69866000000005,38.8465524,77.47538076,-13.49889048,71.24159771999999
3.83,383,0.391,-1.4509999999999998,0.33,25.382039399999996,137.6245116,42.28430039999999,77.37224832,-13.64785956,72.71409978
3.84,384,0.36,-1.6,0.261,20.7410796,127.483155,40.5081306,77.24046797999998,-13.796828639999998,74.07773982
3.8499999999999996,385,0.205,-1.811,0.174,19.767051000000002,122.49842040000001,31.1689152,77.12014680000001,-13.85412444,75.37262489999998
3.86,386,0.08800000000000001,-2.011,0.107,17.246035799999998,123.98811119999999,18.048177,76.97117771999999,-13.78536948,76.65032124000003
3.8699999999999997,387,0.055999999999999994,-2.11,0.037000000000000005,15.126091199999998,128.45718359999998,10.3705398,76.79929032,-13.63067082,77.95666548
3.88,388,0.055,-1.969,-0.037000000000000005,13.9228794,130.11876180000002,12.891555,76.61594376000002,-13.4931609,79.28592804
3.8899999999999997,389,0.038,-1.7369999999999999,-0.10400000000000001,13.2353298,130.17605759999998,20.454600600000006,76.42113803999997,-13.42440594,80.62664975999998
3.9,390,-0.025,-1.54,-0.156,12.032118,130.4052408,27.100913399999996,76.21487316,-13.4072172,81.9902898
3.9099999999999997,391,-0.09699999999999999,-1.3880000000000001,-0.195,9.682990199999999,131.7230442,29.507337,75.9742308,-13.412946780000002,83.37111858
3.92,392,-0.11900000000000001,-1.2429999999999999,-0.215,6.5317212,135.791046,28.132237800000002,75.69348138000002,-13.390028460000002,84.78632483999998
3.9299999999999997,393,-0.073,-1.107,-0.244,3.0939732,140.89037219999997,24.350715,75.37262489999998,-13.31554392,86.24736774
3.94,394,0.025,-0.985,-0.289,1.9480572,145.0156698,20.454600600000006,75.0288501,-13.18376358,87.73132896
3.9499999999999997,395,0.135,-0.841,-0.314,6.3598338,146.2761774,17.0741484,74.73091194,-12.977498700000002,89.22101975999998
3.96,396,0.20600000000000002,-0.685,-0.303,18.449247600000003,141.9789924,14.4958374,74.57621328,-12.782692979999998,90.65914434
3.9699999999999998,397,0.20600000000000002,-0.591,-0.223,29.507337,135.04620060000002,12.9488508,74.55902454,-12.58215768,92.02278438
3.98,398,0.179,-0.5379999999999999,-0.13699999999999998,34.091001,128.57177520000002,11.172680999999999,74.61059076000002,-12.38162238,93.32339904
3.9899999999999998,399,0.166,-0.49,-0.057999999999999996,33.8618178,120.89413799999998,8.9954406,74.67934572,-12.18108708,94.53806999999999
4.0,400,0.13699999999999998,-0.475,-0.012,28.934378999999996,113.61757140000002,6.3598338,74.72518235999998,-11.95190388,95.67252684
4.01,401,0.094,-0.45899999999999996,-0.073,18.907614,107.4869208,3.6096353999999997,74.68507530000002,-11.73417984,96.73822872
4.02,402,0.084,-0.392,-0.138,11.2872726,103.8772854,0.8021411999999999,74.58194286,-11.49926706,97.75809396
4.03,403,0.065,-0.301,-0.17600000000000002,8.250595200000001,104.851314,-2.86479,74.45016252,-11.21851764,98.77795919999998
4.04,404,0.03,-0.215,-0.18100000000000002,9.1100322,111.72681000000001,-6.9327918,74.31838218,-10.886202,99.84939066
4.05,405,-0.011000000000000001,-0.155,-0.158,13.3499214,118.94608079999999,-8.078707799999998,74.21524974,-10.51950888,100.99530666
4.06,406,-0.085,-0.095,-0.064,18.907614,124.50377340000001,-4.9847346,74.17514268,-10.16427492,102.19278888
4.07,407,-0.225,-0.07400000000000001,0.015,25.3247436,122.72760359999998,4.1825934,74.20379058,-9.906443820000002,103.40173026
4.08,408,-0.302,-0.027000000000000003,0.03,24.7517856,123.1286742,16.7876694,74.2267089,-9.76320432,104.64504912
4.09,409,-0.33,0.006,0.057,28.361421000000004,124.44647759999998,25.152856200000002,74.2840047,-9.70017894,105.92847504
4.1,410,-0.341,0.03,0.07400000000000001,32.142943800000005,123.98811119999999,26.241476399999996,74.38140755999999,-9.6829902,107.20617138
4.109999999999999,411,-0.295,0.055,0.1,32.7159018,122.613012,21.0848544,74.49026957999997,-9.58558734,108.46094939999999
4.12,412,-0.064,-0.051,0.049,17.475219,123.5870406,17.0168526,74.44443294,-9.453807000000001,109.70999784
4.13,413,0.276,-0.303,-0.168,-11.0007936,132.8116644,25.152856200000002,74.09492856,-9.37359288,111.06790829999998
4.14,414,0.313,-0.589,-0.301,-26.1841806,112.4716554,39.7632852,73.61364384000002,-9.4824549,112.26539052
4.1499999999999995,415,0.217,-0.934,-0.373,-23.14750320000001,93.0483792,50.0765292,73.18965492,-9.69444936,113.30817408
4.16,416,0.21100000000000002,-1.4369999999999998,-0.32899999999999996,-8.3651868,100.49683320000001,48.0138804,72.90317592,-9.88925508,114.4197126
4.17,417,0.098,-1.95,-0.184,12.6623718,85.42803780000001,35.17962120000001,72.86306886,-9.9981171,115.34790456
4.18,418,-0.054000000000000006,-2.156,0.039,37.586044799999996,92.0170548,21.485925,73.06360416,-9.95228046,116.30474442
4.1899999999999995,419,-0.037000000000000005,-2.289,0.03,35.122325399999994,95.9131692,16.386598799999998,73.24122114,-9.86060718,117.28450259999998
4.2,420,-0.002,-2.443,-0.032,22.5745452,91.95975899999999,19.9389384,73.29851693999998,-9.80904096,118.23561288
4.21,421,-0.053,-2.427,0.0,16.673077799999998,89.1522648,19.194093,73.29851693999998,-9.75747474,119.15234567999998
4.22,422,-0.045,-2.33,0.138,10.943497800000001,96.7726062,11.6310474,73.23549156,-9.61996482,120.12637428
4.2299999999999995,423,0.037000000000000005,-2.46,0.187,-2.5783110000000002,103.0751442,4.4690724,73.02922668,-9.39078162,121.13478036
4.24,424,0.095,-2.5860000000000003,0.204,-11.802934800000001,105.1950888,0.11459160000000004,72.73128852,-9.11576178,122.14891602
4.25,425,0.11699999999999999,-2.545,0.207,-16.7876694,108.002583,-1.2032118,72.38751372,-8.81209404,123.18597
4.26,426,0.1,-2.383,0.205,-16.558486199999994,111.84140159999998,-1.6615782,72.04373892,-8.49123756,124.25167188
4.27,427,0.018000000000000002,-2.076,0.184,-11.0007936,115.33644540000002,-4.0680017999999984,71.75725992,-8.13027402,125.34029208
4.28,428,-0.01,-1.879,0.21600000000000005,-1.3750992,117.9720522,-7.161975,71.57391336,-7.72347384,126.44610102
4.29,429,0.013000000000000001,-1.76,0.258,1.0313244000000001,119.461743,-9.453807,71.42494428,-7.29375534,127.55763954
4.3,430,0.079,-1.641,0.214,1.145916,119.461743,-10.4851314,71.29889352000002,-6.8411185199999975,128.6577189
4.31,431,0.196,-1.492,0.084,0.2291832000000001,120.2065884,-11.9748222,71.1613836,-6.3770225400000005,129.76352784
4.32,432,0.33,-1.371,-0.062,-0.9740286,118.3731228,-14.1520626,71.0181441,-5.895737819999999,130.84068888
4.33,433,0.498,-1.253,-0.213,-5.2712136,114.70619159999998,-15.6417534,70.8462567,-5.40872352,131.87774285999998
4.34,434,0.643,-1.065,-0.331,-2.4637194,105.1950888,-16.7303736,70.72593552,-4.93316838,132.81739398
4.35,435,0.6679999999999999,-0.752,-0.326,10.886202,86.40206640000002,-17.246035799999998,70.75458342,-4.42323576,133.56796896
4.36,436,0.5529999999999999,-0.56,-0.177,29.621928600000004,59.7022236,-14.7250206,71.00668494,-4.102379279999999,134.08936074
4.37,437,0.36,-0.455,-0.055,34.1482968,42.05511720000001,-9.740286,71.32181184,-3.88465524,134.45605386
4.38,438,0.195,-0.368,-0.028999999999999998,30.7678446,35.17962120000001,-0.057295800000000015,71.60829084,-3.77579322,134.79409908
4.39,439,0.021,-0.26,-0.034,27.960350399999996,34.2055926,9.740286,71.86612194,-3.77006364,135.14933304000002
4.3999999999999995,440,-0.094,-0.14800000000000002,-0.11699999999999999,22.5745452,42.1697088,17.4179232,72.03800934,-3.82735944,135.60769943999998
4.41,441,-0.149,-0.012,-0.23199999999999998,18.6784308,50.76407879999999,21.199446,72.18697842,-3.88465524,136.15773912
4.42,442,-0.175,0.124,-0.271,18.5638392,51.1651494,20.454600600000006,72.33021792000002,-3.93622146,136.70777880000003
4.43,443,-0.165,0.276,-0.215,22.517249399999997,45.1490904,15.756345,72.51929406000002,-3.9648693599999993,137.18333394
4.4399999999999995,444,-0.136,0.345,-0.125,28.132237800000002,36.6120162,10.7716104,72.77139558,-3.9648693599999993,137.5672158
4.45,445,-0.08,0.33799999999999997,-0.059000000000000004,28.074942,32.372127,4.9847346,73.01203794,-3.93049188,137.88807228
4.46,446,-0.006,0.28,-0.028999999999999998,24.350715,32.4294228,-1.6615782,73.23549156,-3.82735944,138.1974696
4.47,447,0.063,0.17300000000000001,-0.006999999999999999,18.5638392,35.9817624,-8.307891,73.3959198,-3.65547204,138.51832608
4.4799999999999995,448,0.078,0.048,-0.009000000000000001,12.261301199999998,41.0810886,-12.0894138,73.49332266,-3.43201842,138.87928962
4.49,449,0.05,-0.044000000000000004,-0.012,6.875496000000001,44.34694920000001,-12.834259199999998,73.53342971999999,-3.19710564,139.26890106
4.5,450,-0.01,-0.155,-0.084,0.40107059999999994,44.0031744,-12.3758928,73.49905224,-2.9736520200000003,139.6585125
4.51,451,-0.11599999999999999,-0.498,-0.395,-20.5691922,43.1437374,-17.589810600000003,73.26413946,-2.6929026,140.01947604
4.52,452,-0.111,-0.845,-0.711,-54.6028974,77.17744259999998,-35.7525792,72.67399272,-2.16005166,140.64400026
4.53,453,-0.053,-1.06,-0.52,-39.7632852,117.8574606,-48.70143,72.2213559,-1.38082878,141.61802885999995
4.54,454,0.036000000000000004,-1.065,-0.319,-9.568398599999998,106.1118216,-35.9817624,72.08957556,-0.7448454000000001,142.51757292
4.55,455,0.016,-1.1159999999999999,-0.10800000000000001,-3.5523396000000003,72.479187,-13.2353298,72.07811640000001,-0.41252976,143.15928588
4.56,456,0.131,-1.3030000000000002,-0.023,-15.011499599999999,62.5097178,-0.11459160000000004,71.91195858,-0.24064236,143.74943262
4.57,457,0.254,-1.6640000000000001,-0.267,-16.673077799999998,48.529542600000006,2.9220858,71.7343416,-0.13178034,144.21925818
4.58,458,0.14400000000000002,-2.137,-0.07400000000000001,-10.4851314,36.6120162,4.4690724,71.62547958,-0.06875496,144.58022172
4.59,459,0.336,-2.256,-0.040999999999999995,-4.1825934,33.231564,6.4744254,71.57391336,-0.04010706,144.91253736000004
4.6,460,0.475,-2.294,0.024,3.6096353999999997,25.78311,5.72958,71.61402042,-0.01718874,145.17609804
4.61,461,0.516,-2.454,0.001,2.9793816000000004,17.4179232,2.0626488000000003,71.64266832,0.01145916,145.34798544
4.62,462,0.489,-2.589,0.08199999999999999,4.297185,6.0733548,-1.0313244000000001,71.68277538,0.04010706,145.40528124
4.63,463,0.451,-2.568,0.139,4.2398892,-6.6463128000000005,1.145916,71.72861202,0.00572958,145.34225586
4.64,464,0.395,-2.463,0.16699999999999998,3.4377480000000005,-21.829699800000004,5.958763200000001,71.76871908,-0.10313244,145.15317972
4.6499999999999995,465,0.29,-2.338,0.16899999999999998,4.0680017999999984,-37.9298196,11.5164558,71.8202853,-0.32085648,144.83232324
4.66,466,0.21,-2.164,0.152,5.443101,-51.7381074,17.131444199999994,71.88331068,-0.62452422,144.39687516
4.67,467,0.165,-1.91,0.115,8.479778399999999,-61.9367598,22.803728399999997,71.98644312,-1.01413566,143.87548338000005
4.68,468,0.126,-1.676,0.038,9.224623800000002,-71.1040878,26.4706596,72.10676430000002,-1.4610428999999998,143.28533664
4.6899999999999995,469,-0.027000000000000003,-1.521,-0.121,3.8388186,-75.00020219999998,25.382039399999996,72.17551926,-1.90795014,142.64935326
4.7,470,-0.235,-1.386,-0.21899999999999997,-0.4583664000000001,-74.7137232,20.168121600000006,72.20989674,-2.3204799,142.00191072
4.71,471,-0.42100000000000004,-1.155,-0.253,-1.7761698000000001,-65.7755784,14.209358400000001,72.22708548,-2.6413363800000003,141.41749356
4.72,472,-0.486,-0.858,-0.27,4.3544808,-48.5868384,9.5111028,72.30157002,-2.86479,140.98204548
4.7299999999999995,473,-0.45899999999999996,-0.598,-0.278,18.334656,-31.741873200000004,6.3598338,72.5078349,-3.0080294999999997,140.70129605999998
4.74,474,-0.33799999999999997,-0.402,-0.184,34.4347758,-18.6784308,4.0680017999999984,72.86879844,-3.0939732,140.54086782
4.75,475,-0.132,-0.27699999999999997,-0.12300000000000001,43.602103799999995,-12.7196676,1.5469866,73.30424652,-3.14553942,140.42627622
4.76,476,0.003,-0.184,-0.174,46.5241896,-17.4179232,-2.1199446,73.79126082,-3.1627281600000003,140.2601184
4.77,477,0.065,-0.048,-0.179,49.6754586,-26.1268848,-6.8182002000000015,74.31265259999998,-3.15699858,139.99082814000002
4.78,478,0.071,0.07,-0.11199999999999999,49.1597964,-30.997027799999998,-12.4904844,74.83404438,-3.1054323600000004,139.66424208
4.79,479,0.03,0.125,-0.14300000000000002,37.3568616,-26.9863218,-17.4179232,75.2293854,-2.99084076,139.36630392
4.8,480,-0.018000000000000002,0.172,-0.22699999999999998,25.382039399999996,-15.011499599999999,-20.5118964,75.46429817999999,-2.8361421,139.16576862000002
4.81,481,-0.05,0.217,-0.221,23.491278,0.572958,-20.5691922,75.70494054,-2.62987722,139.12566156
4.82,482,-0.053,0.213,-0.17300000000000001,27.043617600000005,13.750992000000002,-17.6471064,75.96850122000002,-2.42934192,139.21733483999998
4.83,483,-0.075,0.166,-0.122,28.0176462,17.9908812,-10.943497800000001,76.24925064,-2.28037284,139.3720335
4.84,484,-0.08199999999999999,0.115,-0.105,25.7258142,14.9542038,-1.7188740000000002,76.50135216,-2.22880662,139.515273
4.85,485,-0.039,0.076,-0.040999999999999995,24.923673,9.682990199999999,5.72958,76.73626494,-2.2631841,139.61840544
4.86,486,0.061,0.012,0.013000000000000001,20.168121600000006,6.7609043999999985,10.1413566,76.93680024,-2.3491278,139.71007872
4.87,487,0.083,-0.076,-0.027999999999999997,11.745639,1.3178034,13.407217200000002,77.05712142,-2.47517856,139.75591536
4.88,488,0.055,-0.2,-0.134,2.291832,-2.0626488000000003,17.9908812,77.08003973999998,-2.65279554,139.77310409999998
4.89,489,0.047,-0.368,-0.253,-6.0733548,0.9740286,25.382039399999996,77.01128478000003,-2.89916748,139.83612948
4.8999999999999995,490,0.145,-0.894,-0.79,-46.29500640000001,31.1689152,45.034498799999994,76.50135216,-3.27159018,140.23720008
4.91,491,0.312,-1.104,-1.281,-65.7755784,31.054323600000004,71.21867940000001,75.80234340000001,-3.90184398,140.70129605999998
4.92,492,-0.077,-0.96,-0.574,30.7105488,-45.1490904,57.754166399999995,76.14038862,-4.549286520000001,140.4033579
4.93,493,-0.436,-1.239,0.151,78.38065440000003,-28.6479,16.386598799999998,76.95971856,-4.76128098,140.1741747
4.9399999999999995,494,-0.581,-1.591,0.215,63.5410422,5.9014674000000005,-7.161975,77.60143152,-4.675337279999999,140.22001134
4.95,495,-0.527,-2.0580000000000003,0.113,39.8778768,29.335449600000004,-4.010706000000001,77.9795838,-4.57793442,140.50076076
4.96,496,-0.381,-2.5860000000000003,0.003,19.2513888,27.3300966,3.380452200000001,78.1514712,-4.56074568,140.77578060000005
4.97,497,-0.222,-2.736,-0.106,15.527161800000002,32.830493399999995,12.6623718,78.27752196,-4.62377106,141.12528498
4.9799999999999995,498,-0.16399999999999998,-2.6069999999999998,-0.006,17.8762896,36.03905820000001,21.2567418,78.42076146,-4.76701056,141.520626
4.99,499,-0.287,-2.529,0.075,16.042824000000003,48.128472,24.350715,78.53535306,-4.9217092199999986,142.04201777999995
5.0,500,-0.341,-2.457,0.2,10.828906199999999,66.69231119999999,20.1108258,78.58118970000002,-5.0019233399999985,142.73529696
5.01,501,-0.35600000000000004,-2.376,0.249,2.2345362,76.77637200000002,12.7196676,78.52389389999998,-4.99619376,143.50879026
5.02,502,-0.287,-2.171,0.26899999999999996,-1.0886202,88.4074194,4.6409598,78.42649104,-4.893061319999998,144.37968642
5.03,503,-0.193,-1.945,0.251,-1.0886202,95.683986,-1.8907614,78.32335859999998,-4.70971476,145.31360795999996
5.04,504,-0.096,-1.719,0.188,-1.8334656000000005,100.84060799999999,-6.0160589999999985,78.21449658,-4.4748019800000005,146.28763656
5.05,505,0.038,-1.5319999999999998,0.1,-6.4744254,104.96590559999999,-7.906820400000001,78.07125708,-4.20551172,147.29031306
5.06,506,0.265,-1.3719999999999999,-0.064,-13.178034,106.68477959999998,-7.5057497999999985,77.84780346,-3.94195104,148.31590788
5.07,507,0.5,-1.209,-0.222,-15.928232399999999,97.1736768,-6.1879464,77.61289067999998,-3.70703826,149.24409984
5.08,508,0.602,-0.9690000000000001,-0.312,-7.9641161999999985,68.8122558,-3.0366774,77.48111034,-3.54661002,149.90873112000003
5.09,509,0.484,-0.754,-0.309,15.4125702,45.0917946,0.7448454000000001,77.60716109999998,-3.47212548,150.34990878
5.1,510,0.297,-0.54,-0.19899999999999998,35.7525792,28.5906042,2.1772404,77.93374716000002,-3.39764094,150.63638778
5.11,511,0.11599999999999999,-0.34299999999999997,-0.12,45.7793442,22.058882999999998,0.9167328000000001,78.38638397999998,-3.36326346,150.85411182
5.12,512,-0.001,-0.188,-0.076,50.24841660000001,25.0955604,-0.8594370000000001,78.87912786,-3.3059676599999994,151.10621334
5.13,513,-0.05,-0.069,-0.036000000000000004,52.2537696,31.111619399999995,0.40107059999999994,79.3833309,-3.26013102,151.41561066
5.14,514,-0.016,0.012,0.008,50.993262,34.7212548,4.4690724,79.87607478,-3.24294228,151.76511504
5.1499999999999995,515,0.040999999999999995,0.059000000000000004,-0.027999999999999997,45.1490904,34.0337052,9.9694692,80.29433412,-3.27731976,152.120349
5.16,516,0.095,0.032,-0.196,30.252182399999995,26.642546999999997,18.048177,80.58081312,-3.4148296799999995,152.41255758
5.17,517,0.107,0.047,-0.33,18.048177,15.011499599999999,23.0329116,80.75270051999998,-3.61536498,152.59590414
5.18,518,0.10300000000000001,0.124,-0.37,15.6990492,-4.3544808,25.55392680000001,80.91312875999998,-3.873196080000002,152.59590414
5.1899999999999995,519,0.07200000000000001,0.222,-0.36200000000000004,21.199446,-26.5279554,24.4080108,81.14804154,-4.14248634,152.37245052
5.2,520,0.031,0.26899999999999996,-0.29600000000000004,30.5386614,-38.5027776,17.131444199999994,81.45170928,-4.36021038,152.01721656
5.21,521,0.004,0.231,-0.184,37.9871154,-33.74722620000001,5.0993262,81.86423904,-4.44615408,151.69636008
5.22,522,0.019,0.154,-0.114,37.52874900000001,-18.6784308,-7.2192707999999985,82.26530964,-4.38885828,151.50728394
5.2299999999999995,523,0.077,0.107,-0.127,33.0596766,-5.958763200000001,-15.126091199999998,82.60908443999998,-4.24561878,151.4327994
5.24,524,0.126,0.11699999999999999,-0.168,35.5806918,-12.6623718,-18.7357266,82.98150714,-4.0680017999999984,151.28955990000003
5.25,525,0.07400000000000001,0.016,-0.11599999999999999,37.299565799999996,-29.736520199999998,-22.86102420000001,83.35965941999999,-3.85600734,150.974433
5.26,526,-0.076,-0.192,-0.026000000000000002,26.5852512,-37.6433406,-31.741873200000004,83.66332716000002,-3.57525792,150.56763282
5.27,527,-0.207,-0.721,-0.4970000000000001,-3.6669312000000014,-29.220858000000003,-50.47759979999999,83.64613842,-3.0997027800000003,150.22385802000005
5.28,528,-0.377,-1.6019999999999999,-0.882,-35.17962120000001,18.5638392,-76.0888224,83.28517488,-2.3376686399999995,150.32126088
5.29,529,-0.314,-2.4219999999999997,-0.7509999999999999,-40.7946096,106.1118216,-80.67248640000003,82.82107890000002,-1.44385416,151.26664158
5.3,530,-0.10400000000000001,-2.299,-0.1,15.9855282,66.9214944,-30.997027799999998,82.9643184,-1.07143146,151.8911658
5.31,531,0.23600000000000002,-2.049,-0.035,30.4813656,28.1895336,-5.0993262,83.26798613999998,-0.9912173399999998,152.16618564
5.32,532,0.396,-2.365,-0.025,30.7678446,0.2291832000000001,-15.928232399999999,83.57738346,-0.8307891,152.15472648
5.33,533,0.433,-2.436,-0.11699999999999999,18.8503182,-23.0329116,-26.1841806,83.77791876,-0.59014674,151.89689538
5.34,534,0.34600000000000003,-2.46,-0.08,14.8396122,-43.888582799999995,-25.0382646,83.938347,-0.37815228,151.44425856
5.35,535,0.32,-2.47,-0.042,11.3445684,-54.0299394,-25.9549974,84.05866818,-0.15469866,150.88275972
5.36,536,0.259,-2.454,-0.03,7.161975,-56.4936588,-30.4813656,84.13888229999998,0.09740286,150.29834255999995
5.37,537,0.139,-2.387,-0.013999999999999999,8.307891,-58.0406454,-30.882436199999997,84.23055558,0.36096354,149.69673666
5.38,538,0.069,-2.303,0.069,10.943497800000001,-61.36380179999999,-23.835052800000003,84.34514718,0.55576926,149.06648286
5.39,539,0.027000000000000003,-2.093,0.094,13.3499214,-65.3745078,-12.4904844,84.4826571,0.63598338,148.41331074
5.3999999999999995,540,-0.012,-1.8419999999999999,0.068,17.18874,-70.93220040000001,-3.7242269999999995,84.66027408,0.62452422,147.7085724
5.41,541,-0.034,-1.63,0.001,17.761698000000006,-73.2240324,1.0886202,84.84362064,0.56722842,146.99237490000004
5.42,542,-0.106,-1.421,-0.071,18.334656,-72.4218912,1.8907614,85.03269678,0.5099326200000001,146.28190697999997
5.43,543,-0.191,-1.225,-0.057,21.600516600000002,-69.8435802,1.0886202,85.25615040000002,0.4583664000000001,145.59435738
5.4399999999999995,544,-0.251,-1.06,-0.005,24.1215318,-63.770225399999994,0.9740286,85.50825191999998,0.41825934,144.96983316
5.45,545,-0.25,-0.914,0.016,25.668518399999996,-55.80610920000001,2.0626488000000003,85.78327176,0.32658606,144.41979348
5.46,546,-0.20800000000000002,-0.7609999999999999,-0.013999999999999999,24.4653066,-46.638781200000004,3.1512689999999997,86.03537328,0.28074942,143.96715666
5.47,547,-0.136,-0.56,-0.063,22.058882999999998,-39.19032720000001,3.7815228,86.26455648,0.22918320000000006,143.58327479999997
5.4799999999999995,548,-0.065,-0.33899999999999997,-0.040999999999999995,24.8663772,-36.096354,4.1825934,86.51665799999998,0.17761697999999998,143.23377041999996
5.49,549,-0.006999999999999999,-0.18100000000000002,-0.006999999999999999,26.0122932,-35.236917,3.4377480000000005,86.78594826,0.13178034,142.88999561999995
5.5,550,-0.02,-0.077,-0.043,24.2361234,-32.085648000000006,3.0366774,87.01513145999998,0.08021412,142.57486871999996
5.51,551,-0.09,0.026000000000000002,-0.102,24.7517856,-24.522602399999997,2.86479,87.26723297999996,0.05156622,142.33422636
5.52,552,-0.162,0.10300000000000001,-0.165,27.3873924,-14.7823164,2.1772404,87.54798240000002,0.028647900000000007,142.19098686
5.53,553,-0.21100000000000002,0.14,-0.20800000000000002,29.736520199999998,-7.906820400000001,-1.0886202,87.85165014,0.04010706,142.11650232
5.54,554,-0.257,0.172,-0.20199999999999999,32.8877892,-3.0366774,-6.6463128000000005,88.18396578000002,0.10886202,142.08785442
5.55,555,-0.22899999999999998,0.191,-0.131,36.7266078,8.5370742,-13.407217200000002,88.54492932000002,0.21772404,142.16806853999995
5.56,556,-0.138,0.198,-0.08800000000000001,37.7006364,24.9809688,-18.5638392,88.9230816,0.40680018,142.41444048
5.57,557,-0.052000000000000005,0.168,-0.139,32.544014399999995,36.2109456,-19.9962342,89.24966766,0.6016058999999999,142.77540402
5.58,558,-0.002,0.102,-0.215,21.772404,36.03905820000001,-15.183387000000002,89.47312128,0.75057498,143.13063798000005
5.59,559,-0.003,0.04,-0.285,9.5111028,24.2934192,-4.8128472,89.57052414,0.7906820400000001,143.37128034
5.6,560,-0.04,0.03,-0.303,-0.286479,8.250595200000001,6.990087599999999,89.51895792,0.7161975,143.45149446
5.61,561,-0.042,0.133,-0.185,3.9534102,-0.057295800000000015,13.2926256,89.55906498,0.5844171599999999,143.45149446
5.62,562,-0.042,0.14,-0.054000000000000006,12.318597,-3.8388186,12.5477802,89.68511574,0.4583664000000001,143.41138740000005
5.63,563,0.031,-0.057,-0.036000000000000004,14.381245800000002,5.0993262,11.688343199999998,89.82835524000002,0.3437748,143.4686832
5.64,564,0.141,-0.45299999999999996,-0.016,0.5156622000000001,20.9702628,17.9335854,89.83408482,0.16042824,143.67494808
5.6499999999999995,565,0.312,-1.3869999999999998,-0.6890000000000001,-62.16594300000001,44.5761324,41.539455,89.18664228,-0.25783110000000004,144.11039616
5.66,566,0.317,-2.633,-1.46,-120.8368422,-5.443101,57.35309579999999,87.96051216,-0.83651868,144.05310036
5.67,567,0.129,-3.2560000000000002,-0.899,-21.5432208,-63.6556338,27.3300966,87.76570644,-1.1172681,143.43430572
5.68,568,0.012,-2.6630000000000003,0.19899999999999998,58.78549079999999,-60.8481396,0.6875496,88.3787715,-1.12872726,142.8384294
5.6899999999999995,569,-0.151,-2.026,0.319,68.35388940000001,-22.0015872,12.2040054,89.08350984,-1.24331886,142.63216452
5.7,570,-0.326,-2.311,0.122,62.16594300000001,13.120738199999998,21.4286292,89.70803406,-1.44958374,142.76967444
5.71,571,-0.397,-2.647,0.10800000000000001,38.5600734,20.7983754,32.372127,90.09191592,-1.7761698000000001,142.97593932
5.72,572,-0.368,-2.5269999999999997,0.203,23.2620948,36.2109456,36.2109456,90.31536954,-2.14286292,143.33690285999995
5.7299999999999995,573,-0.381,-2.44,0.217,11.0580894,50.6494872,31.455394199999997,90.39558366,-2.47517856,143.83537632
5.74,574,-0.23199999999999998,-2.392,0.171,-4.4117766,64.457775,29.4500412,90.31536954,-2.79030546,144.4713597
5.75,575,-0.085,-2.1790000000000003,0.17,-14.896907999999998,70.9894962,25.84040580000001,90.12056382,-3.07105488,145.17036846000005
5.76,576,-0.032,-1.94,0.16899999999999998,-19.0222056,78.32335859999998,19.9389384,89.87419188,-3.28877892,145.94386176
5.77,577,-0.002,-1.768,0.138,-19.194093,83.4226848,16.1001198,89.62209035999999,-3.47212548,146.76892128
5.78,578,0.001,-1.5519999999999998,0.092,-17.18874,83.53727640000002,14.209358400000001,89.38144799999998,-3.62682414,147.59398080000003
5.79,579,0.032,-1.306,0.083,-16.042824000000003,80.3860074,11.401864199999999,89.15799438,-3.75860448,148.39039242
5.8,580,0.009000000000000001,-1.137,0.039,-14.0947668,78.38065440000003,8.59437,88.95745908,-3.8388186000000006,149.16388572
5.81,581,0.062,-0.973,0.0,-14.0947668,74.9429064,7.9641161999999985,88.7511942,-3.9247623,149.90873112000003
5.82,582,0.13699999999999998,-0.8140000000000001,-0.067,-9.3392154,70.9894962,9.1100322,88.59649553999998,-4.01643558,150.61346945999995
5.83,583,0.22399999999999998,-0.654,-0.125,0.5156622000000001,61.9367598,9.9121734,88.5506589,-4.11956802,151.22653452
5.84,584,0.272,-0.46799999999999997,-0.091,14.381245800000002,48.071176200000004,8.880849000000003,88.65952092,-4.20551172,151.70781924
5.85,585,0.282,-0.33299999999999996,-0.01,25.8977016,36.4401288,7.6203414,88.88870412,-4.2398892,152.06878278
5.86,586,0.297,-0.275,0.006,28.4760126,30.137590799999998,8.193299399999999,89.1522648,-4.325832900000001,152.37245052
5.87,587,0.309,-0.233,-0.036000000000000004,24.694489800000003,28.6479,11.2872726,89.38144799999998,-4.4404245000000016,152.6646591
5.88,588,0.281,-0.18,-0.035,24.2361234,28.1895336,16.615782,89.59917204,-4.60658232,152.94540852
5.89,589,0.24,-0.15,-0.018000000000000002,26.069589,27.215505,23.4339822,89.83981440000002,-4.84722468,153.22042836
5.8999999999999995,590,0.13,-0.129,-0.027999999999999997,27.3300966,24.2361234,30.194886600000004,90.08045676,-5.127974099999999,153.46107072
5.91,591,0.049,-0.09699999999999999,-0.065,28.418716800000002,19.9962342,33.6899304,90.34974702,-5.466019319999999,153.66160602
5.92,592,-0.006999999999999999,-0.099,-0.10400000000000001,30.4813656,16.2147114,32.8877892,90.6419556,-5.79833496,153.82203426
5.93,593,-0.023,-0.111,-0.115,33.4607472,15.068795399999999,28.533308399999996,90.96281208,-6.08481396,153.97100334
5.9399999999999995,594,-0.042,-0.138,-0.11,34.4347758,18.2200644,21.600516600000002,91.29512772,-6.3025379999999975,154.1543499
5.95,595,-0.05,-0.13699999999999998,-0.113,32.4867186,22.5745452,14.1520626,91.57014756,-6.462966239999997,154.37780352
5.96,596,-0.048,-0.124,-0.092,29.392745399999995,28.762491600000004,10.657018800000001,91.83370824,-6.58328742,154.66428252
5.97,597,-0.026000000000000002,-0.113,-0.073,24.2361234,34.7785506,10.084060800000001,92.03424354,-6.7036086,155.00805731999995
5.9799999999999995,598,-0.006,-0.121,-0.079,18.2200644,38.10170700000001,10.1986524,92.17175346,-6.82392978,155.3862096
5.99,599,-0.05,-0.171,-0.14,11.401864199999999,36.6120162,8.3651868,92.24050842,-6.9327918,155.74717314
6.0,600,-0.256,-0.4,-0.292,-2.0053530000000004,27.3300966,0.2291832000000001,92.03997312,-7.05884256,156.03365214000004
6.01,601,-0.565,-0.826,-0.579,-36.4974246,18.048177,-21.5432208,91.6446321,-6.858307260000001,156.2169987
6.02,602,-0.518,-1.265,-0.544,-62.68160520000001,67.1506776,-54.7747848,90.92270502,-6.35410422,156.89308913999997
6.03,603,-0.115,-1.57,-0.9109999999999999,-74.65642740000001,148.6253052,-67.322565,89.98878348,-5.74103916,158.36559119999995
6.04,604,0.087,-1.4869999999999999,-0.653,11.5737516,126.5091264,-37.4714532,89.96586515999998,-5.3972643599999985,159.62609880000005
6.05,605,0.11699999999999999,-1.676,-0.098,51.4516284,52.2537696,-14.209358400000001,90.43569072,-5.2654840200000015,160.14749058
6.06,606,0.247,-1.9869999999999999,0.253,48.185767799999994,27.215505,-16.386598799999998,90.89405712,-5.10505578,160.42824000000005
6.07,607,0.322,-2.238,0.17300000000000001,25.152856200000002,29.793815999999996,-26.4706596,91.11751074,-4.8586838399999985,160.73190774
6.08,608,0.11199999999999999,-2.221,0.026000000000000002,7.1046792000000005,29.8511118,-34.7212548,91.16334738,-4.5263682,161.03557548
6.09,609,-0.03,-2.055,-0.083,0.8594370000000001,33.6326346,-40.7373138,91.14042906,-4.13675676,161.37935027999995
6.1,610,-0.076,-1.9769999999999999,0.027000000000000003,6.3598338,43.1437374,-42.112413000000004,91.16907696,-3.73568616,161.81479836
6.11,611,-0.25,-1.933,0.077,0.286479,57.52498320000001,-43.1437374,91.1289699,-3.33461556,162.39348594
6.12,612,-0.465,-1.901,0.032,-9.2819196,80.04223259999998,-44.06047020000001,90.98000082,-2.93354496,163.19562714
6.13,613,-0.5429999999999999,-1.903,0.013999999999999999,-11.0580894,99.0071424,-39.47680620000001,90.80238384,-2.58977016,164.1811149
6.14,614,-0.513,-1.801,0.021,-13.636400400000001,117.28450259999998,-30.3094782,90.60184854,-2.33193906,165.34421964
6.15,615,-0.429,-1.614,0.032,-14.896907999999998,135.33267959999998,-21.142150199999996,90.37839492,-2.18296998,166.67921178
6.16,616,-0.325,-1.475,0.028999999999999998,-14.4958374,152.5214196,-13.3499214,90.1549413,-2.09702628,168.19182089999995
6.17,617,-0.248,-1.411,0.019,-11.0007936,166.7880738,-7.9641161999999985,89.96013558000001,-2.06837838,169.83621036
6.18,618,-0.168,-1.361,0.04,-6.0160589999999985,178.1326422,-5.5576926,89.8111665,-2.05691922,171.600921
6.1899999999999995,619,-0.095,-1.29,0.033,-2.8074942000000003,190.3939434,-5.1566220000000005,89.68511574,-2.05118964,173.48022324
6.2,620,-0.057,-1.147,0.023,-0.6875496,203.3427942,-5.844171599999999,89.5819833,-2.0340009,175.49130582
6.21,621,-0.066,-1.0170000000000001,0.033,0.2291832000000001,211.59338939999998,-6.9327918,89.48458044,-2.005353,177.58260252
6.22,622,-0.09,-0.92,0.028999999999999998,0.5156622000000001,218.296998,-8.4224826,89.38144799999998,-1.96524594,179.74265418
6.2299999999999995,623,-0.111,-0.8220000000000001,0.023,0.3437748,224.6568318,-10.1986524,89.28404514,-1.89649098,-178.02950976
6.24,624,-0.122,-0.716,0.05,1.4896908000000002,229.6988622,-11.802934800000001,89.19237186000002,-1.81054728,-175.76059607999997
6.25,625,-0.102,-0.618,0.077,2.3491277999999998,234.5690052,-11.688343199999998,89.11788732,-1.73033316,-173.44011618
6.26,626,-0.08800000000000001,-0.557,0.08800000000000001,4.2398892,239.2672608,-10.3705398,89.06059152,-1.6558486199999998,-171.07952922
6.27,627,-0.043,-0.519,0.09300000000000001,6.9327918,243.96551639999998,-8.8235532,89.03194361999998,-1.59282324,-168.66737604
6.28,628,0.008,-0.475,0.11599999999999999,8.3651868,244.8249534,-8.307891,89.01475488,-1.53552744,-166.2437637
6.29,629,0.085,-0.449,0.147,6.990087599999999,241.10072639999999,-8.4224826,88.99183656,-1.4782316400000002,-163.86025841999995
6.3,630,0.165,-0.442,0.159,4.6409598,234.85548419999998,-8.4224826,88.96318865999999,-1.39801752,-161.53977852
6.31,631,0.222,-0.449,0.132,0.0,226.89136800000003,-7.9641161999999985,88.87724496000001,-1.34072172,-159.29951274
6.32,632,0.24,-0.47600000000000003,0.076,-6.8182002000000015,218.98454759999998,-7.161975,88.72827588,-1.28342592,-157.13373149999995
6.33,633,0.21600000000000005,-0.546,-0.036000000000000004,-14.32395,211.02043140000004,-4.010706000000001,88.51055184,-1.25477802,-155.05389396
6.34,634,0.156,-0.5589999999999999,-0.156,-18.6784308,201.7958076,1.2032118,88.24699116,-1.26623718,-153.06000011999996
6.35,635,0.08900000000000001,-0.51,-0.195,-18.1054728,192.0555216,6.8182002000000015,87.9777009,-1.32353298,-151.15777956000005
6.36,636,0.0,-0.424,-0.19699999999999998,-16.386598799999998,183.7476306,11.401864199999999,87.74278812,-1.4209358399999998,-149.34150269999995
6.37,637,-0.08199999999999999,-0.348,-0.185,-13.0061466,176.9867262,16.501190400000002,87.54225282,-1.55844576,-147.58252164
6.38,638,-0.163,-0.289,-0.159,-10.2559482,170.0539344,20.7983754,87.36463583999998,-1.74179232,-145.89802512
6.39,639,-0.21600000000000005,-0.21899999999999997,-0.13699999999999998,-9.1100322,165.871341,21.886995600000002,87.19847802,-1.92513888,-144.24790607999995
6.4,640,-0.193,-0.214,-0.07200000000000001,-6.3598338,168.62153940000005,21.142150199999996,87.04950894,-2.11421502,-142.56913914
6.41,641,-0.008,-0.42200000000000004,-0.012,-13.2926256,177.5023884,23.0329116,86.82032574,-2.30329116,-140.8044285
6.42,642,0.281,-0.757,0.05,-30.4813656,189.0188442,35.4088044,86.40779597999996,-2.59549974,-138.91939668
6.43,643,0.32899999999999996,-1.219,-0.166,-64.22859179999999,165.18379140000005,50.8786704,85.65149142,-3.04240698,-137.25781848
6.4399999999999995,644,0.379,-1.726,-0.626,-92.1316464,126.16535159999998,57.4103916,84.63162618,-3.54661002,-135.97439256
6.45,645,0.341,-1.6780000000000002,-0.5579999999999999,-42.91455420000001,92.1889422,45.1490904,84.11023440000002,-3.9190327200000006,-135.02328228
6.46,646,0.11599999999999999,-1.5390000000000001,-0.126,31.340802600000004,96.829902,23.663165399999997,84.35087675999998,-4.08519054,-134.04352409999998
6.47,647,-0.094,-1.686,0.052000000000000005,49.560867,107.9452872,8.136003599999999,84.76340652,-4.08519054,-132.96063348
6.4799999999999995,648,-0.24600000000000002,-1.777,0.125,46.00852740000001,112.2424722,0.0,85.13582922,-4.01643558,-131.84336538
6.49,649,-0.408,-1.646,0.23600000000000002,35.6379876,116.4250656,-2.0053530000000004,85.39938989999997,-3.93049188,-130.6917198
6.5,650,-0.46299999999999997,-1.556,0.4,23.491278,132.1814106,-2.4637194,85.54262940000002,-3.84454818,-129.38537556
6.51,651,-0.318,-1.6869999999999998,0.368,6.1879464,162.8919594,-1.2605076000000002,85.47960402,-3.74714532,-127.76963400000001
6.52,652,-0.10400000000000001,-1.811,0.306,-4.1252976000000015,182.6590104,2.5783110000000002,85.29625746,-3.67839036,-125.9648163
6.53,653,0.064,-1.775,0.27,-5.844171599999999,191.3106762,7.0473834,85.08999258,-3.644012880000001,-124.06832532
6.54,654,0.158,-1.6480000000000001,0.213,-1.7761698000000001,197.72780580000003,11.3445684,84.91810518,-3.6382833,-122.10307938
6.55,655,0.165,-1.496,0.166,8.021412000000002,198.3580596,14.438541599999999,84.8550798,-3.65547204,-120.12637428
6.56,656,0.115,-1.329,0.154,16.7876694,192.28470480000001,13.464512999999998,84.87799812,-3.666931200000001,-118.21269456
6.57,657,0.066,-1.169,0.163,22.517249399999997,185.86757519999998,9.167328,84.96394182,-3.644012880000001,-116.3677698
6.58,658,0.044000000000000004,-1.042,0.177,24.064236,184.3205886,3.7242269999999995,85.07280384,-3.56952834,-114.54003378
6.59,659,0.051,-0.9540000000000001,0.165,22.4599536,186.3259416,-0.4583664000000001,85.15874754000002,-3.46066632,-112.69510902
6.6,660,0.069,-0.8540000000000001,0.15,21.600516600000002,188.56047780000003,-2.291832,85.26187998,-3.31742682,-110.82726594
6.61,661,0.10099999999999999,-0.777,0.138,22.4026578,189.7636896,-1.4896908000000002,85.35928284,-3.20283522,-108.95369328
6.62,662,0.128,-0.7340000000000001,0.11,23.663165399999997,189.1334358,0.9740286,85.46814486,-3.11116194,-107.08012062
6.63,663,0.13699999999999998,-0.706,0.079,24.0069402,187.07078700000002,3.7242269999999995,85.58846604,-3.05386614,-105.2237367
6.64,664,0.147,-0.684,0.08900000000000001,24.5798982,183.633039,5.844171599999999,85.7145168,-3.01948866,-103.40173026
6.65,665,0.175,-0.67,0.08900000000000001,24.4653066,180.768249,6.3025379999999975,85.85775629999998,-2.9793816000000004,-101.60837172
6.66,666,0.225,-0.672,0.063,25.152856200000002,178.3618254,4.9274388,85.99526621999998,-2.9507337000000002,-99.8379315
6.67,667,0.282,-0.682,0.046,26.929026,172.2884706,3.5523396000000003,86.16142404,-2.91635622,-98.12478708
6.68,668,0.303,-0.6920000000000001,0.039,30.137590799999998,163.3503258,3.5523396000000003,86.36195934,-2.88770832,-96.50331594
6.6899999999999995,669,0.314,-0.706,0.036000000000000004,33.4607472,154.35488519999996,4.583664,86.60260170000002,-2.87624916,-94.97351808
6.7,670,0.309,-0.7240000000000001,0.033,36.8411994,145.7605152,5.443101,86.88908070000002,-2.85333084,-93.52393434
6.71,671,0.3,-0.75,0.031,40.2789474,138.369357,6.0160589999999985,87.20993718,-2.87624916,-92.14883514
6.72,672,0.262,-0.7879999999999999,0.022000000000000002,43.602103799999995,131.7230442,5.844171599999999,87.57090072000004,-2.91062664,-90.83676132
6.7299999999999995,673,0.217,-0.82,0.036000000000000004,46.982556,128.34259200000002,5.7868758000000025,87.96624174,-2.9507337000000002,-89.55906498
6.74,674,0.17800000000000002,-0.8540000000000001,0.065,48.3576552,127.42585919999999,5.3285094000000015,88.37304191999998,-2.99084076,-88.28709822
6.75,675,0.146,-0.917,0.038,46.5241896,131.1500862,3.6669312000000014,88.76265336,-3.0137590800000003,-86.98648356
6.76,676,0.102,-0.992,-0.004,44.51883660000001,138.77042759999998,2.291832,89.12361690000002,-3.04240698,-85.60565478000002
6.77,677,0.042,-1.043,-0.022000000000000002,41.825934000000004,145.817811,3.0939732,89.45020296,-3.0939732,-84.15607104
6.78,678,-0.019,-1.08,-0.015,36.4401288,152.8651944,5.844171599999999,89.71376364,-3.1799169000000003,-82.63773234
6.79,679,-0.095,-1.1159999999999999,0.006999999999999999,28.762491600000004,160.19905680000005,9.396511199999999,89.8971102,-3.3116972399999995,-81.05063868
6.8,680,-0.096,-1.171,-0.022000000000000002,19.136797199999997,166.73077800000004,12.4904844,89.96586515999998,-3.47785506,-79.39479005999998
6.81,681,-0.139,-1.286,-0.185,2.9793816000000004,162.0325224,13.407217200000002,89.87419188,-3.65547204,-77.79050766
6.82,682,-0.2,-1.431,-0.33399999999999996,-4.8701430000000006,146.10429,7.2765666,89.71376364,-3.76433406,-76.34665349999999
6.83,683,-0.18899999999999997,-1.515,-0.31,8.193299399999999,142.66654200000005,-11.5164558,89.68511574,-3.67839036,-74.93144724
6.84,684,-0.113,-1.44,-0.265,17.4179232,153.4381524,-32.6013102,89.74241154,-3.38618178,-73.41310854000002
6.85,685,0.065,-1.194,-0.19899999999999998,22.5745452,161.23038119999995,-39.5913978,89.84554397999999,-3.0137590800000003,-71.81455572
6.86,686,0.244,-0.904,-0.13699999999999998,32.142943800000005,155.0997306,-33.2888598,90.07472718,-2.72728008,-70.27329870000001
6.87,687,0.299,-0.693,0.006999999999999999,40.7946096,136.87966619999997,-23.777757,90.40704282,-2.52674478,-68.91538824
6.88,688,0.313,-0.629,0.124,42.34159620000001,114.70619159999998,-15.928232399999999,90.77373594,-2.41215318,-67.77520182
6.89,689,0.309,-0.634,0.145,37.1276784,91.9024632,-9.8548776,91.10032199999999,-2.3491278,-66.85846902
6.9,690,0.267,-0.6809999999999999,0.19,32.830493399999995,74.31265259999998,-7.734933000000002,91.42117848,-2.2631841,-66.1193532
6.91,691,0.19899999999999998,-0.782,0.209,26.69984280000001,63.9994086,-8.880849000000003,91.65609126,-2.2058883,-65.48336982
6.92,692,0.091,-0.9209999999999999,0.201,20.3973048,66.0620574,-11.802934800000001,91.82797866,-2.12567418,-64.82446811999999
6.93,693,-0.027000000000000003,-1.051,0.192,14.7823164,73.6823988,-15.183387000000002,91.94257026,-2.01681216,-64.0853523
6.9399999999999995,694,-0.127,-1.145,0.18600000000000005,8.7089616,83.4799806,-16.7303736,91.99413648,-1.90222056,-63.25456319999999
6.95,695,-0.209,-1.19,0.15,1.3178034,91.4440968,-15.756345,91.97121816,-1.82200644,-62.34928956
6.96,696,-0.275,-1.162,0.131,-2.9220858,94.0224078,-13.0061466,91.9024632,-1.7475218999999995,-61.41536802
6.97,697,-0.273,-1.06,0.128,-2.1199446,91.67328,-9.6256944,91.83943782,-1.7074148399999998,-60.50436480000001
6.9799999999999995,698,-0.196,-0.978,0.139,0.3437748,88.2928278,-6.9327918,91.80506034,-1.6902260999999998,-59.63346864
6.99,699,-0.087,-0.9690000000000001,0.157,5.3858052,83.93834700000002,-5.958763200000001,91.82224908,-1.6787669399999998,-58.796949960000006
7.0,700,-0.008,-0.995,0.179,7.906820400000001,79.06820400000002,-6.2452422,91.89673362,-1.6558486199999998,-58.01772708
7.01,701,0.026000000000000002,-1.031,0.201,8.136003599999999,72.25000379999999,-6.703608600000001,91.94829984,-1.6329303,-57.30152958
7.02,702,0.03,-1.064,0.222,7.448453999999999,64.9161414,-6.5317212,91.99413648,-1.6042824000000002,-56.65408704
7.03,703,0.002,-1.095,0.214,5.3858052,60.045998399999995,-5.2712136,92.02851396,-1.59282324,-56.05821072
7.04,704,-0.046,-1.113,0.19899999999999998,4.1252976000000015,56.66554620000001,-3.3231564,92.0457027,-1.59282324,-55.49671188
7.05,705,-0.077,-1.1159999999999999,0.204,4.297185,53.9726436,-0.6875496,92.09726892,-1.6272007199999998,-54.96386094
7.06,706,-0.08,-1.099,0.20199999999999999,4.4690724,52.3683612,2.0626488000000003,92.12018724,-1.6844965200000002,-54.44819874
7.07,707,-0.083,-1.077,0.195,3.8388186,50.1911208,4.9274388,92.13737598,-1.76471064,-53.95545486
7.08,708,-0.084,-1.061,0.185,2.6929026,48.4722468,6.130650599999999,92.14310556,-1.85638392,-53.47989972000001
7.09,709,-0.091,-1.043,0.18600000000000005,2.4637194,47.9565846,5.72958,92.14883514,-1.94232762,-53.00434458
7.1,710,-0.09,-1.01,0.195,3.0366774,48.8160216,4.583664,92.19467178,-2.0340009,-52.52878943999999
7.11,711,-0.087,-0.9670000000000001,0.201,3.1512689999999997,50.24841660000001,3.8961144,92.20613094,-2.10848544,-52.03031598
7.12,712,-0.095,-0.9329999999999999,0.201,3.8961144,50.47759979999999,3.6669312000000014,92.2175901,-2.1772404,-51.53184252
7.13,713,-0.11699999999999999,-0.9179999999999999,0.179,4.1252976000000015,50.1911208,3.2085647999999996,92.23477884,-2.24026578,-51.03909864
7.14,714,-0.14300000000000002,-0.9129999999999999,0.156,3.9534102,49.90464179999999,2.1772404,92.25196758,-2.29756158,-50.54635476
7.15,715,-0.14400000000000002,-0.9079999999999999,0.149,2.8074942000000003,49.5035712,0.1718874,92.28061548,-2.36058696,-50.05934046
7.16,716,-0.13699999999999998,-0.9079999999999999,0.14,2.1199446,49.388979600000006,-0.8594370000000001,92.2748859,-2.38350528,-49.57232616
7.17,717,-0.128,-0.9309999999999999,0.11699999999999999,1.145916,49.274388,-1.0886202,92.26342674,-2.4064236,-49.08531186
7.18,718,-0.125,-0.956,0.081,0.4583664000000001,48.414951,-1.3178034,92.24050842,-2.42361234,-48.60402714000001
7.1899999999999995,719,-0.10099999999999999,-0.968,0.062,0.9740286,47.0971476,-2.0053530000000004,92.22331968,-2.4350715000000003,-48.13993116
7.2,720,-0.073,-0.95,0.059000000000000004,2.4064236,46.00852740000001,-3.4377480000000005,92.22331968,-2.44080108,-47.68156476
7.21,721,-0.057,-0.9279999999999999,0.064,4.4690724,44.404245,-4.583664,92.246238,-2.42361234,-47.24038710000001
7.22,722,-0.05,-0.9209999999999999,0.062,6.2452422,41.0810886,-5.2712136,92.28634506,-2.39496444,-46.83358692
7.2299999999999995,723,-0.035,-0.9179999999999999,0.055,7.1046792000000005,33.9191136,-6.5317212,92.33791128,-2.35485738,-46.4955417
7.24,724,-0.018000000000000002,-0.909,0.055999999999999994,7.3911582,26.4706596,-8.4224826,92.40093666,-2.28610242,-46.22625144
7.25,725,0.008,-0.9059999999999999,0.068,8.5370742,19.4232762,-10.7143146,92.48688036,-2.17151082,-46.03144572000001
7.26,726,0.034,-0.919,0.08199999999999999,9.568398599999998,13.120738199999998,-12.605075999999999,92.57282406,-2.05118964,-45.8939358
7.27,727,0.046,-0.955,0.096,9.682990199999999,6.875496000000001,-14.266654199999998,92.67022692,-1.91367972,-45.81945126
7.28,728,0.043,-0.996,0.098,8.250595200000001,2.291832,-15.928232399999999,92.75044104,-1.75898106,-45.78507378
7.29,729,0.047,-1.044,0.069,4.9274388,-1.0886202,-17.131444199999994,92.80200726,-1.5870936600000003,-45.79080336
7.3,730,0.017,-1.1340000000000001,0.04,1.9480572,-3.380452200000001,-17.18874,92.80773684,-1.38655836,-45.81372168
7.31,731,0.063,-1.171,0.021,-4.5263682,-5.042030400000002,-15.4125702,92.7619002,-1.2318597,-45.85382874
7.32,732,0.09699999999999999,-1.203,0.035,-3.4950437999999995,-8.651665800000002,-11.9748222,92.72752272,-1.10580894,-45.93404286
7.33,733,0.098,-1.23,0.047,-1.0313244000000001,-13.9228794,-6.589017,92.72179314,-1.0313244000000001,-46.07155278000001
7.34,734,0.062,-1.217,0.042,2.6356068,-19.8816426,-0.9740286,92.75044104,-1.0026765,-46.2663585
7.35,735,0.011000000000000001,-1.155,0.023,6.130650599999999,-24.694489800000003,3.2085647999999996,92.80200726,-1.01413566,-46.51273044
7.36,736,-0.03,-1.041,0.023,8.651665800000002,-27.8457588,4.9847346,92.89941012,-1.03705398,-46.78775028
7.37,737,-0.061,-0.929,0.07400000000000001,11.3445684,-28.418716800000002,4.5263682,93.02546088,-1.0599723,-47.0684997
7.38,738,-0.09,-0.88,0.133,13.8655836,-26.069589,2.86479,93.17442996,-1.06570188,-47.326330799999994
7.39,739,-0.121,-0.903,0.15,15.068795399999999,-19.8816426,0.7448454000000001,93.3348582,-1.0599723,-47.521136520000006
7.4,740,-0.161,-0.958,0.136,13.8082878,-14.209358400000001,-0.11459160000000004,93.50674559999999,-1.14018642,-47.65864644
7.41,741,-0.162,-1.022,0.115,10.7143146,-7.5057497999999985,-0.8021411999999999,93.6213372,-1.12299768,-47.73313098
7.42,742,-0.131,-1.041,0.08800000000000001,6.6463128000000005,0.11459160000000004,-1.3178034,93.68436258,-1.11153852,-47.72740140000001
7.43,743,-0.091,-1.0290000000000001,0.068,4.4690724,7.3911582,-1.6042823999999998,93.73019922,-1.10007936,-47.65291686
7.4399999999999995,744,-0.047,-1.0,0.061,3.4950437999999995,12.9488508,-1.5469866,93.75884712,-1.10007936,-47.5268661
7.45,745,-0.006999999999999999,-0.973,0.073,2.9220858,15.527161800000002,-0.8594370000000001,93.77603586,-1.07716104,-47.37216744000001
7.46,746,0.018000000000000002,-0.965,0.07400000000000001,1.8907614,15.6990492,0.2291832000000001,93.79322459999999,-1.09434978,-47.21746878
7.47,747,0.026000000000000002,-0.981,0.073,0.6875496,14.610429000000002,1.2605076000000002,93.79895417999998,-1.12299768,-47.07422928
7.4799999999999995,748,0.027000000000000003,-0.998,0.069,0.2291832000000001,14.0947668,1.5469866,93.79322459999999,-1.1459160000000002,-46.93671936
7.49,749,0.03,-1.0090000000000001,0.057999999999999996,0.11459160000000004,14.4958374,0.8594370000000001,93.78749502,-1.1688343199999998,-46.79347986
7.5,750,0.03,-1.0070000000000001,0.042,0.3437748,14.9542038,-0.5156622000000001,93.7359288,-1.12299768,-46.64451078000001
7.51,751,0.019,-0.99,0.037000000000000005,0.4583664000000001,15.2406828,-1.8907614,93.7359288,-1.1172681,-46.48981212
7.52,752,-0.001,-0.982,0.044000000000000004,0.1718874,17.246035799999998,-3.2658606,93.7359288,-1.10007936,-46.31792471999999
7.53,753,-0.03,-0.966,0.061,0.3437748,20.2827132,-3.7815228,93.73019922,-1.08289062,-46.11738942
7.54,754,-0.049,-0.9570000000000001,0.10300000000000001,1.2605076000000002,22.0015872,-2.6356068,93.7359288,-1.07716104,-45.89966538
7.55,755,-0.046,-0.987,0.134,0.6302538000000001,21.829699800000004,-0.5156622000000001,93.77603586,-1.10580894,-45.68194134
7.56,756,-0.021,-1.02,0.14300000000000002,-0.286479,21.199446,0.11459160000000004,93.7645767,-1.12299768,-45.47567646
7.57,757,0.017,-1.048,0.126,-1.6615782,20.2254174,-0.1718874,93.74165838,-1.14018642,-45.27514116
7.58,758,0.048,-1.07,0.092,-4.6409598,19.480572,-0.8594370000000001,93.69009216,-1.15164558,-45.08033544
7.59,759,0.055,-1.08,0.063,-7.3911582,18.8503182,-1.6615782,93.60987804,-1.15164558,-44.89698888
7.6,760,0.044000000000000004,-1.0659999999999998,0.049,-9.5111028,18.048177,-2.1772404,93.48382728,-1.1172681,-44.7193719
7.61,761,0.02,-1.042,0.043,-11.2299768,17.589810600000003,-2.0053530000000004,93.3635061,-1.11153852,-44.547484499999996
7.62,762,-0.006999999999999999,-1.028,0.057,-11.802934800000001,17.6471064,-1.0886202,93.23745534,-1.1172681,-44.36986752
7.63,763,-0.027999999999999997,-1.026,0.071,-10.313244000000001,18.162768600000003,-0.057295800000000015,93.12859332,-1.12872726,-44.19225054
7.64,764,-0.040999999999999995,-1.014,0.079,-7.161975,18.6784308,0.0,93.0483792,-1.1459160000000002,-44.00890398
7.65,765,-0.044000000000000004,-1.0090000000000001,0.08199999999999999,-5.5576926,18.5638392,-0.572958,92.9910834,-1.1688343199999998,-43.82555742
7.66,766,-0.042,-1.004,0.078,-4.583664,17.9908812,-1.3750992,92.93951718,-1.1688343199999998,-43.64794044
7.67,767,-0.04,-1.0170000000000001,0.067,-3.4950437999999995,18.277360199999997,-2.4064236,92.89368054,-1.16310474,-43.47032346
7.68,768,-0.03,-1.033,0.057999999999999996,-2.3491277999999998,19.0222056,-4.3544808,92.86503264,-1.13445684,-43.28124732
7.6899999999999995,769,-0.002,-1.032,0.048,-0.1718874,20.2827132,-6.9327918,92.85357348,-1.07716104,-43.07498244
7.7,770,0.034,-1.018,0.042,2.5210152000000003,20.7983754,-8.8235532,92.85930306,-0.9740286,-42.86298798
7.71,771,0.067,-1.008,0.046,4.1252976000000015,18.5638392,-9.9694692,92.89368054,-0.8880849000000001,-42.67391184
7.72,772,0.10099999999999999,-0.992,0.055,4.5263682,16.272007199999994,-10.1413566,92.93951718,-0.79641162,-42.50775402
7.7299999999999995,773,0.127,-0.968,0.052000000000000005,5.5576926,13.521808800000002,-10.026765,92.9910834,-0.7104679199999999,-42.3702441
7.74,774,0.14300000000000002,-0.955,0.057999999999999996,6.2452422,10.2559482,-9.2819196,93.0483792,-0.62452422,-42.26138208
7.75,775,0.14,-0.9440000000000001,0.07200000000000001,7.448453999999999,7.161975,-7.9641161999999985,93.12859332,-0.44117766,-42.18689754
7.76,776,0.121,-0.9420000000000001,0.08199999999999999,8.651665800000002,4.4690724,-6.2452422,93.21453702,-0.38388186,-42.1410609
7.77,777,0.08900000000000001,-0.9490000000000001,0.079,9.167328,2.291832,-4.4690724,93.3062103,-0.33804522,-42.112413000000004
7.78,778,0.051,-0.9640000000000001,0.07400000000000001,9.682990199999999,1.2032118,-2.9793816000000004,93.40361316,-0.30939732,-42.09522426
7.79,779,0.012,-0.975,0.066,9.5111028,1.5469866,-1.7188740000000002,93.50101602,-0.29220857999999994,-42.07803552
7.8,780,-0.02,-0.972,0.07200000000000001,8.8235532,2.6356068,-0.286479,93.58695972,-0.32085648,-42.05511720000001
7.81,781,-0.043,-0.966,0.09,7.2765666,5.3285094000000015,1.5469866,93.65571468,-0.33804522,-41.9978214
7.82,782,-0.049,-0.968,0.08800000000000001,5.3285094000000015,8.9381448,4.010706000000001,93.71301048,-0.38961144,-41.91187770000001
7.83,783,-0.063,-0.982,0.078,2.5783110000000002,12.7196676,6.4744254,93.7359288,-0.46409598,-41.79155652
7.84,784,-0.079,-0.998,0.067,-0.057295800000000015,16.615782,8.9381448,93.73019922,-0.56722842,-41.636857860000006
7.85,785,-0.08,-1.014,0.048,-1.8334656000000005,19.308684600000007,10.7716104,93.68436258,-0.72192708,-41.453511299999995
7.86,786,-0.061,-1.046,0.023,-2.9793816000000004,20.3973048,10.4851314,93.6499851,-0.8422482600000001,-41.25870558
7.87,787,-0.046,-1.077,0.013999999999999999,-2.5783110000000002,21.142150199999996,7.2192707999999985,93.61560762,-0.93392154,-41.0524407
7.88,788,-0.02,-1.097,0.017,0.057295800000000015,21.829699800000004,3.4377480000000005,93.60987804,-0.98548776,-40.84044624
7.89,789,0.006,-1.09,0.032,3.8388186,21.5432208,0.7448454000000001,93.64425552,-1.01413566,-40.62845178
7.9,790,0.048,-1.075,0.046,6.875496000000001,20.2254174,-0.286479,93.68436258,-0.97975818,-40.42791648
7.91,791,0.079,-1.053,0.049,7.2192707999999985,17.589810600000003,-0.286479,93.75311754,-0.9912173399999998,-40.25602908
7.92,792,0.08199999999999999,-1.031,0.039,5.7868758000000025,14.209358400000001,-0.5156622000000001,93.81041334,-1.0026765,-40.11278958000001
7.93,793,0.069,-1.0170000000000001,0.022000000000000002,3.5523396000000003,10.4278356,-0.9740286,93.84479082,-1.0026765,-40.00965714
7.94,794,0.04,-1.023,0.009000000000000001,1.0313244000000001,6.589017,-1.5469866,93.85052040000001,-0.9912173399999998,-39.94663176
7.95,795,0.011000000000000001,-1.0490000000000002,-0.006999999999999999,-1.9480572,2.5210152000000003,-1.4896908000000002,93.58695972,-0.92246238,-39.92371344
7.96,796,-0.008,-1.06,-0.02,-4.9847346,-0.7448454000000001,-1.3750992,93.54112308,-0.91100322,-39.92944302
7.97,797,-0.027000000000000003,-1.047,-0.027999999999999997,-6.990087599999999,-2.4064236,-2.0626488000000003,93.46663854,-0.8880849000000001,-39.95236134
7.9799999999999995,798,-0.040999999999999995,-1.032,-0.028999999999999998,-6.990087599999999,-2.2345362,-3.6096353999999997,93.39788358,-0.8479778399999999,-39.97527966
7.99,799,-0.047,-1.018,-0.022000000000000002,-6.9327918,-0.3437748,-5.443101,93.32912862,-0.79641162,-39.97527966
8.0,800,-0.053,-0.9890000000000001,-0.013000000000000001,-6.2452422,2.5210152000000003,-6.1879464,93.17442996,-0.7734933,-39.95236134
8.01,801,-0.053,-0.9690000000000001,0.001,-6.130650599999999,5.958763200000001,-5.9014674000000005,93.11140458,-0.72192708,-39.88933596
8.02,802,-0.055,-0.9570000000000001,0.006,-6.2452422,9.0527364,-4.8701430000000006,93.0483792,-0.68182002,-39.79766268
8.03,803,-0.049,-0.965,0.0,-6.3598338,12.1467096,-3.4377480000000005,92.97962424,-0.65317212,-39.6773415
8.04,804,-0.037000000000000005,-0.978,0.0,-5.443101,13.636400400000001,-2.5783110000000002,92.91659886,-0.64171296,-39.54556116
8.05,805,-0.02,-0.996,0.009000000000000001,-3.4377480000000005,14.381245800000002,-2.7501984,92.83065516000002,-0.61879464,-39.40232166
8.06,806,0.001,-1.015,0.016,-0.286479,14.4958374,-3.4377480000000005,92.82492558,-0.59587632,-39.25335258
8.07,807,0.019,-1.023,0.023,2.4064236,13.8655836,-3.4950437999999995,92.8478439,-0.5729580000000001,-39.11584266
8.08,808,0.03,-1.012,0.037000000000000005,3.4377480000000005,12.1467096,-2.2345362,92.88222138,-0.56149884,-38.99552148
8.09,809,0.040999999999999995,-0.99,0.059000000000000004,2.4064236,10.026765,-0.1718874,92.89941012,-0.56149884,-38.89811862
8.1,810,0.040999999999999995,-0.976,0.07400000000000001,0.4583664000000001,8.250595200000001,1.8907614,92.91086928,-0.5156622000000001,-38.81217492
8.11,811,0.038,-0.971,0.068,-2.2345362,5.844171599999999,4.0680017999999984,92.88222138,-0.56149884,-38.75487912000001
8.12,812,0.034,-0.978,0.071,-3.8961144,3.4377480000000005,5.042030400000002,92.84211432,-0.61879464,-38.72623122
8.13,813,0.028999999999999998,-0.992,0.079,-5.2139178,2.4637194,4.9847346,92.7905481,-0.6703608600000001,-38.70331289999999
8.14,814,0.034,-0.996,0.083,-6.4744254,2.86479,4.6982555999999995,92.72179314,-0.7161975,-38.68039458
8.15,815,0.043,-1.001,0.07,-7.3911582,3.8961144,4.4690724,92.64730859999999,-0.7104679199999999,-38.64028752
8.16,816,0.037000000000000005,-1.003,0.051,-8.651665800000002,3.7242269999999995,5.0993262,92.55563532,-0.76203414,-38.60591004000001
8.17,817,0.01,-1.001,0.032,-9.9694692,1.6042823999999998,6.130650599999999,92.45250288,-0.8250595199999999,-38.59445088
8.18,818,-0.026000000000000002,-1.005,0.021,-9.9121734,-0.9167328000000001,6.6463128000000005,92.35510002,-0.89381448,-38.60591004000001
8.19,819,-0.05,-1.0090000000000001,0.015,-8.479778399999999,-2.6929026,6.4744254,92.26915632,-0.95683986,-38.64028752
8.2,820,-0.069,-1.025,0.012,-6.6463128000000005,-2.9220858,5.72958,92.14883514,-1.06570188,-38.67466500000001
8.209999999999999,821,-0.08,-1.033,0.016,-4.010706000000001,-1.8907614,4.8701430000000006,92.10872808,-1.11153852,-38.69758331999999
8.22,822,-0.07,-1.031,0.024,-1.7761698000000001,0.572958,3.8388186,92.09153934,-1.15164558,-38.69185374
8.23,823,-0.048,-1.024,0.034,-0.6875496,3.5523396000000003,2.9793816000000004,92.08580976,-1.18602306,-38.65747626
8.24,824,-0.026000000000000002,-1.0170000000000001,0.043,-0.6302538000000001,4.9847346,2.6356068,92.07435059999999,-1.21467096,-38.61163962
8.25,825,-0.006,-1.014,0.046,-0.8021411999999999,4.1252976000000015,2.8074942000000003,92.0457027,-1.18602306,-38.57153256
8.26,826,0.013999999999999999,-1.018,0.047,-1.3178034,2.291832,3.3231564,92.02851396,-1.22040054,-38.54861424
8.27,827,0.022000000000000002,-1.018,0.04,-2.3491277999999998,0.2291832000000001,3.8961144,92.00559564,-1.2605076000000002,-38.54861424
8.28,828,0.024,-1.011,0.037000000000000005,-3.0939732,-1.6042823999999998,4.297185,91.97121816,-1.30634424,-38.56580298
8.29,829,0.013999999999999999,-1.015,0.036000000000000004,-3.9534102,-4.0680017999999984,3.8961144,91.93684068,-1.34072172,-38.60591004000001
8.3,830,0.002,-1.0170000000000001,0.034,-4.6409598,-6.130650599999999,2.6356068,91.86808572,-1.3349921400000002,-38.66893542
8.31,831,-0.005,-1.0170000000000001,0.035,-4.7555514,-6.7609043999999985,1.145916,91.82224908,-1.34072172,-38.73769038
8.32,832,-0.009000000000000001,-1.016,0.039,-4.7555514,-7.0473834,-0.40107059999999994,91.77641244,-1.3349921400000002,-38.80644534
8.33,833,-0.019,-1.012,0.038,-4.8701430000000006,-7.333862400000001,-1.5469866,91.72484622,-1.31207382,-38.88092988
8.34,834,-0.024,-1.005,0.04,-4.9847346,-7.2765666,-2.1199446,91.67900958,-1.2891555,-38.94968484
8.35,835,-0.027000000000000003,-0.997,0.035,-5.1566220000000005,-6.589017,-2.2345362,91.61025462,-1.26623718,-39.0184398
8.36,836,-0.028999999999999998,-0.995,0.032,-4.8128472,-5.844171599999999,-2.291832,91.56441798,-1.23758928,-39.0757356
8.37,837,-0.027000000000000003,-0.9890000000000001,0.03,-4.6982555999999995,-5.5003968,-2.1772404,91.51858134,-1.21467096,-39.12730182
8.38,838,-0.027999999999999997,-0.983,0.031,-4.1825934,-5.2712136,-1.9480572,91.4727447,-1.19175264,-39.18459762
8.39,839,-0.03,-0.978,0.033,-3.3231564,-5.2139178,-1.4896908000000002,91.4440968,-1.1745639,-39.23616384
8.4,840,-0.031,-0.976,0.039,-2.2345362,-4.7555514,-0.9167328000000001,91.40971932,-1.1745639,-39.28200048
8.41,841,-0.027000000000000003,-0.981,0.04,-0.9167328000000001,-4.010706000000001,-0.4583664000000001,91.40398974,-1.1688343199999998,-39.32210754000001
8.42,842,-0.02,-0.992,0.04,0.40107059999999994,-3.7815228,-0.286479,91.40971932,-1.16310474,-39.3622146
8.43,843,-0.021,-0.9940000000000001,0.04,1.9480572,-4.2398892,-0.40107059999999994,91.43263764,-1.1573751600000002,-39.40232166
8.44,844,-0.02,-0.986,0.048,2.8074942000000003,-5.0993262,-0.1718874,91.46128554,-1.15164558,-39.45388788
8.45,845,-0.017,-0.986,0.057,3.6096353999999997,-6.2452422,0.0,91.51858134,-1.13445684,-39.51118368
8.459999999999999,846,-0.018000000000000002,-0.995,0.065,4.2398892,-7.448453999999999,0.2291832000000001,91.5586884,-1.13445684,-39.58566822
8.47,847,-0.019,-1.006,0.068,4.4690724,-8.250595200000001,0.4583664000000001,91.61025462,-1.13445684,-39.66588234
8.48,848,-0.02,-1.0170000000000001,0.065,4.2398892,-9.1100322,0.572958,91.65609126,-1.13445684,-39.75755562
8.49,849,-0.024,-1.025,0.062,3.8388186,-9.8548776,0.4583664000000001,91.69619832,-1.13445684,-39.85495848000001
8.5,850,-0.03,-1.026,0.064,3.4377480000000005,-10.313244000000001,0.2291832000000001,91.74776454000002,-1.14018642,-39.95809092
8.51,851,-0.031,-1.026,0.065,2.5783110000000002,-10.4851314,0.0,91.77641244,-1.12872726,-40.06122336
8.52,852,-0.033,-1.023,0.067,1.8334656000000005,-10.4278356,0.057295800000000015,91.79933076,-1.12872726,-40.1643558
8.53,853,-0.034,-1.0190000000000001,0.067,1.2032118,-10.084060800000001,0.0,91.8165195,-1.1172681,-40.26175866
8.54,854,-0.033,-1.014,0.06,0.8021411999999999,-9.7975818,-0.11459160000000004,91.82797866,-1.11153852,-40.35916152
8.55,855,-0.034,-1.0090000000000001,0.06,0.572958,-9.7975818,-0.40107059999999994,91.8451674,-1.1172681,-40.45656438
8.56,856,-0.034,-1.008,0.062,0.4583664000000001,-9.6256944,-0.572958,91.85662656,-1.10580894,-40.54823766
8.57,857,-0.036000000000000004,-1.01,0.063,0.40107059999999994,-9.0527364,-0.6875496,91.86235614,-1.09434978,-40.63991094
8.58,858,-0.03,-1.014,0.061,0.40107059999999994,-7.906820400000001,-0.8594370000000001,91.86808572,-1.07716104,-40.72012506
8.59,859,-0.027999999999999997,-1.014,0.053,0.3437748,-6.990087599999999,-0.8021411999999999,91.87381529999999,-1.06570188,-40.78888002
8.6,860,-0.028999999999999998,-1.0090000000000001,0.048,0.286479,-7.333862400000001,-0.6875496,91.86808572,-1.06570188,-40.85763498
8.61,861,-0.027000000000000003,-1.005,0.049,0.40107059999999994,-7.906820400000001,-0.8021411999999999,91.87381529999999,-1.04851314,-40.9378491
8.62,862,-0.027000000000000003,-1.006,0.051,0.4583664000000001,-8.479778399999999,-1.0313244000000001,91.87954488,-1.03705398,-41.023792799999995
8.63,863,-0.027000000000000003,-1.013,0.055,0.9167328000000001,-8.7089616,-1.3178034,91.89673362,-1.01413566,-41.1097365
8.64,864,-0.025,-1.018,0.055,1.145916,-8.307891,-1.432395,91.90819278,-0.9969469199999998,-41.18995062000001
8.65,865,-0.024,-1.0170000000000001,0.053,0.9167328000000001,-7.7922288,-1.3750992,91.91392236,-0.97975818,-41.26443516
8.66,866,-0.021,-1.0090000000000001,0.049,0.6875496,-7.7922288,-1.2032118,91.92538152,-0.96256944,-41.34464928
8.67,867,-0.02,-1.001,0.047,0.286479,-8.479778399999999,-0.9167328000000001,91.9311111,-0.9453807,-41.42486340000001
8.68,868,-0.016,-0.995,0.05,0.11459160000000004,-9.453807,-0.5156622000000001,91.9311111,-0.93392154,-41.51653668
8.69,869,-0.013999999999999999,-0.993,0.055999999999999994,0.11459160000000004,-10.4278356,-0.2291832000000001,91.93684068,-0.92819196,-41.61966912000001
8.7,870,-0.012,-0.9940000000000001,0.06,0.2291832000000001,-11.0580894,-0.057295800000000015,91.95402942,-0.91100322,-41.72853114
8.71,871,-0.013000000000000001,-0.995,0.062,0.4583664000000001,-11.3445684,0.0,91.95975899999999,-0.90527364,-41.84312274
8.72,872,-0.019,-0.995,0.062,0.6875496,-11.3445684,0.0,91.97121816,-0.89381448,-41.95198476
8.73,873,-0.027999999999999997,-0.995,0.061,0.8021411999999999,-11.2299768,0.2291832000000001,91.98267732,-0.89381448,-42.06657636
8.74,874,-0.039,-0.996,0.063,0.9167328000000001,-11.3445684,0.2291832000000001,91.99413648,-0.8880849000000001,-42.18116796
8.75,875,-0.045,-0.9990000000000001,0.067,0.8594370000000001,-11.2872726,0.1718874,92.02278438,-0.91100322,-42.29002998
8.76,876,-0.045,-1.005,0.068,1.0313244000000001,-11.0007936,0.0,92.03424354,-0.90527364,-42.398892
8.77,877,-0.043,-1.01,0.069,1.3178034,-10.313244000000001,-0.3437748,92.05143228,-0.89381448,-42.50202444
8.78,878,-0.038,-1.014,0.069,1.5469866,-9.396511199999999,-0.40107059999999994,92.06862102,-0.8823553199999999,-42.59369772
8.79,879,-0.036000000000000004,-1.014,0.069,1.4896908000000002,-9.224623800000002,-0.2291832000000001,92.08580976,-0.87662574,-42.685371
8.8,880,-0.034,-1.01,0.069,1.432395,-9.167328,0.0,92.12018724,-0.8880849000000001,-42.77704428
8.81,881,-0.035,-1.005,0.067,1.3750992,-9.2819196,0.2291832000000001,92.13737598,-0.8823553199999999,-42.86871756
8.82,882,-0.035,-1.006,0.064,1.2032118,-8.9381448,0.057295800000000015,92.15456472,-0.8823553199999999,-42.95466126
8.83,883,-0.035,-1.0070000000000001,0.063,1.0886202,-7.448453999999999,-0.11459160000000004,92.16602387999998,-0.87089616,-43.0291458
8.84,884,-0.035,-1.0090000000000001,0.07,0.7448454000000001,-6.3598338,-0.11459160000000004,92.17748304,-0.87089616,-43.09217118
8.85,885,-0.034,-1.011,0.07400000000000001,0.6302538000000001,-5.844171599999999,-0.057295800000000015,92.21186052,-0.8880849000000001,-43.14946698
8.86,886,-0.032,-1.015,0.075,0.8594370000000001,-5.958763200000001,-0.057295800000000015,92.22331968,-0.8880849000000001,-43.21249236
8.87,887,-0.028999999999999998,-1.011,0.08,0.8594370000000001,-5.844171599999999,0.286479,92.22904926,-0.8823553199999999,-43.26978816
