TimeStamp(s),FrameCounter,AccX,AccY,AccZ,GyrX,GyrY,GyrZ,EulerX,EulerY,EulerZ
0.01,1,-0.03,-1.0090000000000001,0.03,1.6615782,1.145916,-0.286479,88.69962798,-1.6787669399999998,-31.03713486
0.02,2,-0.031,-1.01,0.040999999999999995,1.2605076000000002,0.9740286,-0.11459160000000004,88.71108714,-1.6787669399999998,-31.025675699999997
0.03,3,-0.036000000000000004,-1.011,0.043,1.145916,0.572958,0.0,88.7225463,-1.6787669399999998,-31.01994612
0.04,4,-0.036000000000000004,-1.012,0.044000000000000004,1.2032118,0.5156622000000001,0.057295800000000015,88.73400546,-1.6787669399999998,-31.01421654
0.05,5,-0.038,-1.01,0.042,1.3178034,0.2291832000000001,0.11459160000000004,88.87724496000001,-1.6902260999999998,-31.04286444
0.060000000000000005,6,-0.039,-1.0070000000000001,0.043,1.3750992,0.0,0.11459160000000004,88.89443370000002,-1.6959556799999995,-31.04286444
0.06999999999999999,7,-0.039,-1.008,0.044000000000000004,1.3178034,-0.057295800000000015,0.057295800000000015,88.90589286,-1.6959556799999995,-31.04859402
0.08,8,-0.04,-1.0070000000000001,0.045,1.0313244000000001,0.0,0.057295800000000015,88.91735202,-1.6959556799999995,-31.04859402
0.09,9,-0.040999999999999995,-1.008,0.047,0.8021411999999999,0.1718874,0.0,88.92881118,-1.6959556799999995,-31.04286444
0.09999999999999999,10,-0.04,-1.0090000000000001,0.047,0.4583664000000001,0.572958,-0.1718874,89.10642816,-1.71314442,-31.082971500000006
0.11,11,-0.039,-1.01,0.049,0.2291832000000001,0.9740286,-0.11459160000000004,89.10642816,-1.71314442,-31.07151234
0.12,12,-0.038,-1.0070000000000001,0.05,0.057295800000000015,0.9167328000000001,0.057295800000000015,89.11215774000001,-1.71314442,-31.06005318
0.13,13,-0.039,-1.006,0.05,0.11459160000000004,0.8021411999999999,0.286479,89.11215774000001,-1.7188740000000002,-31.054323600000004
0.14,14,-0.039,-1.005,0.048,0.11459160000000004,0.8594370000000001,0.4583664000000001,89.11215774000001,-1.7246035799999997,-31.04286444
0.15000000000000002,15,-0.039,-1.005,0.047,0.1718874,0.8594370000000001,0.572958,89.23247891999998,-1.74179232,-31.06578276
0.16,16,-0.039,-1.004,0.046,0.11459160000000004,1.0886202,0.5156622000000001,89.23247891999998,-1.7475218999999995,-31.054323600000004
0.17,17,-0.039,-1.004,0.045,0.1718874,1.145916,0.5156622000000001,89.2382085,-1.75325148,-31.04286444
0.18000000000000002,18,-0.040999999999999995,-1.006,0.046,0.11459160000000004,1.0886202,0.4583664000000001,89.2382085,-1.75898106,-31.03140528
0.19,19,-0.04,-1.006,0.046,0.0,1.2032118,0.40107059999999994,89.2382085,-1.76471064,-31.01994612
0.2,20,-0.039,-1.0070000000000001,0.046,-0.057295800000000015,1.432395,0.4583664000000001,89.33561136,-1.7761698000000001,-31.03140528
0.21000000000000002,21,-0.036000000000000004,-1.006,0.048,-0.1718874,1.5469866,0.286479,89.33561136,-1.7761698000000001,-31.01421654
0.22,22,-0.033,-1.0070000000000001,0.047,-0.1718874,1.5469866,0.11459160000000004,89.32988178,-1.78189938,-30.997027799999998
0.23,23,-0.03,-1.0070000000000001,0.047,-0.2291832000000001,1.3750992,0.0,89.32988178,-1.78189938,-30.985568640000004
0.24000000000000002,24,-0.027999999999999997,-1.006,0.047,-0.286479,1.145916,0.0,89.3241522,-1.78189938,-30.97410948
0.25,25,-0.027999999999999997,-1.006,0.048,-0.286479,0.8594370000000001,-0.1718874,89.45020296,-1.75325148,-31.01421654
0.26,26,-0.026000000000000002,-1.0070000000000001,0.05,-0.5156622000000001,0.5156622000000001,-0.3437748,89.44447338,-1.7475218999999995,-31.00848696
0.27,27,-0.027000000000000003,-1.0070000000000001,0.051,-0.8021411999999999,-0.057295800000000015,-0.5156622000000001,89.43301421999998,-1.74179232,-31.00848696
0.28,28,-0.027000000000000003,-1.0070000000000001,0.049,-0.9740286,-0.2291832000000001,-0.572958,89.42155505999996,-1.73606274,-31.01421654
0.29000000000000004,29,-0.027000000000000003,-1.005,0.049,-1.0313244000000001,-0.286479,-0.572958,89.41582548,-1.73033316,-31.01421654
0.3,30,-0.027000000000000003,-1.004,0.05,-1.0313244000000001,-0.3437748,-0.572958,89.49031002000002,-1.70168526,-31.054323600000004
0.31,31,-0.025,-1.005,0.05,-1.0313244000000001,-0.4583664000000001,-0.572958,89.47885086,-1.6959556799999995,-31.06005318
0.32,32,-0.023,-1.0070000000000001,0.05,-0.9740286,-0.6875496,-0.6875496,89.47312128,-1.6902260999999998,-31.06578276
0.33,33,-0.025,-1.008,0.05,-0.9740286,-1.145916,-0.8021411999999999,89.46166212,-1.6844965200000002,-31.07724192
0.34,34,-0.027999999999999997,-1.004,0.046,-0.8594370000000001,-1.3750992,-0.8021411999999999,89.45020296,-1.67303736,-31.08870108
0.35000000000000003,35,-0.027999999999999997,-1.003,0.047,-0.8021411999999999,-1.3750992,-0.8594370000000001,89.50749876,-1.6558486199999998,-31.12880814
0.36000000000000004,36,-0.027999999999999997,-1.0070000000000001,0.048,-0.8021411999999999,-1.3178034,-0.9167328000000001,89.50176918,-1.64438946,-31.1402673
0.37,37,-0.027000000000000003,-1.0070000000000001,0.047,-0.8594370000000001,-1.2605076000000002,-0.8021411999999999,89.49031002000002,-1.6386598799999998,-31.15172646000001
0.38,38,-0.027999999999999997,-1.004,0.043,-0.8021411999999999,-1.3178034,-0.6302538000000001,89.48458044,-1.6329303,-31.16318562
0.39,39,-0.025,-1.003,0.042,-0.7448454000000001,-1.3750992,-0.3437748,89.47885086,-1.6272007199999998,-31.18037436
0.4,40,-0.023,-1.004,0.044000000000000004,-0.572958,-1.432395,-0.11459160000000004,89.54187624,-1.6042824000000002,-31.22048142
0.41000000000000003,41,-0.026000000000000002,-1.008,0.042,-0.6302538000000001,-1.2032118,0.1718874,89.53614666000001,-1.6042824000000002,-31.23194058
0.42000000000000004,42,-0.03,-1.011,0.038,-0.6302538000000001,-1.145916,0.3437748,89.53041707999998,-1.61001198,-31.24339974
0.43,43,-0.033,-1.012,0.038,-0.572958,-0.9167328000000001,0.40107059999999994,89.5246875,-1.6157415599999996,-31.2548589
0.44,44,-0.034,-1.012,0.040999999999999995,-0.40107059999999994,-0.9167328000000001,0.3437748,89.51895792,-1.6157415599999996,-31.26631806
0.45,45,-0.033,-1.011,0.040999999999999995,-0.2291832000000001,-1.2032118,0.286479,89.58771288,-1.62147114,-31.294965959999995
0.46,46,-0.033,-1.008,0.040999999999999995,-0.2291832000000001,-1.3750992,0.1718874,89.58771288,-1.62147114,-31.30642512
0.47000000000000003,47,-0.035,-1.004,0.043,-0.4583664000000001,-1.2605076000000002,0.2291832000000001,89.5819833,-1.6272007199999998,-31.32361386
0.48000000000000004,48,-0.037000000000000005,-1.003,0.042,-0.8021411999999999,-0.8594370000000001,0.286479,89.57625372,-1.6272007199999998,-31.32934344
0.49,49,-0.037000000000000005,-1.0,0.036000000000000004,-1.0886202,-0.4583664000000001,0.3437748,89.56479456,-1.6329303,-31.33507302000001
0.5,50,-0.037000000000000005,-0.998,0.028999999999999998,-0.8021411999999999,-0.40107059999999994,0.4583664000000001,89.58771288,-1.64438946,-31.3408026
0.51,51,-0.036000000000000004,-1.0,0.025,-0.40107059999999994,-0.6302538000000001,0.3437748,89.58771288,-1.65011904,-31.346532180000004
0.52,52,-0.038,-1.002,0.024,0.057295800000000015,-0.9167328000000001,0.11459160000000004,89.58771288,-1.65011904,-31.35799134
0.53,53,-0.039,-1.005,0.026000000000000002,0.3437748,-0.9740286,-0.057295800000000015,89.59344246,-1.65011904,-31.3694505
0.54,54,-0.039,-1.008,0.027999999999999997,0.572958,-0.9167328000000001,-0.2291832000000001,89.59917204,-1.64438946,-31.37518008
0.55,55,-0.040999999999999995,-1.0090000000000001,0.03,0.4583664000000001,-0.6875496,-0.2291832000000001,89.66219742,-1.6673077799999998,-31.38663924
0.56,56,-0.04,-1.01,0.033,0.286479,-0.286479,-0.2291832000000001,89.66792699999998,-1.6673077799999998,-31.39236882
0.5700000000000001,57,-0.038,-1.012,0.034,0.0,0.057295800000000015,-0.11459160000000004,89.66792699999998,-1.6673077799999998,-31.39236882
0.5800000000000001,58,-0.036000000000000004,-1.013,0.034,-0.286479,0.286479,0.0,89.66219742,-1.6615782,-31.38663924
0.59,59,-0.034,-1.013,0.035,-0.8021411999999999,0.3437748,0.11459160000000004,89.65646783999998,-1.6673077799999998,-31.38663924
0.6,60,-0.032,-1.012,0.031,-1.145916,-0.2291832000000001,0.057295800000000015,89.67938615999998,-1.6615782,-31.3980984
0.61,61,-0.031,-1.011,0.032,-1.432395,-0.8021411999999999,0.0,89.66792699999998,-1.6615782,-31.409557560000003
0.62,62,-0.032,-1.0090000000000001,0.031,-1.8334656000000005,-1.2032118,-0.057295800000000015,89.64500868,-1.6615782,-31.42101672
0.63,63,-0.036000000000000004,-1.0090000000000001,0.028999999999999998,-2.2345362,-1.0313244000000001,-0.11459160000000004,89.62209035999999,-1.6558486199999998,-31.43247588
0.64,64,-0.038,-1.0090000000000001,0.03,-2.4637194,-0.6875496,0.0,89.59917204,-1.6558486199999998,-31.43820546
0.65,65,-0.042,-1.0090000000000001,0.032,-2.4064236,-0.5156622000000001,0.0,89.59917204,-1.67303736,-31.443935040000003
0.66,66,-0.046,-1.0090000000000001,0.03,-2.291832,-0.2291832000000001,-0.1718874,89.57625372,-1.67303736,-31.443935040000003
0.67,67,-0.047,-1.011,0.026000000000000002,-2.5783110000000002,0.1718874,-0.286479,89.55333540000002,-1.67303736,-31.443935040000003
0.68,68,-0.046,-1.013,0.02,-2.6356068,0.7448454000000001,-0.3437748,89.5246875,-1.6673077799999998,-31.43820546
0.6900000000000001,69,-0.042,-1.013,0.015,-2.5783110000000002,1.145916,-0.40107059999999994,89.49603959999996,-1.6615782,-31.426746299999998
0.7000000000000001,70,-0.039,-1.011,0.008,-2.4064236,1.6042823999999998,-0.572958,89.46739170000002,-1.6615782,-31.409557560000003
0.7100000000000001,71,-0.035,-1.0070000000000001,0.006,-2.0626488000000003,2.1199446,-0.8021411999999999,89.44447338,-1.6558486199999998,-31.38663924
0.72,72,-0.036000000000000004,-1.006,0.006,-1.9480572,2.3491277999999998,-0.8021411999999999,89.42155505999996,-1.64438946,-31.36372092
0.73,73,-0.038,-1.015,0.005,-2.5783110000000002,2.5783110000000002,-0.9740286,89.39863674,-1.6386598799999998,-31.33507302000001
0.74,74,-0.04,-1.0270000000000001,0.003,-3.7815228,2.86479,-1.3178034,89.35852968,-1.62147114,-31.30642512
0.75,75,-0.038,-1.034,-0.003,-4.9847346,3.7815228,-1.5469866,89.29550429999998,-1.61001198,-31.27204764
0.76,76,-0.04,-1.037,-0.013999999999999999,-5.7868758000000025,4.583664,-1.4896908000000002,89.23247891999998,-1.59855282,-31.226211
0.77,77,-0.040999999999999995,-1.042,-0.015,-6.4744254,5.3285094000000015,-1.2605076000000002,89.16945354,-1.5870936600000003,-31.17464478
0.78,78,-0.032,-1.043,-0.013999999999999999,-6.703608600000001,7.5057497999999985,-0.9167328000000001,89.09496899999998,-1.5756344999999998,-31.10016024
0.79,79,-0.013999999999999999,-1.037,-0.02,-6.703608600000001,9.740286,-0.5156622000000001,89.02621404,-1.5756344999999998,-31.00275738
0.8,80,0.001,-1.024,-0.033,-6.5317212,10.599723,-0.057295800000000015,88.94027034,-1.56417534,-30.89962494
0.81,81,0.004,-1.01,-0.037000000000000005,-6.6463128000000005,9.740286,0.5156622000000001,88.87151537999998,-1.56990492,-30.80222208
0.8200000000000001,82,0.009000000000000001,-0.995,-0.03,-6.703608600000001,8.136003599999999,1.0313244000000001,88.79703083999998,-1.5813640800000002,-30.72200796000001
0.8300000000000001,83,0.001,-0.991,-0.013999999999999999,-6.9327918,5.3285094000000015,1.2605076000000002,88.7225463,-1.59855282,-30.67044174
0.8400000000000001,84,-0.011000000000000001,-1.005,-0.006999999999999999,-7.6776372,3.5523396000000003,1.2032118,88.64806175999998,-1.61001198,-30.63606426
0.85,85,-0.016,-1.0190000000000001,-0.015,-8.136003599999999,3.4377480000000005,0.8021411999999999,88.55638848,-1.6157415599999996,-30.607416359999995
0.86,86,-0.013999999999999999,-1.015,-0.032,-7.2192707999999985,6.1879464,0.9167328000000001,88.47617436,-1.62147114,-30.54439098000001
0.87,87,-0.012,-1.008,-0.048,-5.9014674000000005,9.740286,1.6615782,88.41314897999996,-1.6386598799999998,-30.44698812
0.88,88,-0.009000000000000001,-0.998,-0.032,-5.5576926,11.688343199999998,2.86479,88.35585318,-1.6673077799999998,-30.33239652
0.89,89,-0.013000000000000001,-0.973,0.0,-4.9847346,12.4331886,4.8128472,88.29855738,-1.7188740000000002,-30.20634576
0.9,90,-0.023,-0.968,0.022000000000000002,-4.010706000000001,13.0061466,6.8182002000000015,88.25845032,-1.78189938,-30.080295
0.91,91,-0.037000000000000005,-0.9840000000000001,0.02,-3.9534102,13.6936962,7.734933000000002,88.21261368,-1.8621134999999998,-29.94278508
0.92,92,-0.044000000000000004,-1.008,0.006,-3.7815228,15.5844576,7.5057497999999985,88.16677704,-1.93659804,-29.78808642
0.93,93,-0.028999999999999998,-1.016,0.001,-4.9274388,18.277360199999997,6.9327918,88.10375166,-2.005353,-29.60473986
0.9400000000000001,94,-0.023,-1.0070000000000001,-0.004,-6.8182002000000015,20.9702628,6.4744254,88.02926712000001,-2.06837838,-29.39274540000001
0.9500000000000001,95,-0.027999999999999997,-1.003,-0.017,-7.3911582,22.91832,5.7868758000000025,87.93759384,-2.12567418,-29.163562199999998
0.9600000000000001,96,-0.035,-1.001,-0.025,-7.448453999999999,24.8663772,5.042030400000002,87.85165014,-2.17151082,-28.91719026
0.97,97,-0.045,-1.005,-0.027999999999999997,-6.4744254,27.272800800000002,4.2398892,87.77143602000002,-2.21161788,-28.6479
0.98,98,-0.05,-1.008,-0.03,-5.5003968,29.5646328,3.8961144,87.69695148,-2.25172494,-28.35569142
0.99,99,-0.048,-1.0070000000000001,-0.028999999999999998,-4.9274388,32.085648000000006,3.3231564,87.6339261,-2.28037284,-28.03483494
1.0,100,-0.052000000000000005,-1.0170000000000001,-0.024,-5.443101,34.091001,2.5783110000000002,87.55944156000002,-2.29756158,-27.69678972
1.01,101,-0.03,-1.0090000000000001,-0.02,-7.0473834,35.5806918,2.291832,87.46776828,-2.3147503200000004,-27.34728534
1.02,102,-0.017,-1.0090000000000001,-0.027999999999999997,-8.307891,35.7525792,2.4064236,87.36463583999998,-2.3376686399999995,-26.992051380000003
1.03,103,-0.003,-1.012,-0.040999999999999995,-8.880849000000003,34.2055926,2.5210152000000003,87.25577381999999,-2.35485738,-26.65400616
1.04,104,0.01,-1.024,-0.035,-10.084060800000001,32.2002396,2.0626488000000003,87.13545264000004,-2.37204612,-26.33314968
1.05,105,0.025,-1.048,-0.02,-12.318597,29.9084076,2.0626488000000003,86.99221314,-2.3777757,-26.0409411
1.06,106,0.039,-1.0590000000000002,-0.008,-16.2147114,26.69984280000001,2.7501984,86.81459616,-2.40069402,-25.77738042
1.07,107,0.053,-1.07,0.001,-20.3973048,24.4653066,2.9793816000000004,86.59687212,-2.42361234,-25.53673806
1.08,108,0.053,-1.0759999999999998,0.0,-24.064236,22.2307704,4.3544808,86.33904102,-2.4637194,-25.31901402
1.09,109,0.043,-1.062,-0.008,-25.8977016,18.9649098,6.417129599999999,86.06402118000004,-2.5210152000000003,-25.12993788
1.1,110,0.022000000000000002,-1.044,-0.026000000000000002,-26.069589,15.3552744,8.4224826,85.79473092,-2.58977016,-24.97523922
1.11,111,0.005,-1.0290000000000001,-0.035,-25.55392680000001,12.776963400000001,9.7975818,85.52544065999999,-2.68717302,-24.84918846
1.12,112,-0.019,-1.012,-0.046,-25.55392680000001,10.4851314,10.1413566,85.26187998,-2.78457588,-24.74032644
1.1300000000000001,113,-0.042,-0.972,-0.062,-26.41336380000001,8.3651868,9.9694692,84.98686014,-2.88197874,-24.64865316
1.1400000000000001,114,-0.055,-0.941,-0.076,-27.215505,5.1566220000000005,8.136003599999999,84.70611072,-2.96219286,-24.59135736
1.1500000000000001,115,-0.06,-0.9059999999999999,-0.102,-27.1582092,0.7448454000000001,5.2712136,84.42536129999998,-3.0137590800000003,-24.5798982
1.1600000000000001,116,-0.061,-0.883,-0.107,-27.3873924,-2.6929026,1.7761698000000001,84.14461188,-3.0366774000000003,-24.6085461
1.17,117,-0.068,-0.872,-0.09300000000000001,-27.788463,-6.4744254,-1.3178034,83.86959204,-3.03094782,-24.67730106
1.18,118,-0.081,-0.885,-0.086,-29.1062664,-8.59437,-4.0680017999999984,83.57738346,-3.00229992,-24.768974340000003
1.19,119,-0.094,-0.9,-0.078,-31.340802600000004,-8.021412000000002,-6.703608600000001,83.26798613999998,-2.94500412,-24.86064762
1.2,120,-0.095,-0.9179999999999999,-0.083,-32.7731976,-5.2139178,-8.651665800000002,82.9356705,-2.87051958,-24.923673
1.21,121,-0.09300000000000001,-0.943,-0.11599999999999999,-34.4347758,-2.1199446,-10.026765,82.59189570000002,-2.7788463,-24.96378006
1.22,122,-0.099,-0.958,-0.125,-35.0650296,0.40107059999999994,-10.886202,82.23666174,-2.67571386,-24.97523922
1.23,123,-0.124,-0.965,-0.094,-34.37748,4.9274388,-11.2299768,81.88142778,-2.5611222600000003,-24.946591320000003
1.24,124,-0.08900000000000001,-0.9790000000000001,-0.095,-34.5493674,9.9121734,-11.172680999999999,81.52619381999997,-2.44080108,-24.8663772
1.25,125,-0.026000000000000002,-0.9690000000000001,-0.109,-35.2942128,10.943497800000001,-11.6310474,81.16523028,-2.3147503200000004,-24.7804335
1.26,126,0.005,-1.004,-0.083,-37.24227,12.6623718,-11.9748222,80.78134842,-2.18296998,-24.68303064
1.27,127,0.003,-1.05,-0.10300000000000001,-41.3102718,15.870936600000002,-11.0007936,80.3573595,-2.05691922,-24.54552072
1.28,128,-0.011000000000000001,-1.043,-0.135,-43.831286999999996,17.303331600000003,-9.396511199999999,79.90472267999998,-1.9480572000000005,-24.39655164
1.29,129,-0.027999999999999997,-1.005,-0.177,-45.893935799999994,18.1054728,-7.161975,79.42916754,-1.85638392,-24.236123400000004
1.3,130,-0.046,-0.973,-0.21,-47.211739200000004,17.18874,-4.4690724,78.93642365999997,-1.78762896,-24.08142474000001
1.31,131,-0.06,-0.951,-0.239,-47.211739200000004,14.4958374,-1.9480572,78.45513894,-1.7475218999999995,-23.94391482
1.32,132,-0.08,-0.956,-0.264,-47.3836266,12.6623718,-0.5156622000000001,77.96812464000001,-1.73033316,-23.82932322
1.33,133,-0.121,-0.981,-0.24,-46.638781200000004,13.2926256,-0.1718874,77.48683992,-1.7074148399999998,-23.70327246
1.34,134,-0.125,-0.9620000000000001,-0.145,-47.841993,18.449247600000003,-0.9167328000000001,76.99409604,-1.6673077799999998,-23.53138506
1.35,135,-0.107,-0.9279999999999999,-0.127,-48.987909,19.7097552,-0.572958,76.49562258,-1.6329303,-23.3480385
1.36,136,-0.10400000000000001,-0.946,-0.07400000000000001,-48.0138804,20.3973048,0.8021411999999999,75.99714911999997,-1.6042824000000002,-23.153232780000003
1.37,137,-0.069,-0.9840000000000001,-0.032,-50.133825,25.8977016,1.4896908000000002,75.48148692,-1.56417534,-22.90113126
1.3800000000000001,138,-0.024,-0.992,-0.075,-54.0299394,35.9244666,2.6356068,74.91425849999997,-1.5183387000000002,-22.55162688
1.3900000000000001,139,-0.035,-0.9590000000000001,-0.14,-54.25912260000001,41.6540466,6.0160589999999985,74.34703008,-1.48396122,-22.14482670000001
1.4000000000000001,140,-0.069,-0.9620000000000001,-0.175,-54.14453099999999,43.888582799999995,12.4904844,73.78553124,-1.50114996,-21.69218988
1.4100000000000001,141,-0.094,-0.943,-0.20600000000000002,-54.43101,43.3729206,18.277360199999997,73.21830281999998,-1.5756344999999998,-21.23382348
1.42,142,-0.10800000000000001,-0.9420000000000001,-0.223,-55.00396800000001,39.8778768,21.2567418,72.63961524,-1.6787669399999998,-20.79264582
1.43,143,-0.121,-0.9390000000000001,-0.249,-56.4936588,34.4920716,21.371333399999997,72.0494685,-1.7933585399999998,-20.40876396
1.44,144,-0.11800000000000001,-0.98,-0.249,-58.2698286,32.372127,18.162768600000003,71.44213302,-1.87930224,-20.04780042
1.45,145,-0.10300000000000001,-1.005,-0.22699999999999998,-61.764872399999994,33.002380800000005,13.2926256,70.80614964,-1.91367972,-19.69829604
1.46,146,-0.094,-0.95,-0.141,-64.11400019999999,32.372127,8.8235532,70.14151836,-1.90795014,-19.37170998
1.47,147,-0.09,-0.898,-0.121,-62.910788399999994,31.455394199999997,7.161975,69.48834624,-1.88503182,-19.056583080000006
1.48,148,-0.07400000000000001,-0.853,-0.13699999999999998,-61.1346186,31.455394199999997,8.193299399999999,68.85236286,-1.8621134999999998,-18.74145618
1.49,149,-0.105,-0.856,-0.193,-58.44171600000001,28.0176462,11.688343199999998,68.24502738,-1.88503182,-18.44351802
1.5,150,-0.115,-0.9059999999999999,-0.231,-60.38977320000001,22.4599536,13.0634424,67.62623274,-1.94232762,-18.191416500000006
1.51,151,-0.085,-0.9690000000000001,-0.292,-62.16594300000001,20.1108258,11.745639,66.98451978,-1.98243468,-17.9622333
1.52,152,-0.07400000000000001,-0.965,-0.316,-60.38977320000001,18.2200644,8.3651868,66.36572514000001,-1.99962342,-17.76742758
1.53,153,-0.044000000000000004,-1.021,-0.29600000000000004,-59.1292656,15.469866,2.9220858,65.75266008000001,-1.9767051,-17.6184585
1.54,154,-0.021,-0.9540000000000001,-0.244,-60.9054354,13.8082878,-1.0313244000000001,65.13386544,-1.9194093000000003,-17.498137319999998
1.55,155,-0.022000000000000002,-0.8740000000000001,-0.22,-65.2026204,12.318597,-2.291832,64.47496373999999,-1.85638392,-17.40646404
1.56,156,-0.045,-0.812,-0.21,-67.036086,10.5424272,-2.6356068,63.79314372,-1.79908812,-17.326249920000002
1.57,157,-0.07200000000000001,-0.802,-0.17800000000000002,-71.1040878,11.401864199999999,-4.1252976000000015,63.06548706,-1.7246035799999997,-17.251765380000002
1.58,158,-0.10300000000000001,-0.726,-0.20600000000000002,-76.60448459999998,14.381245800000002,-5.3858052,62.2805346,-1.62147114,-17.14863294
1.59,159,-0.141,-0.737,-0.23399999999999999,-77.062851,17.6471064,-8.8235532,61.49558214,-1.4782316400000002,-17.039770920000002
1.6,160,-0.185,-0.738,-0.278,-76.89096359999998,21.2567418,-12.834259199999998,60.71635926,-1.2891555,-16.919449739999994
1.61,161,-0.221,-0.733,-0.275,-74.65642740000001,24.9809688,-16.329303,59.94859554,-1.04278356,-16.781939819999998
1.62,162,-0.247,-0.7170000000000001,-0.217,-70.8176088,30.252182399999995,-20.340009,59.22093888000001,-0.73338624,-16.62724116
1.6300000000000001,163,-0.23199999999999998,-0.6779999999999999,-0.209,-70.35924240000001,36.38283300000001,-22.058882999999998,58.49901180000001,-0.3724227000000001,-16.43243544
1.6400000000000001,164,-0.20600000000000002,-0.637,-0.26899999999999996,-70.5311298,37.9298196,-22.7464326,57.77708471999999,0.0,-16.23190014
1.6500000000000001,165,-0.128,-0.635,-0.38299999999999995,-69.900876,37.1276784,-23.204798999999998,57.06088722,0.36096354,-16.042824
1.6600000000000001,166,0.040999999999999995,-0.6709999999999999,-0.597,-69.4998054,31.455394199999997,-23.491278,56.35614888,0.7104679199999999,-15.90531408
1.6700000000000002,167,0.195,-0.718,-0.634,-68.8122558,17.5325148,-23.491278,55.65141053999999,0.9912173399999998,-15.89385492
1.68,168,0.293,-0.723,-0.5660000000000001,-66.86419860000001,9.5111028,-24.694489800000003,54.96959052,1.23758928,-15.956880300000002
1.69,169,0.295,-0.705,-0.532,-64.9161414,5.7868758000000025,-27.8457588,54.30495924,1.48396122,-16.071471900000002
1.7,170,0.254,-0.735,-0.496,-62.16594300000001,-0.11459160000000004,-33.8618178,53.67470544,1.75898106,-16.28346636
1.71,171,0.19,-0.72,-0.428,-60.8481396,-2.291832,-36.7839036,53.05018122,2.0340009,-16.51837914
1.72,172,0.114,-0.701,-0.418,-59.7022236,-3.4377480000000005,-36.8411994,52.43138658,2.29756158,-16.77048066
1.73,173,0.059000000000000004,-0.7070000000000001,-0.449,-57.123912600000004,-5.1566220000000005,-35.236917,51.84123984,2.53820394,-17.02831176
1.74,174,0.001,-0.731,-0.491,-54.43101,-10.1413566,-31.054323600000004,51.27401142,2.71009134,-17.303331600000003
1.75,175,-0.027000000000000003,-0.7609999999999999,-0.504,-51.68081160000001,-17.6471064,-26.0122932,50.74689006,2.79603504,-17.606999339999994
1.76,176,-0.013999999999999999,-0.752,-0.485,-51.1651494,-24.9809688,-22.2307704,50.21403912,2.8074942000000003,-17.94504456
1.77,177,0.02,-0.695,-0.505,-51.3943326,-31.1689152,-20.8556712,49.6754586,2.76738714,-18.31746726
1.78,178,0.092,-0.63,-0.511,-51.279740999999994,-34.37748,-21.027558600000006,49.13687808,2.70436176,-18.72426744
1.79,179,0.183,-0.6,-0.5820000000000001,-49.1025006,-35.17962120000001,-21.772404,48.62694546,2.6413363800000003,-19.1367972
1.8,180,0.23800000000000002,-0.611,-0.584,-44.5761324,-35.8671708,-20.912967000000002,48.1571199,2.578311,-19.54932696
1.81,181,0.23199999999999998,-0.637,-0.589,-40.966497,-37.41415739999999,-18.8503182,47.72740140000001,2.46944898,-19.96185672
1.82,182,0.19399999999999998,-0.6920000000000001,-0.62,-39.19032720000001,-39.7059894,-16.615782,47.31487163999999,2.33193906,-20.368656899999998
1.83,183,0.14300000000000002,-0.732,-0.649,-38.2162986,-42.62807520000001,-14.438541599999999,46.91953062,2.1485925000000003,-20.78691624
1.84,184,0.099,-0.764,-0.648,-36.898495200000006,-46.0658232,-12.4331886,46.53564876,1.93659804,-21.21090516
1.85,185,0.06,-0.774,-0.643,-36.2682414,-50.133825,-10.828906199999999,46.16322606,1.6787669399999998,-21.6578124
1.86,186,0.05,-0.746,-0.6559999999999999,-37.1276784,-51.5089242,-10.026765,45.7793442,1.39801752,-22.10471964000001
1.87,187,0.040999999999999995,-0.711,-0.6659999999999999,-36.38283300000001,-49.7327544,-9.682990199999999,45.4069215,1.12872726,-22.52870856
1.8800000000000001,188,0.025,-0.705,-0.674,-35.5806918,-45.7793442,-9.167328,45.04595796,0.8823553199999999,-22.92404958
1.8900000000000001,189,-0.006,-0.6990000000000001,-0.6920000000000001,-35.0650296,-41.4821592,-8.5370742,44.690723999999996,0.65317212,-23.28501312
1.9000000000000001,190,-0.027999999999999997,-0.708,-0.7140000000000001,-34.5493674,-36.955791,-8.479778399999999,44.33549004,0.4526368200000001,-23.605869600000002
1.9100000000000001,191,-0.049,-0.7120000000000001,-0.7170000000000001,-33.2888598,-32.6013102,-8.078707799999998,44.0031744,0.27501984,-23.89807818
1.9200000000000002,192,-0.073,-0.721,-0.7440000000000001,-32.830493399999995,-30.4240698,-8.193299399999999,43.67085876,0.11459160000000003,-24.17309802
1.93,193,-0.075,-0.718,-0.7290000000000001,-31.1689152,-30.8251404,-8.7089616,43.35573186000001,-0.03437748,-24.448117860000004
1.94,194,-0.036000000000000004,-0.6970000000000001,-0.715,-29.4500412,-32.085648000000006,-9.568398599999998,43.06352328,-0.20053530000000008,-24.74605602
1.95,195,0.009000000000000001,-0.675,-0.713,-27.6738714,-33.4607472,-10.4851314,42.78850344,-0.36669312,-25.055453340000003
1.96,196,0.05,-0.664,-0.738,-26.1268848,-36.32553720000001,-10.886202,42.53067234,-0.55576926,-25.382039399999996
1.97,197,0.062,-0.6579999999999999,-0.7490000000000001,-24.2934192,-38.8465524,-10.943497800000001,42.29002998,-0.76203414,-25.73154378
1.98,198,0.071,-0.6629999999999999,-0.762,-22.7464326,-39.1330314,-11.0580894,42.07230594,-0.96829902,-26.08104816
1.99,199,0.068,-0.695,-0.775,-21.142150199999996,-35.52339600000001,-11.401864199999999,41.86604106,-1.15164558,-26.40763422
2.0,200,0.021,-0.72,-0.813,-19.9962342,-29.793815999999996,-12.3758928,41.67123534,-1.28342592,-26.70557238
2.01,201,-0.047,-0.7609999999999999,-0.863,-18.9649098,-24.5798982,-13.0061466,41.48788878,-1.3750992,-26.96340348
2.02,202,-0.114,-0.785,-0.853,-17.18874,-19.595163600000006,-12.261301199999998,41.32173096,-1.43812458,-27.186857100000005
2.03,203,-0.12,-0.799,-0.861,-17.761698000000006,-17.246035799999998,-11.8602306,41.14411398,-1.4896908000000002,-27.39312198
2.04,204,-0.085,-0.807,-0.88,-18.1054728,-16.673077799999998,-11.5737516,40.97222658,-1.53552744,-27.593657279999995
2.05,205,0.004,-0.826,-0.893,-18.162768600000003,-16.7303736,-11.2299768,40.7946096,-1.5813640800000002,-27.79419258
2.0599999999999996,206,0.066,-0.836,-0.8859999999999999,-18.621135,-18.3919518,-10.4851314,40.61126304,-1.65011904,-27.99472788
2.07,207,0.102,-0.828,-0.879,-20.05353,-21.5432208,-9.682990199999999,40.41645732,-1.7475218999999995,-28.21245192
2.0799999999999996,208,0.09699999999999999,-0.8140000000000001,-0.907,-21.600516600000002,-24.4653066,-8.651665800000002,40.21019244,-1.87930224,-28.43590554
2.09,209,0.073,-0.8059999999999999,-0.9229999999999999,-22.1161788,-25.668518399999996,-7.2765666,39.9924684,-2.02254174,-28.66508874
2.0999999999999996,210,0.024,-0.81,-0.9620000000000001,-22.0015872,-28.4760126,-5.6722842,39.78047393999999,-2.20015872,-28.89427194
2.11,211,-0.019,-0.828,-0.93,-20.7983754,-33.231564,-4.4117766,39.58566822,-2.41788276,-29.14637346
2.1199999999999997,212,-0.040999999999999995,-0.845,-0.9229999999999999,-21.371333399999997,-37.9298196,-3.6096353999999997,39.38513292,-2.68144344,-29.421393300000002
2.13,213,-0.043,-0.825,-0.915,-21.7151082,-42.91455420000001,-3.2085647999999996,39.18459762,-2.98511118,-29.72506104
2.1399999999999997,214,-0.031,-0.8009999999999999,-0.8759999999999999,-20.7410796,-46.638781200000004,-3.7815228,39.00125106,-3.31742682,-30.051647100000004
2.15,215,-0.024,-0.773,-0.8590000000000001,-20.626488000000002,-48.9306132,-5.0993262,38.8179045,-3.64974246,-30.41261064
2.1599999999999997,216,-0.031,-0.747,-0.862,-20.340009,-48.0138804,-6.417129599999999,38.6460171,-3.97632852,-30.7678446
2.17,217,-0.081,-0.7340000000000001,-0.84,-18.506543399999998,-47.0398518,-7.5630456000000015,38.48558885999999,-4.28572584,-31.12880814
2.1799999999999997,218,-0.154,-0.731,-0.8270000000000001,-17.9335854,-44.2323576,-8.136003599999999,38.33661978,-4.57220484,-31.47258294
2.19,219,-0.18100000000000002,-0.7140000000000001,-0.852,-18.621135,-41.9405256,-8.8235532,38.18192112,-4.8414951,-31.81062816
2.1999999999999997,220,-0.16899999999999998,-0.6970000000000001,-0.8440000000000001,-17.3606274,-39.9351726,-9.6256944,38.03868162,-5.0935966200000005,-32.13721422
2.21,221,-0.156,-0.687,-0.831,-16.272007199999994,-37.872523799999996,-10.4278356,37.90690128,-5.32277982,-32.4580707
2.2199999999999998,222,-0.138,-0.6659999999999999,-0.841,-15.928232399999999,-35.8671708,-11.1153852,37.78085052,-5.5290447,-32.7731976
2.23,223,-0.129,-0.65,-0.8420000000000001,-15.011499599999999,-33.6899304,-11.5164558,37.66052934,-5.71812084,-33.07686534
2.2399999999999998,224,-0.14,-0.633,-0.835,-13.464512999999998,-31.054323600000004,-12.0894138,37.5573969,-5.88427866,-33.36907392
2.25,225,-0.163,-0.623,-0.82,-11.8602306,-27.3873924,-12.6623718,37.46572362,-6.0275181600000005,-33.63836418
2.26,226,-0.19,-0.615,-0.813,-10.4278356,-22.1734746,-12.834259199999998,37.3855095,-6.11919144,-33.87900654
2.27,227,-0.212,-0.622,-0.8,-9.224623800000002,-17.7044022,-13.2926256,37.31675454,-6.17648724,-34.091001
2.28,228,-0.205,-0.625,-0.8029999999999999,-8.5370742,-12.834259199999998,-13.9228794,37.25372916,-6.19367598,-34.28580672
2.29,229,-0.183,-0.625,-0.802,-7.5630456000000015,-9.2819196,-14.381245800000002,37.19643336,-6.18221682,-34.45769412
2.3,230,-0.154,-0.62,-0.7859999999999999,-6.2452422,-7.6203414,-14.266654199999998,37.15059672,-6.165028080000001,-34.61239278000001
2.31,231,-0.114,-0.619,-0.785,-5.1566220000000005,-7.333862400000001,-13.3499214,37.11621924,-6.14210976,-34.767091439999994
2.32,232,-0.084,-0.614,-0.785,-4.5263682,-6.3025379999999975,-11.917526400000002,37.08184176,-6.11919144,-34.90460136
2.3299999999999996,233,-0.08199999999999999,-0.6,-0.779,-3.380452200000001,-4.9847346,-9.9121734,37.05892344,-6.09627312,-35.01346338
2.34,234,-0.099,-0.601,-0.7759999999999999,-2.2345362,-3.7242269999999995,-8.250595200000001,37.04746428,-6.0790843799999985,-35.09940708000001
2.3499999999999996,235,-0.125,-0.605,-0.802,-1.5469866,-5.042030400000002,-6.7609043999999985,37.03027554000001,-6.09054354,-35.17962120000001
2.36,236,-0.145,-0.614,-0.773,-0.11459160000000004,-7.2765666,-5.2139178,37.0417347,-6.113461859999999,-35.2655649
2.3699999999999997,237,-0.14,-0.615,-0.769,0.0,-7.5057497999999985,-4.5263682,37.04746428,-6.147839339999999,-35.3515086
2.38,238,-0.132,-0.5920000000000001,-0.765,0.0,-6.9327918,-4.6409598,37.05892344,-6.17075766,-35.43172272
2.3899999999999997,239,-0.126,-0.579,-0.7559999999999999,1.432395,-5.958763200000001,-4.6409598,37.08184176,-6.1879464,-35.50620726000001
2.4,240,-0.125,-0.583,-0.769,2.8074942000000003,-5.2139178,-4.5263682,37.10476008,-6.2165943,-35.56923264
2.4099999999999997,241,-0.129,-0.594,-0.779,4.2398892,-5.2139178,-4.4690724,37.156326299999996,-6.22805346,-35.63798759999999
2.42,242,-0.14,-0.612,-0.767,5.72958,-6.589017,-4.297185,37.22508126,-6.25097178,-35.71247214
2.4299999999999997,243,-0.133,-0.629,-0.758,6.3025379999999975,-7.6776372,-4.2398892,37.2995658,-6.2853492599999985,-35.79268626
2.44,244,-0.127,-0.624,-0.767,6.0733548,-8.651665800000002,-4.2398892,37.37405034,-6.3254563200000025,-35.88435954
2.4499999999999997,245,-0.126,-0.613,-0.764,6.4744254,-9.453807,-4.6409598,37.44853488,-6.37129296,-35.97603282
2.46,246,-0.124,-0.602,-0.774,6.589017,-9.0527364,-5.0993262,37.528749,-6.4114000199999985,-36.07343568
2.4699999999999998,247,-0.13699999999999998,-0.595,-0.775,8.021412000000002,-9.568398599999998,-5.042030400000002,37.62042228,-6.451507079999999,-36.17656812
2.48,248,-0.161,-0.6,-0.7559999999999999,10.2559482,-9.9694692,-4.4690724,37.74074346,-6.497343719999999,-36.27397098
2.4899999999999998,249,-0.17300000000000001,-0.608,-0.7559999999999999,11.5164558,-8.9381448,-3.7815228,37.86679422,-6.543180359999999,-36.35991468
2.5,250,-0.162,-0.613,-0.757,12.318597,-6.0733548,-3.4950437999999995,37.99857456,-6.58328742,-36.42294006
2.51,251,-0.14800000000000002,-0.612,-0.7559999999999999,13.521808800000002,-4.2398892,-2.9220858,38.14181406,-6.5947465800000025,-36.46877670000001
2.52,252,-0.146,-0.611,-0.753,14.896907999999998,-4.3544808,-2.1772404,38.302242299999996,-6.611935319999999,-36.51461334
2.53,253,-0.145,-0.603,-0.75,15.6990492,-4.7555514,-1.4896908000000002,38.46840012,-6.63485364,-36.56044998
2.54,254,-0.134,-0.6,-0.753,16.7303736,-5.042030400000002,-1.0313244000000001,38.64028752,-6.66350154,-36.60055704
2.55,255,-0.12300000000000001,-0.607,-0.759,17.589810600000003,-5.0993262,-0.9167328000000001,38.8179045,-6.69787902,-36.63493452
2.56,256,-0.113,-0.624,-0.764,18.3919518,-3.6669312000000014,-0.8594370000000001,39.00698064,-6.7150677599999975,-36.66931200000001
2.57,257,-0.115,-0.6409999999999999,-0.7759999999999999,18.6784308,-1.0886202,-0.7448454000000001,39.20178636,-6.72079734,-36.68077116
2.5799999999999996,258,-0.133,-0.657,-0.78,19.194093,-0.5156622000000001,-0.2291832000000001,39.39659208,-6.72079734,-36.68650074
2.59,259,-0.147,-0.675,-0.769,19.4232762,-1.2605076000000002,0.5156622000000001,39.59712738,-6.72652692,-36.69223032
2.5999999999999996,260,-0.14800000000000002,-0.684,-0.759,19.079501399999998,-2.1772404,1.0886202,39.79766268,-6.7551748200000015,-36.69223032
2.61,261,-0.125,-0.6829999999999999,-0.757,18.3919518,-2.1772404,1.5469866,39.98100924,-6.77809314,-36.6979599
2.6199999999999997,262,-0.10800000000000001,-0.674,-0.77,17.5325148,-2.5783110000000002,1.7188740000000002,40.1643558,-6.80674104,-36.70368948
2.63,263,-0.105,-0.659,-0.777,17.0168526,-3.3231564,1.7188740000000002,40.33624320000001,-6.8411185199999975,-36.70941906
2.6399999999999997,264,-0.122,-0.6579999999999999,-0.7829999999999999,17.589810600000003,-4.5263682,1.8334656000000005,40.51958976,-6.8869551599999985,-36.7266078
2.65,265,-0.145,-0.6829999999999999,-0.782,18.3919518,-5.2712136,2.0053530000000004,40.70293632,-6.93852138,-36.74379654
2.6599999999999997,266,-0.154,-0.7070000000000001,-0.773,18.1054728,-4.4117766,1.8334656000000005,40.89201246,-6.98435802,-36.76098528
2.67,267,-0.142,-0.718,-0.7759999999999999,17.3606274,-3.0939732,1.5469866,41.06962944,-7.01300592,-36.76671485999999
2.6799999999999997,268,-0.133,-0.7190000000000001,-0.775,16.8449652,-3.1512689999999997,1.5469866,41.24151684,-7.0416538200000005,-36.77817402
2.69,269,-0.132,-0.7170000000000001,-0.7709999999999999,16.272007199999994,-3.6096353999999997,1.5469866,41.40767466000001,-7.076031300000001,-36.78963318
2.6999999999999997,270,-0.128,-0.7170000000000001,-0.77,15.2406828,-3.7815228,1.5469866,41.5681029,-7.11040878,-36.80682192
2.71,271,-0.132,-0.716,-0.7759999999999999,14.32395,-3.9534102,1.7188740000000002,41.71707198,-7.15051584,-36.81828108000001
2.7199999999999998,272,-0.146,-0.721,-0.7879999999999999,13.5791046,-4.4117766,2.0053530000000004,41.8545819,-7.19635248,-36.83546982
2.73,273,-0.162,-0.7290000000000001,-0.7959999999999999,12.834259199999998,-4.4117766,2.3491277999999998,41.99209182,-7.242189120000001,-36.84692898
2.7399999999999998,274,-0.168,-0.7440000000000001,-0.7979999999999999,11.917526400000002,-3.5523396000000003,2.4064236,42.112413000000004,-7.282296179999999,-36.85265856
2.75,275,-0.16,-0.7559999999999999,-0.7909999999999999,10.7716104,-2.0053530000000004,2.5210152000000003,42.22127501999999,-7.316673659999997,-36.84692898
2.76,276,-0.15,-0.754,-0.778,9.682990199999999,-1.3178034,2.5210152000000003,42.31867788,-7.33959198,-36.83546982
2.77,277,-0.138,-0.7440000000000001,-0.7609999999999999,8.3651868,-1.6042823999999998,2.8074942000000003,42.40462158,-7.36823988,-36.82974024
2.78,278,-0.121,-0.726,-0.757,7.0473834,-2.1199446,3.4377480000000005,42.47337654,-7.408346939999999,-36.81828108000001
2.79,279,-0.122,-0.715,-0.762,6.130650599999999,-3.6096353999999997,4.0680017999999984,42.53640192,-7.459913160000001,-36.8125515
2.8,280,-0.134,-0.7120000000000001,-0.757,5.2139178,-4.3544808,4.4117766,42.58223856,-7.52293854,-36.80682192
2.81,281,-0.141,-0.7090000000000001,-0.7490000000000001,4.5263682,-3.8388186,4.4117766,42.62807520000001,-7.58023434,-36.80109234
2.82,282,-0.149,-0.7070000000000001,-0.746,4.2398892,-3.2658606,4.2398892,42.67391184,-7.63180056,-36.79536276
2.8299999999999996,283,-0.157,-0.7120000000000001,-0.735,4.010706000000001,-3.0366774,3.8388186,42.7140189,-7.677637200000001,-36.7839036
2.84,284,-0.156,-0.718,-0.728,3.5523396000000003,-2.4637194,3.5523396000000003,42.74839638,-7.717744259999999,-36.77817402
2.8499999999999996,285,-0.158,-0.721,-0.731,2.9220858,-1.7188740000000002,3.3231564,42.78277386,-7.76931048,-36.76098528
2.86,286,-0.159,-0.721,-0.731,2.1199446,-1.0886202,3.2658606,42.80569218,-7.79795838,-36.74379654
2.8699999999999997,287,-0.15,-0.716,-0.732,1.3750992,0.057295800000000015,3.0939732,42.81715134,-7.820876699999999,-36.72087822
2.88,288,-0.14,-0.7070000000000001,-0.7290000000000001,1.2032118,0.286479,2.9220858,42.82288092,-7.838065440000001,-36.6979599
2.8899999999999997,289,-0.133,-0.7040000000000001,-0.726,1.0313244000000001,0.11459160000000004,2.5783110000000002,42.83434008,-7.85525418,-36.67504158
2.9,290,-0.126,-0.703,-0.7440000000000001,0.40107059999999994,0.286479,2.1772404,42.78850344,-7.8323358600000015,-36.65785284
2.9099999999999997,291,-0.13,-0.7070000000000001,-0.7559999999999999,0.40107059999999994,0.0,1.8334656000000005,42.79423302,-7.84379502,-36.64639368
2.92,292,-0.139,-0.715,-0.745,0.8594370000000001,-0.286479,1.4896908000000002,42.7999626,-7.860983760000001,-36.63493452
2.9299999999999997,293,-0.14400000000000002,-0.722,-0.732,1.0313244000000001,-0.11459160000000004,1.4896908000000002,42.81142176,-7.866713339999999,-36.62347536
2.94,294,-0.145,-0.7240000000000001,-0.723,0.6302538000000001,0.2291832000000001,1.2032118,42.81715134,-7.8781725000000025,-36.6120162
2.9499999999999997,295,-0.14400000000000002,-0.716,-0.722,-0.40107059999999994,0.7448454000000001,0.9167328000000001,42.8286105,-7.889631660000001,-36.60055704
2.96,296,-0.141,-0.71,-0.722,-0.7448454000000001,0.9740286,0.6875496,42.81715134,-7.889631660000001,-36.58909788
2.9699999999999998,297,-0.135,-0.708,-0.721,-1.0886202,0.8594370000000001,0.6302538000000001,42.80569218,-7.88390208,-36.57763872
2.98,298,-0.141,-0.711,-0.727,-1.2032118,0.057295800000000015,0.6875496,42.79423302,-7.889631660000001,-36.57190914
2.9899999999999998,299,-0.14800000000000002,-0.7140000000000001,-0.727,-1.6615782,0.40107059999999994,0.5156622000000001,42.77131470000001,-7.889631660000001,-36.56617956
3.0,300,-0.146,-0.718,-0.74,-2.0053530000000004,1.2605076000000002,0.2291832000000001,42.74839638,-7.89536124,-36.5547204
3.01,301,-0.154,-0.721,-0.743,-2.1199446,1.6042823999999998,0.0,42.72547806,-7.88390208,-36.54326124
3.02,302,-0.151,-0.72,-0.728,-2.1199446,2.4064236,0.0,42.70255974000001,-7.866713339999999,-36.5260725
3.03,303,-0.138,-0.713,-0.718,-2.3491277999999998,3.2085647999999996,-0.057295800000000015,42.67391184,-7.84379502,-36.50315418
3.04,304,-0.13,-0.705,-0.7020000000000001,-2.3491277999999998,3.4377480000000005,0.0,42.64526393999999,-7.820876699999999,-36.48023586
3.05,305,-0.11800000000000001,-0.69,-0.687,-2.4637194,2.9793816000000004,0.057295800000000015,42.63380478,-7.780769640000001,-36.46877670000001
3.06,306,-0.121,-0.679,-0.696,-2.8074942000000003,2.291832,0.3437748,42.5994273,-7.76931048,-36.44585838
3.07,307,-0.13,-0.6709999999999999,-0.7070000000000001,-2.9220858,1.9480572,0.5156622000000001,42.56504982,-7.75785132,-36.42866964
3.08,308,-0.136,-0.6759999999999999,-0.7190000000000001,-2.8074942000000003,1.8907614,0.5156622000000001,42.53640192,-7.746392160000001,-36.4114809
3.09,309,-0.141,-0.685,-0.715,-2.6356068,2.1772404,0.2291832000000001,42.50775402,-7.734933000000002,-36.394292160000006
3.0999999999999996,310,-0.13699999999999998,-0.693,-0.713,-2.6356068,2.9220858,0.0,42.48483570000001,-7.717744259999999,-36.37710342000001
3.11,311,-0.129,-0.6990000000000001,-0.7120000000000001,-3.0366774,2.5210152000000003,-0.1718874,42.45045822,-7.6948259399999985,-36.35991468
3.1199999999999997,312,-0.111,-0.703,-0.713,-3.6096353999999997,2.0053530000000004,-0.057295800000000015,42.41035116,-7.68336678,-36.34845552
3.13,313,-0.10300000000000001,-0.6970000000000001,-0.725,-4.4690724,0.4583664000000001,0.11459160000000004,42.36451452,-7.68336678,-36.34272594
3.1399999999999997,314,-0.11,-0.6920000000000001,-0.7240000000000001,-4.9847346,-1.0313244000000001,0.40107059999999994,42.312948299999995,-7.6890963600000015,-36.34845552
3.15,315,-0.11599999999999999,-0.6809999999999999,-0.716,-5.1566220000000005,-1.7761698000000001,0.40107059999999994,42.26138208,-7.70055552,-36.35991468
3.1599999999999997,316,-0.125,-0.674,-0.71,-5.042030400000002,-2.1199446,0.11459160000000004,42.20981586,-7.717744259999999,-36.37137384
3.17,317,-0.134,-0.674,-0.701,-4.6409598,-1.8907614,-0.2291832000000001,42.16397922,-7.72920342,-36.38856258
3.1799999999999997,318,-0.145,-0.6859999999999999,-0.706,-4.583664,-1.6042823999999998,-0.3437748,42.12387216000001,-7.74066258,-36.40002174
3.19,319,-0.153,-0.6970000000000001,-0.723,-4.9847346,-1.2605076000000002,-0.3437748,42.07230594,-7.746392160000001,-36.4114809
3.1999999999999997,320,-0.152,-0.705,-0.726,-5.5003968,-0.9167328000000001,-0.5156622000000001,42.03219888,-7.763580899999999,-36.42294006
3.21,321,-0.138,-0.7070000000000001,-0.723,-5.6149884000000005,-0.1718874,-0.7448454000000001,41.97490308,-7.75785132,-36.42866964
3.2199999999999998,322,-0.128,-0.701,-0.7290000000000001,-6.130650599999999,-0.2291832000000001,-0.8594370000000001,41.91187770000001,-7.75785132,-36.4401288
3.23,323,-0.126,-0.693,-0.723,-6.1879464,-1.0886202,-0.9740286,41.8545819,-7.75785132,-36.45731754000001
3.2399999999999998,324,-0.128,-0.688,-0.7190000000000001,-6.2452422,-1.7188740000000002,-1.0313244000000001,41.79155652,-7.763580899999999,-36.47450628
3.25,325,-0.131,-0.687,-0.7190000000000001,-6.417129599999999,-1.4896908000000002,-1.3750992,41.73426072,-7.763580899999999,-36.4974246
3.26,326,-0.142,-0.6890000000000001,-0.723,-6.703608600000001,-1.0886202,-1.8907614,41.67123534,-7.75785132,-36.52034292
3.27,327,-0.157,-0.69,-0.73,-6.8182002000000015,-0.8021411999999999,-2.291832,41.60248038,-7.75212174,-36.54326124
3.28,328,-0.166,-0.6990000000000001,-0.7340000000000001,-7.161975,-0.5156622000000001,-2.5783110000000002,41.53372542,-7.74066258,-36.56617956
3.29,329,-0.155,-0.698,-0.731,-7.6776372,0.40107059999999994,-3.0939732,41.45924088,-7.717744259999999,-36.5833683
3.3,330,-0.15,-0.695,-0.7340000000000001,-8.078707799999998,0.2291832000000001,-3.4377480000000005,41.38475634,-7.70055552,-36.60628662000001
3.31,331,-0.139,-0.688,-0.733,-8.5370742,0.2291832000000001,-3.4950437999999995,41.29881264,-7.677637200000001,-36.63493452
3.32,332,-0.125,-0.684,-0.7340000000000001,-8.7662574,0.40107059999999994,-3.6669312000000014,41.21286894,-7.648989299999997,-36.65785284
3.33,333,-0.121,-0.6809999999999999,-0.742,-8.9954406,0.40107059999999994,-4.010706000000001,41.12692524,-7.620341400000001,-36.68650074
3.34,334,-0.126,-0.684,-0.757,-9.167328,0.11459160000000004,-4.2398892,41.03525196,-7.59742308,-36.71514864
3.3499999999999996,335,-0.14400000000000002,-0.691,-0.758,-9.1100322,0.057295800000000015,-4.5263682,40.94930826,-7.574504760000001,-36.74952612
3.36,336,-0.147,-0.703,-0.753,-9.2819196,1.0886202,-4.8701430000000006,40.85763498,-7.534397699999999,-36.77817402
3.3699999999999997,337,-0.14,-0.711,-0.752,-10.084060800000001,1.7761698000000001,-5.042030400000002,40.76023212,-7.4885610599999985,-36.80682192
3.38,338,-0.131,-0.706,-0.753,-11.45916,1.2032118,-4.9847346,40.64564052,-7.448453999999999,-36.83546982
3.3899999999999997,339,-0.12300000000000001,-0.698,-0.7609999999999999,-12.5477802,0.4583664000000001,-4.8701430000000006,40.52531934,-7.41407652,-36.8698473
3.4,340,-0.11699999999999999,-0.688,-0.7659999999999999,-13.464512999999998,0.057295800000000015,-4.9847346,40.393539000000004,-7.37969904,-36.90995436
3.4099999999999997,341,-0.11,-0.6829999999999999,-0.7659999999999999,-13.980175199999998,-0.2291832000000001,-5.042030400000002,40.25602908,-7.35105114,-36.95006142
3.42,342,-0.122,-0.68,-0.762,-14.209358400000001,-1.3178034,-5.042030400000002,40.11851916,-7.328132819999999,-36.99589806
3.4299999999999997,343,-0.127,-0.6829999999999999,-0.754,-14.7823164,-1.4896908000000002,-5.2139178,39.97527966,-7.31094408,-37.04746428
3.44,344,-0.13,-0.6779999999999999,-0.754,-15.6990492,-1.2605076000000002,-5.5003968,39.820581,-7.288025760000001,-37.0990305
3.4499999999999997,345,-0.12300000000000001,-0.6659999999999999,-0.755,-16.386598799999998,-1.2605076000000002,-5.3285094000000015,39.66015276,-7.259377859999999,-37.15059672
3.46,346,-0.121,-0.66,-0.755,-16.272007199999994,-2.0626488000000003,-4.9274388,39.49972452,-7.2479187000000005,-37.20216294
3.4699999999999998,347,-0.124,-0.654,-0.75,-15.813640800000002,-2.9220858,-4.6982555999999995,39.35075544,-7.242189120000001,-37.25945874
3.48,348,-0.127,-0.652,-0.7509999999999999,-15.6990492,-3.0366774,-4.7555514,39.196056780000006,-7.23645954,-37.31675454
3.4899999999999998,349,-0.127,-0.6459999999999999,-0.75,-15.527161800000002,-2.86479,-4.6982555999999995,39.04708770000001,-7.2307299600000015,-37.37405034
3.5,350,-0.13,-0.642,-0.75,-15.2406828,-2.7501984,-4.6982555999999995,38.89811862,-7.2307299600000015,-37.42561656
3.51,351,-0.135,-0.643,-0.757,-15.297978599999999,-2.3491277999999998,-4.6409598,38.74914954000001,-7.2192707999999985,-37.47718278000001
3.52,352,-0.14800000000000002,-0.638,-0.7509999999999999,-15.2406828,-2.2345362,-4.5263682,38.60018046,-7.20781164,-37.528749
3.53,353,-0.154,-0.635,-0.7490000000000001,-15.297978599999999,-0.9167328000000001,-4.6982555999999995,38.45121138,-7.1906228999999975,-37.56885606
3.54,354,-0.15,-0.631,-0.748,-15.2406828,0.0,-4.9274388,38.302242299999996,-7.161975,-37.60896312
3.55,355,-0.141,-0.63,-0.755,-15.4125702,0.11459160000000004,-5.1566220000000005,38.14754364,-7.13905668,-37.64907018
3.56,356,-0.134,-0.628,-0.757,-15.4125702,-0.6302538000000001,-5.3285094000000015,37.99857456,-7.11040878,-37.69490682
3.57,357,-0.132,-0.622,-0.757,-15.527161800000002,-0.9740286,-5.5003968,37.84960548,-7.0874904600000015,-37.74647304
3.58,358,-0.132,-0.614,-0.775,-15.813640800000002,-0.5156622000000001,-5.6722842,37.69490682,-7.05884256,-37.79230968
3.59,359,-0.134,-0.607,-0.772,-15.183387000000002,-0.3437748,-6.0733548,37.54593774,-7.0244650800000015,-37.84387589999999
3.5999999999999996,360,-0.128,-0.613,-0.7709999999999999,-14.5531332,-0.286479,-6.130650599999999,37.40269823999999,-6.99581718,-37.89544212
3.61,361,-0.125,-0.614,-0.77,-14.266654199999998,-0.6302538000000001,-5.958763200000001,37.25945874,-6.96716928,-37.94700834
3.6199999999999997,362,-0.121,-0.613,-0.772,-14.438541599999999,-0.9740286,-5.844171599999999,37.12194882,-6.93852138,-37.99857456
3.63,363,-0.121,-0.607,-0.7709999999999999,-14.4958374,-1.3178034,-5.5576926,36.97870931999999,-6.92133264,-38.05014078
3.6399999999999997,364,-0.122,-0.597,-0.7709999999999999,-14.266654199999998,-1.7761698000000001,-5.3285094000000015,36.8411994,-6.9041438999999984,-38.10743658
3.65,365,-0.129,-0.59,-0.7759999999999999,-13.8655836,-2.3491277999999998,-5.0993262,36.70368948,-6.898414319999999,-38.159002799999996
3.6599999999999997,366,-0.129,-0.589,-0.7659999999999999,-13.178034,-2.2345362,-4.9847346,36.57763872,-6.8869551599999985,-38.21056902
3.67,367,-0.12300000000000001,-0.59,-0.77,-12.834259199999998,-2.0053530000000004,-4.8128472,36.45158796,-6.875496000000001,-38.26213524
3.6799999999999997,368,-0.126,-0.5920000000000001,-0.777,-12.776963400000001,-2.0626488000000003,-4.6409598,36.32553720000001,-6.86976642,-38.31370146
3.69,369,-0.135,-0.586,-0.7759999999999999,-12.7196676,-2.1199446,-4.2398892,36.20521602,-6.86403684,-38.3595381
3.6999999999999997,370,-0.14400000000000002,-0.579,-0.773,-12.318597,-2.0626488000000003,-3.8961144,36.07916526,-6.86976642,-38.39964516
3.71,371,-0.147,-0.569,-0.765,-11.8602306,-1.432395,-3.7815228,35.96457366,-6.858307260000001,-38.43975222
3.7199999999999998,372,-0.149,-0.562,-0.762,-10.943497800000001,-0.9740286,-3.6669312000000014,35.85571164,-6.8468481,-38.47985928
3.73,373,-0.147,-0.5589999999999999,-0.753,-10.1986524,-0.3437748,-3.5523396000000003,35.75830878,-6.829659359999999,-38.50850718
3.7399999999999998,374,-0.138,-0.556,-0.745,-9.453807,0.40107059999999994,-3.4377480000000005,35.66090592,-6.812470620000001,-38.5314255
3.75,375,-0.127,-0.5489999999999999,-0.74,-9.224623800000002,0.9167328000000001,-3.3231564,35.56350306,-6.7895523,-38.55434382
3.76,376,-0.11800000000000001,-0.54,-0.743,-8.9381448,1.3750992,-3.0366774,35.47182978,-6.76663398,-38.57153256
3.77,377,-0.10800000000000001,-0.534,-0.755,-8.4224826,1.6615782,-2.7501984,35.39161566,-6.7379860800000015,-38.58299172
3.78,378,-0.109,-0.5329999999999999,-0.757,-7.6203414,1.3178034,-2.4064236,35.31140154000001,-6.7150677599999975,-38.59445088
3.79,379,-0.111,-0.54,-0.764,-6.9327918,0.8594370000000001,-1.9480572,35.24264658,-6.69787902,-38.60591004000001
3.8,380,-0.115,-0.546,-0.773,-6.8182002000000015,0.3437748,-1.6042823999999998,35.15670288,-6.686419860000001,-38.61163962
3.81,381,-0.11699999999999999,-0.539,-0.777,-6.4744254,0.11459160000000004,-1.4896908000000002,35.08794792,-6.680690279999999,-38.62309878
3.82,382,-0.11800000000000001,-0.53,-0.773,-5.5576926,0.0,-1.4896908000000002,35.03638170000001,-6.669231119999999,-38.63455794
3.83,383,-0.114,-0.528,-0.774,-4.583664,0.5156622000000001,-1.5469866,34.99054506,-6.65777196,-38.6460171
3.84,384,-0.114,-0.5329999999999999,-0.775,-3.4950437999999995,0.572958,-1.432395,34.95616758,-6.6463128,-38.65174668
3.8499999999999996,385,-0.125,-0.5429999999999999,-0.789,-2.5210152000000003,0.286479,-1.5469866,34.887412620000006,-6.669231119999999,-38.6460171
3.86,386,-0.132,-0.5539999999999999,-0.792,-1.9480572,0.8021411999999999,-1.7761698000000001,34.864494300000004,-6.65204238,-38.65747626
3.8699999999999997,387,-0.11699999999999999,-0.56,-0.7859999999999999,-1.432395,1.8907614,-2.0053530000000004,34.85303514,-6.623394479999999,-38.66320584
3.88,388,-0.1,-0.56,-0.778,-1.145916,2.5783110000000002,-2.1772404,34.84157598,-6.5947465800000025,-38.66320584
3.8899999999999997,389,-0.098,-0.551,-0.773,-0.9167328000000001,2.0626488000000003,-2.291832,34.83011682,-6.566098679999999,-38.66893542
3.9,390,-0.1,-0.5479999999999999,-0.789,-1.145916,2.1199446,-2.3491277999999998,34.78428018,-6.525991620000001,-38.67466500000001
3.9099999999999997,391,-0.109,-0.546,-0.8,-1.0886202,2.6356068,-2.5210152000000003,34.772821019999995,-6.49161414,-38.68039458
3.92,392,-0.109,-0.555,-0.804,-0.40107059999999994,3.4377480000000005,-2.6929026,34.767091439999994,-6.4457775,-38.68039458
3.9299999999999997,393,-0.10400000000000001,-0.5670000000000001,-0.8079999999999999,0.1718874,3.4377480000000005,-2.7501984,34.767091439999994,-6.40567044,-38.68039458
3.94,394,-0.10400000000000001,-0.573,-0.805,0.6302538000000001,2.5210152000000003,-2.6356068,34.772821019999995,-6.3655633799999976,-38.69185374
3.9499999999999997,395,-0.105,-0.574,-0.8109999999999999,0.4583664000000001,2.4637194,-2.6356068,34.75563228,-6.3311859,-38.69185374
3.96,396,-0.105,-0.573,-0.816,0.7448454000000001,2.8074942000000003,-2.5783110000000002,34.76136186,-6.29107884,-38.69758331999999
3.9699999999999998,397,-0.094,-0.5760000000000001,-0.8079999999999999,1.0313244000000001,3.0366774,-2.6356068,34.772821019999995,-6.25097178,-38.70331289999999
3.98,398,-0.08900000000000001,-0.578,-0.8170000000000001,0.8021411999999999,2.6356068,-2.5783110000000002,34.78428018,-6.2165943,-38.70904248
3.9899999999999998,399,-0.091,-0.574,-0.8109999999999999,1.0313244000000001,2.291832,-2.5783110000000002,34.79573934,-6.18221682,-38.71477206
4.0,400,-0.092,-0.574,-0.8190000000000001,1.0313244000000001,2.291832,-2.4064236,34.772821019999995,-6.13638018,-38.72050164
4.01,401,-0.1,-0.58,-0.8220000000000001,1.2605076000000002,2.1199446,-2.291832,34.79000976,-6.1077322800000005,-38.72623122
4.02,402,-0.099,-0.586,-0.818,1.2032118,2.5210152000000003,-2.291832,34.80146892,-6.0733548000000015,-38.72623122
4.03,403,-0.09,-0.591,-0.816,1.145916,2.4637194,-2.2345362,34.81292808,-6.0447069,-38.7319608
4.04,404,-0.087,-0.586,-0.8059999999999999,0.9167328000000001,1.145916,-2.0053530000000004,34.82438724000001,-6.02178858,-38.74341996
4.05,405,-0.08,-0.5770000000000001,-0.794,0.9740286,-0.057295800000000015,-1.7188740000000002,34.81292808,-5.958763200000001,-38.76633828
4.06,406,-0.08199999999999999,-0.5710000000000001,-0.813,0.6302538000000001,-0.5156622000000001,-1.6042823999999998,34.82438724000001,-5.9530336199999985,-38.78352702
4.07,407,-0.1,-0.574,-0.823,0.6302538000000001,-0.3437748,-1.6615782,34.83011682,-5.9473040400000015,-38.79498618
4.08,408,-0.107,-0.583,-0.818,1.145916,0.7448454000000001,-2.1199446,34.84157598,-5.930115299999999,-38.81217492
4.09,409,-0.10099999999999999,-0.589,-0.812,1.3750992,2.0626488000000003,-2.4637194,34.85876472,-5.895737819999999,-38.8179045
4.1,410,-0.094,-0.591,-0.807,1.3750992,1.8907614,-2.6356068,34.870223880000005,-5.85563076,-38.82936366
4.109999999999999,411,-0.087,-0.5870000000000001,-0.812,1.145916,1.3178034,-2.6356068,34.887412620000006,-5.8269828599999975,-38.8465524
4.12,412,-0.086,-0.581,-0.8270000000000001,0.9167328000000001,0.8021411999999999,-2.5783110000000002,34.8931422,-5.80406454,-38.86374114
4.13,413,-0.094,-0.581,-0.8190000000000001,1.3750992,0.7448454000000001,-2.7501984,34.91033094,-5.7868758,-38.88092988
4.14,414,-0.10099999999999999,-0.5870000000000001,-0.818,1.7761698000000001,1.0886202,-2.9220858,34.933249260000004,-5.7582279000000005,-38.89811862
4.1499999999999995,415,-0.098,-0.593,-0.809,2.0626488000000003,0.9167328000000001,-3.0366774,34.95616758,-5.72958,-38.91530736
4.16,416,-0.092,-0.598,-0.8079999999999999,1.9480572,0.8594370000000001,-3.0366774,34.9790859,-5.70666168,-38.93822568
4.17,417,-0.086,-0.601,-0.8140000000000001,1.3750992,1.0313244000000001,-3.0939732,34.99627464,-5.67801378,-38.95541442
4.18,418,-0.081,-0.603,-0.818,1.0886202,1.2605076000000002,-3.0366774,35.0077338,-5.64936588,-38.97260316
4.1899999999999995,419,-0.086,-0.599,-0.813,1.2605076000000002,0.8594370000000001,-2.86479,35.02492254,-5.62644756,-38.9897919
4.2,420,-0.096,-0.595,-0.8059999999999999,1.3750992,0.057295800000000015,-2.6356068,35.03638170000001,-5.6149884000000005,-39.01271022
4.21,421,-0.10099999999999999,-0.593,-0.8029999999999999,1.3178034,0.057295800000000015,-2.6356068,35.05357044,-5.6035292399999985,-39.03562854
4.22,422,-0.10300000000000001,-0.59,-0.805,1.0886202,0.6302538000000001,-2.6929026,35.0650296,-5.58061092,-39.05281728
4.2299999999999995,423,-0.107,-0.59,-0.802,1.3178034,1.4896908000000002,-2.86479,35.082218340000004,-5.5519630200000005,-39.06427644
4.24,424,-0.10099999999999999,-0.59,-0.7929999999999999,1.432395,2.5783110000000002,-3.0366774,35.09940708000001,-5.51185596,-39.0757356
4.25,425,-0.094,-0.588,-0.8,1.3178034,2.5783110000000002,-2.86479,35.09940708000001,-5.47747848,-39.08146518
4.26,426,-0.102,-0.585,-0.799,1.5469866,1.3178034,-2.8074942000000003,35.11659582,-5.45456016,-39.09865392
4.27,427,-0.105,-0.583,-0.79,1.6615782,0.7448454000000001,-2.8074942000000003,35.13951414,-5.4316418399999975,-39.11584266
4.28,428,-0.091,-0.59,-0.7979999999999999,1.4896908000000002,1.6042823999999998,-2.86479,35.15670288,-5.3972643599999985,-39.12730182
4.29,429,-0.081,-0.593,-0.807,1.145916,1.3178034,-2.9793816000000004,35.16816204,-5.37434604,-39.14449056
4.3,430,-0.086,-0.594,-0.802,1.145916,0.5156622000000001,-2.7501984,35.18535078,-5.3456981400000005,-39.16740888
4.31,431,-0.09300000000000001,-0.593,-0.795,1.2032118,0.6875496,-2.6929026,35.19680993999999,-5.3285094000000015,-39.18459762
4.32,432,-0.1,-0.594,-0.7979999999999999,0.9740286,1.5469866,-2.6929026,35.20826909999999,-5.2998615,-39.196056780000006
4.33,433,-0.098,-0.598,-0.7909999999999999,0.9740286,2.0053530000000004,-2.6356068,35.21972826,-5.2654840200000015,-39.20751594
4.34,434,-0.092,-0.593,-0.7859999999999999,0.8021411999999999,1.5469866,-2.4064236,35.23118742,-5.23683612,-39.2189751
4.35,435,-0.086,-0.578,-0.789,0.6302538000000001,0.7448454000000001,-2.291832,35.21399868,-5.2139178,-39.23043426
4.36,436,-0.084,-0.57,-0.787,0.8021411999999999,0.40107059999999994,-2.2345362,35.22545784,-5.2024586400000015,-39.24189342
4.37,437,-0.084,-0.578,-0.795,0.9740286,0.5156622000000001,-2.1772404,35.236917,-5.1852699,-39.25908216000001
4.38,438,-0.08900000000000001,-0.594,-0.8,1.2605076000000002,0.4583664000000001,-2.0626488000000003,35.24837616,-5.16808116,-39.27054132
4.39,439,-0.1,-0.607,-0.8059999999999999,0.9167328000000001,0.057295800000000015,-1.8907614,35.25983532,-5.1566220000000005,-39.28773006
4.3999999999999995,440,-0.10800000000000001,-0.614,-0.804,0.40107059999999994,0.057295800000000015,-1.9480572,35.30567196,-5.1852699,-39.304918799999996
4.41,441,-0.096,-0.612,-0.795,0.0,1.2605076000000002,-2.0053530000000004,35.30567196,-5.16235158,-39.31064838
4.42,442,-0.09,-0.6,-0.7979999999999999,-0.11459160000000004,1.7761698000000001,-1.9480572,35.30567196,-5.13370368,-39.31637796
4.43,443,-0.09,-0.5870000000000001,-0.794,0.057295800000000015,1.6042823999999998,-1.7188740000000002,35.30567196,-5.11078536,-39.32210754000001
4.4399999999999995,444,-0.09300000000000001,-0.58,-0.792,0.40107059999999994,1.2605076000000002,-1.4896908000000002,35.31140154000001,-5.0935966200000005,-39.32783712
4.45,445,-0.094,-0.588,-0.7929999999999999,0.572958,1.3750992,-1.432395,35.31713112,-5.08786704,-39.32783712
4.46,446,-0.096,-0.597,-0.792,0.40107059999999994,1.5469866,-1.4896908000000002,35.31713112,-5.06494872,-39.32783712
4.47,447,-0.099,-0.602,-0.795,0.057295800000000015,1.6615782,-1.432395,35.31713112,-5.042030400000002,-39.32783712
4.4799999999999995,448,-0.1,-0.604,-0.805,-0.8021411999999999,2.0053530000000004,-1.432395,35.31140154000001,-5.01911208,-39.32783712
4.49,449,-0.09300000000000001,-0.602,-0.802,-1.4896908000000002,2.291832,-1.145916,35.29421280000001,-4.99619376,-39.32783712
4.5,450,-0.085,-0.595,-0.7959999999999999,-1.4896908000000002,2.5210152000000003,-0.9740286,35.27702406,-4.96754586,-39.31637796
4.51,451,-0.087,-0.585,-0.789,-1.0886202,2.4064236,-0.6302538000000001,35.2655649,-4.94462754,-39.31064838
4.52,452,-0.08800000000000001,-0.588,-0.8009999999999999,-1.2032118,2.4637194,-0.3437748,35.25410574,-4.9274388,-39.29918922
4.53,453,-0.096,-0.596,-0.805,-1.0313244000000001,1.7761698000000001,-0.057295800000000015,35.24264658,-4.91025006,-39.28773006
4.54,454,-0.092,-0.595,-0.79,-0.9167328000000001,1.7188740000000002,-0.057295800000000015,35.23118742,-4.898790900000002,-39.2762709
4.55,455,-0.08199999999999999,-0.5820000000000001,-0.7829999999999999,-1.0313244000000001,1.6615782,-0.057295800000000015,35.20826909999999,-4.88160216,-39.26481174
4.56,456,-0.078,-0.568,-0.778,-0.8594370000000001,1.0313244000000001,-0.286479,35.20253952,-4.8701430000000006,-39.26481174
4.57,457,-0.083,-0.5710000000000001,-0.787,-0.572958,0.9740286,-0.40107059999999994,35.19680993999999,-4.86441342,-39.25908216000001
4.58,458,-0.08900000000000001,-0.583,-0.7959999999999999,-0.40107059999999994,1.4896908000000002,-0.286479,35.19108036,-4.84722468,-39.25335258
4.59,459,-0.092,-0.591,-0.7909999999999999,-0.11459160000000004,2.1772404,-0.1718874,35.18535078,-4.83003594,-39.24189342
4.6,460,-0.094,-0.591,-0.792,-0.1718874,2.7501984,0.0,35.19108036,-4.83003594,-39.22470468
4.61,461,-0.086,-0.59,-0.792,-0.2291832000000001,3.7242269999999995,0.0,35.18535078,-4.80138804,-39.20178636
4.62,462,-0.081,-0.59,-0.8009999999999999,-0.286479,4.2398892,-0.057295800000000015,35.17962120000001,-4.76701056,-39.17886804
4.63,463,-0.079,-0.589,-0.818,-0.572958,3.8961144,-0.286479,35.16816204,-4.73263308,-39.15594972
4.64,464,-0.077,-0.595,-0.8170000000000001,-0.1718874,3.2658606,-0.3437748,35.16816204,-4.703985179999999,-39.13876098
4.6499999999999995,465,-0.07200000000000001,-0.605,-0.8170000000000001,-0.057295800000000015,3.2085647999999996,-0.4583664000000001,35.16243246,-4.65814854,-39.12730182
4.66,466,-0.071,-0.608,-0.8190000000000001,-0.2291832000000001,2.5210152000000003,-0.5156622000000001,35.15670288,-4.63523022,-39.11584266
4.67,467,-0.064,-0.606,-0.8059999999999999,-0.1718874,2.1199446,-0.6302538000000001,35.15670288,-4.6180414800000005,-39.11011308
4.68,468,-0.062,-0.601,-0.8029999999999999,-0.286479,1.9480572,-0.6875496,35.1509733,-4.59512316,-39.104383500000004
4.6899999999999995,469,-0.069,-0.599,-0.805,-0.40107059999999994,1.7188740000000002,-0.6875496,35.14524372,-4.57793442,-39.09865392
4.7,470,-0.075,-0.597,-0.8079999999999999,-0.6302538000000001,1.6615782,-0.6875496,35.133784559999995,-4.5550161000000005,-39.09292434
4.71,471,-0.077,-0.596,-0.813,-0.7448454000000001,1.3750992,-0.5156622000000001,35.122325399999994,-4.54355694,-39.08719476
4.72,472,-0.07400000000000001,-0.59,-0.8029999999999999,-0.572958,1.6615782,-0.40107059999999994,35.11659582,-4.5263682,-39.08146518
4.7299999999999995,473,-0.067,-0.588,-0.79,-0.2291832000000001,1.7188740000000002,-0.3437748,35.11086624,-4.50917946,-39.0757356
4.74,474,-0.066,-0.593,-0.7979999999999999,-0.2291832000000001,1.0313244000000001,-0.11459160000000004,35.11086624,-4.50344988,-39.07000602
4.75,475,-0.069,-0.593,-0.8029999999999999,-0.8021411999999999,0.3437748,0.0,35.09940708000001,-4.46334282,-39.0757356
4.76,476,-0.067,-0.591,-0.799,-0.9167328000000001,0.3437748,0.286479,35.08794792,-4.46334282,-39.07000602
4.77,477,-0.064,-0.584,-0.8,-0.9740286,0.7448454000000001,0.2291832000000001,35.076488760000004,-4.45761324,-39.06427644
4.78,478,-0.073,-0.575,-0.792,-0.3437748,0.286479,0.3437748,35.076488760000004,-4.45761324,-39.05854686
4.79,479,-0.077,-0.574,-0.787,0.0,0.6302538000000001,0.3437748,35.076488760000004,-4.45188366,-39.05281728
4.8,480,-0.079,-0.5770000000000001,-0.79,0.40107059999999994,1.2605076000000002,0.40107059999999994,35.05930002,-4.4690724,-39.03562854
4.81,481,-0.081,-0.579,-0.7879999999999999,0.40107059999999994,1.3750992,0.5156622000000001,35.0650296,-4.45761324,-39.02416938
4.82,482,-0.076,-0.58,-0.7879999999999999,0.5156622000000001,1.3750992,0.4583664000000001,35.07075918,-4.45188366,-39.00698064
4.83,483,-0.07200000000000001,-0.5760000000000001,-0.785,0.6875496,1.2032118,0.40107059999999994,35.076488760000004,-4.44615408,-39.00125106
4.84,484,-0.064,-0.575,-0.782,0.6302538000000001,1.432395,0.286479,35.082218340000004,-4.43469492,-38.9897919
4.85,485,-0.061,-0.573,-0.779,0.6875496,1.145916,0.286479,35.076488760000004,-4.40031744,-38.98406232000001
4.86,486,-0.061,-0.568,-0.774,0.8594370000000001,0.8021411999999999,0.40107059999999994,35.08794792,-4.39458786,-38.97260316
4.87,487,-0.066,-0.562,-0.773,1.145916,0.572958,0.5156622000000001,35.09940708000001,-4.39458786,-38.96687358000001
4.88,488,-0.076,-0.563,-0.7829999999999999,1.2032118,0.9740286,0.6875496,35.11086624,-4.38885828,-38.95541442
4.89,489,-0.084,-0.5660000000000001,-0.785,1.2032118,1.8907614,0.6875496,35.11659582,-4.37739912,-38.93822568
4.8999999999999995,490,-0.086,-0.561,-0.78,1.6615782,2.6929026,0.6875496,35.11659582,-4.37166954,-38.90957778
4.91,491,-0.085,-0.557,-0.7759999999999999,2.1199446,2.86479,0.6302538000000001,35.133784559999995,-4.3544808,-38.88665946
4.92,492,-0.081,-0.5539999999999999,-0.765,2.8074942000000003,2.86479,0.6302538000000001,35.16243246,-4.33729206,-38.86374114
4.93,493,-0.073,-0.5529999999999999,-0.76,3.3231564,3.0939732,0.6302538000000001,35.19680993999999,-4.31437374,-38.84082282
4.9399999999999995,494,-0.073,-0.556,-0.763,3.8388186,2.7501984,1.0313244000000001,35.23118742,-4.297185000000002,-38.8179045
4.95,495,-0.08199999999999999,-0.5539999999999999,-0.758,4.4690724,2.5210152000000003,1.3178034,35.2655649,-4.297185000000002,-38.78352702
4.96,496,-0.095,-0.551,-0.7609999999999999,5.2712136,2.6356068,1.4896908000000002,35.31713112,-4.27999626,-38.76060870000001
4.97,497,-0.10099999999999999,-0.5539999999999999,-0.78,5.6149884000000005,3.6669312000000014,1.3178034,35.37442692000001,-4.26280752,-38.72623122
4.9799999999999995,498,-0.10099999999999999,-0.569,-0.7859999999999999,6.3025379999999975,4.6982555999999995,1.2605076000000002,35.4374523,-4.22843004,-38.68612416
4.99,499,-0.094,-0.588,-0.78,6.7609043999999985,5.6149884000000005,1.3178034,35.50047768,-4.19405256,-38.64028752
5.0,500,-0.087,-0.595,-0.7759999999999999,6.6463128000000005,6.417129599999999,1.3178034,35.56923264,-4.1539455,-38.59445088
5.01,501,-0.076,-0.591,-0.782,6.0160589999999985,6.990087599999999,1.5469866,35.620798859999994,-4.10810886,-38.53715508000001
5.02,502,-0.069,-0.584,-0.7959999999999999,5.7868758000000025,6.990087599999999,1.9480572,35.67809466,-4.06227222,-38.47985928
5.03,503,-0.07400000000000001,-0.581,-0.809,6.0160589999999985,6.589017,2.4064236,35.73539046000001,-4.022165159999999,-38.42256348
5.04,504,-0.08199999999999999,-0.5820000000000001,-0.8059999999999999,6.5317212,6.703608600000001,2.8074942000000003,35.79268626,-3.98778768,-38.3595381
5.05,505,-0.08199999999999999,-0.588,-0.804,6.9327918,7.333862400000001,3.0366774,35.85571164,-3.9534102,-38.28505356
5.06,506,-0.077,-0.594,-0.813,6.875496000000001,7.6203414,3.380452200000001,35.91873702,-3.91330314,-38.21056902
5.07,507,-0.07400000000000001,-0.599,-0.818,6.703608600000001,7.9641161999999985,3.5523396000000003,35.97603282,-3.8674665,-38.13608448
5.08,508,-0.064,-0.603,-0.8240000000000001,6.8182002000000015,8.479778399999999,3.6096353999999997,36.03905820000001,-3.82162986,-38.05587036
5.09,509,-0.049,-0.608,-0.8290000000000001,6.703608600000001,8.7662574,3.6096353999999997,36.10208358,-3.77579322,-37.96992666
5.1,510,-0.039,-0.608,-0.843,6.589017,8.307891,3.9534102,36.1536498,-3.7242269999999995,-37.88971254000001
5.11,511,-0.044000000000000004,-0.613,-0.85,6.6463128000000005,7.0473834,4.4690724,36.21667518,-3.6955791,-37.80949842
5.12,512,-0.048,-0.624,-0.8640000000000001,6.875496000000001,6.8182002000000015,5.0993262,36.27970056,-3.666931200000001,-37.729284299999996
5.13,513,-0.047,-0.635,-0.875,6.9327918,6.589017,5.6722842,36.34272594,-3.64974246,-37.6433406
5.14,514,-0.046,-0.65,-0.883,7.0473834,5.0993262,6.0160589999999985,36.4114809,-3.644012880000001,-37.56312648
5.1499999999999995,515,-0.051,-0.665,-0.894,6.3025379999999975,3.2085647999999996,6.3025379999999975,36.46304712,-3.64974246,-37.48864194
5.16,516,-0.057,-0.679,-0.89,5.6722842,2.1199446,6.3025379999999975,36.51461334,-3.67266078,-37.42561656
5.17,517,-0.059000000000000004,-0.6829999999999999,-0.888,4.6409598,2.1772404,6.3598338,36.56044998,-3.68984952,-37.36259118
5.18,518,-0.063,-0.679,-0.8959999999999999,3.3231564,2.8074942000000003,6.130650599999999,36.58909788,-3.70703826,-37.2995658
5.1899999999999995,519,-0.07,-0.6709999999999999,-0.883,2.9220858,3.3231564,5.72958,36.61774578,-3.71276784,-37.23081084
5.2,520,-0.08199999999999999,-0.665,-0.9,2.0626488000000003,4.1825934,5.443101,36.62347536,-3.71849742,-37.16205588
5.21,521,-0.087,-0.657,-0.894,2.0053530000000004,4.3544808,5.2712136,36.63493452,-3.71276784,-37.08757134
5.22,522,-0.086,-0.659,-0.9059999999999999,1.8334656000000005,4.6982555999999995,5.3285094000000015,36.65212326,-3.71276784,-37.01881638
5.2299999999999995,523,-0.08900000000000001,-0.6629999999999999,-0.932,1.0886202,4.5263682,5.2712136,36.65785284,-3.70703826,-36.95006142
5.24,524,-0.087,-0.6659999999999999,-0.924,0.6302538000000001,5.443101,5.042030400000002,36.65785284,-3.6955791,-36.87557688
5.25,525,-0.08199999999999999,-0.6659999999999999,-0.909,1.6615782,5.1566220000000005,4.8701430000000006,36.66358242,-3.68411994,-36.80109234
5.26,526,-0.068,-0.6629999999999999,-0.8959999999999999,2.1772404,4.583664,4.7555514,36.68077116,-3.67839036,-36.73806696
5.27,527,-0.054000000000000006,-0.667,-0.9009999999999999,2.3491277999999998,5.3858052,4.4690724,36.6979599,-3.66120162,-36.66931200000001
5.28,528,-0.051,-0.6679999999999999,-0.925,2.4064236,6.130650599999999,4.583664,36.71514864,-3.6382833,-36.59482746
5.29,529,-0.07400000000000001,-0.665,-0.9420000000000001,2.6929026,6.875496000000001,4.8128472,36.73806696,-3.61536498,-36.50888376
5.3,530,-0.081,-0.664,-0.97,2.3491277999999998,9.6256944,4.8701430000000006,36.74379654,-3.56952834,-36.4114809
5.31,531,-0.068,-0.6679999999999999,-0.991,3.7242269999999995,12.261301199999998,5.3285094000000015,36.77244444,-3.50650296,-36.29115972
5.32,532,-0.053,-0.6759999999999999,-0.981,6.0160589999999985,11.8602306,6.130650599999999,36.82401066,-3.4492071599999994,-36.17083854
5.33,533,-0.04,-0.6970000000000001,-0.987,8.021412000000002,9.682990199999999,6.990087599999999,36.898495200000006,-3.4148296799999995,-36.05624694
5.34,534,-0.027000000000000003,-0.7120000000000001,-0.982,9.167328,8.880849000000003,7.5630456000000015,36.984438899999994,-3.3919113599999995,-35.94165534
5.35,535,-0.016,-0.728,-0.9890000000000001,10.313244000000001,9.1100322,7.7922288,37.07611218,-3.36326346,-35.82133416
5.36,536,-0.011000000000000001,-0.721,-1.013,11.0580894,8.5370742,7.7922288,37.17924462,-3.34034514,-35.70674256
5.37,537,-0.017,-0.7070000000000001,-1.0170000000000001,11.5737516,7.734933000000002,7.5630456000000015,37.28810664,-3.3231564,-35.59788054
5.38,538,-0.025,-0.705,-1.016,12.9488508,7.6203414,6.990087599999999,37.41415739999999,-3.3059676599999994,-35.4947481
5.39,539,-0.033,-0.718,-1.0090000000000001,13.980175199999998,8.250595200000001,6.417129599999999,37.55166732,-3.28304934,-35.39161566
5.3999999999999995,540,-0.024,-0.737,-1.006,14.8396122,9.0527364,6.0160589999999985,37.68917724000001,-3.24294228,-35.28848322
5.41,541,-0.025,-0.7509999999999999,-1.0,15.527161800000002,8.078707799999998,6.130650599999999,37.83814632,-3.214294380000001,-35.19108036
5.42,542,-0.023,-0.743,-0.971,16.501190400000002,6.589017,6.417129599999999,38.00430414,-3.20283522,-35.09940708000001
5.43,543,-0.02,-0.723,-0.953,18.2200644,6.130650599999999,6.3025379999999975,38.18192112,-3.1913760600000005,-35.0077338
5.4399999999999995,544,-0.023,-0.708,-0.946,20.340009,5.7868758000000025,6.0733548,38.38245642,-3.1799169000000003,-34.9217901
5.45,545,-0.026000000000000002,-0.696,-0.9309999999999999,21.600516600000002,6.3598338,5.5576926,38.588721299999996,-3.1627281600000003,-34.84157598
5.46,546,-0.03,-0.691,-0.907,23.5485738,8.7089616,4.9274388,38.82363408,-3.1226211000000004,-34.74417312
5.47,547,-0.032,-0.6940000000000001,-0.894,26.41336380000001,10.657018800000001,4.6409598,39.08146518,-3.07105488,-34.64104068
5.4799999999999995,548,-0.048,-0.698,-0.883,29.2781538,9.9694692,5.042030400000002,39.37367376,-3.01948866,-34.53790823999999
5.49,549,-0.057,-0.7040000000000001,-0.853,31.340802600000004,8.7089616,5.5003968,39.68880066,-2.99084076,-34.4347758
5.5,550,-0.047,-0.6920000000000001,-0.82,33.4607472,8.7662574,5.72958,40.01538672,-2.9507337000000002,-34.33737294
5.51,551,-0.02,-0.679,-0.7909999999999999,36.6120162,9.5111028,5.5003968,40.38207984,-2.91062664,-34.228510920000005
5.52,552,-0.008,-0.674,-0.7709999999999999,39.1330314,9.682990199999999,5.2712136,40.77169128,-2.87051958,-34.12537848
5.53,553,-0.01,-0.67,-0.747,40.5081306,9.3392154,5.2139178,41.17849146,-2.83041252,-34.02224604
5.54,554,-0.023,-0.664,-0.7170000000000001,43.7166954,8.651665800000002,5.7868758000000025,41.61393954,-2.80176462,-33.9191136
5.55,555,-0.033,-0.6709999999999999,-0.7020000000000001,46.8679644,9.167328,6.2452422,42.0837651,-2.76738714,-33.81025158
5.56,556,-0.039,-0.6759999999999999,-0.687,48.8160216,9.5111028,6.5317212,42.57650898,-2.73873924,-33.69565998
5.57,557,-0.042,-0.6759999999999999,-0.6709999999999999,51.9672906,7.9641161999999985,7.3911582,43.09790076,-2.7215505,-33.58679796
5.58,558,-0.054000000000000006,-0.696,-0.6809999999999999,54.94667220000001,5.443101,8.193299399999999,43.64794044,-2.73300966,-33.48366552
5.59,559,-0.059000000000000004,-0.706,-0.677,56.0925882,4.5263682,8.880849000000003,44.21516886,-2.75592798,-33.39199224
5.6,560,-0.04,-0.711,-0.6709999999999999,57.4103916,3.8961144,9.0527364,44.79385644,-2.78457588,-33.294589380000005
5.61,561,-0.04,-0.721,-0.642,58.9573782,2.86479,9.1100322,45.38400318,-2.81895336,-33.208645680000004
5.62,562,-0.032,-0.732,-0.619,60.2178858,3.4950437999999995,8.4224826,45.99133866,-2.84760126,-33.12270198
5.63,563,-0.032,-0.75,-0.612,60.9054354,4.9847346,7.6203414,46.60440372,-2.86479,-33.03102869999999
5.64,564,-0.033,-0.76,-0.595,61.24921020000001,6.417129599999999,6.7609043999999985,47.22319836000001,-2.85906042,-32.93935542
5.6499999999999995,565,-0.051,-0.773,-0.579,61.764872399999994,6.990087599999999,6.703608600000001,47.85345216,-2.85906042,-32.84195256
5.66,566,-0.07,-0.7829999999999999,-0.5579999999999999,61.4783934,7.2765666,7.333862400000001,48.46651722,-2.85906042,-32.73309054
5.67,567,-0.076,-0.78,-0.537,60.8481396,7.448453999999999,8.250595200000001,49.07958228,-2.86479,-32.618498939999995
5.68,568,-0.079,-0.7659999999999999,-0.499,60.045998399999995,6.703608600000001,9.2819196,49.68118818,-2.88197874,-32.50390734
5.6899999999999995,569,-0.08,-0.743,-0.447,58.9573782,6.1879464,10.1413566,50.2770645,-2.91635622,-32.389315739999994
5.7,570,-0.077,-0.71,-0.39799999999999996,56.72284200000001,5.72958,11.2299768,50.85575208,-2.96219286,-32.274724140000004
5.71,571,-0.054000000000000006,-0.657,-0.36200000000000004,53.858052,5.2712136,12.9488508,51.39433260000001,-3.02521824,-32.14867338
5.72,572,-0.033,-0.596,-0.354,50.993262,2.9793816000000004,14.438541599999999,51.90999480000001,-3.11116194,-32.03408178
5.7299999999999995,573,-0.025,-0.5670000000000001,-0.385,49.7327544,-1.8334656000000005,15.813640800000002,52.40846826000001,-3.2372127,-31.95386766
5.74,574,-0.054000000000000006,-0.5670000000000001,-0.39399999999999996,48.8733174,-7.161975,16.558486199999994,52.90121214000001,-3.40337052,-31.90803102
5.75,575,-0.08199999999999999,-0.59,-0.36,51.1651494,-10.3705398,15.297978599999999,53.4283335,-3.58671708,-31.89657186
5.76,576,-0.11199999999999999,-0.628,-0.32799999999999996,54.14453099999999,-9.740286,11.45916,53.984102760000006,-3.7242269999999995,-31.90803102
5.77,577,-0.124,-0.6659999999999999,-0.364,55.7488134,-5.443101,7.5057497999999985,54.55133118,-3.810170700000002,-31.90803102
5.78,578,-0.128,-0.698,-0.385,53.9726436,-0.9167328000000001,5.0993262,55.09564128,-3.84454818,-31.885112699999997
5.79,579,-0.121,-0.7290000000000001,-0.37799999999999995,52.0245864,2.291832,4.6982555999999995,55.62276264,-3.8674665,-31.83354648000001
5.8,580,-0.10099999999999999,-0.768,-0.34700000000000003,50.1911208,4.6982555999999995,5.0993262,56.138424840000006,-3.87892566,-31.76479152
5.81,581,-0.079,-0.795,-0.373,47.0398518,5.5003968,6.7609043999999985,56.60825040000001,-3.90184398,-31.67884782
5.82,582,-0.064,-0.836,-0.435,43.544808,4.8128472,8.136003599999999,57.04369848,-3.94195104,-31.592904120000004
5.83,583,-0.06,-0.887,-0.4920000000000001,39.47680620000001,3.0366774,8.59437,57.4390395,-3.99351726,-31.51841958
5.84,584,-0.055999999999999994,-0.91,-0.5,35.809875,0.8594370000000001,8.021412000000002,57.80000303999999,-4.05081306,-31.46685336
5.85,585,-0.052000000000000005,-0.924,-0.54,34.2055926,-1.4896908000000002,5.958763200000001,58.14377784,-4.0966497,-31.443935040000003
5.86,586,-0.055999999999999994,-0.932,-0.545,36.4974246,-7.448453999999999,3.3231564,58.52193012,-4.15967508,-31.48977168
5.87,587,-0.078,-0.955,-0.53,40.1643558,-10.828906199999999,1.8907614,58.93445988,-4.22270046,-31.5699858
5.88,588,-0.11800000000000001,-0.992,-0.519,42.62807520000001,-10.1413566,2.5210152000000003,59.37563754,-4.29145542,-31.64447034
5.89,589,-0.134,-1.014,-0.521,44.748019799999994,-7.9641161999999985,3.6096353999999997,59.83400394,-4.3544808,-31.69603656
5.8999999999999995,590,-0.124,-1.013,-0.518,45.550160999999996,-8.193299399999999,5.0993262,60.303829500000006,-4.43469492,-31.73614362
5.91,591,-0.12,-0.983,-0.48700000000000004,46.0658232,-10.7143146,6.7609043999999985,60.77938464,-4.53782736,-31.79343942000001
5.92,592,-0.125,-0.9590000000000001,-0.451,47.784697200000004,-13.750992000000002,8.880849000000003,61.27212852,-4.6696076999999985,-31.86792396
5.93,593,-0.126,-0.9440000000000001,-0.44,48.70143,-14.610429000000002,10.4278356,61.77633156,-4.81857678,-31.94813808
5.9399999999999995,594,-0.122,-0.9079999999999999,-0.42100000000000004,49.847346,-13.3499214,9.682990199999999,62.28626418,-4.9560867,-32.01689304
5.95,595,-0.10800000000000001,-0.89,-0.39299999999999996,52.2537696,-11.1153852,7.5630456000000015,62.83057427999999,-5.0706783,-32.07991842
5.96,596,-0.121,-0.889,-0.39,55.06126379999999,-7.7922288,7.5630456000000015,63.39207312,-5.16235158,-32.114295899999995
5.97,597,-0.14,-0.8809999999999999,-0.38,57.86875799999999,-6.990087599999999,8.7089616,63.98221986,-5.2654840200000015,-32.13148464
5.9799999999999995,598,-0.14,-0.878,-0.382,60.7908438,-8.307891,9.740286,64.60674408,-5.37434604,-32.16586212
5.99,599,-0.149,-0.8859999999999999,-0.336,64.28588760000001,-8.136003599999999,9.3392154,65.25991619999999,-5.48320806,-32.19451002
6.0,600,-0.157,-0.897,-0.32299999999999995,65.3745078,-4.4690724,7.5057497999999985,65.93027706000001,-5.56915176,-32.2002396
6.01,601,-0.165,-0.895,-0.32,67.7236356,-0.7448454000000001,5.5003968,66.61782666,-5.6149884000000005,-32.177321279999994
6.02,602,-0.168,-0.875,-0.294,70.07276340000001,2.6929026,4.7555514,67.322565,-5.6436363,-32.13148464
6.03,603,-0.17600000000000002,-0.862,-0.244,72.9948492,4.0680017999999984,6.0160589999999985,68.05595124,-5.6722842,-32.062729680000004
6.04,604,-0.174,-0.851,-0.23399999999999999,72.5937786,5.844171599999999,7.5630456000000015,68.7836079,-5.71239126,-31.97678598
6.05,605,-0.174,-0.836,-0.226,71.7343416,7.5057497999999985,8.250595200000001,69.50553498000001,-5.76395748,-31.86792396
6.06,606,-0.166,-0.8240000000000001,-0.213,71.5051584,8.4224826,7.734933000000002,70.22173248,-5.80406454,-31.75906194
6.07,607,-0.154,-0.81,-0.19699999999999998,71.04679200000002,8.307891,5.3285094000000015,70.93220040000001,-5.82125328,-31.65592950000001
6.08,608,-0.14300000000000002,-0.807,-0.17800000000000002,70.76031300000002,10.828906199999999,2.8074942000000003,71.63693874,-5.80979412,-31.53560832
6.09,609,-0.124,-0.7979999999999999,-0.182,70.5311298,12.318597,1.0313244000000001,72.3359475,-5.77541664,-31.409557560000003
6.1,610,-0.11800000000000001,-0.79,-0.153,71.5051584,14.037471,-0.572958,73.052145,-5.72385042,-31.27204764
6.11,611,-0.114,-0.79,-0.154,69.7862844,17.0168526,-1.6042823999999998,73.74542418,-5.66082504,-31.10588982
6.12,612,-0.11,-0.772,-0.16699999999999998,67.895523,18.9649098,-2.2345362,74.41005546,-5.5863404999999995,-30.922543260000005
6.13,613,-0.091,-0.7490000000000001,-0.163,66.6350154,20.454600600000006,-2.86479,75.06895716,-5.5003968,-30.727737540000003
6.14,614,-0.078,-0.746,-0.14800000000000002,65.66098679999999,21.485925,-2.0053530000000004,75.71067012,-5.42591226,-30.52147266
6.15,615,-0.078,-0.757,-0.13,66.0620574,19.8816426,0.7448454000000001,76.36384224,-5.385805199999999,-30.32093736
6.16,616,-0.062,-0.716,-0.14,63.6556338,18.506543399999998,0.8021411999999999,76.98836646,-5.35142772,-30.13186122
6.17,617,-0.067,-0.757,-0.14800000000000002,62.2805346,19.2513888,0.286479,77.60143152,-5.311320660000002,-29.9370555
6.18,618,-0.073,-0.789,-0.16699999999999998,58.9573782,22.2880662,-0.057295800000000015,78.17438952,-5.25975444,-29.71360188
6.1899999999999995,619,-0.076,-0.795,-0.19899999999999998,58.0406454,21.4286292,0.0,78.74161794,-5.21964738,-29.49587784
6.2,620,-0.08,-0.7979999999999999,-0.163,58.5563076,18.2200644,0.0,79.31457594,-5.1852699,-29.312531279999995
6.21,621,-0.06,-0.8440000000000001,-0.18899999999999997,55.290447,16.157415599999997,0.7448454000000001,79.85888604,-5.16235158,-29.14637346
6.22,622,-0.095,-0.893,-0.225,53.11320660000001,11.917526400000002,1.3750992,80.3860074,-5.15089242,-29.0203227
6.2299999999999995,623,-0.125,-0.948,-0.205,50.993262,9.9694692,0.1718874,80.89021044,-5.13370368,-28.91719026
6.24,624,-0.138,-0.987,-0.204,49.274388,13.3499214,-1.145916,81.37722474,-5.10505578,-28.78540992
6.25,625,-0.14800000000000002,-1.001,-0.20800000000000002,48.414951,16.1001198,-1.7761698000000001,81.84132072,-5.0706783,-28.6192521
6.26,626,-0.145,-0.993,-0.17600000000000002,47.0971476,18.1054728,-1.8334656000000005,82.3054167,-5.02484166,-28.44163512
6.27,627,-0.11599999999999999,-0.978,-0.154,45.3782736,18.449247600000003,-1.6042823999999998,82.74659436,-4.9847345999999995,-28.25255898
6.28,628,-0.095,-0.9590000000000001,-0.158,44.0031744,15.068795399999999,-1.6615782,83.17631286,-4.95035712,-28.10358990000001
6.29,629,-0.08800000000000001,-0.965,-0.147,44.51883660000001,11.1153852,-2.3491277999999998,83.61749052,-4.91597964,-27.988998300000002
6.3,630,-0.10400000000000001,-1.008,-0.134,44.0031744,9.396511199999999,-2.9793816000000004,84.04720902,-4.87587258,-27.891595440000003
6.31,631,-0.109,-1.044,-0.132,41.825934000000004,7.161975,-4.583664,84.46546836,-4.82430636,-27.82284048
6.32,632,-0.12300000000000001,-1.0590000000000002,-0.122,40.2216516,6.3598338,-6.3598338,84.86653895999999,-4.749821819999998,-27.7598151
6.33,633,-0.114,-1.06,-0.10400000000000001,37.7006364,8.078707799999998,-7.9641161999999985,85.24469124,-4.66387812,-27.68533056
6.34,634,-0.105,-1.058,-0.09699999999999999,34.4347758,9.167328,-8.078707799999998,85.58273646,-4.57793442,-27.593657279999995
6.35,635,-0.09300000000000001,-1.046,-0.083,32.257535399999995,8.078707799999998,-7.6203414,85.89786336,-4.4977203,-27.51344316
6.36,636,-0.091,-1.033,-0.098,29.335449600000004,5.7868758000000025,-7.2192707999999985,86.19007194,-4.41750618,-27.461876940000003
6.37,637,-0.098,-1.006,-0.113,27.903054600000004,2.5210152000000003,-6.990087599999999,86.47655094000002,-4.34302164,-27.43895862
6.38,638,-0.106,-1.001,-0.10800000000000001,27.4446882,-1.0313244000000001,-6.990087599999999,86.75157078,-4.27426668,-27.444688199999998
6.39,639,-0.10099999999999999,-0.9990000000000001,-0.10400000000000001,26.356068,-2.0626488000000003,-8.5370742,87.02086104,-4.1883229800000015,-27.46760652
6.4,640,-0.094,-0.996,-0.10099999999999999,25.496631,-1.8907614,-10.3705398,87.26723297999996,-4.08519054,-27.49052484
6.41,641,-0.085,-0.992,-0.086,25.0382646,-1.0313244000000001,-11.5164558,87.52506408,-3.97059894,-27.501984000000004
6.42,642,-0.079,-0.9940000000000001,-0.081,23.9496444,-0.4583664000000001,-12.032118,87.76570644,-3.84454818,-27.50771358
6.43,643,-0.091,-0.988,-0.066,21.5432208,0.0,-12.4904844,87.98343048000002,-3.7242269999999995,-27.50771358
6.4399999999999995,644,-0.095,-0.98,-0.073,19.4232762,2.291832,-12.776963400000001,88.18396578000002,-3.59244666,-27.48479526
6.45,645,-0.096,-0.987,-0.083,18.2200644,4.010706000000001,-12.1467096,88.34439402000002,-3.47785506,-27.444688199999998
6.46,646,-0.096,-1.005,-0.053,14.667724800000002,6.417129599999999,-11.2299768,88.4933631,-3.36326346,-27.381662819999995
6.47,647,-0.086,-1.014,-0.049,11.8602306,9.1100322,-10.3705398,88.60222512,-3.26013102,-27.29571912
6.4799999999999995,648,-0.076,-1.026,-0.063,11.0580894,9.1100322,-9.5111028,88.71108714,-3.16845774,-27.20404584000001
6.49,649,-0.077,-1.036,-0.057,10.5424272,8.479778399999999,-8.479778399999999,88.81421958,-3.0825140400000004,-27.11810214
6.5,650,-0.085,-1.062,-0.057,10.2559482,7.906820400000001,-7.734933000000002,88.89443370000002,-3.0080294999999997,-27.037888020000004
6.51,651,-0.076,-1.08,-0.052000000000000005,9.7975818,7.2765666,-6.8182002000000015,88.99183656,-2.94500412,-26.96340348
6.52,652,-0.063,-1.08,-0.046,9.453807,5.2139178,-5.1566220000000005,89.08350984,-2.8934379,-26.91183726
6.53,653,-0.055,-1.073,-0.035,9.2819196,2.0626488000000003,-3.4377480000000005,89.17518312,-2.85333084,-26.89464852
6.54,654,-0.038,-1.054,-0.032,8.3651868,-0.4583664000000001,-1.9480572,89.26112682,-2.8361421,-26.89464852
6.55,655,-0.031,-1.041,-0.037000000000000005,8.307891,-2.3491277999999998,-0.6302538000000001,89.31269304,-2.81322378,-26.91756684
6.56,656,-0.033,-1.035,-0.06,7.6776372,-3.6096353999999997,0.0,89.39290716000002,-2.81322378,-26.95194432000001
6.57,657,-0.040999999999999995,-1.033,-0.073,6.4744254,-4.2398892,0.0,89.46166212,-2.8074942000000003,-26.992051380000003
6.58,658,-0.051,-1.032,-0.073,5.2139178,-4.2398892,-0.286479,89.51322834,-2.8074942000000003,-27.03215844
6.59,659,-0.065,-1.013,-0.07,3.4377480000000005,-3.380452200000001,-0.9167328000000001,89.55333540000002,-2.79603504,-27.06653592
6.6,660,-0.07200000000000001,-1.004,-0.064,2.6929026,-1.2605076000000002,-1.0313244000000001,89.40436632,-2.8361421,-27.05507676
6.61,661,-0.079,-0.997,-0.064,2.7501984,1.2605076000000002,-0.8021411999999999,89.43301421999998,-2.83041252,-27.043617600000005
6.62,662,-0.078,-0.9990000000000001,-0.059000000000000004,3.3231564,4.1252976000000015,-0.8594370000000001,89.46166212,-2.81895336,-27.00351054
6.63,663,-0.061,-1.008,-0.037000000000000005,4.6409598,7.333862400000001,-0.7448454000000001,89.50749876,-2.81322378,-26.929026
6.64,664,-0.04,-1.008,-0.028999999999999998,5.2139178,8.078707799999998,0.11459160000000004,89.55333540000002,-2.81322378,-26.84881188
6.65,665,-0.013999999999999999,-0.9990000000000001,-0.028999999999999998,5.7868758000000025,8.193299399999999,0.7448454000000001,89.5819833,-2.80176462,-26.762868180000005
6.66,666,0.006,-0.993,-0.040999999999999995,6.417129599999999,7.0473834,1.145916,89.6392791,-2.81322378,-26.69411322
6.67,667,0.013999999999999999,-0.988,-0.048,7.333862400000001,4.6409598,1.145916,89.71376364,-2.82468294,-26.64827658
6.68,668,0.01,-0.9890000000000001,-0.038,7.734933000000002,1.9480572,0.6302538000000001,89.78824818,-2.83041252,-26.62535826
6.6899999999999995,669,-0.002,-1.002,-0.023,7.333862400000001,0.11459160000000004,-0.057295800000000015,89.86273272,-2.83041252,-26.62535826
6.7,670,-0.018000000000000002,-1.0290000000000001,-0.022000000000000002,6.0733548,-0.4583664000000001,-0.5156622000000001,89.87419188,-2.78457588,-26.62535826
6.71,671,-0.026000000000000002,-1.038,-0.019,3.380452200000001,-0.40107059999999994,-0.4583664000000001,89.90856936,-2.7788463,-26.63108784
6.72,672,-0.031,-1.032,-0.013999999999999999,1.6615782,0.0,0.0,89.9257581,-2.7788463,-26.63108784
6.7299999999999995,673,-0.03,-1.02,0.006,0.5156622000000001,1.0886202,0.572958,89.93148768,-2.78457588,-26.61962868
6.74,674,-0.023,-1.014,0.015,-0.4583664000000001,2.2345362,1.0886202,89.9257581,-2.79603504,-26.596710360000003
6.75,675,-0.016,-1.016,0.015,-1.5469866,2.9220858,1.3178034,89.8971102,-2.76165756,-26.56806246
6.76,676,-0.006999999999999999,-1.02,0.003,-2.9793816000000004,2.5210152000000003,1.0886202,89.8684623,-2.77311672,-26.54514414
6.77,677,-0.001,-1.022,-0.009000000000000001,-4.010706000000001,0.7448454000000001,0.7448454000000001,89.82262566,-2.7788463,-26.53941456
6.78,678,0.006,-1.0270000000000001,-0.019,-4.9274388,-1.3178034,0.0,89.77678902,-2.7788463,-26.55087372000001
6.79,679,0.018000000000000002,-1.021,-0.027999999999999997,-5.5003968,-3.3231564,-0.572958,89.71949322,-2.77311672,-26.5852512
6.8,680,0.021,-1.0090000000000001,-0.033,-4.8701430000000006,-5.0993262,-0.572958,89.6392791,-2.71582092,-26.63681742
6.81,681,0.018000000000000002,-1.002,-0.025,-3.9534102,-6.4744254,-0.5156622000000001,89.59917204,-2.71009134,-26.69984280000001
6.82,682,0.013999999999999999,-1.005,-0.017,-3.380452200000001,-6.5317212,-0.286479,89.57052414,-2.70436176,-26.76859776
6.83,683,0.008,-1.011,-0.018000000000000002,-3.2658606,-5.7868758000000025,-0.057295800000000015,89.54187624,-2.70436176,-26.825893560000004
6.84,684,0.0,-1.0190000000000001,-0.016,-3.5523396000000003,-5.2139178,0.286479,89.50749876,-2.70436176,-26.87745978
6.85,685,-0.016,-1.018,-0.019,-4.010706000000001,-5.3285094000000015,0.6875496,89.44447338,-2.68717302,-26.929026
6.86,686,-0.03,-1.006,-0.02,-4.4117766,-5.72958,0.6302538000000001,89.40436632,-2.6929026,-26.9863218
6.87,687,-0.038,-0.99,-0.02,-4.5263682,-4.9274388,0.1718874,89.35852968,-2.6929026,-27.037888020000004
6.88,688,-0.036000000000000004,-0.9790000000000001,-0.026000000000000002,-4.0680017999999984,-3.7242269999999995,0.0,89.31842262,-2.6929026,-27.072265500000004
6.89,689,-0.028999999999999998,-0.9740000000000001,-0.022000000000000002,-3.1512689999999997,-2.8074942000000003,-0.057295800000000015,89.28977472,-2.6929026,-27.100913400000003
6.9,690,-0.023,-0.9790000000000001,-0.027999999999999997,-2.9793816000000004,-2.291832,-0.057295800000000015,89.19810143999999,-2.65279554,-27.12383172
6.91,691,-0.018000000000000002,-0.987,-0.033,-2.86479,-1.8907614,-0.2291832000000001,89.16945354,-2.64706596,-27.14102046
6.92,692,-0.009000000000000001,-0.997,-0.036000000000000004,-2.7501984,-1.432395,-0.572958,89.14653522,-2.6413363800000003,-27.1582092
6.93,693,-0.004,-0.992,-0.035,-2.6356068,-1.0886202,-0.8594370000000001,89.11788732,-2.6356068,-27.16966836
6.9399999999999995,694,-0.005,-0.987,-0.026000000000000002,-1.6615782,-1.7761698000000001,-0.9740286,89.10069858,-2.62414764,-27.186857100000005
6.95,695,-0.015,-0.983,-0.012,-0.2291832000000001,-2.9793816000000004,-1.7188740000000002,89.07778026000004,-2.5611222600000003,-27.215505
6.96,696,-0.021,-0.9840000000000001,-0.005,0.572958,-3.380452200000001,-2.9793816000000004,89.08923942,-2.53247436,-27.249882480000004
6.97,697,-0.027000000000000003,-0.99,0.0,1.2605076000000002,-3.1512689999999997,-3.9534102,89.10069858,-2.4923672999999997,-27.28425996
6.9799999999999995,698,-0.033,-0.997,0.005,1.7761698000000001,-2.4637194,-4.1825934,89.12361690000002,-2.45226024,-27.30717828
6.99,699,-0.034,-1.004,0.01,2.0053530000000004,-1.6042823999999998,-4.010706000000001,89.14080564,-2.4064236,-27.32436702
7.0,700,-0.032,-1.003,0.011000000000000001,2.0053530000000004,-0.6302538000000001,-3.8388186,89.16945354,-2.35485738,-27.3300966
7.01,701,-0.031,-0.996,0.009000000000000001,2.1772404,0.1718874,-4.010706000000001,89.19237186000002,-2.3147503200000004,-27.3300966
7.02,702,-0.03,-0.988,0.012,2.9793816000000004,1.0313244000000001,-4.5263682,89.22101975999998,-2.26891368,-27.31863744
7.03,703,-0.03,-0.978,0.016,3.9534102,2.1199446,-5.0993262,89.26112682,-2.21734746,-27.29571912
7.04,704,-0.034,-0.9740000000000001,0.024,4.583664,3.2658606,-5.5003968,89.30696345999998,-2.16005166,-27.26707122
7.05,705,-0.036000000000000004,-0.978,0.03,4.9274388,4.583664,-5.6722842,89.36425926,-2.10275586,-27.221234580000004
7.06,706,-0.038,-0.9890000000000001,0.03,4.9274388,6.0160589999999985,-5.72958,89.4100959,-2.05118964,-27.1582092
7.07,707,-0.037000000000000005,-1.001,0.024,4.8128472,7.448453999999999,-5.443101,89.45593253999998,-1.99389384,-27.08945424
7.08,708,-0.032,-1.012,0.022000000000000002,4.8128472,8.307891,-4.7555514,89.50176918,-1.9480572000000005,-27.00351054
7.09,709,-0.02,-1.02,0.022000000000000002,4.6982555999999995,8.307891,-3.7815228,89.54187624,-1.91367972,-26.92329642
7.1,710,-0.012,-1.024,0.024,4.5263682,7.734933000000002,-2.6929026,89.59344246,-1.87357266,-26.84308230000001
7.11,711,-0.008,-1.025,0.03,3.9534102,6.875496000000001,-2.0626488000000003,89.62781994000002,-1.85065434,-26.77432734000001
7.12,712,-0.01,-1.026,0.032,3.0366774,6.417129599999999,-1.432395,89.65646783999998,-1.83919518,-26.71130196
7.13,713,-0.013999999999999999,-1.035,0.027999999999999997,1.7761698000000001,5.443101,-0.8594370000000001,89.67365658,-1.82773602,-26.659735739999995
7.14,714,-0.019,-1.048,0.02,0.0,3.6669312000000014,-0.7448454000000001,89.67365658,-1.82200644,-26.61962868
7.15,715,-0.026000000000000002,-1.053,0.011000000000000001,-1.7761698000000001,1.5469866,-1.0313244000000001,89.6392791,-1.79908812,-26.60816952
7.16,716,-0.03,-1.05,0.0,-3.7815228,0.286479,-1.4896908000000002,89.59917204,-1.78762896,-26.60243994
7.17,717,-0.033,-1.036,-0.012,-5.2139178,-0.11459160000000004,-1.7188740000000002,89.54760582,-1.77044022,-26.60816952
7.18,718,-0.037000000000000005,-1.014,-0.02,-5.2139178,0.11459160000000004,-1.5469866,89.49603959999996,-1.75325148,-26.60816952
7.1899999999999995,719,-0.040999999999999995,-0.998,-0.026000000000000002,-3.8388186,0.7448454000000001,-1.5469866,89.45593253999998,-1.73606274,-26.596710360000003
7.2,720,-0.044000000000000004,-0.991,-0.019,-1.3750992,1.8334656000000005,-1.5469866,89.38717758,-1.7475218999999995,-26.57379204
7.21,721,-0.048,-0.985,-0.006999999999999999,1.3750992,3.0939732,-1.3178034,89.40436632,-1.73033316,-26.54514414
7.22,722,-0.046,-0.985,0.006,3.6096353999999997,4.1825934,-1.145916,89.4387438,-1.7188740000000002,-26.50503708
7.2299999999999995,723,-0.043,-0.986,0.016,5.0993262,4.8128472,-1.0886202,89.48458044,-1.71314442,-26.45347086
7.24,724,-0.040999999999999995,-0.983,0.027999999999999997,5.9014674000000005,5.1566220000000005,-1.145916,89.54760582,-1.70168526,-26.40190464
7.25,725,-0.033,-0.983,0.038,5.958763200000001,5.2712136,-1.5469866,89.61636078000002,-1.6787669399999998,-26.350338420000003
7.26,726,-0.023,-0.99,0.039,5.2139178,5.042030400000002,-1.9480572,89.66792699999998,-1.6615782,-26.2987722
7.27,727,-0.015,-1.006,0.032,4.1825934,3.7815228,-1.6615782,89.71376364,-1.64438946,-26.25866514
7.28,728,-0.01,-1.014,0.031,3.8961144,2.6356068,-1.145916,89.74814112,-1.6329303,-26.23574682
7.29,729,-0.008,-1.018,0.028999999999999998,3.380452200000001,1.7761698000000001,-0.6875496,89.7825186,-1.6272007199999998,-26.21855808
7.3,730,-0.006999999999999999,-1.0190000000000001,0.027000000000000003,2.6356068,1.432395,-0.4583664000000001,89.82262566,-1.5813640800000002,-26.20709892
7.31,731,-0.009000000000000001,-1.016,0.027000000000000003,1.9480572,1.5469866,-0.286479,89.84554397999999,-1.5756344999999998,-26.18991018
7.32,732,-0.013000000000000001,-1.012,0.027999999999999997,1.4896908000000002,2.0053530000000004,-0.1718874,89.85700313999996,-1.5756344999999998,-26.166991860000003
7.33,733,-0.015,-1.0070000000000001,0.021,0.8594370000000001,2.1772404,-0.057295800000000015,89.8684623,-1.5756344999999998,-26.14407354
7.34,734,-0.018000000000000002,-1.006,0.013999999999999999,0.40107059999999994,1.9480572,-0.2291832000000001,89.8684623,-1.56990492,-26.1268848
7.35,735,-0.027999999999999997,-1.008,0.01,0.286479,0.8594370000000001,-0.5156622000000001,89.80543692,-1.56990492,-26.11542564
7.36,736,-0.034,-1.006,0.002,0.2291832000000001,-0.11459160000000004,-0.7448454000000001,89.80543692,-1.56417534,-26.11542564
7.37,737,-0.035,-0.995,-0.013000000000000001,1.2032118,-0.9167328000000001,-1.2032118,89.82262566,-1.5469866,-26.1268848
7.38,738,-0.033,-0.978,-0.011000000000000001,3.6669312000000014,-1.0886202,-1.432395,89.85700313999996,-1.53552744,-26.13261438
7.39,739,-0.028999999999999998,-0.975,-0.003,5.5003968,-1.432395,-1.145916,89.91429894,-1.52406828,-26.14980312
7.4,740,-0.034,-0.985,0.004,6.703608600000001,-1.9480572,-0.6875496,89.97159474,-1.5183387000000002,-26.166991860000003
7.41,741,-0.042,-1.002,0.011000000000000001,7.734933000000002,-2.1772404,-0.11459160000000004,90.05180886000002,-1.5183387000000002,-26.18991018
7.42,742,-0.048,-1.01,0.013999999999999999,8.136003599999999,-2.4064236,0.2291832000000001,90.13775256,-1.5183387000000002,-26.2128285
7.43,743,-0.054000000000000006,-1.0070000000000001,0.019,8.651665800000002,-3.0366774,0.2291832000000001,90.22369626,-1.5183387000000002,-26.241476399999996
7.4399999999999995,744,-0.052000000000000005,-1.008,0.018000000000000002,9.167328,-3.6669312000000014,0.057295800000000015,90.32109912,-1.5183387000000002,-26.27585388
7.45,745,-0.049,-1.01,0.013000000000000001,9.0527364,-4.1252976000000015,0.0,90.40131324,-1.52406828,-26.315960940000004
7.46,746,-0.049,-1.011,0.012,9.1100322,-4.4690724,0.0,90.4987161,-1.52406828,-26.356068
7.47,747,-0.05,-1.013,0.011000000000000001,8.880849000000003,-4.297185,-0.3437748,90.59038938,-1.5183387000000002,-26.40190464
7.4799999999999995,748,-0.052000000000000005,-1.012,0.012,8.250595200000001,-4.1252976000000015,-0.3437748,90.67633308,-1.51260912,-26.4420117
7.49,749,-0.055999999999999994,-1.0070000000000001,0.015,7.734933000000002,-4.297185,-0.2291832000000001,90.7565472,-1.50687954,-26.48211876
7.5,750,-0.055999999999999994,-1.004,0.027000000000000003,7.6203414,-3.7242269999999995,-0.3437748,90.83103174,-1.5183387000000002,-26.51649624
7.51,751,-0.057,-1.006,0.04,6.990087599999999,-2.2345362,-0.286479,90.90551628,-1.51260912,-26.53941456
7.52,752,-0.057,-1.012,0.047,6.130650599999999,-1.145916,-0.11459160000000004,90.96854166,-1.51260912,-26.55087372000001
7.53,753,-0.057999999999999996,-1.02,0.053,5.2712136,-0.7448454000000001,0.1718874,91.02010788,-1.51260912,-26.5566033
7.54,754,-0.057,-1.025,0.052000000000000005,4.3544808,-0.6875496,0.4583664000000001,91.06594452,-1.5183387000000002,-26.562332880000003
7.55,755,-0.052000000000000005,-1.0290000000000001,0.047,3.7242269999999995,-0.9167328000000001,0.4583664000000001,91.10605158,-1.5469866,-26.57379204
7.56,756,-0.049,-1.0290000000000001,0.039,2.9220858,-1.3178034,0.11459160000000004,91.13469948,-1.5527161800000002,-26.5852512
7.57,757,-0.046,-1.026,0.033,2.291832,-1.4896908000000002,-0.3437748,91.1576178,-1.5469866,-26.596710360000003
7.58,758,-0.045,-1.021,0.027999999999999997,1.6042823999999998,-1.7188740000000002,-0.7448454000000001,91.17480654,-1.53552744,-26.613899100000005
7.59,759,-0.046,-1.016,0.025,0.9740286,-2.1772404,-0.8021411999999999,91.1862657,-1.52979786,-26.63681742
7.6,760,-0.045,-1.015,0.028999999999999998,0.7448454000000001,-2.8074942000000003,-0.5156622000000001,91.17480654,-1.5412570200000002,-26.66546532
7.61,761,-0.040999999999999995,-1.018,0.034,0.40107059999999994,-3.0939732,-0.1718874,91.18053612,-1.5412570200000002,-26.69411322
7.62,762,-0.04,-1.02,0.035,-0.1718874,-2.8074942000000003,0.057295800000000015,91.18053612,-1.5412570200000002,-26.722761119999994
7.63,763,-0.038,-1.014,0.032,-0.8021411999999999,-2.7501984,0.2291832000000001,91.17480654,-1.5412570200000002,-26.75140902
7.64,764,-0.042,-1.0090000000000001,0.028999999999999998,-1.2605076000000002,-3.0939732,0.3437748,91.16334738,-1.5412570200000002,-26.780056920000003
7.65,765,-0.044000000000000004,-1.0070000000000001,0.031,-1.2605076000000002,-3.0939732,0.286479,91.1289699,-1.56417534,-26.80870482000001
7.66,766,-0.045,-1.005,0.03,-0.9167328000000001,-2.86479,0.057295800000000015,91.12324032,-1.56417534,-26.83735272
7.67,767,-0.04,-1.005,0.03,-0.1718874,-2.8074942000000003,-0.3437748,91.11751074,-1.55844576,-26.86600062
7.68,768,-0.033,-1.01,0.032,0.286479,-3.1512689999999997,-0.8021411999999999,91.12324032,-1.5469866,-26.89464852
7.6899999999999995,769,-0.031,-1.012,0.035,0.4583664000000001,-3.8388186,-1.0313244000000001,91.1289699,-1.53552744,-26.934755579999994
7.7,770,-0.031,-1.015,0.035,0.11459160000000004,-4.2398892,-0.8594370000000001,91.12324032,-1.52406828,-26.974862640000005
7.71,771,-0.032,-1.014,0.036000000000000004,-0.1718874,-3.9534102,-0.5156622000000001,91.12324032,-1.5183387000000002,-27.014969699999998
7.72,772,-0.033,-1.01,0.035,-0.4583664000000001,-3.5523396000000003,-0.3437748,91.12324032,-1.51260912,-27.04934718
7.7299999999999995,773,-0.038,-1.006,0.033,-0.7448454000000001,-3.7242269999999995,-0.40107059999999994,91.11178116,-1.50687954,-27.08945424
7.74,774,-0.040999999999999995,-0.998,0.032,-0.8594370000000001,-3.8961144,-0.572958,91.10605158,-1.50114996,-27.12383172
7.75,775,-0.044000000000000004,-0.9790000000000001,0.027999999999999997,0.11459160000000004,-4.0680017999999984,-1.2032118,91.10605158,-1.49542038,-27.163938779999995
7.76,776,-0.038,-0.971,0.044000000000000004,2.7501984,-3.7242269999999995,-1.6615782,91.13469948,-1.4782316400000002,-27.19831626
7.77,777,-0.035,-0.986,0.055999999999999994,4.583664,-3.1512689999999997,-1.432395,91.18053612,-1.4610428999999998,-27.23269374
7.78,778,-0.032,-1.005,0.055999999999999994,4.8701430000000006,-2.9220858,-1.2032118,91.23210234,-1.44385416,-27.26134164
7.79,779,-0.03,-1.016,0.053,4.5263682,-2.5783110000000002,-1.432395,91.27793898,-1.432395,-27.28425996
7.8,780,-0.026000000000000002,-1.02,0.05,4.010706000000001,-2.1772404,-1.8334656000000005,91.32377562,-1.4037471000000001,-27.30717828
7.81,781,-0.023,-1.022,0.05,3.4377480000000005,-2.0053530000000004,-1.8334656000000005,91.3581531,-1.38655836,-27.32436702
7.82,782,-0.026000000000000002,-1.0190000000000001,0.049,2.4637194,-2.3491277999999998,-1.6615782,91.386801,-1.36936962,-27.34728534
7.83,783,-0.03,-1.014,0.052000000000000005,1.7188740000000002,-2.4064236,-1.432395,91.40398974,-1.35218088,-27.37020366
7.84,784,-0.031,-1.011,0.051,0.9740286,-2.2345362,-1.2032118,91.4154489,-1.3349921400000002,-27.39312198
7.85,785,-0.032,-1.0070000000000001,0.045,0.1718874,-2.1199446,-1.145916,91.40971932,-1.3349921400000002,-27.41031072
7.86,786,-0.033,-1.001,0.04,-0.1718874,-1.6615782,-1.2605076000000002,91.40971932,-1.32353298,-27.42749946
7.87,787,-0.03,-0.996,0.037000000000000005,-0.11459160000000004,-1.0313244000000001,-1.3178034,91.40398974,-1.30634424,-27.43895862
7.88,788,-0.03,-0.992,0.039,0.40107059999999994,-0.40107059999999994,-1.145916,91.40971932,-1.29488508,-27.444688199999998
7.89,789,-0.027000000000000003,-0.997,0.044000000000000004,1.2605076000000002,0.1718874,-0.8021411999999999,91.42117848,-1.2891555,-27.43895862
7.9,790,-0.026000000000000002,-1.005,0.044000000000000004,1.6042823999999998,0.057295800000000015,-0.4583664000000001,91.43263764,-1.27769634,-27.43895862
7.91,791,-0.026000000000000002,-1.01,0.042,1.6615782,-0.2291832000000001,-0.40107059999999994,91.44982638,-1.27769634,-27.43895862
7.92,792,-0.027000000000000003,-1.008,0.037000000000000005,1.6615782,-0.3437748,-0.4583664000000001,91.46701512,-1.27196676,-27.444688199999998
7.93,793,-0.028999999999999998,-1.003,0.034,1.9480572,-0.1718874,-0.4583664000000001,91.48420386,-1.26623718,-27.444688199999998
7.94,794,-0.034,-0.998,0.038,2.2345362,0.0,-0.1718874,91.50712218,-1.2605076000000002,-27.444688199999998
7.95,795,-0.040999999999999995,-0.997,0.042,2.4064236,0.0,-0.1718874,91.51858134,-1.30634424,-27.444688199999998
7.96,796,-0.052000000000000005,-1.0,0.047,2.6929026,0.3437748,-0.4583664000000001,91.54722924,-1.30061466,-27.43895862
7.97,797,-0.057,-1.01,0.053,2.4637194,1.7761698000000001,-0.8594370000000001,91.57014756,-1.2891555,-27.42176988
7.9799999999999995,798,-0.049,-1.018,0.048,1.6615782,4.4117766,-0.9167328000000001,91.5873363,-1.28342592,-27.375933239999995
7.99,799,-0.038,-1.021,0.037000000000000005,1.4896908000000002,5.3285094000000015,-0.5156622000000001,91.59879546,-1.28342592,-27.32436702
8.0,800,-0.028999999999999998,-1.0190000000000001,0.03,1.3750992,5.042030400000002,0.057295800000000015,91.5873363,-1.28342592,-27.272800800000002
8.01,801,-0.021,-1.011,0.026000000000000002,1.432395,4.5263682,0.5156622000000001,91.60452504,-1.29488508,-27.22696416
8.02,802,-0.02,-1.005,0.027000000000000003,1.6042823999999998,3.6096353999999997,0.6875496,91.6159842,-1.30061466,-27.192586680000005
8.03,803,-0.019,-1.001,0.028999999999999998,1.3178034,2.6929026,0.572958,91.63317294,-1.30634424,-27.163938779999995
8.04,804,-0.022000000000000002,-0.998,0.028999999999999998,1.0886202,2.0626488000000003,0.3437748,91.63890252,-1.31207382,-27.14102046
8.05,805,-0.025,-0.996,0.028999999999999998,0.8021411999999999,1.2605076000000002,0.11459160000000004,91.57587714,-1.30634424,-27.12383172
8.06,806,-0.027999999999999997,-0.995,0.025,0.3437748,0.572958,-0.11459160000000004,91.58160672,-1.30634424,-27.11810214
8.07,807,-0.031,-0.995,0.024,0.3437748,0.1718874,-0.286479,91.58160672,-1.30634424,-27.11810214
8.08,808,-0.03,-0.997,0.024,0.6302538000000001,-0.057295800000000015,-0.40107059999999994,91.5873363,-1.30061466,-27.11810214
8.09,809,-0.028999999999999998,-1.001,0.024,0.9167328000000001,-0.057295800000000015,-0.6302538000000001,91.59879546,-1.29488508,-27.11810214
8.1,810,-0.027000000000000003,-1.01,0.024,1.2605076000000002,-0.11459160000000004,-0.6875496,91.54149966,-1.28342592,-27.11237256
8.11,811,-0.027999999999999997,-1.013,0.022000000000000002,1.5469866,-0.4583664000000001,-0.572958,91.55295882,-1.27769634,-27.11810214
8.12,812,-0.028999999999999998,-1.014,0.022000000000000002,1.7188740000000002,-0.9167328000000001,-0.5156622000000001,91.57587714,-1.27196676,-27.129561300000002
8.13,813,-0.03,-1.0070000000000001,0.027999999999999997,1.6042823999999998,-1.2605076000000002,-0.5156622000000001,91.5873363,-1.26623718,-27.14102046
8.14,814,-0.032,-1.005,0.031,1.2032118,-1.3750992,-0.6875496,91.60452504,-1.2605076000000002,-27.15247962
8.15,815,-0.034,-1.005,0.034,0.5156622000000001,-1.3178034,-1.0886202,91.57587714,-1.2605076000000002,-27.163938779999995
8.16,816,-0.03,-1.005,0.036000000000000004,0.11459160000000004,-1.5469866,-1.3178034,91.57587714,-1.24904844,-27.17539794
8.17,817,-0.028999999999999998,-1.006,0.036000000000000004,0.1718874,-1.7188740000000002,-1.3178034,91.58160672,-1.2318597,-27.192586680000005
8.18,818,-0.026000000000000002,-1.0070000000000001,0.035,0.1718874,-1.8334656000000005,-1.3750992,91.58160672,-1.22040054,-27.215505
8.19,819,-0.026000000000000002,-1.01,0.033,0.40107059999999994,-1.8907614,-1.3750992,91.5873363,-1.2032117999999998,-27.23269374
8.2,820,-0.026000000000000002,-1.013,0.031,0.572958,-2.1772404,-1.432395,91.56441798,-1.19175264,-27.249882480000004
8.209999999999999,821,-0.027000000000000003,-1.014,0.031,0.6302538000000001,-2.3491277999999998,-1.3178034,91.57014756,-1.1745639,-27.272800800000002
8.22,822,-0.027999999999999997,-1.012,0.032,0.5156622000000001,-2.5210152000000003,-1.0886202,91.57587714,-1.16310474,-27.29571912
8.23,823,-0.027999999999999997,-1.012,0.035,0.11459160000000004,-2.7501984,-0.9740286,91.58160672,-1.15164558,-27.32436702
8.24,824,-0.026000000000000002,-1.014,0.035,-0.2291832000000001,-2.8074942000000003,-0.8021411999999999,91.57587714,-1.14018642,-27.35301492
