TimeStamp(s),FrameCounter,AccX,AccY,AccZ,GyrX,GyrY,GyrZ,EulerX,EulerY,EulerZ
0.01,1,-0.059,-1.02,0.021,1.8334656000000005,0.286479,-1.2032118,89.45593253999998,-0.75057498,-25.93207908
0.02,2,-0.055,-1.02,0.017,1.8907613999999997,0.286479,-1.0886202,89.47312128,-0.7391158200000001,-25.93207908
0.03,3,-0.053,-1.018,0.015,1.9480572,0.4010706,-0.9167328,89.49603959999996,-0.72765666,-25.926349500000004
0.04,4,-0.053,-1.012,0.025,2.2345362,0.11459160000000004,-0.6302538000000001,89.51895792,-0.72192708,-25.926349500000004
0.05,5,-0.053,-1.004,0.036000000000000004,2.4637194,0.0,-0.1718874,89.54187624,-0.72192708,-25.926349500000004
0.060000000000000005,6,-0.057,-0.999,0.043,2.578311,0.0,0.0,89.66219742,-0.8537074199999999,-25.926349500000004
0.06999999999999999,7,-0.057,-1.004,0.038,2.2345362,0.0,0.057295800000000015,89.68511574,-0.8537074199999999,-25.926349500000004
0.08,8,-0.056,-1.009,0.03,1.4896908000000002,0.057295800000000015,0.057295800000000015,89.70230448,-0.8594370000000001,-25.926349500000004
0.09,9,-0.05,-1.011,0.028,1.8334656000000005,0.3437748,0.1718874,89.71949322,-0.8594370000000001,-25.92061992
0.09999999999999999,10,-0.052000000000000005,-1.014,0.024,1.145916,0.0,0.4010706,89.73095237999998,-0.86516658,-25.92061992
0.11,11,-0.051,-1.004,0.035,0.9167328,-0.4010706,0.6875496,89.82835524000002,-0.97975818,-25.93207908
0.12,12,-0.054000000000000006,-0.999,0.043,1.7188740000000002,-0.572958,0.8021411999999999,89.84554397999999,-0.9912173399999998,-25.93780866
0.13,13,-0.059,-1.0,0.041,1.5469866,-0.6875496,0.9740286,89.86273272,-0.9969469199999998,-25.94353824
0.14,14,-0.059,-1.005,0.039,1.0313244,-0.4010706,0.9167328,89.87419188,-1.00840608,-25.94926782
0.15000000000000002,15,-0.061,-1.008,0.035,0.572958,-0.11459160000000004,0.9167328,89.87992145999998,-1.01986524,-25.94926782
0.16,16,-0.059,-1.007,0.037000000000000005,0.6875496,0.2291832000000001,1.145916,89.94867642,-1.1459160000000002,-25.94926782
0.17,17,-0.057,-1.01,0.036000000000000004,1.2032118,0.572958,0.9740286,89.96013558000001,-1.1573751600000002,-25.94353824
0.18000000000000002,18,-0.059,-1.013,0.032,0.7448454000000001,0.6302538000000001,0.7448454000000001,89.97159474,-1.16310474,-25.93780866
0.19,19,-0.061,-1.01,0.025,0.6302538000000001,0.6302538000000001,0.8021411999999999,89.97732432000002,-1.1745638999999999,-25.93207908
0.2,20,-0.065,-1.006,0.027000000000000003,1.0313244,0.6875496,0.9167328,89.98878348,-1.18029348,-25.92061992
0.21000000000000002,21,-0.066,-1.004,0.029,1.3750992,0.8594370000000001,0.8594370000000001,90.02316096,-1.2891555000000001,-25.91489034
0.22,22,-0.066,-1.002,0.035,1.8334656000000005,1.145916,0.5156622000000001,90.04607927999999,-1.29488508,-25.90343118
0.23,23,-0.068,-1.001,0.038,1.7188740000000002,1.0886202,0.5156622000000001,90.06326802,-1.30061466,-25.891972020000004
0.24000000000000002,24,-0.067,-1.0,0.036000000000000004,1.7761698,0.8594370000000001,0.4583664000000001,90.08045676,-1.30634424,-25.880512860000003
0.25,25,-0.062,-1.007,0.034,1.3750992,0.7448454000000001,0.3437748,90.09191592,-1.31207382,-25.87478328000001
0.26,26,-0.061,-1.011,0.035,1.145916,0.4583664000000001,0.3437748,90.15494129999999,-1.4610428999999998,-25.8690537
0.27,27,-0.065,-1.011,0.034,1.0313244,0.5156622000000001,0.286479,90.16640046,-1.4610428999999998,-25.86332412
0.28,28,-0.069,-1.009,0.032,0.8021411999999999,0.7448454000000001,0.1718874,90.17785962,-1.46677248,-25.85759454
0.29000000000000004,29,-0.07,-1.009,0.033,0.9167328,0.8594370000000001,0.0,90.1835892,-1.46677248,-25.84613538
0.3,30,-0.07,-1.009,0.028,0.6302538000000001,0.9167328,-0.057295800000000015,90.18931878,-1.46677248,-25.84040580000001
0.31,31,-0.068,-1.006,0.034,0.8594370000000001,0.8594370000000001,-0.1718874,90.25234416,-1.61001198,-25.83467622
0.32,32,-0.068,-1.004,0.04,1.2032118,0.7448454000000001,-0.057295800000000015,90.26380332,-1.61001198,-25.82321706
0.33,33,-0.067,-1.005,0.038,1.145916,0.7448454000000001,-0.057295800000000015,90.27526248,-1.6042824000000002,-25.81748748
0.34,34,-0.067,-1.006,0.037000000000000005,1.0886202,0.6302538000000001,-0.11459160000000004,90.28672164,-1.6042824000000002,-25.8117579
0.35000000000000003,35,-0.067,-1.009,0.038,1.0886202,0.5156622000000001,-0.2291832000000001,90.2981808,-1.6042824000000002,-25.80602832
0.36000000000000004,36,-0.068,-1.009,0.038,0.9740286,0.3437748,-0.4010706,90.34974702,-1.7475218999999995,-25.80029874
0.37,37,-0.066,-1.011,0.037000000000000005,0.7448454000000001,0.3437748,-0.4583664000000001,90.36120618,-1.74179232,-25.79456916
0.38,38,-0.068,-1.008,0.036000000000000004,0.7448454000000001,0.1718874,-0.5156622000000001,90.36693576,-1.73606274,-25.79456916
0.39,39,-0.067,-1.007,0.036000000000000004,0.6302538000000001,0.4583664000000001,-0.5156622000000001,90.37266534,-1.73033316,-25.78883958
0.4,40,-0.065,-1.001,0.039,0.8021411999999999,0.6875496,-0.5156622000000001,90.3841245,-1.73033316,-25.78311
0.41000000000000003,41,-0.064,-1.003,0.039,1.0886202,0.572958,-0.5156622000000001,90.42996114,-1.82773602,-25.77738042
0.42000000000000004,42,-0.063,-1.004,0.04,0.8021411999999999,0.4583664000000001,-0.6302538000000001,90.43569072,-1.82200644,-25.77165084
0.43,43,-0.061,-1.006,0.043,0.8021411999999999,0.11459160000000004,-0.8594370000000001,90.4414203,-1.81054728,-25.77165084
0.44,44,-0.063,-1.004,0.046,0.9740286,-0.286479,-1.0886202,90.45287946,-1.79908812,-25.77165084
0.45,45,-0.064,-1.006,0.043,0.8594370000000001,-0.286479,-1.2032118,90.46433862,-1.78762896,-25.77738042
0.46,46,-0.065,-1.008,0.042,0.4010706,-0.286479,-1.145916,90.51590484,-1.87930224,-25.78311
0.47000000000000003,47,-0.065,-1.009,0.043,0.4583664000000001,-0.286479,-1.2605076000000002,90.52163442,-1.8621135,-25.78311
0.48000000000000004,48,-0.063,-1.006,0.042,0.2291832000000001,-0.2291832000000001,-1.2605076000000002,90.527364,-1.85065434,-25.78883958
0.49,49,-0.063,-1.006,0.04,0.286479,-0.2291832000000001,-1.2605076000000002,90.527364,-1.83919518,-25.78883958
0.5,50,-0.064,-1.005,0.041,0.4583664000000001,-0.2291832000000001,-1.3178034,90.53309358,-1.82773602,-25.79456916
0.51,51,-0.065,-1.006,0.044,0.7448454000000001,0.0,-1.3750992,90.5846598,-1.89649098,-25.79456916
0.52,52,-0.065,-1.008,0.048,0.6302538000000001,0.4583664000000001,-1.3750992,90.59038938,-1.88503182,-25.78883958
0.53,53,-0.067,-1.009,0.041,0.3437748,0.8594370000000001,-1.3178034,90.59611896,-1.87357266,-25.78311
0.54,54,-0.064,-1.013,0.035,0.057295800000000015,1.0886202,-1.2605076000000002,90.59611896,-1.85638392,-25.77165084
0.55,55,-0.062,-1.012,0.034,0.1718874,1.145916,-1.2032118,90.59611896,-1.84492476,-25.76019168
0.56,56,-0.06,-1.008,0.034,0.286479,1.2605076000000002,-1.0886202,90.60757812,-1.90222056,-25.743002940000004
0.5700000000000001,57,-0.06,-1.001,0.041,0.4010706,1.145916,-1.145916,90.6133077,-1.8907613999999997,-25.73154378
0.5800000000000001,58,-0.06,-0.999,0.046,0.9167328,0.7448454000000001,-1.145916,90.61903728,-1.87930224,-25.7258142
0.59,59,-0.059,-1.001,0.041,0.7448454000000001,0.5156622000000001,-1.2032118,90.63049644,-1.86784308,-25.72008462
0.6,60,-0.059,-1.006,0.037000000000000005,0.3437748,0.2291832000000001,-1.0313244,90.63049644,-1.85638392,-25.714355040000004
0.61,61,-0.06,-1.007,0.037000000000000005,0.6302538000000001,0.0,-0.9740286,90.65341476,-1.93659804,-25.714355040000004
0.62,62,-0.062,-1.009,0.034,0.3437748,-0.1718874,-0.8594370000000001,90.65341476,-1.92513888,-25.72008462
0.63,63,-0.062,-1.004,0.036000000000000004,0.4010706,-0.2291832000000001,-0.7448454000000001,90.65914434,-1.9194093000000003,-25.72008462
0.64,64,-0.062,-1.005,0.038,0.572958,-0.1718874,-0.6302538000000001,90.66487392,-1.91367972,-25.72008462
0.65,65,-0.059,-1.007,0.036000000000000004,0.1718874,-0.1718874,-0.6875496,90.6706035,-1.90222056,-25.7258142
0.66,66,-0.058,-1.005,0.036000000000000004,0.0,-0.2291832000000001,-0.6875496,90.69925140000001,-1.99962342,-25.7258142
0.67,67,-0.057,-1.005,0.041,0.3437748,-0.5156622000000001,-0.7448454000000001,90.69925140000001,-1.99389384,-25.73154378
0.68,68,-0.06,-1.004,0.042,0.3437748,-0.5156622000000001,-0.7448454000000001,90.70498098,-1.98816426,-25.73727336
0.6900000000000001,69,-0.06,-1.006,0.041,0.3437748,-0.286479,-0.6875496,90.71071056,-1.9767051,-25.73727336
0.7000000000000001,70,-0.062,-1.007,0.038,0.3437748,-0.2291832000000001,-0.5156622000000001,90.71071056,-1.97097552,-25.743002940000004
0.7100000000000001,71,-0.062,-1.009,0.033,0.057295800000000015,-0.11459160000000004,-0.3437748,90.70498098,-2.24026578,-25.73727336
0.72,72,-0.061,-1.006,0.036000000000000004,0.2291832000000001,-0.3437748,-0.2291832000000001,90.70498098,-2.2345362,-25.73727336
0.73,73,-0.06,-1.005,0.041,0.572958,-0.5156622000000001,-0.286479,90.71071056,-2.2345362,-25.743002940000004
0.74,74,-0.062,-1.003,0.046,0.4010706,-0.6302538000000001,-0.2291832000000001,90.71644014,-2.22880662,-25.74873252
0.75,75,-0.063,-1.004,0.049,0.5156622000000001,-0.5156622000000001,-0.4010706,90.72216972,-2.22307704,-25.7544621
0.76,76,-0.064,-1.008,0.045,0.0,-0.5156622000000001,-0.4583664000000001,90.76227678,-2.3204799,-25.76592126
0.77,77,-0.063,-1.008,0.041,0.0,-0.4583664000000001,-0.5156622000000001,90.76227678,-2.3147503200000004,-25.77165084
0.78,78,-0.062,-1.008,0.038,-0.057295800000000015,-0.11459160000000004,-0.5156622000000001,90.76227678,-2.30902074,-25.77165084
0.79,79,-0.063,-1.005,0.038,0.286479,0.057295800000000015,-0.4010706,90.76227678,-2.30902074,-25.77165084
0.8,80,-0.064,-1.001,0.045,1.0313244,0.11459160000000004,-0.3437748,90.77373594,-2.30329116,-25.76592126
0.81,81,-0.066,-1.001,0.048,1.0313244,0.286479,-0.4010706,90.81957258,-2.37204612,-25.76592126
0.8200000000000001,82,-0.066,-1.003,0.043,1.0313244,0.286479,-0.286479,90.83103174,-2.36631654,-25.76592126
0.8300000000000001,83,-0.064,-1.004,0.041,0.9740286,0.4583664000000001,-0.2291832000000001,90.83676132,-2.36631654,-25.76019168
0.8400000000000001,84,-0.063,-1.006,0.043,0.9167328,0.4583664000000001,-0.1718874,90.84822048,-2.36058696,-25.7544621
0.85,85,-0.063,-1.005,0.047,0.9740286,0.5156622000000001,-0.057295800000000015,90.85967964,-2.36058696,-25.74873252
0.86,86,-0.065,-1.004,0.044,0.7448454000000001,0.4010706,0.0,90.89405712,-2.44653066,-25.743002940000004
0.87,87,-0.066,-1.003,0.047,0.9740286,0.2291832000000001,0.057295800000000015,90.8997867,-2.44653066,-25.743002940000004
0.88,88,-0.067,-1.006,0.046,1.0313244,0.1718874,0.0,90.91124586,-2.44653066,-25.743002940000004
0.89,89,-0.066,-1.005,0.044,0.6875496,0.5156622000000001,0.1718874,90.91697544,-2.44653066,-25.73727336
0.9,90,-0.065,-1.006,0.043,0.572958,0.8021411999999999,0.286479,90.92270502,-2.45226024,-25.7258142
0.91,91,-0.062,-1.008,0.041,0.5156622000000001,0.9167328,0.286479,90.93416418,-2.50382646,-25.72008462
0.92,92,-0.061,-1.008,0.042,0.4010706,0.8021411999999999,0.2291832000000001,90.93989376,-2.50382646,-25.70862546
0.93,93,-0.061,-1.008,0.041,0.5156622000000001,0.6302538000000001,0.11459160000000004,90.94562334,-2.50382646,-25.70289588
0.9400000000000001,94,-0.061,-1.008,0.04,0.4010706,0.572958,0.2291832000000001,90.95135292,-2.50955604,-25.69716630000001
0.9500000000000001,95,-0.063,-1.006,0.045,0.5156622000000001,0.4583664000000001,0.5156622000000001,90.9570825,-2.51528562,-25.69143672
0.9600000000000001,96,-0.061,-0.999,0.044,0.7448454000000001,0.4010706,0.4010706,90.99145998,-2.5611222600000003,-25.69143672
0.97,97,-0.063,-1.002,0.048,1.145916,0.4010706,0.286479,91.00291914,-2.5611222600000003,-25.68570714
0.98,98,-0.064,-1.008,0.041,0.7448454000000001,0.4583664000000001,0.5156622000000001,91.00864872,-2.56685184,-25.679977560000005
0.99,99,-0.062,-1.01,0.037000000000000005,0.4010706,0.6302538000000001,0.6302538000000001,91.0143783,-2.57258142,-25.67424798
1.0,100,-0.06,-1.006,0.039,0.7448454000000001,0.8021411999999999,0.6302538000000001,91.02010788,-2.58404058,-25.668518400000004
1.01,101,-0.061,-1.002,0.041,1.0313244,0.9740286,0.6302538000000001,91.03156704,-2.6069589,-25.65705924
1.02,102,-0.061,-0.998,0.038,1.0313244,0.8594370000000001,0.7448454000000001,91.0430262,-2.61841806,-25.64560008
1.03,103,-0.061,-0.994,0.044,1.3750992,0.6302538000000001,0.9167328,91.05448536,-2.62414764,-25.6398705
1.04,104,-0.062,-0.995,0.044,1.6615782,0.4010706,1.0886202,91.0716741,-2.6356068,-25.6398705
1.05,105,-0.063,-0.999,0.033,1.145916,0.4583664000000001,1.432395,91.08313326,-2.65279554,-25.63414092
1.06,106,-0.059,-0.997,0.035,1.6042823999999998,0.286479,1.4896908000000002,91.09459242,-2.6699842800000004,-25.62841134
1.07,107,-0.056,-0.996,0.039,2.1772404,0.1718874,1.3178034,91.11751074,-2.68717302,-25.62841134
1.08,108,-0.057,-0.997,0.035,1.9480572,0.11459160000000004,1.432395,91.14042906,-2.69863218,-25.62841134
1.09,109,-0.056,-0.999,0.034,1.6042823999999998,-0.286479,1.6042823999999998,91.1576178,-2.71582092,-25.62841134
1.1,110,-0.055,-0.998,0.036000000000000004,1.6042823999999998,-1.145916,1.8334656000000005,91.17480654,-2.73300966,-25.6398705
1.11,111,-0.053,-0.996,0.031,2.0626488000000003,-1.7188740000000002,2.0053530000000004,91.1862657,-2.75592798,-25.65705924
1.12,112,-0.055,-0.995,0.032,2.5210152000000003,-1.9480572,2.0053530000000004,91.2149136,-2.77311672,-25.67424798
1.1300000000000001,113,-0.06,-0.994,0.027000000000000003,2.9220857999999996,-1.9480572,2.3491278,91.2435615,-2.79603504,-25.69716630000001
1.1400000000000001,114,-0.065,-0.992,0.019,3.151269,-1.432395,2.8074942000000003,91.27793898,-2.82468294,-25.70862546
1.1500000000000001,115,-0.065,-0.99,0.019,3.4377480000000005,-1.0313244,3.151269,91.31231646,-2.85333084,-25.72008462
1.1600000000000001,116,-0.066,-0.986,0.02,4.0680017999999984,-0.9167328,3.4377480000000005,91.34096436,-2.8934379,-25.73154378
1.17,117,-0.066,-0.98,0.019,4.9274388,-0.4010706,3.6096354,91.386801,-2.92781538,-25.73154378
1.18,118,-0.067,-0.974,0.025,5.9014674000000005,0.4583664000000001,3.8388186,91.44982638,-2.96792244,-25.73154378
1.19,119,-0.062,-0.971,0.032,6.9327918,1.145916,4.297185,91.51858134,-3.0137590800000003,-25.72008462
1.2,120,-0.063,-0.966,0.035,7.9641161999999985,1.3750992,4.8128472,91.59879546,-3.05959572,-25.70289588
1.21,121,-0.065,-0.964,0.039,9.167328,1.3178034,5.3285094000000015,91.69046874,-3.11689152,-25.69143672
1.22,122,-0.079,-0.962,0.042,10.3705398,1.2032118,5.9014674000000005,91.79360118,-3.1741873200000006,-25.679977560000005
1.23,123,-0.095,-0.968,0.045,11.4018642,2.1772404,6.3598338,91.90819278,-3.2372127,-25.65705924
1.24,124,-0.098,-0.977,0.051,12.0894138,3.380452200000001,6.875496000000001,92.02851396,-3.3116972399999995,-25.62841134
1.25,125,-0.097,-0.984,0.058,12.891555,4.297185,7.5630456000000015,92.1602943,-3.38618178,-25.58830428
1.26,126,-0.096,-0.997,0.057,13.349921400000001,6.016058999999999,8.479778399999999,92.28634506,-3.47785506,-25.531008480000004
1.27,127,-0.095,-1.015,0.057,13.464512999999998,7.8495246,9.6256944,92.4181254,-3.5809875,-25.45079436
1.28,128,-0.1,-1.026,0.057,13.0634424,8.4224826,11.45916,92.54417616,-3.70130868,-25.37630982
1.29,129,-0.103,-1.027,0.07400000000000001,14.152062599999999,9.453807000000001,12.834259199999998,92.68168608,-3.83308902,-25.28463654
1.3,130,-0.1,-1.031,0.1,15.4125702,10.9434978,13.6936962,92.83065516000002,-3.97632852,-25.1815041
1.31,131,-0.1,-1.037,0.118,15.9282324,13.0061466,14.5531332,92.99108340000001,-4.131027179999999,-25.06118292
1.32,132,-0.107,-1.055,0.115,15.2979786,15.6417534,15.2406828,93.1343229,-4.29145542,-24.91221384
1.33,133,-0.11,-1.079,0.091,12.032117999999999,18.7930224,15.985528200000001,93.23745534,-4.4690724,-24.734596860000003
1.34,134,-0.111,-1.092,0.066,8.9954406,20.912967,16.386598799999998,93.31193988,-4.64668938,-24.53406156
1.35,135,-0.116,-1.089,0.056,6.3025379999999975,21.829699800000004,16.902261,93.35777652,-4.83003594,-24.32779668
1.36,136,-0.121,-1.068,0.067,5.3858052,22.173474600000002,18.449247600000003,93.392154,-5.03630082,-24.1215318
1.37,137,-0.105,-1.056,0.07200000000000001,5.0993262,22.173474600000002,20.1108258,93.4208019,-5.25402486,-23.90953734
1.3800000000000001,138,-0.071,-1.027,0.07200000000000001,3.9534102,21.485925,22.058883,93.43799064,-5.4946672199999975,-23.70900204
1.3900000000000001,139,-0.047,-0.985,0.07,5.2139178,19.8816426,23.7204612,93.47236812,-5.746768739999999,-23.53138506
1.4000000000000001,140,-0.037000000000000005,-0.963,0.079,6.1879464,17.3606274,25.84040580000001,93.51820476,-6.0160589999999985,-23.37095682
1.4100000000000001,141,-0.037000000000000005,-0.944,0.096,7.0473834,13.8082878,27.8457588,93.58123014,-6.29680842,-23.25063564
1.42,142,-0.04,-0.93,0.118,8.4224826,10.6570188,28.991674800000002,93.65571468,-6.589017,-23.16469194
1.43,143,-0.044,-0.927,0.124,8.4224826,8.307891,29.621928600000004,93.73019922,-6.89268474,-23.10166656
1.44,144,-0.06,-0.92,0.124,8.5370742,6.0733548,29.5646328,93.81614292,-7.1906228999999975,-23.0615595
1.45,145,-0.077,-0.932,0.119,8.5370742,3.6096354,29.335449600000004,93.89635704,-7.48283148,-23.04437076
1.46,146,-0.091,-0.949,0.124,8.3651868,1.3750992,29.5646328,93.9937599,-7.76931048,-23.05010034
1.47,147,-0.112,-0.963,0.128,8.651665800000002,-0.8594370000000001,29.793816,94.08543318,-8.06151906,-23.07874824
1.48,148,-0.128,-0.972,0.14300000000000002,9.3965112,-2.6929026,30.65325300000001,94.18856562,-8.3651868,-23.13031446
1.49,149,-0.14400000000000002,-0.986,0.14800000000000002,9.6256944,-2.86479,31.2835068,94.29169806,-8.66885454,-23.18188068
1.5,150,-0.159,-1.006,0.135,9.167328,-2.578311,32.0283522,94.39483050000001,-8.98398144,-23.233446899999997
1.51,151,-0.18,-1.023,0.124,8.3651868,-2.578311,33.0596766,94.49223336,-9.3105675,-23.28501312
1.52,152,-0.205,-1.021,0.14400000000000002,8.078707799999998,-2.6929026,34.66395900000001,94.58390664,-9.64861272,-23.336579340000004
1.53,153,-0.199,-1.028,0.145,7.7349330000000025,-1.8334656000000005,36.898495200000006,94.67557992,-10.01530584,-23.38814556
1.54,154,-0.199,-1.047,0.121,5.844171599999999,-2.9220857999999996,39.877876799999996,94.74433488,-10.40491728,-23.45117094
1.55,155,-0.203,-1.05,0.13,5.7868758000000025,-4.8701430000000006,42.5707794,94.824549,-10.81744704,-23.53711464
1.56,156,-0.197,-1.039,0.131,5.6149884000000005,-5.844171599999999,44.690724,94.89903354,-11.25289512,-23.6345175
1.57,157,-0.2,-1.032,0.133,4.6409598,-6.4744254,46.352302200000004,94.97351808,-11.70553194,-23.74337952
1.58,158,-0.2,-1.033,0.133,4.6982556,-6.4744254,47.555514,95.04227304,-12.16389834,-23.84651196
1.59,159,-0.211,-1.033,0.134,3.6096354,-6.9327918,49.04520479999999,95.10529842,-12.64518306,-23.96683314
1.6,160,-0.21600000000000005,-1.024,0.129,2.9793816000000004,-5.72958,50.47759979999999,95.16259422,-13.13792694,-24.06996558
1.61,161,-0.22,-1.035,0.106,0.9167328,-4.8128472,51.56622,95.1969717,-13.6364004,-24.16736844
1.62,162,-0.23,-1.029,0.103,0.7448454000000001,-5.0993262,52.6548402,95.23134918,-14.152062600000002,-24.27050088
1.6300000000000001,163,-0.242,-0.999,0.106,0.057295800000000015,-4.4690724,53.628868800000006,95.2542675,-14.67918396,-24.36790374
1.6400000000000001,164,-0.251,-0.989,0.122,0.0,-2.291832,54.3737142,95.27718582,-15.212034899999995,-24.44238828
1.6500000000000001,165,-0.254,-0.985,0.107,-1.3750992,-1.145916,55.6915176,95.2829154,-15.762074579999998,-24.51114324
1.6600000000000001,166,-0.261,-0.972,0.102,-1.6042823999999998,-1.6042823999999998,56.8947294,95.28864498,-16.323573420000002,-24.5798982
1.6700000000000002,167,-0.278,-0.964,0.122,-1.0313244,0.1718874,56.66554620000001,95.29437456,-16.87934268,-24.637194
1.68,168,-0.284,-0.969,0.119,-2.6929026,2.8074942000000003,57.00932099999999,95.27718582,-17.4465711,-24.6658419
1.69,169,-0.298,-0.97,0.129,-3.5523396000000003,4.583664,57.467687399999996,95.24280834,-18.02525868,-24.67157148
1.7,170,-0.31,-0.964,0.14400000000000002,-2.5210152000000003,7.0473834,57.7541664,95.20843086,-18.60394626,-24.65438274
1.71,171,-0.308,-0.993,0.098,-4.1825934,8.651665800000002,59.4730404,95.15686464,-19.19982258,-24.62573484
1.72,172,-0.298,-1.017,0.083,-5.2139178,10.026765,62.16594300000001,95.08810968,-19.8243468,-24.5798982
1.73,173,-0.24,-1.018,0.085,-4.8128472,10.599723,64.62966239999999,95.01935472,-20.47751892,-24.53406156
1.74,174,-0.226,-0.992,0.112,-1.9480572,6.760904399999999,64.5723666,94.9964364,-21.11923188,-24.522602400000004
1.75,175,-0.329,-0.937,0.15,-0.7448454000000001,4.9847345999999995,60.7908438,94.99070682,-21.72656736,-24.52833198
1.76,176,-0.447,-0.926,0.14800000000000002,-2.7501984,8.136003599999999,55.00396800000001,94.95632934,-22.2880662,-24.49968408
1.77,177,-0.53,-0.93,0.14800000000000002,-3.151269,15.2406828,52.425657,94.88184479999998,-22.82664672,-24.38509248
1.78,178,-0.575,-0.938,0.151,-1.0886202,25.1528562,51.7381074,94.77871236,-23.36522724000001,-24.16736844
1.79,179,-0.556,-0.98,0.142,1.3178034,34.37748,52.6548402,94.65839118,-23.92672608,-23.84651196
1.8,180,-0.524,-1.012,0.129,1.2032118,38.90384820000001,53.7434604,94.51515168,-24.49968408,-23.474089260000003
1.81,181,-0.49,-1.007,0.136,0.057295800000000015,39.9924684,53.571573,94.35472344,-25.07264208,-23.090207400000004
1.82,182,-0.476,-0.994,0.139,-2.6356068,39.3049188,52.9413192,94.15991772,-25.63414092,-22.70632554
1.83,183,-0.463,-0.98,0.129,-5.844171599999999,37.2995658,52.3683612,93.9364641,-26.18991018,-22.33963242
1.84,184,-0.471,-0.998,0.133,-8.3651868,33.5753388,53.285094,93.70155132,-26.75140902,-22.01304636
1.85,185,-0.489,-0.964,0.125,-11.8029348,29.220858000000003,54.08723520000001,93.4494498,-27.31290786000001,-21.73229694
1.86,186,-0.501,-0.934,0.128,-12.891555,26.7571386,55.00396800000001,93.20307786,-27.88586586000001,-21.47446584
1.87,187,-0.512,-0.906,0.142,-14.381245800000002,27.1009134,55.6915176,92.92805802,-28.458823859999995,-21.21090516
1.8800000000000001,188,-0.527,-0.893,0.154,-14.037471,29.335449600000004,56.5509546,92.63584944,-29.04324102,-20.912967000000002
1.8900000000000001,189,-0.5429999999999999,-0.8909999999999999,0.116,-15.985528200000001,30.080295,59.4157446,92.32072254,-29.65630608,-20.60356968
1.9000000000000001,190,-0.537,-0.8809999999999999,0.104,-16.042824000000003,29.8511118,62.45242200000001,91.99986606,-30.29228946,-20.29990194
1.9100000000000001,191,-0.526,-0.857,0.106,-16.1001198,28.934379,64.22859179999999,91.68473916,-30.95119116,-19.9962342
1.9200000000000002,192,-0.512,-0.836,0.109,-16.959556799999998,28.81978740000001,65.3745078,91.35242352,-31.61582244,-19.68683688
1.93,193,-0.504,-0.8240000000000001,0.078,-17.7044022,28.304125199999998,67.036086,91.00291914,-32.29764246,-19.377439560000006
1.94,194,-0.504,-0.813,0.067,-17.761698000000006,27.3873924,67.9528188,90.65914434,-32.98519206,-19.07377182
1.95,195,-0.526,-0.799,0.056,-17.6471064,26.929026,68.182002,90.30391038,-33.67274166,-18.7643745
1.96,196,-0.537,-0.785,0.044,-17.589810600000003,26.298772200000002,68.41118519999999,89.95440599999998,-34.36029126,-18.46070676
1.97,197,-0.545,-0.77,0.065,-17.6471064,25.9549974,69.21332640000001,89.59917204,-35.05930002,-18.15130944
1.98,198,-0.532,-0.763,0.086,-17.303331600000003,25.9549974,70.9894962,89.23247891999998,-35.76976794,-17.83045296
1.99,199,-0.536,-0.775,0.06,-17.8189938,25.6112226,72.76566600000002,88.86005622,-36.4974246,-17.5038669
2.0,200,-0.537,-0.7909999999999999,0.011,-18.9649098,23.6631654,73.96887779999999,88.48190394,-37.23081084,-17.19446958
2.01,201,-0.534,-0.8059999999999999,-0.027000000000000003,-20.2254174,19.5378678,75.05749800000002,88.10948124000002,-37.97565624,-16.9309089
2.02,202,-0.535,-0.799,0.006999999999999999,-19.7097552,15.870936600000002,75.5731602,87.76570644,-38.72623122,-16.701725699999994
2.03,203,-0.547,-0.799,0.034,-18.334656,14.037471,74.82831479999999,87.44484996,-39.46534704,-16.484001659999997
2.04,204,-0.573,-0.785,-0.009000000000000001,-18.8503182,12.7769634,75.9742308,87.1182639,-40.2216516,-16.27773678
2.05,205,-0.591,-0.769,-0.005,-16.1001198,11.5737516,77.52121740000003,86.82605532,-40.98368574,-16.08293106
2.0599999999999996,206,-0.605,-0.777,0.001,-15.183387000000002,12.3758928,78.60983759999998,86.52811716,-41.75717904,-15.86520702
2.07,207,-0.644,-0.7609999999999999,-0.006,-15.2406828,14.381245800000002,80.5578948,86.2015311,-42.55359066,-15.60737592
2.0799999999999996,208,-0.6729999999999999,-0.7440000000000001,-0.038,-15.469866,16.329303,83.1362058,85.84056756,-43.3729206,-15.31516734
2.09,209,-0.642,-0.742,-0.025,-15.2406828,16.673077799999998,86.0009958,85.47387444,-44.22089844,-15.000040439999998
2.0999999999999996,210,-0.644,-0.768,-0.045,-15.0114996,14.610429000000002,87.26150340000002,85.10718132,-45.07460586000001,-14.70210228
2.11,211,-0.612,-0.779,-0.04,-14.667724800000002,11.917526400000002,88.12094040000002,84.76340652,-45.93404286,-14.43281202
2.1199999999999997,212,-0.639,-0.736,-0.011,-15.5844576,9.969469199999999,88.12094040000002,84.41963172,-46.79920943999999,-14.17498092
2.13,213,-0.6709999999999999,-0.6890000000000001,0.02,-14.8396122,10.3705398,87.4333908,84.07012734,-47.65864644,-13.89996108
2.1399999999999997,214,-0.696,-0.653,0.037000000000000005,-11.9748222,13.6936962,87.49068659999998,83.69770464000001,-48.51235386000001,-13.567645439999998
2.15,215,-0.706,-0.6409999999999999,-0.013,-11.516455800000001,17.589810600000003,88.7511942,83.26798613999998,-49.37179086,-13.15511568
2.1599999999999997,216,-0.701,-0.634,-0.022,-10.4851314,19.2513888,89.55333540000002,82.82107890000002,-50.23695744000001,-12.70247886
2.17,217,-0.6890000000000001,-0.642,-0.006999999999999999,-9.8548776,20.3973048,88.63660259999996,82.33979418,-51.09066486,-12.21546456
2.1799999999999997,218,-0.691,-0.635,-0.045,-11.45916,20.454600600000006,87.49068659999998,81.82413198,-51.93291312,-11.70553194
2.19,219,-0.691,-0.61,-0.08900000000000001,-12.2040054,18.5638392,86.97502440000002,81.30274019999997,-52.76370221999999,-11.2013289
2.1999999999999997,220,-0.72,-0.5870000000000001,-0.08800000000000001,-11.4018642,16.272007199999994,86.68854540000002,80.79853716,-53.59449132,-10.72004418
2.21,221,-0.732,-0.573,-0.087,-9.9121734,16.7303736,85.77181259999998,80.28287496,-54.41382126,-10.21011156
2.2199999999999998,222,-0.745,-0.5489999999999999,-0.07200000000000001,-8.8235532,15.985528200000001,85.5999252,79.76721276,-55.22742162,-9.68871978
2.23,223,-0.765,-0.503,-0.051,-6.990087599999999,16.501190400000002,86.0009958,79.23436182,-56.04102198,-9.12722094
2.2399999999999998,224,-0.765,-0.47,-0.068,-5.7868758000000025,18.048177,85.82910840000002,78.6671334,-56.85462234000001,-8.519885460000001
2.25,225,-0.7829999999999999,-0.468,-0.084,-4.8701430000000006,18.2200644,83.93834700000002,78.08271624,-57.63957480000001,-7.88390208
2.26,226,-0.78,-0.477,-0.112,-6.2452422,18.5638392,81.7038108,77.45246244,-58.39587936,-7.225000379999999
2.27,227,-0.769,-0.476,-0.112,-6.8182002000000015,17.0741484,80.67248640000003,76.82220864,-59.14645434000001,-6.566098679999999
2.28,228,-0.745,-0.47,-0.111,-6.3025379999999975,15.0687954,81.07355700000002,76.19195484000002,-59.9027589,-5.9129265600000025
2.29,229,-0.7609999999999999,-0.4370000000000001,-0.13699999999999998,-7.8495246,12.605076,82.1048814,75.55597146,-60.66479303999999,-5.2712136
2.3,230,-0.753,-0.412,-0.139,-7.9641161999999985,11.172681,82.1048814,74.90852892000002,-61.43255676,-4.62377106
2.31,231,-0.746,-0.386,-0.155,-8.8235532,9.1100322,80.67248640000003,74.2553568,-62.18313174,-3.98778768
2.32,232,-0.726,-0.378,-0.158,-10.6570188,5.958763200000001,78.781725,73.625103,-62.92224756,-3.39764094
2.3299999999999996,233,-0.728,-0.369,-0.163,-13.2353298,-1.5469866,78.32335859999998,73.08652248,-63.67282253999999,-2.93927454
2.34,234,-0.7440000000000001,-0.375,-0.14400000000000002,-13.6936962,-8.078707799999998,78.49524600000002,72.63961524,-64.44058626,-2.6012293200000003
2.3499999999999996,235,-0.777,-0.359,-0.155,-16.2147114,-11.1153852,77.8649922,72.21562631999998,-65.20834998000001,-2.30902074
2.36,236,-0.7859999999999999,-0.338,-0.153,-17.4179232,-13.9228794,76.48989300000002,71.81455572,-65.97611370000001,-2.0626488000000003
2.3699999999999997,237,-0.815,-0.32,-0.154,-18.5065434,-17.0741484,74.48454,71.47651049999997,-66.72668868000001,-1.8907613999999997
2.38,238,-0.8440000000000001,-0.311,-0.173,-20.8556712,-20.454600600000006,72.07811640000001,71.19003149999998,-67.4658045,-1.81054728
2.3899999999999997,239,-0.867,-0.298,-0.17800000000000002,-23.3193906,-24.9809688,70.76031300000002,70.9894962,-68.21064989999999,-1.83919518
2.4,240,-0.866,-0.273,-0.197,-24.8090814,-29.1635622,68.46848100000001,70.88636376,-68.94403614,-1.99962342
2.4099999999999997,241,-0.873,-0.242,-0.213,-25.6112226,-35.52339600000001,66.23394479999999,70.93792998,-69.67742238,-2.32620948
2.42,242,-0.915,-0.217,-0.204,-26.1268848,-37.757932200000006,64.0567044,71.09835822,-70.39361987999997,-2.77311672
2.4299999999999997,243,-0.933,-0.21,-0.196,-26.814434400000003,-38.961144,60.905435399999995,71.34473016,-71.08116948,-3.3116972399999995
2.44,244,-0.965,-0.196,-0.166,-25.78311,-39.0184398,57.35309579999999,71.65985706000002,-71.74007118,-3.91330314
2.4499999999999997,245,-0.988,-0.184,-0.14300000000000002,-24.8090814,-37.1849742,55.40503860000001,71.98071354,-72.37032497999998,-4.51490904
2.46,246,-1.006,-0.156,-0.138,-25.3820394,-36.2109456,54.94667220000001,72.28438128,-73.00057878,-5.0993262
2.4699999999999998,247,-0.992,-0.135,-0.134,-25.0955604,-35.2942128,55.06126379999999,72.61669692,-73.61937342,-5.70666168
2.48,248,-0.955,-0.139,-0.13699999999999998,-24.064235999999998,-35.8671708,53.7434604,73.02922668,-74.2267089,-6.382752120000001
2.4899999999999998,249,-0.923,-0.132,-0.139,-23.777757,-37.3568616,51.852699,73.56207762,-74.82258522,-7.17916374
2.5,250,-0.897,-0.128,-0.14400000000000002,-22.5745452,-39.820581,50.133825,74.26681596,-75.4012728,-8.136003599999999
2.51,251,-0.883,-0.125,-0.133,-20.626488,-41.76863820000001,47.9565846,75.12625296,-75.96850122000002,-9.23608296
2.52,252,-0.852,-0.113,-0.105,-18.8503182,-42.91455420000001,45.6647526,76.18622526,-76.50135216,-10.5137793
2.53,253,-0.8390000000000001,-0.098,-0.087,-17.0741484,-44.4615408,44.06047020000001,77.43527370000002,-77.01701435999998,-11.9748222
2.54,254,-0.831,-0.091,-0.104,-16.902261,-48.7587258,44.51883660000001,78.98798988,-77.53840613999998,-13.733803259999998
2.55,255,-0.8290000000000001,-0.077,-0.099,-15.183387000000002,-52.6548402,44.8053156,80.87302170000002,-78.05406833999999,-15.813640799999998
2.56,256,-0.8320000000000001,-0.084,-0.077,-13.5791046,-54.3164184,43.831287,83.0216142,-78.5525418,-18.13985028
2.57,257,-0.825,-0.086,-0.058,-13.0061466,-56.2071798,42.1697088,85.49679276,-79.01090819999997,-20.78691624
2.5799999999999996,258,-0.821,-0.096,-0.041,-11.9748222,-59.53033620000001,41.3675676,88.37304191999998,-79.4406267,-23.82932322
2.59,259,-0.8190000000000001,-0.095,-0.027000000000000003,-11.917526400000002,-63.1972674,40.7946096,91.69046874,-79.83023813999998,-27.31863744
2.5999999999999996,260,-0.8290000000000001,-0.068,-0.013,-11.9748222,-67.7236356,41.4821592,95.52928733999998,-80.17974252,-31.32934344
2.61,261,-0.846,-0.038,0.013,-10.3705398,-71.04679200000002,42.8572584,99.85512024,-80.49486942,-35.81560458
2.6199999999999997,262,-0.8759999999999999,-0.02,0.017,-8.5370742,-72.479187,44.2323576,104.57629416,-80.75270051999998,-40.67428842
2.63,263,-0.92,0.011,0.046,-6.1879464,-74.771019,47.1544434,109.74437532,-80.96469498,-45.96842034
2.6399999999999997,264,-0.946,0.044,0.055,-3.4377480000000005,-76.37530140000001,51.56622,115.35936372,-81.1308528,-51.66935244
2.65,265,-0.968,0.067,0.067,-0.3437748,-76.20341400000002,56.608250399999996,121.31239734,-81.2454444,-57.69114102000001
2.6599999999999997,266,-1.011,0.085,0.083,1.8334656000000005,-75.00020219999998,60.50436480000001,127.52326206,-81.31419936,-63.9421128
2.67,267,-1.0490000000000002,0.108,0.115,3.9534102,-73.45321560000002,63.48374640000001,133.79142258,-81.30274019999997,-70.22746206
2.6799999999999997,268,-1.079,0.113,0.097,5.5003968,-72.30729960000002,66.23394479999999,140.07104225999998,-81.21679650000002,-76.5185409
2.69,269,-1.104,0.14400000000000002,0.07400000000000001,9.5111028,-70.07276340000001,67.9528188,146.20742244000004,-81.05636826,-82.62054359999998
2.6999999999999997,270,-1.145,0.16699999999999998,0.073,14.2093584,-64.62966239999999,67.3798608,151.93127285999995,-80.83864422,-88.25845032
2.71,271,-1.19,0.16899999999999998,0.106,18.2200644,-58.44171600000001,63.6556338,157.08789486,-80.59227228,-93.28329198
2.7199999999999998,272,-1.226,0.133,0.141,20.6837838,-53.5142772,58.0979412,161.53404894,-80.29433412,-97.56901782
2.73,273,-1.264,0.104,0.2,19.8243468,-54.20182679999999,52.597544400000004,165.40151543999997,-79.92764100000002,-101.28178566
2.7399999999999998,274,-1.342,0.115,0.244,17.7044022,-58.8427866,47.7274014,168.74759016000004,-79.46354502,-104.49608004
2.75,275,-1.379,0.134,0.304,15.5844576,-62.051351399999994,40.966497,171.47487024,-78.9249645,-107.09730936
2.76,276,-1.347,0.135,0.33,12.7196676,-63.1399716,32.830493399999995,173.56043736,-78.34627692000002,-109.08547362000002
2.77,277,-1.289,0.136,0.37,8.479778399999999,-64.97343719999999,25.1528562,175.04439857999995,-77.72748228,-110.50067988
2.78,278,-1.226,0.112,0.414,5.5576926,-65.8328742,18.907614000000002,176.09291172000005,-77.0914989,-111.50908596
2.79,279,-1.137,0.054000000000000006,0.413,-0.5156622000000001,-67.26526919999999,14.8396122,176.82056838,-76.43832678,-112.24820178
2.8,280,-1.043,0.03,0.404,-6.875496000000001,-69.15603060000001,12.9488508,177.34196016,-75.75650676000002,-112.85553726
2.81,281,-0.958,0.016,0.387,-11.4018642,-68.9268474,13.2353298,177.79459698,-75.06895716,-113.42849526
2.82,282,-0.939,0.028,0.399,-16.7303736,-67.895523,13.2926256,178.13837178,-74.40432588,-113.95561662
2.8299999999999996,283,-0.8859999999999999,0.079,0.407,-20.3973048,-65.66098679999999,13.0634424,178.40766204000005,-73.75115376,-114.44263092
2.84,284,-0.8590000000000001,0.096,0.407,-22.058883,-62.7961968,13.980175199999998,178.65976356,-73.13235912,-114.92964522
2.8499999999999996,285,-0.851,0.105,0.413,-21.829699800000004,-60.733548000000006,15.126091199999998,178.92905381999995,-72.53075322000002,-115.43384826
2.86,286,-0.866,0.113,0.389,-20.9702628,-57.983349600000004,15.3552744,179.2212624,-71.95206564,-115.94951045999998
2.8699999999999997,287,-0.873,0.131,0.364,-20.2254174,-55.11855960000001,14.896907999999998,179.44471602,-71.40775554,-116.3964177
2.88,288,-0.8690000000000001,0.123,0.3720000000000001,-16.042824000000003,-51.33703679999999,13.8655836,179.66816964,-70.89782292,-116.7974883
2.8899999999999997,289,-0.858,0.096,0.399,-12.3758928,-47.6128098,12.261301199999998,179.86870494,-70.42799735999998,-117.13553352
2.9,290,-0.872,0.08800000000000001,0.414,-10.0840608,-45.550161,10.9434978,-179.94891906,-69.97536054,-117.42201252
2.9099999999999997,291,-0.91,0.099,0.4270000000000001,-6.9327918,-46.1804148,10.7143146,-179.73119502,-69.50553498000001,-117.72568026000002
2.92,292,-0.959,0.104,0.459,-3.2085648,-46.1804148,10.886202,-179.51347098,-69.04716858,-117.98351136
2.9299999999999997,293,-1.016,0.104,0.498,-2.0053530000000004,-44.404245,10.026765,-179.31293567999995,-68.60599092,-118.21842414
2.94,294,-1.039,0.12,0.498,-2.9220857999999996,-42.28430039999999,8.021412000000002,-179.17542576,-68.18773158,-118.39031154
2.9499999999999997,295,-1.051,0.125,0.506,-3.380452200000001,-41.3102718,5.2712136,-179.11812996,-67.7809314,-118.48198482
2.96,296,-1.033,0.111,0.521,-2.4637194,-37.52874900000001,2.5210152000000003,-179.0780229,-67.39704954,-118.53928062
2.9699999999999998,297,-1.01,0.096,0.522,-2.3491278,-35.695283399999994,-0.11459160000000004,-179.14104828,-67.04181558,-118.49344398
2.98,298,-0.992,0.08800000000000001,0.526,-1.7188740000000002,-35.695283399999994,-2.0626488000000003,-179.23845114,-66.6923112,-118.4017707
2.9899999999999998,299,-0.983,0.068,0.509,-0.11459160000000004,-35.52339600000001,-2.9220857999999996,-179.33012442,-66.33707724,-118.29290868
3.0,300,-0.978,0.061,0.52,0.572958,-33.116972399999995,-2.3491278,-179.40460896,-66.01049118,-118.20696498
3.01,301,-0.973,0.071,0.527,0.286479,-29.5646328,-1.9480572,-179.43325686,-65.70682344000001,-118.16112834
3.02,302,-0.953,0.086,0.518,0.286479,-26.929026,-2.5210152000000003,-179.50201182,-65.43753317999999,-118.07518464
3.03,303,-0.933,0.08199999999999999,0.501,0.11459160000000004,-25.78311,-3.4377480000000005,-179.59368510000004,-65.18543166,-117.97205220000001
3.04,304,-0.911,0.051,0.484,0.0,-24.7517856,-4.6982556,-179.7082767,-64.93905972,-117.84027186
3.05,305,-0.885,0.03,0.478,-2.4064236,-22.7464326,-4.9274388,-179.8515162,-64.7156061,-117.70849152
3.06,306,-0.8759999999999999,0.048,0.501,-3.151269,-19.194093,-4.9274388,-179.95464864000004,-64.50361164,-117.61681824
3.07,307,-0.9,0.05,0.509,-3.4377480000000005,-14.381245800000002,-5.0993262,179.89162326,-64.36037214000001,-117.49076748
3.08,308,-0.937,0.065,0.546,-2.5210152000000003,-10.9434978,-5.0993262,179.75411334,-64.25151012,-117.36471672
3.09,309,-0.951,0.055,0.565,-3.0366774,-6.8182002000000015,-5.2139178,179.61660342,-64.18275516,-117.24439554
3.0999999999999996,310,-0.97,0.047,0.561,-6.3598338,-4.8701430000000006,-4.8701430000000006,179.45044560000005,-64.13691852000001,-117.12980394000002
3.11,311,-0.956,0.048,0.535,-8.7089616,-5.0993262,-5.2139178,179.28428778,-64.06816356,-117.03813066
3.1199999999999997,312,-0.938,0.044,0.517,-10.026765,-5.958763200000001,-6.2452422,179.05510458,-64.00513817999999,-116.89489116
3.13,313,-0.918,0.034,0.514,-12.318597,-4.6982556,-6.6463128000000005,178.7915439,-63.95930154,-116.74592208
3.1399999999999997,314,-0.894,0.035,0.4920000000000001,-13.6364004,-4.297185,-6.9327918,178.51652406,-63.9134649,-116.59122342
3.15,315,-0.903,0.051,0.468,-11.516455800000001,-5.443101,-7.7349330000000025,178.24150422,-63.8561691,-116.41933602
3.1599999999999997,316,-0.914,0.061,0.457,-8.7089616,-5.6722842,-8.307891,178.04669850000005,-63.798873300000004,-116.28182610000002
3.17,317,-0.921,0.059,0.466,-5.844171599999999,-3.2658606,-8.59437,177.81751530000003,-63.75876624,-116.09274996
3.1799999999999997,318,-0.907,0.063,0.482,-5.6722842,-1.0886202,-9.167328,177.57687294,-63.74730708,-115.88648508
3.19,319,-0.899,0.063,0.473,-4.1252976000000015,0.9740286,-9.453807000000001,177.34196016,-63.75303666000001,-115.67449062
3.1999999999999997,320,-0.893,0.054000000000000006,0.472,-1.145916,2.9220857999999996,-9.797581800000001,177.1299657,-63.77595498000001,-115.45676658
3.21,321,-0.905,0.07,0.502,2.0053530000000004,5.5576926,-9.5111028,177.03256284,-63.81033246000001,-115.3077975
3.2199999999999998,322,-0.919,0.084,0.5329999999999999,4.1825934,10.7143146,-10.8289062,176.84921628,-63.90773531999999,-115.05569598
3.23,323,-0.935,0.094,0.536,5.2712136,14.896907999999998,-12.5477802,176.63722182,-64.05097482,-114.75775782
3.2399999999999998,324,-0.946,0.081,0.537,7.8495246,17.9335854,-14.152062599999999,176.40803862,-64.22286222,-114.42544218
3.25,325,-0.956,0.063,0.531,8.136003599999999,19.4232762,-13.8655836,176.184585,-64.40620878,-114.08739696
3.26,326,-0.946,0.063,0.524,7.7349330000000025,21.0848544,-13.464512999999998,176.00123844,-64.59528492,-113.7894588
3.27,327,-0.947,0.069,0.499,7.5057497999999985,22.5172494,-13.2926256,175.77205524,-64.81300896,-113.45714316
3.28,328,-0.964,0.017,0.481,10.7143146,22.5745452,-13.464512999999998,175.57151994,-65.02500341999999,-113.11336836
3.29,329,-0.949,0.012,0.486,10.886202,24.1215318,-13.120738199999998,175.36525506,-65.25418662,-112.77532314
3.3,330,-0.946,0.015,0.473,11.0580894,25.0955604,-12.7196676,175.17044934,-65.49482898,-112.43727792
3.31,331,-0.931,0.016,0.453,11.745639,25.496631,-11.9748222,175.01002110000005,-65.73547134,-112.13361018
3.32,332,-0.924,0.019,0.454,12.4904844,25.496631,-10.3705398,174.8667816,-65.98184327999999,-111.84140159999998
3.33,333,-0.922,0.014,0.445,13.349921400000001,25.3820394,-9.3392154,174.75218999999996,-66.22248564,-111.56638176
3.34,334,-0.927,-0.002,0.436,13.5791046,24.637194,-8.880849000000003,174.64905756000005,-66.45739842,-111.30855066
3.3499999999999996,335,-0.927,0.011,0.472,11.745639,26.069589,-8.479778399999999,174.52873638,-66.70949994,-111.05071956000002
3.36,336,-0.932,0.006999999999999999,0.464,10.4851314,28.304125199999998,-8.9954406,174.39122646,-66.97879019999999,-110.78715888
3.3699999999999997,337,-0.938,-0.018000000000000002,0.454,9.3392154,29.793816,-9.6256944,174.20215032000004,-67.25953962000001,-110.48349114
3.38,338,-0.937,-0.04,0.446,6.3598338,29.67922440000001,-10.4851314,173.96150796,-67.54601862,-110.15690508
3.3899999999999997,339,-0.906,-0.046,0.426,3.6096354,29.220858000000003,-10.5424272,173.68075854,-67.82103846,-109.81885986
3.4,340,-0.889,-0.05,0.422,2.2345362,27.788463,-10.026765,173.39427954,-68.08459914,-109.49227379999999
3.4099999999999997,341,-0.875,-0.053,0.408,0.4010706,25.6685184,-8.880849000000003,173.10780054,-68.31951192,-109.18287648
3.42,342,-0.8809999999999999,-0.07400000000000001,0.359,-0.057295800000000015,21.6005166,-8.5370742,172.83851027999995,-68.52004722,-108.89639748
3.4299999999999997,343,-0.879,-0.064,0.339,-0.1718874,17.8189938,-7.2192707999999985,172.60932708,-68.68620503999999,-108.65575511999998
3.44,344,-0.8909999999999999,-0.059,0.349,0.3437748,15.6990492,-6.3598338,172.4030622,-68.83517412,-108.43803108
3.4499999999999997,345,-0.907,-0.028,0.411,-1.432395,16.902261,-5.2712136,172.20825648,-68.99560235999999,-108.24322536
3.46,346,-0.942,-0.014,0.415,-3.7815227999999994,19.9962342,-4.297185,172.01918034,-69.17321934,-108.08279712
3.4699999999999998,347,-0.976,-0.027000000000000003,0.379,-5.443101,22.7464326,-2.5210152000000003,171.8301042,-69.39667296,-107.93955762
3.48,348,-0.982,-0.042,0.363,-5.443101,23.8923486,0.4010706,171.70978302,-69.63158574,-107.87653224
3.4899999999999998,349,-0.971,-0.055,0.34700000000000003,-4.9847345999999995,24.4653066,2.6356068,171.65248721999995,-69.8722281,-107.87080266
3.5,350,-0.955,-0.05,0.326,-5.0993262,24.2934192,4.2398892,171.63529848000005,-70.11860004,-107.91090972
3.51,351,-0.996,-0.056,0.287,-4.583664,22.9756158,6.417129599999999,171.66394638,-70.36497198,-108.002583
3.52,352,-0.989,-0.058,0.305,-6.1879464,23.204799,7.161975,171.72124218,-70.60561434,-108.13436334
3.53,353,-0.98,-0.032,0.316,-8.479778399999999,24.0069402,7.8495246,171.77853798,-70.85198627999998,-108.28906200000002
3.54,354,-0.969,-0.019,0.312,-8.651665800000002,25.3247436,8.307891,171.84729294,-71.10981738,-108.45521982
3.55,355,-0.963,-0.018000000000000002,0.324,-8.3651868,26.0122932,9.167328,171.93896622,-71.37910764,-108.64429596
3.56,356,-0.961,-0.012,0.35,-9.568398599999998,27.6738714,9.9121734,172.05928740000004,-71.65985706000002,-108.87920874
3.57,357,-0.953,-0.006,0.335,-10.599723,28.7051958,10.1413566,172.16241983999996,-71.95206564,-109.10266236
3.58,358,-0.958,-0.011,0.308,-10.4278356,27.903054600000004,10.3705398,172.27701144,-72.23854464,-109.34330472
3.59,359,-0.962,-0.018000000000000002,0.308,-10.8289062,25.78311,10.7143146,172.41452136,-72.5078349,-109.6068654
3.5999999999999996,360,-0.955,-0.01,0.322,-12.318597,24.2361234,10.4278356,172.54057212,-72.75993642,-109.87042608
3.61,361,-0.941,-0.005,0.297,-14.152062599999999,22.2307704,9.6256944,172.65516372,-72.98911962000003,-110.13971634
3.6199999999999997,362,-0.934,-0.002,0.274,-14.152062599999999,19.8243468,8.9381448,172.74110742,-73.1953845,-110.38035870000002
3.63,363,-0.922,-0.006,0.277,-13.6936962,17.761698000000006,8.5370742,172.82705112000005,-73.37873106,-110.62100105999998
3.6399999999999997,364,-0.904,-0.001,0.282,-13.8082878,16.501190400000002,8.021412000000002,172.90153565999995,-73.55061846,-110.85018426000002
3.65,365,-0.895,0.006999999999999999,0.265,-13.980175199999998,14.896907999999998,7.161975,172.95883146,-73.70531712,-111.05644914
3.6599999999999997,366,-0.907,0.017,0.262,-12.7196676,13.407217200000002,6.130650599999999,173.04477516000003,-73.84282704,-111.27990276
3.67,367,-0.928,0.028,0.272,-11.0007936,12.318597,4.9847345999999995,173.06769348,-73.96887779999999,-111.41741268
3.6799999999999997,368,-0.94,0.041,0.276,-9.167328,11.8602306,3.9534102,173.07342306,-74.09492856,-111.5262747
3.69,369,-0.95,0.059,0.289,-7.1046792000000005,11.516455800000001,2.9793816000000004,173.07342306,-74.20952016,-111.60075924
3.6999999999999997,370,-0.954,0.065,0.314,-5.72958,12.318597,1.7188740000000002,173.03331599999999,-74.32984134,-111.62367756
3.71,371,-0.95,0.061,0.293,-6.5317212,12.6623718,0.6875496,173.09634137999996,-74.4558921,-111.74399874
3.7199999999999998,372,-0.955,0.054000000000000006,0.289,-5.6149884000000005,12.1467096,0.572958,173.02185684,-74.57621328,-111.72681
3.73,373,-0.953,0.054000000000000006,0.28800000000000003,-4.8128472,12.0894138,1.5469866,172.98747936,-74.69653446000002,-111.74399874
3.7399999999999998,374,-0.949,0.062,0.275,-4.010706000000001,12.2040054,2.2345362,172.98174978,-74.81685564,-111.78983538
3.75,375,-0.945,0.07400000000000001,0.257,-3.0366774,12.318597,2.4637194,172.99893852,-74.9429064,-111.83567202
3.76,376,-0.954,0.064,0.243,-1.3750992,12.318597,1.8334656000000005,173.18228508,-75.08614589999998,-112.03047774
3.77,377,-0.952,0.043,0.235,0.8021411999999999,12.9488508,1.0313244,173.18801466,-75.21219666,-112.02474816
3.78,378,-0.954,0.034,0.241,3.380452200000001,13.8082878,0.4010706,173.18801466,-75.34970658,-111.99037068
3.79,379,-0.955,0.034,0.257,5.844171599999999,15.5844576,-0.057295800000000015,173.18228508,-75.50440524000003,-111.93307488
3.8,380,-0.96,0.041,0.273,7.8495246,17.589810600000003,-0.057295800000000015,173.19374424,-75.67629264,-111.85859034
3.81,381,-0.976,0.046,0.274,9.3965112,19.0222056,-0.057295800000000015,173.29687668,-75.86536878,-111.87004949999998
3.82,382,-0.991,0.039,0.276,10.8289062,19.8243468,0.11459160000000004,173.33698374,-76.0601745,-111.79556496
3.83,383,-0.995,0.021,0.278,11.516455800000001,20.2254174,0.6875496,173.4057387,-76.2607098,-111.74972832
3.84,384,-0.994,0.004,0.271,10.9434978,20.2827132,1.2032118,173.48595282,-76.46697467999998,-111.72108042
3.8499999999999996,385,-0.991,-0.005,0.259,9.8548776,20.2254174,1.6615782,173.58335568,-76.66750998,-111.72108042
3.86,386,-0.983,-0.006999999999999999,0.26,9.1100322,19.8243468,2.2345362,173.71513602,-76.8623157,-111.76691706
3.8699999999999997,387,-0.971,0.0,0.251,8.8235532,19.4232762,2.7501984,173.85264594,-77.05712142,-111.8127537
3.88,388,-0.962,0.006,0.237,8.59437,18.907614000000002,3.380452200000001,174.01880376,-77.24619756,-111.89296782
3.8899999999999997,389,-0.963,0.013,0.235,8.4224826,18.2200644,3.6669312000000014,174.20215032000004,-77.42954411999997,-111.99610026
3.9,390,-0.962,0.011,0.235,8.021412000000002,17.761698000000006,3.4377480000000005,174.37403772,-77.61289067999998,-112.09350312
3.9099999999999997,391,-0.957,0.01,0.227,7.2192707999999985,17.131444199999994,2.7501984,174.56311386,-77.7790485,-112.20809472
3.92,392,-0.953,0.012,0.226,6.9327918,16.157415599999997,2.1199446,174.67770546,-77.94520632,-112.25966094
3.9299999999999997,393,-0.953,0.014,0.222,6.760904399999999,15.5844576,1.4896908000000002,174.76364916,-78.09990497999998,-112.27684968
3.94,394,-0.948,0.019,0.211,5.7868758000000025,15.0687954,0.9740286,174.82094496,-78.24887406,-112.27684968
3.9499999999999997,395,-0.946,0.028,0.198,4.9847345999999995,13.8082878,0.3437748,174.84386328,-78.38638397999998,-112.25393136
3.96,396,-0.947,0.034,0.195,4.6982556,12.4331886,0.057295800000000015,174.98137319999995,-78.51243473999997,-112.33987505999998
3.9699999999999998,397,-0.954,0.034,0.193,5.0993262,11.45916,0.0,174.99283236000005,-78.62702634000001,-112.299768
3.98,398,-0.959,0.033,0.187,5.6149884000000005,10.8289062,0.286479,175.02720984,-78.73588836,-112.28257926
3.9899999999999998,399,-0.963,0.035,0.185,6.3598338,10.5424272,0.6875496,175.09596480000005,-78.84475038,-112.28257926
4.0,400,-0.97,0.034,0.182,7.2192707999999985,10.4851314,1.2032118,175.19909724,-78.94788281999998,-112.31695674
4.01,401,-0.972,0.035,0.179,7.906820400000001,10.8289062,1.7761698,175.4397396,-79.06820400000002,-112.47738498
4.02,402,-0.975,0.033,0.17600000000000002,8.193299399999999,11.2872726,2.2345362,175.60589742,-79.17706602000001,-112.56332868
4.03,403,-0.979,0.031,0.177,8.59437,11.745639,2.578311,175.79497356,-79.2973872,-112.66646112
4.04,404,-0.976,0.027000000000000003,0.17600000000000002,8.5370742,12.5477802,2.291832,175.96686096000005,-79.42343796,-112.7581344
4.05,405,-0.971,0.018000000000000002,0.16899999999999998,9.1100322,12.2040054,2.2345362,176.15020752,-79.54948872,-112.84980768
4.06,406,-0.984,0.023,0.17600000000000002,8.479778399999999,11.8029348,2.0626488000000003,176.39657946,-79.66980989999998,-113.01023592
4.07,407,-0.996,0.032,0.18600000000000005,8.9954406,11.229976800000001,1.5469866,176.55127812,-79.7844015,-113.07326129999998
4.08,408,-1.008,0.044,0.192,8.9954406,9.740286,0.8594370000000001,176.66586972,-79.88180436,-113.1019092
4.09,409,-1.011,0.057,0.204,9.453807000000001,8.3651868,-0.286479,176.72316552,-79.96774806,-113.06180214
4.1,410,-1.014,0.067,0.211,9.969469199999999,7.9641161999999985,-1.5469866,176.71743594,-80.04796218,-112.95294012
4.109999999999999,411,-1.009,0.07200000000000001,0.223,9.5111028,7.9641161999999985,-2.578311,176.84348669999997,-80.10525798,-112.97585844
4.12,412,-1.003,0.07,0.227,8.7089616,7.5630456000000015,-3.724227,176.70024719999995,-80.17974252,-112.74094566
4.13,413,-0.999,0.065,0.223,7.2192707999999985,6.875496000000001,-4.5263682,176.49398232,-80.24849748,-112.46019624
4.14,414,-1.001,0.062,0.217,6.0733548,6.2452422,-4.6409598,176.27052869999997,-80.30579328,-112.17371724
4.1499999999999995,415,-0.999,0.06,0.213,6.0733548,6.6463128000000005,-4.1252976000000015,176.06999340000004,-80.36881866,-111.91015656
4.16,416,-0.995,0.057,0.213,6.417129599999999,7.7922288,-3.3231564,176.11583004,-80.43184404,-111.88723824
4.17,417,-0.99,0.055,0.21,6.3598338,9.167328,-2.8074942000000003,175.98977928000005,-80.51778774,-111.69243251999998
4.18,418,-0.987,0.056,0.204,5.958763200000001,10.026765,-2.578311,175.86372852,-80.62092018,-111.50908596
4.1899999999999995,419,-0.978,0.053,0.199,5.2139178,11.0580894,-2.3491278,175.74340734,-80.7297822,-111.3257394
4.2,420,-0.976,0.054000000000000006,0.193,4.1252976000000015,11.8029348,-2.0626488000000003,175.61735658,-80.8443738,-111.15958158
4.21,421,-0.963,0.049,0.177,2.6356068,12.0894138,-1.7188740000000002,175.70902986000004,-80.95896540000003,-111.22260695999998
4.22,422,-0.952,0.044,0.162,1.432395,11.917526400000002,-1.0313244,175.61735658,-81.07355700000002,-111.11947452
4.2299999999999995,423,-0.94,0.043,0.14300000000000002,0.5156622000000001,10.8289062,-0.2291832000000001,175.57151994,-81.18241902,-111.06790829999998
4.24,424,-0.932,0.042,0.131,-0.057295800000000015,9.1100322,0.5156622000000001,175.57724951999995,-81.27409229999998,-111.07363788
4.25,425,-0.931,0.044,0.123,-0.2291832000000001,7.333862400000001,0.5156622000000001,175.58870868000002,-81.34284726,-111.09082662
4.26,426,-0.937,0.049,0.122,0.0,5.5576926,0.11459160000000004,176.12155962,-81.4459797,-111.61221840000002
4.27,427,-0.95,0.052000000000000005,0.119,0.0,3.0939732,-0.5156622000000001,176.07572298,-81.48035718,-111.56638176
4.28,428,-0.964,0.052000000000000005,0.12,0.2291832000000001,1.2605076000000002,-1.432395,175.97832011999995,-81.49181634,-111.46897889999998
4.29,429,-0.974,0.051,0.126,0.9167328,0.4010706,-2.2345362,175.83508062,-81.49181634,-111.31428024
4.3,430,-0.981,0.042,0.131,1.0313244,0.4010706,-3.0939732,175.63454532,-81.49754592000002,-111.10228578
4.31,431,-0.986,0.035,0.133,0.572958,0.4010706,-3.7815227999999994,175.88664684,-81.54338256,-111.33146898
4.32,432,-0.99,0.03,0.132,0.057295800000000015,-0.2291832000000001,-4.3544808,175.59443826,-81.53765297999998,-111.03353082
4.33,433,-0.993,0.027000000000000003,0.133,-0.5156622000000001,-1.3750992,-4.8701430000000006,175.2678522,-81.52046424,-110.71267434
4.34,434,-0.993,0.027000000000000003,0.136,-0.6302538000000001,-2.5210152000000003,-5.1566220000000005,174.92407740000004,-81.49181634,-110.37462911999998
4.35,435,-0.995,0.023,0.138,-0.9740286,-3.724227,-5.443101,174.57457302,-81.4459797,-110.02512474
4.36,436,-1.0,0.019,0.14,-1.432395,-4.9274388,-5.5576926,174.35684898,-81.40587264,-109.81885986
4.37,437,-0.999,0.015,0.146,-1.8334656000000005,-5.844171599999999,-5.443101,174.01307418,-81.34284726,-109.48654422
4.38,438,-0.998,0.01,0.152,-2.1199446,-6.3025379999999975,-5.1566220000000005,173.6922177,-81.27409229999998,-109.18287648
4.39,439,-0.998,0.006999999999999999,0.158,-2.578311,-6.3598338,-4.3544808,173.42292744000005,-81.20533734,-108.93650454000002
4.3999999999999995,440,-0.999,0.009000000000000001,0.16399999999999998,-3.2085648,-6.3025379999999975,-3.380452200000001,173.21093298,-81.14231196,-108.75315798
4.41,441,-0.999,0.011,0.172,-3.4377480000000005,-6.3025379999999975,-2.6929026,173.1765555,-81.06782741999999,-108.75315798
4.42,442,-0.998,0.011,0.179,-3.724227,-6.2452422,-1.9480572,173.05050474,-81.00480204,-108.6614847
4.43,443,-0.998,0.01,0.185,-4.2398892,-6.1879464,-1.3750992,172.95883146,-80.94177666,-108.61564806
4.4399999999999995,444,-0.997,0.011,0.19,-4.4690724,-6.0733548,-0.9167328,172.89580608,-80.87875127999997,-108.59272974
4.45,445,-0.994,0.015,0.194,-4.4117766,-5.7868758000000025,-0.572958,172.84996944,-80.82145548,-108.59272974
4.46,446,-0.989,0.019,0.196,-4.010706000000001,-5.2139178,-0.286479,173.07342306,-80.74697094,-108.85629041999998
4.47,447,-0.986,0.022,0.196,-3.6096354,-4.5263682,-0.1718874,173.05050474,-80.70113429999998,-108.87347916
4.4799999999999995,448,-0.985,0.026,0.195,-3.2085648,-3.5523396000000003,-0.057295800000000015,173.03331599999999,-80.66675682,-108.88493832000002
4.49,449,-0.983,0.028,0.193,-2.9220857999999996,-3.0939732,-0.057295800000000015,173.02185684,-80.63237934,-108.90212706
4.5,450,-0.983,0.03,0.195,-2.5210152000000003,-2.9793816000000004,0.0,173.01612726,-80.60373144,-108.92504538
4.51,451,-0.982,0.031,0.195,-1.9480572,-3.0366774,-0.057295800000000015,173.56616694,-80.54070606,-109.48654422
4.52,452,-0.981,0.032,0.194,-1.5469866,-2.9793816000000004,0.0,173.56616694,-80.51205816,-109.50373295999998
4.53,453,-0.976,0.035,0.193,-1.3750992,-2.9220857999999996,-0.057295800000000015,173.56616694,-80.48341026,-109.51519212
4.54,454,-0.976,0.035,0.192,-1.0886202,-3.0939732,0.1718874,173.57762610000003,-80.45476235999998,-109.54384002
4.55,455,-0.979,0.037000000000000005,0.194,-0.6302538000000001,-3.2658606,0.286479,173.60627399999996,-80.42038488,-109.57248792
4.56,456,-0.978,0.037000000000000005,0.195,0.0,-3.2658606,0.3437748,174.47144058,-80.34590034,-110.43192492
4.57,457,-0.98,0.041,0.192,0.286479,-2.9793816000000004,0.2291832000000001,174.50008848,-80.31725244,-110.45484324
4.58,458,-0.983,0.042,0.192,0.4583664000000001,-2.8074942000000003,0.0,174.51727722,-80.28860454,-110.4663024
4.59,459,-0.989,0.043,0.194,0.5156622000000001,-2.578311,-0.286479,174.51727722,-80.26568621999998,-110.45484324
4.6,460,-0.992,0.04,0.195,0.9167328,-2.1772404,-0.572958,174.4943589,-80.2427679,-110.43192492
4.61,461,-0.993,0.036000000000000004,0.194,1.2605076000000002,-1.8907613999999997,-0.8594370000000001,175.09023522,-80.19693126,-110.99915334
4.62,462,-0.994,0.033,0.194,1.4896908000000002,-1.7761698,-0.9740286,175.05012816,-80.17974252,-110.94758712
4.63,463,-0.995,0.035,0.194,1.8907613999999997,-1.6615782,-1.0886202,175.01002110000005,-80.16255378,-110.88456174
4.64,464,-0.994,0.035,0.195,1.9480572,-1.4896908000000002,-1.3178034,174.95845488,-80.14536504,-110.8100772
4.6499999999999995,465,-0.994,0.033,0.195,1.7761698,-1.145916,-1.3178034,174.90115908,-80.13390588000001,-110.73559266000002
4.66,466,-0.995,0.031,0.193,1.6615782,-0.9740286,-1.3178034,175.39963254,-80.10525798,-111.20541822
4.67,467,-0.997,0.032,0.192,1.7761698,-0.8594370000000001,-1.3178034,175.34233674,-80.09379881999998,-111.13093368
4.68,468,-0.999,0.03,0.193,1.7188740000000002,-0.6875496,-1.4896908000000002,175.27931136,-80.08806924,-111.04498998
4.6899999999999995,469,-0.999,0.028,0.195,1.6042823999999998,-0.572958,-1.5469866,175.20482682,-80.08233966,-110.95331670000002
4.7,470,-0.999,0.029,0.197,1.4896908000000002,-0.3437748,-1.5469866,175.13607186,-80.07661008,-110.867373
4.71,471,-0.995,0.028,0.195,1.3750992,0.2291832000000001,-1.5469866,175.65173406,-80.05369175999998,-111.36011688
4.72,472,-0.993,0.029,0.194,1.0313244,0.7448454000000001,-1.4896908000000002,175.57724951999995,-80.05942134,-111.27417318
4.7299999999999995,473,-0.991,0.028,0.195,0.7448454000000001,0.9167328,-1.4896908000000002,175.49703540000004,-80.0708805,-111.18249990000001
4.74,474,-0.99,0.027000000000000003,0.194,0.6875496,0.8594370000000001,-1.5469866,175.4110917,-80.07661008,-111.09082662
4.75,475,-0.985,0.026,0.191,0.6875496,0.8021411999999999,-1.5469866,175.32514799999996,-80.08233966,-110.99342376
4.76,476,-0.98,0.022,0.189,0.286479,0.5156622000000001,-1.4896908000000002,176.05853424000003,-80.05369175999998,-111.71535084
4.77,477,-0.975,0.023,0.189,0.0,0.11459160000000004,-1.2605076000000002,175.98977928000005,-80.05369175999998,-111.6408663
4.78,478,-0.976,0.023,0.185,0.11459160000000004,0.0,-1.145916,175.92102432,-80.05369175999998,-111.57211134
4.79,479,-0.978,0.023,0.187,0.0,-0.1718874,-0.9740286,175.8694581,-80.04796218,-111.51481554
4.8,480,-0.977,0.026,0.192,0.286479,0.0,-0.6875496,175.82935103999995,-80.04796218,-111.47470848
4.81,481,-0.978,0.026,0.193,0.0,0.286479,-0.572958,176.9867262,-79.9849368,-112.6148949
4.82,482,-0.979,0.026,0.193,-0.286479,0.286479,-0.3437748,176.96380788,-79.9849368,-112.59197658
4.83,483,-0.979,0.026,0.187,-0.6875496,0.0,-0.057295800000000015,176.95234872,-79.9849368,-112.586247
4.84,484,-0.978,0.025,0.181,-0.6302538000000001,-0.3437748,0.286479,176.96380788,-79.9849368,-112.60916532
4.85,485,-0.979,0.024,0.182,-0.572958,-0.6875496,0.7448454000000001,177.00391494000004,-79.97920722,-112.65500196
4.86,486,-0.982,0.024,0.19,-0.6302538000000001,-0.8021411999999999,1.0886202,177.5883321,-79.94482974,-113.23941912
4.87,487,-0.981,0.024,0.19,-1.0313244,-0.572958,1.2605076000000002,177.65135748,-79.93910016,-113.31390366
4.88,488,-0.98,0.029,0.185,-1.8907613999999997,-0.8594370000000001,1.2605076000000002,177.70292369999999,-79.92764100000002,-113.38838819999998
4.89,489,-0.983,0.03,0.18600000000000005,-2.1199446,-1.2032118,1.2032118,177.75448992000003,-79.91618184000002,-113.46287274
4.8999999999999995,490,-0.99,0.031,0.189,-1.9480572,-0.9167328,1.0886202,177.80032656,-79.91045226,-113.52589812
4.91,491,-0.993,0.03,0.19,-2.1199446,0.1718874,1.0313244,178.17274926,-79.90472267999998,-113.92123913999998
4.92,492,-0.993,0.03,0.185,-2.5210152000000003,1.2032118,0.9740286,178.20712674,-79.92191142,-113.97853494
4.93,493,-0.994,0.03,0.183,-3.151269,0.3437748,0.9740286,178.23004506,-79.92191142,-114.03583073999998
4.9399999999999995,494,-0.993,0.039,0.19,-3.0939732,-0.5156622000000001,0.6875496,178.24150422,-79.91618184000002,-114.0759378
4.95,495,-0.992,0.039,0.194,-3.151269,-0.572958,0.2291832000000001,178.22431548000003,-79.91045226,-114.09312654
4.96,496,-0.994,0.035,0.195,-3.0366774,-0.1718874,0.0,178.6196565,-79.88180436,-114.51711546
4.97,497,-1.005,0.034,0.222,-2.6929026,0.3437748,0.0,178.59673818,-79.88180436,-114.52284504
4.9799999999999995,498,-1.007,0.034,0.239,-2.9220857999999996,2.8074942000000003,-0.2291832000000001,178.55663112,-79.91045226,-114.50565629999998
4.99,499,-1.007,0.029,0.217,-5.0993262,4.5263682,-0.4583664000000001,178.476417,-79.9562889,-114.48273798
5.0,500,-1.004,0.029,0.198,-6.3025379999999975,3.724227,-0.4583664000000001,178.3904733,-79.99066638000002,-114.45981966
5.01,501,-0.991,0.024,0.177,-7.2192707999999985,2.7501984,-0.4010706,178.39620287999998,-80.03077343999998,-114.5343042
5.02,502,-0.976,0.014,0.14800000000000002,-7.5630456000000015,0.8594370000000001,0.286479,178.33890708,-80.03650302,-114.55722252
5.03,503,-0.969,0.013,0.15,-6.9327918,-1.3750992,1.2605076000000002,178.34463666,-80.02504386000003,-114.63170706
5.04,504,-0.969,0.022,0.175,-6.760904399999999,-2.0626488000000003,1.7761698,178.38474372000005,-80.00212554,-114.74056908
5.05,505,-0.961,0.029,0.183,-6.5317212,-1.9480572,1.5469866,178.40766204000005,-79.9849368,-114.83224236
5.06,506,-0.959,0.032,0.201,-5.2139178,-3.6669312000000014,1.145916,178.57954944,-79.92191142,-115.06142556
5.07,507,-0.972,0.03,0.208,-4.6409598,-5.2139178,0.572958,178.56809028,-79.8703452,-115.09580304
5.08,508,-0.97,0.028,0.184,-6.9327918,-5.7868758000000025,0.5156622000000001,178.5337128,-79.81304940000003,-115.13018052
5.09,509,-0.957,0.025,0.165,-7.448453999999999,-6.3598338,0.7448454000000001,178.49933532,-79.75002402,-115.17601716
5.1,510,-0.949,0.021,0.151,-7.5057497999999985,-8.250595200000001,0.9740286,178.48214658,-79.66980989999998,-115.23331296
5.11,511,-0.946,0.03,0.153,-6.703608600000001,-9.797581800000001,1.6615782,178.58527902,-79.5838662,-115.39947077999996
5.12,512,-0.949,0.038,0.171,-4.9274388,-10.7143146,2.7501984,178.68841146,-79.47500418000001,-115.55416943999998
5.13,513,-0.966,0.065,0.195,-4.6982556,-9.9121734,2.1772404,178.75716642,-79.37760132,-115.67449062
5.14,514,-0.962,0.052000000000000005,0.194,-3.8388186,-8.880849000000003,1.5469866,178.80300306,-79.28592804,-115.75470474
5.1499999999999995,515,-0.979,0.045,0.211,-3.5523396000000003,-8.136003599999999,1.0886202,178.82592138,-79.20571392,-115.81773012
5.16,516,-0.987,0.04,0.218,-3.151269,-6.990087599999999,0.572958,178.98062004000005,-79.1254998,-116.00107667999998
5.17,517,-0.993,0.031,0.208,-2.9220857999999996,-6.130650599999999,0.1718874,178.95770172,-79.06247442,-116.01253584
5.18,518,-1.002,0.029,0.212,-2.1199446,-5.6149884000000005,0.286479,178.95197214,-79.01090819999997,-116.023995
5.1899999999999995,519,-1.007,0.03,0.206,-1.6042823999999998,-4.8701430000000006,0.572958,178.96916088,-78.95934198,-116.0526429
5.2,520,-1.004,0.029,0.202,-0.9167328,-4.2398892,0.6875496,178.99207919999995,-78.91923492,-116.09274996
5.21,521,-0.992,0.024,0.206,-0.4583664000000001,-4.1252976000000015,1.0886202,179.1926145,-78.87339828,-116.29328526
5.22,522,-0.981,0.022,0.205,-0.9167328,-4.4117766,1.2605076000000002,179.24418071999997,-78.82756164,-116.35631064
5.2299999999999995,523,-0.977,0.025,0.221,-0.6302538000000001,-4.7555514,1.0313244,179.29001736,-78.781725,-116.40787686000002
5.24,524,-0.974,0.027000000000000003,0.219,-0.8594370000000001,-4.5263682,0.7448454000000001,179.31293567999995,-78.73588836,-116.44225434
5.25,525,-0.974,0.027000000000000003,0.202,-1.4896908000000002,-4.7555514,0.9167328,179.34158358,-78.69005172,-116.48809098
5.26,526,-0.973,0.022,0.184,-1.6615782,-5.5003968,1.432395,179.48482308,-78.65567424,-116.64278964
5.27,527,-0.969,0.025,0.188,-1.432395,-6.016058999999999,2.4637194,179.59368510000004,-78.59264886000003,-116.76311082
5.28,528,-0.963,0.038,0.214,0.0,-5.5003968,3.151269,179.74265418,-78.54108264,-116.91780948
5.29,529,-0.954,0.041,0.212,0.572958,-4.583664,3.2658606,179.90308242,-78.495246,-117.07823772000002
5.3,530,-0.958,0.04,0.218,1.2605076000000002,-4.297185,3.3231564,-179.92027116000003,-78.44940936,-117.23866596
5.31,531,-0.963,0.038,0.217,1.3750992,-4.1252976000000015,3.4377480000000005,-179.58795552,-78.40357272,-117.55379286
5.32,532,-0.967,0.043,0.215,1.145916,-3.8388186,3.5523396000000003,-179.41033854,-78.36346566,-117.71995067999998
5.33,533,-0.969,0.048,0.218,1.2032118,-3.380452200000001,3.4377480000000005,-179.23845114,-78.32908818,-117.8861085
5.34,534,-0.97,0.05,0.217,0.3437748,-3.0366774,3.0366774,-179.09521164,-78.30044028,-118.029348
5.35,535,-0.971,0.044,0.208,-0.3437748,-2.86479,2.86479,-178.9634313,-78.2660628,-118.16685791999998
5.36,536,-0.974,0.039,0.2,-0.8594370000000001,-3.7815227999999994,2.9220857999999996,-178.68841146,-78.24314448,-118.44187776
5.37,537,-0.98,0.039,0.195,-0.7448454000000001,-4.583664,2.86479,-178.56809028,-78.19730784,-118.57365810000002
5.38,538,-0.979,0.039,0.18600000000000005,-0.8021411999999999,-5.0993262,2.7501984,-178.45922825999997,-78.14574162,-118.69397928
5.39,539,-0.968,0.04,0.18600000000000005,-1.5469866,-6.016058999999999,2.291832,-178.37901414,-78.08271624,-118.79138214
5.3999999999999995,540,-0.964,0.04,0.188,-1.6615782,-7.161975,1.5469866,-178.33890708,-78.01396128,-118.84867794
5.41,541,-0.969,0.044,0.204,-1.6042823999999998,-7.5630456000000015,0.9167328,-178.17847884,-77.93947674,-119.02056534
5.42,542,-0.978,0.048,0.225,-1.4896908000000002,-6.2452422,0.286479,-178.19566758,-77.87645136,-119.02056534
5.43,543,-0.983,0.05,0.21600000000000005,-1.7761698,-4.9274388,-0.11459160000000004,-178.23004506,-77.82488514,-119.00337659999998
5.4399999999999995,544,-0.993,0.062,0.212,-1.432395,-5.2139178,-0.8594370000000001,-178.29880002,-77.77331892,-118.9460808
5.45,545,-1.005,0.069,0.226,0.11459160000000004,-5.042030400000002,-2.1199446,-178.40766204000005,-77.72748228,-118.8314892
5.46,546,-1.004,0.07,0.22,1.4896908000000002,-4.8128472,-3.151269,-178.35036624,-77.68164564,-118.8601371
5.47,547,-1.01,0.079,0.23,3.4950437999999995,-5.72958,-4.297185,-178.52798321999995,-77.63007941999999,-118.64241306
5.4799999999999995,548,-1.016,0.078,0.243,4.8128472,-5.5003968,-5.9014674000000005,-178.75716642,-77.5785132,-118.35593406
5.49,549,-1.001,0.071,0.257,4.0680017999999984,-4.2398892,-6.875496000000001,-179.03791584,-77.53267656,-118.029348
5.5,550,-0.992,0.07,0.293,3.2658606,-2.86479,-7.333862400000001,-179.34158358,-77.50975824000002,-117.6855732
5.51,551,-0.986,0.063,0.298,2.4064236,-1.3178034,-7.7922288,-179.5077414,-77.45246244,-117.4850379
5.52,552,-0.997,0.065,0.3,1.5469866,-0.572958,-7.7349330000000025,-179.83432746,-77.44673286,-117.12980394000002
5.53,553,-1.017,0.061,0.305,2.291832,0.8021411999999999,-7.2192707999999985,179.85724578,-77.45819202,-116.7974883
5.54,554,-1.009,0.054000000000000006,0.265,1.4896908000000002,2.9793816000000004,-5.72958,179.61660342,-77.48683992,-116.5396572
5.55,555,-1.009,0.046,0.231,0.9167328,2.291832,-4.6982556,179.41606812,-77.50975824000002,-116.32193316
5.56,556,-0.99,0.034,0.197,-1.5469866,-0.4010706,-4.5263682,179.31293567999995,-77.53840613999998,-116.2245303
5.57,557,-0.963,0.025,0.183,-3.8961144,-4.1252976000000015,-4.8701430000000006,179.05510458,-77.49829908000002,-115.9953471
5.58,558,-0.952,0.027000000000000003,0.2,-4.2398892,-6.3598338,-5.6722842,178.75716642,-77.42954411999997,-115.737516
5.59,559,-0.936,0.032,0.17600000000000002,-4.8128472,-6.417129599999999,-6.3598338,178.43058036,-77.36651874,-115.44530742
5.6,560,-0.94,0.04,0.172,-3.2085648,-5.6149884000000005,-6.5317212,178.10972388,-77.30922294000001,-115.15309883999998
5.61,561,-0.952,0.05,0.179,-1.0886202,-3.9534102,-7.0473834,177.98367312,-77.29776378,-115.0213185
5.62,562,-0.962,0.067,0.203,0.0,-1.145916,-8.651665800000002,177.59979126000005,-77.28057504,-114.63170706
5.63,563,-0.972,0.07,0.224,1.6615782,2.4064236,-10.1413566,177.17007275999995,-77.29776378,-114.17334066
5.64,564,-0.98,0.061,0.238,3.2658606,6.4744254,-10.7143146,176.71743594,-77.36078916,-113.6748672
5.6499999999999995,565,-0.992,0.05,0.257,5.5003968,9.3965112,-10.8289062,176.27625827999995,-77.44673286,-113.16493458
5.66,566,-0.988,0.036000000000000004,0.272,6.8182002000000015,9.969469199999999,-10.6570188,175.90383558000005,-77.52694698,-112.71802733999998
5.67,567,-0.992,0.033,0.294,7.8495246,8.307891,-11.0580894,175.4683875,-77.60143152,-112.1851764
5.68,568,-1.005,0.032,0.285,6.6463128000000005,6.417129599999999,-12.1467096,174.96418446,-77.65299774,-111.60648882
5.6899999999999995,569,-1.0,0.026,0.293,4.5263682,6.3598338,-12.2040054,174.43706310000005,-77.71029354,-111.01634208
5.7,570,-0.989,0.005,0.294,2.578311,6.2452422,-12.4904844,173.86983468,-77.75613018,-110.40900659999998
5.71,571,-0.984,0.0,0.28,0.572958,5.2139178,-12.4331886,173.34271332,-77.77331892,-109.86469650000001
5.72,572,-0.986,-0.002,0.262,-0.9740286,4.7555514,-12.261301199999998,172.75256658,-77.8076964,-109.26882018
5.7299999999999995,573,-0.989,0.005,0.27,-2.2345362,5.2139178,-12.032117999999999,172.15096068,-77.84207388,-108.68440302000002
5.74,574,-1.002,0.006,0.275,-1.9480572,6.130650599999999,-13.0634424,171.49778855999998,-77.88791051999998,-108.03696048000002
5.75,575,-1.008,-0.012,0.268,-1.7188740000000002,6.703608600000001,-13.8655836,170.80450937999996,-77.93374716000002,-107.3436813
5.76,576,-1.019,0.036000000000000004,0.247,-3.2085648,6.990087599999999,-14.5531332,170.16279642,-77.97385421999998,-106.72488666
5.77,577,-1.032,0.05,0.228,-2.0053530000000004,5.443101,-15.756345000000001,169.38357354,-78.00250212,-105.94566378
5.78,578,-1.058,0.041,0.259,-1.3750992,5.443101,-17.303331600000003,168.52986612,-78.02542044,-105.08622678000002
5.79,579,-1.046,0.027000000000000003,0.267,-2.1199446,7.6776372,-18.5065434,167.590215,-78.05979792000002,-104.15230524
5.8,580,-1.042,0.013,0.264,-2.1199446,8.4224826,-19.308684600000007,166.60472724,-78.09990497999998,-103.16681748
5.81,581,-1.021,0.037000000000000005,0.263,-1.0886202,8.250595200000001,-20.912967,165.68799443999995,-78.12855288,-102.23862552
5.82,582,-1.022,0.066,0.251,1.3750992,10.8289062,-23.204799,164.51916011999995,-78.17438952,-101.02968414
5.83,583,-1.003,0.07200000000000001,0.263,0.8021411999999999,13.521808800000002,-23.4339822,163.28730042,-78.2374149,-99.76917654
5.84,584,-1.03,0.04,0.256,5.3285094000000015,13.2353298,-23.9496444,162.07262945999997,-78.29471070000002,-98.47429146
5.85,585,-1.086,0.025,0.266,6.5317212,15.0114996,-23.8923486,160.8293106,-78.36346566,-97.13929932
5.86,586,-1.096,0.029,0.281,6.2452422,21.9442914,-24.1215318,159.51150719999995,-78.48378684000002,-95.73555222
5.87,587,-1.09,-0.005,0.274,6.9327918,28.4187168,-24.2361234,157.99889808,-78.6671334,-94.11408108
5.88,588,-1.078,0.004,0.278,6.6463128000000005,30.65325300000001,-24.694489800000003,156.36596778,-78.85047996,-92.3894775
5.89,589,-1.073,0.012,0.275,6.3598338,30.8824362,-25.1528562,154.64709378,-79.03382652,-90.57320064
5.8999999999999995,590,-1.084,0.033,0.241,6.5317212,29.1635622,-25.78311,152.88238314,-79.18279559999998,-88.71681672
5.91,591,-1.1,0.017,0.227,5.042030400000002,29.220858000000003,-26.5279554,151.08902460000004,-79.32030552,-86.83751448000002
5.92,592,-1.095,-0.038,0.241,2.578311,32.8877892,-28.361421000000004,148.97480958,-79.46354502,-84.66600365999999
5.93,593,-1.096,-0.004,0.226,-3.0939732,35.52339600000001,-29.5646328,146.6199522,-79.6125141,-82.31114628
5.9399999999999995,594,-1.083,0.001,0.201,-4.6982556,36.4401288,-28.81978740000001,144.19633986000005,-79.75002402,-79.89899310000001
5.95,595,-1.082,0.0,0.181,-5.2712136,35.236917,-29.9084076,141.6925134,-79.85888604,-77.41808496
5.96,596,-1.044,0.009000000000000001,0.157,-7.5630456000000015,35.8671708,-29.621928600000004,139.16576862000002,-79.9562889,-74.93144724
5.97,597,-1.061,0.006,0.112,-6.9327918,35.52339600000001,-30.5959572,136.51870266,-80.02504386000003,-72.32448833999999
5.9799999999999995,598,-1.102,0.008,0.107,-5.5576926,36.2682414,-31.5699858,133.79142258,-80.06515092,-69.614397
5.99,599,-1.131,-0.013,0.107,-7.6776372,34.091001,-32.8877892,131.0641425,-80.05369175999998,-66.93295356
6.0,600,-1.155,-0.026,0.1,-9.6256944,33.116972399999995,-34.262888399999994,128.32540325999997,-80.01358470000002,-64.2572397
6.01,601,-1.105,0.001,0.086,-11.8602306,33.231564,-34.4347758,125.6210415,-79.9562889,-61.63882163999999
6.02,602,-1.0659999999999998,0.009000000000000001,0.054000000000000006,-11.2872726,31.3980984,-34.4347758,123.00835302,-79.85888604,-59.10634728
6.03,603,-1.029,-0.031,0.035,-9.8548776,28.991674800000002,-37.0703826,120.50452656,-79.70418738,-56.66554620000001
6.04,604,-1.019,-0.068,0.037000000000000005,-8.250595200000001,28.762491600000004,-39.9924684,118.02361842,-79.50365208,-54.23620428
6.05,605,-1.077,-0.099,0.045,-5.72958,30.194886600000004,-43.258329,115.52552154,-79.26300972,-51.75529614
6.06,606,-1.041,-0.041,0.073,-6.990087599999999,31.6845774,-43.6021038,113.07899088,-79.01663778,-49.33741338
6.07,607,-1.06,-0.05,0.073,-1.8907613999999997,32.945085,-45.72204840000001,110.66683770000002,-78.73015878,-46.90807146
6.08,608,-1.061,-0.065,0.083,-0.2291832000000001,37.0703826,-47.67010560000001,108.18019998,-78.41503188,-44.3755971
6.09,609,-1.068,-0.085,0.101,0.9740286,40.10706,-50.0765292,105.67064394000002,-78.0655275,-41.81447484
6.1,610,-1.04,-0.109,0.118,0.572958,42.34159620000001,-52.3110654,103.18973580000002,-77.67591605999998,-39.27054132
6.11,611,-0.999,-0.117,0.12,0.572958,43.0291458,-53.68616460000001,100.85779674,-77.26338630000002,-36.88130646000001
6.12,612,-0.985,-0.121,0.135,1.3750992,44.8053156,-54.889376399999996,98.56596474,-76.81074948,-34.52644908
6.13,613,-0.964,-0.122,0.142,1.5469866,46.5241896,-54.889376399999996,96.3715356,-76.34665349999999,-32.2575354
6.14,614,-0.958,-0.122,0.11,3.2658606,45.72204840000001,-53.858052,94.37191218,-75.86536878,-30.17196828
6.15,615,-0.952,-0.139,0.08,4.9274388,45.6074568,-53.1705024,92.52698742,-75.37835448000001,-28.229640659999994
6.16,616,-0.958,-0.139,0.075,6.760904399999999,45.9512316,-53.11320660000001,90.83676132,-74.88561059999998,-26.40763422
6.17,617,-0.952,-0.15,0.058,7.9641161999999985,46.409598,-53.285094,89.23247891999998,-74.3699484,-24.6658419
6.18,618,-0.956,-0.16399999999999998,0.064,7.906820400000001,45.8939358,-54.029939399999996,87.75424728,-73.83136787999999,-23.05582992
6.1899999999999995,619,-0.969,-0.174,0.08199999999999999,7.906820400000001,44.4615408,-54.602897399999996,86.41925513999998,-73.28132819999998,-21.58905744
6.2,620,-0.968,-0.171,0.094,8.193299399999999,41.3102718,-54.7747848,85.2847983,-72.71982936,-20.32282026
6.21,621,-1.003,-0.17600000000000002,0.085,6.9327918,38.5600734,-56.5509546,84.32222886000002,-72.14687136,-19.23992964
6.22,622,-1.072,-0.191,0.07400000000000001,6.1879464,38.2162986,-60.332477399999995,83.41695522,-71.51661756,-18.23152356
6.2299999999999995,623,-1.063,-0.222,0.039,5.3285094000000015,40.164355799999996,-65.030733,82.52887032,-70.84052712,-17.24030622
6.24,624,-1.035,-0.252,-0.039,1.4896908000000002,40.5081306,-69.32791800000001,81.6751629,-70.11287046,-16.329303000000003
6.25,625,-1.016,-0.277,-0.08900000000000001,-0.7448454000000001,36.7839036,-70.473834,80.96469498,-69.37375464,-15.584457600000002
6.26,626,-1.004,-0.28800000000000003,-0.076,-0.9740286,31.79916900000001,-68.6403684,80.40892572,-68.6690163,-15.00577002
6.27,627,-1.002,-0.302,-0.107,0.0,26.7571386,-66.23394479999999,80.02504386000003,-67.9814667,-14.59896984
6.28,628,-1.003,-0.324,-0.123,-1.6615782,26.814434400000003,-66.9787902,79.64689158,-67.28818752,-14.2093584
6.29,629,-0.962,-0.336,-0.138,-5.042030400000002,28.5906042,-71.90622900000002,79.23436182,-66.54334212,-13.83120612
6.3,630,-0.897,-0.334,-0.161,-8.193299399999999,25.3247436,-79.75575359999998,78.9249645,-65.72401218,-13.584834179999998
6.31,631,-0.83,-0.377,-0.159,-6.6463128000000005,18.7357266,-86.34477059999998,78.79318416,-64.84738644000001,-13.521808800000002
6.32,632,-0.8029999999999999,-0.398,-0.142,-6.589017,13.6364004,-90.41277240000001,78.8103729,-63.94784238,-13.61348208
6.33,633,-0.805,-0.39,-0.136,-7.9641161999999985,7.9641161999999985,-93.105675,78.91923492,-63.02538000000001,-13.836935700000002
6.34,634,-0.762,-0.36,-0.129,-10.1413566,2.8074942000000003,-95.7412818,79.10831106,-62.09145846,-14.16352176
6.35,635,-0.74,-0.383,-0.096,-10.4278356,-1.6615782,-96.3715356,79.36041258,-61.15180734000001,-14.576051520000002
6.36,636,-0.7659999999999999,-0.35600000000000004,-0.053,-11.1153852,-2.0626488000000003,-96.6580146,79.59532535999998,-60.2178858,-14.97139254
6.37,637,-0.792,-0.371,-0.047,-7.6203414,-0.2291832000000001,-97.2882684,79.81304940000003,-59.26677552,-15.31516734
6.38,638,-0.797,-0.397,-0.08,-8.651665800000002,0.286479,-98.0331138,79.99639596,-58.30993566,-15.63602382
6.39,639,-0.8029999999999999,-0.452,-0.136,-7.9641161999999985,1.2605076000000002,-97.0590852,80.15109462000002,-57.35882538,-15.92250282
6.4,640,-0.8220000000000001,-0.478,-0.166,-6.0733548,6.8182002000000015,-95.5693944,80.23130874,-56.41344468,-16.088660639999997
6.41,641,-0.7959999999999999,-0.4920000000000001,-0.174,-4.010706000000001,10.313244,-95.2256196,80.25422705999998,-55.46806398,-16.18033392
6.42,642,-0.722,-0.501,-0.172,-1.5469866,10.5424272,-94.3088868,80.31152286,-54.53414244,-16.26627762
6.43,643,-0.664,-0.488,-0.162,0.286479,7.2765666,-92.0170548,80.42038488,-53.61740964000001,-16.40378754
6.4399999999999995,644,-0.639,-0.483,-0.115,4.010706000000001,3.4377480000000005,-88.63660259999996,80.60373144,-52.74651348,-16.58140452
6.45,645,-0.687,-0.514,-0.056,5.72958,-0.6875496,-85.77181259999998,80.8443738,-51.90426521999999,-16.8163173
6.46,646,-0.687,-0.472,-0.052000000000000005,3.0366774,-2.5210152000000003,-82.39136040000002,81.06209784,-51.10785360000001,-17.056959659999997
6.47,647,-0.6829999999999999,-0.482,-0.059,4.297185,-2.578311,-80.90166959999998,81.28555146,-50.31717156000001,-17.286142859999998
6.4799999999999995,648,-0.6759999999999999,-0.515,-0.076,5.042030400000002,-4.2398892,-79.9849368,81.52619381999997,-49.5322191,-17.5325148
6.49,649,-0.6679999999999999,-0.552,-0.049,6.9327918,-4.8128472,-79.5265704,81.77829534,-48.75872579999999,-17.77888674
6.5,650,-0.669,-0.58,-0.011,8.479778399999999,-4.6982556,-79.0109082,82.03612644,-47.9852325,-18.00806994
6.51,651,-0.6890000000000001,-0.599,-0.019,8.078707799999998,-6.5317212,-77.6931048,82.3054167,-47.22892794,-18.26017146
6.52,652,-0.677,-0.596,-0.022,8.7089616,-8.4224826,-76.60448459999998,82.58616612,-46.48408254,-18.52373214
6.53,653,-0.6609999999999999,-0.605,-0.004,9.167328,-11.688343199999998,-77.52121740000003,82.90129302,-45.72777798,-18.82739988
6.54,654,-0.636,-0.631,0.025,9.6829902,-12.4904844,-78.09417540000003,83.21641991999998,-44.97147342,-19.13106762
6.55,655,-0.616,-0.6679999999999999,0.013,8.59437,-15.527161800000002,-77.80769640000003,83.53727640000002,-44.21516886,-19.46911284
6.56,656,-0.631,-0.685,0.015,7.1046792000000005,-20.9702628,-77.0055552,83.89823994000002,-43.47032346,-19.87591302
6.57,657,-0.625,-0.7140000000000001,0.012,6.6463128000000005,-22.9756158,-76.37530140000001,84.24774432000002,-42.73120764,-20.28844278
6.58,658,-0.6609999999999999,-0.7170000000000001,-0.003,6.016058999999999,-25.2674478,-75.63045600000002,84.60297828,-42.00355098,-20.71816128
6.59,659,-0.7070000000000001,-0.6920000000000001,-0.042,6.016058999999999,-23.6058696,-75.51586440000001,84.93529392,-41.27016474,-21.11923188
6.6,660,-0.716,-0.672,-0.053,7.161975,-20.3973048,-74.82831479999999,85.23896166,-40.5367785,-21.46873626
6.61,661,-0.711,-0.667,0.011,11.516455800000001,-17.0741484,-74.42724419999998,85.54835898,-39.820581,-21.76667442
6.62,662,-0.7,-0.69,-0.015,11.45916,-15.469866,-72.4218912,85.83483798,-39.11011308,-22.030235100000002
6.63,663,-0.6459999999999999,-0.691,-0.026,11.8029348,-16.042824000000003,-69.9581718,86.12131698,-38.42256348,-22.29379578
6.64,664,-0.564,-0.713,-0.063,11.9748222,-16.4438946,-70.1300592,86.40206640000002,-37.73501388,-22.55162688
6.65,665,-0.524,-0.728,-0.056,14.0947668,-18.9649098,-71.2759752,86.72292288,-37.03027554000001,-22.83810588
6.66,666,-0.521,-0.7390000000000001,-0.014,18.1054728,-20.3973048,-72.30729960000002,87.08388642,-36.31407804,-23.13604404
6.67,667,-0.542,-0.757,-0.006999999999999999,17.4179232,-21.1421502,-72.70837019999998,87.4333908,-35.59788054,-23.42825262
6.68,668,-0.5710000000000001,-0.759,0.024,17.0168526,-20.3973048,-73.10944079999999,87.77143602000002,-34.870223880000005,-23.70900204
6.6899999999999995,669,-0.601,-0.773,0.006,15.3552744,-18.8503182,-73.10944079999999,88.07510376,-34.1482968,-23.96110356
6.7,670,-0.618,-0.7909999999999999,-0.012,14.495837400000001,-15.183387000000002,-72.25000379999999,88.33293486,-33.42636972,-24.16736844
6.71,671,-0.608,-0.845,0.003,15.6990492,-9.797581800000001,-70.7030172,88.56784764,-32.72736096,-24.29914878
6.72,672,-0.552,-0.878,-0.017,16.4438946,-6.990087599999999,-67.2079734,88.78557168,-32.057000099999996,-24.39655164
6.7299999999999995,673,-0.521,-0.878,0.011,17.18874,-7.2765666,-64.9161414,89.00902529999998,-31.41528714,-24.4939545
6.74,674,-0.481,-0.8859999999999999,0.049,17.589810600000003,-6.2452422,-64.22859179999999,89.22674934,-30.773574180000004,-24.57416862
6.75,675,-0.461,-0.873,0.059,17.18874,-6.875496000000001,-63.9994086,89.44447338,-30.13186122,-24.65438274
6.76,676,-0.459,-0.858,0.047,16.157415599999997,-9.224623800000002,-63.4264506,89.66792699999998,-29.49587784,-24.76324476
6.77,677,-0.459,-0.866,0.02,14.152062599999999,-10.9434978,-63.1399716,89.8684623,-28.86562404,-24.88356594
6.78,678,-0.456,-0.8859999999999999,0.016,13.521808800000002,-12.4331886,-63.48374640000001,90.07472718,-28.23537024,-25.02107586
6.79,679,-0.472,-0.899,0.037000000000000005,12.4331886,-13.6364004,-64.9161414,90.2695329,-27.58219812,-25.17004494
6.8,680,-0.49,-0.911,0.038,10.3705398,-13.349921400000001,-68.2392978,90.4414203,-26.9003781,-25.30755486
6.81,681,-0.494,-0.931,0.015,8.136003599999999,-11.5737516,-71.04679200000002,90.57320064,-26.18991018,-25.42787604
6.82,682,-0.465,-0.952,-0.006999999999999999,7.448453999999999,-9.1100322,-72.5937786,90.68779224,-25.4679831,-25.51381974
6.83,683,-0.422,-0.977,-0.009000000000000001,8.5370742,-6.3598338,-73.338624,90.79665426,-24.734596860000003,-25.57111554
6.84,684,-0.389,-0.984,-0.013,8.651665800000002,-4.5263682,-73.1667366,90.8997867,-24.00694020000001,-25.60549302
6.85,685,-0.371,-0.971,0.011,9.740286,-4.583664,-72.0208206,91.00864872,-23.29074270000001,-25.6398705
6.86,686,-0.343,-0.967,0.006,9.2819196,-5.3858052,-71.04679200000002,91.11751074,-22.5745452,-25.67424798
6.87,687,-0.331,-0.983,-0.008,7.9641161999999985,-7.6776372,-70.4165382,91.22064318,-21.86980686,-25.743002940000004
6.88,688,-0.312,-1.005,0.004,6.6463128000000005,-12.4904844,-71.90622900000002,91.3295052,-21.14787978,-25.85186496
6.89,689,-0.307,-1.026,0.012,4.1252976000000015,-16.902261,-74.65642740000001,91.42690806,-20.3973048,-26.0122932
6.9,690,-0.325,-1.035,0.031,0.8021411999999999,-20.454600600000006,-78.4379502,91.5013926,-19.61235234,-26.20136934000001
6.91,691,-0.344,-1.018,0.062,-3.0939732,-21.9442914,-82.4486562,91.54149966,-18.78156324,-26.40763422
6.92,692,-0.355,-0.979,0.032,-8.021412000000002,-22.7464326,-84.56860079999998,91.5300405,-17.927855819999994,-26.61962868
6.93,693,-0.35200000000000004,-0.936,0.012,-9.797581800000001,-24.2361234,-84.68319240000002,91.49566302,-17.0741484,-26.84308230000001
6.9399999999999995,694,-0.338,-0.917,0.034,-7.906820400000001,-25.6685184,-84.797784,91.48993344,-16.22044098,-27.08372466
6.95,695,-0.303,-0.941,0.043,-5.2712136,-23.376686399999997,-83.76645959999998,91.49566302,-15.37819272,-27.301448699999998
6.96,696,-0.254,-0.966,0.048,0.3437748,-19.8243468,-78.7244292,91.54722924,-14.5817811,-27.47906568
6.97,697,-0.223,-1.013,0.056,6.2452422,-21.6578124,-71.79163740000001,91.66182084,-13.85985402,-27.679600980000004
6.9799999999999995,698,-0.231,-1.061,0.076,8.4224826,-24.2934192,-65.8328742,91.79933076,-13.18949316,-27.903054600000004
6.99,699,-0.272,-1.085,0.103,7.448453999999999,-26.356068,-62.2805346,91.9311111,-12.55350978,-28.14369696
7.0,700,-0.309,-1.085,0.101,3.8961144,-26.1268848,-61.592985,92.02851396,-11.92898556,-28.38433932
7.01,701,-0.321,-1.055,0.083,-0.11459160000000004,-22.4026578,-63.82752120000001,92.06862102,-11.29300218,-28.58487462
7.02,702,-0.301,-1.03,0.073,-3.2085648,-17.5325148,-67.9528188,92.06862102,-10.60545258,-28.7338437
7.03,703,-0.252,-0.99,0.061,-5.2712136,-12.6623718,-71.7343416,92.02851396,-9.883525500000001,-28.83697614
7.04,704,-0.202,-0.947,0.059,-3.9534102,-6.990087599999999,-74.5418358,91.99413648,-9.14440968,-28.877083199999998
7.05,705,-0.168,-0.925,0.075,-1.8907613999999997,-4.1252976000000015,-74.31265259999998,91.97694774,-8.39956428,-28.89427194
7.06,706,-0.173,-0.904,0.087,-1.0886202,-3.2085648,-71.5624542,91.97121816,-7.6948259399999985,-28.90000152
7.07,707,-0.16899999999999998,-0.907,0.085,0.6302538000000001,-0.4010706,-67.7236356,91.97694774,-7.0244650800000015,-28.877083199999998
7.08,708,-0.146,-0.934,0.08,1.8907613999999997,1.5469866,-64.3431834,91.9884069,-6.382752120000001,-28.83697614
7.09,709,-0.156,-0.953,0.076,2.1772404,2.8074942000000003,-61.1919144,92.00559564,-5.781146219999999,-28.78540992
7.1,710,-0.156,-0.97,0.08,2.6356068,2.578311,-57.06661679999999,92.02278438,-5.2139178,-28.73957328
7.11,711,-0.175,-0.979,0.095,4.8701430000000006,0.9167328,-52.597544400000004,92.08008018,-4.70971476,-28.71092538000001
7.12,712,-0.175,-1.004,0.116,7.8495246,0.7448454000000001,-50.24841660000001,92.15456472,-4.211241299999998,-28.68227748
7.13,713,-0.139,-1.044,0.107,6.3025379999999975,4.1252976000000015,-50.5348956,92.2175901,-3.70703826,-28.6192521
7.14,714,-0.103,-1.067,0.075,3.4377480000000005,7.8495246,-51.4516284,92.24050842,-3.20283522,-28.52184924
7.15,715,-0.081,-1.074,0.049,0.4583664000000001,11.2872726,-51.279741,92.24050842,-2.70436176,-28.38433932
7.16,716,-0.058,-1.061,0.046,-0.6302538000000001,13.464512999999998,-49.7327544,92.2175901,-2.21734746,-28.229640659999994
7.17,717,-0.031,-1.038,0.049,-1.145916,14.667724800000002,-47.0398518,92.20040136,-1.75898106,-28.069212420000003
7.18,718,-0.01,-1.022,0.052000000000000005,0.3437748,15.3552744,-44.1750618,92.19467178,-1.3349921400000002,-27.89732502
7.1899999999999995,719,0.01,-1.028,0.048,1.6042823999999998,15.2979786,-41.825934,92.20613094,-0.92819196,-27.7311672
7.2,720,0.031,-1.032,0.04,1.6615782,13.2353298,-39.820581,92.2175901,-0.53858052,-27.58219812
7.21,721,0.031,-1.03,0.053,2.6929026,9.740286,-38.67466500000001,92.246238,-0.15469866,-27.46760652
7.22,722,0.04,-1.015,0.067,4.297185,7.6203414,-38.27359439999999,92.28634506,0.21199446,-27.375933239999995
7.2299999999999995,723,0.035,-1.002,0.068,5.3858052,6.016058999999999,-38.5027776,92.33791128,0.59014674,-27.301448699999998
7.24,724,0.031,-1.005,0.081,7.1046792000000005,4.6409598,-38.5600734,92.41239582,0.9740286,-27.23842332
7.25,725,0.026,-1.007,0.071,6.8182002000000015,3.380452200000001,-37.52874900000001,92.48115077999998,1.34072172,-27.186857100000005
7.26,726,0.051,-1.02,0.069,7.6776372,3.5523396000000003,-36.38283300000001,92.56136490000002,1.71314442,-27.13529088
7.27,727,0.08800000000000001,-1.034,0.07400000000000001,6.760904399999999,3.6096354,-35.122325399999994,92.63011986,2.05691922,-27.07799508
7.28,728,0.107,-1.018,0.057,4.8128472,2.6929026,-32.486718599999996,92.68168608,2.3777757,-27.037888020000004
7.29,729,0.102,-0.999,0.07400000000000001,5.5576926,2.3491278,-30.65325300000001,92.73898188,2.68144344,-26.99778096
7.3,730,0.099,-0.983,0.116,6.4744254,0.9167328,-29.1062664,92.80200726,2.96792244,-26.96913306
7.31,731,0.08900000000000001,-0.971,0.118,5.844171599999999,0.0,-27.7311672,92.8764918,3.26013102,-26.9576739
7.32,732,0.111,-0.969,0.128,5.72958,0.0,-26.9863218,92.93378759999999,3.5236917,-26.94048516
7.33,733,0.117,-0.977,0.121,3.4377480000000005,-0.3437748,-25.9549974,92.97389466,3.78725238,-26.929026
7.34,734,0.118,-0.986,0.112,2.1199446,-1.2032118,-24.350715,92.99108340000001,4.02789474,-26.929026
7.35,735,0.104,-0.988,0.117,1.8907613999999997,-2.291832,-22.86102420000001,93.01400172,4.25707794,-26.94048516
7.36,736,0.111,-0.997,0.128,3.4950437999999995,-2.5210152000000003,-21.2567418,93.06556794,4.48626114,-26.95194432000001
7.37,737,0.124,-1.009,0.13699999999999998,3.151269,-2.86479,-19.8243468,93.09994542,4.68679644,-26.96913306
7.38,738,0.13699999999999998,-1.008,0.14800000000000002,2.9220857999999996,-3.724227,-18.162768600000003,93.12859332,4.8701430000000006,-26.99778096
7.39,739,0.146,-1.006,0.157,2.1772404,-4.1825934,-16.673077799999998,93.14578206000002,5.03630082,-27.02642886
7.4,740,0.151,-1.012,0.156,1.2605076000000002,-4.9274388,-15.4125702,93.15724122,5.19672906,-27.06653592
7.41,741,0.14300000000000002,-1.02,0.17,0.1718874,-5.958763200000001,-13.8655836,93.19734828,5.3571573,-27.11810214
7.42,742,0.121,-1.016,0.16899999999999998,-0.7448454000000001,-6.6463128000000005,-11.688343199999998,93.18588912,5.48320806,-27.17539794
7.43,743,0.121,-1.013,0.161,-1.3750992,-6.2452422,-9.8548776,93.16870038,5.58061092,-27.23269374
7.4399999999999995,744,0.109,-1.012,0.158,-1.8907613999999997,-5.042030400000002,-8.5370742,93.14578206000002,5.6722842,-27.27853038
7.45,745,0.106,-1.016,0.151,-2.1199446,-2.9793816000000004,-7.448453999999999,93.11713416,5.746768739999999,-27.30717828
7.46,746,0.113,-1.02,0.141,-3.380452200000001,-0.1718874,-6.130650599999999,93.14005248,5.82125328,-27.301448699999998
7.47,747,0.111,-1.016,0.136,-4.1252976000000015,1.432395,-4.2398892,93.09994542,5.861360339999999,-27.28425996
7.4799999999999995,748,0.103,-1.016,0.13699999999999998,-5.1566220000000005,2.3491278,-2.1772404,93.0483792,5.88427866,-27.26134164
7.49,749,0.106,-1.02,0.129,-6.6463128000000005,3.3231564,-0.2291832000000001,92.98535382,5.88427866,-27.22696416
7.5,750,0.119,-1.025,0.136,-7.6203414,3.8388186,1.145916,92.91086928,5.86708992,-27.192586680000005
7.51,751,0.127,-1.011,0.153,-8.193299399999999,3.4377480000000005,2.1772404,92.88222138,5.86708992,-27.1582092
7.52,752,0.14400000000000002,-0.992,0.133,-9.167328,4.5263682,3.2658606,92.7905481,5.8269828599999975,-27.11810214
7.53,753,0.165,-0.966,0.108,-9.6256944,3.724227,4.3544808,92.69314524,5.781146219999999,-27.08372466
7.54,754,0.16899999999999998,-0.958,0.08199999999999999,-9.8548776,-0.286479,6.016058999999999,92.59574238000002,5.72385042,-27.08945424
7.55,755,0.134,-0.968,0.08800000000000001,-7.8495246,-5.958763200000001,7.5057497999999985,92.50979868,5.64936588,-27.15247962
7.56,756,0.097,-0.999,0.08900000000000001,-5.042030400000002,-9.740286,7.448453999999999,92.45823246,5.58061092,-27.25561206
7.57,757,0.066,-1.05,0.078,-4.297185,-9.453807000000001,4.9847345999999995,92.40666624,5.53477428,-27.35301492
7.58,758,0.042,-1.086,0.071,-4.7555514,-8.7662574,2.6356068,92.34937044,5.51185596,-27.43895862
7.59,759,0.034,-1.083,0.069,-6.990087599999999,-8.021412000000002,2.8074942000000003,92.2748859,5.48893764,-27.52490232
7.6,760,0.026,-1.065,0.055,-9.3965112,-7.2765666,5.5576926,92.17175346,5.43737142,-27.59938686
7.61,761,0.011,-1.051,0.037000000000000005,-11.3445684,-5.6722842,8.8235532,92.03997312,5.3285094000000015,-27.65668266
7.62,762,0.003,-1.045,0.033,-12.834259199999998,-3.4377480000000005,11.8029348,91.90819278,5.2139178,-27.69678972
7.63,763,0.009000000000000001,-1.035,0.037000000000000005,-13.9228794,-1.6042823999999998,14.4385416,91.76495328,5.06494872,-27.71970804
7.64,764,0.021,-1.022,0.045,-14.381245800000002,-1.0886202,16.4438946,91.6159842,4.90452048,-27.74262636
7.65,765,0.034,-1.005,0.051,-14.4385416,-1.0886202,17.5325148,91.46701512,4.7269035000000015,-27.7598151
7.66,766,0.039,-0.979,0.055,-14.32395,-1.0886202,17.761698000000006,91.32377562,4.54355694,-27.77700384
7.67,767,0.03,-0.954,0.049,-13.5791046,-0.4010706,17.3606274,91.1862657,4.36593996,-27.788463
7.68,768,0.017,-0.963,0.047,-11.745639,0.6875496,16.4438946,91.06594452,4.20551172,-27.78273342
7.6899999999999995,769,0.008,-0.986,0.04,-10.7143146,2.0053530000000004,15.0114996,90.9570825,4.05081306,-27.76554468
7.7,770,0.011,-1.009,0.045,-9.969469199999999,3.0366774,13.750992000000002,90.85967964,3.91330314,-27.74262636
7.71,771,0.011,-1.031,0.051,-10.026765,3.5523396000000003,12.7769634,90.76227678,3.76433406,-27.70824888000001
7.72,772,0.002,-1.037,0.045,-10.6570188,3.8961144,12.318597,90.65914434,3.6382833,-27.673871400000003
7.7299999999999995,773,-0.005,-1.032,0.036000000000000004,-11.1153852,4.5263682,12.1467096,90.55028232,3.51796212,-27.63376434000001
7.74,774,-0.021,-1.024,0.034,-10.7143146,4.9274388,12.4331886,90.4414203,3.3919113599999995,-27.58219812
7.75,775,-0.031,-1.004,0.028,-10.3705398,5.2712136,13.407217200000002,90.33828786,3.25440144,-27.53636148
7.76,776,-0.027000000000000003,-0.984,0.035,-9.1100322,5.958763200000001,15.0114996,90.25234416,3.07678446,-27.47906568
7.77,777,-0.025,-0.974,0.045,-8.5370742,6.703608600000001,16.386598799999998,90.16640046,2.91635622,-27.41031072
7.78,778,-0.03,-0.976,0.039,-9.1100322,7.3911582,17.589810600000003,90.08045676,2.73873924,-27.34155576
7.79,779,-0.024,-0.985,0.025,-11.0580894,7.161975,18.449247600000003,89.96586515999998,2.5496631,-27.2728008
7.8,780,-0.019,-0.979,0.025,-10.0840608,7.1046792000000005,17.9335854,89.8684623,2.36631654,-27.20404584000001
7.81,781,-0.019,-0.985,0.025,-7.9641161999999985,7.7349330000000025,16.272007199999994,89.78824818,2.18869956,-27.12383172
7.82,782,-0.021,-0.99,0.025,-6.8182002000000015,7.7922288,14.495837400000001,89.72522280000004,2.03973048,-27.04934718
7.83,783,-0.027000000000000003,-0.998,0.021,-6.0733548,7.448453999999999,12.834259199999998,89.66219742,1.90795014,-26.974862640000005
7.84,784,-0.036000000000000004,-1.005,0.011,-5.3858052,6.760904399999999,11.688343199999998,89.6106312,1.7933585399999998,-26.90610768
7.85,785,-0.042,-1.013,0.01,-5.3858052,6.6463128000000005,11.3445684,89.55906498,1.6787669399999998,-26.84308230000001
7.86,786,-0.047,-1.012,0.013,-5.6149884000000005,6.9327918,10.9434978,89.50176918,1.53552744,-26.77432734000001
7.87,787,-0.052000000000000005,-1.005,0.017,-5.3285094000000015,7.161975,10.5424272,89.45020296,1.432395,-26.69984280000001
7.88,788,-0.048,-0.999,0.006999999999999999,-4.8128472,7.1046792000000005,9.8548776,89.39863674,1.32926256,-26.63108784
7.89,789,-0.043,-1.0,0.003,-4.5263682,6.875496000000001,9.2819196,89.3528001,1.23758928,-26.562332880000003
7.9,790,-0.045,-1.0,0.001,-4.1825934,6.4744254,9.167328,89.31269304,1.1459160000000002,-26.4993075
7.91,791,-0.049,-0.996,-0.008,-4.010706000000001,6.3025379999999975,9.0527364,89.26112682,1.01986524,-26.43628212
7.92,792,-0.05,-0.994,-0.013,-3.8961144,5.958763200000001,8.7662574,89.22101975999998,0.93392154,-26.37325674
7.93,793,-0.054000000000000006,-0.991,0.005,-3.0939732,5.042030400000002,8.4224826,89.19237186000002,0.8479778399999999,-26.321690520000004
7.94,794,-0.055,-0.987,0.015,-2.291832,4.6982556,8.021412000000002,89.16945354,0.76776372,-26.27585388
7.95,795,-0.057,-0.988,0.019,-2.2345362,4.3544808,7.6203414,89.14653522,0.6875496,-26.23001724
7.96,796,-0.06,-0.989,0.025,-1.5469866,3.8961144,6.9327918,89.14653522,0.56722842,-26.19563976
7.97,797,-0.066,-0.999,0.023,-1.2605076000000002,3.9534102,6.3598338,89.12934648,0.4984734599999999,-26.1555327
7.9799999999999995,798,-0.071,-1.013,0.011,-2.2345362,4.3544808,6.130650599999999,89.10642816,0.44117766,-26.109696060000005
7.99,799,-0.07400000000000001,-1.019,0.009000000000000001,-2.6929026,4.8128472,5.958763200000001,89.07778026000004,0.37815228,-26.06385942
8.0,800,-0.075,-1.014,0.01,-2.8074942000000003,5.2712136,5.958763200000001,89.04913236,0.32085648,-26.00656362
8.01,801,-0.075,-1.006,0.01,-3.151269,5.443101,5.958763200000001,89.02048446,0.20626488,-25.954997400000003
8.02,802,-0.078,-0.998,0.011,-3.0366774,5.5576926,5.7868758000000025,88.99183656,0.14896908,-25.8977016
8.03,803,-0.08,-0.995,0.008,-2.7501984,5.6149884000000005,5.5003968,88.96318865999999,0.09167328,-25.84040580000001
8.04,804,-0.08,-0.992,0.006,-2.4637194,5.1566220000000005,5.2712136,88.93454076,0.04010706,-25.78883958
8.05,805,-0.077,-0.994,0.008,-1.8907613999999997,4.8701430000000006,5.1566220000000005,88.91735202,-0.00572958,-25.743002940000004
8.06,806,-0.07400000000000001,-0.996,0.012,-1.3178034,4.583664,4.9274388,88.91162244,-0.11459160000000004,-25.69143672
8.07,807,-0.069,-0.999,0.017,-0.9167328,4.297185,4.6409598,88.90589286,-0.16615782,-25.65132966
8.08,808,-0.068,-1.001,0.023,-1.145916,3.9534102,4.1825934,88.88870412,-0.20626488,-25.6112226
8.09,809,-0.073,-1.0,0.026,-0.7448454000000001,3.4950437999999995,3.6669312000000014,88.88297453999998,-0.24064236,-25.57684512
8.1,810,-0.07400000000000001,-1.001,0.025,-0.6875496,3.2085648,3.0939732,88.87724496000001,-0.27501984,-25.54246764
8.11,811,-0.07200000000000001,-1.007,0.025,-0.572958,3.0939732,2.8074942000000003,88.89443370000002,-0.38961144,-25.51381974
8.12,812,-0.069,-1.013,0.016,-1.0886202,3.0939732,2.9793816000000004,88.88297453999998,-0.41825934,-25.47944226
8.13,813,-0.068,-1.013,0.014,-1.6042823999999998,2.6929026,3.0366774,88.8657858,-0.4526368200000001,-25.45652394
8.14,814,-0.065,-1.013,0.01,-1.2605076000000002,2.2345362,2.86479,88.85432664,-0.48128472,-25.43360562
8.15,815,-0.061,-1.012,0.006,-1.2605076000000002,1.8334656000000005,2.5210152000000003,88.8371379,-0.5042030399999999,-25.41068730000001
8.16,816,-0.062,-1.007,0.009000000000000001,-1.0886202,1.3750992,2.2345362,88.84859706,-0.62452422,-25.39922814
8.17,817,-0.064,-1.001,0.013,-0.6875496,1.3750992,2.0053530000000004,88.8371379,-0.64744254,-25.3820394
8.18,818,-0.067,-0.995,0.024,-0.1718874,1.0313244,1.7761698,88.8371379,-0.66463128,-25.37058024
8.19,819,-0.068,-0.992,0.035,0.4010706,0.8594370000000001,1.3178034,88.84286748000002,-0.67609044,-25.36485066
8.2,820,-0.068,-0.999,0.027000000000000003,0.057295800000000015,0.8594370000000001,1.0886202,88.84286748000002,-0.6875496,-25.3533915
8.209999999999999,821,-0.063,-1.007,0.019,-0.7448454000000001,0.572958,0.9167328,88.90589286,-0.8823553199999999,-25.3533915
8.22,822,-0.056,-1.01,0.015,-0.6875496,0.11459160000000004,0.6875496,88.90016328,-0.8880849000000001,-25.34766192
8.23,823,-0.052000000000000005,-1.008,0.016,-0.7448454000000001,-0.4010706,0.286479,88.88870412,-0.89381448,-25.3533915
8.24,824,-0.055,-1.006,0.016,-0.572958,-1.145916,0.0,88.88297453999998,-0.89381448,-25.36485066
8.25,825,-0.057,-1.007,0.013,-0.4010706,-1.4896908000000002,-0.2291832000000001,88.88297453999998,-0.8880849000000001,-25.3820394
8.26,826,-0.056,-1.003,0.019,-0.11459160000000004,-1.6615782,-0.4583664000000001,88.95745908,-1.01986524,-25.40495772
8.27,827,-0.057,-1.0,0.027000000000000003,0.572958,-1.6615782,-0.6875496,88.96318865999999,-1.01413566,-25.41641688
8.28,828,-0.061,-1.001,0.027000000000000003,0.6302538000000001,-1.4896908000000002,-0.9740286,88.96891824000002,-1.0026765,-25.43360562
8.29,829,-0.06,-1.007,0.018000000000000002,0.1718874,-0.9740286,-1.0886202,88.96891824000002,-0.9912173399999998,-25.44506478
8.3,830,-0.057,-1.008,0.016,0.0,-0.6302538000000001,-0.9740286,88.97464782,-0.97975818,-25.45079436
8.31,831,-0.053,-1.005,0.02,0.5156622000000001,-0.286479,-0.9167328,89.03767320000001,-1.08289062,-25.45652394
8.32,832,-0.05,-1.007,0.018000000000000002,0.9167328,-0.572958,-0.9167328,89.04913236,-1.07143146,-25.46225352
8.33,833,-0.052000000000000005,-1.011,0.015,0.9740286,-1.2032118,-1.2032118,89.05486194,-1.0599723,-25.47371268
8.34,834,-0.052000000000000005,-1.015,0.019,0.6875496,-1.432395,-1.5469866,89.06632110000002,-1.04278356,-25.49090142
