TimeStamp(s),FrameCounter,AccX,AccY,AccZ,GyrX,GyrY,GyrZ,EulerX,EulerY,EulerZ
0.01,1,-0.075,-0.998,-0.084,0.8594370000000001,-0.4583664000000001,-0.286479,83.1362058,-3.5580691799999995,-15.452677260000002
0.02,2,-0.079,-0.998,-0.086,0.9740286,-0.11459160000000004,0.0,83.14193537999998,-3.5580691799999995,-15.452677260000002
0.03,3,-0.078,-0.9990000000000001,-0.086,1.0313244000000001,-0.11459160000000004,0.057295800000000015,83.15339454,-3.5580691799999995,-15.45840684
0.04,4,-0.078,-0.997,-0.087,1.0313244000000001,-0.1718874,0.11459160000000004,83.16485370000002,-3.5580691799999995,-15.45840684
0.05,5,-0.078,-0.997,-0.085,1.145916,-0.2291832000000001,0.057295800000000015,83.21069034,-3.60390582,-15.441218099999999
0.060000000000000005,6,-0.077,-0.997,-0.083,1.432395,-0.3437748,0.057295800000000015,83.2221495,-3.60390582,-15.44694768
0.06999999999999999,7,-0.077,-0.9990000000000001,-0.084,1.3750992,-0.1718874,0.0,83.23933824000002,-3.6096354,-15.44694768
0.08,8,-0.075,-1.001,-0.08900000000000001,1.2032118,0.0,0.057295800000000015,83.25079740000002,-3.6096354,-15.44694768
0.09,9,-0.077,-1.003,-0.08900000000000001,1.2032118,-0.2291832000000001,0.11459160000000004,83.26225656,-3.6096354,-15.44694768
0.09999999999999999,10,-0.078,-1.002,-0.084,1.3750992,-0.1718874,0.1718874,83.3080932,-3.65547204,-15.435488519999998
0.11,11,-0.078,-1.001,-0.085,1.2032118,-0.057295800000000015,0.2291832000000001,83.31955236,-3.65547204,-15.435488519999998
0.12,12,-0.076,-1.0,-0.086,0.9740286,-0.11459160000000004,0.2291832000000001,83.33101152,-3.65547204,-15.435488519999998
0.13,13,-0.077,-1.0,-0.086,0.9740286,-0.057295800000000015,0.286479,83.34247067999998,-3.66120162,-15.435488519999998
0.14,14,-0.077,-1.001,-0.086,0.9167328000000001,0.057295800000000015,0.3437748,83.34820026,-3.666931200000001,-15.435488519999998
0.15000000000000002,15,-0.078,-1.0,-0.085,0.8021411999999999,0.286479,0.40107059999999994,83.37684816,-3.6955791,-15.42402936
0.16,16,-0.077,-1.002,-0.086,0.9740286,0.4583664000000001,0.5156622000000001,83.38830732,-3.70130868,-15.418299779999998
0.17,17,-0.079,-1.001,-0.084,0.8594370000000001,0.4583664000000001,0.4583664000000001,83.3940369,-3.70130868,-15.4125702
0.18000000000000002,18,-0.077,-1.001,-0.08199999999999999,0.8594370000000001,0.5156622000000001,0.3437748,83.40549606,-3.70703826,-15.40684062
0.19,19,-0.076,-1.0,-0.081,0.6875496,0.572958,0.3437748,83.41122564,-3.70703826,-15.40111104
0.2,20,-0.07400000000000001,-1.001,-0.083,0.572958,0.5156622000000001,0.40107059999999994,83.43987354000002,-3.73568616,-15.38965188
0.21000000000000002,21,-0.075,-1.0,-0.083,0.5156622000000001,0.40107059999999994,0.4583664000000001,83.44560312,-3.73568616,-15.3839223
0.22,22,-0.075,-1.0,-0.08,0.5156622000000001,0.286479,0.4583664000000001,83.45133270000002,-3.74141574,-15.37819272
0.23,23,-0.076,-0.9990000000000001,-0.08,0.5156622000000001,0.40107059999999994,0.5156622000000001,83.45706228,-3.74714532,-15.37246314
0.24000000000000002,24,-0.076,-0.9990000000000001,-0.079,0.5156622000000001,0.572958,0.4583664000000001,83.45706228,-3.752874900000001,-15.36673356
0.25,25,-0.07400000000000001,-0.9990000000000001,-0.078,0.3437748,0.6302538000000001,0.4583664000000001,83.49716934,-3.77006364,-15.355274400000004
0.26,26,-0.07400000000000001,-0.998,-0.078,0.4583664000000001,0.5156622000000001,0.5156622000000001,83.49716934,-3.77579322,-15.34954482
0.27,27,-0.07200000000000001,-1.0,-0.077,0.5156622000000001,0.286479,0.4583664000000001,83.50289891999998,-3.7815228,-15.34954482
0.28,28,-0.075,-0.9990000000000001,-0.077,0.4583664000000001,0.40107059999999994,0.40107059999999994,83.5086285,-3.7815228,-15.34381524
0.29000000000000004,29,-0.077,-0.9990000000000001,-0.079,0.5156622000000001,0.572958,0.40107059999999994,83.51435808,-3.78725238,-15.33808566
0.3,30,-0.077,-0.9990000000000001,-0.079,0.6302538000000001,0.572958,0.40107059999999994,83.54873556,-3.810170700000002,-15.326626499999998
0.31,31,-0.078,-0.9990000000000001,-0.077,0.6875496,0.4583664000000001,0.4583664000000001,83.55446514,-3.81590028,-15.32089692
0.32,32,-0.077,-0.9990000000000001,-0.079,0.6302538000000001,0.5156622000000001,0.40107059999999994,83.56019472,-3.82162986,-15.31516734
0.33,33,-0.077,-0.9990000000000001,-0.081,0.572958,0.4583664000000001,0.3437748,83.5659243,-3.82162986,-15.30943776
0.34,34,-0.078,-0.9990000000000001,-0.079,0.572958,0.40107059999999994,0.3437748,83.57165388,-3.82735944,-15.303708179999996
0.35000000000000003,35,-0.077,-1.0,-0.079,0.4583664000000001,0.286479,0.286479,83.62322009999998,-3.8674665,-15.28651944
0.36000000000000004,36,-0.076,-1.001,-0.079,0.3437748,0.057295800000000015,0.286479,83.62894968,-3.8674665,-15.28651944
0.37,37,-0.076,-0.9990000000000001,-0.079,0.3437748,-0.1718874,0.2291832000000001,83.62894968,-3.873196080000002,-15.28651944
0.38,38,-0.078,-1.0,-0.079,0.3437748,-0.1718874,0.057295800000000015,83.63467926,-3.873196080000002,-15.29224902
0.39,39,-0.081,-1.001,-0.076,0.1718874,0.0,0.1718874,83.63467926,-3.873196080000002,-15.28651944
0.4,40,-0.08199999999999999,-1.004,-0.076,-0.2291832000000001,0.286479,0.057295800000000015,83.67478632,-3.9190327200000006,-15.2693307
0.41000000000000003,41,-0.081,-1.003,-0.081,-0.8594370000000001,0.11459160000000004,-0.057295800000000015,83.66905674,-3.9190327200000006,-15.2693307
0.42000000000000004,42,-0.078,-1.002,-0.083,-0.8594370000000001,-0.057295800000000015,0.057295800000000015,83.65759758,-3.9190327200000006,-15.2693307
0.43,43,-0.076,-1.004,-0.078,-0.8021411999999999,-0.4583664000000001,-0.057295800000000015,83.65186800000002,-3.9190327200000006,-15.27506028
0.44,44,-0.078,-1.008,-0.076,-0.7448454000000001,-0.40107059999999994,-0.1718874,83.64040884,-3.91330314,-15.28078986
0.45,45,-0.08,-1.008,-0.077,-0.9740286,-0.3437748,-0.286479,83.65759758,-3.93622146,-15.28078986
0.46,46,-0.08,-1.006,-0.077,-1.2605076000000002,-0.4583664000000001,-0.3437748,83.64613842,-3.93049188,-15.28078986
0.47000000000000003,47,-0.081,-1.004,-0.079,-1.432395,-0.5156622000000001,-0.286479,83.62894968,-3.93049188,-15.28651944
0.48000000000000004,48,-0.081,-0.9990000000000001,-0.081,-1.3750992,-0.286479,-0.1718874,83.61749052,-3.93049188,-15.29224902
0.49,49,-0.081,-0.996,-0.079,-1.2605076000000002,-0.2291832000000001,-0.057295800000000015,83.60603136,-3.93049188,-15.2979786
0.5,50,-0.08,-0.993,-0.079,-1.145916,-0.286479,0.11459160000000004,83.61176094,-3.94768062,-15.29224902
0.51,51,-0.081,-0.992,-0.078,-1.3178034,-0.3437748,0.11459160000000004,83.5945722,-3.94768062,-15.2979786
0.52,52,-0.081,-0.992,-0.077,-1.3750992,-0.5156622000000001,0.11459160000000004,83.58311304,-3.9534102,-15.303708179999996
0.53,53,-0.08199999999999999,-0.992,-0.077,-1.3750992,-0.4583664000000001,0.057295800000000015,83.57165388,-3.9534102,-15.30943776
0.54,54,-0.08199999999999999,-0.991,-0.076,-1.2605076000000002,-0.4583664000000001,0.0,83.55446514,-3.9534102,-15.30943776
0.55,55,-0.083,-0.9940000000000001,-0.078,-1.2032118,-0.40107059999999994,0.0,83.5659243,-3.98778768,-15.303708179999996
0.56,56,-0.084,-0.9940000000000001,-0.078,-1.145916,-0.4583664000000001,0.0,83.55446514,-3.98778768,-15.30943776
0.5700000000000001,57,-0.084,-0.996,-0.079,-0.8594370000000001,-0.4583664000000001,0.0,83.54873556,-3.98778768,-15.31516734
0.5800000000000001,58,-0.085,-0.996,-0.076,-0.8594370000000001,-0.286479,0.0,83.53727640000002,-3.98778768,-15.32089692
0.59,59,-0.084,-0.996,-0.078,-0.9740286,-0.2291832000000001,0.0,83.52581724,-3.98778768,-15.32089692
0.6,60,-0.084,-1.0,-0.079,-1.145916,0.057295800000000015,-0.11459160000000004,83.54300598,-4.01643558,-15.30943776
0.61,61,-0.083,-1.002,-0.081,-1.145916,0.1718874,-0.2291832000000001,83.53154682,-4.01643558,-15.30943776
0.62,62,-0.083,-1.004,-0.081,-1.2605076000000002,0.40107059999999994,-0.40107059999999994,83.51435808,-4.010706,-15.303708179999996
0.63,63,-0.083,-1.005,-0.081,-1.2605076000000002,0.6302538000000001,-0.4583664000000001,83.50289891999998,-4.00497642,-15.2979786
0.64,64,-0.079,-1.005,-0.08199999999999999,-1.0886202,0.6875496,-0.5156622000000001,83.49143975999998,-3.99924684,-15.29224902
0.65,65,-0.079,-1.003,-0.083,-1.0886202,0.6875496,-0.5156622000000001,83.49143975999998,-4.00497642,-15.28651944
0.66,66,-0.078,-1.003,-0.081,-1.432395,0.6875496,-0.7448454000000001,83.47425102000003,-3.99351726,-15.28078986
0.67,67,-0.079,-1.003,-0.084,-1.4896908000000002,0.9167328000000001,-0.7448454000000001,83.45706228,-3.98778768,-15.2693307
0.68,68,-0.079,-1.003,-0.086,-1.6615782,1.2032118,-0.8021411999999999,83.43987354000002,-3.97632852,-15.25787154
0.6900000000000001,69,-0.078,-1.001,-0.085,-1.6615782,1.2032118,-0.6875496,83.4226848,-3.97059894,-15.24641238
0.7000000000000001,70,-0.077,-1.001,-0.087,-1.7188740000000002,1.145916,-0.572958,83.40549606,-3.9648693599999993,-15.23495322
0.7100000000000001,71,-0.07400000000000001,-0.9990000000000001,-0.086,-1.8907614,0.9167328000000001,-0.572958,83.38830732,-3.95913978,-15.22922364
0.72,72,-0.07400000000000001,-1.0,-0.086,-2.0053530000000004,0.6875496,-0.6875496,83.36538900000002,-3.9534102,-15.223494059999998
0.73,73,-0.073,-1.0,-0.087,-2.0626488000000003,0.5156622000000001,-0.7448454000000001,83.34247067999998,-3.94195104,-15.21776448
0.74,74,-0.073,-0.9990000000000001,-0.087,-2.2345362,0.6302538000000001,-0.9167328000000001,83.31955236,-3.93622146,-15.212034899999995
0.75,75,-0.07,-1.0,-0.084,-2.2345362,0.6302538000000001,-0.8021411999999999,83.3080932,-3.9190327200000006,-15.212034899999995
0.76,76,-0.066,-0.9990000000000001,-0.081,-2.2345362,0.572958,-0.7448454000000001,83.28517488,-3.91330314,-15.206305319999998
0.77,77,-0.063,-1.001,-0.078,-2.4064236,0.4583664000000001,-0.572958,83.26225656,-3.90757356,-15.20057574
0.78,78,-0.06,-1.0,-0.08,-2.6356068,-0.11459160000000004,-0.6875496,83.23360865999999,-3.90184398,-15.206305319999998
0.79,79,-0.064,-1.001,-0.08199999999999999,-2.7501984,-0.9167328000000001,-0.6875496,83.21069034,-3.896114400000001,-15.212034899999995
0.8,80,-0.068,-1.002,-0.086,-2.7501984,-1.7188740000000002,-0.8021411999999999,83.18777202,-3.89038482,-15.23495322
0.81,81,-0.075,-0.998,-0.084,-2.7501984,-2.8074942000000003,-0.8594370000000001,83.16485370000002,-3.87892566,-15.26360112
0.8200000000000001,82,-0.076,-0.991,-0.07200000000000001,-2.4064236,-3.8961144,-0.6875496,83.14193537999998,-3.87892566,-15.303708179999996
0.8300000000000001,83,-0.07200000000000001,-0.9840000000000001,-0.061,-2.3491277999999998,-5.1566220000000005,-0.3437748,83.11901706,-3.87892566,-15.355274400000004
0.8400000000000001,84,-0.071,-0.978,-0.057,-2.1199446,-6.417129599999999,-0.11459160000000004,83.10182832,-3.88465524,-15.418299779999998
0.85,85,-0.071,-0.98,-0.059000000000000004,-1.8907614,-7.1046792000000005,-0.3437748,83.1075579,-3.89038482,-15.492784320000002
0.86,86,-0.073,-0.9890000000000001,-0.057999999999999996,-1.6042823999999998,-7.161975,-0.8594370000000001,83.09609874,-3.88465524,-15.561539280000002
0.87,87,-0.076,-0.998,-0.06,-1.3178034,-6.875496000000001,-1.4896908000000002,83.08463958,-3.87892566,-15.63602382
0.88,88,-0.081,-1.005,-0.066,-1.2032118,-6.3598338,-1.8907614,83.07891,-3.86173692,-15.6990492
0.89,89,-0.087,-1.01,-0.068,-1.0313244000000001,-5.3858052,-2.1772404,83.07318042,-3.84454818,-15.756345000000001
0.9,90,-0.09300000000000001,-1.011,-0.067,-0.9167328000000001,-4.4690724,-2.1772404,83.08463958,-3.84454818,-15.796452060000002
0.91,91,-0.098,-1.013,-0.07400000000000001,-0.8021411999999999,-3.3231564,-1.9480572,83.07891,-3.82735944,-15.83655912
0.92,92,-0.1,-1.016,-0.083,-1.0886202,-2.291832,-1.7188740000000002,83.07318042,-3.81590028,-15.859477439999996
0.93,93,-0.10099999999999999,-1.0170000000000001,-0.091,-1.432395,-1.4896908000000002,-1.432395,83.05599168,-3.79871154,-15.876666179999996
0.9400000000000001,94,-0.099,-1.0190000000000001,-0.096,-1.4896908000000002,-0.9740286,-1.2032118,83.04453251999998,-3.79298196,-15.888125340000002
0.9500000000000001,95,-0.098,-1.0190000000000001,-0.098,-1.5469866,-0.3437748,-1.145916,83.02734378,-3.82162986,-15.876666179999996
0.9600000000000001,96,-0.096,-1.021,-0.105,-2.0626488000000003,0.286479,-1.0886202,83.00442546000002,-3.810170700000002,-15.876666179999996
0.97,97,-0.092,-1.02,-0.105,-2.7501984,0.9167328000000001,-1.0313244000000001,82.97577756,-3.79871154,-15.8709366
0.98,98,-0.092,-1.014,-0.106,-3.3231564,1.4896908000000002,-0.9740286,82.94140008000002,-3.78725238,-15.85374786
0.99,99,-0.092,-1.0070000000000001,-0.105,-3.2658606,2.5210152000000003,-1.0886202,82.90702259999998,-3.77579322,-15.83082954
1.0,100,-0.091,-1.003,-0.105,-3.1512689999999997,3.3231564,-1.0886202,82.86691554,-3.77579322,-15.796452060000002
1.01,101,-0.087,-0.997,-0.10099999999999999,-3.0366774,3.7815228,-0.8021411999999999,82.83826764,-3.76433406,-15.762074579999998
1.02,102,-0.079,-0.993,-0.09699999999999999,-3.0366774,3.8388186,-0.4583664000000001,82.80389016000002,-3.752874900000001,-15.721967520000002
1.03,103,-0.07200000000000001,-0.992,-0.092,-3.2085647999999996,3.7815228,-0.057295800000000015,82.76378309999998,-3.74714532,-15.68759004
1.04,104,-0.07,-0.995,-0.096,-3.4377480000000005,3.6096353999999997,0.1718874,82.72940562,-3.74714532,-15.647482979999998
1.05,105,-0.073,-0.997,-0.105,-3.4377480000000005,3.5523396000000003,0.2291832000000001,82.68929856,-3.74714532,-15.6131055
1.06,106,-0.077,-0.995,-0.102,-3.3231564,3.6096353999999997,0.2291832000000001,82.65492108,-3.74714532,-15.57872802
1.07,107,-0.081,-0.993,-0.09300000000000001,-3.0366774,3.5523396000000003,0.3437748,82.62054359999998,-3.74714532,-15.53862096
1.08,108,-0.084,-0.992,-0.087,-3.0939732,3.380452200000001,0.572958,82.58616612,-3.752874900000001,-15.50424348
1.09,109,-0.085,-0.991,-0.087,-3.2085647999999996,3.380452200000001,0.572958,82.55178864,-3.752874900000001,-15.47559558
1.1,110,-0.083,-0.992,-0.086,-3.3231564,3.6096353999999997,0.6302538000000001,82.52314074,-3.76433406,-15.435488519999998
1.11,111,-0.08199999999999999,-0.9940000000000001,-0.08800000000000001,-3.3231564,3.8961144,0.6302538000000001,82.48876326,-3.77006364,-15.39538146
1.12,112,-0.08,-0.995,-0.091,-3.5523396000000003,4.010706000000001,0.3437748,82.4486562,-3.77006364,-15.355274400000004
1.1300000000000001,113,-0.07400000000000001,-0.992,-0.091,-3.1512689999999997,3.8961144,0.286479,82.40854913999998,-3.77006364,-15.31516734
1.1400000000000001,114,-0.069,-0.99,-0.09,-2.6929026,3.7242269999999995,0.3437748,82.37990124000002,-3.77006364,-15.28078986
1.1500000000000001,115,-0.067,-0.987,-0.08800000000000001,-2.4637194,3.3231564,0.286479,82.36844208,-3.76433406,-15.24641238
1.1600000000000001,116,-0.065,-0.987,-0.08800000000000001,-2.0626488000000003,2.5783110000000002,0.40107059999999994,82.34552376,-3.77006364,-15.223494059999998
1.17,117,-0.066,-0.988,-0.08900000000000001,-1.6615782,1.8334656000000005,0.2291832000000001,82.32833502,-3.77006364,-15.206305319999998
1.18,118,-0.07,-0.99,-0.09,-1.2605076000000002,1.0886202,0.0,82.31114628,-3.77006364,-15.19484616
1.19,119,-0.075,-0.9940000000000001,-0.091,-1.2605076000000002,0.6302538000000001,-0.2291832000000001,82.29968712,-3.76433406,-15.18911658
1.2,120,-0.079,-0.997,-0.094,-1.2032118,0.4583664000000001,-0.572958,82.32260544,-3.7815228,-15.17765742
1.21,121,-0.077,-0.997,-0.095,-0.8021411999999999,0.1718874,-0.8021411999999999,82.31114628,-3.77006364,-15.17765742
1.22,122,-0.07200000000000001,-0.995,-0.095,-0.572958,-0.11459160000000004,-0.8021411999999999,82.3054167,-3.76433406,-15.183387
1.23,123,-0.067,-0.995,-0.09699999999999999,-0.5156622000000001,-0.5156622000000001,-0.8021411999999999,82.29968712,-3.75860448,-15.18911658
1.24,124,-0.066,-0.997,-0.09699999999999999,-0.4583664000000001,-1.145916,-0.8021411999999999,82.29395754,-3.74714532,-15.20057574
1.25,125,-0.068,-0.998,-0.094,-0.286479,-1.7761698000000001,-0.8021411999999999,82.31687586000002,-3.74141574,-15.223494059999998
1.26,126,-0.068,-0.998,-0.094,-0.40107059999999994,-2.0626488000000003,-0.6302538000000001,82.31687586000002,-3.73568616,-15.24641238
1.27,127,-0.069,-1.0,-0.08800000000000001,-0.4583664000000001,-2.3491277999999998,-0.4583664000000001,82.31114628,-3.73568616,-15.2693307
1.28,128,-0.068,-1.004,-0.08199999999999999,-0.7448454000000001,-2.86479,0.0,82.3054167,-3.73568616,-15.2979786
1.29,129,-0.069,-1.0070000000000001,-0.076,-1.432395,-3.0939732,0.5156622000000001,82.29395754,-3.74714532,-15.326626499999998
1.3,130,-0.067,-1.013,-0.087,-2.5210152000000003,-3.2658606,0.8594370000000001,82.28822796,-3.752874900000001,-15.36100398
1.31,131,-0.067,-1.023,-0.1,-3.7242269999999995,-3.6096353999999997,1.3178034,82.2481209,-3.77006364,-15.39538146
1.32,132,-0.068,-1.0290000000000001,-0.107,-4.4690724,-4.583664,1.8907614,82.20801384,-3.79871154,-15.441218099999999
1.33,133,-0.071,-1.0270000000000001,-0.10300000000000001,-4.4690724,-4.7555514,1.9480572,82.16790678,-3.82162986,-15.48705474
1.34,134,-0.078,-1.0190000000000001,-0.098,-4.7555514,-5.042030400000002,1.7761698000000001,82.12207014,-3.84454818,-15.53289138
1.35,135,-0.087,-1.012,-0.098,-4.8701430000000006,-4.6982555999999995,1.432395,82.08196308000002,-3.873196080000002,-15.57299844
1.36,136,-0.094,-1.001,-0.095,-4.9847346,-3.6669312000000014,0.8594370000000001,82.03612644,-3.89038482,-15.6131055
1.37,137,-0.09699999999999999,-0.997,-0.095,-4.8701430000000006,-2.4637194,0.4583664000000001,81.9902898,-3.896114400000001,-15.63602382
1.3800000000000001,138,-0.095,-0.996,-0.099,-4.8128472,-1.5469866,0.11459160000000004,81.93872358,-3.90184398,-15.65321256
1.3900000000000001,139,-0.087,-0.992,-0.102,-4.2398892,-0.9167328000000001,-0.2291832000000001,81.89861652,-3.896114400000001,-15.66467172
1.4000000000000001,140,-0.078,-0.991,-0.10800000000000001,-3.8388186,-0.5156622000000001,-0.3437748,81.86996862,-3.90184398,-15.6704013
1.4100000000000001,141,-0.071,-0.988,-0.107,-3.5523396000000003,0.0,-0.6875496,81.82986156,-3.896114400000001,-15.6704013
1.42,142,-0.066,-0.983,-0.098,-3.0939732,0.40107059999999994,-0.572958,81.80121366,-3.88465524,-15.66467172
1.43,143,-0.065,-0.975,-0.096,-2.7501984,0.6875496,-0.286479,81.77256575999998,-3.88465524,-15.65894214
1.44,144,-0.063,-0.972,-0.095,-1.8334656000000005,0.40107059999999994,0.0,81.75537702,-3.88465524,-15.65894214
1.45,145,-0.066,-0.975,-0.09300000000000001,-1.2605076000000002,-0.3437748,0.0,81.7897545,-3.87892566,-15.66467172
1.46,146,-0.069,-0.9790000000000001,-0.092,-1.2032118,-0.6302538000000001,-0.1718874,81.77829534,-3.873196080000002,-15.676130880000002
1.47,147,-0.079,-0.981,-0.092,-0.9167328000000001,-0.6875496,-0.4583664000000001,81.76683618000001,-3.873196080000002,-15.68186046
1.48,148,-0.087,-0.983,-0.094,-0.5156622000000001,-0.7448454000000001,-0.8021411999999999,81.76683618000001,-3.86173692,-15.69331962
1.49,149,-0.094,-0.988,-0.09699999999999999,-0.6302538000000001,-0.8021411999999999,-0.9740286,81.76110659999998,-3.85600734,-15.6990492
1.5,150,-0.098,-0.991,-0.09699999999999999,-0.40107059999999994,-0.572958,-0.9167328000000001,81.81267282,-3.9247623,-15.68759004
1.51,151,-0.096,-0.993,-0.098,-0.3437748,0.0,-0.572958,81.80694324,-3.9190327200000006,-15.68759004
1.52,152,-0.092,-0.997,-0.099,-0.40107059999999994,0.057295800000000015,0.1718874,81.80694324,-3.9190327200000006,-15.68759004
1.53,153,-0.087,-1.002,-0.106,-0.5156622000000001,-0.7448454000000001,0.8021411999999999,81.80121366,-3.93049188,-15.69331962
1.54,154,-0.08900000000000001,-1.0070000000000001,-0.11199999999999999,-0.8021411999999999,-1.9480572,1.2605076000000002,81.79548408,-3.94195104,-15.71050836
1.55,155,-0.096,-1.0090000000000001,-0.107,-0.6302538000000001,-2.4637194,1.3750992,81.80694324,-3.98778768,-15.727697099999999
1.56,156,-0.10300000000000001,-1.012,-0.10300000000000001,-0.9167328000000001,-2.3491277999999998,1.3750992,81.79548408,-4.00497642,-15.75061542
1.57,157,-0.105,-1.01,-0.098,-1.3178034,-1.6615782,1.6615782,81.78402492,-4.022165159999999,-15.762074579999998
1.58,158,-0.102,-1.011,-0.095,-2.0626488000000003,-1.145916,2.1199446,81.76110659999998,-4.04508348,-15.77353374
1.59,159,-0.096,-1.015,-0.098,-3.0939732,-0.9167328000000001,2.4064236,81.73245870000002,-4.0680017999999984,-15.779263320000002
1.6,160,-0.08800000000000001,-1.026,-0.10300000000000001,-4.1825934,-0.5156622000000001,2.8074942000000003,81.69808122,-4.102379279999999,-15.779263320000002
1.61,161,-0.09,-1.033,-0.114,-5.6149884000000005,-0.1718874,2.86479,81.64078542,-4.13675676,-15.779263320000002
1.62,162,-0.098,-1.037,-0.121,-6.4744254,0.1718874,2.9793816000000004,81.57776004,-4.16540466,-15.77353374
1.6300000000000001,163,-0.10800000000000001,-1.03,-0.125,-6.6463128000000005,0.7448454000000001,3.0366774,81.50900508000002,-4.19405256,-15.762074579999998
1.6400000000000001,164,-0.113,-1.016,-0.125,-6.875496000000001,1.8334656000000005,2.86479,81.43452054,-4.22270046,-15.739156259999998
1.6500000000000001,165,-0.114,-1.003,-0.12300000000000001,-7.0473834,3.0366774,3.0366774,81.360036,-4.26280752,-15.704778780000002
1.6600000000000001,166,-0.106,-0.992,-0.11800000000000001,-6.9327918,3.8388186,3.0939732,81.28555146,-4.28572584,-15.65894214
1.6700000000000002,167,-0.095,-0.98,-0.113,-6.703608600000001,4.2398892,2.9793816000000004,81.21679650000002,-4.31437374,-15.6131055
1.68,168,-0.078,-0.971,-0.113,-5.958763200000001,4.1252976000000015,2.3491277999999998,81.14804154,-4.3315624800000005,-15.57299844
1.69,169,-0.067,-0.966,-0.11599999999999999,-5.2139178,2.8074942000000003,1.5469866,81.09647532,-4.34302164,-15.53862096
1.7,170,-0.064,-0.9640000000000001,-0.11,-4.1825934,1.6042823999999998,0.6875496,81.06782741999999,-4.33729206,-15.527161799999998
1.71,171,-0.064,-0.9620000000000001,-0.10300000000000001,-3.0939732,0.8594370000000001,-0.286479,81.03344994,-4.3315624800000005,-15.52143222
1.72,172,-0.069,-0.965,-0.098,-2.5210152000000003,0.8594370000000001,-1.2605076000000002,81.00480204,-4.3201033199999985,-15.51570264
1.73,173,-0.075,-0.9690000000000001,-0.09,-1.9480572,1.2032118,-2.1199446,80.98761329999998,-4.297185000000002,-15.50424348
1.74,174,-0.076,-0.972,-0.094,-1.6615782,1.4896908000000002,-2.6356068,80.96469498,-4.2685371,-15.498513899999999
1.75,175,-0.07200000000000001,-0.975,-0.09699999999999999,-1.6615782,1.4896908000000002,-2.7501984,80.97615413999998,-4.23415962,-15.48705474
1.76,176,-0.068,-0.981,-0.10400000000000001,-1.6042823999999998,1.2032118,-2.3491277999999998,80.95896540000003,-4.211241299999998,-15.48132516
1.77,177,-0.068,-0.987,-0.11199999999999999,-1.6042823999999998,0.2291832000000001,-1.7188740000000002,80.94177666,-4.19405256,-15.48132516
1.78,178,-0.075,-0.9890000000000001,-0.114,-1.2605076000000002,-0.8594370000000001,-1.3178034,80.9303175,-4.1825934,-15.492784320000002
1.79,179,-0.08900000000000001,-0.992,-0.114,-1.0886202,-1.6615782,-1.432395,80.91885834,-4.17113424,-15.509973059999998
1.8,180,-0.102,-0.993,-0.114,-0.9167328000000001,-1.6042823999999998,-1.8334656000000005,80.9303175,-4.1883229800000015,-15.52143222
1.81,181,-0.109,-0.997,-0.11900000000000001,-0.9167328000000001,-1.3178034,-2.2345362,80.92458792,-4.16540466,-15.53862096
1.82,182,-0.109,-0.997,-0.12300000000000001,-0.8594370000000001,-1.0886202,-2.4064236,80.91312875999998,-4.14248634,-15.555809699999998
1.83,183,-0.10400000000000001,-0.9990000000000001,-0.11900000000000001,-0.7448454000000001,-0.6875496,-2.3491277999999998,80.90739918,-4.11956802,-15.567268860000002
1.84,184,-0.099,-1.001,-0.122,-0.9167328000000001,-0.572958,-1.9480572,80.90166959999998,-4.102379279999999,-15.57299844
1.85,185,-0.094,-1.003,-0.125,-1.2605076000000002,-0.6875496,-1.145916,80.90166959999998,-4.11956802,-15.57872802
1.86,186,-0.096,-1.008,-0.127,-1.6042823999999998,-0.9740286,-0.6875496,80.88448086000002,-4.11383844,-15.59018718
1.87,187,-0.102,-1.008,-0.13,-1.7761698000000001,-0.8594370000000001,-0.3437748,80.86729212,-4.10810886,-15.59591676
1.8800000000000001,188,-0.106,-1.01,-0.132,-2.0053530000000004,-0.6302538000000001,-0.11459160000000004,80.8443738,-4.10810886,-15.60737592
1.8900000000000001,189,-0.106,-1.01,-0.133,-2.5210152000000003,-0.286479,-0.057295800000000015,80.82145548,-4.10810886,-15.60737592
1.9000000000000001,190,-0.102,-1.008,-0.132,-2.8074942000000003,0.0,-0.1718874,80.80426674,-4.14248634,-15.59591676
1.9100000000000001,191,-0.098,-1.003,-0.135,-3.2085647999999996,0.057295800000000015,-0.40107059999999994,80.76988926,-4.14248634,-15.59591676
1.9200000000000002,192,-0.095,-1.001,-0.135,-3.5523396000000003,0.286479,-0.4583664000000001,80.7297822,-4.13675676,-15.59591676
1.93,193,-0.092,-0.998,-0.132,-3.7815228,0.40107059999999994,-0.6302538000000001,80.69540472,-4.1310271799999985,-15.59591676
1.94,194,-0.08900000000000001,-0.996,-0.13,-3.9534102,0.40107059999999994,-0.5156622000000001,80.64956808000002,-4.1252976000000015,-15.59018718
1.95,195,-0.08800000000000001,-0.993,-0.127,-4.3544808,0.2291832000000001,-0.40107059999999994,80.62092018,-4.1310271799999985,-15.584457600000002
1.96,196,-0.08900000000000001,-0.992,-0.126,-4.4690724,0.0,-0.4583664000000001,80.57508354000002,-4.1310271799999985,-15.59018718
1.97,197,-0.087,-0.9940000000000001,-0.125,-4.4690724,-0.11459160000000004,-0.572958,80.5292469,-4.1252976000000015,-15.59018718
1.98,198,-0.087,-0.9890000000000001,-0.12300000000000001,-4.4690724,-0.2291832000000001,-0.6875496,80.48341026,-4.11956802,-15.59591676
1.99,199,-0.086,-0.9890000000000001,-0.121,-4.5263682,-0.286479,-0.8021411999999999,80.43757362,-4.10810886,-15.60164634
2.0,200,-0.085,-0.987,-0.11900000000000001,-4.583664,-0.286479,-0.8594370000000001,80.40892572,-4.11383844,-15.60164634
2.01,201,-0.086,-0.9840000000000001,-0.11800000000000001,-4.4690724,-0.2291832000000001,-0.9167328000000001,80.36308908,-4.102379279999999,-15.60737592
2.02,202,-0.086,-0.9840000000000001,-0.11900000000000001,-4.297185,-0.1718874,-0.9740286,80.32298202,-4.0966497,-15.6131055
2.03,203,-0.086,-0.9840000000000001,-0.11599999999999999,-4.1252976000000015,-0.11459160000000004,-0.9167328000000001,80.27714538,-4.08519054,-15.61883508
2.04,204,-0.086,-0.987,-0.115,-3.8388186,-0.11459160000000004,-1.0886202,80.2427679,-4.07373138,-15.61883508
2.05,205,-0.086,-0.99,-0.115,-3.8388186,-0.11459160000000004,-1.145916,80.23130874,-4.0794609600000005,-15.62456466
2.0599999999999996,206,-0.08800000000000001,-0.9940000000000001,-0.11599999999999999,-3.7242269999999995,-0.057295800000000015,-1.2032118,80.19120168,-4.0680017999999984,-15.62456466
2.07,207,-0.08800000000000001,-0.996,-0.115,-3.7815228,0.0,-1.4896908000000002,80.15109462000002,-4.05081306,-15.63029424
2.0799999999999996,208,-0.08900000000000001,-0.997,-0.11599999999999999,-3.9534102,0.057295800000000015,-1.7188740000000002,80.11098756,-4.03362432,-15.63029424
2.09,209,-0.09,-0.995,-0.115,-3.6096353999999997,0.40107059999999994,-1.9480572,80.07661008,-4.01643558,-15.63029424
2.0999999999999996,210,-0.08900000000000001,-0.995,-0.114,-3.6669312000000014,0.7448454000000001,-2.1199446,80.06515092,-4.00497642,-15.62456466
2.11,211,-0.08900000000000001,-0.996,-0.115,-3.7242269999999995,0.9167328000000001,-2.1772404,80.02504386000003,-3.9820581,-15.61883508
2.1199999999999997,212,-0.09,-0.998,-0.11699999999999999,-3.8961144,0.8594370000000001,-2.1772404,79.9849368,-3.95913978,-15.61883508
2.13,213,-0.08800000000000001,-0.9990000000000001,-0.11599999999999999,-4.1252976000000015,0.6875496,-2.2345362,79.93910016,-3.93622146,-15.6131055
2.1399999999999997,214,-0.09,-1.0,-0.11599999999999999,-4.1825934,0.9167328000000001,-2.1772404,79.89899310000001,-3.91330314,-15.60737592
2.15,215,-0.08900000000000001,-1.001,-0.11800000000000001,-4.5263682,1.2605076000000002,-2.291832,79.8703452,-3.90184398,-15.60164634
2.1599999999999997,216,-0.08800000000000001,-1.005,-0.11900000000000001,-4.8701430000000006,1.3750992,-2.291832,79.81877897999998,-3.87892566,-15.59018718
2.17,217,-0.086,-1.008,-0.12,-5.5576926,1.2605076000000002,-2.5210152000000003,79.76148318,-3.85027776,-15.584457600000002
2.1799999999999997,218,-0.08900000000000001,-1.008,-0.12300000000000001,-6.0733548,1.2032118,-2.4637194,79.6984578,-3.82735944,-15.57299844
2.19,219,-0.09,-1.006,-0.128,-6.6463128000000005,1.3750992,-2.5210152000000003,79.63543242,-3.79871154,-15.567268860000002
2.1999999999999997,220,-0.08900000000000001,-1.008,-0.131,-6.990087599999999,1.9480572,-2.5210152000000003,79.57240704,-3.7815228,-15.55008012
2.21,221,-0.08900000000000001,-1.0090000000000001,-0.133,-7.5057497999999985,2.4637194,-2.4064236,79.49219292000002,-3.752874900000001,-15.53289138
2.2199999999999998,222,-0.086,-1.01,-0.133,-7.906820400000001,2.8074942000000003,-2.3491277999999998,79.4119788,-3.7242269999999995,-15.509973059999998
2.23,223,-0.084,-1.0070000000000001,-0.13,-8.3651868,2.86479,-2.0626488000000003,79.32603509999998,-3.70130868,-15.48705474
2.2399999999999998,224,-0.081,-1.003,-0.126,-8.8235532,3.0366774,-1.8907614,79.23436182,-3.67839036,-15.45840684
2.25,225,-0.079,-1.002,-0.128,-9.9121734,3.1512689999999997,-1.8907614,79.14268854000002,-3.66120162,-15.435488519999998
2.26,226,-0.078,-1.002,-0.13,-10.657018800000001,3.2085647999999996,-2.0053530000000004,79.02809694,-3.6382833,-15.40684062
2.27,227,-0.079,-1.0070000000000001,-0.132,-11.5737516,3.1512689999999997,-2.2345362,78.90777576,-3.6096354,-15.3839223
2.28,228,-0.078,-1.012,-0.125,-12.9488508,3.0366774,-2.3491277999999998,78.77599542,-3.58671708,-15.355274400000004
2.29,229,-0.079,-1.0090000000000001,-0.127,-13.178034,3.0939732,-2.4064236,78.6384855,-3.5580691799999995,-15.33235608
2.3,230,-0.08,-1.002,-0.125,-12.032118,3.3231564,-2.6929026,78.52962348,-3.52942128,-15.30943776
2.31,231,-0.08,-1.004,-0.11900000000000001,-11.2299768,3.7815228,-3.2085647999999996,78.41503188,-3.4950437999999995,-15.27506028
2.32,232,-0.075,-1.011,-0.126,-12.7196676,4.1252976000000015,-3.7815228,78.28325154000002,-3.4492071599999994,-15.24641238
2.3299999999999996,233,-0.067,-1.0170000000000001,-0.138,-14.8396122,3.7815228,-4.2398892,78.12855288,-3.40337052,-15.21776448
2.34,234,-0.064,-1.0190000000000001,-0.142,-15.6417534,3.4377480000000005,-4.583664,77.96812464000001,-3.35753388,-15.19484616
2.3499999999999996,235,-0.063,-1.02,-0.13699999999999998,-16.558486199999994,3.4950437999999995,-4.7555514,77.8076964,-3.3059676599999994,-15.17192784
2.36,236,-0.064,-1.021,-0.139,-17.8762896,2.9793816000000004,-4.7555514,77.62434984000002,-3.25440144,-15.1547391
2.3699999999999997,237,-0.07,-1.016,-0.141,-18.5638392,2.1199446,-4.583664,77.43527370000002,-3.2085648000000004,-15.149009520000002
2.38,238,-0.071,-1.0090000000000001,-0.14300000000000002,-19.136797199999997,1.3750992,-4.4690724,77.24046797999998,-3.1627281600000003,-15.14327994
2.3899999999999997,239,-0.077,-1.011,-0.149,-19.480572,0.40107059999999994,-4.583664,77.04566226,-3.1226211000000004,-15.1547391
2.4,240,-0.08199999999999999,-1.0190000000000001,-0.158,-19.8243468,0.11459160000000004,-5.2139178,76.85658612,-3.07678446,-15.166198259999998
2.4099999999999997,241,-0.081,-1.023,-0.151,-19.652459399999998,0.0,-5.6722842,76.65605081999998,-3.02521824,-15.17765742
2.42,242,-0.08199999999999999,-1.021,-0.155,-19.595163600000006,-0.11459160000000004,-5.72958,76.45551551999998,-2.96792244,-15.19484616
2.4299999999999997,243,-0.08,-1.015,-0.158,-20.2827132,0.286479,-5.844171599999999,76.24925064,-2.91635622,-15.206305319999998
2.44,244,-0.077,-1.0070000000000001,-0.152,-20.9702628,0.40107059999999994,-5.6149884000000005,76.03725618000001,-2.86479,-15.21776448
2.4499999999999997,245,-0.069,-1.001,-0.16,-22.631841,0.7448454000000001,-5.0993262,75.81953214,-2.81322378,-15.223494059999998
2.46,246,-0.063,-0.998,-0.17300000000000001,-24.522602399999997,1.2032118,-4.3544808,75.56743062000002,-2.77311672,-15.223494059999998
2.4699999999999998,247,-0.061,-0.99,-0.175,-25.668518399999996,0.9167328000000001,-3.7815228,75.30959952,-2.73873924,-15.22922364
2.48,248,-0.066,-0.98,-0.175,-26.814434400000003,0.8021411999999999,-3.8388186,75.03457968000002,-2.69863218,-15.23495322
2.4899999999999998,249,-0.07,-0.98,-0.179,-28.2468294,0.8021411999999999,-4.1252976000000015,74.74810068,-2.6642547000000003,-15.240682800000002
2.5,250,-0.07,-0.983,-0.183,-28.7051958,0.7448454000000001,-3.8961144,74.46735126,-2.62987722,-15.24641238
2.51,251,-0.07400000000000001,-0.987,-0.183,-28.762491600000004,1.145916,-3.5523396000000003,74.17514268,-2.59549974,-15.24641238
2.52,252,-0.076,-0.988,-0.184,-29.9084076,1.6042823999999998,-3.1512689999999997,73.87147494000001,-2.56685184,-15.240682800000002
2.53,253,-0.083,-0.986,-0.191,-31.111619399999995,1.6615782,-2.7501984,73.55634804,-2.53820394,-15.23495322
2.54,254,-0.084,-0.991,-0.19899999999999998,-31.9710564,2.4064236,-2.3491277999999998,73.22976198,-2.50955604,-15.21776448
2.55,255,-0.08900000000000001,-0.998,-0.20800000000000002,-33.002380800000005,3.2085647999999996,-1.9480572,72.90317592,-2.4923672999999997,-15.19484616
2.56,256,-0.091,-1.005,-0.21100000000000002,-33.9764094,3.6669312000000014,-1.6615782,72.55367154000002,-2.47517856,-15.17192784
2.57,257,-0.08800000000000001,-1.006,-0.209,-34.7212548,4.7555514,-1.6042823999999998,72.19843758,-2.44653066,-15.131820780000002
2.5799999999999996,258,-0.087,-1.005,-0.214,-35.7525792,6.0160589999999985,-1.7761698000000001,71.83174446000002,-2.41788276,-15.08025456
2.59,259,-0.084,-1.006,-0.21899999999999997,-37.24227,6.9327918,-1.8907614,71.45359218,-2.38350528,-15.028688340000002
2.5999999999999996,260,-0.085,-1.0090000000000001,-0.221,-38.61736920000001,7.5057497999999985,-2.1199446,71.06971032,-2.3491278,-14.96566296
2.61,261,-0.08,-1.012,-0.228,-40.2216516,8.078707799999998,-2.4064236,70.65718056,-2.30902074,-14.896907999999998
2.6199999999999997,262,-0.076,-1.011,-0.23399999999999999,-42.05511720000001,8.4224826,-2.5783110000000002,70.22173248,-2.2631841,-14.83388262
2.63,263,-0.07400000000000001,-1.01,-0.245,-43.65939960000001,8.5370742,-2.86479,69.77482524000001,-2.21161788,-14.76512766
2.6399999999999997,264,-0.07200000000000001,-1.0070000000000001,-0.252,-45.034498799999994,9.1100322,-3.3231564,69.31645884000001,-2.16005166,-14.696372699999998
2.65,265,-0.07200000000000001,-1.0,-0.253,-46.3523022,9.453807,-3.6669312000000014,68.84663328,-2.10275586,-14.62188816
2.6599999999999997,266,-0.073,-0.9940000000000001,-0.258,-47.7274014,9.682990199999999,-4.1252976000000015,68.35961898,-2.0340009,-14.5531332
2.67,267,-0.068,-0.992,-0.258,-49.560867,10.2559482,-4.4117766,67.85541594,-1.96524594,-14.47291908
2.6799999999999997,268,-0.063,-0.9890000000000001,-0.255,-51.10785360000001,11.2299768,-4.8128472,67.32829458,-1.8907614,-14.39270496
2.69,269,-0.053,-0.9890000000000001,-0.264,-52.6548402,11.802934800000001,-5.2139178,66.78971406,-1.8048177,-14.306761259999998
2.6999999999999997,270,-0.042,-0.985,-0.27899999999999997,-54.14453099999999,11.5164558,-5.5576926,66.24540396,-1.7188740000000002,-14.22654714
2.71,271,-0.03,-0.9790000000000001,-0.295,-55.6342218,10.599723,-5.6722842,65.67817554,-1.6329303,-14.15779218
2.7199999999999998,272,-0.025,-0.978,-0.304,-57.123912600000004,9.6256944,-5.6722842,65.09375838000001,-1.5527161800000002,-14.10049638
2.73,273,-0.028999999999999998,-0.971,-0.309,-58.2125328,8.3651868,-5.844171599999999,64.49788206,-1.47250206,-14.04893016
2.7399999999999998,274,-0.035,-0.961,-0.305,-59.1292656,8.193299399999999,-5.9014674000000005,63.89627615999999,-1.39228794,-14.008823099999995
2.75,275,-0.040999999999999995,-0.951,-0.312,-60.733548000000006,7.6776372,-6.0733548,63.28894068,-1.31207382,-13.96871604
2.76,276,-0.046,-0.938,-0.31,-62.3378304,7.2192707999999985,-6.2452422,62.6529573,-1.23758928,-13.93433856
2.77,277,-0.042,-0.9420000000000001,-0.32299999999999995,-64.17129600000001,7.2192707999999985,-6.589017,61.99978518,-1.15164558,-13.90569066
2.78,278,-0.032,-0.941,-0.34299999999999997,-66.23394479999999,6.5317212,-6.9327918,61.32369473999999,-1.07143146,-13.88277234
2.79,279,-0.024,-0.938,-0.354,-67.036086,5.443101,-7.448453999999999,60.64187472,-0.9912173399999998,-13.87704276
2.8,280,-0.018000000000000002,-0.9279999999999999,-0.36,-67.7809314,3.380452200000001,-7.6203414,59.96578428,-0.9167328,-13.88850192
2.81,281,-0.027999999999999997,-0.912,-0.348,-68.182002,2.0626488000000003,-7.906820400000001,59.2725051,-0.8479778399999999,-13.91714982
2.82,282,-0.019,-0.9229999999999999,-0.359,-69.8435802,2.6356068,-8.4224826,58.56203718,-0.7734933,-13.94006814
2.8299999999999996,283,-0.013999999999999999,-0.922,-0.386,-70.30194660000001,3.0939732,-8.4224826,57.85156926,-0.69327918,-13.95725688
2.84,284,-0.001,-0.929,-0.39899999999999997,-71.04679200000002,3.6096353999999997,-7.6776372,57.12964218,-0.61879464,-13.97444562
2.8499999999999996,285,0.013999999999999999,-0.95,-0.42100000000000004,-72.479187,3.8388186,-7.1046792000000005,56.40198552,-0.55003968,-13.985904779999998
2.86,286,0.016,-0.955,-0.44799999999999995,-72.70837019999998,2.4637194,-6.0733548,55.6628697,-0.49274388,-14.003093519999998
2.8699999999999997,287,0.003,-0.951,-0.46799999999999997,-72.76566600000002,1.0313244000000001,-5.042030400000002,54.92375388000001,-0.4583664000000001,-14.02601184
2.88,288,-0.006999999999999999,-0.9620000000000001,-0.505,-74.0834694,0.1718874,-4.3544808,54.173178899999996,-0.4297185000000001,-14.04893016
2.8899999999999997,289,-0.018000000000000002,-0.976,-0.5479999999999999,-73.79699040000001,-0.40107059999999994,-3.8961144,53.42260391999999,-0.41252976,-14.07757806
2.9,290,-0.006999999999999999,-0.993,-0.604,-74.2553568,-0.9167328000000001,-2.9793816000000004,52.67202894,-0.4010706000000001,-14.10622596
2.9099999999999997,291,0.006,-0.998,-0.624,-73.5678072,-0.286479,-2.8074942000000003,51.92718354,-0.38961144,-14.12914428
2.92,292,0.005,-1.0170000000000001,-0.66,-74.9429064,-0.6875496,-2.2345362,51.1651494,-0.38961144,-14.152062600000002
2.9299999999999997,293,-0.016,-1.012,-0.675,-75.2866812,-0.40107059999999994,-1.7188740000000002,50.40311526000001,-0.38961144,-14.16925134
2.94,294,-0.047,-1.016,-0.6940000000000001,-75.916935,-0.572958,-2.1199446,49.63535154,-0.38388186,-14.19216966
2.9499999999999997,295,-0.045,-1.005,-0.716,-75.74504759999998,-0.9740286,-3.380452200000001,48.86758782,-0.37815228,-14.22654714
2.96,296,-0.034,-1.008,-0.738,-76.1461182,-1.5469866,-5.3285094000000015,48.09409452,-0.35523396,-14.272383780000002
2.9699999999999998,297,-0.01,-1.03,-0.7659999999999999,-76.77637200000002,-2.1772404,-7.161975,47.31487163999999,-0.32658606,-14.34113874
2.98,298,-0.006,-1.024,-0.787,-76.60448459999998,-3.4950437999999995,-7.7922288,46.54137834,-0.30366774,-14.42135286
2.9899999999999998,299,-0.006,-0.997,-0.7859999999999999,-75.68775179999999,-4.2398892,-8.880849000000003,45.77361462,-0.28074942,-14.518755719999998
3.0,300,-0.017,-0.961,-0.789,-75.1147938,-3.7815228,-10.2559482,45.01158048,-0.24637194,-14.61615858
3.01,301,-0.019,-0.935,-0.7929999999999999,-74.02617359999998,-2.4637194,-10.7716104,44.2610055,-0.19480572,-14.71356144
3.02,302,-0.016,-0.92,-0.792,-71.90622900000002,-1.7761698000000001,-10.084060800000001,43.53334884,-0.14896908,-14.799505140000004
3.03,303,-0.005,-0.889,-0.789,-69.9581718,-1.3750992,-9.0527364,42.82288092,-0.10886202,-14.87398968
3.04,304,-0.002,-0.8390000000000001,-0.792,-66.5777196,-0.5156622000000001,-8.59437,42.14679048,-0.06302537999999999,-14.94274464
3.05,305,-0.013999999999999999,-0.821,-0.7979999999999999,-63.4264506,-0.2291832000000001,-8.9381448,41.50507752,-0.01145916,-15.011499600000002
3.06,306,-0.036000000000000004,-0.82,-0.802,-60.6189564,-0.4583664000000001,-9.3392154,40.89201246,0.028647900000000007,-15.08598414
3.07,307,-0.055999999999999994,-0.825,-0.804,-57.8114622,-0.11459160000000004,-9.396511199999999,40.30186572,0.08021412,-15.16046868
3.08,308,-0.061,-0.8240000000000001,-0.802,-55.2331512,0.9167328000000001,-9.1100322,39.74036688,0.13750992,-15.223494059999998
3.09,309,-0.053,-0.805,-0.8029999999999999,-52.54024860000001,1.4896908000000002,-8.7662574,39.20751594,0.20053530000000008,-15.28078986
3.0999999999999996,310,-0.042,-0.7829999999999999,-0.799,-49.388979600000006,1.2032118,-7.9641161999999985,38.71477206,0.24637194,-15.33235608
3.11,311,-0.037000000000000005,-0.76,-0.7959999999999999,-46.3523022,0.6302538000000001,-7.1046792000000005,38.24494650000001,0.29220857999999994,-15.3839223
3.1199999999999997,312,-0.047,-0.735,-0.794,-42.742666799999995,0.1718874,-5.72958,37.80949842,0.32085648,-15.42975894
3.13,313,-0.06,-0.7140000000000001,-0.782,-39.247623,0.286479,-4.9847346,37.40842782,0.34950438,-15.469866
3.1399999999999997,314,-0.066,-0.6970000000000001,-0.779,-35.9244666,1.3750992,-4.297185,37.0417347,0.37815228,-15.492784320000002
3.15,315,-0.068,-0.69,-0.765,-32.372127,2.8074942000000003,-3.4377480000000005,36.7266078,0.40680018,-15.498513899999999
3.1599999999999997,316,-0.068,-0.6779999999999999,-0.7559999999999999,-28.81978740000001,4.2398892,-2.6356068,36.43439922,0.4526368200000001,-15.498513899999999
3.17,317,-0.062,-0.662,-0.747,-25.0955604,5.6149884000000005,-1.7761698000000001,36.17656812,0.5042030399999999,-15.47559558
3.1799999999999997,318,-0.059000000000000004,-0.65,-0.755,-21.7151082,6.6463128000000005,-0.7448454000000001,35.95311450000001,0.55576926,-15.441218099999999
3.19,319,-0.055,-0.644,-0.752,-18.162768600000003,6.9327918,0.057295800000000015,35.76976794,0.6073354799999999,-15.40111104
3.1999999999999997,320,-0.06,-0.647,-0.746,-14.1520626,7.1046792000000005,0.8021411999999999,35.64371718,0.63598338,-15.34381524
3.21,321,-0.051,-0.6509999999999999,-0.736,-10.4278356,8.021412000000002,1.432395,35.54058474,0.6875496,-15.28651944
3.2199999999999998,322,-0.048,-0.6509999999999999,-0.738,-7.161975,8.7089616,2.1199446,35.46610020000001,0.7448454000000001,-15.21776448
3.23,323,-0.054000000000000006,-0.6409999999999999,-0.7390000000000001,-3.380452200000001,8.8235532,2.7501984,35.43172272,0.79641162,-15.14327994
3.2399999999999998,324,-0.055999999999999994,-0.634,-0.7140000000000001,0.5156622000000001,9.224623800000002,3.2658606,35.4374523,0.8479778399999999,-15.05733624
3.25,325,-0.051,-0.635,-0.711,3.5523396000000003,9.8548776,3.380452200000001,35.50047768,0.8880849000000001,-14.97139254
3.26,326,-0.043,-0.648,-0.7240000000000001,5.7868758000000025,9.8548776,3.7815228,35.55777348,0.9453807,-14.879719259999998
3.27,327,-0.042,-0.6779999999999999,-0.732,8.021412000000002,9.0527364,4.6409598,35.63798759999999,0.9912173399999998,-14.78804598
3.28,328,-0.045,-0.703,-0.737,10.828906199999999,9.224623800000002,4.9274388,35.7525792,1.0313244000000001,-14.69064312
3.29,329,-0.036000000000000004,-0.716,-0.736,13.2926256,10.4278356,5.042030400000002,35.88435954,1.0886202,-14.58751068
3.3,330,-0.032,-0.7090000000000001,-0.735,15.126091199999998,11.6310474,5.3858052,36.06197652,1.14018642,-14.47291908
3.31,331,-0.027999999999999997,-0.691,-0.726,16.2147114,12.1467096,5.72958,36.22813434,1.2032117999999998,-14.3525979
3.32,332,-0.028999999999999998,-0.682,-0.72,16.673077799999998,12.032118,6.2452422,36.40002174,1.2605076000000002,-14.232276719999998
3.33,333,-0.016,-0.696,-0.7140000000000001,16.673077799999998,11.9748222,6.417129599999999,36.57190914,1.3178034,-14.10622596
3.34,334,-0.005,-0.701,-0.7090000000000001,16.501190400000002,11.2872726,6.417129599999999,36.73806696,1.36936962,-13.985904779999998
3.3499999999999996,335,-0.001,-0.696,-0.688,16.673077799999998,10.886202,6.130650599999999,36.93287268,1.41520626,-13.8655836
3.36,336,0.005,-0.688,-0.679,15.9855282,10.084060800000001,6.0160589999999985,37.0990305,1.4610428999999998,-13.75672158
3.3699999999999997,337,0.016,-0.675,-0.6829999999999999,15.297978599999999,9.9121734,5.7868758000000025,37.25372916,1.50687954,-13.64785956
3.38,338,0.009000000000000001,-0.662,-0.649,15.6990492,9.2819196,5.958763200000001,37.41415739999999,1.5412570200000002,-13.54472712
3.3899999999999997,339,0.009000000000000001,-0.6579999999999999,-0.6509999999999999,15.068795399999999,8.193299399999999,6.0160589999999985,37.56885606,1.56990492,-13.447324259999998
3.4,340,0.006,-0.644,-0.639,14.8396122,7.448453999999999,6.0733548,37.74647304,1.59282324,-13.349921400000001
3.4099999999999997,341,0.005,-0.64,-0.608,14.381245800000002,6.5317212,5.72958,37.88971254000001,1.61001198,-13.263977700000002
3.42,342,0.013000000000000001,-0.622,-0.617,13.2353298,6.589017,5.2712136,38.02722246,1.6272007199999998,-13.18376358
3.4299999999999997,343,0.028999999999999998,-0.612,-0.585,13.636400400000001,6.7609043999999985,5.2139178,38.17046196,1.65011904,-13.09781988
3.44,344,0.023,-0.596,-0.5579999999999999,14.209358400000001,5.6149884000000005,5.443101,38.31370146,1.6615782,-13.01760576
3.4499999999999997,345,0.013000000000000001,-0.579,-0.536,14.5531332,4.5263682,5.3858052,38.47985928,1.6615782,-12.9488508
3.46,346,0.003,-0.556,-0.53,14.4958374,4.2398892,4.9274388,38.62882836,1.6673077799999998,-12.88009584
3.4699999999999998,347,0.003,-0.5539999999999999,-0.523,13.8082878,4.8128472,4.6409598,38.76633828,1.67303736,-12.81707046
3.48,348,0.004,-0.55,-0.517,13.178034,5.2712136,4.5263682,38.9038482,1.6844965200000002,-12.7483155
3.4899999999999998,349,0.008,-0.5489999999999999,-0.499,13.120738199999998,5.2139178,4.4117766,39.04135812,1.70168526,-12.67956054
3.5,350,0.008,-0.552,-0.486,12.5477802,5.844171599999999,4.1825934,39.18459762,1.7188740000000002,-12.605075999999999
3.51,351,0.006,-0.547,-0.491,11.6310474,5.844171599999999,3.8388186,39.304918799999996,1.73606274,-12.53632104
3.52,352,0.008,-0.5429999999999999,-0.496,11.8602306,6.1879464,3.3231564,39.42523998,1.76471064,-12.473295660000002
3.53,353,0.013000000000000001,-0.5479999999999999,-0.483,11.9748222,7.2765666,2.9220858,39.54556116,1.8048177,-12.404540699999998
3.54,354,0.012,-0.556,-0.478,11.688343199999998,7.734933000000002,3.0939732,39.66588234,1.84492476,-12.330056160000002
3.55,355,0.013000000000000001,-0.5589999999999999,-0.484,10.4851314,7.2192707999999985,3.4377480000000005,39.7919331,1.87357266,-12.25557162
3.56,356,0.015,-0.5710000000000001,-0.493,9.396511199999999,7.7922288,3.4950437999999995,39.88933596,1.90795014,-12.1753575
3.57,357,0.018000000000000002,-0.58,-0.511,8.479778399999999,8.021412000000002,3.4950437999999995,39.97527966,1.9480572000000005,-12.09514338
3.58,358,0.022000000000000002,-0.585,-0.5,8.5370742,7.6776372,2.8074942000000003,40.06122336,1.98816426,-12.02065884
3.59,359,0.023,-0.5920000000000001,-0.515,7.333862400000001,7.1046792000000005,1.9480572,40.14143748,2.02827132,-11.96336304
3.5999999999999996,360,0.022000000000000002,-0.5920000000000001,-0.518,6.0160589999999985,7.333862400000001,1.432395,40.2216516,2.07410796,-11.90033766
3.61,361,0.02,-0.607,-0.511,3.6096353999999997,7.1046792000000005,1.4896908000000002,40.26175866,2.11421502,-11.84304186
3.6199999999999997,362,0.017,-0.613,-0.526,1.9480572,7.3911582,1.8334656000000005,40.28467698,2.16005166,-11.78001648
3.63,363,0.015,-0.621,-0.512,0.9740286,6.990087599999999,2.0053530000000004,40.29613614,2.19442914,-11.7169911
3.6399999999999997,364,0.013999999999999999,-0.631,-0.513,-0.1718874,8.7662574,2.0053530000000004,40.29613614,2.24599536,-11.64250656
3.65,365,0.021,-0.6459999999999999,-0.523,-0.8594370000000001,9.9121734,1.9480572,40.32478404,2.30329116,-11.562292439999998
3.6599999999999997,366,0.016,-0.659,-0.507,-0.8594370000000001,10.4851314,2.1772404,40.31905446,2.36631654,-11.47634874
3.67,367,0.012,-0.6679999999999999,-0.518,-1.0886202,10.1986524,2.7501984,40.307595299999996,2.42361234,-11.39040504
3.6799999999999997,368,0.017,-0.6759999999999999,-0.52,-1.7188740000000002,11.1153852,3.2085647999999996,40.29040656,2.48663772,-11.29300218
3.69,369,0.024,-0.6920000000000001,-0.516,-3.5523396000000003,10.828906199999999,3.4377480000000005,40.26175866,2.54393352,-11.19559932
3.6999999999999997,370,0.035,-0.6940000000000001,-0.525,-5.0993262,10.1986524,4.0680017999999984,40.2502995,2.58977016,-11.09246688
3.71,371,0.046,-0.6890000000000001,-0.528,-6.0733548,8.880849000000003,4.4117766,40.1930037,2.62987722,-11.0007936
3.7199999999999998,372,0.048,-0.6809999999999999,-0.51,-5.844171599999999,8.9381448,4.3544808,40.1357079,2.6642547000000003,-10.90912032
3.73,373,0.045,-0.674,-0.495,-6.130650599999999,7.6203414,4.1252976000000015,40.0784121,2.6929026,-10.8289062
3.7399999999999998,374,0.034,-0.669,-0.483,-5.958763200000001,6.4744254,4.0680017999999984,40.021116299999996,2.71582092,-10.75442166
3.75,375,0.034,-0.67,-0.479,-6.5317212,5.6149884000000005,4.1252976000000015,39.99819798,2.72728008,-10.685666699999999
3.76,376,0.042,-0.672,-0.47100000000000003,-7.3911582,4.8128472,4.297185,39.92371344,2.73873924,-10.62264132
3.77,377,0.055999999999999994,-0.677,-0.46799999999999997,-8.651665800000002,3.9534102,4.3544808,39.83776974,2.73873924,-10.55961594
3.78,378,0.061,-0.679,-0.45899999999999996,-9.3392154,2.5783110000000002,4.3544808,39.74609646,2.72728008,-10.513779300000001
3.79,379,0.061,-0.6779999999999999,-0.45799999999999996,-9.8548776,1.4896908000000002,4.1252976000000015,39.6486936,2.71009134,-10.46794266
3.8,380,0.053,-0.67,-0.457,-9.7975818,0.2291832000000001,3.7815228,39.59712738,2.68717302,-10.43929476
3.81,381,0.033,-0.6579999999999999,-0.436,-9.167328,-1.2605076000000002,3.1512689999999997,39.5054541,2.65852512,-10.42210602
3.82,382,0.023,-0.649,-0.414,-8.5370742,-1.7761698000000001,2.5783110000000002,39.4195104,2.62987722,-10.41637644
3.83,383,0.02,-0.635,-0.401,-8.136003599999999,-2.86479,2.1772404,39.3335667,2.58977016,-10.41637644
3.84,384,0.022000000000000002,-0.622,-0.392,-7.5630456000000015,-4.1252976000000015,1.7761698000000001,39.25908216000001,2.5496631,-10.4278356
3.8499999999999996,385,0.031,-0.62,-0.392,-6.7609043999999985,-5.5003968,1.3178034,39.22470468,2.49809688,-10.4564835
3.86,386,0.045,-0.634,-0.371,-6.6463128000000005,-7.333862400000001,0.9167328000000001,39.15594972,2.4350715000000003,-10.49659056
3.8699999999999997,387,0.057,-0.63,-0.36200000000000004,-7.448453999999999,-9.6256944,0.6302538000000001,39.08146518,2.36058696,-10.55388636
3.88,388,0.065,-0.622,-0.369,-7.8495246,-11.0580894,0.4583664000000001,39.00125106,2.26891368,-10.62264132
3.8899999999999997,389,0.085,-0.618,-0.349,-7.8495246,-12.1467096,0.11459160000000004,38.92103694,2.1772404,-10.69712586
3.9,390,0.092,-0.608,-0.33899999999999997,-8.4224826,-14.0947668,0.0,38.86374114,2.07983754,-10.78879914
3.9099999999999997,391,0.086,-0.583,-0.319,-8.307891,-15.6417534,-0.057295800000000015,38.77779744,1.9595163600000003,-10.89193158
3.92,392,0.069,-0.5589999999999999,-0.29100000000000004,-8.250595200000001,-16.4438946,-0.6302538000000001,38.69185374,1.83919518,-11.0007936
3.9299999999999997,393,0.05,-0.524,-0.272,-9.224623800000002,-17.3606274,-1.5469866,38.59445088,1.7188740000000002,-11.12684436
3.94,394,0.037000000000000005,-0.483,-0.252,-10.4851314,-17.9908812,-2.8074942000000003,38.48558885999999,1.59855282,-11.26435428
3.9499999999999997,395,0.043,-0.44,-0.223,-12.318597,-19.4232762,-3.8388186,38.37099726,1.4782316400000002,-11.41905294
3.96,396,0.048,-0.397,-0.187,-14.381245800000002,-22.631841,-4.4690724,38.22775776,1.32926256,-11.59666992
3.9699999999999998,397,0.015,-0.361,-0.159,-17.18874,-25.668518399999996,-5.2712136,38.05014078,1.16310474,-11.802934800000001
3.98,398,-0.008,-0.313,-0.11800000000000001,-20.7410796,-27.7311672,-5.6722842,37.83814632,0.98548776,-12.02065884
3.9899999999999998,399,-0.023,-0.268,-0.109,-25.84040580000001,-28.1895336,-6.1879464,37.57458564,0.8021412000000001,-12.24411246
4.0,400,-0.023,-0.237,-0.156,-33.5753388,-23.9496444,-7.3911582,37.23654042,0.6589017,-12.45610692
4.01,401,0.0,-0.209,-0.22399999999999998,-40.1643558,-18.907614,-6.5317212,36.82974024,0.5443101,-12.62226474
4.02,402,0.027999999999999997,-0.18899999999999997,-0.281,-41.19568020000001,-14.0947668,-2.0626488000000003,36.41721048,0.44117766,-12.72539718
4.03,403,-0.008,-0.146,-0.303,-37.3568616,-9.568398599999998,5.6722842,36.03905820000001,0.32658606,-12.73685634
4.04,404,-0.10099999999999999,-0.127,-0.27399999999999997,-30.65325300000001,-3.7815228,11.745639,35.72393130000001,0.22345362,-12.66810138
4.05,405,-0.14400000000000002,-0.129,-0.214,-25.210151999999997,4.297185,13.9228794,35.46610020000001,0.16042824,-12.52486188
4.06,406,-0.134,-0.142,-0.196,-23.835052800000003,11.172680999999999,12.9488508,35.22545784,0.1718874,-12.35297448
4.07,407,-0.094,-0.149,-0.20199999999999999,-27.501984000000004,9.6256944,8.9381448,34.94470842,0.19480572,-12.226923719999998
4.08,408,-0.01,-0.045,-0.155,-25.0382646,-6.130650599999999,2.9793816000000004,34.692606899999994,0.12605075999999998,-12.23838288
4.09,409,0.105,0.105,-0.063,-12.605075999999999,-19.9389384,-1.4896908000000002,34.56655614,-0.02291832,-12.36443364
4.1,410,0.12300000000000001,0.195,-0.138,-5.3285094000000015,-30.8251404,-11.3445684,34.4920716,-0.19480572,-12.63945348
4.109999999999999,411,0.076,0.048,-0.33,-5.2139178,-31.111619399999995,-22.86102420000001,34.44623496,-0.31512690000000004,-13.0061466
4.12,412,-0.043,-0.491,-0.49,-28.132237800000002,-28.9916748,-27.960350399999996,34.16548554000001,-0.39534102,-13.4072172
4.13,413,-0.196,-1.079,-0.9840000000000001,-73.1667366,-9.9121734,-28.074942,33.42636972,-0.33231564,-13.6936962
4.14,414,-0.3670000000000001,-1.7069999999999999,-1.411,-103.8772854,4.8701430000000006,-27.4446882,32.372127,-0.15469866,-13.894231499999998
4.1499999999999995,415,-0.341,-2.272,-1.693,-127.483155,23.835052800000003,-21.829699800000004,31.07724192,0.13178034,-13.945797720000002
4.16,416,-0.265,-2.332,-1.849,-141.6352176,39.7632852,-15.068795399999999,29.63338776,0.52139178,-13.8655836
4.17,417,-0.3,-2.34,-1.896,-155.7872802,52.3683612,-13.120738199999998,28.0462941,1.00840608,-13.716614520000002
4.18,418,-0.105,-2.4730000000000003,-1.869,-178.8201918,59.014674,-12.891555,26.23001724,1.55844576,-13.54472712
4.1899999999999995,419,0.005,-2.594,-1.7630000000000001,-199.675863,63.6556338,-5.0993262,24.20174592,2.11421502,-13.30408476
4.2,420,-0.094,-2.398,-1.4680000000000002,-209.07237419999998,67.322565,-0.6302538000000001,22.08180132,2.6929026,-13.02333534
4.21,421,-0.196,-2.156,-1.006,-209.0150784,66.6350154,-7.9641161999999985,19.96185672,3.30023808,-12.839988780000002
4.22,422,-0.156,-1.89,-0.59,-210.6193608,60.045998399999995,-16.7303736,17.818993799999994,3.87892566,-12.776963400000001
4.2299999999999995,423,-0.046,-1.419,-0.086,-209.8172196,54.43101,-18.6784308,15.68759004,4.41750618,-12.776963400000001
4.24,424,0.059000000000000004,-0.888,0.27399999999999997,-218.7553644,45.1490904,-13.980175199999998,13.45878342,4.85295426,-12.776963400000001
4.25,425,0.027000000000000003,-0.364,0.48100000000000004,-224.25576119999997,34.1482968,-12.6623718,11.18414016,5.17954032,-12.8056113
4.26,426,-0.187,0.051,0.789,-216.29164500000002,43.315624799999995,-4.8701430000000006,8.98971102,5.58061092,-12.75404508
4.27,427,-0.366,0.5329999999999999,0.9059999999999999,-219.0991392,47.0971476,-0.9740286,6.76663398,6.016058999999999,-12.67383096
4.28,428,-0.27899999999999997,0.893,0.774,-224.4276486,39.7632852,-7.333862400000001,4.48626114,6.382752120000001,-12.67956054
4.29,429,-0.038,0.965,0.578,-214.0571088,35.809875,-13.2926256,2.29756158,6.72079734,-12.765504240000002
4.3,430,0.302,0.818,0.32899999999999996,-187.58644919999998,34.4347758,-16.8449652,0.3437748,7.05884256,-12.90874374
4.31,431,0.456,0.6459999999999999,0.251,-167.9339898,8.021412000000002,-22.9756158,-1.38082878,7.116138359999999,-13.120738199999998
4.32,432,0.47,0.731,0.327,-166.7880738,-8.136003599999999,-27.6738714,-3.1054323600000004,7.00727634,-13.38429888
4.33,433,0.355,1.031,0.18899999999999997,-176.5856556,-2.5783110000000002,-25.8977016,-4.9274388,6.94425096,-13.624941240000002
4.34,434,0.231,1.187,0.002,-174.75218999999996,2.9220858,-24.5798982,-6.7322565,6.9327918,-13.85985402
4.35,435,0.17800000000000002,1.138,-0.081,-166.15782,1.2032118,-25.4393352,-8.479778399999999,6.898414319999999,-14.10049638
4.36,436,0.223,1.235,-0.4320000000000001,-143.4113874,-6.417129599999999,-27.788463,-9.963739620000002,6.77809314,-14.3525979
4.37,437,0.203,1.367,-0.747,-119.4044472,-30.080295,-26.1841806,-11.19559932,6.4228591800000014,-14.54740362
4.38,438,0.064,1.581,-1.31,-76.20341400000002,-51.10785360000001,-23.777757,-11.98055178,5.8728194999999985,-14.684913540000002
4.39,439,0.601,2.079,-2.475,-55.06126379999999,-79.92764100000002,-19.652459399999998,-12.53059146,5.04775998,-14.7250206
4.3999999999999995,440,0.777,2.737,-3.717,3.6669312000000014,-88.8657858,-22.803728399999997,-12.48475482,4.13675676,-14.77658682
4.41,441,0.675,2.8960000000000004,-3.9960000000000004,75.5731602,-95.39750699999999,-12.776963400000001,-11.70553194,3.1913760600000005,-14.73647976
4.42,442,0.5479999999999999,2.1790000000000003,-3.9960000000000004,68.8122558,-104.851314,22.86102420000001,-10.972145699999999,2.21734746,-14.34686832
4.43,443,-0.25,1.22,-3.9960000000000004,26.69984280000001,-61.07732280000001,42.685371,-10.67420754,1.70168526,-13.836935700000002
4.4399999999999995,444,-0.54,1.335,-3.903,-1.4896908000000002,-32.8877892,29.220858000000003,-10.679937120000002,1.43812458,-13.49889048
4.45,445,-0.304,1.2830000000000001,-3.59,-44.175061799999995,-17.8189938,15.928232399999999,-11.12111478,1.28342592,-13.30981434
4.46,446,0.096,0.44,-3.072,-54.3164184,13.120738199999998,-6.703608600000001,-11.67688404,1.39801752,-13.390028460000002
4.47,447,0.242,0.344,-2.012,-72.479187,12.3758928,-17.8762896,-12.41599986,1.47250206,-13.5791046
4.4799999999999995,448,-0.057999999999999996,0.6759999999999999,-1.297,-79.81304940000003,-4.0680017999999984,-13.407217200000002,-13.22960022,1.39801752,-13.6936962
4.49,449,-0.282,1.1420000000000001,-0.8270000000000001,-81.53192340000003,-1.3750992,-4.6409598,-14.060389320000002,1.36364004,-13.72807368
4.5,450,-0.395,1.208,-0.611,-74.3699484,7.6776372,2.7501984,-14.85107136,1.4209358399999998,-13.70515536
4.51,451,-0.23800000000000002,0.938,-0.532,-57.92605379999999,18.1054728,8.078707799999998,-15.435488519999998,1.61001198,-13.6650483
4.52,452,-0.036000000000000004,0.452,-0.488,-40.5654264,28.361421000000004,11.172680999999999,-15.85374786,1.91367972,-13.61921166
4.53,453,0.045,0.151,-0.32799999999999996,-23.835052800000003,32.8877892,18.793022399999998,-16.09439022,2.2746432600000004,-13.521808800000002
4.54,454,0.015,0.171,-0.278,-10.313244000000001,25.4393352,25.8977016,-16.19179308,2.58977016,-13.33273266
4.55,455,0.042,0.33,-0.233,0.11459160000000004,21.314037600000002,22.4026578,-16.214711400000002,2.85906042,-13.178034
4.56,456,0.071,0.434,-0.159,2.8074942000000003,15.9855282,12.834259199999998,-16.18033392,3.04813656,-13.0920903
4.57,457,0.013999999999999999,0.474,-0.198,1.2605076000000002,6.0733548,6.9327918,-16.16887476,3.1226211000000004,-13.04052408
4.58,458,-0.05,0.46399999999999997,-0.282,1.6042823999999998,-1.4896908000000002,7.5057497999999985,-16.14595644,3.12835068,-12.96603954
4.59,459,-0.068,0.48,-0.33899999999999997,3.7815228,-7.1046792000000005,8.9381448,-16.1001198,3.08824362,-12.8629071
4.6,460,-0.07400000000000001,0.48700000000000004,-0.39,8.078707799999998,-8.021412000000002,8.4224826,-16.060012739999998,3.01948866,-12.75977466
4.61,461,-0.087,0.485,-0.444,13.0061466,-5.958763200000001,4.9847346,-15.92250282,2.9736520200000003,-12.70247886
4.62,462,-0.085,0.47,-0.483,19.0222056,-4.4690724,0.5156622000000001,-15.727697099999999,2.93354496,-12.68529012
4.63,463,-0.042,0.431,-0.545,25.8977016,-1.3750992,-1.8907614,-15.46413642,2.9220857999999996,-12.70247886
4.64,464,-0.012,0.40299999999999997,-0.635,31.856464799999998,5.1566220000000005,-2.9793816000000004,-15.14327994,2.96219286,-12.7483155
4.6499999999999995,465,0.03,0.39299999999999996,-0.745,36.4401288,10.2559482,-4.297185,-14.810964300000002,3.05386614,-12.81707046
4.66,466,0.005,0.426,-0.818,39.247623,12.032118,-5.2712136,-14.41562328,3.15699858,-12.903014159999998
4.67,467,-0.025,0.47200000000000003,-0.9,40.1643558,13.2926256,-6.130650599999999,-14.01455268,3.27731976,-12.994687439999998
4.68,468,-0.026000000000000002,0.48700000000000004,-1.02,39.304918799999996,15.928232399999999,-5.5003968,-13.624941240000002,3.42055926,-13.086360719999998
4.6899999999999995,469,-0.036000000000000004,0.444,-1.151,35.9817624,21.944291399999997,-5.72958,-13.26970728,3.62682414,-13.18949316
4.7,470,0.013000000000000001,0.36,-1.2429999999999999,29.163562199999998,28.361421000000004,-5.844171599999999,-12.98895786,3.88465524,-13.30408476
4.71,471,0.113,0.273,-1.3319999999999999,23.0902074,28.9916748,-4.2398892,-12.75977466,4.15967508,-13.40148762
4.72,472,0.131,0.228,-1.36,21.7151082,27.8457588,-2.4637194,-12.55350978,4.42896534,-13.48170174
4.7299999999999995,473,0.11900000000000001,0.214,-1.337,21.5432208,24.7517856,-1.432395,-12.34151532,4.6696076999999985,-13.54472712
4.74,474,0.11599999999999999,0.215,-1.252,16.558486199999994,21.027558600000006,-1.2032118,-12.18108708,4.8701430000000006,-13.60202292
4.75,475,0.109,0.214,-1.1640000000000001,9.453807,19.136797199999997,-3.0366774,-12.0894138,5.05348956,-13.6650483
4.76,476,0.124,0.19699999999999998,-1.147,2.2345362,19.194093,-5.3285094000000015,-12.07795464,5.22537696,-13.750992000000002
4.77,477,0.149,0.16899999999999998,-1.136,-1.8334656000000005,19.595163600000006,-6.4744254,-12.10660254,5.40299394,-13.84839486
4.78,478,0.171,0.152,-1.087,-2.9793816000000004,22.0015872,-5.9014674000000005,-12.15243918,5.6035292399999985,-13.945797720000002
4.79,479,0.18600000000000005,0.163,-1.008,-2.6929026,24.2361234,-4.3544808,-12.19254624,5.83271244,-14.037471000000002
4.8,480,0.171,0.18899999999999997,-0.958,0.6875496,25.210151999999997,-1.2032118,-12.19827582,6.08481396,-14.0947668
4.81,481,0.142,0.21,-0.8909999999999999,4.0680017999999984,25.668518399999996,2.5210152000000003,-12.16389834,6.34264506,-14.11768512
4.82,482,0.131,0.22699999999999998,-0.833,4.1825934,25.668518399999996,5.7868758000000025,-12.12379128,6.60620574,-14.10622596
4.83,483,0.122,0.245,-0.8109999999999999,2.9220858,23.2620948,8.3651868,-12.0894138,6.8468481,-14.07184848
4.84,484,0.121,0.252,-0.823,2.6356068,19.8816426,10.2559482,-12.0607659,7.06457214,-14.003093519999998
4.85,485,0.13,0.242,-0.8640000000000001,3.1512689999999997,14.7823164,11.802934800000001,-12.03784758,7.23645954,-13.91714982
4.86,486,0.127,0.243,-0.9059999999999999,4.583664,2.5783110000000002,11.8602306,-11.9748222,7.288025760000001,-13.8082878
4.87,487,0.09,0.248,-0.905,9.2819196,-2.7501984,10.084060800000001,-11.86596018,7.282296179999999,-13.70515536
4.88,488,0.08800000000000001,0.23,-0.9079999999999999,11.8602306,1.2032118,6.2452422,-11.73990942,7.305214500000001,-13.64785956
4.89,489,0.145,0.192,-0.9079999999999999,11.0580894,9.5111028,3.1512689999999997,-11.62531782,7.408346939999999,-13.636400400000001
4.8999999999999995,490,0.21899999999999997,0.14800000000000002,-0.927,9.224623800000002,13.521808800000002,0.8021411999999999,-11.52218538,7.5916935,-13.65358914
4.91,491,0.292,0.11199999999999999,-0.9309999999999999,7.906820400000001,10.2559482,-0.9167328000000001,-11.44770084,7.6890963600000015,-13.68223704
4.92,492,0.355,0.069,-0.961,8.5370742,6.7609043999999985,-1.7761698000000001,-11.36748672,7.75212174,-13.716614520000002
4.93,493,0.375,0.006999999999999999,-1.003,10.2559482,5.2712136,-2.1772404,-11.26435428,7.79795838,-13.74526242
4.9399999999999995,494,0.361,-0.076,-1.011,11.401864199999999,4.6982555999999995,-1.8907614,-11.15549226,7.84379502,-13.77391032
4.95,495,0.33299999999999996,-0.133,-0.981,10.4278356,4.3544808,-1.5469866,-10.914849900000002,7.975575359999999,-13.796828639999998
4.96,496,0.29600000000000004,-0.163,-1.013,5.6722842,4.1825934,-1.6615782,-10.8575541,8.015682420000001,-13.81974696
4.97,497,0.231,-0.162,-1.081,-1.2032118,1.2605076000000002,-2.9220858,-10.87474284,8.021412,-13.85412444
4.9799999999999995,498,0.159,-0.157,-1.075,-2.291832,-1.8907614,-3.4950437999999995,-10.90339074,7.99849368,-13.88277234
4.99,499,0.09,-0.13699999999999998,-1.0490000000000002,-3.3231564,-6.130650599999999,-2.6929026,-10.93776822,7.929738719999999,-13.89996108
5.0,500,0.039,-0.10800000000000001,-1.036,-5.0993262,-11.2299768,-1.5469866,-10.886202,7.76931048,-13.87704276
5.01,501,-0.006,-0.09699999999999999,-1.014,-5.5576926,-13.3499214,-1.3178034,-10.93776822,7.63180056,-13.8655836
5.02,502,-0.016,-0.07,-0.988,-4.4690724,-13.464512999999998,-3.1512689999999997,-10.98360486,7.49429064,-13.87704276
5.03,503,-0.001,-0.067,-0.966,-3.5523396000000003,-12.4331886,-3.4950437999999995,-11.01798234,7.36823988,-13.88850192
5.04,504,0.009000000000000001,-0.057999999999999996,-0.953,-4.4690724,-12.318597,-2.1772404,-11.06381898,7.242189120000001,-13.88850192
5.05,505,0.006,-0.027999999999999997,-0.955,-5.2712136,-12.6623718,-1.432395,-11.04090066,7.06457214,-13.8655836
5.06,506,-0.004,0.0,-0.96,-5.2712136,-12.891555,-1.145916,-11.086737300000001,6.9327918,-13.85412444
5.07,507,-0.013999999999999999,0.036000000000000004,-0.976,-4.4117766,-12.2040054,-0.8594370000000001,-11.13257394,6.812470620000001,-13.84266528
5.08,508,-0.02,0.077,-0.986,-3.4377480000000005,-11.2872726,-0.8021411999999999,-11.16122184,6.7036086,-13.83120612
5.09,509,-0.021,0.121,-0.987,-2.2345362,-9.6256944,-0.6875496,-11.18414016,6.60620574,-13.82547654
5.1,510,-0.019,0.154,-0.988,-1.2032118,-7.8495246,-1.145916,-11.18414016,6.39994086,-13.80255822
5.11,511,-0.017,0.174,-0.988,-0.6302538000000001,-6.1879464,-1.8334656000000005,-11.19559932,6.33691548,-13.8082878
5.12,512,-0.011000000000000001,0.185,-0.995,0.0,-4.010706000000001,-2.291832,-11.19559932,6.29107884,-13.82547654
5.13,513,-0.002,0.19,-1.003,0.5156622000000001,-1.8334656000000005,-2.8074942000000003,-11.18986974,6.26816052,-13.84839486
5.14,514,0.003,0.195,-1.008,0.6302538000000001,0.6875496,-3.380452200000001,-11.18986974,6.26816052,-13.88277234
5.1499999999999995,515,0.019,0.201,-1.01,0.1718874,3.7242269999999995,-4.0680017999999984,-11.20705848,6.2165943,-13.91714982
5.16,516,0.031,0.207,-1.005,-0.9740286,7.3911582,-4.8128472,-11.22424722,6.2796196800000015,-13.980175199999998
5.17,517,0.048,0.214,-0.996,-2.0626488000000003,10.084060800000001,-5.042030400000002,-11.258624699999999,6.3655633799999976,-14.04320058
5.18,518,0.07,0.223,-0.9940000000000001,-2.6929026,11.802934800000001,-4.8128472,-11.29300218,6.4744253999999986,-14.11195554
5.1899999999999995,519,0.099,0.237,-0.9940000000000001,-2.7501984,13.0634424,-4.297185,-11.33310924,6.589017,-14.17498092
5.2,520,0.122,0.24600000000000002,-0.9890000000000001,-2.5783110000000002,14.0947668,-3.4377480000000005,-11.396134620000002,6.72079734,-14.2380063
5.21,521,0.146,0.255,-0.9790000000000001,-2.4637194,14.1520626,-2.9220858,-11.42478252,6.85257768,-14.289572520000002
5.22,522,0.163,0.271,-0.9690000000000001,-1.5469866,13.8655836,-2.7501984,-11.45343042,6.98435802,-14.34113874
5.2299999999999995,523,0.182,0.276,-0.961,0.057295800000000015,13.750992000000002,-2.4637194,-11.45916,7.116138359999999,-14.38697538
5.24,524,0.191,0.265,-0.9640000000000001,0.40107059999999994,12.2040054,-1.7761698000000001,-11.45916,7.2307299600000015,-14.427082439999998
5.25,525,0.19,0.251,-0.968,0.1718874,9.8548776,-0.9167328000000001,-11.516455800000001,7.36823988,-14.467189499999998
5.26,526,0.18600000000000005,0.22899999999999998,-0.963,-0.1718874,7.2192707999999985,-0.057295800000000015,-11.52218538,7.4427244199999985,-14.47864866
5.27,527,0.175,0.20800000000000002,-0.9640000000000001,-0.8021411999999999,4.297185,0.4583664000000001,-11.53364454,7.48283148,-14.484378240000002
5.28,528,0.17,0.182,-0.963,-1.432395,1.6042823999999998,0.4583664000000001,-11.545103700000002,7.500020219999999,-14.47864866
5.29,529,0.166,0.162,-0.961,-1.8334656000000005,0.8021411999999999,0.1718874,-11.56802202,7.51147938,-14.47864866
5.3,530,0.163,0.14300000000000002,-0.9620000000000001,-1.7761698000000001,0.3437748,0.0,-11.41332336,7.62607098,-14.47864866
5.31,531,0.16399999999999998,0.122,-0.963,-1.2032118,0.0,-0.3437748,-11.42478252,7.62607098,-14.484378240000002
5.32,532,0.16699999999999998,0.106,-0.9690000000000001,-0.9740286,-0.40107059999999994,-0.4583664000000001,-11.43624168,7.620341400000001,-14.484378240000002
5.33,533,0.16899999999999998,0.094,-0.9740000000000001,-1.0313244000000001,-0.8594370000000001,-0.3437748,-11.44770084,7.60888224,-14.49010782
5.34,534,0.171,0.086,-0.98,-1.0313244000000001,-1.145916,-0.1718874,-11.45916,7.59742308,-14.49010782
5.35,535,0.168,0.076,-0.986,-0.6875496,-1.7188740000000002,-0.057295800000000015,-11.149762679999998,7.66617804,-14.46145992
5.36,536,0.162,0.068,-0.988,-0.4583664000000001,-1.7761698000000001,0.057295800000000015,-11.15549226,7.648989299999997,-14.46145992
5.37,537,0.157,0.064,-0.992,-0.3437748,-2.291832,0.0,-11.15549226,7.62607098,-14.45573034
5.38,538,0.14800000000000002,0.061,-0.99,0.057295800000000015,-2.9220858,-0.11459160000000004,-11.15549226,7.59742308,-14.450000759999998
5.39,539,0.14,0.055999999999999994,-0.988,0.286479,-3.2085647999999996,-0.3437748,-11.149762679999998,7.5630456000000015,-14.450000759999998
5.3999999999999995,540,0.132,0.052000000000000005,-0.978,0.11459160000000004,-3.9534102,-0.5156622000000001,-10.95495696,7.51147938,-14.427082439999998
5.41,541,0.128,0.055,-0.977,-0.40107059999999994,-4.4117766,-0.6302538000000001,-10.96068654,7.46564274,-14.427082439999998
5.42,542,0.121,0.065,-0.975,-0.572958,-5.0993262,-0.6302538000000001,-10.96641612,7.41407652,-14.42135286
5.43,543,0.11199999999999999,0.079,-0.971,-0.5156622000000001,-5.7868758000000025,-0.7448454000000001,-10.96641612,7.3567807200000015,-14.42135286
5.4399999999999995,544,0.10400000000000001,0.092,-0.9690000000000001,-0.40107059999999994,-6.7609043999999985,-0.8021411999999999,-10.972145699999999,7.288025760000001,-14.41562328
5.45,545,0.096,0.105,-0.968,-0.057295800000000015,-7.5057497999999985,-0.6302538000000001,-10.92057948,7.1734341599999984,-14.39843454
5.46,546,0.085,0.115,-0.9670000000000001,0.286479,-8.021412000000002,-0.8021411999999999,-10.914849900000002,7.09322004,-14.39843454
5.47,547,0.077,0.122,-0.968,0.6302538000000001,-8.021412000000002,-0.8594370000000001,-10.90339074,7.01300592,-14.39270496
5.4799999999999995,548,0.069,0.126,-0.968,0.8594370000000001,-7.906820400000001,-0.7448454000000001,-10.89766116,6.9327918,-14.38697538
5.49,549,0.064,0.131,-0.9690000000000001,1.145916,-7.5630456000000015,-0.6875496,-10.88047242,6.858307260000001,-14.381245800000002
5.5,550,0.063,0.13699999999999998,-0.972,1.432395,-7.2192707999999985,-0.6302538000000001,-10.84609494,6.7379860800000015,-14.364057060000002
5.51,551,0.064,0.145,-0.978,1.8334656000000005,-6.7609043999999985,-0.6875496,-10.82317662,6.669231119999999,-14.364057060000002
5.52,552,0.068,0.153,-0.9790000000000001,2.291832,-6.1879464,-0.8594370000000001,-10.800258300000001,6.60620574,-14.364057060000002
5.53,553,0.071,0.156,-0.978,2.5210152000000003,-5.5576926,-1.0886202,-10.771610399999998,6.54890994,-14.364057060000002
5.54,554,0.075,0.158,-0.9790000000000001,2.5783110000000002,-4.583664,-1.0886202,-10.7429625,6.5030733,-14.36978664
5.55,555,0.081,0.159,-0.981,2.291832,-3.6669312000000014,-1.0886202,-10.7143146,6.417129600000001,-14.364057060000002
5.56,556,0.08800000000000001,0.16,-0.982,2.0053530000000004,-3.0939732,-1.0313244000000001,-10.69712586,6.3884817000000025,-14.36978664
5.57,557,0.096,0.16,-0.982,1.8334656000000005,-2.8074942000000003,-0.9167328000000001,-10.67420754,6.3598338000000005,-14.37551622
5.58,558,0.10099999999999999,0.159,-0.98,1.8334656000000005,-2.8074942000000003,-0.8594370000000001,-10.657018800000001,6.3311859,-14.381245800000002
5.59,559,0.10300000000000001,0.156,-0.9790000000000001,1.8907614,-2.8074942000000003,-0.6302538000000001,-10.63983006,6.3025379999999975,-14.381245800000002
5.6,560,0.105,0.15,-0.981,1.9480572,-2.86479,-0.40107059999999994,-10.59399342,6.25097178,-14.37551622
5.61,561,0.10400000000000001,0.146,-0.981,1.8334656000000005,-2.5783110000000002,-0.3437748,-10.57680468,6.22232388,-14.37551622
5.62,562,0.105,0.141,-0.978,1.6042823999999998,-2.291832,-0.2291832000000001,-10.55961594,6.1994055600000015,-14.37551622
5.63,563,0.105,0.13699999999999998,-0.977,1.3178034,-1.8907614,-0.286479,-10.54815678,6.18221682,-14.37551622
5.64,564,0.105,0.132,-0.9740000000000001,1.0313244000000001,-1.6615782,-0.2291832000000001,-10.53669762,6.165028080000001,-14.37551622
5.6499999999999995,565,0.106,0.126,-0.9740000000000001,0.9167328000000001,-1.8334656000000005,-0.2291832000000001,-10.43356518,6.12492102,-14.364057060000002
5.66,566,0.107,0.122,-0.975,0.6302538000000001,-1.9480572,-0.2291832000000001,-10.42210602,6.1077322800000005,-14.364057060000002
5.67,567,0.107,0.11699999999999999,-0.976,0.4583664000000001,-2.0626488000000003,-0.1718874,-10.41637644,6.08481396,-14.364057060000002
5.68,568,0.105,0.113,-0.976,0.286479,-2.1199446,-0.2291832000000001,-10.41637644,6.067625219999999,-14.35832748
5.6899999999999995,569,0.10300000000000001,0.11,-0.975,0.3437748,-2.0626488000000003,-0.2291832000000001,-10.41064686,6.0447069,-14.35832748
5.7,570,0.10099999999999999,0.107,-0.977,0.4583664000000001,-1.7761698000000001,-0.2291832000000001,-10.26167778,5.9874111,-14.34113874
5.71,571,0.1,0.10300000000000001,-0.977,0.6302538000000001,-1.4896908000000002,-0.286479,-10.255948199999999,5.97022236,-14.34113874
5.72,572,0.102,0.10099999999999999,-0.977,0.5156622000000001,-1.2605076000000002,-0.286479,-10.25021862,5.958763200000001,-14.34113874
5.7299999999999995,573,0.1,0.102,-0.975,0.40107059999999994,-1.2605076000000002,-0.2291832000000001,-10.24448904,5.9473040400000015,-14.34686832
5.74,574,0.1,0.10300000000000001,-0.977,0.5156622000000001,-1.4896908000000002,-0.2291832000000001,-10.23875946,5.930115299999999,-14.34686832
5.75,575,0.099,0.10400000000000001,-0.977,0.572958,-1.7188740000000002,-0.11459160000000004,-10.084060800000001,5.87854908,-14.32967958
5.76,576,0.09699999999999999,0.107,-0.975,0.7448454000000001,-1.8907614,-0.1718874,-10.07833122,5.861360339999999,-14.32395
5.77,577,0.092,0.109,-0.978,0.8594370000000001,-1.9480572,-0.2291832000000001,-10.06687206,5.844171599999999,-14.32395
5.78,578,0.08900000000000001,0.111,-0.98,0.8594370000000001,-1.9480572,-0.2291832000000001,-10.06114248,5.82125328,-14.32395
5.79,579,0.086,0.114,-0.9790000000000001,0.9740286,-1.9480572,-0.286479,-10.04968332,5.80406454,-14.32395
5.8,580,0.086,0.11599999999999999,-0.98,1.145916,-1.9480572,-0.286479,-9.963739620000002,5.72958,-14.31249084
5.81,581,0.085,0.11699999999999999,-0.976,0.9740286,-1.8334656000000005,-0.4583664000000001,-9.95228046,5.71239126,-14.31249084
5.82,582,0.085,0.11800000000000001,-0.976,0.8021411999999999,-1.6615782,-0.5156622000000001,-9.9408213,5.6952025200000005,-14.31822042
5.83,583,0.085,0.12,-0.975,0.8021411999999999,-1.6042823999999998,-0.5156622000000001,-9.93509172,5.67801378,-14.32395
5.84,584,0.087,0.122,-0.9790000000000001,0.9167328000000001,-1.8334656000000005,-0.5156622000000001,-9.92363256,5.66082504,-14.32395
5.85,585,0.08800000000000001,0.124,-0.982,1.0313244000000001,-2.0053530000000004,-0.5156622000000001,-9.86633676,5.6035292399999985,-14.31822042
5.86,586,0.08800000000000001,0.125,-0.981,1.0313244000000001,-2.0626488000000003,-0.6302538000000001,-9.8548776,5.58061092,-14.31822042
5.87,587,0.08900000000000001,0.125,-0.98,0.9740286,-1.9480572,-0.6302538000000001,-9.84341844,5.5576926,-14.32395
5.88,588,0.08800000000000001,0.124,-0.9790000000000001,0.8594370000000001,-1.9480572,-0.572958,-9.83768886,5.5405038599999985,-14.32967958
5.89,589,0.087,0.124,-0.9790000000000001,0.8021411999999999,-1.9480572,-0.572958,-9.826229699999999,5.51758554,-14.32967958
5.8999999999999995,590,0.086,0.122,-0.9790000000000001,0.5156622000000001,-1.7188740000000002,-0.6302538000000001,-9.75174516,5.44883058,-14.31822042
5.91,591,0.08800000000000001,0.121,-0.9790000000000001,0.40107059999999994,-1.6042823999999998,-0.6302538000000001,-9.746015580000002,5.4316418399999975,-14.32395
5.92,592,0.091,0.11699999999999999,-0.976,0.1718874,-1.3178034,-0.6875496,-9.746015580000002,5.42018268,-14.32967958
5.93,593,0.09300000000000001,0.11800000000000001,-0.977,-0.057295800000000015,-1.2605076000000002,-0.6875496,-9.746015580000002,5.40299394,-14.335409159999998
5.9399999999999995,594,0.092,0.11800000000000001,-0.977,-0.057295800000000015,-1.4896908000000002,-0.6302538000000001,-9.746015580000002,5.385805199999999,-14.34113874
5.95,595,0.092,0.11699999999999999,-0.976,-0.2291832000000001,-1.5469866,-0.6875496,-9.66580146,5.339968560000001,-14.335409159999998
5.96,596,0.092,0.11699999999999999,-0.975,-0.3437748,-1.3178034,-0.7448454000000001,-9.66580146,5.3285094000000015,-14.34113874
5.97,597,0.092,0.113,-0.972,-0.5156622000000001,-1.0886202,-0.7448454000000001,-9.67153104,5.311320660000002,-14.34686832
5.9799999999999995,598,0.094,0.111,-0.968,-0.7448454000000001,-1.145916,-0.6875496,-9.6829902,5.2998615,-14.3525979
5.99,599,0.09300000000000001,0.11,-0.966,-0.9167328000000001,-1.3750992,-0.6302538000000001,-9.68871978,5.28840234,-14.3525979
6.0,600,0.086,0.11,-0.966,-0.8594370000000001,-1.2605076000000002,-0.5156622000000001,-9.61423524,5.231106540000001,-14.34686832
6.01,601,0.08199999999999999,0.111,-0.965,-0.6875496,-0.8594370000000001,-0.5156622000000001,-9.61996482,5.21964738,-14.3525979
6.02,602,0.08,0.10800000000000001,-0.968,-0.8021411999999999,-0.6302538000000001,-0.572958,-9.63142398,5.2139178,-14.3525979
6.03,603,0.083,0.106,-0.968,-0.6875496,-0.5156622000000001,-0.7448454000000001,-9.63715356,5.20818822,-14.364057060000002
6.04,604,0.085,0.106,-0.9670000000000001,-0.4583664000000001,-0.572958,-0.6875496,-9.64288314,5.2024586400000015,-14.36978664
6.05,605,0.087,0.106,-0.9690000000000001,-0.40107059999999994,-0.8594370000000001,-0.6875496,-9.53402112,5.16235158,-14.35832748
6.06,606,0.087,0.106,-0.972,-0.6302538000000001,-1.0886202,-0.5156622000000001,-9.539750699999999,5.15089242,-14.364057060000002
6.07,607,0.086,0.107,-0.977,-0.9167328000000001,-1.0886202,-0.40107059999999994,-9.54548028,5.13943326,-14.36978664
6.08,608,0.085,0.106,-0.98,-0.9740286,-1.145916,-0.2291832000000001,-9.55693944,5.127974099999999,-14.36978664
6.09,609,0.081,0.107,-0.985,-1.0313244000000001,-0.8594370000000001,-0.11459160000000004,-9.568398599999998,5.11651494,-14.36978664
6.1,610,0.08,0.10800000000000001,-0.9890000000000001,-0.8021411999999999,-0.6302538000000001,-0.11459160000000004,-9.43088868,5.03630082,-14.34686832
6.11,611,0.079,0.11,-0.988,-0.5156622000000001,-0.286479,-0.2291832000000001,-9.43661826,5.03630082,-14.3525979
6.12,612,0.083,0.113,-0.9840000000000001,-0.4583664000000001,0.057295800000000015,-0.4583664000000001,-9.44234784,5.03057124,-14.3525979
6.13,613,0.084,0.11699999999999999,-0.982,-0.4583664000000001,0.2291832000000001,-0.572958,-9.44807742,5.03630082,-14.364057060000002
6.14,614,0.085,0.121,-0.9790000000000001,-0.3437748,0.2291832000000001,-0.572958,-9.453807000000001,5.03630082,-14.36978664
6.15,615,0.084,0.122,-0.9790000000000001,-0.2291832000000001,0.0,-0.6875496,-9.33348582,4.9560867,-14.3525979
6.16,616,0.084,0.12300000000000001,-0.981,-0.286479,-0.11459160000000004,-0.572958,-9.33348582,4.95035712,-14.35832748
6.17,617,0.084,0.12300000000000001,-0.981,-0.4583664000000001,-0.11459160000000004,-0.6302538000000001,-9.3392154,4.95035712,-14.364057060000002
6.18,618,0.083,0.121,-0.98,-0.572958,0.0,-0.6875496,-9.34494498,4.95035712,-14.36978664
6.1899999999999995,619,0.085,0.12,-0.981,-0.4583664000000001,0.057295800000000015,-0.6302538000000001,-9.350674559999998,4.95035712,-14.381245800000002
6.2,620,0.087,0.121,-0.981,-0.4583664000000001,0.11459160000000004,-0.6302538000000001,-9.26473086,4.91597964,-14.37551622
6.21,621,0.08900000000000001,0.11900000000000001,-0.981,-0.40107059999999994,0.057295800000000015,-0.6302538000000001,-9.26473086,4.91597964,-14.381245800000002
6.22,622,0.09,0.121,-0.982,-0.5156622000000001,0.0,-0.572958,-9.27046044,4.91025006,-14.38697538
6.2299999999999995,623,0.08900000000000001,0.11800000000000001,-0.981,-0.5156622000000001,-0.1718874,-0.572958,-9.27619002,4.91025006,-14.39270496
6.24,624,0.09,0.11699999999999999,-0.98,-0.6302538000000001,-0.1718874,-0.5156622000000001,-9.28764918,4.90452048,-14.39843454
6.25,625,0.09,0.113,-0.9790000000000001,-0.6302538000000001,-0.3437748,-0.6302538000000001,-9.1959759,4.88733174,-14.39270496
6.26,626,0.08900000000000001,0.111,-0.978,-0.9167328000000001,-0.286479,-0.6875496,-9.20743506,4.88160216,-14.39843454
6.27,627,0.09,0.11,-0.976,-0.9167328000000001,-0.2291832000000001,-0.572958,-9.21316464,4.88160216,-14.40416412
6.28,628,0.09,0.11,-0.977,-1.0313244000000001,-0.3437748,-0.572958,-9.224623800000002,4.87587258,-14.4098937
6.29,629,0.08900000000000001,0.109,-0.9790000000000001,-0.9740286,-0.4583664000000001,-0.4583664000000001,-9.23608296,4.8701430000000006,-14.41562328
6.3,630,0.08900000000000001,0.11,-0.9790000000000001,-0.8021411999999999,-0.572958,-0.40107059999999994,-9.15586884,4.84722468,-14.4098937
6.31,631,0.087,0.111,-0.98,-0.6302538000000001,-0.6302538000000001,-0.3437748,-9.16159842,4.8414951,-14.41562328
6.32,632,0.086,0.109,-0.9790000000000001,-0.40107059999999994,-0.6875496,-0.3437748,-9.167328,4.83576552,-14.41562328
6.33,633,0.086,0.107,-0.977,-0.40107059999999994,-0.7448454000000001,-0.4583664000000001,-9.167328,4.82430636,-14.42135286
6.34,634,0.085,0.107,-0.977,-0.3437748,-0.572958,-0.4583664000000001,-9.17305758,4.81857678,-14.427082439999998
6.35,635,0.084,0.11,-0.975,-0.3437748,-0.6302538000000001,-0.4583664000000001,-9.081384300000002,4.784199299999999,-14.42135286
6.36,636,0.084,0.11,-0.977,-0.3437748,-0.572958,-0.5156622000000001,-9.08711388,4.77846972,-14.42135286
6.37,637,0.083,0.10800000000000001,-0.978,-0.286479,-0.6302538000000001,-0.40107059999999994,-9.08711388,4.77274014,-14.427082439999998
6.38,638,0.083,0.111,-0.9790000000000001,-0.3437748,-0.572958,-0.40107059999999994,-9.09284346,4.76128098,-14.427082439999998
6.39,639,0.083,0.113,-0.978,-0.3437748,-0.6302538000000001,-0.286479,-9.098573040000002,4.7555514,-14.43281202
6.4,640,0.08199999999999999,0.115,-0.98,-0.057295800000000015,-0.6875496,-0.40107059999999994,-8.98398144,4.6982556,-14.42135286
6.41,641,0.081,0.115,-0.981,0.057295800000000015,-0.40107059999999994,-0.3437748,-8.98398144,4.69252602,-14.42135286
6.42,642,0.081,0.113,-0.98,0.6875496,-0.057295800000000015,-0.057295800000000015,-8.97825186,4.69252602,-14.427082439999998
6.43,643,0.08199999999999999,0.113,-0.9790000000000001,0.8021411999999999,0.1718874,-0.11459160000000004,-8.97252228,4.6982556,-14.427082439999998
6.4399999999999995,644,0.084,0.113,-0.978,0.8594370000000001,0.3437748,-0.057295800000000015,-8.96106312,4.6982556,-14.427082439999998
6.45,645,0.085,0.114,-0.981,0.9740286,0.3437748,0.0,-8.86366026,4.68106686,-14.42135286
6.46,646,0.086,0.113,-0.982,0.6875496,0.286479,0.11459160000000004,-8.857930679999997,4.68106686,-14.42135286
6.47,647,0.086,0.113,-0.982,0.4583664000000001,0.2291832000000001,0.2291832000000001,-8.852201099999998,4.68679644,-14.41562328
6.4799999999999995,648,0.083,0.114,-0.981,0.40107059999999994,0.2291832000000001,0.1718874,-8.84647152,4.68679644,-14.41562328
6.49,649,0.083,0.113,-0.981,0.40107059999999994,0.3437748,0.1718874,-8.84074194,4.69252602,-14.41562328
6.5,650,0.08199999999999999,0.115,-0.982,0.572958,0.4583664000000001,0.11459160000000004,-8.75479824,4.6696076999999985,-14.40416412
6.51,651,0.084,0.113,-0.981,0.572958,0.572958,0.11459160000000004,-8.749068659999999,4.675337279999999,-14.40416412
6.52,652,0.084,0.114,-0.981,0.3437748,0.6302538000000001,0.0,-8.749068659999999,4.68106686,-14.40416412
6.53,653,0.084,0.114,-0.981,0.4583664000000001,0.6302538000000001,0.0,-8.74333908,4.68679644,-14.40416412
6.54,654,0.086,0.113,-0.981,0.40107059999999994,0.572958,0.057295800000000015,-8.7376095,4.69252602,-14.40416412
6.55,655,0.08800000000000001,0.111,-0.98,0.5156622000000001,0.4583664000000001,0.11459160000000004,-8.64593622,4.69252602,-14.39843454
6.56,656,0.08800000000000001,0.11,-0.981,0.3437748,0.4583664000000001,0.057295800000000015,-8.64593622,4.6982556,-14.39843454
6.57,657,0.08800000000000001,0.109,-0.98,0.286479,0.4583664000000001,0.1718874,-8.640206639999999,4.703985179999999,-14.39843454
6.58,658,0.08900000000000001,0.11,-0.98,0.1718874,0.5156622000000001,0.1718874,-8.640206639999999,4.70971476,-14.39270496
6.59,659,0.08900000000000001,0.109,-0.98,0.286479,0.40107059999999994,0.1718874,-8.634477059999998,4.70971476,-14.39270496
6.6,660,0.08900000000000001,0.107,-0.98,0.3437748,0.2291832000000001,0.2291832000000001,-8.48550798,4.70971476,-14.381245800000002
6.61,661,0.09,0.106,-0.98,0.286479,0.0,0.2291832000000001,-8.479778399999999,4.70971476,-14.381245800000002
6.62,662,0.08900000000000001,0.105,-0.981,0.11459160000000004,-0.286479,0.2291832000000001,-8.479778399999999,4.70971476,-14.37551622
6.63,663,0.08800000000000001,0.107,-0.98,0.1718874,-0.5156622000000001,0.2291832000000001,-8.479778399999999,4.703985179999999,-14.37551622
6.64,664,0.087,0.107,-0.982,0.286479,-0.572958,0.3437748,-8.47404882,4.6982556,-14.36978664
6.65,665,0.08800000000000001,0.107,-0.981,0.2291832000000001,-0.572958,0.2291832000000001,-8.393834700000001,4.68106686,-14.35832748
6.66,666,0.087,0.107,-0.981,0.11459160000000004,-0.6302538000000001,0.2291832000000001,-8.38810512,4.675337279999999,-14.35832748
6.67,667,0.087,0.107,-0.981,0.0,-0.6875496,0.2291832000000001,-8.38810512,4.6696076999999985,-14.3525979
6.68,668,0.086,0.107,-0.982,0.057295800000000015,-0.6875496,0.2291832000000001,-8.38810512,4.66387812,-14.3525979
6.6899999999999995,669,0.085,0.106,-0.981,0.057295800000000015,-0.6875496,0.2291832000000001,-8.38810512,4.65814854,-14.34686832
6.7,670,0.084,0.107,-0.981,0.057295800000000015,-0.6302538000000001,0.2291832000000001,-8.307891,4.6180414800000005,-14.335409159999998
6.71,671,0.08199999999999999,0.10800000000000001,-0.981,0.2291832000000001,-0.572958,0.286479,-8.302161420000001,4.612311900000001,-14.32967958
6.72,672,0.08,0.109,-0.981,0.2291832000000001,-0.3437748,0.286479,-8.302161420000001,4.60658232,-14.32967958
6.7299999999999995,673,0.079,0.109,-0.982,0.286479,-0.11459160000000004,0.3437748,-8.29643184,4.60658232,-14.32395
6.74,674,0.079,0.111,-0.982,0.3437748,0.0,0.40107059999999994,-8.29643184,4.612311900000001,-14.31822042
6.75,675,0.079,0.11,-0.9840000000000001,0.286479,0.2291832000000001,0.40107059999999994,-8.23913604,4.56647526,-14.306761259999998
6.76,676,0.08,0.11,-0.981,0.3437748,0.3437748,0.3437748,-8.23913604,4.57220484,-14.30103168
6.77,677,0.081,0.111,-0.982,0.40107059999999994,0.40107059999999994,0.286479,-8.233406460000001,4.57793442,-14.30103168
6.78,678,0.08,0.109,-0.983,0.3437748,0.4583664000000001,0.286479,-8.22767688,4.5836640000000015,-14.2953021
6.79,679,0.083,0.107,-0.9840000000000001,0.286479,0.572958,0.3437748,-8.22767688,4.58939358,-14.2953021
6.8,680,0.083,0.109,-0.9840000000000001,0.1718874,0.572958,0.286479,-8.17611066,4.57793442,-14.289572520000002
6.81,681,0.085,0.109,-0.985,0.11459160000000004,0.6302538000000001,0.286479,-8.17611066,4.5836640000000015,-14.28384294
6.82,682,0.086,0.106,-0.982,0.11459160000000004,0.4583664000000001,0.286479,-8.17038108,4.58939358,-14.28384294
6.83,683,0.08800000000000001,0.107,-0.98,0.11459160000000004,0.40107059999999994,0.286479,-8.17038108,4.59512316,-14.27811336
6.84,684,0.08800000000000001,0.105,-0.98,0.057295800000000015,0.3437748,0.286479,-8.17038108,4.59512316,-14.27811336
6.85,685,0.08800000000000001,0.105,-0.981,0.0,0.1718874,0.286479,-8.044330319999998,4.6008527400000006,-14.266654199999998
6.86,686,0.08800000000000001,0.105,-0.983,0.057295800000000015,0.057295800000000015,0.286479,-8.044330319999998,4.6008527400000006,-14.266654199999998
6.87,687,0.087,0.105,-0.983,0.11459160000000004,0.11459160000000004,0.40107059999999994,-8.03860074,4.60658232,-14.26092462
6.88,688,0.087,0.10400000000000001,-0.982,0.11459160000000004,0.11459160000000004,0.286479,-8.03860074,4.60658232,-14.25519504
6.89,689,0.086,0.10300000000000001,-0.98,0.1718874,0.11459160000000004,0.2291832000000001,-8.03860074,4.60658232,-14.25519504
6.9,690,0.087,0.10300000000000001,-0.982,0.0,0.1718874,0.286479,-7.90109082,4.6008527400000006,-14.24373588
6.91,691,0.086,0.102,-0.981,-0.11459160000000004,0.2291832000000001,0.2291832000000001,-7.906820399999999,4.60658232,-14.24373588
6.92,692,0.087,0.102,-0.981,-0.1718874,0.286479,0.1718874,-7.906820399999999,4.60658232,-14.2380063
6.93,693,0.087,0.102,-0.98,-0.1718874,0.1718874,0.2291832000000001,-7.906820399999999,4.612311900000001,-14.2380063
6.9399999999999995,694,0.08800000000000001,0.102,-0.982,0.0,0.057295800000000015,0.1718874,-7.906820399999999,4.612311900000001,-14.2380063
6.95,695,0.08800000000000001,0.10400000000000001,-0.981,0.0,0.0,0.2291832000000001,-7.82660628,4.60658232,-14.22654714
6.96,696,0.087,0.10400000000000001,-0.98,0.0,-0.11459160000000004,0.11459160000000004,-7.82660628,4.60658232,-14.22654714
6.97,697,0.087,0.10400000000000001,-0.98,-0.11459160000000004,-0.057295800000000015,0.057295800000000015,-7.82660628,4.60658232,-14.22654714
6.9799999999999995,698,0.086,0.10400000000000001,-0.978,-0.11459160000000004,-0.1718874,0.0,-7.82660628,4.60658232,-14.22654714
6.99,699,0.086,0.10400000000000001,-0.978,-0.2291832000000001,-0.2291832000000001,0.0,-7.82660628,4.6008527400000006,-14.22654714
7.0,700,0.086,0.10400000000000001,-0.981,-0.3437748,-0.40107059999999994,0.0,-7.79795838,4.58939358,-14.22081756
7.01,701,0.085,0.10300000000000001,-0.982,-0.286479,-0.40107059999999994,0.0,-7.80368796,4.5836640000000015,-14.22081756
7.02,702,0.085,0.10300000000000001,-0.9840000000000001,-0.1718874,-0.3437748,0.0,-7.80368796,4.57793442,-14.215087979999998
7.03,703,0.087,0.102,-0.987,-0.3437748,-0.286479,-0.11459160000000004,-7.80941754,4.57793442,-14.22081756
7.04,704,0.08800000000000001,0.10400000000000001,-0.988,-0.4583664000000001,-0.286479,-0.2291832000000001,-7.80941754,4.57220484,-14.22081756
7.05,705,0.08900000000000001,0.10400000000000001,-0.9890000000000001,-0.40107059999999994,-0.4583664000000001,-0.2291832000000001,-7.780769640000001,4.57220484,-14.22081756
7.06,706,0.08900000000000001,0.10400000000000001,-0.987,-0.40107059999999994,-0.8594370000000001,-0.4583664000000001,-7.78649922,4.56074568,-14.22654714
7.07,707,0.086,0.10400000000000001,-0.986,-0.572958,-0.9740286,-0.5156622000000001,-7.792228800000001,4.549286520000001,-14.232276719999998
7.08,708,0.083,0.10400000000000001,-0.985,-0.4583664000000001,-0.8594370000000001,-0.572958,-7.79795838,4.53782736,-14.232276719999998
7.09,709,0.08199999999999999,0.10300000000000001,-0.981,-0.4583664000000001,-0.6875496,-0.572958,-7.80368796,4.53209778,-14.2380063
7.1,710,0.08199999999999999,0.10300000000000001,-0.98,-0.6302538000000001,-0.4583664000000001,-0.572958,-7.78649922,4.5206386200000015,-14.24373588
7.11,711,0.085,0.10400000000000001,-0.9790000000000001,-0.6302538000000001,-0.3437748,-0.4583664000000001,-7.79795838,4.5206386200000015,-14.24946546
7.12,712,0.085,0.105,-0.978,-0.3437748,-0.11459160000000004,-0.572958,-7.79795838,4.51490904,-14.25519504
7.13,713,0.084,0.105,-0.977,-0.11459160000000004,-0.057295800000000015,-0.572958,-7.80368796,4.51490904,-14.26092462
7.14,714,0.085,0.10300000000000001,-0.9790000000000001,-0.1718874,0.0,-0.572958,-7.80368796,4.51490904,-14.266654199999998
