TimeStamp(s),FrameCounter,AccX,AccY,AccZ,GyrX,GyrY,GyrZ,EulerX,EulerY,EulerZ
0.01,1,-0.078,-1.018,0.0,-1.6042823999999998,-2.9220857999999996,0.6875496,84.58005996,-4.5206386200000015,-55.12428918000001
0.020000000000000004,2,-0.081,-1.017,0.001,-1.9480572,-2.8074942000000003,0.5156622000000001,84.66600365999999,-4.5263682,-55.14147792
0.030000000000000006,3,-0.084,-1.014,0.002,-2.0626488000000003,-2.4064236,0.5156622000000001,84.64881491999998,-4.53209778,-55.16439624
0.04000000000000001,4,-0.086,-1.012,0.006,-1.5469866,-1.7761698,0.572958,84.63735576,-4.53782736,-55.18158498
0.05000000000000001,5,-0.085,-1.011,0.004,-0.9740286,-0.8594370000000001,0.6302538000000001,84.62589659999998,-4.54355694,-55.18731455999999
0.06000000000000001,6,-0.08,-1.011,0.003,-0.572958,-0.286479,0.6875496,84.62016702,-4.5550161000000005,-55.19304414
0.07,7,-0.078,-1.011,0.005,-0.3437748,0.286479,0.8021411999999999,84.90664602000003,-4.53782736,-55.17012582
0.08,8,-0.076,-1.012,0.003,0.0,0.6302538000000001,0.9740286,84.90664602000003,-4.54355694,-55.16439624
0.09000000000000001,9,-0.073,-1.016,0.005,-0.2291832000000001,1.0313244,1.145916,84.90091644,-4.5550161000000005,-55.15293708
0.10000000000000002,10,-0.07,-1.018,0.006,-0.6875496,1.432395,1.6042823999999998,84.89518686,-4.57220484,-55.13574834
0.11000000000000001,11,-0.071,-1.016,0.002,-0.8021411999999999,1.145916,2.0053530000000004,84.8837277,-4.58939358,-55.12428918000001
0.12000000000000001,12,-0.073,-1.012,-0.003,-0.8594370000000001,0.572958,2.1772404,85.01550804,-4.58939358,-55.11283002
0.13000000000000003,13,-0.077,-1.011,-0.002,-1.145916,0.057295800000000015,2.0053530000000004,85.00404888,-4.612311900000001,-55.11283002
0.14000000000000004,14,-0.078,-1.01,-0.005,-1.8334656000000005,-0.057295800000000015,1.5469866,84.98686014,-4.629500640000002,-55.11283002
0.15000000000000002,15,-0.075,-1.008,-0.008,-2.5210152000000003,-0.2291832000000001,1.2605076000000002,84.96394182,-4.6409598,-55.11283002
0.16000000000000003,16,-0.075,-1.008,-0.013,-3.0366774,-0.4583664000000001,1.145916,84.92956434,-4.65241896,-55.11855959999999
0.17000000000000004,17,-0.075,-1.004,-0.018000000000000002,-3.2085648,-0.6302538000000001,1.0886202,84.96394182,-4.65241896,-55.12428918000001
0.18000000000000005,18,-0.076,-1.003,-0.022,-3.0939732,-0.9167328,1.0313244,84.93529392,-4.66387812,-55.13574834
0.19000000000000006,19,-0.076,-1.001,-0.024,-2.86479,-1.0886202,0.8594370000000001,84.90664602000003,-4.675337279999999,-55.14147792
0.20000000000000004,20,-0.075,-0.997,-0.024,-2.5210152000000003,-1.0886202,0.6302538000000001,84.8837277,-4.68106686,-55.15293708
0.21000000000000005,21,-0.075,-0.995,-0.024,-2.0626488000000003,-0.8021411999999999,0.572958,84.86080938,-4.68679644,-55.16439624
0.22000000000000006,22,-0.077,-0.995,-0.023,-1.6042823999999998,-0.4583664000000001,0.572958,84.96967140000002,-4.675337279999999,-55.16439624
0.23000000000000004,23,-0.075,-0.996,-0.022,-1.6615782,0.0,0.6875496,84.95248266,-4.68106686,-55.16439624
0.24000000000000005,24,-0.076,-0.996,-0.023,-1.7188740000000002,0.4010706,0.7448454000000001,84.93529392,-4.68679644,-55.16439624
0.25000000000000006,25,-0.073,-0.998,-0.028,-1.5469866,0.5156622000000001,0.6875496,84.91810518,-4.69252602,-55.15293708
0.26000000000000006,26,-0.071,-0.999,-0.027000000000000003,-1.2032118,0.4010706,0.6875496,84.90664602000003,-4.703985179999999,-55.15293708
0.2700000000000001,27,-0.069,-0.997,-0.022,-0.9167328,0.4583664000000001,0.6302538000000001,85.04988552,-4.65241896,-55.17012582
0.2800000000000001,28,-0.068,-0.998,-0.021,-0.9740286,0.4583664000000001,0.5156622000000001,85.03842636,-4.65814854,-55.16439624
0.29000000000000004,29,-0.067,-1.002,-0.022,-1.432395,0.11459160000000004,0.6302538000000001,85.02123762,-4.66387812,-55.15866666000001
0.30000000000000004,30,-0.07,-1.003,-0.017,-1.0313244,0.1718874,0.7448454000000001,85.00977845999998,-4.675337279999999,-55.15866666000001
0.31000000000000005,31,-0.071,-1.01,-0.012,-1.0886202,0.5156622000000001,0.8021411999999999,84.99831929999998,-4.68106686,-55.15293708
0.32000000000000006,32,-0.073,-1.014,-0.009000000000000001,-1.2605076000000002,0.4583664000000001,0.8021411999999999,85.13009964,-4.65241896,-55.15293708
0.33000000000000007,33,-0.07200000000000001,-1.018,-0.006,-1.2032118,0.4583664000000001,0.7448454000000001,85.11864048,-4.66387812,-55.14720749999999
0.3400000000000001,34,-0.07,-1.015,-0.002,-1.2605076000000002,0.8594370000000001,0.572958,85.10718132,-4.669607699999999,-55.14147792
0.3500000000000001,35,-0.068,-1.008,0.0,-0.9740286,0.572958,0.286479,85.09572216000002,-4.669607699999999,-55.13574834
0.3600000000000001,36,-0.065,-1.004,0.004,-0.572958,0.1718874,0.1718874,85.08999258,-4.675337279999999,-55.13574834
0.3700000000000001,37,-0.064,-1.005,0.006,-0.572958,-0.286479,0.0,85.43376737999998,-4.56074568,-55.1758554
0.38000000000000006,38,-0.064,-1.009,0.004,-1.145916,-0.9167328,0.0,85.42230822,-4.56074568,-55.18731455999999
0.39000000000000007,39,-0.066,-1.011,-0.003,-1.6615782,-1.5469866,-0.1718874,85.40511948000002,-4.56074568,-55.20450329999999
0.4000000000000001,40,-0.068,-1.011,-0.005,-2.1772404,-1.8334656000000005,-0.572958,85.38220116,-4.5550161000000005,-55.22169204000001
0.4100000000000001,41,-0.071,-1.011,-0.009000000000000001,-2.6356068,-1.4896908000000002,-1.2032118,85.35928284,-4.54355694,-55.23888078
0.4200000000000001,42,-0.073,-1.007,-0.006,-2.291832,-0.9740286,-1.7188740000000002,85.41084906,-4.51490904,-55.25033994
0.4300000000000001,43,-0.077,-1.0,-0.006999999999999999,-1.5469866,-0.8021411999999999,-1.8907613999999997,85.39366032000002,-4.4977203,-55.26179910000001
0.4400000000000001,44,-0.079,-0.996,-0.011,-0.5156622000000001,-0.5156622000000001,-1.8334656000000005,85.38793074,-4.48053156,-55.26752868000001
0.45000000000000007,45,-0.079,-0.997,-0.013,0.4583664000000001,0.11459160000000004,-1.8334656000000005,85.39366032000002,-4.46334282,-55.26752868000001
0.4600000000000001,46,-0.079,-0.997,-0.012,1.3178034,0.286479,-1.6042823999999998,85.40511948000002,-4.44615408,-55.26179910000001
0.4700000000000001,47,-0.078,-0.998,-0.016,1.7188740000000002,0.3437748,-1.2605076000000002,85.50252234,-4.42323576,-55.25606952
0.4800000000000001,48,-0.078,-1.003,-0.022,1.3750992,0.5156622000000001,-0.8594370000000001,85.51971108000002,-4.41750618,-55.25033994
0.4900000000000001,49,-0.078,-1.007,-0.029,1.2605076000000002,0.572958,-0.4583664000000001,85.53117024000002,-4.4117766000000005,-55.24461036
0.5000000000000001,50,-0.078,-1.007,-0.032,1.4896908000000002,0.4010706,0.0,85.54262940000002,-4.4117766000000005,-55.23888078
0.5100000000000001,51,-0.081,-1.002,-0.033,2.1199446,0.2291832000000001,0.4010706,85.56554772,-4.41750618,-55.23888078
0.5200000000000001,52,-0.085,-0.996,-0.031,2.7501984,0.057295800000000015,0.5156622000000001,85.63430267999998,-4.42896534,-55.22169204000001
0.5300000000000001,53,-0.086,-0.99,-0.028,3.2658606,0.286479,0.4010706,85.66868016,-4.43469492,-55.21596246
0.5400000000000001,54,-0.087,-0.987,-0.026,3.724227,0.9167328,0.11459160000000004,85.70305764,-4.43469492,-55.20450329999999
0.5500000000000002,55,-0.085,-0.991,-0.024,3.9534102,1.9480572,-0.11459160000000004,85.7431647,-4.43469492,-55.18731455999999
0.5600000000000002,56,-0.083,-0.994,-0.026,4.010706000000001,2.7501984,-0.057295800000000015,85.78327176,-4.42896534,-55.15866666000001
0.5700000000000001,57,-0.08,-0.999,-0.03,3.7815227999999994,3.2085648,0.1718874,85.83483798,-4.42896534,-55.12428918000001
0.5800000000000001,58,-0.077,-1.002,-0.033,3.6096354,3.151269,0.572958,85.86921545999998,-4.43469492,-55.09564128
0.5900000000000001,59,-0.07400000000000001,-1.004,-0.041,3.380452200000001,2.86479,0.9167328,85.90359294,-4.4404245000000016,-55.06126379999999
0.6000000000000001,60,-0.071,-1.005,-0.046,3.2085648,2.4064236,1.0313244,85.93224083999998,-4.45188366,-55.03834548
0.6100000000000001,61,-0.073,-1.007,-0.052000000000000005,3.0366774,1.8334656000000005,1.0313244,85.96088874,-4.45761324,-55.02115674
0.6200000000000001,62,-0.076,-1.011,-0.053,2.6929026,1.432395,0.8594370000000001,85.97807748,-4.45761324,-55.00969758
0.6300000000000001,63,-0.078,-1.022,-0.056,1.8907613999999997,1.2032118,0.572958,86.0009958,-4.46334282,-54.99823841999999
0.6400000000000001,64,-0.079,-1.031,-0.061,1.2605076000000002,1.145916,0.286479,86.01245496,-4.46334282,-54.98677925999999
0.6500000000000001,65,-0.079,-1.037,-0.064,0.7448454000000001,1.2032118,0.057295800000000015,86.01818454000002,-4.46334282,-54.9753201
0.6600000000000001,66,-0.081,-1.037,-0.068,0.2291832000000001,1.5469866,-0.1718874,86.01818454000002,-4.46334282,-54.95813136
0.6700000000000002,67,-0.083,-1.036,-0.07200000000000001,-0.6875496,2.3491278,-0.4583664000000001,85.97807748,-4.45761324,-54.94094262
0.6800000000000002,68,-0.08199999999999999,-1.037,-0.077,-2.1199446,3.4950437999999995,-0.7448454000000001,85.94942957999999,-4.44615408,-54.90656514
0.6900000000000002,69,-0.075,-1.034,-0.079,-3.9534102,4.5263682,-0.7448454000000001,85.90359294,-4.4404245000000016,-54.86072849999999
0.7000000000000002,70,-0.07,-1.037,-0.07200000000000001,-6.0733548,5.6722842,-0.572958,85.84056756,-4.42896534,-54.80916228000001
0.7100000000000002,71,-0.063,-1.044,-0.07,-9.6829902,6.6463128000000005,-0.3437748,85.73170554,-4.42323576,-54.74040732
0.7200000000000002,72,-0.058,-1.047,-0.07400000000000001,-13.178034,6.760904399999999,-0.286479,85.58846604,-4.4117766000000005,-54.68311152
0.7300000000000002,73,-0.059,-1.0490000000000002,-0.078,-16.673077799999998,6.5317212,-0.5156622000000001,85.41084906,-4.40604702,-54.62008614
0.7400000000000001,74,-0.057,-1.054,-0.08800000000000001,-20.8556712,6.9327918,-1.0313244,85.19312502,-4.39458786,-54.55706076
0.7500000000000001,75,-0.059,-1.058,-0.109,-25.4393352,6.703608600000001,-1.432395,84.92956434,-4.37739912,-54.49403537999999
0.7600000000000001,76,-0.063,-1.06,-0.126,-28.8770832,6.0733548,-1.8334656000000005,84.63162618,-4.3544808,-54.43673958
0.7700000000000001,77,-0.064,-1.057,-0.14300000000000002,-31.741873200000004,6.589017,-2.86479,84.29358096,-4.325832900000001,-54.37944378
0.7800000000000001,78,-0.066,-1.0490000000000002,-0.162,-35.5806918,8.078707799999998,-3.8961144,83.92688783999998,-4.27999626,-54.31068882
0.7900000000000001,79,-0.073,-1.043,-0.172,-39.820581,9.568398599999998,-5.042030400000002,83.51435808,-4.22843004,-54.22474512
0.8000000000000002,80,-0.078,-1.04,-0.183,-44.4615408,11.2872726,-6.5317212,83.05599168,-4.15967508,-54.12161268
0.8100000000000002,81,-0.073,-1.028,-0.204,-48.7587258,13.407217200000002,-7.2765666,82.54605906,-4.0794609600000005,-54.00702108
0.8200000000000002,82,-0.066,-1.016,-0.234,-51.56622,14.7823164,-6.875496000000001,82.00174896,-3.99924684,-53.87524074
0.8300000000000002,83,-0.06,-1.012,-0.255,-53.628868800000006,16.4438946,-6.2452422,81.4459797,-3.9247623,-53.72627166000001
0.8400000000000002,84,-0.057,-1.016,-0.271,-57.1812084,18.2200644,-6.417129599999999,80.85010338000002,-3.8388186000000006,-53.56584342
0.8500000000000002,85,-0.048,-1.004,-0.27,-62.051351399999994,21.9442914,-7.3911582,80.20266084,-3.74714532,-53.36530812
0.8600000000000002,86,-0.041,-0.962,-0.25,-68.41118519999999,26.2414764,-7.906820400000001,79.49219292000002,-3.63255372,-53.13039533999999
0.8700000000000002,87,-0.036000000000000004,-0.918,-0.26,-75.8023434,26.9863218,-8.078707799999998,78.6957813,-3.51796212,-52.88975298
0.8800000000000002,88,-0.032,-0.8809999999999999,-0.298,-83.07891,27.7311672,-8.193299399999999,77.83634430000002,-3.39764094,-52.64338104000001
0.8900000000000001,89,-0.04,-0.83,-0.321,-88.7511942,28.5906042,-8.3651868,76.91388192,-3.27159018,-52.39127952
0.9000000000000001,90,-0.043,-0.772,-0.315,-91.3295052,32.4294228,-9.167328,75.96850122000002,-3.12835068,-52.11053010000001
0.9100000000000001,91,-0.02,-0.7120000000000001,-0.31,-93.1629708,38.3308902,-9.797581800000001,75.0002022,-2.9564632800000004,-51.77248488
0.9200000000000002,92,0.011,-0.6609999999999999,-0.299,-95.5120986,40.737313799999995,-9.224623800000002,73.9975257,-2.7788463,-51.41725092
0.9300000000000002,93,0.04,-0.617,-0.292,-98.6633676,37.5860448,-7.5630456000000015,72.97766046000002,-2.62414764,-51.08493528
0.9400000000000002,94,0.052000000000000005,-0.6,-0.328,-102.1011156,32.830493399999995,-4.7555514,71.92341774,-2.49809688,-50.79845628
0.9500000000000002,95,0.055,-0.584,-0.355,-103.3616232,27.3873924,-2.0626488000000003,70.85771586000001,-2.41215318,-50.55208434000001
0.9600000000000002,96,0.052000000000000005,-0.569,-0.342,-102.273003,22.058883,-0.1718874,69.80920272,-2.35485738,-50.35154904
0.9700000000000002,97,0.055,-0.552,-0.331,-101.127087,16.329303,0.1718874,68.77214874,-2.30902074,-50.21403912
0.9800000000000002,98,0.052000000000000005,-0.527,-0.304,-100.3822416,11.3445684,-0.572958,67.74655392,-2.2746432600000004,-50.11663626
0.9900000000000002,99,0.039,-0.506,-0.273,-100.7833122,7.7922288,-1.4896908000000002,66.72095909999999,-2.24599536,-50.05934046
1.0000000000000002,100,0.028,-0.4920000000000001,-0.261,-101.7573408,6.2452422,-3.380452200000001,65.68390511999999,-2.2058883,-50.01923340000001
1.0100000000000002,101,0.023,-0.504,-0.308,-103.4762148,4.297185,-5.6149884000000005,64.63539198000001,-2.1485925000000003,-50.01350382
1.0200000000000002,102,0.031,-0.5539999999999999,-0.366,-102.9032568,1.2032118,-7.161975,63.58114926,-2.0912967,-50.04215172
1.0300000000000002,103,0.034,-0.622,-0.369,-100.554129,-3.2658606,-8.021412000000002,62.5670136,-2.04546006,-50.11663626
1.0400000000000003,104,0.024,-0.662,-0.307,-98.548776,-4.6982556,-8.9954406,61.57006668,-1.99962342,-50.20257996
1.0500000000000003,105,-0.004,-0.6629999999999999,-0.262,-97.1736768,-6.130650599999999,-8.880849000000003,60.58457892,-1.9595163600000003,-50.3057124
1.0600000000000003,106,-0.031,-0.5870000000000001,-0.249,-94.4234784,-7.333862400000001,-9.8548776,59.63346864,-1.92513888,-50.42603358
1.0700000000000003,107,-0.022,-0.519,-0.253,-91.0430262,-8.59437,-11.6310474,58.71673584,-1.87357266,-50.5635435
1.0800000000000003,108,-0.02,-0.513,-0.28,-86.80313699999998,-12.318597,-12.4904844,57.840110100000004,-1.84492476,-50.74116048
1.0900000000000003,109,-0.005,-0.557,-0.238,-80.50059900000002,-15.6990492,-12.891555,57.03223932000001,-1.82200644,-50.94742536
1.1000000000000003,110,0.008,-0.605,-0.243,-74.2553568,-17.589810600000003,-14.0947668,56.28739392,-1.81054728,-51.17660856
1.1100000000000003,111,0.017,-0.647,-0.262,-67.3798608,-18.449247600000003,-15.870936600000002,55.61130347999999,-1.78762896,-51.4229805
1.1200000000000003,112,0.035,-0.679,-0.279,-61.07732280000001,-18.907614000000002,-17.303331600000003,55.01542716,-1.7475218999999995,-51.68081159999999
1.1300000000000001,113,0.064,-0.71,-0.359,-56.2644756,-21.3140376,-16.272007199999994,54.45392832,-1.74179232,-51.95010186
1.1400000000000001,114,0.067,-0.7340000000000001,-0.395,-48.987909,-24.5226024,-13.6364004,53.96691402,-1.77044022,-52.23658086
1.1500000000000001,115,0.04,-0.768,-0.413,-44.2896534,-26.929026,-10.599723,53.53146594,-1.84492476,-52.51733028
1.1600000000000001,116,0.001,-0.767,-0.419,-39.7632852,-28.81978740000001,-9.5111028,53.1418545,-1.93659804,-52.80953886
1.1700000000000002,117,-0.068,-0.775,-0.458,-33.6899304,-28.0176462,-10.1413566,52.81526844,-2.02827132,-53.09028828
1.1800000000000002,118,-0.095,-0.755,-0.467,-27.8457588,-25.6685184,-12.605076,52.54597818,-2.07983754,-53.37676728
1.1900000000000002,119,-0.099,-0.762,-0.514,-21.6578124,-23.0902074,-13.9228794,52.33971329999999,-2.10848544,-53.64605754
1.2000000000000002,120,-0.086,-0.768,-0.5489999999999999,-15.0687954,-21.199446,-14.8396122,52.20220338,-2.11421502,-53.90388864000001
1.2100000000000002,121,-0.077,-0.826,-0.5820000000000001,-9.3392154,-18.9649098,-13.750992000000002,52.11625968,-2.1199446,-54.13880142000001
1.2200000000000002,122,-0.028,-0.845,-0.617,-3.4377480000000005,-15.527161800000002,-13.0061466,52.08761178,-2.10275586,-54.35079588
1.2300000000000002,123,-0.009000000000000001,-0.86,-0.636,2.9793816000000004,-13.407217200000002,-11.8029348,52.12771884,-2.08556712,-54.52841285999999
1.2400000000000002,124,-0.001,-0.872,-0.662,8.8235532,-12.032117999999999,-10.7143146,52.2251217,-2.07410796,-54.68884110000001
1.2500000000000002,125,0.006,-0.8859999999999999,-0.6759999999999999,14.2093584,-11.5737516,-10.255948199999999,52.37982036,-2.05691922,-54.84353976
1.2600000000000002,126,-0.012,-0.885,-0.687,19.767051,-11.8602306,-10.4851314,52.58608524,-2.03973048,-54.99823841999999
1.2700000000000002,127,-0.038,-0.8690000000000001,-0.713,26.2414764,-11.45916,-10.5424272,52.84964592,-2.02254174,-55.15866666000001
1.2800000000000002,128,-0.047,-0.8740000000000001,-0.736,32.486718599999996,-10.8289062,-10.1986524,53.18769113999999,-1.99962342,-55.30190616
1.2900000000000003,129,-0.028,-0.885,-0.6759999999999999,37.757932200000006,-9.1100322,-9.453807000000001,53.57730258,-1.97097552,-55.4336865
1.3000000000000003,130,0.001,-0.8809999999999999,-0.6579999999999999,40.966497,-8.9381448,-8.193299399999999,53.99556192,-1.9480572000000005,-55.54827810000001
1.3100000000000003,131,0.016,-0.868,-0.667,44.06047020000001,-11.0007936,-6.6463128000000005,54.44819874,-1.9480572000000005,-55.68005844
1.3200000000000003,132,0.017,-0.863,-0.601,49.560867,-12.4331886,-5.72958,54.95813136,-1.9595163600000003,-55.81183878
1.3300000000000003,133,-0.006,-0.884,-0.612,55.11855960000001,-12.605076,-4.8701430000000006,55.5196302,-1.98243468,-55.94361912
1.3400000000000003,134,-0.021,-0.903,-0.611,60.5616606,-12.605076,-3.6669312000000014,56.14415441999999,-2.01108258,-56.06394029999999
1.3500000000000003,135,-0.033,-0.925,-0.611,66.0620574,-12.834259199999998,-2.6929026,56.82024486,-2.04546006,-56.18426148
1.3600000000000003,136,-0.035,-0.929,-0.607,71.04679200000002,-12.4904844,-2.1199446,57.54790152,-2.07983754,-56.29885308
1.3700000000000003,137,-0.022,-0.925,-0.598,75.45856859999998,-11.8029348,-1.2605076000000002,58.31566524000001,-2.1199446,-56.40198552
1.3800000000000003,138,-0.008,-0.944,-0.6,79.18279559999998,-11.0007936,0.6875496,59.12353602,-2.1657812400000003,-56.49365879999999
1.3900000000000003,139,0.004,-1.007,-0.578,82.90702259999998,-10.4278356,3.380452200000001,59.97151386,-2.2345362,-56.56241376000001
1.4000000000000004,140,0.012,-1.09,-0.547,85.77181259999998,-11.0580894,5.6149884000000005,60.84241002,-2.32620948,-56.62543913999999
1.4100000000000004,141,-0.028,-1.209,-0.516,86.45936219999999,-12.9488508,7.1046792000000005,61.72476534,-2.4350715000000003,-56.69992368000001
1.4200000000000004,142,-0.038,-1.347,-0.539,84.2821218,-14.495837400000001,6.589017,62.58993191999999,-2.54393352,-56.79159696000001
1.4300000000000004,143,-0.038,-1.464,-0.486,84.4540092,-15.0114996,4.9274388,63.4550985,-2.6413363800000003,-56.90045898
1.4400000000000004,144,-0.04,-1.464,-0.38,85.42803780000001,-18.6784308,4.3544808,64.33172424,-2.7501984,-57.04369848
1.4500000000000004,145,-0.014,-1.38,-0.29600000000000004,85.77181259999998,-23.835052800000003,6.760904399999999,65.21407955999999,-2.8934379,-57.22131546000001
1.4600000000000002,146,-0.092,-1.404,-0.299,87.089616,-22.8037284,6.6463128000000005,66.11362362,-3.03094782,-57.39893244
1.4700000000000002,147,-0.133,-1.484,-0.223,87.20420759999998,-22.0015872,5.042030400000002,67.01889725999999,-3.151269,-57.57081984
1.4800000000000002,148,-0.131,-1.467,-0.189,86.34477059999998,-20.2827132,6.016058999999999,67.90698216000001,-3.2658606,-57.73124808
1.4900000000000002,149,-0.109,-1.406,-0.125,88.12094040000002,-17.589810600000003,5.6722842,68.80652622,-3.3689930400000003,-57.86875799999999
1.5000000000000002,150,-0.154,-1.339,-0.095,87.54798240000002,-17.131444199999994,3.4950437999999995,69.70607028,-3.4492071599999994,-58.01199749999999
1.5100000000000002,151,-0.19,-1.269,-0.064,85.9437,-16.558486199999994,2.1199446,70.59415518,-3.50650296,-58.14950742
1.5200000000000002,152,-0.172,-1.226,-0.028,84.51130500000002,-14.495837400000001,1.5469866,71.47651049999997,-3.5580691799999995,-58.2698286
1.5300000000000002,153,-0.13699999999999998,-1.1909999999999998,0.02,83.19350159999998,-11.8602306,1.7188740000000002,72.33021792000002,-3.59817624,-58.37296104000001
1.5400000000000003,154,-0.106,-1.139,0.047,80.5578948,-10.313244,2.3491278,73.15527744,-3.6440128800000013,-58.45317516
1.5500000000000003,155,-0.079,-1.085,0.07,77.46392159999998,-9.167328,2.6929026,73.94595948,-3.68411994,-58.52765970000001
1.5600000000000003,156,-0.071,-1.056,0.07400000000000001,73.5678072,-9.224623800000002,1.8907613999999997,74.69653446000002,-3.71276784,-58.60787382
1.5700000000000003,157,-0.073,-1.041,0.065,69.9581718,-8.7662574,0.286479,75.44137986,-3.7299565800000014,-58.67662878
1.5800000000000003,158,-0.07200000000000001,-1.01,0.084,68.01011460000001,-7.6203414,-1.0886202,76.14038862,-3.7299565800000014,-58.75111332
1.5900000000000003,159,-0.056,-0.956,0.103,66.176649,-7.6203414,-0.572958,76.81647905999998,-3.73568616,-58.81986828
1.6000000000000003,160,-0.05,-0.942,0.118,63.942112800000004,-8.250595200000001,-0.1718874,77.46965118,-3.74141574,-58.89435282
1.6100000000000003,161,-0.036000000000000004,-0.934,0.113,60.7908438,-7.906820400000001,-0.11459160000000004,78.09417540000003,-3.74714532,-58.96883736
1.6200000000000003,162,-0.035,-0.931,0.078,57.811462199999994,-8.250595200000001,-0.11459160000000004,78.71297003999999,-3.752874900000001,-59.03759232
1.6300000000000003,163,-0.034,-0.95,0.039,55.1758554,-8.9381448,-0.11459160000000004,79.28019846,-3.75860448,-59.12353602
1.6400000000000003,164,-0.037000000000000005,-0.967,0.044,54.94667220000001,-9.740286,-0.4583664000000001,79.84742688,-3.76433406,-59.21520930000001
1.6500000000000004,165,-0.044,-0.977,0.079,54.889376399999996,-10.1413566,-1.3750992,80.40892572,-3.75860448,-59.30688258
1.6600000000000004,166,-0.056,-0.96,0.095,53.5142772,-9.9121734,-1.6615782,80.96469498,-3.752874900000001,-59.40428544
1.6700000000000004,167,-0.057,-0.969,0.08800000000000001,51.5089242,-9.0527364,-1.8334656000000005,81.52046424,-3.73568616,-59.48449956
1.6800000000000004,168,-0.058,-0.998,0.083,50.0765292,-8.136003599999999,-3.2085648,82.03039686,-3.70703826,-59.56471368
1.6900000000000004,169,-0.062,-1.035,0.063,48.128471999999995,-6.9327918,-4.6409598,82.52887032,-3.6669312000000014,-59.63919822
1.7000000000000004,170,-0.065,-1.077,0.043,46.065823200000004,-4.9847345999999995,-6.130650599999999,82.99869588,-3.60390582,-59.69076444
1.7100000000000004,171,-0.062,-1.106,0.031,43.8885828,-3.4950437999999995,-6.875496000000001,83.44560312,-3.5351508600000003,-59.72514192
1.7200000000000004,172,-0.042,-1.113,0.043,41.3675676,-2.9220857999999996,-6.875496000000001,83.88678078000002,-3.46066632,-59.7595194
1.7300000000000004,173,-0.026,-1.107,0.07,40.4508348,-3.2658606,-6.3025379999999975,84.29931054,-3.39764094,-59.79389688
1.7400000000000004,174,-0.031,-1.094,0.081,39.247623,-3.8961144,-5.5576926,84.70038114,-3.34034514,-59.83400394
1.7500000000000004,175,-0.038,-1.103,0.081,37.8725238,-3.724227,-4.9274388,85.08999258,-3.2945085,-59.86838142000001
1.7600000000000005,176,-0.034,-1.095,0.087,35.7525792,-3.4950437999999995,-5.0993262,85.45668570000002,-3.24294228,-59.9027589
1.7700000000000002,177,-0.037000000000000005,-1.095,0.07200000000000001,33.804522,-3.724227,-5.2139178,85.82337881999999,-3.18564648,-59.94286595999999
1.7800000000000002,178,-0.022,-1.123,0.103,33.0596766,-2.4637194,-4.8701430000000006,86.15569446,-3.13408026,-59.96578428
1.7900000000000003,179,-0.028,-1.119,0.126,30.0229992,0.286479,-4.7555514,86.46509178,-3.0825140400000004,-59.9600547
1.8000000000000003,180,-0.038,-1.138,0.124,27.043617600000005,4.6409598,-4.3544808,86.73438204,-3.0366774000000003,-59.91421806000001
1.8100000000000003,181,-0.024,-1.138,0.096,22.631841,7.7349330000000025,-3.8961144,86.95783566,-2.99084076,-59.83973352
1.8200000000000003,182,-0.028,-1.127,0.07400000000000001,18.5065434,8.479778399999999,-2.9793816000000004,87.15837096,-2.9507337,-59.75378982
1.8300000000000003,183,-0.027000000000000003,-1.116,0.057,15.6417534,7.6776372,-2.2345362,87.31306962,-2.92781538,-59.67930528000001
1.8400000000000003,184,-0.015,-1.101,0.068,13.349921400000001,5.2139178,-1.7188740000000002,87.44484996,-2.90489706,-59.62200948000001
1.8500000000000003,185,-0.017,-1.072,0.09,12.032117999999999,1.4896908000000002,-1.6042823999999998,87.57090072000004,-2.88770832,-59.61055032
1.8600000000000003,186,-0.024,-1.033,0.095,11.1153852,-0.5156622000000001,-1.7761698,87.67976274,-2.87051958,-59.6162799
1.8700000000000003,187,-0.03,-1.008,0.079,11.2872726,-0.286479,-2.0626488000000003,87.84592056,-2.8361421,-59.6162799
1.8800000000000003,188,-0.041,-1.003,0.061,11.688343199999998,0.286479,-1.8907613999999997,87.96624174,-2.81895336,-59.61055032
1.8900000000000003,189,-0.048,-1.019,0.073,12.2040054,1.8907613999999997,-0.9740286,88.08656292,-2.8074942000000003,-59.59336158
1.9000000000000004,190,-0.032,-1.027,0.098,12.0894138,4.4117766,0.057295800000000015,88.2068841,-2.8074942000000003,-59.54752494
1.9100000000000004,191,-0.026,-1.015,0.109,11.3445684,3.6669312000000014,1.0886202,88.3214757,-2.81895336,-59.50741787999999
1.9200000000000004,192,-0.022,-1.009,0.114,10.4851314,2.2345362,1.7761698,88.4933631,-2.81322378,-59.48449956
1.9300000000000004,193,-0.021,-1.013,0.111,9.5111028,0.6875496,1.6615782,88.59076596,-2.83041252,-59.4730404
1.9400000000000004,194,-0.02,-1.024,0.105,8.193299399999999,-0.7448454000000001,1.432395,88.67670966,-2.84187168,-59.47876998
1.9500000000000004,195,-0.03,-1.026,0.1,6.9327918,-2.8074942000000003,1.7188740000000002,88.74546462,-2.85906042,-59.50741787999999
1.9600000000000004,196,-0.041,-1.03,0.101,5.72958,-3.6669312000000014,2.0626488000000003,88.80848999999998,-2.88197874,-59.54179536
1.9700000000000004,197,-0.046,-1.035,0.101,4.5263682,-3.4377480000000005,2.4064236,88.92881118,-2.89916748,-59.57044326000001
1.9800000000000004,198,-0.04,-1.025,0.101,3.7815227999999994,-2.291832,3.2085648,88.96891824000002,-2.92781538,-59.59336158
1.9900000000000004,199,-0.037000000000000005,-1.013,0.109,3.3231564,-2.0053530000000004,3.8388186,89.00329572000004,-2.96792244,-59.61055032
2.0000000000000004,200,-0.039,-1.007,0.117,3.0939732,-2.578311,4.583664,89.03767320000001,-3.0080295,-59.63346864
2.0100000000000002,201,-0.04,-1.016,0.119,2.6356068,-2.9793816000000004,4.9274388,89.06632110000002,-3.05959572,-59.66211654
2.02,202,-0.045,-1.019,0.119,2.6356068,-3.380452200000001,4.4117766,89.17518312,-3.0939732,-59.68503486
2.0300000000000002,203,-0.047,-1.019,0.113,2.291832,-3.7815227999999994,4.1825934,89.20383102000002,-3.13408026,-59.72514192
2.04,204,-0.049,-1.027,0.106,1.8334656000000005,-3.7815227999999994,3.8961144,89.22674934,-3.1741873200000006,-59.7595194
2.0500000000000003,205,-0.049,-1.034,0.103,1.5469866,-3.3231564,3.7815227999999994,89.24393807999998,-3.214294380000001,-59.79389688
2.06,206,-0.054000000000000006,-1.033,0.101,1.2032118,-2.0053530000000004,4.0680017999999984,89.25539724,-3.25440144,-59.81108562000001
2.0700000000000003,207,-0.053,-1.025,0.107,0.6875496,-0.8021411999999999,4.1252976000000015,89.41582548,-3.27159018,-59.80535604000001
2.08,208,-0.048,-1.015,0.113,0.4010706,0.2291832000000001,4.2398892,89.42155505999996,-3.31742682,-59.80535604000001
2.0900000000000003,209,-0.038,-1.018,0.113,0.0,0.6875496,4.6982556,89.42155505999996,-3.36326346,-59.79962646
2.1,210,-0.036000000000000004,-1.025,0.103,-0.9740286,0.2291832000000001,5.2712136,89.4100959,-3.4148296799999995,-59.79389688
2.1100000000000003,211,-0.031,-1.02,0.096,-1.432395,-0.11459160000000004,5.3285094000000015,89.39290716000002,-3.47212548,-59.79389688
2.12,212,-0.024,-1.018,0.102,-2.6929026,-1.2032118,4.8701430000000006,89.44447338,-3.48358464,-59.81681519999999
2.1300000000000003,213,-0.027000000000000003,-1.018,0.107,-3.724227,-2.5210152000000003,4.1252976000000015,89.40436632,-3.5236917,-59.83973352
2.14,214,-0.035,-1.007,0.107,-3.5523396000000003,-2.0626488000000003,3.3231564,89.36998884,-3.5580691799999995,-59.86265184
2.1500000000000004,215,-0.043,-1.002,0.099,-3.8388186,-0.6302538000000001,2.6929026,89.33561136,-3.58671708,-59.86838142000001
2.16,216,-0.053,-1.005,0.093,-3.4950437999999995,0.057295800000000015,2.1199446,89.29550429999998,-3.6096353999999997,-59.86838142000001
2.1700000000000004,217,-0.058,-1.015,0.085,-3.8388186,0.7448454000000001,1.5469866,89.34134094,-3.6096353999999997,-59.85692226
2.18,218,-0.056,-1.022,0.08199999999999999,-4.9274388,0.6875496,1.0886202,89.28977472,-3.62109456,-59.85119268
2.1900000000000004,219,-0.053,-1.018,0.077,-5.5003968,0.6302538000000001,0.9167328,89.23247891999998,-3.63255372,-59.8454631
2.2,220,-0.05,-1.012,0.076,-5.7868758000000025,0.4010706,1.0313244,89.17518312,-3.6440128800000013,-59.83973352
2.2100000000000004,221,-0.051,-1.005,0.07,-5.958763200000001,0.0,1.432395,89.11788732,-3.66120162,-59.83973352
2.22,222,-0.055,-0.999,0.067,-5.72958,-0.5156622000000001,2.0053530000000004,89.11215774000001,-3.6669312000000014,-59.8454631
2.2300000000000004,223,-0.054000000000000006,-1.008,0.066,-5.844171599999999,-0.6302538000000001,2.5210152000000003,89.05486194,-3.6955791,-59.85119268
2.24,224,-0.055,-1.012,0.063,-6.3598338,-1.145916,2.9793816000000004,88.99183656,-3.724227,-59.86265184
2.25,225,-0.058,-1.005,0.057,-6.4744254,-1.4896908000000002,3.3231564,88.92881118,-3.75860448,-59.87984058000001
2.2600000000000002,226,-0.057,-1.001,0.05,-6.1879464,-0.9167328,3.5523396000000003,88.8657858,-3.79298196,-59.89129974
2.27,227,-0.058,-1.004,0.054000000000000006,-6.130650599999999,-0.572958,3.7815227999999994,88.84286748000002,-3.82162986,-59.89702932
2.2800000000000002,228,-0.06,-1.002,0.061,-5.844171599999999,-0.9167328,3.8961144,88.7798421,-3.86173692,-59.9027589
2.29,229,-0.062,-1.0,0.06,-5.5003968,-1.3750992,3.7815227999999994,88.72827588,-3.90184398,-59.91994764
2.3000000000000003,230,-0.062,-1.002,0.06,-5.5576926,-1.2605076000000002,3.5523396000000003,88.67098008,-3.93622146,-59.93140680000001
2.31,231,-0.063,-1.005,0.052000000000000005,-5.6722842,-1.0313244,3.2085648,88.61368428,-3.97059894,-59.94286595999999
2.3200000000000003,232,-0.065,-1.01,0.051,-6.0733548,-1.0313244,3.2085648,88.59649553999998,-3.99351726,-59.94859554
2.33,233,-0.063,-1.012,0.052000000000000005,-6.4744254,-0.7448454000000001,3.151269,88.53347016000002,-4.02789474,-59.9600547
2.3400000000000003,234,-0.063,-1.012,0.05,-6.6463128000000005,-0.4010706,3.0939732,88.4647152,-4.05654264,-59.9600547
2.35,235,-0.064,-1.009,0.052000000000000005,-6.760904399999999,0.057295800000000015,2.9220857999999996,88.39596024,-4.09092012,-59.9600547
2.3600000000000003,236,-0.062,-1.011,0.055,-7.0473834,0.5156622000000001,2.86479,88.3214757,-4.11956802,-59.95432512
2.37,237,-0.064,-1.013,0.069,-7.6776372,0.8594370000000001,2.7501984,88.29855738,-4.13675676,-59.94286595999999
2.3800000000000003,238,-0.064,-1.01,0.077,-8.5370742,2.1772404,2.4637194,88.21261368,-4.16540466,-59.91994764
2.39,239,-0.061,-1.012,0.064,-9.6829902,2.9793816000000004,2.4637194,88.10948124000002,-4.1883229800000015,-59.89129974
2.4000000000000004,240,-0.057,-1.015,0.047,-10.1986524,2.578311,2.4064236,88.0063488,-4.21697088,-59.86838142000001
2.41,241,-0.053,-1.015,0.039,-9.453807000000001,1.7188740000000002,2.291832,87.90894594,-4.2398892,-59.85119268
2.4200000000000004,242,-0.054000000000000006,-1.018,0.037000000000000005,-9.0527364,0.6875496,2.0626488000000003,87.85165014,-4.2398892,-59.85119268
2.43,243,-0.059,-1.016,0.037000000000000005,-9.0527364,0.1718874,1.6615782,87.75997686000002,-4.25707794,-59.8454631
2.4400000000000004,244,-0.062,-1.012,0.036000000000000004,-8.7662574,0.286479,1.3178034,87.66830358,-4.27426668,-59.8454631
2.45,245,-0.066,-1.001,0.037000000000000005,-8.078707799999998,0.5156622000000001,1.2605076000000002,87.58808946,-4.28572584,-59.83973352
2.4600000000000004,246,-0.066,-0.996,0.034,-7.5057497999999985,0.8594370000000001,1.3178034,87.50787534,-4.30291458,-59.82827436
2.47,247,-0.065,-0.997,0.035,-7.333862400000001,1.0313244,1.6615782,87.47922744,-4.30291458,-59.82254478
2.4800000000000004,248,-0.06,-1.001,0.034,-7.2765666,1.2032118,1.7761698,87.4047429,-4.325832900000001,-59.81108562000001
2.49,249,-0.061,-1.003,0.034,-7.5630456000000015,0.6302538000000001,1.9480572,87.32452878000002,-4.34302164,-59.80535604000001
2.5000000000000004,250,-0.061,-0.999,0.028,-7.6203414,0.0,2.0053530000000004,87.25004424,-4.36593996,-59.80535604000001
2.5100000000000002,251,-0.062,-0.999,0.023,-7.333862400000001,-0.5156622000000001,1.8907613999999997,87.17555970000002,-4.3831287,-59.81108562000001
2.5200000000000005,252,-0.062,-0.999,0.022,-7.2192707999999985,-1.145916,1.6615782,87.14118221999998,-4.38885828,-59.82254478
2.5300000000000002,253,-0.069,-0.995,0.02,-7.333862400000001,-1.9480572,1.5469866,87.06669767999998,-4.40604702,-59.8454631
2.5400000000000005,254,-0.069,-0.99,0.024,-7.0473834,-1.8907613999999997,1.4896908000000002,86.99794272,-4.42323576,-59.86265184
2.5500000000000003,255,-0.069,-0.983,0.029,-6.760904399999999,-1.5469866,1.6042823999999998,86.92918776,-4.4404245000000016,-59.87984058000001
2.5600000000000005,256,-0.069,-0.981,0.032,-6.589017,-1.2605076000000002,1.7188740000000002,86.8604328,-4.45761324,-59.89129974
2.5700000000000003,257,-0.071,-0.986,0.03,-6.760904399999999,-1.145916,1.8907613999999997,86.84324405999998,-4.4690724,-59.89702932
2.58,258,-0.07200000000000001,-0.996,0.029,-7.1046792000000005,-1.0313244,1.9480572,86.7744891,-4.49199072,-59.90848848
2.5900000000000003,259,-0.069,-1.007,0.026,-7.2765666,-0.9740286,1.8907613999999997,86.70000456,-4.50917946,-59.91994764
2.6,260,-0.067,-1.012,0.022,-7.6203414,-0.8021411999999999,1.8334656000000005,86.62552002,-4.53209778,-59.92567722
2.6100000000000003,261,-0.064,-1.017,0.02,-7.6776372,-0.4583664000000001,1.7188740000000002,86.5453059,-4.549286520000001,-59.93140680000001
2.62,262,-0.064,-1.02,0.017,-7.906820400000001,0.057295800000000015,1.6615782,86.51092842,-4.549286520000001,-59.93713638000001
2.6300000000000003,263,-0.065,-1.019,0.019,-7.9641161999999985,0.4010706,1.7188740000000002,86.43071429999998,-4.56647526,-59.93140680000001
2.64,264,-0.067,-1.014,0.022,-7.906820400000001,0.6302538000000001,1.8907613999999997,86.35050018,-4.5836640000000015,-59.92567722
2.6500000000000004,265,-0.07,-1.015,0.025,-7.9641161999999985,0.9740286,2.0053530000000004,86.26455648,-4.60658232,-59.91421806000001
2.66,266,-0.069,-1.014,0.025,-8.3651868,1.145916,2.2345362,86.17861278000002,-4.629500640000002,-59.9027589
2.6700000000000004,267,-0.067,-1.014,0.018000000000000002,-8.59437,0.8594370000000001,2.291832,86.13277614,-4.6409598,-59.89702932
2.68,268,-0.065,-1.014,0.018000000000000002,-8.5370742,0.3437748,2.3491278,86.04683244,-4.66387812,-59.89129974
2.6900000000000004,269,-0.063,-1.015,0.023,-8.307891,0.0,2.1772404,85.96088874,-4.68679644,-59.89129974
2.7,270,-0.064,-1.013,0.03,-8.3651868,-0.4583664000000001,1.8334656000000005,85.88067462000002,-4.703985179999999,-59.89129974
2.7100000000000004,271,-0.062,-1.013,0.029,-8.7662574,-0.572958,1.6042823999999998,85.78900134,-4.72117392,-59.89702932
2.72,272,-0.066,-1.013,0.031,-9.6256944,-1.0313244,1.8334656000000005,85.7431647,-4.73263308,-59.90848848
2.7300000000000004,273,-0.069,-1.011,0.03,-10.026765,-1.432395,1.9480572,85.64576184,-4.7555514,-59.92567722
2.74,274,-0.075,-1.01,0.02,-10.3705398,-1.6615782,1.9480572,85.54262940000002,-4.77274014,-59.93713638000001
2.7500000000000004,275,-0.077,-1.01,0.015,-10.255948199999999,-1.3178034,1.8907613999999997,85.43949696000001,-4.79565846,-59.95432512
2.7600000000000002,276,-0.077,-1.008,0.022,-9.8548776,-0.4583664000000001,1.8334656000000005,85.33636451999998,-4.812847199999998,-59.95432512
2.7700000000000005,277,-0.073,-1.002,0.023,-9.6829902,0.286479,1.8907613999999997,85.29052787999998,-4.82430636,-59.95432512
2.7800000000000002,278,-0.067,-0.996,0.014,-9.5111028,0.572958,1.6615782,85.19312502,-4.8414950999999995,-59.94859554
2.7900000000000005,279,-0.069,-0.992,0.011,-9.1100322,-0.3437748,1.5469866,85.10145173999999,-4.858683839999999,-59.94859554
2.8000000000000003,280,-0.071,-0.995,0.014,-8.651665800000002,-1.0886202,1.3750992,85.01550804,-4.8701430000000006,-59.9600547
2.8100000000000005,281,-0.071,-0.997,0.019,-9.0527364,-1.2605076000000002,1.0886202,84.92383476,-4.88733174,-59.97151386
2.8200000000000003,282,-0.073,-1.002,0.01,-9.3965112,-1.6615782,0.9167328,84.87799812,-4.88733174,-59.98870260000001
2.8300000000000005,283,-0.075,-1.005,0.011,-9.6256944,-2.0626488000000003,0.8021411999999999,84.78059526000001,-4.898790900000002,-60.01162092
2.8400000000000003,284,-0.07400000000000001,-1.005,0.011,-9.6829902,-1.9480572,0.5156622000000001,84.68319240000002,-4.90452048,-60.03453924
2.8500000000000005,285,-0.075,-1.005,0.002,-9.8548776,-1.7761698,0.4010706,84.58578954,-4.91025006,-60.05172798
2.8600000000000003,286,-0.075,-1.006,0.001,-9.969469199999999,-2.0053530000000004,0.4010706,84.48838668,-4.91597964,-60.06891672
2.8700000000000006,287,-0.07400000000000001,-1.007,0.0,-10.026765,-1.8907613999999997,0.3437748,84.43682046,-4.91025006,-60.09183504
2.8800000000000003,288,-0.07200000000000001,-1.008,-0.006999999999999999,-10.026765,-1.4896908000000002,0.1718874,84.33368802,-4.91597964,-60.10902378
2.8900000000000006,289,-0.073,-1.007,-0.01,-9.6256944,-1.0886202,0.11459160000000004,84.24201474,-4.921709219999999,-60.12048294
2.9000000000000004,290,-0.075,-1.008,-0.006999999999999999,-9.453807000000001,-0.6875496,0.2291832000000001,84.14461188,-4.921709219999999,-60.12621252
2.91,291,-0.071,-1.005,-0.009000000000000001,-9.2819196,-0.3437748,0.3437748,84.04720902,-4.9274388,-60.13194209999999
2.9200000000000004,292,-0.07400000000000001,-1.006,-0.011,-9.3965112,-0.3437748,0.286479,84.00710196,-4.921709219999999,-60.13767168
2.93,293,-0.075,-1.007,-0.01,-9.453807000000001,-0.5156622000000001,0.1718874,83.91542868,-4.9274388,-60.14340126
2.9400000000000004,294,-0.076,-1.006,-0.008,-9.6256944,-0.6875496,0.11459160000000004,83.81802582,-4.9274388,-60.14913084
2.95,295,-0.081,-1.008,-0.016,-10.255948199999999,-0.1718874,0.0,83.71489338,-4.9274388,-60.15486042
2.9600000000000004,296,-0.083,-1.015,-0.023,-10.9434978,-0.1718874,0.0,83.60030178,-4.9274388,-60.15486042
2.97,297,-0.08,-1.014,-0.024,-11.4018642,-0.7448454000000001,-0.286479,83.52581724,-4.921709219999999,-60.16631957999999
2.9800000000000004,298,-0.076,-1.011,-0.027000000000000003,-11.6310474,-0.8594370000000001,-0.6302538000000001,83.41122564,-4.91597964,-60.17777874
2.99,299,-0.078,-1.007,-0.028,-11.688343199999998,-0.8021411999999999,-0.7448454000000001,83.29090446000002,-4.91025006,-60.18350832
3.0000000000000004,300,-0.075,-1.001,-0.023,-11.516455800000001,-0.4010706,-0.7448454000000001,83.17631286,-4.90452048,-60.1892379
3.0100000000000002,301,-0.078,-1.003,-0.019,-12.2040054,-0.4010706,-0.6875496,83.0502621,-4.898790900000002,-60.20069706
3.0200000000000005,302,-0.08,-1.01,-0.029,-13.750992000000002,-0.4010706,-0.6875496,82.95285924,-4.88733174,-60.20069706
3.0300000000000002,303,-0.079,-1.012,-0.032,-14.7823164,-0.1718874,-0.8594370000000001,82.79816058,-4.88160216,-60.20642664
3.0400000000000005,304,-0.07200000000000001,-1.014,-0.041,-16.042824000000003,0.0,-1.0886202,82.63773234,-4.87587258,-60.20642664
3.0500000000000003,305,-0.08,-1.019,-0.045,-17.761698000000006,-0.2291832000000001,-1.145916,82.46011536,-4.86441342,-60.21215622
3.0600000000000005,306,-0.07400000000000001,-1.021,-0.055,-19.0795014,0.286479,-1.432395,82.26530964,-4.85295426,-60.2178858
3.0700000000000003,307,-0.07400000000000001,-1.022,-0.058,-21.1421502,1.2032118,-1.7188740000000002,82.06477434,-4.83003594,-60.20642664
3.0800000000000005,308,-0.071,-1.019,-0.066,-23.0902074,3.3231564,-2.0053530000000004,81.82986156,-4.80711762,-60.18350832
3.0900000000000003,309,-0.059,-1.029,-0.07200000000000001,-24.2934192,5.042030400000002,-1.7761698,81.57776004,-4.784199299999999,-60.13767168
3.1000000000000005,310,-0.03,-1.0490000000000002,-0.084,-27.501984000000004,6.130650599999999,-0.6875496,81.29128104,-4.77274014,-60.08037588000001
3.1100000000000003,311,-0.026,-1.058,-0.11,-31.22621100000001,4.9847345999999995,0.7448454000000001,80.97042456,-4.77846972,-60.02880966
3.1200000000000006,312,-0.049,-1.056,-0.131,-32.8877892,3.3231564,1.7761698,80.63810892000002,-4.78992888,-60.00589134000001
3.1300000000000003,313,-0.073,-1.063,-0.138,-33.1742682,3.4377480000000005,1.6615782,80.29433412,-4.80138804,-59.97151386
3.1400000000000006,314,-0.094,-1.065,-0.113,-33.9191136,4.6409598,1.432395,79.95055932,-4.812847199999998,-59.92567722
3.1500000000000004,315,-0.104,-1.068,-0.085,-35.2942128,6.417129599999999,1.6615782,79.5838662,-4.82430636,-59.86265184
3.1600000000000006,316,-0.101,-1.071,-0.063,-37.9298196,7.448453999999999,1.9480572,79.19425475999998,-4.83576552,-59.7881673
3.1700000000000004,317,-0.09,-1.077,-0.073,-41.6540466,8.136003599999999,1.9480572,78.77599542,-4.84722468,-59.70795317999999
3.1800000000000006,318,-0.099,-1.073,-0.08900000000000001,-43.8885828,7.9641161999999985,1.7188740000000002,78.32335859999998,-4.85295426,-59.62773906
3.1900000000000004,319,-0.102,-1.07,-0.081,-43.1437374,8.136003599999999,1.2605076000000002,77.87645136,-4.858683839999999,-59.55325452
3.2000000000000006,320,-0.099,-1.0590000000000002,-0.06,-41.6540466,8.3651868,0.8021411999999999,77.44673286,-4.85295426,-59.4730404
3.2100000000000004,321,-0.095,-1.05,-0.033,-41.539455,8.651665800000002,0.3437748,77.01701435999998,-4.8414950999999995,-59.39282628
3.22,322,-0.087,-1.045,-0.02,-41.3102718,9.568398599999998,0.057295800000000015,76.61594376000002,-4.83003594,-59.29542342
3.2300000000000004,323,-0.085,-1.037,-0.016,-41.7113424,9.9121734,0.1718874,76.18622526,-4.81857678,-59.20375014
3.24,324,-0.081,-1.016,-0.003,-42.7999626,10.886202,0.4010706,75.73931802,-4.80138804,-59.1006177
3.2500000000000004,325,-0.057,-1.012,-0.015,-42.7999626,11.0580894,1.0313244,75.29814036,-4.78992888,-58.99748526000001
3.2600000000000002,326,-0.054000000000000006,-1.036,-0.014,-43.7166954,9.8548776,-0.057295800000000015,74.84550354000002,-4.77274014,-58.90581198
3.2700000000000005,327,-0.056,-1.033,-0.027000000000000003,-46.1804148,8.5370742,-1.145916,74.3985963,-4.74409224,-58.83132744000001
3.2800000000000002,328,-0.047,-1.028,-0.052000000000000005,-48.414951,7.2765666,-1.2032118,73.90012284,-4.71544434,-58.76830206
3.2900000000000005,329,-0.057,-1.028,-0.047,-50.3630082,5.72958,-1.3178034,73.38446064,-4.69252602,-58.71673584
3.3000000000000003,330,-0.054000000000000006,-1.032,-0.045,-52.3110654,5.3285094000000015,-1.8334656000000005,72.85160970000003,-4.669607699999999,-58.67662878
3.3100000000000005,331,-0.058,-1.047,-0.057,-55.00396800000001,4.9847345999999995,-2.4637194,72.29011086,-4.6409598,-58.64225129999999
3.3200000000000003,332,-0.065,-1.061,-0.055,-59.7595194,3.9534102,-2.7501984,71.70569370000003,-4.60658232,-58.6136034
3.3300000000000005,333,-0.068,-1.087,-0.077,-65.3745078,3.9534102,-3.0366774,71.04106241999997,-4.57220484,-58.59641466000001
3.3400000000000003,334,-0.073,-1.14,-0.017,-75.45856859999998,0.286479,-3.4950437999999995,70.27902828,-4.549286520000001,-58.60787382
3.3500000000000005,335,-0.092,-1.13,0.062,-86.8604328,-6.990087599999999,-5.6149884000000005,69.40240254,-4.5263682,-58.6995471
3.3600000000000003,336,-0.113,-1.114,0.013,-96.1423524,-8.479778399999999,-7.6203414,68.43983309999999,-4.49199072,-58.8141387
3.3700000000000006,337,-0.14800000000000002,-1.094,0.077,-101.4708618,-7.161975,-8.7662574,67.44861576,-4.45761324,-58.91727113999999
3.3800000000000003,338,-0.151,-1.115,0.055,-97.0590852,-0.6302538000000001,-9.0527364,66.46885758,-4.3831287,-58.96310778000001
3.3900000000000006,339,-0.14400000000000002,-1.136,-0.112,-103.8772854,5.2139178,-10.4278356,65.41461486,-4.28572584,-58.96310778000001
3.4000000000000004,340,-0.14800000000000002,-1.132,0.016,-94.9391406,7.906820400000001,-9.797581800000001,64.44631584,-4.17686382,-58.94018946
3.4100000000000006,341,-0.174,-1.152,0.008,-91.5013926,22.0015872,-10.313244,63.50093514,-4.00497642,-58.79122037999999
3.4200000000000004,342,-0.118,-1.082,-0.021,-97.0017894,28.361421000000004,-12.7196676,62.53263611999999,-3.78725238,-58.59641466000001
3.4300000000000006,343,-0.079,-1.107,0.08800000000000001,-94.6526616,20.168121600000006,-14.7823164,61.5643371,-3.57525792,-58.49328222000001
3.4400000000000004,344,-0.127,-1.113,0.049,-107.8879914,20.798375399999998,-14.495837400000001,60.45852816,-3.3689930400000003,-58.38442020000001
3.4500000000000006,345,-0.14,-1.061,-0.103,-114.1905294,32.945085,-14.2093584,59.28396425999999,-3.1054323600000004,-58.17815532
3.4600000000000004,346,-0.079,-1.114,-0.191,-112.9300218,38.1590028,-9.8548776,58.11512994000001,-2.84760126,-57.90886506
3.4700000000000006,347,-0.108,-1.151,-0.278,-111.5549226,33.9191136,-3.3231564,56.980673100000004,-2.6642547000000003,-57.63957480000001
3.4800000000000004,348,-0.111,-1.116,-0.428,-101.986524,24.7517856,-0.11459160000000004,55.93215996,-2.5496631,-57.43330992
3.4900000000000007,349,-0.094,-1.0659999999999998,-0.568,-91.0430262,14.667724800000002,0.9167328,55.00396800000001,-2.4923673,-57.31298874
3.5000000000000004,350,-0.062,-1.032,-0.578,-72.0208206,7.7922288,2.4064236,54.26485218000001,-2.47517856,-57.2385042
3.5100000000000007,351,-0.01,-1.02,-0.7440000000000001,-58.78549079999999,7.6776372,2.5210152000000003,53.66897586,-2.4637194,-57.16401966
3.5200000000000005,352,0.055,-1.048,-0.723,-43.3156248,8.59437,2.4064236,53.22779820000001,-2.42934192,-57.08380553999999
3.5300000000000002,353,0.078,-1.065,-0.728,-30.65325300000001,5.958763200000001,4.3544808,52.9126713,-2.42934192,-57.01505058
3.5400000000000005,354,0.02,-1.067,-0.831,-18.449247600000003,1.8334656000000005,9.167328,52.71786558,-2.49809688,-56.94629562
3.5500000000000003,355,-0.08199999999999999,-1.115,-0.848,-4.8701430000000006,0.4583664000000001,11.229976800000001,52.66629936,-2.58404058,-56.87181108
3.5600000000000005,356,-0.145,-1.145,-0.928,3.5523396000000003,2.3491278,10.313244,52.70067684000001,-2.65279554,-56.79159696000001
3.5700000000000003,357,-0.105,-1.12,-0.982,12.318597,5.042030400000002,11.688343199999998,52.81526844,-2.71582092,-56.67700536
3.5800000000000005,358,-0.025,-1.153,-0.939,22.91832,4.8128472,16.4438946,53.03872206,-2.81322378,-56.53949544
3.5900000000000003,359,0.047,-1.181,-0.935,28.762491600000004,3.380452200000001,18.3919518,53.32520106000001,-2.93927454,-56.40198552
3.6000000000000005,360,0.042,-1.194,-0.9,35.9244666,2.2345362,17.3606274,53.68616460000001,-3.05959572,-56.28166434
3.6100000000000003,361,-0.021,-1.179,-0.8270000000000001,43.544808,1.2605076000000002,14.9542038,54.12161268,-3.16845774,-56.1785319
3.6200000000000006,362,-0.07,-1.153,-0.759,50.24841660000001,1.8907613999999997,14.8396122,54.62581572000001,-3.27159018,-56.07539946000001
3.6300000000000003,363,-0.073,-1.132,-0.696,56.608250399999996,3.380452200000001,16.386598799999998,55.19304414,-3.37472262,-55.95507828
3.6400000000000006,364,-0.043,-1.131,-0.626,64.11400019999999,3.7815227999999994,17.246035799999998,55.83475709999999,-3.48931422,-55.82329794
3.6500000000000004,365,-0.041,-1.104,-0.5720000000000001,71.1613836,2.8074942000000003,15.6417534,56.5509546,-3.59244666,-55.708706340000006
3.6600000000000006,366,-0.061,-1.065,-0.531,78.49524600000002,1.8334656000000005,13.178034,57.34163663999999,-3.68411994,-55.61703306
3.6700000000000004,367,-0.059,-1.057,-0.504,82.67783940000002,1.8334656000000005,11.6310474,58.183884899999995,-3.75860448,-55.53681894
3.6800000000000006,368,-0.029,-1.055,-0.479,85.1415588,2.291832,10.886202,59.0433219,-3.83308902,-55.45087524
3.6900000000000004,369,-0.004,-1.057,-0.461,86.91772859999998,2.1199446,9.969469199999999,59.91994764,-3.896114400000001,-55.37639069999999
3.7000000000000006,370,0.011,-1.055,-0.448,87.94905299999998,1.7188740000000002,8.5370742,60.80803254,-3.94768062,-55.31336532
3.7100000000000004,371,0.023,-1.013,-0.433,88.23553199999998,1.0886202,7.1046792000000005,61.70184702,-3.99924684,-55.26752868000001
3.7200000000000006,372,0.016,-0.937,-0.409,87.83446140000002,-0.4583664000000001,6.5317212,62.59566150000001,-4.0393539,-55.23888078
3.7300000000000004,373,0.008,-0.86,-0.38,87.49068659999998,-2.1199446,7.3911582,63.47801682000001,-4.102379279999999,-55.22169204000001
3.7400000000000007,374,0.005,-0.7909999999999999,-0.35700000000000004,86.8604328,-3.6669312000000014,8.5370742,64.36037214000001,-4.1825934,-55.21023288
3.7500000000000004,375,0.003,-0.754,-0.33,86.7458412,-5.6149884000000005,8.59437,65.24272746,-4.2685371,-55.22169204000001
3.7600000000000007,376,-0.004,-0.747,-0.306,86.11558740000002,-8.880849000000003,7.7349330000000025,66.12508278,-4.36593996,-55.26179910000001
3.7700000000000005,377,-0.022,-0.738,-0.285,85.42803780000001,-12.1467096,5.958763200000001,67.00170852,-4.45188366,-55.347742800000006
3.7800000000000007,378,-0.031,-0.721,-0.277,85.77181259999998,-12.261301199999998,4.1825934,67.87833426,-4.5206386200000015,-55.43941608
3.7900000000000005,379,-0.026,-0.7020000000000001,-0.271,83.53727640000002,-12.605076,2.578311,68.73777126,-4.57793442,-55.54254852
3.8000000000000007,380,-0.016,-0.675,-0.23,83.25079740000002,-14.4385416,1.2605076000000002,69.59147868,-4.629500640000002,-55.6628697
3.8100000000000005,381,0.005,-0.6659999999999999,-0.209,80.8443738,-15.985528200000001,0.4010706,70.42799735999998,-4.675337279999999,-55.80610920000001
3.8200000000000007,382,0.018000000000000002,-0.665,-0.243,77.23473840000003,-16.2147114,0.8021411999999999,71.21867940000001,-4.71544434,-55.95507828
3.8300000000000005,383,0.014,-0.6579999999999999,-0.254,76.48989300000002,-15.756345000000001,1.3750992,72.00936143999998,-4.76701056,-56.0925882
3.8400000000000007,384,0.005,-0.657,-0.222,75.8596392,-17.0168526,2.0626488000000003,72.79431389999998,-4.82430636,-56.24728686
3.8500000000000005,385,-0.002,-0.6559999999999999,-0.203,73.10944079999999,-17.0741484,2.6929026,73.55061846,-4.88733174,-56.39625594
3.8600000000000003,386,-0.017,-0.66,-0.209,71.1613836,-17.18874,3.4377480000000005,74.28973427999998,-4.95035712,-56.54522502
3.8700000000000006,387,-0.022,-0.6629999999999999,-0.198,68.6976642,-17.8762896,4.2398892,75.0002022,-5.02484166,-56.69992368000001
3.8800000000000003,388,-0.036000000000000004,-0.6759999999999999,-0.17600000000000002,67.895523,-18.621135,4.4690724,75.70494054,-5.10505578,-56.86608150000001
3.8900000000000006,389,-0.045,-0.691,-0.19,64.9161414,-19.595163600000006,4.583664,76.38676056,-5.17954032,-57.0379689
3.9000000000000004,390,-0.056,-0.691,-0.17600000000000002,59.98870260000001,-22.0015872,4.297185,77.01701435999998,-5.25975444,-57.2385042
3.9100000000000006,391,-0.068,-0.675,-0.142,57.811462199999994,-21.027558600000006,2.9220857999999996,77.62434984000002,-5.32277982,-57.42758034
3.9200000000000004,392,-0.07400000000000001,-0.655,-0.13,56.436363,-18.2200644,1.3178034,78.21449658,-5.36861646,-57.59946774
3.9300000000000006,393,-0.079,-0.649,-0.126,53.0559108,-15.985528200000001,0.286479,78.77026584,-5.39153478,-57.74843682000001
3.9400000000000004,394,-0.092,-0.645,-0.121,48.414951,-12.605076,0.1718874,79.27446888,-5.40872352,-57.86875799999999
3.9500000000000006,395,-0.096,-0.6579999999999999,-0.118,44.117766,-9.167328,0.0,79.72710570000002,-5.42018268,-57.9547017
3.9600000000000004,396,-0.101,-0.67,-0.139,41.539455,-8.7662574,-0.8594370000000001,80.16255378,-5.42018268,-58.03491582
3.9700000000000006,397,-0.095,-0.688,-0.154,37.757932200000006,-7.448453999999999,-2.0626488000000003,80.54070606,-5.40872352,-58.10940036
3.9800000000000004,398,-0.08800000000000001,-0.6859999999999999,-0.151,31.913760600000003,-2.6929026,-2.6929026,80.86729212,-5.38007562,-58.13804826000001
3.9900000000000007,399,-0.084,-0.68,-0.159,28.8770832,0.8594370000000001,-2.9793816000000004,81.16523028,-5.3456981400000005,-58.13231868
4.000000000000001,400,-0.08199999999999999,-0.7,-0.174,26.2414764,1.8907613999999997,-2.7501984,81.42879096,-5.31705024,-58.11512994000001
4.010000000000001,401,-0.07400000000000001,-0.727,-0.198,21.7151082,2.7501984,-2.578311,81.64651500000002,-5.2826727600000005,-58.08648204
4.0200000000000005,402,-0.059,-0.75,-0.21600000000000005,19.8243468,2.578311,-2.5210152000000003,81.81267282,-5.24829528,-58.06929330000001
4.03,403,-0.047,-0.768,-0.21600000000000005,18.8503182,2.4064236,-2.1772404,82.00174896,-5.22537696,-58.04637498
4.040000000000001,404,-0.036000000000000004,-0.8029999999999999,-0.191,17.8189938,0.8021411999999999,-1.3750992,82.18509551999998,-5.20818822,-58.03491582
4.050000000000001,405,-0.021,-0.815,-0.16399999999999998,14.037471,-0.6302538000000001,-2.3491278,82.32833502,-5.17954032,-58.04637498
4.0600000000000005,406,-0.026,-0.85,-0.157,10.6570188,-2.6356068,-3.0939732,82.43719704,-5.15089242,-58.07502287999999
4.07,407,-0.032,-0.893,-0.172,8.021412000000002,-4.1825934,-3.3231564,82.48303368,-5.0935966200000005,-58.13804826000001
4.080000000000001,408,-0.038,-0.929,-0.17600000000000002,6.3025379999999975,-4.7555514,-2.8074942000000003,82.55178864,-5.0706783,-58.18961448
4.090000000000001,409,-0.053,-0.959,-0.163,6.016058999999999,-4.9847345999999995,-2.3491278,82.61481402000003,-5.05348956,-58.2411807
4.1000000000000005,410,-0.064,-0.983,-0.138,6.1879464,-5.5576926,-1.7761698,82.68356897999998,-5.042030400000002,-58.29847650000001
4.11,411,-0.065,-0.996,-0.12,6.5317212,-4.8701430000000006,-0.9167328,82.75805352,-5.03630082,-58.35004272
4.120000000000001,412,-0.071,-1.002,-0.106,6.417129599999999,-4.9847345999999995,-0.572958,82.83253806,-5.01911208,-58.40733852000001
4.130000000000001,413,-0.077,-1.003,-0.09,7.0473834,-5.2712136,-0.286479,82.90702259999998,-5.02484166,-58.45890474
4.140000000000001,414,-0.076,-1.02,-0.068,6.6463128000000005,-4.5263682,-0.286479,82.98150714,-5.02484166,-58.49901180000001
4.15,415,-0.073,-1.028,-0.055,5.5576926,-4.297185,0.0,83.04453251999998,-5.02484166,-58.54484844
4.160000000000001,416,-0.07400000000000001,-1.035,-0.053,4.297185,-4.7555514,-0.1718874,83.09036916,-5.03057124,-58.59068508
4.170000000000001,417,-0.07200000000000001,-1.025,-0.057,2.8074942000000003,-5.0993262,-0.3437748,83.17058328,-5.001923339999999,-58.65371046
4.180000000000001,418,-0.069,-1.007,-0.058,2.5210152000000003,-5.2139178,-0.6875496,83.19923118,-5.001923339999999,-58.70527668
4.19,419,-0.068,-0.988,-0.056,2.9220857999999996,-5.7868758000000025,-0.8021411999999999,83.23933824000002,-4.99619376,-58.76257248
4.2,420,-0.068,-0.974,-0.041,3.6669312000000014,-6.3598338,-1.3178034,83.27944529999998,-4.99046418,-58.82559786
4.210000000000001,421,-0.075,-0.976,-0.038,2.86479,-6.2452422,-2.291832,83.31382278,-4.97327544,-58.89435282
4.220000000000001,422,-0.084,-0.979,-0.041,1.6615782,-5.6722842,-2.8074942000000003,83.38257774,-4.94462754,-58.94591904
4.23,423,-0.092,-0.977,-0.05,0.4010706,-4.8701430000000006,-2.9793816000000004,83.3940369,-4.921709219999999,-58.99748526000001
4.24,424,-0.098,-0.976,-0.052000000000000005,-0.4583664000000001,-3.2085648,-2.9793816000000004,83.3940369,-4.893061319999998,-59.03759232
4.250000000000001,425,-0.093,-0.98,-0.043,-1.145916,-0.4583664000000001,-2.86479,83.38257774,-4.86441342,-59.0433219
4.260000000000001,426,-0.08900000000000001,-0.99,-0.041,-1.0313244,1.2605076000000002,-2.3491278,83.37111858,-4.8414950999999995,-59.03186274000001
4.2700000000000005,427,-0.084,-1.001,-0.046,-1.0886202,2.578311,-1.4896908000000002,83.44560312,-4.812847199999998,-59.00894442
4.28,428,-0.079,-1.01,-0.047,-0.8021411999999999,3.2658606,-0.6302538000000001,83.43414396,-4.80711762,-58.97456694
4.290000000000001,429,-0.073,-1.01,-0.036000000000000004,-0.4583664000000001,3.7815227999999994,0.2291832000000001,83.4226848,-4.80138804,-58.93445988
4.300000000000001,430,-0.07,-1.012,-0.032,-0.11459160000000004,4.1252976000000015,0.6302538000000001,83.41695522,-4.80711762,-58.89435282
4.3100000000000005,431,-0.07,-1.01,-0.029,-0.3437748,3.7815227999999994,0.7448454000000001,83.41122564,-4.812847199999998,-58.85424576000001
4.32,432,-0.07,-1.007,-0.033,-0.1718874,3.380452200000001,0.9740286,83.53727640000002,-4.784199299999999,-58.83132744000001
4.330000000000001,433,-0.069,-1.001,-0.022,0.0,3.0939732,0.9740286,83.53154682,-4.78992888,-58.796949960000006
4.340000000000001,434,-0.066,-0.998,-0.015,0.6875496,3.724227,0.9167328,83.53727640000002,-4.79565846,-58.7568429
4.3500000000000005,435,-0.06,-1.004,-0.013,0.3437748,4.4117766,0.8594370000000001,83.53727640000002,-4.80138804,-58.71673584
4.36,436,-0.058,-1.01,-0.024,-0.4010706,4.0680017999999984,1.0313244,83.52581724,-4.80711762,-58.67089920000001
4.370000000000001,437,-0.064,-1.009,-0.03,-0.8594370000000001,3.6096354,1.2032118,83.60603136,-4.784199299999999,-58.64798088
4.380000000000001,438,-0.07200000000000001,-1.011,-0.028,-0.8021411999999999,3.6669312000000014,1.3178034,83.5945722,-4.79565846,-58.60787382
4.390000000000001,439,-0.073,-1.008,-0.022,-0.286479,4.0680017999999984,1.2605076000000002,83.58884262000002,-4.80138804,-58.56776676
4.4,440,-0.078,-1.006,-0.015,-0.572958,3.8388186,1.4896908000000002,83.57738346,-4.812847199999998,-58.52765970000001
4.410000000000001,441,-0.071,-1.004,-0.018000000000000002,-0.9167328,3.9534102,1.7761698,83.5659243,-4.83003594,-58.48755264
4.420000000000001,442,-0.065,-1.001,-0.021,-0.6875496,4.9274388,1.7761698,83.62894968,-4.81857678,-58.44171600000001
4.430000000000001,443,-0.065,-1.001,-0.012,-0.8021411999999999,5.5576926,1.6615782,83.61749052,-4.83003594,-58.38442020000001
4.44,444,-0.061,-1.004,-0.019,-1.3178034,5.958763200000001,1.4896908000000002,83.5945722,-4.8414950999999995,-58.32139482
4.450000000000001,445,-0.059,-1.004,-0.031,-1.3750992,5.844171599999999,1.4896908000000002,83.57738346,-4.85295426,-58.26409902
4.460000000000001,446,-0.059,-1.006,-0.03,-0.8594370000000001,5.3858052,1.432395,83.56019472,-4.858683839999999,-58.20680322000001
4.470000000000001,447,-0.06,-1.01,-0.024,-0.4583664000000001,4.3544808,1.3178034,83.65186800000002,-4.82430636,-58.183884899999995
4.48,448,-0.061,-1.015,-0.019,-0.6875496,3.4950437999999995,0.9740286,83.64040884,-4.83003594,-58.14377784
4.49,449,-0.062,-1.019,-0.023,-0.8594370000000001,3.3231564,0.7448454000000001,83.62894968,-4.83576552,-58.10940036
4.500000000000001,450,-0.06,-1.017,-0.029,-0.8021411999999999,3.2085648,0.572958,83.61749052,-4.8414950999999995,-58.08075246000001
4.510000000000001,451,-0.059,-1.008,-0.032,-0.572958,3.151269,0.4583664000000001,83.61176094,-4.8414950999999995,-58.04637498
4.5200000000000005,452,-0.056,-0.99,-0.033,-0.1718874,3.0939732,0.4010706,83.72635254,-4.77274014,-58.04637498
4.53,453,-0.056,-0.985,-0.031,0.0,3.0366774,0.3437748,83.72062296,-4.77846972,-58.01772708
4.540000000000001,454,-0.054000000000000006,-0.987,-0.022,-0.4010706,3.0366774,0.286479,83.71489338,-4.77846972,-57.98907918
4.550000000000001,455,-0.055,-0.993,-0.026,-0.8594370000000001,2.3491278,0.2291832000000001,83.70343421999998,-4.77846972,-57.96043128
4.5600000000000005,456,-0.053,-0.999,-0.033,-1.3178034,1.9480572,0.11459160000000004,83.68624548,-4.77846972,-57.94324253999999
4.57,457,-0.056,-1.0,-0.04,-1.3750992,1.4896908000000002,0.1718874,83.80656666,-4.69252602,-57.96616086
4.580000000000001,458,-0.056,-1.005,-0.034,-1.3750992,1.0313244,0.2291832000000001,83.78937792,-4.69252602,-57.9547017
4.590000000000001,459,-0.056,-1.008,-0.024,-1.6042823999999998,0.286479,0.057295800000000015,83.77218918,-4.69252602,-57.9547017
4.6000000000000005,460,-0.057,-1.012,-0.024,-1.7761698,-0.1718874,-0.11459160000000004,83.75500044,-4.69252602,-57.9547017
4.61,461,-0.056,-1.015,-0.029,-1.7761698,-0.4583664000000001,-0.3437748,83.73781170000002,-4.69252602,-57.96043128
4.620000000000001,462,-0.057,-1.015,-0.03,-1.6615782,-0.8021411999999999,-0.572958,83.86386246,-4.612311900000001,-58.00053833999999
4.630000000000001,463,-0.06,-1.013,-0.028,-1.8907613999999997,-0.9167328,-0.7448454000000001,83.84667372,-4.60658232,-58.01199749999999
4.640000000000001,464,-0.06,-1.012,-0.017,-2.2345362,-0.5156622000000001,-0.8021411999999999,83.82375540000002,-4.59512316,-58.01772708
4.65,465,-0.061,-1.016,-0.012,-3.380452200000001,-0.8021411999999999,-0.9740286,83.78937792,-4.58939358,-58.02918624
4.660000000000001,466,-0.062,-1.015,-0.016,-4.0680017999999984,-1.2032118,-1.0886202,83.74927086,-4.57793442,-58.0406454
4.670000000000001,467,-0.064,-1.015,-0.017,-3.380452200000001,-1.3750992,-1.0886202,83.81802582,-4.54355694,-58.06356372000001
4.680000000000001,468,-0.066,-1.019,-0.019,-3.0366774,-1.3750992,-1.0886202,83.78937792,-4.53209778,-58.07502287999999
4.69,469,-0.066,-1.019,-0.02,-2.86479,-1.145916,-1.0886202,83.76073002,-4.5206386200000015,-58.09221162
4.700000000000001,470,-0.066,-1.018,-0.017,-2.291832,-1.145916,-1.0886202,83.73781170000002,-4.50917946,-58.10367078
4.710000000000001,471,-0.066,-1.015,-0.015,-1.6042823999999998,-0.6302538000000001,-1.0313244,83.72062296,-4.50344988,-58.10940036
4.720000000000001,472,-0.06,-1.015,-0.021,-1.7761698,-0.2291832000000001,-0.8021411999999999,83.86386246,-4.42896534,-58.13804826000001
4.73,473,-0.055,-1.01,-0.028,-2.0626488000000003,-0.6875496,-0.6875496,83.84667372,-4.42323576,-58.14377784
4.740000000000001,474,-0.052000000000000005,-1.007,-0.031,-1.9480572,-1.5469866,-0.7448454000000001,83.82375540000002,-4.41750618,-58.16096658
4.750000000000001,475,-0.055,-1.012,-0.033,-2.1199446,-2.4064236,-0.8021411999999999,83.80656666,-4.40604702,-58.18961448
4.760000000000001,476,-0.063,-1.012,-0.035,-2.1772404,-3.2085648,-0.9740286,83.78937792,-4.40031744,-58.21826238
4.7700000000000005,477,-0.067,-1.009,-0.04,-1.8907613999999997,-2.86479,-1.145916,83.84094414,-4.37166954,-58.25836943999999
4.780000000000001,478,-0.068,-1.002,-0.04,-1.3178034,-2.1772404,-0.9740286,83.82948498,-4.36593996,-58.28128776
4.790000000000001,479,-0.07,-0.999,-0.04,-1.2605076000000002,-1.6615782,-0.8021411999999999,83.81229624,-4.3544808,-58.29847650000001
4.800000000000001,480,-0.071,-0.995,-0.035,-1.5469866,-1.3750992,-0.7448454000000001,83.80083708,-4.34875122,-58.30993566
4.8100000000000005,481,-0.069,-0.993,-0.037000000000000005,-1.9480572,-0.7448454000000001,-0.6875496,83.78364833999998,-4.34302164,-58.32139482
4.82,482,-0.068,-0.993,-0.033,-2.578311,-0.057295800000000015,-0.7448454000000001,83.87532162,-4.30291458,-58.3271244
4.830000000000001,483,-0.06,-0.992,-0.032,-3.151269,0.286479,-0.6302538000000001,83.84667372,-4.297185000000002,-58.3271244
4.840000000000001,484,-0.061,-0.989,-0.035,-3.4950437999999995,0.1718874,-0.2291832000000001,83.80656666,-4.29145542,-58.32139482
4.8500000000000005,485,-0.063,-0.993,-0.038,-4.010706000000001,-0.11459160000000004,0.0,83.76645959999998,-4.29145542,-58.3271244
4.86,486,-0.067,-0.998,-0.039,-4.1825934,-0.4010706,0.0,83.72635254,-4.29145542,-58.33285398
4.870000000000001,487,-0.068,-1.006,-0.038,-3.8961144,-0.7448454000000001,0.0,83.77791876,-4.27426668,-58.33858356
4.880000000000001,488,-0.068,-1.013,-0.031,-3.5523396000000003,-0.4010706,0.0,83.74354128,-4.27999626,-58.34431314
4.890000000000001,489,-0.065,-1.016,-0.023,-3.3231564,-0.11459160000000004,-0.057295800000000015,83.7091638,-4.27426668,-58.34431314
4.9,490,-0.063,-1.014,-0.015,-2.8074942000000003,-0.572958,-0.286479,83.6805159,-4.27426668,-58.35004272
