TimeStamp(s),FrameCounter,AccX,AccY,AccZ,GyrX,GyrY,GyrZ,EulerX,EulerY,EulerZ
0.01,1,-0.085,-0.9620000000000001,-0.068,-16.673077799999998,9.7975818,-3.3231564,3.4950437999999995,6.93852138,-67.43715660000001
0.02,2,-0.05,-0.9670000000000001,-0.081,-17.3606274,7.0473834,-3.4377480000000005,3.3116972399999995,7.00727634,-67.4658045
0.03,3,-0.005,-0.988,-0.071,-17.3606274,3.2658606,-2.4637194,3.13408026,7.03592424,-67.48299324000001
0.04,4,0.006,-0.991,-0.055999999999999994,-17.6471064,0.4583664000000001,0.11459160000000004,2.9564632800000004,7.0416538200000005,-67.48299324000001
0.05,5,-0.008,-0.9790000000000001,-0.055999999999999994,-18.048177,-2.5783110000000002,1.6042823999999998,2.94500412,7.001546759999999,-67.33402416
0.060000000000000005,6,-0.028999999999999998,-0.9690000000000001,-0.055,-18.048177,-6.4744254,2.3491277999999998,2.76738714,6.9327918,-67.31683542
0.06999999999999999,7,-0.05,-0.9690000000000001,-0.061,-18.162768600000003,-9.9694692,2.0626488000000003,2.58404058,6.83538894,-67.29964668
0.08,8,-0.083,-0.9740000000000001,-0.063,-18.793022399999998,-12.261301199999998,0.6302538000000001,2.39496444,6.7093381800000005,-67.29964668
0.09,9,-0.099,-0.981,-0.057,-18.793022399999998,-13.178034,-1.3178034,2.20015872,6.57755784,-67.322565
0.09999999999999999,10,-0.1,-0.991,-0.055999999999999994,-18.7357266,-13.407217200000002,-2.9220858,2.13140376,6.428588760000001,-67.2652692
0.11,11,-0.073,-1.001,-0.043,-20.626488000000002,-13.407217200000002,-4.297185,1.91367972,6.29680842,-67.31683542
0.12,12,-0.061,-1.013,-0.024,-27.4446882,-17.9335854,-6.3598338,1.6329303,6.11919144,-67.39131996
0.13,13,-0.057999999999999996,-1.014,-0.044000000000000004,-33.2888598,-22.2880662,-8.880849000000003,1.28342592,5.895737819999999,-67.48872281999999
0.14,14,-0.037000000000000005,-0.986,-0.062,-37.1849742,-20.2827132,-10.7143146,0.89954406,5.6952025200000005,-67.60331441999999
0.15000000000000002,15,-0.004,-0.92,-0.083,-41.1383844,-13.464512999999998,-10.886202,0.53285094,5.5576926,-67.67206938000001
0.16,16,0.009000000000000001,-0.809,-0.131,-44.690723999999996,-6.9327918,-9.682990199999999,0.06875496,5.48320806,-67.76374266
0.17,17,0.012,-0.6779999999999999,-0.18100000000000002,-44.4615408,-0.286479,-5.3285094000000015,-0.37815228,5.4717489000000015,-67.81530888
0.18000000000000002,18,0.05,-0.545,-0.248,-41.1383844,6.0160589999999985,2.0626488000000003,-0.79641162,5.5290447,-67.79239056
0.19,19,0.157,-0.442,-0.299,-36.4401288,7.5057497999999985,9.2819196,-1.1573751600000002,5.6035292399999985,-67.6949877
0.2,20,0.244,-0.44,-0.32799999999999996,-31.3980984,1.7188740000000002,12.2040054,-1.43812458,5.63217714,-67.55747778
0.21000000000000002,21,0.27699999999999997,-0.58,-0.359,-28.074942,-2.2345362,8.59437,-1.71314442,5.60925882,-67.4658045
0.22,22,0.266,-0.815,-0.259,-21.7151082,5.9014674000000005,3.7815228,-1.93086846,5.66655462,-67.43142702
0.23,23,0.235,-1.087,0.0,-8.880849000000003,11.45916,1.8907614,-2.02254174,5.77541664,-67.4085087
0.24000000000000002,24,0.087,-1.4509999999999998,0.292,-13.407217200000002,-12.4904844,-6.2452422,-2.16005166,5.64936588,-67.47153408
0.25,25,-0.028999999999999998,-1.531,0.22899999999999998,-31.856464799999998,-41.6540466,-15.011499599999999,-2.47517856,5.22537696,-67.59758484
0.26,26,-0.11699999999999999,-1.4140000000000001,0.102,-29.220858000000003,-43.602103799999995,-18.1054728,-2.7788463,4.784199299999999,-67.76374266
0.27,27,-0.127,-1.443,0.16899999999999998,-23.14750320000001,-48.3576552,-18.3919518,-3.01948866,4.297185000000002,-67.93563006
0.28,28,-0.115,-1.492,0.191,-21.142150199999996,-55.4623344,-17.4179232,-3.24294228,3.73568616,-68.09032872
0.29000000000000004,29,-0.114,-1.528,0.24,-20.1108258,-54.43101,-15.9855282,-3.4492071599999994,3.18564648,-68.23356822000001
0.3,30,-0.175,-1.6,0.23800000000000002,-19.2513888,-47.0398518,-12.318597,-3.62682414,2.71009134,-68.3252415
0.31,31,-0.23399999999999999,-1.656,0.22399999999999998,-18.506543399999998,-35.52339600000001,-7.734933000000002,-3.81590028,2.3491278,-68.38826688
0.32,32,-0.254,-1.618,0.19399999999999998,-19.5378678,-22.803728399999997,-2.7501984,-4.010706,2.1199446,-68.40545562
0.33,33,-0.26,-1.568,0.154,-19.136797199999997,-8.5370742,1.0313244000000001,-4.19978214,2.0340009,-68.38826688
0.34,34,-0.243,-1.514,0.10300000000000001,-17.9335854,4.8128472,3.4950437999999995,-4.3831287,2.08556712,-68.35388940000001
0.35000000000000003,35,-0.204,-1.412,0.039,-16.4438946,15.9855282,5.1566220000000005,-4.51490904,2.24026578,-68.28513444
0.36000000000000004,36,-0.157,-1.3,-0.011000000000000001,-13.2353298,27.903054600000004,5.5003968,-4.65241896,2.51528562,-68.2392978
0.37,37,-0.10300000000000001,-1.189,-0.063,-10.3705398,35.17962120000001,3.4950437999999995,-4.76128098,2.86479,-68.22210906000001
0.38,38,-0.05,-1.081,-0.09,-7.1046792000000005,38.90384820000001,0.9167328000000001,-4.83576552,3.2486718599999995,-68.23356822000001
0.39,39,-0.008,-0.9740000000000001,-0.10300000000000001,-3.6096353999999997,40.7946096,-1.3178034,-4.88160216,3.64974246,-68.27367527999999
0.4,40,0.044000000000000004,-0.865,-0.105,0.11459160000000004,43.602103799999995,-3.8961144,-4.81857678,4.08519054,-68.28513444
0.41000000000000003,41,0.102,-0.779,-0.09,2.86479,44.8626114,-6.8182002000000015,-4.80138804,4.5206386200000015,-68.3825373
0.42000000000000004,42,0.17300000000000001,-0.72,-0.07,2.3491277999999998,46.29500640000001,-8.9381448,-4.79565846,4.97327544,-68.49712889999999
0.43,43,0.264,-0.727,-0.10800000000000001,-0.6875496,48.8160216,-8.7089616,-4.81857678,5.44883058,-68.61172049999999
0.44,44,0.321,-0.768,-0.16899999999999998,-8.880849000000003,46.123119,-3.7815228,-4.9217092199999986,5.895737819999999,-68.67474588
0.45,45,0.37799999999999995,-0.789,-0.198,-17.589810600000003,36.2682414,1.8334656000000005,-5.03630082,6.2853492599999985,-68.63463881999999
0.46,46,0.418,-0.7609999999999999,-0.267,-25.4393352,22.2880662,7.3911582,-5.29413192,6.5088028799999975,-68.57161344
0.47000000000000003,47,0.428,-0.655,-0.345,-27.903054600000004,6.4744254,11.0007936,-5.56342218,6.57755784,-68.46275141999999
0.48000000000000004,48,0.382,-0.502,-0.33,-24.0069402,-10.1413566,12.5477802,-5.79260538,6.49161414,-68.3252415
0.49,49,0.285,-0.315,-0.27899999999999997,-19.9962342,-24.2361234,14.438541599999999,-5.97595194,6.26243094,-68.16481326
0.5,50,0.15,-0.132,-0.225,-14.209358400000001,-38.67466500000001,17.761698000000006,-6.08481396,5.9014674000000005,-67.9528188
0.51,51,-0.005,-0.004,-0.263,-8.479778399999999,-51.279740999999994,19.2513888,-6.14210976,5.4144530999999985,-67.7236356
0.52,52,-0.142,-0.016,-0.28300000000000003,-4.2398892,-72.88025760000002,17.0168526,-6.15356892,4.70971476,-67.49445240000001
0.53,53,-0.325,-0.098,-0.217,-2.4637194,-79.641162,12.6623718,-6.15356892,3.94195104,-67.30537626
0.54,54,-0.484,-0.302,-0.273,-3.4377480000000005,-65.2599162,7.2765666,-6.17075766,3.3059676599999994,-67.17932549999999
0.55,55,-0.644,-0.562,-0.159,-4.7555514,-38.445481799999996,3.5523396000000003,-6.09627312,2.8074942000000003,-67.00170852
0.56,56,-0.825,-0.9590000000000001,-0.192,-8.7662574,-0.572958,0.6302538000000001,-6.18221682,2.80176462,-66.99597894
0.5700000000000001,57,-0.924,-1.344,-0.223,-12.3758928,31.3980984,1.9480572,-6.31399716,3.11116194,-66.99597894
0.5800000000000001,58,-0.835,-1.632,-0.218,-11.745639,60.50436480000001,9.0527364,-6.4400479200000005,3.71276784,-66.95587187999999
0.59,59,-0.473,-1.75,-0.21100000000000002,-9.7975818,83.9956428,21.829699800000004,-6.53745078,4.56647526,-66.81263238
0.6,60,-0.187,-1.7209999999999999,-0.043,-2.7501984,93.67863299999999,46.925260200000004,-6.5317212,5.5405038599999985,-66.41729136000001
0.61,61,0.043,-1.694,0.004,-1.0886202,89.7825186,60.045998399999995,-6.497343719999999,6.49161414,-65.89589957999999
0.62,62,0.332,-1.784,0.028999999999999998,1.6615782,76.89096359999998,57.754166399999995,-6.428588760000001,7.31094408,-65.39169654
0.63,63,0.4920000000000001,-1.906,0.053,-1.8334656000000005,55.5196302,45.9512316,-6.39994086,7.906820399999999,-64.97916677999999
0.64,64,0.44,-1.874,0.037000000000000005,-7.9641161999999985,30.366774000000003,26.814434400000003,-6.451507079999999,8.233406460000001,-64.73279484
0.65,65,0.259,-1.88,0.027000000000000003,-14.8396122,4.9274388,8.651665800000002,-6.58328742,8.29070226,-64.64112156
0.66,66,0.098,-1.899,-0.022000000000000002,-20.2254174,-15.928232399999999,-4.5263682,-6.7895523,8.12454444,-64.67549904
0.67,67,0.004,-1.83,-0.09699999999999999,-21.772404,-28.4760126,-14.0947668,-7.018735500000001,7.82660628,-64.78436106000001
0.68,68,-0.055999999999999994,-1.723,-0.154,-21.199446,-41.539455,-22.5745452,-7.25364828,7.3911582,-64.96770762
0.6900000000000001,69,-0.138,-1.594,-0.213,-21.142150199999996,-47.555514,-27.100913399999996,-7.49429064,6.8869551599999985,-65.18543166
0.7000000000000001,70,-0.203,-1.46,-0.259,-21.944291399999997,-50.24841660000001,-28.418716800000002,-7.71201468,6.348374640000001,-65.39742612
0.7100000000000001,71,-0.254,-1.307,-0.305,-21.657812399999997,-49.04520479999999,-26.1268848,-7.94692746,5.8269828599999975,-65.603691
0.72,72,-0.281,-1.1440000000000001,-0.281,-20.626488000000002,-43.1437374,-21.886995600000002,-8.164651500000002,5.37434604,-65.76984881999999
0.73,73,-0.271,-0.993,-0.242,-20.912967000000002,-34.60666320000001,-20.2827132,-8.38810512,5.0019233399999985,-65.92454748
0.74,74,-0.249,-0.8640000000000001,-0.161,-20.340009,-26.4706596,-21.772404,-8.60582916,4.70971476,-66.10789403999999
0.75,75,-0.203,-0.679,-0.179,-21.5432208,-19.9389384,-25.210151999999997,-8.80636446,4.45761324,-66.30269976
0.76,76,-0.17,-0.434,-0.207,-15.527161800000002,-3.2085647999999996,-29.736520199999998,-8.98398144,4.3831287,-66.59490833999999
0.77,77,-0.14800000000000002,-0.19399999999999998,-0.177,-4.583664,11.8602306,-31.79916900000001,-9.05846598,4.45188366,-66.9214944
0.78,78,-0.17,0.040999999999999995,-0.11900000000000001,6.5317212,23.204798999999998,-31.913760600000003,-9.0240885,4.629500640000002,-67.2652692
0.79,79,-0.228,0.264,-0.09300000000000001,19.5378678,29.9084076,-29.67922440000001,-8.857930679999997,4.87587258,-67.59758484
0.8,80,-0.327,0.42100000000000004,-0.028999999999999998,35.0650296,39.6486936,-27.272800800000002,-8.554262940000001,5.2139178,-67.90698216000001
0.81,81,-0.44,0.484,0.071,48.4722468,64.62966239999999,-28.0176462,-8.10162612,5.815523699999999,-68.2679457
0.8200000000000001,82,-0.485,0.46299999999999997,0.23800000000000002,57.754166399999995,83.19350159999998,-33.3461556,-7.574504760000001,6.5947465800000025,-68.69193462000001
0.8300000000000001,83,-0.336,0.327,0.17300000000000001,50.9359662,85.25615040000002,-35.9244666,-7.12186794,7.3911582,-69.13884186
0.8400000000000001,84,-0.134,0.07400000000000001,-0.078,22.6891368,65.89017,-30.8251404,-6.94998054,8.00995284,-69.51126456
0.85,85,0.22399999999999998,-0.184,-0.39899999999999997,4.3544808,67.3798608,-20.340009,-6.93852138,8.663124960000001,-69.76909565999999
0.86,86,0.585,-0.685,-0.508,-4.8128472,57.2385042,-3.3231564,-7.00727634,9.224623800000002,-69.85503936
0.87,87,0.795,-1.501,-0.633,-21.314037600000002,9.2819196,19.480572,-7.19635248,9.33348582,-69.66596322000001
0.88,88,0.887,-2.3819999999999997,-0.505,-20.5118964,-22.9756158,40.90920120000001,-7.328132819999999,9.15586884,-69.23051514
0.89,89,0.649,-2.162,-0.38,-14.381245800000002,-41.0237928,32.7731976,-7.408346939999999,8.794905300000002,-68.86382202
0.9,90,0.355,-1.486,-0.35,-4.2398892,-52.82672760000001,8.193299399999999,-7.39688778,8.28497268,-68.70912336
0.91,91,-0.17800000000000002,-1.636,-0.26,2.5210152000000003,-59.7595194,-11.1153852,-7.37396946,7.68336678,-68.76068957999999
0.92,92,-0.59,-1.965,-0.13,2.9793816000000004,-47.326330799999994,-29.220858000000003,-7.36823988,7.1848933200000005,-69.00706152000001
0.93,93,-0.7,-1.9280000000000002,-0.124,-5.1566220000000005,-28.533308399999996,-27.272800800000002,-7.448453999999999,6.86976642,-69.24770388
0.9400000000000001,94,-0.645,-1.801,-0.16399999999999998,-10.313244000000001,-11.2299768,-14.5531332,-7.56877518,6.7379860800000015,-69.37948422
0.9500000000000001,95,-0.439,-1.781,-0.14,-11.2299768,5.2139178,-2.5783110000000002,-7.671907620000002,6.77809314,-69.39667296
0.9600000000000001,96,-0.255,-1.7469999999999999,-0.121,-12.2040054,20.05353,6.0733548,-7.792228800000001,6.98435802,-69.35656589999999
0.97,97,-0.182,-1.742,-0.124,-13.407217200000002,35.0077338,14.610429000000002,-7.918279559999997,7.34532156,-69.24770388
0.98,98,-0.154,-1.69,-0.105,-15.183387000000002,47.9565846,22.345361999999998,-8.05578948,7.8495246,-69.08154606000001
0.99,99,-0.134,-1.515,-0.171,-17.6471064,55.576926,28.0176462,-8.21621772,8.42821218,-68.86382202
1.0,100,-0.004,-1.306,-0.22,-18.162768600000003,54.6601932,29.67922440000001,-8.33080932,9.00689976,-68.60026134
1.01,101,0.168,-1.11,-0.195,-18.048177,45.263682,29.736520199999998,-8.479778399999999,9.49391406,-68.35961898
1.02,102,0.28600000000000003,-0.9279999999999999,-0.151,-19.595163600000006,34.66395900000001,29.5646328,-8.640206639999999,9.87206634,-68.10178787999999
1.03,103,0.341,-0.745,-0.18600000000000005,-22.1161788,21.199446,27.6165756,-8.823553200000003,10.11843828,-67.84968635999999
1.04,104,0.373,-0.5489999999999999,-0.231,-18.621135,4.9847346,22.7464326,-8.97252228,10.20438198,-67.62623274
1.05,105,0.38299999999999995,-0.33299999999999996,-0.223,-9.1100322,-11.1153852,15.9855282,-9.01835892,10.13562702,-67.44288618
1.06,106,0.32799999999999996,-0.076,-0.121,2.86479,-25.0382646,11.401864199999999,-8.95533354,9.906443820000002,-67.29964668
1.07,107,0.24100000000000002,0.218,-0.02,12.2040054,-32.142943800000005,11.172680999999999,-8.80063488,9.60850566,-67.14494801999999
1.08,108,0.187,0.434,0.006,20.7983754,-32.257535399999995,14.438541599999999,-8.554262940000001,9.31629708,-66.96733104
1.09,109,0.147,0.496,0.048,28.7051958,-34.262888399999994,18.7357266,-8.2219473,9.01262934,-66.73814784
1.1,110,0.14400000000000002,0.469,0.052000000000000005,35.8671708,-40.1643558,26.1841806,-7.82660628,8.663124960000001,-66.4344801
1.11,111,0.17800000000000002,0.35600000000000004,0.066,42.456187799999995,-55.3477428,33.6326346,-7.333862399999999,8.164651500000002,-66.04486865999999
1.12,112,0.11800000000000001,0.191,-0.047,35.122325399999994,-77.34933000000002,39.534102000000004,-6.898414319999999,7.45418358,-65.58077268
1.1300000000000001,113,0.015,0.0,-0.195,27.043617600000005,-86.40206640000002,39.304918799999996,-6.5546395199999985,6.65204238,-65.1166767
1.1400000000000001,114,-0.275,-0.266,-0.40700000000000003,16.7876694,-103.53351059999999,32.7731976,-6.3254563200000025,5.66655462,-64.70414694
1.1500000000000001,115,-0.613,-0.87,-0.584,0.6302538000000001,-97.2882684,20.168121600000006,-6.25670136,4.71544434,-64.41193836
1.1600000000000001,116,-0.96,-1.8459999999999999,-0.5720000000000001,-16.7876694,-24.9809688,1.7761698000000001,-6.4228591800000014,4.4690724,-64.3718313
1.17,117,-1.107,-2.9139999999999997,-0.581,-2.5210152000000003,14.5531332,0.6875496,-6.451507079999999,4.612311900000001,-64.37756088
1.18,118,-0.828,-2.286,-0.429,10.7143146,32.8877892,24.809081399999997,-6.3254563200000025,4.96754586,-64.15983684
1.19,119,-0.444,-1.3869999999999998,-0.345,31.1689152,52.712136,49.5035712,-5.97595194,5.5405038599999985,-63.7129296
1.2,120,-0.128,-1.411,-0.126,36.096354,62.16594300000001,63.9421128,-5.53477428,6.2165943,-63.11132370000001
1.21,121,0.252,-1.775,-0.109,28.877083199999998,62.7961968,71.9635248,-5.17381074,6.9041438999999984,-62.44096284
1.22,122,0.423,-2.061,-0.063,17.0168526,49.274388,63.6556338,-4.93316838,7.448453999999999,-61.83935694
1.23,123,0.26,-2.0909999999999997,-0.071,3.6669312000000014,29.220858000000003,35.6379876,-4.85295426,7.763580899999999,-61.50131172
1.24,124,-0.025,-2.134,0.0,-10.1986524,5.3858052,3.7815228,-4.95035712,7.820876699999999,-61.46120466
1.25,125,-0.314,-2.1390000000000002,-0.034,-22.631841,-18.793022399999998,-13.750992000000002,-5.19099948,7.620341400000001,-61.58152584
1.26,126,-0.36,-1.9569999999999999,-0.172,-24.809081399999997,-23.3766864,-17.761698000000006,-5.46028974,7.36823988,-61.74195407999999
1.27,127,-0.37799999999999995,-1.76,-0.198,-23.7204612,-20.2827132,-19.9962342,-5.71812084,7.15051584,-61.92530064
1.28,128,-0.39399999999999996,-1.6340000000000001,-0.18,-24.0069402,-22.7464326,-25.4393352,-5.9931406800000016,6.898414319999999,-62.16021342000001
1.29,129,-0.32299999999999995,-1.485,-0.20800000000000002,-24.4653066,-22.0015872,-32.0283522,-6.2738901,6.6463128,-62.458151580000006
1.3,130,-0.251,-1.2819999999999998,-0.17300000000000001,-23.7204612,-13.0634424,-35.0077338,-6.48588456,6.462966239999997,-62.75608973999999
1.31,131,-0.157,-1.002,-0.085,-21.657812399999997,0.7448454000000001,-35.236917,-6.74944524,6.428588760000001,-63.09986454
1.32,132,-0.106,-0.792,-0.048,-21.600516600000002,14.7823164,-37.81522800000001,-7.01300592,6.525991620000001,-63.48947598
1.33,133,-0.057,-0.544,-0.096,-21.199446,19.2513888,-44.4615408,-7.282296179999999,6.66350154,-63.94784238
1.34,134,-0.018000000000000002,-0.295,-0.203,-17.303331600000003,20.8556712,-50.82137460000001,-7.52293854,6.8010114600000025,-64.46923416000001
1.35,135,-0.003,-0.031,-0.23399999999999999,-4.7555514,23.204798999999998,-54.3164184,-7.648989299999997,6.955710119999999,-65.030733
1.36,136,-0.039,0.23399999999999999,-0.27399999999999997,10.1413566,24.9809688,-54.6028974,-7.620341400000001,7.1333271000000025,-65.603691
1.37,137,-0.044000000000000004,0.439,-0.165,29.392745399999995,25.0382646,-52.3683612,-7.3911582,7.316673659999997,-66.15373068
1.3800000000000001,138,-0.042,0.561,0.018000000000000002,35.809875,25.84040580000001,-48.071176200000004,-7.098949620000001,7.51720896,-66.65793372
1.3900000000000001,139,-0.038,0.626,0.132,35.9244666,25.78311,-43.888582799999995,-6.8010114600000025,7.72347384,-67.1220297
1.4000000000000001,140,-0.011000000000000001,0.581,0.126,36.096354,20.168121600000006,-40.7946096,-6.525991620000001,7.8781725000000025,-67.54601862
1.4100000000000001,141,-0.04,0.517,0.086,35.8671708,24.1215318,-37.013086799999996,-6.2165943,8.0787078,-67.93563006
1.42,142,-0.14400000000000002,0.41200000000000003,0.026000000000000002,38.5600734,43.258328999999996,-36.2109456,-5.89000824,8.47404882,-68.33670065999999
1.43,143,-0.207,0.267,-0.16399999999999998,37.9298196,70.87490460000002,-36.8411994,-5.58061092,9.138680099999998,-68.76068957999999
1.44,144,-0.162,0.031,-0.165,36.4974246,87.1469118,-34.60666320000001,-5.28840234,9.97519878,-69.16748976
1.45,145,-0.01,-0.35600000000000004,-0.262,22.1734746,82.1621772,-23.835052800000003,-5.0935966200000005,10.76588082,-69.44823918
1.46,146,0.153,-1.0,-0.596,1.6042823999999998,59.874111,-2.9793816000000004,-5.0993262,11.35029798,-69.51126456
1.47,147,0.517,-2.468,-0.711,-13.980175199999998,7.6203414,38.3308902,-5.16808116,11.45916,-69.13311228
1.48,148,0.7909999999999999,-2.885,-0.622,-27.6738714,-41.4821592,62.0513514,-5.311320660000002,11.10392604,-68.47421058
1.49,149,0.823,-1.9869999999999999,-0.539,-21.772404,-72.93755340000001,33.0596766,-5.44883058,10.41064686,-68.09032872
1.5,150,0.359,-1.297,-0.099,3.8961144,-96.37153559999999,-15.4125702,-5.38007562,9.44807742,-68.15908368000001
1.51,151,-0.45899999999999996,-1.632,0.114,12.2040054,-99.5228046,-59.0719698,-5.32277982,8.41102344,-68.68620503999999
1.52,152,-0.873,-2.108,0.247,7.448453999999999,-76.77637200000002,-83.4226848,-5.35142772,7.58023434,-69.47115749999999
1.53,153,-0.731,-2.234,0.152,-4.6409598,-42.685371,-72.70837019999998,-5.48320806,7.09322004,-70.16443668000001
1.54,154,-0.488,-2.386,0.071,-17.5325148,-17.8762896,-33.403451399999994,-5.6952025200000005,6.8812255800000015,-70.48529316
1.55,155,-0.226,-2.424,0.005,-29.392745399999995,1.3750992,8.5370742,-5.98168152,6.9041438999999984,-70.39361987999997
1.56,156,-0.045,-2.208,-0.153,-32.2002396,8.9954406,33.6899304,-6.26816052,7.0244650800000015,-70.06703381999999
1.57,157,0.027999999999999997,-1.995,-0.17600000000000002,-24.4653066,6.130650599999999,38.3308902,-6.4686958200000015,7.12186794,-69.68315196
1.58,158,0.048,-1.827,-0.2,-20.5118964,9.453807,30.137590799999998,-6.640583220000001,7.2479187000000005,-69.39094338
1.59,159,0.021,-1.679,-0.231,-15.928232399999999,14.0947668,18.3919518,-6.783822719999999,7.402617360000002,-69.21905598
1.6,160,0.022000000000000002,-1.567,-0.23399999999999999,-11.0580894,17.18874,10.3705398,-6.85257768,7.58596392,-69.11019395999999
1.61,161,0.043,-1.489,-0.213,-9.167328,17.0168526,9.453807,-6.93852138,7.763580899999999,-69.03570942
1.62,162,0.055,-1.376,-0.147,-8.9954406,13.407217200000002,15.126091199999998,-7.01300592,7.91254998,-68.89246992
1.6300000000000001,163,0.08900000000000001,-1.1179999999999999,-0.052000000000000005,-10.943497800000001,6.3025379999999975,24.8663772,-7.09322004,8.00422326,-68.65182755999999
1.6400000000000001,164,0.146,-0.8059999999999999,-0.047,-15.2406828,-6.3025379999999975,36.2682414,-7.19635248,7.9813049399999985,-68.28513444
1.6500000000000001,165,0.192,-0.48100000000000004,-0.07200000000000001,-15.4125702,-19.0222056,45.3209778,-7.265107439999999,7.860983760000001,-67.79812014000001
1.6600000000000001,166,0.21899999999999997,-0.195,-0.037000000000000005,-8.9381448,-34.4920716,50.47759979999999,-7.2765666,7.58023434,-67.2652692
1.6700000000000002,167,0.196,0.013000000000000001,0.006,-3.1512689999999997,-43.0864416,50.706783,-7.2307299600000015,7.2192707999999985,-66.71522952000001
1.68,168,0.195,0.156,-0.013999999999999999,-1.8907614,-44.8053156,45.893935799999994,-7.1848933200000005,6.83538894,-66.21675606
1.69,169,0.22,0.212,-0.079,0.7448454000000001,-47.7274014,41.252976000000004,-7.116138359999999,6.417129600000001,-65.76411924
1.7,170,0.231,0.18,-0.114,6.5317212,-51.9099948,39.247623,-7.001546759999999,5.96449278,-65.32294157999999
1.71,171,0.23800000000000002,0.09699999999999999,-0.115,12.776963400000001,-55.06126379999999,38.2162986,-6.82392978,5.466019319999999,-64.89322308000001
1.72,172,0.184,0.048,-0.075,22.4026578,-56.9520252,35.122325399999994,-6.54890994,4.95035712,-64.49788206
1.73,173,0.2,0.115,-0.086,18.8503182,-54.20182679999999,32.2002396,-6.31972674,4.45188366,-64.13691852000001
1.74,174,0.254,0.264,-0.19699999999999998,14.32395,-55.11855960000001,32.7731976,-6.14210976,3.94195104,-63.76449582
1.75,175,0.3,0.327,-0.38,15.068795399999999,-73.1667366,35.9244666,-5.96449278,3.27159018,-63.35769564
1.76,176,0.158,0.237,-0.584,10.599723,-108.6328368,33.5753388,-5.82125328,2.2345362,-62.94516588000001
1.77,177,-0.141,-0.069,-0.69,-6.589017,-110.23711920000001,20.1108258,-5.861360339999999,1.1688343199999998,-62.66441646
1.78,178,-0.447,-0.466,-1.173,-32.6013102,-84.2821218,5.3285094000000015,-6.18221682,0.33804522,-62.54409528
1.79,179,-1.025,-1.094,-1.044,-31.340802600000004,-27.788463,-6.589017,-6.497343719999999,0.05156622,-62.58420234
1.8,180,-1.328,-1.8980000000000001,-0.875,-21.657812399999997,79.29738719999997,5.2712136,-6.72079734,0.83651868,-62.59566150000001
1.81,181,-1.13,-2.11,-0.5379999999999999,7.8495246,82.1048814,38.67466500000001,-6.6463128,1.6902260999999998,-62.29199376
1.82,182,-0.858,-1.695,-0.29600000000000004,15.527161800000002,56.78013780000001,76.9482594,-6.4686958200000015,2.3376686399999995,-61.58152584
1.83,183,-0.32299999999999995,-1.7,-0.446,13.6936962,50.24841660000001,101.7573408,-6.29107884,2.94500412,-60.6189564
1.84,184,0.107,-1.806,-0.425,9.3392154,51.6235158,103.705398,-6.14210976,3.5580691799999995,-59.63346864
1.85,185,0.213,-1.8519999999999999,-0.41700000000000004,0.0,42.5707794,81.07355700000002,-6.08481396,4.06227222,-58.85997533999999
1.86,186,-0.04,-1.8780000000000001,-0.37,-12.2040054,27.100913399999996,45.607456799999994,-6.18221682,4.37739912,-58.43025684000001
1.87,187,-0.591,-2.089,-0.306,-35.6379876,5.3285094000000015,6.0160589999999985,-6.53745078,4.43469492,-58.36723145999999
1.8800000000000001,188,-0.889,-2.249,-0.4,-47.3836266,2.5210152000000003,-9.740286,-7.030194660000001,4.4404245000000016,-58.46463432
1.8900000000000001,189,-1.0,-2.2769999999999997,-0.418,-43.0864416,27.903054600000004,-20.5118964,-7.4885610599999985,4.68679644,-58.68808794
1.9000000000000001,190,-0.848,-1.944,-0.325,-36.4974246,39.3622146,-20.3973048,-7.87244292,5.042030400000002,-58.92300072000001
1.9100000000000001,191,-0.677,-1.5930000000000002,-0.39899999999999997,-26.2987722,51.852699,-11.6310474,-8.164651500000002,5.5290447,-59.09488811999999
1.9200000000000002,192,-0.584,-1.4180000000000001,-0.258,-14.9542038,70.1300592,-2.0626488000000003,-8.3365389,6.2165943,-59.19802056000001
1.93,193,-0.524,-1.239,-0.13,-6.875496000000001,77.80769640000003,4.583664,-8.422482599999999,6.98435802,-59.24385720000001
1.94,194,-0.518,-1.056,-0.040999999999999995,4.4117766,85.9437,8.193299399999999,-8.38810512,7.838065440000001,-59.26104594
1.95,195,-0.5329999999999999,-0.902,0.085,19.4232762,93.7359288,10.3705398,-8.164651500000002,8.749068659999999,-59.23812762
1.96,196,-0.561,-0.759,0.132,33.4607472,104.9086098,9.453807,-7.84379502,9.797581800000001,-59.26104594
1.97,197,-0.528,-0.618,0.171,45.1490904,111.3830352,5.443101,-7.41407652,10.90339074,-59.3298009
1.98,198,-0.43,-0.491,0.19899999999999998,55.00396800000001,116.310474,0.9740286,-6.89268474,12.05503632,-59.43866292
1.99,199,-0.326,-0.376,0.20800000000000002,63.59833800000001,121.98275819999999,-2.86479,-6.29107884,13.25824812,-59.58190241999999
2.0,200,-0.243,-0.289,0.23,71.1040878,127.25397179999999,-6.9327918,-5.62071798,14.50729656,-59.74233065999999
2.01,201,-0.16699999999999998,-0.27,0.122,73.73969459999998,132.5251854,-10.4851314,-4.94462754,15.813640799999998,-59.94859554
2.02,202,-0.07,-0.32,0.021,74.771019,133.0408476,-13.980175199999998,-4.26280752,17.12571462,-60.17204916000001
2.03,203,0.022000000000000002,-0.434,-0.019,72.76566600000002,130.2333534,-16.386598799999998,-3.61536498,18.409140540000006,-60.40123236
2.04,204,0.106,-0.5529999999999999,-0.163,67.0933818,126.6810138,-18.6784308,-3.03094782,19.65818898,-60.6476043
2.05,205,0.179,-0.6459999999999999,-0.287,61.36380179999999,120.09199679999999,-20.454600600000006,-2.48090814,20.84421204,-60.8767875
2.0599999999999996,206,0.311,-0.736,-0.36,56.66554620000001,108.002583,-20.05353,-2.005353,21.915643499999998,-61.11170028
2.07,207,0.48700000000000004,-0.8390000000000001,-0.39799999999999996,50.5921914,93.5067456,-17.303331600000003,-1.5756344999999998,22.83810588,-61.30077642
2.0799999999999996,208,0.636,-0.934,-0.42200000000000004,40.7373138,71.33327100000002,-13.3499214,-1.2318597,23.54284422,-61.44974549999999
2.09,209,0.698,-0.9670000000000001,-0.502,29.736520199999998,47.1544434,-11.2299768,-0.98548776,24.01266978,-61.57006668
2.0999999999999996,210,0.6559999999999999,-0.951,-0.496,26.41336380000001,26.41336380000001,-12.318597,-0.69900876,24.29914878,-61.65601038
2.11,211,0.534,-0.9229999999999999,-0.389,24.522602399999997,7.2192707999999985,-16.272007199999994,-0.52712136,24.37363332,-61.83362736
2.1199999999999997,212,0.345,-0.8109999999999999,-0.401,22.631841,-9.9694692,-21.944291399999997,-0.39534102,24.27623046,-62.07999930000001
2.13,213,0.134,-0.6659999999999999,-0.318,27.6738714,-20.5118964,-27.7311672,-0.24064236,24.07569516,-62.38939661999999
2.1399999999999997,214,-0.027000000000000003,-0.5329999999999999,-0.221,30.5386614,-23.2620948,-33.2888598,-0.07448454,23.85224154,-62.76181932000001
2.15,215,-0.126,-0.44299999999999995,-0.152,32.4294228,-13.464512999999998,-36.8411994,0.10886202,23.70900204,-63.14570118
2.1599999999999997,216,-0.204,-0.361,-0.098,33.518043,1.0886202,-36.7839036,0.29220857999999994,23.72619078,-63.54677177999999
2.17,217,-0.262,-0.331,-0.003,34.37748,11.8602306,-34.2055926,0.4870143000000001,23.85224154,-63.9134649
2.1799999999999997,218,-0.325,-0.369,0.052000000000000005,31.913760600000003,20.2254174,-29.0489706,0.68182002,24.05850642,-64.22286222
2.19,219,-0.395,-0.46,0.069,26.7571386,25.8977016,-21.944291399999997,0.8537074199999999,24.3220671,-64.457775
2.1999999999999997,220,-0.419,-0.557,0.11199999999999999,19.308684600000007,32.6013102,-13.2926256,1.05424272,24.61427568,-64.52080038
2.21,221,-0.389,-0.675,0.129,11.917526400000002,37.299565799999996,-9.5111028,1.13445684,24.98669838,-64.60674408
2.2199999999999998,222,-0.344,-0.732,0.066,4.9847346,41.539455,-8.880849000000003,1.15164558,25.39922814,-64.68122862
2.23,223,-0.29,-0.722,0.026000000000000002,4.0680017999999984,44.977203,-10.7716104,1.1459160000000002,25.84613538,-64.77863147999999
2.2399999999999998,224,-0.22399999999999998,-0.7040000000000001,0.03,8.59437,49.9619376,-15.5844576,1.1573751600000002,26.34460884,-64.92760056
2.25,225,-0.19399999999999998,-0.688,0.065,13.5791046,57.2385042,-20.168121600000006,1.25477802,26.90610768,-65.07084006
2.26,226,-0.231,-0.6679999999999999,0.11,17.8189938,63.59833800000001,-22.5745452,1.32926256,27.54209106,-65.2885641
2.27,227,-0.321,-0.6659999999999999,0.14,23.835052800000003,67.66633979999999,-21.142150199999996,1.46677248,28.2181815,-65.4890994
2.28,228,-0.409,-0.664,0.179,35.7525792,73.625103,-15.756345,1.75325148,28.95156774,-65.62660932
2.29,229,-0.506,-0.659,0.248,48.5868384,83.4226848,-10.026765,2.2058883,29.78808642,-65.68390511999999
2.3,230,-0.5429999999999999,-0.652,0.332,58.38442020000001,101.0697912,-5.443101,2.83041252,30.77930376,-65.62660932
2.31,231,-0.507,-0.669,0.3670000000000001,63.311859,124.8475482,-0.8594370000000001,3.5122325400000003,32.01689304,-65.52347688
2.32,232,-0.43799999999999994,-0.7040000000000001,0.365,64.4004792,145.53133200000005,4.4690724,4.25707794,33.44928804,-65.31148241999999
2.3299999999999996,233,-0.287,-0.745,0.359,65.08802879999999,160.19905680000005,10.2559482,5.08213746,35.02492254,-64.98489636000001
2.34,234,-0.028999999999999998,-0.7609999999999999,0.32899999999999996,60.16059,166.6161864,16.272007199999994,5.930115299999999,36.65212326,-64.5437187
2.3499999999999996,235,0.192,-0.6940000000000001,0.325,53.8007562,160.42824,19.079501399999998,6.8010114600000025,38.2162986,-63.9994086
2.36,236,0.28300000000000003,-0.602,0.324,46.00852740000001,144.958374,16.7303736,7.551586439999999,39.62004570000001,-63.5123943
2.3699999999999997,237,0.342,-0.545,0.254,36.898495200000006,125.0767314,8.193299399999999,8.14746276,40.83471666,-63.14570118
2.38,238,0.446,-0.5820000000000001,0.079,25.382039399999996,95.8558734,-6.3598338,8.479778399999999,41.78009736,-63.01392083999999
2.3899999999999997,239,0.542,-0.64,-0.065,12.776963400000001,59.1292656,-22.1734746,8.49696714,42.38743284,-63.1686195
2.4,240,0.604,-0.679,-0.09300000000000001,3.4377480000000005,27.215505,-37.013086799999996,8.34799806,42.74839638,-63.50666471999999
2.4099999999999997,241,0.611,-0.6940000000000001,-0.045,-4.2398892,6.2452422,-47.841993,7.8781725000000025,42.87444714,-64.13691852000001
2.42,242,0.601,-0.6829999999999999,-0.022000000000000002,-12.605075999999999,-11.2872726,-54.94667220000001,7.2307299600000015,42.84006966,-64.89322308000001
2.4299999999999997,243,0.541,-0.614,-0.09699999999999999,-32.372127,-29.507337,-62.22323879999999,6.3025379999999975,42.62234562,-65.78703756
2.44,244,0.435,-0.526,-0.249,-54.6028974,-50.82137460000001,-67.9528188,5.08213746,42.18116796,-66.77825490000001
2.4499999999999997,245,0.313,-0.48,-0.276,-64.97343719999999,-68.2965936,-74.31265259999998,3.73568616,41.56237331999999,-67.83249762
2.46,246,0.19399999999999998,-0.47100000000000003,-0.23800000000000002,-73.96887779999999,-79.81304940000003,-79.87034519999997,2.25172494,40.81179834,-68.96122488
2.4699999999999998,247,0.09300000000000001,-0.508,-0.196,-82.79243100000002,-81.932994,-82.9643184,0.6875496,40.01538672,-70.08995214000001
2.48,248,0.005,-0.562,-0.21,-95.7985776,-79.46927459999998,-85.084263,-0.97975818,39.2189751,-71.20722024
2.4899999999999998,249,-0.091,-0.5760000000000001,-0.235,-109.6068654,-73.1667366,-87.66257399999998,-2.77311672,38.45694096,-72.3072996
2.5,250,-0.174,-0.615,-0.23199999999999998,-121.5243918,-64.8015498,-90.9857304,-4.65241896,37.74074346,-73.38446064
2.51,251,-0.133,-0.735,-0.259,-140.71848480000003,-47.8992888,-97.0017894,-6.77809314,37.16205588,-74.53037664
2.52,252,0.004,-0.852,-0.313,-165.9286368,-33.002380800000005,-102.21570720000001,-9.17305758,36.68077116,-75.72785886
2.53,253,0.11699999999999999,-0.996,-0.414,-186.84160380000003,-44.34694920000001,-104.22106020000001,-11.75136858,36.04478778,-76.87950443999998
2.54,254,0.25,-1.158,-0.544,-215.6613912,-59.473040399999995,-106.5128922,-14.57032194,35.20826909999999,-77.9795838
2.55,255,0.41700000000000004,-1.31,-0.7879999999999999,-237.491091,-57.123912600000004,-105.1950888,-17.549703540000007,34.35456168,-78.98798988
2.56,256,0.544,-1.537,-1.062,-261.7845102,-42.34159620000001,-99.80928359999999,-20.72962044,33.61544586,-79.93337058
2.57,257,0.626,-1.662,-1.4569999999999999,-294.3858204,-6.589017,-94.8818448,-24.25331214,33.1742682,-80.90739918
2.5799999999999996,258,0.677,-1.679,-1.858,-215.3176164,29.793815999999996,-85.77181259999998,-27.009240120000005,33.0596766,-81.93872358
2.59,259,0.769,-1.95,-1.536,-103.41891899999999,50.5921914,-66.463128,-28.579145040000004,33.19145694,-82.88410428
2.5999999999999996,260,0.775,-2.62,-0.775,-143.0676126,11.6310474,-45.4355694,-30.31520778,33.06540618,-83.3940369
2.61,261,1.1059999999999999,-3.602,-1.48,-235.77221699999998,1.7761698000000001,-41.4821592,-32.922166680000004,32.853411720000004,-83.78937792
2.6199999999999997,262,1.625,-3.9989999999999997,-1.8030000000000002,-271.0664298,-22.86102420000001,-17.9908812,-35.66090592,32.55547356,-83.77791876
2.63,263,1.6880000000000002,-3.44,-1.1909999999999998,-285.1039008,-76.8336678,-14.896907999999998,-38.31943104,31.83354648000001,-83.34820026
2.6399999999999997,264,0.742,-1.557,-0.636,-216.52082819999995,-110.9819646,-77.9795838,-40.43937564,30.46990644,-83.22787908000002
2.65,265,-0.355,-1.078,-0.14400000000000002,-199.2747924,-115.6229244,-127.7123382,-42.5421315,28.73957328,-83.43414396
2.6599999999999997,266,-0.845,-1.0170000000000001,0.027000000000000003,-215.83327859999997,-63.1399716,-125.0194356,-44.96574384,27.4160403,-83.94407658
2.67,267,-0.841,-1.1159999999999999,0.107,-205.691922,-28.533308399999996,-118.888785,-47.3549787,26.36179758,-84.60870786
2.6799999999999997,268,-0.42200000000000004,-1.535,0.285,-178.8201918,-25.78311,-120.2065884,-49.45200498000001,25.29036612,-85.25615040000002
2.69,269,-0.065,-1.35,0.594,-177.1013178,12.834259199999998,-93.105675,-51.56049042000001,24.660112320000003,-85.98953664
2.6999999999999997,270,-0.025,-0.95,0.35700000000000004,-170.1112302,32.085648000000006,-74.31265259999998,-53.58876174,24.28768962,-86.70573413999998
2.71,271,-0.13,-0.63,0.4970000000000001,-153.6100398,37.1849742,-63.770225399999994,-55.43941608,23.98975146,-87.41047248
2.7199999999999998,272,-0.124,-0.33,0.5539999999999999,-152.693307,50.76407879999999,-53.285093999999994,-57.30152958,23.84078238,-88.15531788
2.73,273,-0.12300000000000001,-0.057999999999999996,0.446,-151.89116579999995,62.910788399999994,-42.05511720000001,-59.16937266,23.82932322,-88.94599991999998
2.7399999999999998,274,-0.14400000000000002,-0.105,0.423,-143.35409159999998,69.38521379999999,-43.20103320000001,-60.97991994,23.81786406,-89.79970734
2.75,275,-0.019,-0.285,0.389,-133.4419182,74.48454,-53.285093999999994,-62.73317142,23.72619078,-90.73935846
2.76,276,0.083,-0.371,0.44,-123.8735196,68.35388940000001,-70.24465079999999,-64.38902004,23.42252304,-91.71338706000002
2.77,277,0.21,-0.318,0.419,-117.1126152,57.92605379999999,-91.5586884,-65.96465454,22.8610242,-92.67022692
2.78,278,0.36200000000000004,-0.28800000000000003,0.435,-107.9452872,45.2063862,-100.7833122,-67.39704954,22.13336754,-93.52393434
2.79,279,0.4,-0.262,0.401,-103.53351059999999,29.335449600000004,-91.27220940000001,-68.69193462000001,21.41144046,-94.1656473
2.8,280,0.33299999999999996,-0.174,0.32899999999999996,-102.273003,10.886202,-76.20341400000002,-69.87795768,20.7697275,-94.54379958
2.81,281,0.284,-0.059000000000000004,0.244,-102.3302988,-7.3911582,-65.7182826,-70.97230746,20.12801454,-94.69276866
2.82,282,0.225,0.11,0.187,-103.5908064,-24.923673,-61.020027,-72.00363186,19.47484242,-94.63547286
2.8299999999999996,283,0.134,0.3,0.133,-107.3150334,-40.2216516,-60.10329419999999,-73.01203794,18.78156324,-94.41201924
2.84,284,0.2,0.413,0.128,-111.440331,-58.2125328,-61.8221682,-74.00898486,18.019529100000003,-94.00521906
2.8499999999999996,285,0.377,0.414,0.102,-116.76884040000002,-78.03687959999998,-63.88481700000001,-75.00593178,17.20019916,-93.39788358
2.86,286,0.634,0.375,-0.057999999999999996,-125.3632104,-92.1889422,-63.25456320000001,-76.04871534,16.34649174,-92.63011986
2.8699999999999997,287,0.9390000000000001,0.442,-0.281,-124.3891818,-101.9292282,-51.3943326,-77.04566226,15.59591676,-91.72484622
2.88,288,0.938,0.687,-0.433,-105.7680468,-111.89869740000002,-26.356068,-77.82488514,15.074524979999998,-90.65914434
2.8899999999999997,289,0.39899999999999997,1.026,-0.45399999999999996,-82.1048814,-111.21114779999999,7.448453999999999,-78.35200649999999,14.896907999999998,-89.5246875
2.9,290,-0.05,1.4369999999999998,-0.512,-71.5051584,-108.17447040000002,31.3980984,-78.76453626,14.95993338,-88.37304191999998
2.9099999999999997,291,-0.064,1.6869999999999998,-0.73,-59.7595194,-96.0850566,30.5386614,-79.09112232,15.05160666,-87.34171752
2.92,292,0.2,1.636,-1.126,-48.9306132,-83.65186800000002,4.6409598,-79.354683,14.9255559,-86.49373968
2.9299999999999997,293,0.21600000000000005,1.351,-1.236,-33.6326346,-90.2981808,-20.912967000000002,-79.46354502,14.53594446,-85.62284352
2.94,294,0.037000000000000005,0.649,-0.961,-52.6548402,-105.8253426,-32.085648000000006,-79.73856486,14.008823099999995,-84.62589659999998
2.9499999999999997,295,-0.235,0.08800000000000001,-0.87,-99.9238752,-112.586247,-28.934378999999996,-80.44903278000002,13.4931609,-83.52008766
2.96,296,-0.298,-0.298,-1.9340000000000002,-136.9942578,-117.39909420000001,-20.5691922,-81.56057129999998,13.086360719999998,-82.3627125
2.9699999999999998,297,0.036000000000000004,-0.11199999999999999,-3.5380000000000003,-189.7063938,-156.18835080000005,-16.615782,-83.11328748,12.68529012,-80.79853716
2.98,298,2.575,0.902,-3.9960000000000004,-149.0263758,-169.0799058,-27.6738714,-84.24201474,12.19827582,-79.11404064
2.9899999999999998,299,2.447,1.7380000000000002,-3.9960000000000004,-74.88561059999998,-169.309089,-47.3836266,-84.63735576,11.52791496,-77.45819202
3.0,300,1.379,1.766,-3.9960000000000004,-67.2079734,-181.7422776,-33.9191136,-84.94675308000002,10.98360486,-75.6591039
3.01,301,-0.419,1.002,-3.858,-74.48454,-116.7115446,-7.734933000000002,-85.46814486,10.78306956,-74.49026957999997
3.02,302,-0.7190000000000001,0.628,-3.196,-80.7297822,-51.6235158,-3.4950437999999995,-86.18434235999996,10.70285544,-73.96887779999999
3.03,303,0.207,0.735,-2.568,-104.278356,-31.3980984,5.844171599999999,-87.17555970000002,10.7429625,-73.63656216000003
3.04,304,1.03,0.81,-2.258,-70.7030172,-34.1482968,16.042824000000003,-87.82300224,10.88047242,-73.27559862
3.05,305,0.8440000000000001,0.5660000000000001,-1.294,-51.6235158,-44.8053156,14.667724800000002,-88.21834326000004,11.02371192,-72.80004348
3.06,306,0.375,0.562,-0.937,-52.425657,-60.50436480000001,7.1046792000000005,-88.62514344,11.06381898,-72.18697842
3.07,307,0.078,0.67,-0.6679999999999999,-39.5913978,-63.770225399999994,5.72958,-88.89443370000002,11.09246688,-71.53953588
3.08,308,0.004,0.828,-0.41,-34.950438,-65.7182826,4.6982555999999995,-89.11215774000001,11.1153852,-70.86917502
3.09,309,0.0,0.932,-0.386,-34.8358464,-64.51507079999999,2.5783110000000002,-89.32988178,11.1153852,-70.2160029
3.0999999999999996,310,-0.10300000000000001,0.958,-0.344,-32.2002396,-61.4210976,-1.3178034,-89.50176918,11.05235982,-69.58001952
3.11,311,-0.231,0.7879999999999999,-0.318,-30.252182399999995,-54.8893764,-5.9014674000000005,-89.6965749,10.97787528,-69.02425026
3.1199999999999997,312,-0.294,0.546,-0.322,-25.6112226,-44.5761324,-12.5477802,-89.86273272,10.84036536,-68.57734302
3.13,313,-0.29100000000000004,0.318,-0.35100000000000003,-18.449247600000003,-36.4401288,-19.136797199999997,-89.97732432000002,10.63983006,-68.20492032
3.1399999999999997,314,-0.316,0.19,-0.395,-14.610429000000002,-27.788463,-24.0069402,-90.07472718,10.39345812,-67.92417090000001
3.15,315,-0.324,0.20600000000000002,-0.48,-12.4331886,-15.928232399999999,-24.522602399999997,-90.10337508,10.10124954,-67.72936518
3.1599999999999997,316,-0.321,0.29,-0.638,-7.161975,-6.2452422,-20.1108258,-90.16640046,9.90071424,-67.66633979999999
3.17,317,-0.301,0.306,-0.688,-2.0053530000000004,-1.5469866,-14.209358400000001,-90.1835892,9.75747474,-67.64915106
3.1799999999999997,318,-0.292,0.302,-0.7509999999999999,-1.8334656000000005,3.0366774,-9.682990199999999,-90.20650752,9.66580146,-67.67779895999999
3.19,319,-0.297,0.32299999999999995,-0.88,-2.4637194,7.6776372,-7.734933000000002,-90.24661458,9.59131692,-67.75801308
3.1999999999999997,320,-0.307,0.337,-0.993,-1.8907614,9.6256944,-8.880849000000003,-90.03462012,9.41369994,-67.73509476
3.21,321,-0.299,0.326,-1.101,0.2291832000000001,9.224623800000002,-10.943497800000001,-90.05180886000002,9.30483792,-67.82676803999999
3.2199999999999998,322,-0.27699999999999997,0.303,-1.197,3.5523396000000003,10.828906199999999,-11.5737516,-90.03462012,9.19024632,-67.93563006
3.23,323,-0.252,0.265,-1.246,6.7609043999999985,15.068795399999999,-11.0580894,-89.98878348,9.08711388,-68.08459914
3.2399999999999998,324,-0.215,0.215,-1.2770000000000001,9.8548776,18.8503182,-9.740286,-89.92002852,8.98971102,-68.27940486
3.25,325,-0.168,0.165,-1.278,13.178034,22.5745452,-7.6776372,-89.74241154,8.909496899999997,-68.46275141999999
3.26,326,-0.132,0.122,-1.2770000000000001,14.4958374,24.9809688,-5.6722842,-89.63354952,8.857930679999997,-68.71485294
3.27,327,-0.087,0.086,-1.246,14.8396122,26.642546999999997,-3.380452200000001,-89.53041707999998,8.82928278,-68.98414319999999
3.28,328,-0.027999999999999997,0.051,-1.199,16.4438946,26.69984280000001,-1.9480572,-89.40436632,8.823553200000003,-69.25343346
3.29,329,0.011000000000000001,-0.013000000000000001,-1.133,16.7303736,25.78311,0.3437748,-89.27831556,8.83501236,-69.51126456
3.3,330,0.053,-0.062,-0.9840000000000001,13.3499214,25.78311,1.9480572,-88.98610698,8.87511942,-69.6716928
3.31,331,0.096,-0.087,-0.899,2.6929026,27.6738714,1.5469866,-89.00329572000004,8.90376732,-69.94671264
3.32,332,0.11900000000000001,-0.11900000000000001,-0.889,-3.8961144,23.663165399999997,4.1825934,-89.08350984,8.95533354,-70.18162542
3.33,333,0.107,-0.138,-0.87,-2.86479,17.9335854,6.0733548,-89.14653522,9.0240885,-70.36497198
3.34,334,0.10099999999999999,-0.114,-0.853,-2.5783110000000002,13.2353298,7.734933000000002,-89.19237186000002,9.1100322,-70.49102274
3.3499999999999996,335,0.062,-0.062,-0.857,-1.8334656000000005,10.313244000000001,7.1046792000000005,-88.93454076,9.19024632,-70.45091568
3.36,336,0.054000000000000006,-0.008,-0.8640000000000001,-1.432395,8.5370742,6.417129599999999,-88.96318865999999,9.25900128,-70.5311298
3.3699999999999997,337,0.054000000000000006,0.026000000000000002,-0.8740000000000001,-0.286479,7.6776372,5.3285094000000015,-88.98037740000002,9.31629708,-70.61134392
3.38,338,0.083,0.076,-0.897,0.8021411999999999,8.136003599999999,3.6669312000000014,-88.98610698,9.35640414,-70.69155803999998
3.3899999999999997,339,0.11800000000000001,0.099,-0.9159999999999999,1.2605076000000002,7.6203414,1.2032118,-88.98610698,9.37359288,-70.76604258
3.4,340,0.168,0.095,-0.924,0.8594370000000001,7.2765666,-2.1772404,-88.33866443999996,9.44807742,-70.54831854
3.4099999999999997,341,0.221,0.057999999999999996,-0.912,1.432395,6.9327918,-5.6149884000000005,-88.33866443999996,9.3965112,-70.61707349999998
3.42,342,0.252,0.003,-0.903,1.8907614,4.6982555999999995,-7.5057497999999985,-88.32720528,9.32775624,-70.66863972
3.4299999999999997,343,0.263,-0.040999999999999995,-0.888,2.6929026,1.4896908000000002,-6.589017,-88.30428696,9.25900128,-70.68582846
3.44,344,0.24100000000000002,-0.076,-0.8909999999999999,2.5783110000000002,0.2291832000000001,-3.5523396000000003,-88.27563906,9.224623800000002,-70.69155803999998
3.4499999999999997,345,0.21100000000000002,-0.098,-0.912,2.2345362,-0.40107059999999994,0.0,-86.82605532,9.47672532,-69.99254927999999
3.46,346,0.16399999999999998,-0.095,-0.929,3.2085647999999996,-1.8907614,3.8961144,-86.78594826,9.51683238,-69.96963095999999
3.4699999999999998,347,0.11699999999999999,-0.075,-0.934,5.042030400000002,-2.3491277999999998,7.1046792000000005,-86.73438204,9.58558734,-69.94098306000001
3.48,348,0.076,-0.048,-0.95,5.844171599999999,-0.5156622000000001,8.8235532,-86.67135666,9.67153104,-69.9295239
3.4899999999999998,349,0.064,-0.025,-0.981,4.4690724,2.3491277999999998,9.453807,-86.62552002,9.7689339,-69.95244222
3.5,350,0.068,0.01,-1.021,2.6356068,5.72958,9.1100322,-86.15569446,9.87206634,-69.79201398
3.51,351,0.077,0.051,-1.053,1.3750992,9.740286,8.021412000000002,-86.16142404,9.95801004,-69.88368726
3.52,352,0.1,0.075,-1.074,0.6302538000000001,13.407217200000002,6.417129599999999,-86.17861278000002,10.03249458,-70.00973802
3.53,353,0.11800000000000001,0.09,-1.082,0.9740286,16.272007199999994,5.1566220000000005,-86.19580152,10.10124954,-70.17016626
3.54,354,0.128,0.091,-1.091,1.5469866,17.131444199999994,4.8128472,-86.21299026,10.16427492,-70.34205366
3.55,355,0.124,0.09,-1.09,2.9220858,16.8449652,5.3285094000000015,-85.95515916000002,10.24448904,-70.38789030000002
3.56,356,0.11800000000000001,0.096,-1.0979999999999999,5.1566220000000005,16.615782,6.417129599999999,-85.93224083999998,10.32470316,-70.54831854
3.57,357,0.11900000000000001,0.11199999999999999,-1.111,6.6463128000000005,15.527161800000002,7.6776372,-85.89213378,10.41637644,-70.69728762
3.58,358,0.132,0.139,-1.122,7.7922288,13.750992000000002,8.4224826,-85.84056756,10.513779300000001,-70.83479754
3.59,359,0.155,0.166,-1.119,9.3392154,10.3705398,8.5370742,-85.76608302,10.60545258,-70.93220040000001
3.5999999999999996,360,0.175,0.198,-1.092,11.172680999999999,4.9274388,8.3651868,-85.39366032000002,10.7143146,-70.85771586000001
3.61,361,0.171,0.223,-1.044,14.209358400000001,-2.4637194,8.479778399999999,-85.23896166,10.79452872,-70.82906796
3.6199999999999997,362,0.14300000000000002,0.23600000000000002,-0.9570000000000001,16.673077799999998,-10.313244000000001,8.136003599999999,-85.04988552,10.86328368,-70.72020594
3.63,363,0.12,0.223,-0.882,17.303331600000003,-17.131444199999994,6.4744254,-84.83789106,10.90339074,-70.54258896
3.6399999999999997,364,0.107,0.19399999999999998,-0.841,14.5531332,-21.371333399999997,4.1825934,-84.64308534,10.92057948,-70.33059449999999
3.65,365,0.098,0.158,-0.841,10.886202,-20.6837838,1.9480572,-84.27066264,10.92057948,-70.02119718
3.6599999999999997,366,0.09699999999999999,0.122,-0.8809999999999999,8.5370742,-15.813640800000002,0.057295800000000015,-84.15034145999998,10.90339074,-69.86649852000001
3.67,367,0.08900000000000001,0.121,-0.907,11.401864199999999,-8.7662574,-0.40107059999999994,-84.01856111999999,10.886202,-69.78055481999999
3.6799999999999997,368,0.066,0.134,-0.868,20.912967000000002,-4.010706000000001,0.6302538000000001,-83.80083708,10.886202,-69.74044776000001
3.69,369,0.049,0.115,-0.8420000000000001,24.1788276,-4.7555514,1.7188740000000002,-83.54300598,10.89193158,-69.69461112
3.6999999999999997,370,0.043,0.087,-0.856,19.9389384,-4.1825934,1.4896908000000002,-83.04453251999998,10.89193158,-69.52272372
3.71,371,0.035,0.061,-0.89,13.407217200000002,-1.4896908000000002,0.0,-82.90129302,10.886202,-69.51126456
3.7199999999999998,372,0.043,0.040999999999999995,-0.958,8.479778399999999,3.2085647999999996,-1.145916,-82.82680848,10.88047242,-69.54564203999999
3.73,373,0.05,0.028999999999999998,-1.011,5.5003968,5.6722842,-1.4896908000000002,-82.78097184,10.87474284,-69.60293784
3.7399999999999998,374,0.040999999999999995,0.009000000000000001,-1.018,4.5263682,4.1825934,-0.9740286,-82.74086478000002,10.86901326,-69.64877448000001
3.75,375,0.037000000000000005,0.001,-0.9590000000000001,7.1046792000000005,6.990087599999999,-0.286479,-82.24239132,10.86901326,-69.51126456
3.76,376,0.045,-0.037000000000000005,-0.929,7.6776372,9.2819196,0.1718874,-82.18509551999998,10.886202,-69.60293784
3.77,377,0.040999999999999995,-0.087,-0.99,-1.5469866,4.2398892,0.11459160000000004,-82.20801384,10.89766116,-69.64877448000001
3.78,378,0.022000000000000002,-0.09699999999999999,-1.006,-8.9954406,0.286479,-0.2291832000000001,-82.29968712,10.89193158,-69.64877448000001
3.79,379,0.003,-0.098,-0.983,-10.5424272,0.40107059999999994,-0.7448454000000001,-82.40854913999998,10.886202,-69.65450406
3.8,380,-0.001,-0.10099999999999999,-0.98,-11.5737516,1.2032118,-1.2032118,-81.92153484,10.85182452,-69.36802506
3.81,381,0.0,-0.095,-0.983,-11.802934800000001,1.5469866,-1.7188740000000002,-82.04185602,10.83463578,-69.38521379999999
3.82,382,0.013999999999999999,-0.083,-0.99,-11.2299768,0.5156622000000001,-1.8334656000000005,-82.1621772,10.81744704,-69.39094338
3.83,383,0.02,-0.07,-1.004,-11.2872726,-1.8334656000000005,-1.6042823999999998,-82.27103922,10.800258300000001,-69.37375464
3.84,384,0.023,-0.05,-1.0190000000000001,-11.45916,-3.8388186,-1.2605076000000002,-82.37990124000002,10.78306956,-69.33364758
3.8499999999999996,385,0.018000000000000002,-0.027999999999999997,-1.0270000000000001,-10.657018800000001,-5.3858052,-0.8594370000000001,-81.97883064,10.7429625,-69.05289816
3.86,386,0.005,-0.001,-1.0290000000000001,-9.1100322,-6.8182002000000015,-0.572958,-82.05904475999998,10.72577376,-68.98414319999999
3.8699999999999997,387,-0.006,0.02,-1.022,-6.703608600000001,-8.078707799999998,-0.3437748,-82.11061098,10.70858502,-68.90392908
3.88,388,-0.016,0.035,-1.0170000000000001,-4.9274388,-8.479778399999999,-0.5156622000000001,-82.14498846000002,10.69139628,-68.81798538
3.8899999999999997,389,-0.022000000000000002,0.049,-1.011,-3.9534102,-7.6776372,-0.9740286,-82.16790678,10.66847796,-68.74350084
3.9,390,-0.024,0.061,-1.004,-3.1512689999999997,-6.2452422,-1.7188740000000002,-81.360036,10.55961594,-68.30805276
3.9099999999999997,391,-0.017,0.067,-0.997,-2.4064236,-3.8961144,-2.4637194,-81.37722474,10.52523846,-68.27367527999999
3.92,392,-0.002,0.07,-0.988,-1.6615782,-1.2032118,-3.1512689999999997,-81.3886839,10.49086098,-68.26221611999999
3.9299999999999997,393,0.024,0.075,-0.985,-0.8594370000000001,1.5469866,-3.6096353999999997,-81.40587264,10.46221308,-68.28513444
3.94,394,0.061,0.083,-0.981,-0.11459160000000004,3.8388186,-3.6669312000000014,-81.4173318,10.4278356,-68.33097108000001
3.9499999999999997,395,0.096,0.091,-0.98,1.2605076000000002,5.958763200000001,-3.2085647999999996,-80.63237934,10.4278356,-68.07313998
3.96,396,0.12300000000000001,0.099,-0.98,2.291832,6.9327918,-2.5210152000000003,-80.62092018,10.41637644,-68.14762452
3.9699999999999998,397,0.142,0.105,-0.978,3.3231564,6.7609043999999985,-1.7188740000000002,-80.60373144,10.41064686,-68.21637948
3.98,398,0.156,0.11199999999999999,-0.976,3.8388186,5.9014674000000005,-1.145916,-80.57508354000002,10.41064686,-68.27367527999999
3.9899999999999998,399,0.162,0.11599999999999999,-0.9740000000000001,3.8961144,4.4690724,-0.6302538000000001,-80.54643564,10.41064686,-68.31951192
4.0,400,0.16,0.114,-0.975,2.9793816000000004,2.4637194,-0.5156622000000001,-78.69005172,10.52523846,-67.62050316
4.01,401,0.146,0.11199999999999999,-0.98,1.6615782,0.572958,-0.4583664000000001,-78.67286298,10.51950888,-67.62623274
4.02,402,0.134,0.105,-0.983,0.572958,-0.40107059999999994,-0.3437748,-78.6671334,10.51950888,-67.62623274
4.03,403,0.13,0.09699999999999999,-0.9890000000000001,-0.6302538000000001,-1.6615782,-0.286479,-78.6671334,10.50804972,-67.60904400000001
4.04,404,0.127,0.086,-0.998,-1.7188740000000002,-2.7501984,0.0,-78.67859256,10.502320139999998,-67.58039609999999
4.05,405,0.126,0.076,-1.005,-2.1199446,-3.5523396000000003,0.40107059999999994,-77.45819202,10.53669762,-67.04754516
4.06,406,0.127,0.069,-1.0070000000000001,-2.2345362,-4.2398892,0.8021411999999999,-77.46965118,10.53096804,-67.0074381
4.07,407,0.12300000000000001,0.063,-1.0070000000000001,-2.0626488000000003,-4.8701430000000006,1.3178034,-77.48111034,10.53669762,-66.95587187999999
4.08,408,0.11900000000000001,0.054000000000000006,-1.004,-2.1199446,-5.3858052,1.5469866,-77.4925695,10.53669762,-66.89857608
4.09,409,0.111,0.047,-1.001,-2.3491277999999998,-5.6149884000000005,1.6042823999999998,-77.50402865999997,10.53669762,-66.84128028
4.1,410,0.10300000000000001,0.04,-0.997,-2.5210152000000003,-5.6722842,1.4896908000000002,-76.6331325,10.54815678,-66.42302094
4.109999999999999,411,0.091,0.031,-0.995,-2.7501984,-5.2139178,1.3178034,-76.65032124000003,10.54815678,-66.37145472
4.12,412,0.083,0.026000000000000002,-0.997,-2.6929026,-4.8128472,1.2032118,-76.66750998,10.54815678,-66.31988849999999
4.13,413,0.076,0.02,-0.997,-2.5783110000000002,-4.4690724,0.9740286,-76.68469872,10.5424272,-66.27405186
4.14,414,0.07200000000000001,0.016,-0.996,-2.2345362,-3.9534102,0.9167328000000001,-76.70188746,10.5424272,-66.22821522
4.1499999999999995,415,0.066,0.011000000000000001,-0.991,-1.7761698000000001,-3.4950437999999995,0.8021411999999999,-75.21792624,10.49659056,-65.58650226
4.16,416,0.057999999999999996,0.01,-0.987,-1.2032118,-2.9793816000000004,0.7448454000000001,-75.22365582,10.49086098,-65.55785436
4.17,417,0.052000000000000005,0.012,-0.985,-0.6302538000000001,-2.5210152000000003,0.572958,-75.2293854,10.49086098,-65.52920646
4.18,418,0.044000000000000004,0.012,-0.985,-0.2291832000000001,-2.3491277999999998,0.572958,-75.22365582,10.49086098,-65.50628814000001
4.1899999999999995,419,0.035,0.018000000000000002,-0.985,-0.1718874,-2.291832,0.286479,-75.22365582,10.49086098,-65.48336982
4.2,420,0.031,0.023,-0.9840000000000001,-0.11459160000000004,-2.2345362,0.1718874,-71.94633606,10.227300300000001,-64.14837768
4.21,421,0.028999999999999998,0.027000000000000003,-0.985,-0.286479,-2.291832,-0.057295800000000015,-71.94060648,10.215841139999998,-64.12545936000001
4.22,422,0.027000000000000003,0.031,-0.983,-0.3437748,-2.0626488000000003,-0.3437748,-71.94060648,10.20438198,-64.10827062
4.2299999999999995,423,0.026000000000000002,0.03,-0.985,-0.3437748,-1.7188740000000002,-0.6302538000000001,-71.94633606,10.19292282,-64.09108188
4.24,424,0.026000000000000002,0.033,-0.9840000000000001,-0.5156622000000001,-1.5469866,-0.8594370000000001,-71.94633606,10.18146366,-64.07962272
4.25,425,0.027000000000000003,0.038,-0.985,-0.5156622000000001,-1.3178034,-0.9740286,-69.16176018,9.906443820000002,-63.01965042000001
4.26,426,0.028999999999999998,0.043,-0.987,-0.286479,-1.145916,-1.0886202,-69.16748976,9.88925508,-63.01392083999999
4.27,427,0.033,0.049,-0.9890000000000001,0.0,-0.6875496,-1.145916,-69.16176018,9.87779592,-63.00819126
4.28,428,0.038,0.054000000000000006,-0.992,0.2291832000000001,-0.5156622000000001,-1.0886202,-69.16176018,9.86633676,-63.00819126
4.29,429,0.043,0.06,-0.995,0.4583664000000001,-0.4583664000000001,-1.0313244000000001,-69.1560306,9.8548776,-63.00819126
4.3,430,0.048,0.062,-0.998,0.6302538000000001,-0.40107059999999994,-0.8594370000000001,-65.16251334,9.50537322,-61.62163290000001
4.31,431,0.052000000000000005,0.061,-1.001,0.6302538000000001,-0.3437748,-0.6875496,-65.15678376,9.49964364,-61.62163290000001
4.32,432,0.054000000000000006,0.062,-1.002,0.572958,-0.286479,-0.572958,-65.15105418,9.49391406,-61.62163290000001
4.33,433,0.057999999999999996,0.061,-1.008,0.5156622000000001,0.0,-0.40107059999999994,-65.14532460000001,9.48818448,-61.62163290000001
4.34,434,0.06,0.059000000000000004,-1.0090000000000001,0.3437748,0.3437748,-0.1718874,-65.14532460000001,9.48818448,-61.62736248
4.35,435,0.063,0.057,-1.006,0.286479,0.9167328000000001,-0.057295800000000015,-60.79084379999999,9.15586884,-60.25226328
4.36,436,0.067,0.055999999999999994,-1.002,0.286479,1.2605076000000002,0.0,-60.79084379999999,9.16159842,-60.26372244
4.37,437,0.07200000000000001,0.055,-1.0,0.1718874,1.3178034,0.0,-60.79084379999999,9.167328,-60.2751816
4.38,438,0.076,0.057,-0.996,0.0,1.3178034,0.0,-60.79084379999999,9.17305758,-60.28664076
4.39,439,0.077,0.055999999999999994,-0.9940000000000001,-0.286479,1.0886202,-0.057295800000000015,-60.79657338000001,9.17878716,-60.29809991999999
4.3999999999999995,440,0.08,0.054000000000000006,-0.993,-0.572958,0.9167328000000001,-0.1718874,-57.35309579999999,8.96106312,-59.31261216
4.41,441,0.081,0.05,-0.9940000000000001,-0.572958,0.6875496,-0.2291832000000001,-57.36455496,8.9667927,-59.31834174
4.42,442,0.083,0.045,-0.995,-0.4583664000000001,0.40107059999999994,-0.2291832000000001,-57.37028454,8.9667927,-59.32407132
4.43,443,0.08199999999999999,0.042,-0.993,-0.11459160000000004,0.057295800000000015,-0.286479,-57.37028454,8.96106312,-59.32407132
4.4399999999999995,444,0.081,0.04,-0.99,-0.057295800000000015,-0.11459160000000004,-0.286479,-57.37028454,8.96106312,-59.32407132
4.45,445,0.079,0.039,-0.987,0.0,-0.11459160000000004,-0.286479,-45.94550202,7.975575359999999,-56.29312349999999
4.46,446,0.078,0.038,-0.9890000000000001,0.2291832000000001,-0.2291832000000001,-0.286479,-45.94550202,7.975575359999999,-56.29312349999999
4.47,447,0.078,0.037000000000000005,-0.9890000000000001,0.286479,-0.286479,-0.286479,-45.93977244,7.96984578,-56.29312349999999
4.4799999999999995,448,0.077,0.033,-0.9890000000000001,0.4583664000000001,-0.4583664000000001,-0.1718874,-45.93404286,7.9641161999999985,-56.29312349999999
4.49,449,0.075,0.031,-0.988,0.572958,-0.4583664000000001,-0.11459160000000004,-45.92831328,7.9583866200000015,-56.28739392
4.5,450,0.07,0.03,-0.987,0.7448454000000001,-0.4583664000000001,-0.057295800000000015,-42.6567231,7.63753014,-55.57119642
4.51,451,0.067,0.028999999999999998,-0.987,0.9740286,-0.4583664000000001,0.0,-42.64526393999999,7.63753014,-55.57119642
4.52,452,0.065,0.027999999999999997,-0.988,0.9740286,-0.40107059999999994,0.0,-42.63953436,7.63180056,-55.56546684
4.53,453,0.064,0.027999999999999997,-0.9890000000000001,1.0313244000000001,-0.3437748,0.0,-42.62807520000001,7.63180056,-55.56546684
4.54,454,0.063,0.028999999999999998,-0.987,1.145916,-0.2291832000000001,-0.057295800000000015,-42.61088646,7.62607098,-55.56546684
4.55,455,0.063,0.031,-0.988,1.2032118,-0.11459160000000004,0.0,-40.22738118,7.3625102999999985,-55.06699338000001
4.56,456,0.062,0.032,-0.986,1.2032118,-0.1718874,0.0,-40.21592202,7.3625102999999985,-55.06699338000001
4.57,457,0.062,0.035,-0.988,1.2032118,-0.286479,0.0,-40.20446286,7.3567807200000015,-55.06126379999999
4.58,458,0.06,0.035,-0.986,1.0886202,-0.2291832000000001,0.0,-40.18727412,7.3567807200000015,-55.06126379999999
4.59,459,0.057999999999999996,0.037000000000000005,-0.985,0.9740286,-0.4583664000000001,0.0,-40.18154454,7.35105114,-55.06126379999999
4.6,460,0.055999999999999994,0.037000000000000005,-0.983,0.9167328000000001,-0.5156622000000001,0.0,-38.11316616000001,7.0874904600000015,-54.631545300000006
4.61,461,0.057,0.037000000000000005,-0.983,0.8594370000000001,-0.40107059999999994,0.0,-38.10170700000001,7.08176088,-54.631545300000006
4.62,462,0.057,0.038,-0.9840000000000001,0.8594370000000001,-0.4583664000000001,0.0,-38.09024784,7.076031300000001,-54.631545300000006
4.63,463,0.057999999999999996,0.039,-0.986,0.8021411999999999,-0.4583664000000001,0.0,-38.08451826,7.076031300000001,-54.62581572000001
4.64,464,0.059000000000000004,0.04,-0.9890000000000001,0.8594370000000001,-0.572958,-0.057295800000000015,-38.0730591,7.0703017200000025,-54.62581572000001
4.6499999999999995,465,0.057999999999999996,0.039,-0.9890000000000001,0.8594370000000001,-0.6302538000000001,-0.1718874,-36.11354274,6.82392978,-54.25339302
4.66,466,0.057999999999999996,0.039,-0.9890000000000001,0.7448454000000001,-0.4583664000000001,-0.1718874,-36.10208358,6.8182002000000015,-54.24766344
4.67,467,0.059000000000000004,0.039,-0.986,0.572958,-0.286479,0.0,-36.096354,6.8182002000000015,-54.24766344
4.68,468,0.063,0.036000000000000004,-0.986,0.40107059999999994,-0.1718874,0.0,-36.096354,6.8182002000000015,-54.24766344
4.6899999999999995,469,0.067,0.034,-0.987,0.11459160000000004,-0.5156622000000001,0.057295800000000015,-36.09062442,6.812470620000001,-54.24193386
4.7,470,0.068,0.033,-0.988,0.0,-0.9740286,0.0,-33.41491056,6.53745078,-53.79502662
4.71,471,0.064,0.032,-0.986,0.11459160000000004,-1.145916,-0.11459160000000004,-33.41491056,6.525991620000001,-53.78929704
4.72,472,0.065,0.034,-0.986,0.0,-1.145916,-0.2291832000000001,-33.41491056,6.51453246,-53.78929704
4.7299999999999995,473,0.062,0.032,-0.983,-0.057295800000000015,-0.9167328000000001,-0.2291832000000001,-33.41491056,6.5088028799999975,-53.78356746000001
4.74,474,0.064,0.027999999999999997,-0.98,-0.1718874,-0.9740286,-0.40107059999999994,-33.41491056,6.497343719999999,-53.78356746000001
4.75,475,0.067,0.025,-0.98,-0.40107059999999994,-1.2605076000000002,-0.4583664000000001,-32.19451002,6.37129296,-53.59449132
4.76,476,0.069,0.023,-0.981,-0.8021411999999999,-1.3178034,-0.572958,-32.2002396,6.35410422,-53.59449132
4.77,477,0.068,0.023,-0.983,-0.8594370000000001,-1.3178034,-0.40107059999999994,-32.211698760000004,6.34264506,-53.58876174
4.78,478,0.068,0.022000000000000002,-0.987,-1.2605076000000002,-1.432395,-0.3437748,-32.22315792,6.3254563200000025,-53.58303216
4.79,479,0.065,0.025,-0.9940000000000001,-1.2605076000000002,-1.432395,-0.11459160000000004,-32.23461708000001,6.31399716,-53.57730258
4.8,480,0.065,0.024,-0.9990000000000001,-0.9740286,-1.2032118,0.0,-30.78503334,6.15356892,-53.35384895999999
4.81,481,0.065,0.025,-0.997,-0.2291832000000001,-0.8594370000000001,0.0,-30.78503334,6.147839339999999,-53.35384895999999
4.82,482,0.064,0.027000000000000003,-0.9940000000000001,0.1718874,-0.40107059999999994,0.0,-30.78503334,6.147839339999999,-53.34811938
4.83,483,0.066,0.033,-0.991,0.5156622000000001,-0.1718874,0.057295800000000015,-30.77930376,6.14210976,-53.34811938
4.84,484,0.065,0.035,-0.9890000000000001,0.572958,-0.40107059999999994,0.11459160000000004,-30.773574180000004,6.14210976,-53.34238979999999
4.85,485,0.063,0.034,-0.987,0.4583664000000001,-0.8594370000000001,0.0,-29.00886354,5.93584488,-53.07882912
4.86,486,0.059000000000000004,0.033,-0.986,0.2291832000000001,-1.0313244000000001,0.057295800000000015,-29.003133960000003,5.92438572,-53.07309954
4.87,487,0.055,0.032,-0.986,0.1718874,-0.9167328000000001,0.11459160000000004,-29.003133960000003,5.91865614,-53.06736996000001
4.88,488,0.053,0.032,-0.988,0.11459160000000004,-0.7448454000000001,0.057295800000000015,-29.003133960000003,5.9129265600000025,-53.06164037999999
4.89,489,0.054000000000000006,0.03,-0.99,0.0,-0.5156622000000001,0.0,-28.99740438,5.90719698,-53.06164037999999
4.8999999999999995,490,0.057,0.03,-0.9890000000000001,0.11459160000000004,-0.40107059999999994,0.057295800000000015,-24.6658419,5.35142772,-52.43138658
4.91,491,0.055999999999999994,0.031,-0.987,0.1718874,-0.4583664000000001,0.0,-24.6658419,5.3456981400000005,-52.43138658
4.92,492,0.057,0.032,-0.987,0.11459160000000004,-0.5156622000000001,0.0,-24.6658419,5.339968560000001,-52.43138658
4.93,493,0.057,0.031,-0.987,0.11459160000000004,-0.572958,0.0,-24.660112320000003,5.33423898,-52.425657
4.9399999999999995,494,0.057,0.03,-0.987,0.2291832000000001,-0.7448454000000001,0.0,-24.660112320000003,5.3285094000000015,-52.425657
4.95,495,0.057999999999999996,0.028999999999999998,-0.986,0.286479,-0.6875496,0.0,-23.0615595,5.13943326,-52.23085128
4.96,496,0.059000000000000004,0.027000000000000003,-0.9840000000000001,0.40107059999999994,-0.5156622000000001,-0.11459160000000004,-23.05582992,5.13370368,-52.23085128
4.97,497,0.061,0.025,-0.985,0.40107059999999994,-0.2291832000000001,-0.1718874,-23.05582992,5.13370368,-52.23085128
4.9799999999999995,498,0.062,0.023,-0.987,0.572958,-0.057295800000000015,-0.11459160000000004,-23.05010034,5.13370368,-52.23085128
4.99,499,0.064,0.022000000000000002,-0.988,0.6875496,-0.057295800000000015,0.057295800000000015,-23.03864118,5.13370368,-52.23085128
5.0,500,0.065,0.023,-0.988,0.8594370000000001,-0.057295800000000015,0.1718874,-21.69218988,5.02484166,-52.10480051999999
5.01,501,0.065,0.023,-0.9890000000000001,1.145916,-0.057295800000000015,0.3437748,-21.68073072,5.02484166,-52.10480051999999
5.02,502,0.066,0.024,-0.987,1.0886202,-0.057295800000000015,0.2291832000000001,-21.66927156,5.02484166,-52.09907094
5.03,503,0.067,0.023,-0.985,1.0313244000000001,-0.11459160000000004,0.2291832000000001,-21.6578124,5.02484166,-52.09907094
5.04,504,0.067,0.02,-0.9840000000000001,0.9740286,-0.2291832000000001,0.286479,-21.64635324,5.02484166,-52.09334136
5.05,505,0.063,0.019,-0.983,0.8594370000000001,-0.286479,0.286479,-20.5405443,4.91597964,-51.97874975999999
5.06,506,0.06,0.019,-0.981,0.8021411999999999,-0.2291832000000001,0.3437748,-20.53481472,4.91597964,-51.97874975999999
5.07,507,0.06,0.019,-0.982,0.6875496,-0.057295800000000015,0.286479,-20.52335556,4.91597964,-51.973020180000006
5.08,508,0.06,0.021,-0.9840000000000001,0.4583664000000001,0.0,0.1718874,-20.52335556,4.91597964,-51.973020180000006
5.09,509,0.06,0.022000000000000002,-0.986,0.3437748,0.0,0.057295800000000015,-20.51762598,4.91597964,-51.973020180000006
5.1,510,0.06,0.021,-0.986,0.2291832000000001,0.11459160000000004,-0.11459160000000004,-18.6784308,4.7269035000000015,-51.78967362
5.11,511,0.062,0.017,-0.9840000000000001,0.11459160000000004,0.2291832000000001,-0.3437748,-18.67270122,4.7269035000000015,-51.7954032
5.12,512,0.064,0.013999999999999999,-0.9840000000000001,0.0,0.11459160000000004,-0.3437748,-18.67270122,4.7269035000000015,-51.7954032
5.13,513,0.068,0.015,-0.983,-0.286479,0.057295800000000015,-0.3437748,-18.6784308,4.7269035000000015,-51.80113278
5.14,514,0.07,0.016,-0.983,-0.5156622000000001,-0.11459160000000004,-0.2291832000000001,-18.68416038,4.72117392,-51.80113278
5.1499999999999995,515,0.068,0.018000000000000002,-0.98,-0.7448454000000001,-0.2291832000000001,-0.1718874,-17.81326422,4.66387812,-51.74383698000001
5.16,516,0.065,0.02,-0.9790000000000001,-0.9167328000000001,-0.1718874,-0.11459160000000004,-17.818993799999994,4.65814854,-51.74383698000001
5.17,517,0.064,0.019,-0.98,-1.145916,-0.11459160000000004,-0.1718874,-17.83618254,4.65814854,-51.74383698000001
5.18,518,0.065,0.017,-0.98,-1.3178034,-0.11459160000000004,-0.1718874,-17.847641699999997,4.65814854,-51.74383698000001
5.1899999999999995,519,0.064,0.019,-0.98,-1.4896908000000002,-0.1718874,-0.11459160000000004,-17.86483044,4.65241896,-51.74383698000001
5.2,520,0.065,0.019,-0.981,-1.6042823999999998,-0.286479,-0.11459160000000004,-17.29760202,4.6008527400000006,-51.69800034
5.21,521,0.062,0.021,-0.9840000000000001,-1.4896908000000002,-0.3437748,0.0,-17.30906118,4.59512316,-51.69800034
5.22,522,0.061,0.022000000000000002,-0.983,-1.432395,-0.5156622000000001,0.0,-17.326249920000002,4.58939358,-51.69800034
5.2299999999999995,523,0.061,0.021,-0.983,-1.4896908000000002,-0.5156622000000001,-0.1718874,-17.34343866,4.5836640000000015,-51.69800034
5.24,524,0.064,0.02,-0.985,-1.432395,-0.4583664000000001,-0.11459160000000004,-17.354897819999998,4.57793442,-51.69800034
5.25,525,0.066,0.02,-0.986,-1.432395,-0.6302538000000001,-0.1718874,-16.86215394,4.54355694,-51.66362286
5.26,526,0.068,0.019,-0.99,-1.432395,-0.6875496,-0.11459160000000004,-16.87934268,4.53209778,-51.66362286
5.27,527,0.066,0.019,-0.99,-1.4896908000000002,-0.8594370000000001,-0.057295800000000015,-16.89653142,4.5263682,-51.66362286
5.28,528,0.063,0.019,-0.991,-1.4896908000000002,-0.9740286,-0.11459160000000004,-16.90799058,4.51490904,-51.65789328
5.29,529,0.062,0.02,-0.991,-1.4896908000000002,-0.9167328000000001,-0.1718874,-16.92517932,4.50344988,-51.65789328
5.3,530,0.064,0.021,-0.991,-1.4896908000000002,-0.9167328000000001,-0.057295800000000015,-16.51264956,4.45761324,-51.62351579999999
5.31,531,0.065,0.02,-0.992,-1.5469866,-0.9167328000000001,-0.1718874,-16.5298383,4.45188366,-51.62351579999999
5.32,532,0.063,0.02,-0.992,-1.4896908000000002,-1.0313244000000001,-0.2291832000000001,-16.541297460000006,4.4404245000000016,-51.62351579999999
5.33,533,0.062,0.02,-0.991,-1.3750992,-1.0313244000000001,-0.11459160000000004,-16.5584862,4.42896534,-51.62351579999999
5.34,534,0.061,0.02,-0.99,-1.3750992,-0.9167328000000001,-0.1718874,-16.56994536,4.41750618,-51.62351579999999
5.35,535,0.057999999999999996,0.02,-0.9890000000000001,-1.432395,-0.6875496,-0.11459160000000004,-16.07720148,4.3544808,-51.57194958
5.36,536,0.055999999999999994,0.022000000000000002,-0.988,-1.4896908000000002,-0.5156622000000001,-0.11459160000000004,-16.09439022,4.34875122,-51.57194958
5.37,537,0.057,0.023,-0.987,-1.432395,-0.286479,-0.11459160000000004,-16.105849380000002,4.34302164,-51.57194958
5.38,538,0.06,0.022000000000000002,-0.988,-1.432395,-0.2291832000000001,-0.11459160000000004,-16.12303812,4.34302164,-51.57194958
5.39,539,0.059000000000000004,0.024,-0.991,-1.3750992,-0.40107059999999994,-0.1718874,-16.134497279999998,4.33729206,-51.57194958
5.3999999999999995,540,0.057999999999999996,0.023,-0.9940000000000001,-1.2032118,-0.4583664000000001,-0.11459160000000004,-15.62456466,4.27426668,-51.52611294
5.41,541,0.057,0.021,-0.991,-1.2605076000000002,-0.572958,-0.1718874,-15.63602382,4.2685371,-51.52611294
5.42,542,0.057,0.021,-0.988,-1.3178034,0.0,-0.2291832000000001,-15.65321256,4.26280752,-51.52611294
5.43,543,0.062,0.019,-0.987,-1.432395,0.286479,-0.2291832000000001,-15.66467172,4.2685371,-51.53184252
5.4399999999999995,544,0.069,0.019,-0.986,-1.432395,0.0,-0.11459160000000004,-15.68186046,4.2685371,-51.53184252
5.45,545,0.068,0.02,-0.986,-1.5469866,-0.3437748,0.0,-15.23495322,4.2398892,-51.5089242
5.46,546,0.062,0.021,-0.983,-1.6042823999999998,-0.286479,0.2291832000000001,-15.25214196,4.2398892,-51.50319462
5.47,547,0.057,0.024,-0.981,-1.7188740000000002,-0.2291832000000001,0.11459160000000004,-15.2693307,4.23415962,-51.50319462
5.4799999999999995,548,0.057999999999999996,0.024,-0.981,-1.6615782,-0.057295800000000015,0.0,-15.28651944,4.23415962,-51.50319462
5.49,549,0.062,0.022000000000000002,-0.981,-1.4896908000000002,-0.057295800000000015,-0.057295800000000015,-15.303708179999996,4.23415962,-51.50319462
5.5,550,0.064,0.02,-0.98,-1.6615782,-0.11459160000000004,-0.11459160000000004,-14.862530519999998,4.19978214,-51.47454672
5.51,551,0.061,0.019,-0.9840000000000001,-1.9480572,-0.286479,-0.11459160000000004,-14.88544884,4.19405256,-51.47454672
5.52,552,0.059000000000000004,0.019,-0.986,-2.1199446,-0.2291832000000001,-0.1718874,-14.90263758,4.1883229800000015,-51.47454672
5.53,553,0.057999999999999996,0.018000000000000002,-0.987,-0.6875496,0.286479,-0.11459160000000004,-14.914096740000002,4.19405256,-51.48027629999999
5.54,554,0.061,0.019,-0.9890000000000001,-0.8021411999999999,0.2291832000000001,0.057295800000000015,-14.919826320000002,4.19405256,-51.48027629999999
5.55,555,0.062,0.019,-0.995,-0.8021411999999999,-0.057295800000000015,0.057295800000000015,-14.003093519999998,4.11956802,-51.41725092
5.56,556,0.064,0.019,-0.9990000000000001,-0.572958,-0.11459160000000004,0.057295800000000015,-14.01455268,4.11956802,-51.41152134
5.57,557,0.065,0.02,-0.998,-0.286479,0.0,0.0,-14.01455268,4.11956802,-51.41152134
5.58,558,0.064,0.023,-0.9940000000000001,0.0,0.2291832000000001,-0.057295800000000015,-14.01455268,4.11956802,-51.41725092
5.59,559,0.065,0.026000000000000002,-0.988,0.11459160000000004,0.1718874,0.0,-14.01455268,4.1252976000000015,-51.41725092
5.6,560,0.063,0.027000000000000003,-0.986,0.1718874,0.0,-0.057295800000000015,-11.56802202,3.93049188,-51.26255225999999
5.61,561,0.063,0.027000000000000003,-0.987,0.057295800000000015,-0.1718874,0.0,-11.562292439999998,3.93049188,-51.26255225999999
5.62,562,0.062,0.026000000000000002,-0.9890000000000001,-0.1718874,-0.1718874,0.0,-11.56802202,3.9247623,-51.26255225999999
5.63,563,0.062,0.026000000000000002,-0.99,-0.057295800000000015,-0.11459160000000004,0.0,-11.56802202,3.9247623,-51.26255225999999
5.64,564,0.063,0.025,-0.9890000000000001,0.0,-0.2291832000000001,0.057295800000000015,-11.56802202,3.9247623,-51.26255225999999
5.6499999999999995,565,0.064,0.024,-0.988,0.057295800000000015,-0.1718874,0.11459160000000004,-10.51950888,3.85027776,-51.20525646
5.66,566,0.063,0.025,-0.988,0.11459160000000004,-0.2291832000000001,0.11459160000000004,-10.51950888,3.85027776,-51.20525646
5.67,567,0.062,0.024,-0.9890000000000001,0.057295800000000015,-0.286479,0.1718874,-10.51950888,3.84454818,-51.19952688
5.68,568,0.061,0.025,-0.9890000000000001,0.057295800000000015,-0.3437748,0.11459160000000004,-10.513779300000001,3.84454818,-51.19952688
5.6899999999999995,569,0.06,0.024,-0.99,0.11459160000000004,-0.1718874,0.2291832000000001,-10.513779300000001,3.8388186000000006,-51.1937973
5.7,570,0.059000000000000004,0.023,-0.9890000000000001,0.1718874,-0.1718874,0.2291832000000001,-9.70017894,3.74714532,-51.13077192
5.71,571,0.062,0.022000000000000002,-0.99,0.11459160000000004,-0.1718874,0.11459160000000004,-9.70017894,3.74714532,-51.12504234
5.72,572,0.062,0.021,-0.991,0.2291832000000001,-0.2291832000000001,0.1718874,-9.69444936,3.74714532,-51.12504234
5.7299999999999995,573,0.062,0.02,-0.99,0.1718874,-0.1718874,0.1718874,-9.69444936,3.74141574,-51.12504234
5.74,574,0.06,0.02,-0.99,0.0,-0.1718874,0.11459160000000004,-9.69444936,3.74141574,-51.11931276
5.75,575,0.059000000000000004,0.021,-0.99,0.0,-0.11459160000000004,0.057295800000000015,-8.12454444,3.54661002,-50.993262
5.76,576,0.057999999999999996,0.023,-0.9890000000000001,0.0,0.057295800000000015,0.057295800000000015,-8.12454444,3.5523396000000003,-50.993262
5.77,577,0.057999999999999996,0.023,-0.99,0.1718874,0.11459160000000004,0.057295800000000015,-8.12454444,3.5523396000000003,-50.98753242
5.78,578,0.06,0.021,-0.99,0.1718874,0.2291832000000001,0.0,-8.11881486,3.5523396000000003,-50.993262
5.79,579,0.062,0.021,-0.988,0.1718874,0.3437748,0.0,-8.11881486,3.5580691799999995,-50.993262
5.8,580,0.063,0.021,-0.9890000000000001,0.1718874,0.286479,0.057295800000000015,-7.734933000000002,3.54088044,-50.97607326000001
5.81,581,0.062,0.023,-0.99,0.2291832000000001,0.286479,0.057295800000000015,-7.72920342,3.54661002,-50.97607326000001
5.82,582,0.061,0.024,-0.99,0.3437748,0.11459160000000004,0.11459160000000004,-7.72920342,3.54661002,-50.97607326000001
5.83,583,0.06,0.025,-0.987,0.2291832000000001,0.11459160000000004,0.057295800000000015,-7.72347384,3.54661002,-50.97607326000001
5.84,584,0.059000000000000004,0.026000000000000002,-0.987,0.11459160000000004,0.286479,0.057295800000000015,-7.72347384,3.5523396000000003,-50.97607326000001
5.85,585,0.057999999999999996,0.026000000000000002,-0.9890000000000001,0.2291832000000001,0.40107059999999994,0.057295800000000015,-7.37396946,3.50650296,-50.94742536
5.86,586,0.057999999999999996,0.024,-0.99,0.3437748,0.572958,0.0,-7.36823988,3.5122325400000003,-50.94742536
5.87,587,0.059000000000000004,0.024,-0.987,0.572958,0.6302538000000001,0.0,-7.3625102999999985,3.5236917,-50.94742536
5.88,588,0.062,0.025,-0.985,0.6875496,0.7448454000000001,0.0,-7.3567807200000015,3.52942128,-50.94742536
5.89,589,0.063,0.026000000000000002,-0.985,0.6875496,0.6875496,0.057295800000000015,-7.34532156,3.5351508600000003,-50.94742536
5.8999999999999995,590,0.064,0.025,-0.9840000000000001,0.6302538000000001,0.572958,0.1718874,-7.167704579999999,3.5351508600000003,-50.94169578
5.91,591,0.065,0.026000000000000002,-0.986,0.4583664000000001,0.4583664000000001,0.057295800000000015,-7.161975,3.54088044,-50.94169578
5.92,592,0.064,0.024,-0.988,0.5156622000000001,0.2291832000000001,0.2291832000000001,-7.15624542,3.54088044,-50.94169578
5.93,593,0.062,0.023,-0.988,0.40107059999999994,0.1718874,0.2291832000000001,-7.15051584,3.54661002,-50.9359662
5.9399999999999995,594,0.06,0.022000000000000002,-0.988,0.1718874,0.0,0.057295800000000015,-7.15051584,3.54661002,-50.9359662
5.95,595,0.06,0.022000000000000002,-0.987,0.286479,0.11459160000000004,0.057295800000000015,-6.65777196,3.48931422,-50.90158872
5.96,596,0.061,0.023,-0.987,0.1718874,0.1718874,0.0,-6.65204238,3.4950437999999995,-50.90158872
5.97,597,0.063,0.023,-0.988,0.11459160000000004,0.2291832000000001,-0.057295800000000015,-6.65204238,3.4950437999999995,-50.90158872
5.9799999999999995,598,0.064,0.025,-0.99,0.057295800000000015,0.11459160000000004,-0.11459160000000004,-6.65204238,3.4950437999999995,-50.90158872
5.99,599,0.064,0.024,-0.9890000000000001,0.057295800000000015,0.057295800000000015,-0.11459160000000004,-6.65204238,3.4950437999999995,-50.90731829999999
6.0,600,0.063,0.024,-0.9890000000000001,0.11459160000000004,0.057295800000000015,-0.11459160000000004,-6.2051351399999986,3.4663959,-50.89012956
6.01,601,0.063,0.023,-0.99,0.057295800000000015,0.0,-0.11459160000000004,-6.1994055600000015,3.4663959,-50.89012956
6.02,602,0.064,0.022000000000000002,-0.988,0.11459160000000004,0.0,-0.057295800000000015,-6.1994055600000015,3.4663959,-50.89012956
6.03,603,0.065,0.021,-0.987,0.1718874,0.0,-0.057295800000000015,-6.1994055600000015,3.4663959,-50.89012956
6.04,604,0.065,0.021,-0.988,0.11459160000000004,-0.1718874,0.0,-6.1994055600000015,3.4663959,-50.89012956
6.05,605,0.067,0.022000000000000002,-0.9890000000000001,0.0,-0.40107059999999994,0.0,-5.7467687399999985,3.4663959,-50.89585913999999
6.06,606,0.065,0.022000000000000002,-0.991,0.0,-0.5156622000000001,0.0,-5.7467687399999985,3.46066632,-50.89585913999999
6.07,607,0.065,0.022000000000000002,-0.992,0.0,-0.5156622000000001,0.0,-5.7467687399999985,3.45493674,-50.89585913999999
6.08,608,0.065,0.022000000000000002,-0.99,0.0,-0.4583664000000001,0.0,-5.7467687399999985,3.4492071599999994,-50.89585913999999
6.09,609,0.062,0.021,-0.99,0.0,-0.4583664000000001,0.0,-5.7467687399999985,3.44347758,-50.89012956
6.1,610,0.062,0.021,-0.9890000000000001,-0.057295800000000015,-0.4583664000000001,0.0,-5.51758554,3.4148296799999995,-50.8786704
6.11,611,0.062,0.023,-0.99,-0.2291832000000001,-0.3437748,0.0,-5.51758554,3.4091001000000003,-50.8786704
6.12,612,0.062,0.025,-0.991,-0.2291832000000001,-0.40107059999999994,0.0,-5.51758554,3.4091001000000003,-50.87294082
6.13,613,0.062,0.024,-0.992,-0.3437748,-0.40107059999999994,0.0,-5.52331512,3.40337052,-50.87294082
6.14,614,0.061,0.025,-0.993,-0.5156622000000001,-0.286479,0.0,-5.5290447,3.39764094,-50.87294082
6.15,615,0.062,0.023,-0.992,-0.7448454000000001,-0.057295800000000015,0.057295800000000015,-5.3972643599999985,3.3919113599999995,-50.86721124
6.16,616,0.063,0.023,-0.9890000000000001,-0.8594370000000001,-0.057295800000000015,0.1718874,-5.40872352,3.38618178,-50.86721124
6.17,617,0.064,0.024,-0.9890000000000001,-0.9740286,-0.1718874,0.3437748,-5.42018268,3.38618178,-50.86148166
6.18,618,0.062,0.027000000000000003,-0.991,-1.2032118,-0.40107059999999994,0.1718874,-5.4316418399999975,3.380452200000001,-50.86148166
6.1899999999999995,619,0.061,0.03,-0.9940000000000001,-1.3178034,-0.4583664000000001,0.0,-5.443101,3.380452200000001,-50.86148166
6.2,620,0.057999999999999996,0.033,-0.9940000000000001,-1.3178034,-0.286479,0.0,-5.385805199999999,3.35753388,-50.850022499999994
6.21,621,0.057,0.031,-0.995,-1.145916,0.0,-0.057295800000000015,-5.3972643599999985,3.35753388,-50.850022499999994
6.22,622,0.059000000000000004,0.031,-0.995,-0.8594370000000001,0.2291832000000001,-0.286479,-5.40299394,3.35753388,-50.850022499999994
6.2299999999999995,623,0.06,0.028999999999999998,-0.996,-0.6875496,0.1718874,-0.40107059999999994,-5.4144530999999985,3.35753388,-50.85575208
6.24,624,0.062,0.027000000000000003,-0.993,-0.40107059999999994,0.057295800000000015,-0.286479,-5.4144530999999985,3.36326346,-50.85575208
6.25,625,0.06,0.026000000000000002,-0.9940000000000001,-0.2291832000000001,0.057295800000000015,-0.2291832000000001,-5.2139178,3.3231564,-50.83856333999999
6.26,626,0.057,0.027000000000000003,-0.996,0.0,0.2291832000000001,-0.1718874,-5.2139178,3.3231564,-50.83856333999999
6.27,627,0.057,0.025,-0.995,0.11459160000000004,0.3437748,-0.2291832000000001,-5.2139178,3.32888598,-50.84429292
6.28,628,0.06,0.023,-0.993,0.057295800000000015,0.40107059999999994,-0.2291832000000001,-5.2139178,3.33461556,-50.84429292
6.29,629,0.06,0.019,-0.99,0.0,0.40107059999999994,-0.1718874,-5.2139178,3.33461556,-50.850022499999994
6.3,630,0.059000000000000004,0.019,-0.987,-0.2291832000000001,0.2291832000000001,-0.11459160000000004,-5.01911208,3.3116972399999995,-50.83283376
6.31,631,0.059000000000000004,0.018000000000000002,-0.985,-0.5156622000000001,0.1718874,-0.11459160000000004,-5.02484166,3.31742682,-50.83856333999999
6.32,632,0.059000000000000004,0.02,-0.987,-0.7448454000000001,0.0,-0.057295800000000015,-5.03057124,3.31742682,-50.83856333999999
6.33,633,0.057999999999999996,0.022000000000000002,-0.993,-1.0313244000000001,-0.057295800000000015,0.0,-5.042030400000002,3.3116972399999995,-50.83856333999999
6.34,634,0.057999999999999996,0.025,-0.997,-0.8594370000000001,-0.286479,0.057295800000000015,-5.05348956,3.3116972399999995,-50.83856333999999
6.35,635,0.057999999999999996,0.024,-0.997,-0.40107059999999994,-0.2291832000000001,0.1718874,-4.81857678,3.2658606,-50.80991544000001
