TimeStamp(s),FrameCounter,AccX,AccY,AccZ,GyrX,GyrY,GyrZ,EulerX,EulerY,EulerZ
0.01,1,-0.01,-1.005,0.071,0.0,-1.7188740000000002,-0.11459160000000004,89.24966766,-0.41825934,-37.17351504
0.02,2,-0.006999999999999999,-1.005,0.071,0.057295800000000015,-1.9480572,-0.1718874,89.24966766,-0.41825934,-37.19643336
0.03,3,-0.005,-1.006,0.069,-0.057295800000000015,-2.2345362,-0.3437748,89.24966766,-0.41252976,-37.2136221
0.04,4,-0.004,-1.007,0.071,-0.11459160000000004,-2.4637194,-0.4010706,89.24966766,-0.40680018,-37.24227000000001
0.05,5,-0.002,-1.008,0.07400000000000001,-0.1718874,-2.578311,-0.4583664000000001,89.24393807999998,-0.4010706000000001,-37.26518832
0.060000000000000005,6,-0.003,-1.008,0.07400000000000001,-0.057295800000000015,-2.5210152000000003,-0.4010706,89.40436632,-0.37815228,-37.31102496
0.06999999999999999,7,-0.003,-1.008,0.076,-0.1718874,-2.3491278,-0.3437748,89.40436632,-0.3724227000000001,-37.33394328
0.08,8,-0.002,-1.009,0.07400000000000001,-0.4010706,-2.0053530000000004,-0.1718874,89.39863674,-0.3724227000000001,-37.3568616
0.09,9,-0.004,-1.01,0.073,-0.4010706,-2.1199446,0.0,89.39290716000002,-0.3724227000000001,-37.37977992
0.09999999999999999,10,-0.005,-1.009,0.07400000000000001,-0.4010706,-2.2345362,0.0,89.39290716000002,-0.3724227000000001,-37.40269823999999
0.11,11,-0.006999999999999999,-1.006,0.07400000000000001,-0.4583664000000001,-2.0626488000000003,0.0,89.57052414,-0.36096354,-37.43134614
0.12,12,-0.009000000000000001,-1.006,0.07400000000000001,-0.572958,-1.7188740000000002,0.0,89.56479456,-0.36096354,-37.44853488
0.13,13,-0.011,-1.006,0.07200000000000001,-0.572958,-1.6615782,-0.1718874,89.55906498,-0.36096354,-37.46572362
0.14,14,-0.014,-1.009,0.071,-0.572958,-1.5469866,-0.286479,89.55333540000002,-0.35523396,-37.48291236
0.15000000000000002,15,-0.013,-1.014,0.073,-0.572958,-1.0313244,-0.4010706,89.54760582,-0.34950438,-37.49437152
0.16,16,-0.012,-1.013,0.075,-0.9740286,-0.5156622000000001,-0.4583664000000001,89.75960028,-0.34950438,-37.51156026
0.17,17,-0.012,-1.013,0.077,-0.9740286,0.0,-0.3437748,89.75387070000002,-0.3437748,-37.51156026
0.18000000000000002,18,-0.01,-1.01,0.079,-0.7448454000000001,0.057295800000000015,-0.286479,89.74241154,-0.3437748,-37.50583068
0.19,19,-0.009000000000000001,-1.01,0.084,-0.9167328,0.286479,-0.2291832000000001,89.73668196000001,-0.33804522,-37.50583068
0.2,20,-0.009000000000000001,-1.013,0.084,-1.3750992,0.7448454000000001,-0.2291832000000001,89.71949322,-0.33804522,-37.5001011
0.21000000000000002,21,-0.01,-1.011,0.083,-1.8907613999999997,1.3750992,-0.2291832000000001,89.82262566,-0.33231564,-37.48864194
0.22,22,-0.009000000000000001,-1.009,0.08199999999999999,-1.9480572,1.7761698,-0.1718874,89.80543692,-0.33231564,-37.4714532
0.23,23,-0.008,-1.01,0.08199999999999999,-1.9480572,2.2345362,-0.1718874,89.7825186,-0.33231564,-37.44853488
0.24000000000000002,24,-0.009000000000000001,-1.011,0.081,-2.0053530000000004,2.578311,-0.11459160000000004,89.75960028,-0.33231564,-37.42561656
0.25,25,-0.009000000000000001,-1.01,0.081,-1.8334656000000005,2.4637194,-0.1718874,89.74241154,-0.32658606,-37.40269823999999
0.26,26,-0.006,-1.006,0.083,-2.0053530000000004,2.291832,-0.4583664000000001,89.81689608,-0.31512690000000004,-37.3855095
0.27,27,-0.004,-1.005,0.084,-2.1772404,2.1199446,-0.5156622000000001,89.79397776,-0.31512690000000004,-37.36832076
0.28,28,-0.005,-1.006,0.084,-2.2345362,2.0626488000000003,-0.572958,89.77105944,-0.30939732,-37.34540244
0.29000000000000004,29,-0.009000000000000001,-1.004,0.083,-2.0626488000000003,2.1772404,-0.6302538000000001,89.74814112,-0.30366774,-37.32248412
0.3,30,-0.011,-1.006,0.083,-2.0053530000000004,2.4064236,-0.572958,89.72522280000004,-0.29793816,-37.299565799999996
0.31,31,-0.01,-1.008,0.08199999999999999,-2.1772404,2.4637194,-0.4010706,89.78824818,-0.29220857999999994,-37.28237706
0.32,32,-0.008,-1.007,0.078,-2.291832,2.578311,-0.3437748,89.76532986,-0.29220857999999994,-37.25372916
0.33,33,-0.008,-1.004,0.077,-2.0626488000000003,2.6929026,-0.4583664000000001,89.74241154,-0.28647900000000004,-37.23081084
0.34,34,-0.006999999999999999,-1.002,0.079,-1.8334656000000005,2.578311,-0.4583664000000001,89.72522280000004,-0.28074942,-37.20216294
0.35000000000000003,35,-0.009000000000000001,-1.002,0.084,-1.5469866,2.0626488000000003,-0.3437748,89.70803406,-0.28074942,-37.1849742
0.36000000000000004,36,-0.009000000000000001,-1.001,0.087,-1.4896908000000002,1.9480572,-0.286479,89.82262566,-0.28074942,-37.16778546
0.37,37,-0.011,-1.001,0.08800000000000001,-1.432395,1.9480572,-0.2291832000000001,89.80543692,-0.27501984,-37.15059672
0.38,38,-0.011,-1.002,0.091,-1.3750992,2.0053530000000004,-0.286479,89.78824818,-0.27501984,-37.1276784
0.39,39,-0.012,-1.007,0.091,-1.2605076000000002,2.291832,-0.3437748,89.77678902,-0.26929026,-37.10476008
0.4,40,-0.011,-1.01,0.095,-1.2605076000000002,2.0626488000000003,-0.286479,89.76532986,-0.26929026,-37.08757134
0.41000000000000003,41,-0.011,-1.011,0.095,-1.4896908000000002,1.8907613999999997,-0.286479,89.89138061999998,-0.26929026,-37.0703826
0.42000000000000004,42,-0.012,-1.007,0.095,-1.6042823999999998,1.8334656000000005,-0.2291832000000001,89.87419188,-0.26929026,-37.05319386
0.43,43,-0.013,-1.004,0.093,-1.8334656000000005,1.6042823999999998,-0.1718874,89.85700313999996,-0.26356068,-37.03600512000001
0.44,44,-0.013,-1.0,0.091,-1.6042823999999998,1.7761698,-0.286479,89.83981440000002,-0.26356068,-37.01881638
0.45,45,-0.015,-0.997,0.087,-1.145916,2.0626488000000003,-0.1718874,89.82835524000002,-0.26356068,-37.00162764
0.46,46,-0.015,-0.993,0.085,-0.3437748,2.2345362,-0.11459160000000004,89.98878348,-0.27501984,-36.97297974
0.47000000000000003,47,-0.016,-0.994,0.083,0.057295800000000015,2.1199446,-0.11459160000000004,89.98878348,-0.27501984,-36.955791
0.48000000000000004,48,-0.017,-0.994,0.08,0.2291832000000001,2.0053530000000004,-0.057295800000000015,89.98878348,-0.27501984,-36.93287268
0.49,49,-0.016,-0.995,0.075,0.4010706,1.7188740000000002,-0.1718874,89.99451306,-0.27501984,-36.91568394
0.5,50,-0.013,-0.997,0.07200000000000001,0.6875496,1.4896908000000002,-0.286479,90.00024264,-0.26929026,-36.898495200000006
0.51,51,-0.012,-1.002,0.07,1.0886202,0.9740286,-0.2291832000000001,90.13202298,-0.27501984,-36.89276562
0.52,52,-0.014,-1.002,0.065,1.7761698,0.6302538000000001,-0.2291832000000001,90.14921172,-0.27501984,-36.88703604
0.53,53,-0.018000000000000002,-0.999,0.064,2.7501984,0.5156622000000001,-0.3437748,90.17785962,-0.26929026,-36.88130646000001
0.54,54,-0.017,-0.996,0.057,3.6096354,0.3437748,-0.4583664000000001,90.21796668,-0.26356068,-36.87557688
0.55,55,-0.011,-0.987,0.045,4.5263682,0.1718874,-0.572958,90.26380332,-0.25783110000000004,-36.869847299999996
0.56,56,-0.008,-0.973,0.035,5.72958,0.11459160000000004,-0.572958,90.3268287,-0.25210152,-36.869847299999996
0.5700000000000001,57,-0.01,-0.965,0.037000000000000005,7.7922288,-0.286479,-0.286479,90.40131324,-0.24637194,-36.869847299999996
0.5800000000000001,58,-0.023,-0.969,0.061,9.969469199999999,-1.2032118,0.2291832000000001,90.50444568,-0.25210152,-36.88130646000001
0.59,59,-0.034,-1.005,0.077,10.3705398,-2.86479,0.4010706,90.6133077,-0.25210152,-36.90995436
0.6,60,-0.043,-1.043,0.056,7.3911582,-2.0626488000000003,-0.9167328,90.68779224,-0.24064236,-36.93287268
0.61,61,-0.046,-1.07,0.036000000000000004,5.3858052,0.0,-2.6356068,90.73935846,-0.23491278,-36.91568394
0.62,62,-0.042,-1.083,0.016,2.9220857999999996,1.2605076000000002,-3.5523396000000003,90.76800636,-0.20053530000000008,-36.90422478
0.63,63,-0.038,-1.081,0.003,0.6875496,1.8334656000000005,-3.4377480000000005,90.77373594,-0.16615782,-36.88130646000001
0.64,64,-0.03,-1.062,0.006,-0.8594370000000001,2.7501984,-2.6929026,90.76227678,-0.13750992,-36.85265856
0.65,65,-0.023,-1.045,0.014,-3.0366774,4.2398892,-1.8907613999999997,90.73362888,-0.12032118,-36.8125515
0.66,66,-0.019,-1.042,0.003,-5.5003968,5.9014674000000005,-1.145916,90.65914434,-0.12032118,-36.74952612
0.67,67,-0.023,-1.038,0.002,-6.3598338,7.7349330000000025,-0.9740286,90.59611896,-0.11459160000000004,-36.67504158
0.68,68,-0.024,-1.048,0.0,-7.8495246,8.9381448,-1.145916,90.51017526,-0.10313244,-36.5833683
0.6900000000000001,69,-0.022,-1.068,-0.012,-11.1153852,9.9121734,-1.4896908000000002,90.39558366,-0.09740286,-36.48596544
0.7000000000000001,70,-0.019,-1.088,-0.024,-14.495837400000001,10.4851314,-1.4896908000000002,90.24661458,-0.0859437,-36.38856258
0.7100000000000001,71,-0.015,-1.102,-0.038,-18.621135,10.6570188,-1.2032118,90.04607927999999,-0.08021412,-36.27970056
0.72,72,-0.01,-1.107,-0.055,-23.4339822,10.599723,-1.0886202,89.80543692,-0.07448454,-36.17656812
0.73,73,-0.012,-1.101,-0.073,-27.043617600000005,10.9434978,-1.0313244,89.53041707999998,-0.06875496,-36.07343568
0.74,74,-0.015,-1.088,-0.08800000000000001,-30.1375908,11.8029348,-1.8334656000000005,89.22101975999998,-0.05156622,-35.95884408
0.75,75,-0.021,-1.08,-0.094,-34.1482968,12.6623718,-2.86479,88.87151537999998,-0.028647900000000007,-35.8385229
0.76,76,-0.027000000000000003,-1.0759999999999998,-0.1,-37.2995658,13.9228794,-3.380452200000001,88.48190394,0.0,-35.70101298
0.77,77,-0.033,-1.075,-0.103,-39.591397799999996,15.527161800000002,-3.724227,88.07510376,0.028647900000000007,-35.55777348
0.78,78,-0.032,-1.079,-0.106,-41.8832298,17.246035799999998,-4.297185,87.65111484,0.06875496,-35.39161566
0.79,79,-0.022,-1.084,-0.116,-45.6074568,18.621135,-4.6409598,87.18128928,0.11459160000000004,-35.21399868
0.8,80,-0.008,-1.0759999999999998,-0.131,-50.24841660000001,19.4232762,-4.4117766,86.67135666,0.16042824,-35.03065212
0.81,81,0.0,-1.057,-0.14300000000000002,-54.029939399999996,19.480572,-3.8961144,86.10985782,0.20053530000000008,-34.84730556
0.8200000000000001,82,-0.004,-1.048,-0.151,-57.983349600000004,18.621135,-3.724227,85.51971108000002,0.24064236,-34.66968858
0.8300000000000001,83,-0.011,-1.035,-0.189,-65.030733,18.6784308,-3.8388186,84.86080938,0.28074942,-34.49780118
0.8400000000000001,84,-0.02,-1.003,-0.229,-67.895523,19.194093,-5.1566220000000005,84.1675302,0.33804522,-34.3201842
0.85,85,-0.027000000000000003,-0.977,-0.238,-68.41118519999999,20.454600600000006,-7.448453999999999,83.47425102000003,0.42398892,-34.131108059999995
0.86,86,-0.033,-0.93,-0.197,-70.93220040000001,20.798375399999998,-10.0840608,82.74659436,0.53285094,-33.94203192
0.87,87,-0.031,-0.909,-0.104,-74.771019,22.173474600000002,-11.3445684,81.98456021999998,0.6589017,-33.74722620000001
0.88,88,-0.017,-0.909,-0.08199999999999999,-82.04758559999998,25.8977016,-10.8289062,81.15377112,0.7906820400000001,-33.518043
0.89,89,-0.008,-0.8959999999999999,0.031,-88.0063488,29.5646328,-8.193299399999999,80.25995664,0.89954406,-33.24875274
0.9,90,-0.011,-0.892,0.211,-97.689339,32.830493399999995,-4.010706000000001,79.26873930000002,0.97975818,-32.945085
0.91,91,0.014,-0.904,0.139,-120.4357716,29.9084076,0.1718874,78.05979792000002,1.01413566,-32.66433558
0.92,92,0.041,-0.8909999999999999,-0.005,-132.1241148,24.5798982,3.151269,76.7190762,1.01986524,-32.429422800000005
0.93,93,0.07,-0.843,-0.106,-134.1867636,20.8556712,3.8388186,75.35543616,1.00840608,-32.23461708000001
0.9400000000000001,94,0.091,-0.795,-0.165,-133.499214,19.938938399999998,2.4064236,74.00325528,1.01986524,-32.04554094
0.9500000000000001,95,0.077,-0.762,-0.212,-132.75436860000002,21.829699800000004,-1.3750992,72.65680397999998,1.07143146,-31.856464799999998
0.9600000000000001,96,0.026,-0.7490000000000001,-0.252,-131.60845260000002,22.7464326,-5.9014674000000005,71.32181184,1.18029348,-31.66738866
0.97,97,-0.033,-0.71,-0.105,-129.54580380000002,19.0795014,-9.0527364,70.00400843999999,1.30634424,-31.52987874
0.98,98,-0.033,-0.6679999999999999,0.065,-132.6970728,12.4331886,-12.4904844,68.65755714000001,1.44958374,-31.46685336
0.99,99,0.015,-0.665,0.03,-135.04620060000002,4.8128472,-12.9488508,67.28818752,1.56990492,-31.47831252
1.0,100,0.018000000000000002,-0.696,-0.021,-132.00952320000002,0.2291832000000001,-11.45916,65.94746579999999,1.6558486199999998,-31.52987874
1.01,101,0.023,-0.758,-0.037000000000000005,-135.04620060000002,1.8907613999999997,-8.880849000000003,64.58382576,1.73033316,-31.558526640000004
1.02,102,0.005,-0.7559999999999999,-0.128,-140.2601184,2.291832,-5.6722842,63.16288992,1.77044022,-31.57571538
1.03,103,-0.014,-0.73,-0.228,-138.369357,2.291832,-5.5576926,61.75914282,1.81627686,-31.58717454
1.04,104,-0.012,-0.7120000000000001,-0.233,-132.46788959999998,1.0313244,-8.307891,60.41269152,1.87357266,-31.6272816
1.05,105,0.011,-0.7,-0.16399999999999998,-128.8009584,-1.5469866,-11.6310474,59.1006177,1.95378678,-31.70749572
1.06,106,0.053,-0.667,-0.062,-126.337239,-3.2085648,-14.2093584,57.82865094,2.04546006,-31.81635774
1.07,107,0.095,-0.6759999999999999,-0.046,-125.1340272,-0.286479,-15.469866,56.55668418000001,2.15432208,-31.90803102
1.08,108,0.08,-0.7340000000000001,-0.07,-125.3059146,-0.4010706,-11.917526400000002,55.27898784,2.2345362,-31.988245140000004
1.09,109,0.047,-0.7509999999999999,-0.132,-128.629071,-0.6875496,-9.2819196,53.97264360000001,2.28610242,-32.05127052
1.1,110,-0.003,-0.687,-0.233,-130.29064920000002,-1.6042823999999998,-6.4744254,52.64911062,2.3147503200000004,-32.10856632
1.11,111,-0.026,-0.664,-0.289,-125.9934642,-2.5210152000000003,-5.9014674000000005,51.37714386,2.32620948,-32.16586212
1.12,112,-0.03,-0.684,-0.315,-123.4151532,-2.9220857999999996,-5.5003968,50.12236584,2.33193906,-32.2288875
1.1300000000000001,113,-0.016,-0.706,-0.325,-121.2952086,-3.8961144,-6.3025379999999975,48.89050614,2.3376686399999995,-32.30337204
1.1400000000000001,114,0.023,-0.723,-0.316,-118.1439396,-5.042030400000002,-7.2765666,47.68729434,2.34339822,-32.395045319999994
1.1500000000000001,115,0.033,-0.731,-0.341,-117.3990942,-7.906820400000001,-6.9327918,46.48981212,2.32620948,-32.50390734
1.1600000000000001,116,0.026,-0.713,-0.369,-116.0812908,-9.3965112,-6.6463128000000005,45.3209778,2.29756158,-32.62422852
1.17,117,0.02,-0.705,-0.3720000000000001,-113.732163,-8.8235532,-6.990087599999999,44.16360264,2.26891368,-32.73882012
1.18,118,0.022,-0.659,-0.4270000000000001,-111.72681,-7.9641161999999985,-9.3965112,43.029145799999995,2.2631841,-32.86487088
1.19,119,-0.008,-0.701,-0.461,-108.002583,-7.333862400000001,-7.3911582,41.92906644,2.24599536,-32.973732899999995
1.2,120,-0.002,-0.6659999999999999,-0.489,-106.1691174,-6.3025379999999975,-8.250595200000001,40.84617582,2.24026578,-33.07686534
1.21,121,-0.008,-0.637,-0.473,-102.273003,-4.297185,-7.8495246,39.81485142,2.24026578,-33.16853862
1.22,122,-0.006999999999999999,-0.586,-0.472,-99.63739620000001,0.11459160000000004,-9.1100322,38.80071576,2.28610242,-33.23729358
1.23,123,0.012,-0.564,-0.5,-94.0797036,5.5003968,-10.8289062,37.84387589999999,2.38350528,-33.2888598
1.24,124,0.031,-0.541,-0.522,-89.954406,7.906820400000001,-12.3758928,36.9271431,2.50382646,-33.33469644
1.25,125,0.05,-0.5660000000000001,-0.5529999999999999,-84.8550798,8.651665800000002,-12.4904844,36.06197652,2.6356068,-33.38053308
1.26,126,0.084,-0.597,-0.614,-81.2454444,6.990087599999999,-11.6310474,35.24264658,2.7501984,-33.43782888
1.27,127,0.095,-0.624,-0.6829999999999999,-78.1514712,3.151269,-10.599723,34.44623496,2.82468294,-33.506583840000005
1.28,128,0.098,-0.655,-0.71,-75.5731602,-1.5469866,-9.8548776,33.67274166,2.85906042,-33.592527540000006
1.29,129,0.098,-0.652,-0.737,-73.45321560000002,-5.9014674000000005,-10.599723,32.922166680000004,2.85906042,-33.71284872
1.3,130,0.071,-0.6509999999999999,-0.775,-69.0987348,-8.9381448,-10.5424272,32.217428340000005,2.83041252,-33.85035864
1.31,131,0.063,-0.627,-0.794,-64.0567044,-11.516455800000001,-9.6256944,31.564256220000004,2.7788463,-33.999327720000004
1.32,132,0.059,-0.603,-0.84,-60.2751816,-11.8602306,-9.568398599999998,30.94546158,2.7215505,-34.14256722
1.33,133,0.065,-0.603,-0.878,-57.06661679999999,-12.032117999999999,-9.969469199999999,30.36104442,2.6642547000000003,-34.291536300000004
1.34,134,0.05,-0.584,-0.8959999999999999,-55.40503860000001,-12.0894138,-10.1986524,29.793816,2.6069589,-34.440505380000005
1.35,135,0.025,-0.589,-0.912,-53.1705024,-11.745639,-10.599723,29.24950590000001,2.5496631,-34.58947446
1.36,136,0.017,-0.619,-0.925,-49.7900502,-11.45916,-9.224623800000002,28.74530286,2.48663772,-34.72698438
1.37,137,-0.003,-0.606,-0.923,-49.274388,-10.1413566,-8.136003599999999,28.24109982,2.42934192,-34.84730556
1.3800000000000001,138,0.029,-0.6659999999999999,-0.943,-44.7480198,-8.59437,-6.4744254,27.78273342,2.38350528,-34.94470842
1.3900000000000001,139,0.063,-0.7120000000000001,-0.966,-41.76863820000001,-8.59437,-5.2139178,27.3587445,2.32620948,-35.03638170000001
1.4000000000000001,140,0.08199999999999999,-0.696,-1.001,-39.591397799999996,-8.8235532,-4.1825934,26.95194432000001,2.2631841,-35.11086624
1.4100000000000001,141,0.09,-0.685,-1.056,-36.32553720000001,-8.193299399999999,-4.9274388,26.59098078,2.21161788,-35.19680993999999
1.42,142,0.085,-0.664,-1.053,-34.0337052,-6.8182002000000015,-6.8182002000000015,26.2414764,2.1772404,-35.28848322
1.43,143,0.106,-0.642,-1.061,-32.085648000000006,-6.760904399999999,-7.7922288,25.91489034,2.14286292,-35.38588608
1.44,144,0.12,-0.613,-1.082,-30.9970278,-8.59437,-7.0473834,25.59403386,2.09702628,-35.48901852
1.45,145,0.117,-0.59,-1.099,-29.220858000000003,-11.229976800000001,-5.6722842,25.2960957,2.01681216,-35.59215096
1.46,146,0.085,-0.64,-1.106,-24.694489800000003,-14.266654199999998,-4.7555514,25.04972376,1.90795014,-35.695283399999994
1.47,147,0.057,-0.6609999999999999,-1.102,-24.4080108,-17.5325148,-5.443101,24.79762224000001,1.7761698,-35.82133416
1.48,148,0.053,-0.682,-1.094,-23.777757,-19.480572,-6.3598338,24.55697988,1.6272007199999998,-35.96457366
1.49,149,0.067,-0.6859999999999999,-1.107,-24.8663772,-18.6784308,-6.1879464,24.30487836,1.48396122,-36.10208358
1.5,150,0.08199999999999999,-0.657,-1.097,-26.4706596,-15.9282324,-6.9327918,24.02985852,1.36364004,-36.23386392
1.51,151,0.08199999999999999,-0.636,-1.135,-26.69984280000001,-12.1467096,-6.3025379999999975,23.76629784,1.28342592,-36.34272594
1.52,152,0.08,-0.655,-1.155,-25.84040580000001,-9.6829902,-4.4690724,23.50273716,1.20894138,-36.42294006
1.53,153,0.048,-0.631,-1.172,-28.0176462,-9.8548776,-2.7501984,23.21625816,1.12872726,-36.49169502
1.54,154,0.043,-0.634,-1.182,-28.1895336,-12.7769634,-0.11459160000000004,22.93550874,1.00840608,-36.54326124
1.55,155,0.055,-0.622,-1.187,-29.67922440000001,-16.673077799999998,2.1199446,22.631841,0.8479778399999999,-36.58909788
1.56,156,0.05,-0.631,-1.193,-28.4760126,-19.3659804,1.6042823999999998,22.35109158,0.66463128,-36.65212326
1.57,157,0.036000000000000004,-0.618,-1.247,-29.793816,-19.938938399999998,-0.4010706,22.04742384,0.48128472,-36.73806696
1.58,158,0.0,-0.6509999999999999,-1.255,-25.496631,-18.2200644,-1.145916,21.78959274,0.31512690000000004,-36.81828108000001
1.59,159,-0.03,-0.653,-1.226,-29.1635622,-13.5791046,-1.6615782,21.49738416,0.19480572,-36.88703604
1.6,160,-0.055,-0.622,-1.238,-30.5386614,-8.5370742,-1.2032118,21.18798684,0.11459160000000004,-36.93287268
1.61,161,-0.062,-0.626,-1.243,-28.7051958,-3.9534102,-0.8021411999999999,20.90150784,0.07448454,-36.95006142
1.62,162,-0.05,-0.61,-1.232,-29.2781538,-0.6875496,-3.5523396000000003,20.60356968,0.08021412,-36.9844389
1.6300000000000001,163,-0.023,-0.564,-1.234,-29.7365202,0.6875496,-2.4064236,20.29990194,0.09167328,-37.00162764
1.6400000000000001,164,-0.006,-0.556,-1.203,-25.7258142,0.9740286,-2.1772404,20.04207084,0.10313244,-37.01881638
1.6500000000000001,165,0.013,-0.542,-1.182,-26.298772200000002,0.7448454000000001,-2.578311,19.77278058,0.11459160000000004,-37.0417347
1.6600000000000001,166,0.033,-0.511,-1.163,-26.2414764,0.1718874,-2.0626488000000003,19.51494948,0.12605075999999998,-37.05892344
1.6700000000000002,167,0.035,-0.485,-1.138,-24.5798982,0.7448454000000001,-0.4010706,19.26284796,0.12605075999999998,-37.05892344
1.68,168,0.027000000000000003,-0.461,-1.101,-23.5485738,1.4896908000000002,0.6875496,19.0222056,0.13750992,-37.04746428
1.69,169,0.01,-0.439,-1.054,-22.345362,2.1199446,1.2605076000000002,18.79875198,0.14896908,-37.02454596
1.7,170,0.003,-0.423,-1.017,-21.027558600000006,2.6356068,1.0313244,18.58102794,0.16615782,-37.00735722
1.71,171,-0.002,-0.403,-0.992,-20.2254174,3.0366774,0.0,18.38622222,0.18907614,-36.99589806
1.72,172,0.006,-0.385,-0.967,-18.907614000000002,3.0366774,-0.9167328,18.197146080000003,0.21772404,-36.99016848
1.73,173,0.014,-0.37,-0.943,-17.3606274,3.0939732,-1.5469866,18.019529100000003,0.25210152,-36.99589806
1.74,174,0.019,-0.35200000000000004,-0.926,-16.272007199999994,2.7501984,-2.1199446,17.85337128,0.28074942,-37.00735722
1.75,175,0.019,-0.337,-0.906,-14.667724800000002,2.4637194,-2.5210152000000003,17.704402199999997,0.30939732,-37.01881638
1.76,176,0.014,-0.331,-0.89,-13.2353298,1.7761698,-2.578311,17.57835144,0.33804522,-37.0417347
1.77,177,0.011,-0.32299999999999995,-0.867,-12.032117999999999,1.3178034,-2.578311,17.45803026,0.35523396,-37.05892344
1.78,178,0.015,-0.315,-0.8540000000000001,-10.4278356,1.2032118,-2.578311,17.34916824,0.3724227000000001,-37.08184176
1.79,179,0.021,-0.306,-0.841,-8.880849000000003,0.057295800000000015,-2.3491278,17.25749496,0.37815228,-37.10476008
1.8,180,0.023,-0.298,-0.83,-7.6776372,-0.7448454000000001,-2.1199446,17.18301042,0.37815228,-37.12194882
1.81,181,0.018000000000000002,-0.29600000000000004,-0.8220000000000001,-6.2452422,-1.3750992,-1.7761698,17.12571462,0.3724227000000001,-37.14486714
1.82,182,0.005,-0.294,-0.8059999999999999,-5.2139178,-1.7761698,-1.5469866,17.0741484,0.35523396,-37.16778546
1.83,183,0.004,-0.292,-0.8170000000000001,-4.297185,-1.4896908000000002,-1.432395,17.02831176,0.3437748,-37.1849742
1.84,184,0.008,-0.292,-0.812,-2.578311,-1.2605076000000002,-1.0313244,17.00539344,0.33804522,-37.20216294
1.85,185,0.003,-0.293,-0.8140000000000001,-1.3178034,-1.3750992,-0.572958,16.9882047,0.32658606,-37.20789252
1.86,186,-0.002,-0.29100000000000004,-0.821,-0.11459160000000004,-1.2605076000000002,-0.3437748,16.999663860000002,0.30366774,-37.2136221
1.87,187,0.003,-0.295,-0.816,1.432395,-1.432395,0.0,17.0168526,0.29220857999999994,-37.21935168
1.8800000000000001,188,0.013,-0.309,-0.8170000000000001,2.2345362,-1.9480572,0.6302538000000001,17.039770920000002,0.26929026,-37.21935168
1.8900000000000001,189,0.023,-0.315,-0.821,2.1772404,-2.4637194,1.0886202,17.06268924,0.24637194,-37.2136221
1.9000000000000001,190,0.022,-0.314,-0.821,2.291832,-2.7501984,1.6042823999999998,17.085607560000003,0.21772404,-37.20789252
1.9100000000000001,191,0.011,-0.319,-0.84,2.9220857999999996,-2.9220857999999996,1.9480572,17.14290336,0.18334656,-37.19643336
1.9200000000000002,192,-0.001,-0.322,-0.85,3.2658606,-2.9220857999999996,2.1772404,17.17728084,0.14896908,-37.1849742
1.93,193,-0.006999999999999999,-0.328,-0.857,3.380452200000001,-2.7501984,2.291832,17.21165832,0.11459160000000004,-37.17351504
1.94,194,0.0,-0.336,-0.872,3.4377480000000005,-2.5210152000000003,2.3491278,17.246035799999998,0.0859437,-37.16205588
1.95,195,0.008,-0.34700000000000003,-0.8809999999999999,3.2658606,-2.6929026,2.4064236,17.280413279999998,0.05156622,-37.14486714
1.96,196,0.016,-0.359,-0.8959999999999999,2.7501984,-3.2085648,2.4064236,17.3606274,0.028647900000000007,-37.14486714
1.97,197,0.013,-0.368,-0.909,2.3491278,-3.6096354,2.578311,17.383545719999994,-0.00572958,-37.1276784
1.98,198,0.001,-0.373,-0.916,1.9480572,-3.8961144,2.8074942000000003,17.40646404,-0.05156622,-37.11621924
1.99,199,-0.008,-0.374,-0.926,1.3178034,-4.010706000000001,2.9220857999999996,17.4179232,-0.09740286,-37.0990305
2.0,200,-0.009000000000000001,-0.376,-0.92,1.0313244,-4.0680017999999984,2.9793816000000004,17.429382359999998,-0.14896908,-37.08757134
2.01,201,-0.009000000000000001,-0.377,-0.927,0.6302538000000001,-4.4117766,2.8074942000000003,17.498137319999998,-0.20626488,-37.0703826
2.02,202,-0.009000000000000001,-0.376,-0.939,0.4583664000000001,-4.010706000000001,2.6929026,17.5038669,-0.25210152,-37.05319386
2.03,203,-0.006,-0.383,-0.941,0.4583664000000001,-3.0939732,2.5210152000000003,17.50959648,-0.29220857999999994,-37.0417347
2.04,204,-0.009000000000000001,-0.386,-0.93,0.0,-2.1772404,2.3491278,17.50959648,-0.32085648,-37.02454596
2.05,205,-0.016,-0.391,-0.935,-0.4583664000000001,-1.432395,1.8907613999999997,17.5038669,-0.33804522,-37.0130868
2.0599999999999996,206,-0.016,-0.4,-0.939,-0.8594370000000001,-0.6875496,1.3178034,17.687213460000006,-0.38961144,-36.99016848
2.07,207,-0.019,-0.398,-0.938,-1.2032118,-0.9167328,0.8021411999999999,17.6757543,-0.4010706000000001,-36.9844389
2.0799999999999996,208,-0.016,-0.393,-0.945,-1.2032118,-0.9167328,0.3437748,17.66429514,-0.40680018,-36.9844389
2.09,209,-0.006999999999999999,-0.388,-0.946,-1.3178034,-0.7448454000000001,0.0,17.647106400000006,-0.41825934,-36.9844389
2.0999999999999996,210,-0.002,-0.381,-0.949,-1.0886202,-0.9740286,-0.1718874,17.63564724,-0.42398892,-36.99016848
2.11,211,-0.002,-0.382,-0.95,-0.4010706,-1.2032118,-0.11459160000000004,17.847641699999997,-0.4297185000000001,-37.0130868
2.1199999999999997,212,0.0,-0.392,-0.943,0.0,-1.0886202,-0.11459160000000004,17.847641699999997,-0.43544808,-37.01881638
2.13,213,-0.004,-0.4,-0.94,0.11459160000000004,-0.8594370000000001,-0.057295800000000015,17.85337128,-0.44690724,-37.01881638
2.1399999999999997,214,-0.011,-0.403,-0.944,0.2291832000000001,-0.6875496,-0.1718874,17.85337128,-0.4526368200000001,-37.02454596
2.15,215,-0.017,-0.402,-0.946,0.4583664000000001,-0.7448454000000001,-0.572958,17.85910086,-0.4583664000000001,-37.03027554000001
2.1599999999999997,216,-0.01,-0.404,-0.943,0.3437748,-0.9167328,-1.145916,18.048177,-0.46409598,-37.05319386
2.17,217,0.004,-0.408,-0.947,0.11459160000000004,-1.3750992,-1.145916,18.048177,-0.47555514,-37.0703826
2.1799999999999997,218,0.022,-0.409,-0.954,-0.286479,-1.7188740000000002,-0.8021411999999999,18.04244742,-0.4870143000000001,-37.08184176
2.19,219,0.027000000000000003,-0.41,-0.966,-0.4583664000000001,-2.3491278,-0.2291832000000001,18.04244742,-0.5099326200000001,-37.09330092
2.1999999999999997,220,0.011,-0.414,-0.952,-0.286479,-2.8074942000000003,0.1718874,18.03671784,-0.53858052,-37.0990305
2.21,221,-0.009000000000000001,-0.411,-0.948,-0.572958,-2.2345362,0.2291832000000001,18.20287566,-0.5844171599999999,-37.0990305
2.2199999999999998,222,-0.021,-0.413,-0.941,-0.2291832000000001,-1.6042823999999998,0.1718874,18.197146080000003,-0.59587632,-37.10476008
2.23,223,-0.018000000000000002,-0.412,-0.938,-0.286479,-1.2032118,0.0,18.197146080000003,-0.61306506,-37.10476008
2.2399999999999998,224,-0.015,-0.408,-0.93,-0.11459160000000004,-0.6875496,-0.4583664000000001,18.191416500000006,-0.61306506,-37.11621924
2.25,225,-0.008,-0.403,-0.927,-0.11459160000000004,-0.057295800000000015,-0.9740286,18.191416500000006,-0.61306506,-37.12194882
2.26,226,-0.006,-0.398,-0.915,0.572958,0.3437748,-1.432395,18.3919518,-0.6073354799999999,-37.14486714
2.27,227,-0.002,-0.394,-0.907,1.0313244,0.2291832000000001,-1.432395,18.40341096,-0.59587632,-37.1563263
2.28,228,-0.002,-0.389,-0.8909999999999999,1.7761698,-0.057295800000000015,-1.2032118,18.4205997,-0.59587632,-37.17351504
2.29,229,0.0,-0.387,-0.883,2.3491278,-0.1718874,-1.2605076000000002,18.44351802,-0.59014674,-37.1849742
2.3,230,0.003,-0.385,-0.875,2.6929026,-0.286479,-1.2032118,18.47216592,-0.59014674,-37.19643336
2.31,231,0.002,-0.38,-0.866,3.3231564,-0.286479,-1.145916,18.58102794,-0.5786875800000001,-37.21935168
2.32,232,0.002,-0.376,-0.866,3.8961144,-0.4583664000000001,-1.145916,18.621135,-0.5786875800000001,-37.23081084
2.3299999999999996,233,0.001,-0.3670000000000001,-0.867,4.4690724,-0.8021411999999999,-1.145916,18.66697164,-0.5844171599999999,-37.24227000000001
2.34,234,-0.001,-0.365,-0.852,6.130650599999999,-1.2032118,-1.2032118,18.729997020000006,-0.59014674,-37.25945874
2.3499999999999996,235,-0.006,-0.366,-0.846,6.6463128000000005,-1.3750992,-1.432395,18.793022399999998,-0.59587632,-37.27664748
2.36,236,-0.008,-0.364,-0.846,7.3911582,-1.2032118,-1.6042823999999998,18.90188442,-0.6073354799999999,-37.299565799999996
2.3699999999999997,237,-0.006999999999999999,-0.3670000000000001,-0.848,8.250595200000001,-1.145916,-1.7761698,18.982098540000006,-0.6073354799999999,-37.32248412
2.38,238,-0.002,-0.3720000000000001,-0.87,8.8235532,-1.3178034,-1.9480572,19.07377182,-0.61306506,-37.34540244
2.3899999999999997,239,0.003,-0.373,-0.871,9.8548776,-1.7188740000000002,-2.1772404,19.17690426,-0.61879464,-37.37405034
2.4,240,0.004,-0.374,-0.867,10.4851314,-2.9220857999999996,-2.3491278,19.280036700000004,-0.64171296,-37.40269823999999
2.4099999999999997,241,0.006,-0.379,-0.903,11.172681,-3.9534102,-2.5210152000000003,19.41181704,-0.6589017,-37.44853488
2.42,242,-0.003,-0.393,-0.948,12.3758928,-7.6776372,-3.0366774,19.5378678,-0.72192708,-37.50583068
2.4299999999999997,243,-0.005,-0.411,-0.952,14.7823164,-9.6256944,-4.010706000000001,19.68683688,-0.7906820400000001,-37.57458564
2.44,244,0.015,-0.444,-1.081,16.501190400000002,-9.453807000000001,-4.8128472,19.85872428,-0.8594370000000001,-37.65479976
2.4499999999999997,245,0.026,-0.471,-1.183,19.595163600000006,-9.969469199999999,-5.3285094000000015,20.05925958,-0.93392154,-37.74074346
2.46,246,0.03,-0.526,-1.265,25.84040580000001,-11.229976800000001,-5.1566220000000005,20.32854984,-1.01413566,-37.83814632
2.4699999999999998,247,0.037000000000000005,-0.607,-1.3159999999999998,26.41336380000001,-10.313244,-4.4690724,20.597840100000006,-1.0886202,-37.91836044
2.48,248,0.025,-0.648,-1.3869999999999998,23.8923486,-8.4224826,-3.8388186,20.84421204,-1.1459160000000002,-37.9871154
2.4899999999999998,249,-0.037000000000000005,-0.6809999999999999,-1.418,24.7517856,-2.9220857999999996,-3.8388186,21.09631356,-1.1573751600000002,-38.03295204
2.5,250,-0.073,-0.713,-1.48,25.8977016,4.2398892,-5.3285094000000015,21.359874240000003,-1.09434978,-38.06732952
2.51,251,-0.051,-0.75,-1.496,26.41336380000001,6.875496000000001,-7.2765666,21.629164499999998,-1.0026765,-38.10743658
2.52,252,-0.006,-0.777,-1.469,25.84040580000001,7.5630456000000015,-9.3392154,21.89272518000001,-0.89381448,-38.16473238
2.53,253,0.029,-0.7929999999999999,-1.474,24.8663772,7.5630456000000015,-10.9434978,22.14482670000001,-0.7849524600000001,-38.23921692
2.54,254,0.054000000000000006,-0.799,-1.46,24.2361234,8.250595200000001,-11.6310474,22.39119864,-0.6589017,-38.31370146
2.55,255,0.07400000000000001,-0.7929999999999999,-1.449,24.064235999999998,9.3965112,-11.745639,22.63757058,-0.52712136,-38.38245642
2.56,256,0.06,-0.784,-1.425,25.2674478,10.3705398,-11.6310474,22.89540168,-0.38388186,-38.45121138
2.57,257,0.039,-0.773,-1.388,26.814434400000003,10.7143146,-11.2872726,23.16469194,-0.24064236,-38.50850718
2.5799999999999996,258,0.034,-0.742,-1.327,27.444688199999998,9.2819196,-11.516455800000001,23.439711780000003,-0.10313244,-38.57726214
2.59,259,0.047,-0.7,-1.261,27.9603504,8.479778399999999,-11.6310474,23.72619078,0.01718874,-38.6460171
2.5999999999999996,260,0.07200000000000001,-0.6659999999999999,-1.212,29.335449600000004,7.9641161999999985,-11.2872726,24.01839936,0.13750992,-38.71477206
2.61,261,0.081,-0.6559999999999999,-1.167,31.340802600000004,8.3651868,-10.7716104,24.34498542,0.26356068,-38.78352702
2.6199999999999997,262,0.065,-0.644,-1.111,33.6326346,9.1100322,-9.740286,24.68303064,0.38961144,-38.82936366
2.63,263,0.052000000000000005,-0.634,-1.062,37.81522800000001,9.740286,-8.021412000000002,25.0669125,0.5156622000000001,-38.85801156
2.6399999999999997,264,0.05,-0.627,-1.026,41.3102718,10.1413566,-6.4744254,25.48517184,0.63598338,-38.8752003
2.65,265,0.053,-0.617,-0.987,43.4302164,9.969469199999999,-4.9847345999999995,25.92061992,0.75630456,-38.8752003
2.6599999999999997,266,0.047,-0.585,-0.934,45.83664,8.9954406,-3.8388186,26.39617506,0.8594370000000001,-38.86947072
2.67,267,0.034,-0.535,-0.894,45.72204840000001,5.6722842,-3.7815227999999994,26.86027104,0.93392154,-38.88092988
2.6799999999999997,268,0.02,-0.506,-0.8640000000000001,48.0711762,2.3491278,-3.2658606,27.34728534,0.9740286,-38.89811862
2.69,269,0.018000000000000002,-0.494,-0.8140000000000001,49.61816279999999,0.5156622000000001,-2.6929026,27.85148838,0.9969469199999998,-38.92103694
2.6999999999999997,270,0.036000000000000004,-0.478,-0.792,51.2224452,-1.145916,-2.0053530000000004,28.36715058,1.0026765,-38.94395526
2.71,271,0.026,-0.473,-0.755,53.1705024,-3.7815227999999994,-0.9167328,28.91146068,0.98548776,-38.97260316
2.7199999999999998,272,-0.017,-0.48,-0.716,55.92070079999999,-5.958763200000001,0.2291832000000001,29.4786891,0.93965112,-39.00125106
2.73,273,-0.078,-0.51,-0.691,58.613603399999995,-7.5630456000000015,1.0313244,30.07456542,0.87662574,-39.02989896
2.7399999999999998,274,-0.071,-0.52,-0.657,60.8481396,-8.8235532,0.6302538000000001,30.693360060000003,0.8078707799999998,-39.07000602
2.75,275,-0.05,-0.501,-0.6459999999999999,63.59833800000001,-8.7662574,-0.2291832000000001,31.3408026,0.7448454000000001,-39.12157224
2.76,276,-0.042,-0.508,-0.618,67.895523,-7.9641161999999985,-0.5156622000000001,32.03981136,0.6875496,-39.16740888
2.77,277,-0.042,-0.508,-0.591,71.1613836,-6.990087599999999,-0.286479,32.76173844,0.64171296,-39.20751594
2.78,278,-0.043,-0.507,-0.579,73.85428619999998,-6.589017,0.286479,33.512313420000005,0.59587632,-39.24189342
2.79,279,-0.043,-0.506,-0.5539999999999999,76.60448459999998,-5.958763200000001,0.572958,34.291536300000004,0.55576926,-39.27054132
2.8,280,-0.038,-0.522,-0.5429999999999999,79.18279559999998,-6.130650599999999,0.9167328,35.093677500000005,0.5099326200000001,-39.29918922
2.81,281,-0.038,-0.537,-0.539,81.1308528,-6.589017,1.8334656000000005,35.9244666,0.4526368200000001,-39.32210754000001
2.82,282,-0.041,-0.541,-0.524,83.82375540000002,-7.1046792000000005,2.6929026,36.77817402,0.39534102,-39.34502586
2.8299999999999996,283,-0.053,-0.5489999999999999,-0.51,86.40206640000002,-7.161975,2.7501984,37.65479976,0.33804522,-39.36794418
2.84,284,-0.056,-0.565,-0.494,89.1522648,-7.2765666,2.0053530000000004,38.56007340000001,0.28074942,-39.39659208
2.8499999999999996,285,-0.066,-0.586,-0.488,92.1889422,-6.703608600000001,1.0886202,39.49972452,0.23491278,-39.43096956
2.86,286,-0.067,-0.605,-0.462,94.9391406,-4.297185,0.286479,40.47375312,0.20626488,-39.45388788
2.8699999999999997,287,-0.065,-0.629,-0.452,97.6320432,-2.291832,0.11459160000000004,41.46497046,0.20626488,-39.46534704
2.88,288,-0.051,-0.643,-0.4270000000000001,99.121734,-1.9480572,0.8594370000000001,42.47337654,0.20053530000000008,-39.47107662000001
2.8899999999999997,289,-0.024,-0.6409999999999999,-0.396,100.0957626,-1.7188740000000002,2.4637194,43.48751220000001,0.18334656,-39.46534704
2.9,290,-0.013,-0.622,-0.384,101.8146366,-0.9167328,3.151269,44.52456618,0.1718874,-39.44242872
2.9099999999999997,291,0.005,-0.613,-0.365,103.3043274,-0.6875496,3.3231564,45.584538480000006,0.15469866,-39.42523998
2.92,292,0.011,-0.62,-0.339,105.02320139999999,-0.8594370000000001,4.0680017999999984,46.65024036,0.13750992,-39.40232166
2.9299999999999997,293,0.017,-0.633,-0.339,105.8826384,-2.2345362,5.3858052,47.72167182000001,0.09740286,-39.37940334
2.94,294,0.014,-0.64,-0.314,107.429625,-3.8961144,6.4744254,48.8160216,0.03437748,-39.3622146
2.9499999999999997,295,0.005,-0.652,-0.294,108.1171746,-5.0993262,7.5057497999999985,49.91037138,-0.03437748,-39.34502586
2.96,296,0.006999999999999999,-0.642,-0.275,108.8047242,-6.3025379999999975,7.7922288,51.02763948000001,-0.11459160000000004,-39.34502586
2.9699999999999998,297,0.014,-0.624,-0.254,110.6381898,-6.5317212,6.8182002000000015,52.15636674,-0.19480572,-39.35075544
2.98,298,-0.002,-0.653,-0.247,112.7581344,-6.8182002000000015,5.844171599999999,53.30228274000001,-0.26356068,-39.3622146
2.9899999999999998,299,0.002,-0.6579999999999999,-0.236,112.7008386,-6.417129599999999,5.443101,54.44246916000001,-0.32658606,-39.37940334
3.0,300,-0.018000000000000002,-0.684,-0.219,113.6748672,-5.9014674000000005,6.4744254,55.59984432,-0.4010706000000001,-39.38513292
3.01,301,-0.017,-0.708,-0.226,113.9040504,-5.3858052,7.2765666,56.76867864,-0.47555514,-39.38513292
3.02,302,-0.021,-0.718,-0.199,115.04996640000002,-4.297185,7.6776372,57.93751296000001,-0.5443101,-39.37367376
3.03,303,-0.008,-0.726,-0.193,114.8207832,-2.9793816000000004,7.5630456000000015,59.1006177,-0.6073354799999999,-39.35648502
3.04,304,0.0,-0.725,-0.196,114.0759378,-3.0366774,6.703608600000001,60.26372244,-0.66463128,-39.33929628
3.05,305,0.01,-0.747,-0.184,113.33109240000002,-3.0939732,5.844171599999999,61.40963844,-0.7161975,-39.3335667
3.06,306,0.003,-0.753,-0.185,111.440331,-3.4950437999999995,4.9847345999999995,62.55555444,-0.76203414,-39.3335667
3.07,307,-0.002,-0.759,-0.16699999999999998,110.2371192,-3.3231564,4.1252976000000015,63.67282253999999,-0.8021412000000001,-39.33929628
3.08,308,-0.015,-0.787,-0.166,108.9193158,-4.010706000000001,4.2398892,64.77863147999999,-0.8422482600000001,-39.35075544
3.09,309,-0.022,-0.76,-0.18600000000000005,107.0858502,-4.4690724,2.8074942000000003,65.86725168000001,-0.87089616,-39.37367376
3.0999999999999996,310,-0.031,-0.7490000000000001,-0.189,108.2317662,-1.3178034,0.9740286,66.96733104,-0.87089616,-39.37367376
3.11,311,-0.048,-0.769,-0.158,108.7474284,2.6356068,0.4010706,68.07886956,-0.8537074199999999,-39.33929628
3.1199999999999997,312,-0.042,-0.7959999999999999,-0.151,106.1118216,4.0680017999999984,0.057295800000000015,69.1560306,-0.8307891,-39.28773006
3.13,313,-0.018000000000000002,-0.8290000000000001,-0.155,103.2470316,2.5210152000000003,-0.11459160000000004,70.20454373999999,-0.8078707799999998,-39.25908216000001
3.1399999999999997,314,0.002,-0.861,-0.165,99.2936214,1.0886202,-1.0886202,71.21294982,-0.7849524600000001,-39.24189342
3.15,315,0.011,-0.872,-0.177,97.5174516,-0.3437748,-2.4637194,72.19843758,-0.75057498,-39.247623
3.1599999999999997,316,0.011,-0.885,-0.128,95.970465,0.572958,-3.8961144,73.18392534,-0.69900876,-39.247623
3.17,317,0.02,-0.905,-0.139,90.8711388,2.6929026,-4.9847345999999995,74.10638772,-0.63598338,-39.22470468
3.1799999999999997,318,0.018000000000000002,-0.907,-0.16399999999999998,86.51665799999998,2.1199446,-4.8701430000000006,74.98301346,-0.5729580000000001,-39.20751594
3.19,319,0.008,-0.935,-0.163,83.19350159999998,1.6615782,-4.0680017999999984,75.8309913,-0.52139178,-39.196056780000006
3.1999999999999997,320,0.008,-0.975,-0.171,78.4379502,2.1772404,-3.5523396000000003,76.62167334,-0.47555514,-39.17886804
3.21,321,0.004,-1.003,-0.179,72.192708,3.0939732,-3.380452200000001,77.35505958,-0.42398892,-39.15022014
3.2199999999999998,322,0.004,-1.019,-0.194,63.942112800000004,3.4377480000000005,-2.9220857999999996,78.00823170000002,-0.38388186,-39.11584266
3.23,323,0.001,-1.022,-0.193,57.7541664,2.9220857999999996,-2.2345362,78.59264886000003,-0.34950438,-39.08719476
3.2399999999999998,324,-0.001,-1.025,-0.183,51.7381074,2.7501984,-1.6042823999999998,79.11404064,-0.32658606,-39.05281728
3.25,325,-0.003,-1.027,-0.179,44.977203,2.0053530000000004,-1.145916,79.57240704,-0.30939732,-39.03562854
3.26,326,-0.005,-1.028,-0.185,38.2162986,1.8907613999999997,-1.7761698,79.9562889,-0.28074942,-39.01271022
3.27,327,-0.005,-1.041,-0.189,34.7785506,2.291832,-1.9480572,80.30579328,-0.25783110000000004,-38.9897919
3.28,328,-0.006,-1.051,-0.185,33.1742682,3.4377480000000005,-1.9480572,80.64383849999999,-0.2291832000000001,-38.95541442
3.29,329,-0.003,-1.0490000000000002,-0.172,33.116972399999995,4.6982556,-1.3750992,80.97615413999998,-0.20626488,-38.90957778
3.3,330,0.008,-1.04,-0.154,34.4347758,5.6149884000000005,-0.572958,81.32565852,-0.18907614,-38.85228198
3.31,331,0.015,-1.042,-0.131,35.52339600000001,5.5003968,0.2291832000000001,81.68662206,-0.17761697999999998,-38.79498618
3.32,332,0.024,-1.053,-0.11,36.2109456,4.583664,1.145916,82.05904475999998,-0.17761697999999998,-38.74914954000001
3.33,333,0.026,-1.062,-0.093,36.898495200000006,2.9793816000000004,2.0626488000000003,82.43146746,-0.19480572,-38.70904248
3.34,334,0.018000000000000002,-1.0590000000000002,-0.07200000000000001,36.4974246,1.8907613999999997,2.1199446,82.79816058,-0.21199446,-38.68612416
3.3499999999999996,335,0.004,-1.062,-0.05,35.8671708,1.432395,2.0053530000000004,83.16485370000002,-0.22345362,-38.66320584
3.36,336,-0.01,-1.062,-0.029,34.4347758,1.145916,2.291832,83.53154682,-0.24637194,-38.6460171
3.3699999999999997,337,-0.023,-1.068,-0.018000000000000002,31.913760600000003,0.9740286,2.4064236,83.85240329999998,-0.26929026,-38.62882836
3.38,338,-0.015,-1.096,-0.021,26.814434400000003,0.057295800000000015,2.7501984,84.12742313999998,-0.29220857999999994,-38.62309878
3.3899999999999997,339,-0.001,-1.104,-0.03,22.459953600000002,-1.5469866,2.8074942000000003,84.35660634000001,-0.32085648,-38.63455794
3.4,340,0.01,-1.106,-0.03,19.308684600000007,-2.6929026,2.578311,84.55141205999998,-0.3437748,-38.65747626
3.4099999999999997,341,0.005,-1.08,-0.032,15.756345000000001,-3.0939732,1.8907613999999997,84.72902904,-0.36096354,-38.68612416
3.42,342,-0.01,-1.044,-0.038,12.4331886,-2.4637194,1.2032118,84.8550798,-0.3724227000000001,-38.70904248
3.4299999999999997,343,-0.02,-1.026,-0.043,10.1413566,-1.432395,1.2605076000000002,84.95821224,-0.38388186,-38.72050164
3.44,344,-0.014,-1.017,-0.058,8.250595200000001,-0.5156622000000001,1.8334656000000005,85.04415594,-0.4010706000000001,-38.72623122
3.4499999999999997,345,-0.004,-1.021,-0.069,6.9327918,-0.4010706,2.291832,85.1129109,-0.42398892,-38.72623122
3.46,346,-0.004,-1.019,-0.08,6.589017,-0.5156622000000001,2.4637194,85.15874754000002,-0.44117766,-38.731960799999996
3.4699999999999998,347,-0.006,-1.017,-0.083,6.3025379999999975,-0.6302538000000001,1.7188740000000002,85.22177292,-0.4583664000000001,-38.73769038
3.48,348,-0.003,-1.0,-0.077,6.589017,-0.9740286,0.9740286,85.29052787999998,-0.46982556,-38.74341996
3.4899999999999998,349,0.0,-0.984,-0.057,7.6203414,-2.0053530000000004,0.4010706,85.370742,-0.47555514,-38.76060870000001
3.5,350,0.005,-0.983,-0.036000000000000004,7.906820400000001,-3.4377480000000005,0.057295800000000015,85.45095612,-0.47555514,-38.79498618
3.51,351,0.004,-1.002,-0.02,7.5630456000000015,-5.042030400000002,0.11459160000000004,85.55408856,-0.46409598,-38.85228198
3.52,352,0.003,-1.033,-0.017,6.6463128000000005,-6.0733548,-0.11459160000000004,85.62284352,-0.46982556,-38.91530736
3.53,353,-0.001,-1.048,-0.011,6.417129599999999,-6.2452422,-0.4010706,85.69159848,-0.46409598,-38.97260316
3.54,354,-0.012,-1.037,0.0,6.130650599999999,-5.6722842,-1.0886202,85.75462386000002,-0.4583664000000001,-39.02989896
3.55,355,-0.02,-1.024,0.009000000000000001,6.2452422,-4.6409598,-1.5469866,85.81764924000002,-0.44117766,-39.0757356
3.56,356,-0.022,-1.012,0.02,6.5317212,-3.6096354,-1.4896908000000002,85.9437,-0.43544808,-39.11011308
3.57,357,-0.024,-1.013,0.032,6.703608600000001,-2.9793816000000004,-0.9740286,86.01245496,-0.4297185000000001,-39.13876098
3.58,358,-0.023,-1.024,0.041,5.72958,-2.6929026,-0.572958,86.06975076,-0.42398892,-39.16740888
3.59,359,-0.017,-1.035,0.044,4.3544808,-2.578311,-0.286479,86.11558740000002,-0.41825934,-39.196056780000006
3.5999999999999996,360,-0.019,-1.045,0.049,3.380452200000001,-2.0626488000000003,-0.286479,86.14996488,-0.41825934,-39.21324552
3.61,361,-0.019,-1.045,0.053,2.0626488000000003,-1.145916,-0.286479,86.44217346,-0.43544808,-39.2189751
3.6199999999999997,362,-0.019,-1.034,0.052000000000000005,0.8021411999999999,0.0,-0.286479,86.45363262000002,-0.43544808,-39.2189751
3.63,363,-0.021,-1.023,0.047,-0.057295800000000015,1.145916,-0.11459160000000004,86.45363262000002,-0.4297185000000001,-39.20751594
3.6399999999999997,364,-0.022,-1.016,0.044,-0.4010706,1.6615782,0.11459160000000004,86.44790304,-0.4297185000000001,-39.19032720000001
3.65,365,-0.022,-1.01,0.04,-0.6302538000000001,1.6615782,0.4010706,86.43644388,-0.43544808,-39.17313846
3.6599999999999997,366,-0.014,-1.0,0.038,-0.572958,1.7761698,0.5156622000000001,86.64270875999998,-0.43544808,-39.161679299999996
3.67,367,-0.014,-0.992,0.041,0.057295800000000015,2.0053530000000004,0.7448454000000001,86.64270875999998,-0.44690724,-39.13876098
3.6799999999999997,368,-0.017,-0.991,0.048,0.572958,2.6356068,0.7448454000000001,86.64843834,-0.4526368200000001,-39.11011308
3.69,369,-0.022,-0.996,0.057,1.5469866,3.2085648,0.7448454000000001,86.66562708000002,-0.4583664000000001,-39.08146518
3.6999999999999997,370,-0.029,-1.003,0.063,2.0053530000000004,3.8388186,0.572958,86.68281582,-0.46409598,-39.04135812
3.71,371,-0.03,-1.008,0.065,2.1199446,4.6409598,0.4010706,86.81459616,-0.4870143000000001,-38.98406232000001
3.7199999999999998,372,-0.035,-1.007,0.066,2.1199446,5.5003968,0.1718874,86.83178489999996,-0.4870143000000001,-38.92676652
3.73,373,-0.029,-1.008,0.07,2.3491278,6.2452422,0.2291832000000001,86.85470322,-0.4870143000000001,-38.86374114
3.7399999999999998,374,-0.021,-1.011,0.071,2.1772404,6.5317212,0.0,86.87762153999998,-0.4870143000000001,-38.80071576
3.75,375,-0.018000000000000002,-1.013,0.071,1.8907613999999997,6.9327918,-0.1718874,86.89481028,-0.48128472,-38.731960799999996
3.76,376,-0.015,-1.016,0.07200000000000001,1.6042823999999998,6.990087599999999,-0.2291832000000001,87.01513145999998,-0.48128472,-38.66320584
3.77,377,-0.012,-1.021,0.07200000000000001,1.2032118,7.0473834,0.057295800000000015,87.02086104,-0.47555514,-38.59445088
3.78,378,-0.009000000000000001,-1.019,0.064,0.7448454000000001,7.448453999999999,0.4010706,87.03232019999999,-0.48128472,-38.51996634
3.79,379,-0.008,-1.014,0.066,0.8594370000000001,7.6203414,0.572958,87.03804978000002,-0.4870143000000001,-38.445481799999996
3.8,380,-0.009000000000000001,-1.01,0.065,0.572958,7.448453999999999,0.6875496,87.04377936,-0.4870143000000001,-38.37099726
3.81,381,-0.009000000000000001,-1.002,0.055,0.5156622000000001,7.5057497999999985,0.6875496,87.12399348,-0.49274388,-38.3022423
3.82,382,-0.009000000000000001,-0.996,0.054000000000000006,1.0886202,7.448453999999999,0.6302538000000001,87.12972306,-0.49274388,-38.22775776
3.83,383,-0.013,-0.996,0.055,1.7761698,7.1046792000000005,0.7448454000000001,87.14691180000001,-0.4984734599999999,-38.15327322
3.84,384,-0.012,-0.995,0.059,2.4637194,6.760904399999999,0.8021411999999999,87.17555970000002,-0.5099326200000001,-38.08451826
3.8499999999999996,385,-0.005,-0.998,0.062,2.9793816000000004,6.130650599999999,0.9740286,87.20420759999998,-0.5156622000000001,-38.02722246
3.86,386,0.002,-0.999,0.068,3.0939732,5.0993262,1.0313244,87.31879920000002,-0.5099326200000001,-37.9871154
3.8699999999999997,387,0.003,-0.998,0.069,2.86479,4.0680017999999984,0.8594370000000001,87.3474471,-0.5156622000000001,-37.94700834
3.88,388,0.002,-1.001,0.067,2.7501984,3.724227,0.6302538000000001,87.37609499999998,-0.52139178,-37.90690128
3.8899999999999997,389,0.0,-1.0,0.066,2.6356068,3.151269,0.5156622000000001,87.4047429,-0.52712136,-37.87825338
3.9,390,-0.005,-1.005,0.063,2.6356068,3.0366774,0.4583664000000001,87.42766122,-0.52712136,-37.84387589999999
3.9099999999999997,391,-0.006999999999999999,-1.009,0.059,2.8074942000000003,3.0939732,0.3437748,87.56517113999998,-0.52139178,-37.82668716
3.92,392,-0.008,-1.01,0.062,3.0939732,2.9793816000000004,0.286479,87.59381904,-0.52712136,-37.79230968
3.9299999999999997,393,-0.009000000000000001,-1.01,0.063,3.5523396000000003,2.86479,0.2291832000000001,87.62819652,-0.52712136,-37.76366178
3.94,394,-0.006,-1.01,0.065,3.724227,2.9220857999999996,0.11459160000000004,87.66830358,-0.52712136,-37.73501388
3.9499999999999997,395,-0.008,-1.006,0.069,3.6669312000000014,2.9220857999999996,0.2291832000000001,87.70268106,-0.52712136,-37.70636598
3.96,396,-0.011,-1.006,0.07200000000000001,3.380452200000001,2.9220857999999996,0.286479,87.85165014,-0.52712136,-37.68344766
3.9699999999999998,397,-0.012,-1.007,0.07400000000000001,2.9220857999999996,2.9793816000000004,0.5156622000000001,87.88029803999999,-0.53285094,-37.65479976
3.98,398,-0.011,-1.008,0.075,2.578311,3.2658606,0.6875496,87.90894594,-0.53858052,-37.62042228
3.9899999999999998,399,-0.009000000000000001,-1.007,0.075,2.578311,3.2658606,0.7448454000000001,87.93186426,-0.55003968,-37.586044799999996
4.0,400,-0.01,-1.009,0.076,2.4064236,2.86479,0.6302538000000001,87.95478258,-0.55576926,-37.5573969
4.01,401,-0.009000000000000001,-1.014,0.075,2.2345362,2.4064236,0.3437748,88.13239956,-0.5443101,-37.54593774
4.02,402,-0.008,-1.011,0.078,2.291832,2.3491278,0.0,88.15531788,-0.5443101,-37.52301942
4.03,403,-0.004,-1.009,0.081,2.1772404,2.291832,-0.1718874,88.17823620000001,-0.5443101,-37.5001011
4.04,404,-0.002,-1.009,0.08199999999999999,1.8907613999999997,2.2345362,-0.1718874,88.19542494,-0.53858052,-37.47718278000001
4.05,405,0.0,-1.01,0.081,1.5469866,1.7761698,-0.11459160000000004,88.21261368,-0.53858052,-37.45999404000001
4.06,406,0.0,-1.011,0.079,1.0313244,1.2032118,0.1718874,88.52201099999998,-0.48128472,-37.49437152
4.07,407,0.002,-1.014,0.075,0.572958,0.572958,0.286479,88.52774058,-0.4870143000000001,-37.48864194
4.08,408,0.003,-1.017,0.071,0.2291832000000001,0.0,0.2291832000000001,88.53347016000002,-0.4870143000000001,-37.48864194
4.09,409,0.001,-1.014,0.067,0.0,-0.6302538000000001,0.11459160000000004,88.53347016000002,-0.49274388,-37.49437152
4.1,410,0.0,-1.009,0.064,0.0,-0.8594370000000001,0.057295800000000015,88.52774058,-0.49274388,-37.5001011
4.109999999999999,411,0.0,-1.006,0.062,0.0,-1.0313244,-0.057295800000000015,88.90589286,-0.41252976,-37.57458564
4.12,412,0.0,-1.004,0.061,0.11459160000000004,-1.0886202,-0.057295800000000015,88.90589286,-0.41252976,-37.586044799999996
4.13,413,-0.001,-1.002,0.061,0.3437748,-1.3178034,0.057295800000000015,88.91162244,-0.41252976,-37.59750396
4.14,414,-0.001,-1.003,0.061,0.5156622000000001,-1.5469866,0.2291832000000001,88.91735202,-0.41252976,-37.6146927
4.1499999999999995,415,-0.001,-1.001,0.062,0.8021411999999999,-1.9480572,0.2291832000000001,88.9230816,-0.41825934,-37.63761102
4.16,416,-0.003,-1.002,0.061,0.8021411999999999,-2.2345362,0.11459160000000004,89.06632110000002,-0.4010706000000001,-37.67198850000001
4.17,417,-0.005,-1.005,0.062,0.9740286,-2.578311,0.0,89.07778026000004,-0.4010706000000001,-37.7006364
4.18,418,-0.006,-1.007,0.063,1.0886202,-2.6356068,-0.11459160000000004,89.08923942,-0.39534102,-37.72355472
4.1899999999999995,419,-0.011,-1.006,0.064,1.2605076000000002,-2.5210152000000003,-0.11459160000000004,89.10069858,-0.39534102,-37.75220262000001
4.2,420,-0.01,-1.006,0.065,1.2032118,-2.1772404,-0.2291832000000001,89.11788732,-0.38961144,-37.76939136
4.21,421,-0.01,-1.006,0.066,1.2032118,-1.8334656000000005,-0.2291832000000001,89.26112682,-0.38388186,-37.79230968
4.22,422,-0.009000000000000001,-1.007,0.066,1.2605076000000002,-1.6615782,-0.1718874,89.27831556,-0.38388186,-37.80949842
4.2299999999999995,423,-0.009000000000000001,-1.009,0.067,1.3750992,-1.5469866,-0.057295800000000015,89.28977472,-0.38388186,-37.82668716
4.24,424,-0.009000000000000001,-1.01,0.067,1.3178034,-1.5469866,0.0,89.30696345999998,-0.38388186,-37.84387589999999
