TimeStamp(s),FrameCounter,AccX,AccY,AccZ,GyrX,GyrY,GyrZ,EulerX,EulerY,EulerZ
0.01,1,-0.025,-1.004,0.079,-2.2345362,-2.0626488000000003,0.4583664000000001,93.32339904,-1.24904844,-74.74810068
0.02,2,-0.026,-1.001,0.078,-1.5469866,-1.8907613999999997,0.6302538000000001,93.3062103,-1.25477802,-74.771019
0.03,3,-0.025,-0.999,0.077,-0.9167328,-1.8334656000000005,0.8021411999999999,93.30048072,-1.2605076000000002,-74.78820774
0.04,4,-0.027000000000000003,-1.0,0.079,-0.5156622000000001,-1.9480572,0.8594370000000001,93.29475114,-1.26623718,-74.81112606
0.05,5,-0.03,-0.998,0.08,-0.286479,-2.2345362,0.9167328,93.29475114,-1.2891555000000001,-74.83404438
0.060000000000000005,6,-0.034,-1.001,0.08199999999999999,0.0,-2.1199446,0.6302538000000001,93.29475114,-1.29488508,-74.85123311999997
0.06999999999999999,7,-0.037000000000000005,-1.004,0.085,0.057295800000000015,-1.5469866,0.4583664000000001,93.30048072,-1.29488508,-74.86842186
0.08,8,-0.036000000000000004,-1.008,0.08800000000000001,0.1718874,-1.432395,0.2291832000000001,93.30048072,-1.30061466,-74.88561059999998
0.09,9,-0.032,-1.009,0.092,0.11459160000000004,-1.3750992,0.1718874,93.30048072,-1.30061466,-74.89706976
0.09999999999999999,10,-0.03,-1.009,0.093,0.057295800000000015,-1.432395,0.1718874,93.36923568,-1.30634424,-74.91425849999997
0.11,11,-0.03,-1.006,0.093,-0.057295800000000015,-1.3178034,0.1718874,93.3635061,-1.30634424,-74.93144724
0.12,12,-0.029,-1.004,0.093,-0.2291832000000001,-1.0313244,0.286479,93.3635061,-1.31207382,-74.93717682
0.13,13,-0.027000000000000003,-1.003,0.092,-0.3437748,-0.6302538000000001,0.4010706,93.35777652,-1.31207382,-74.94863597999998
0.14,14,-0.024,-1.003,0.092,-0.4010706,-0.4010706,0.4583664000000001,93.35777652,-1.3178034,-74.94863597999998
0.15000000000000002,15,-0.023,-1.004,0.094,-0.4583664000000001,-0.3437748,0.4583664000000001,93.43799064,-1.2891555000000001,-74.96009513999998
0.16,16,-0.023,-1.005,0.092,-0.4583664000000001,-0.5156622000000001,0.572958,93.43226106,-1.29488508,-74.96582472
0.17,17,-0.026,-1.003,0.091,-0.5156622000000001,-0.6302538000000001,0.572958,93.42653148,-1.30061466,-74.97155430000002
0.18000000000000002,18,-0.029,-1.002,0.092,-0.4010706,-0.7448454000000001,0.5156622000000001,93.42653148,-1.30634424,-74.97728388
0.19,19,-0.032,-1.0,0.093,-0.2291832000000001,-0.8594370000000001,0.4010706,93.4208019,-1.31207382,-74.98874304
0.2,20,-0.033,-1.002,0.093,-0.286479,-0.8594370000000001,0.2291832000000001,93.4780977,-1.3464512999999998,-75.0002022
0.21000000000000002,21,-0.032,-1.004,0.093,-0.5156622000000001,-0.8021411999999999,0.11459160000000004,93.47236812,-1.3464512999999998,-75.00593178
0.22,22,-0.031,-1.005,0.094,-0.6875496,-0.5156622000000001,-0.057295800000000015,93.46663854,-1.3464512999999998,-75.01166136
0.23,23,-0.033,-1.004,0.092,-0.572958,-0.3437748,-0.1718874,93.46090896,-1.3464512999999998,-75.01739094
0.24000000000000002,24,-0.032,-1.002,0.092,-0.572958,-0.2291832000000001,-0.1718874,93.45517938,-1.34072172,-75.01739094
0.25,25,-0.03,-1.0,0.092,-0.6302538000000001,-0.11459160000000004,-0.1718874,93.51820476,-1.35218088,-75.02312051999998
0.26,26,-0.029,-1.0,0.091,-0.4010706,-0.11459160000000004,-0.11459160000000004,93.51247518,-1.3464512999999998,-75.02312051999998
0.27,27,-0.028,-1.002,0.092,-0.286479,-0.3437748,-0.1718874,93.5067456,-1.3464512999999998,-75.0288501
0.28,28,-0.027000000000000003,-1.002,0.093,-0.2291832000000001,-0.4583664000000001,-0.1718874,93.5067456,-1.3464512999999998,-75.03457968000002
0.29000000000000004,29,-0.029,-1.003,0.094,-0.1718874,-0.572958,-0.11459160000000004,93.5067456,-1.34072172,-75.04030925999999
0.3,30,-0.031,-1.004,0.092,-0.286479,-0.3437748,-0.2291832000000001,93.58123014,-1.38082878,-75.04603884000002
0.31,31,-0.033,-1.004,0.093,-0.11459160000000004,-0.057295800000000015,-0.286479,93.58123014,-1.3750992,-75.04603884000002
0.32,32,-0.033,-1.003,0.095,-0.057295800000000015,0.0,-0.1718874,93.58123014,-1.3750992,-75.04603884000002
0.33,33,-0.031,-1.001,0.094,-0.057295800000000015,0.0,-0.1718874,93.57550056,-1.36936962,-75.04603884000002
0.34,34,-0.029,-0.999,0.092,-0.057295800000000015,0.0,-0.057295800000000015,93.57550056,-1.36936962,-75.04603884000002
0.35000000000000003,35,-0.028,-1.0,0.092,-0.11459160000000004,0.11459160000000004,-0.057295800000000015,93.67863300000002,-1.34072172,-75.05176842
0.36000000000000004,36,-0.028,-1.004,0.092,-0.057295800000000015,0.286479,0.0,93.67863300000002,-1.34072172,-75.05176842
0.37,37,-0.03,-1.004,0.091,-0.11459160000000004,0.1718874,0.0,93.67863300000002,-1.34072172,-75.04603884000002
0.38,38,-0.032,-0.999,0.08900000000000001,-0.2291832000000001,-0.11459160000000004,-0.11459160000000004,93.67290342,-1.34072172,-75.04603884000002
0.39,39,-0.034,-0.997,0.08800000000000001,-0.572958,-0.057295800000000015,-0.1718874,93.66717384,-1.34072172,-75.05176842
0.4,40,-0.034,-1.001,0.086,-0.572958,0.11459160000000004,-0.2291832000000001,93.66144426,-1.3579104599999998,-75.04603884000002
0.41000000000000003,41,-0.028,-1.005,0.085,-0.2291832000000001,0.5156622000000001,-0.286479,93.66144426,-1.35218088,-75.04030925999999
0.42000000000000004,42,-0.023,-1.006,0.09,0.286479,0.7448454000000001,-0.2291832000000001,93.66144426,-1.35218088,-75.03457968000002
0.43,43,-0.021,-1.009,0.095,0.5156622000000001,0.1718874,-0.057295800000000015,93.66717384,-1.35218088,-75.0288501
0.44,44,-0.021,-1.011,0.1,0.11459160000000004,-0.8594370000000001,0.0,93.66717384,-1.35218088,-75.04030925999999
0.45,45,-0.024,-1.01,0.101,-0.4583664000000001,-1.4896908000000002,0.0,93.69582174,-1.34072172,-75.057498
0.46,46,-0.024,-1.009,0.098,-0.9167328,-1.6615782,0.057295800000000015,93.68436258,-1.34072172,-75.07468673999998
0.47000000000000003,47,-0.024,-1.007,0.095,-0.9740286,-1.8907613999999997,0.11459160000000004,93.67863300000002,-1.34072172,-75.09187548
0.48000000000000004,48,-0.022,-1.005,0.094,-1.2032118,-1.7188740000000002,0.286479,93.66144426,-1.34072172,-75.10906422000002
0.49,49,-0.024,-1.004,0.092,-1.3178034,-1.432395,0.5156622000000001,93.6499851,-1.3464512999999998,-75.12625296
0.5,50,-0.028,-1.003,0.091,-1.432395,-1.3178034,0.6302538000000001,93.64425552,-1.35218088,-75.13771212
0.51,51,-0.03,-1.002,0.091,-1.7188740000000002,-1.432395,0.572958,93.62706678,-1.3579104599999998,-75.15490086000001
0.52,52,-0.033,-1.001,0.09,-1.8907613999999997,-1.8907613999999997,0.4010706,93.60987804,-1.3579104599999998,-75.17208959999998
0.53,53,-0.032,-1.002,0.09,-1.8334656000000005,-2.0053530000000004,0.1718874,93.5926893,-1.3579104599999998,-75.19500792
0.54,54,-0.031,-1.002,0.086,-1.7188740000000002,-1.8907613999999997,0.11459160000000004,93.57550056,-1.3579104599999998,-75.21219666
0.55,55,-0.031,-1.003,0.086,-1.432395,-1.8907613999999997,0.11459160000000004,93.56404139999998,-1.36364004,-75.2293854
0.56,56,-0.03,-1.004,0.087,-1.2605076000000002,-1.8907613999999997,0.2291832000000001,93.55258224,-1.36364004,-75.25230372
0.5700000000000001,57,-0.03,-1.007,0.09,-1.145916,-2.0626488000000003,0.286479,93.54112308,-1.36364004,-75.26949246000002
0.5800000000000001,58,-0.031,-1.005,0.091,-1.3178034,-2.3491278,0.2291832000000001,93.52966392,-1.36936962,-75.29814036
0.59,59,-0.031,-1.005,0.093,-1.6615782,-2.4637194,0.057295800000000015,93.51247518,-1.36364004,-75.32105868
0.6,60,-0.029,-1.002,0.08900000000000001,-2.0053530000000004,-2.3491278,0.11459160000000004,93.50101602,-1.36364004,-75.34397700000002
0.61,61,-0.03,-1.003,0.087,-1.8334656000000005,-2.0626488000000003,0.11459160000000004,93.48382728,-1.36364004,-75.36689532
0.62,62,-0.032,-1.005,0.08900000000000001,-1.5469866,-1.5469866,0.2291832000000001,93.46663854,-1.36364004,-75.38408405999998
0.63,63,-0.034,-1.005,0.091,-1.2605076000000002,-1.6042823999999998,0.3437748,93.45517938,-1.36936962,-75.39554322000002
0.64,64,-0.034,-1.006,0.091,-1.3750992,-1.7188740000000002,0.4010706,93.44372022,-1.36936962,-75.41846154
0.65,65,-0.031,-1.003,0.091,-1.6042823999999998,-2.0053530000000004,0.286479,93.43799064,-1.3750992,-75.43565028
0.66,66,-0.029,-1.002,0.091,-1.6615782,-2.2345362,0.286479,93.4208019,-1.3750992,-75.45856859999998
0.67,67,-0.026,-1.004,0.091,-1.8334656000000005,-2.3491278,0.3437748,93.40361316,-1.38082878,-75.48148692
0.68,68,-0.024,-1.004,0.091,-1.8334656000000005,-2.4064236,0.3437748,93.38642442,-1.38082878,-75.51013481999998
0.6900000000000001,69,-0.023,-1.002,0.092,-1.8334656000000005,-2.578311,0.286479,93.36923568,-1.38082878,-75.53305314
0.7000000000000001,70,-0.022,-0.996,0.092,-1.6615782,-3.0939732,0.572958,93.3635061,-1.38082878,-75.56743062000002
0.7100000000000001,71,-0.024,-0.996,0.091,-1.3178034,-3.5523396000000003,0.6875496,93.35204694,-1.38082878,-75.60180809999999
0.72,72,-0.025,-0.995,0.091,-1.0313244,-4.010706000000001,1.0313244,93.34631736,-1.39228794,-75.64191516
0.73,73,-0.025,-0.996,0.093,-0.3437748,-4.583664,1.432395,93.34058778,-1.39801752,-75.68775179999999
0.74,74,-0.022,-0.998,0.1,0.1718874,-5.2712136,1.6042823999999998,93.34631736,-1.40947668,-75.73931802
0.75,75,-0.017,-0.995,0.105,0.1718874,-5.6722842,1.432395,93.36923568,-1.40947668,-75.80234340000001
0.76,76,-0.017,-0.996,0.105,0.0,-5.7868758000000025,0.8021411999999999,93.37496526,-1.41520626,-75.8596392
0.77,77,-0.018000000000000002,-1.005,0.105,-0.5156622000000001,-5.6722842,0.572958,93.36923568,-1.41520626,-75.91120542
0.78,78,-0.021,-1.01,0.11,-0.6302538000000001,-5.9014674000000005,0.6875496,93.3635061,-1.4209358399999998,-75.9742308
0.79,79,-0.025,-1.016,0.115,-0.8594370000000001,-5.72958,0.572958,93.35777652,-1.4209358399999998,-76.03152659999998
0.8,80,-0.028,-1.023,0.122,-1.4896908000000002,-4.9847345999999995,0.3437748,93.37496526,-1.41520626,-76.08309282
0.81,81,-0.027000000000000003,-1.033,0.118,-2.9220857999999996,-4.1252976000000015,0.0,93.35204694,-1.41520626,-76.12319987999999
0.8200000000000001,82,-0.021,-1.035,0.11,-5.1566220000000005,-3.4950437999999995,-0.286479,93.30048072,-1.40947668,-76.15757735999998
0.8300000000000001,83,-0.011,-1.032,0.106,-7.3911582,-2.9220857999999996,-0.1718874,93.22599618,-1.4037471,-76.18622526
0.8400000000000001,84,-0.001,-1.025,0.097,-9.568398599999998,-2.2345362,0.2291832000000001,93.12859332,-1.4037471,-76.20914358
0.85,85,0.003,-1.013,0.092,-10.9434978,-1.8907613999999997,1.0886202,93.02546088,-1.4037471,-76.23206189999998
0.86,86,0.011,-1.002,0.093,-12.0894138,-1.7761698,1.9480572,92.89941012,-1.4209358399999998,-76.25498022
0.87,87,0.015,-0.996,0.098,-12.261301199999998,-1.8907613999999997,2.3491278,92.77908894,-1.44385416,-76.27216896
0.88,88,0.019,-0.997,0.101,-12.4904844,-2.0053530000000004,2.4064236,92.65303818,-1.46677248,-76.29508728
0.89,89,0.015,-0.999,0.102,-12.4904844,-2.1772404,2.0626488000000003,92.52698742,-1.4896908000000002,-76.32373518
0.9,90,0.014,-1.007,0.102,-12.891555,-2.6929026,1.8334656000000005,92.40666624,-1.49542038,-76.35238308000002
0.91,91,0.014,-1.013,0.1,-13.6936962,-3.151269,1.8907613999999997,92.26915632,-1.51260912,-76.38676056
0.92,92,0.016,-1.009,0.094,-14.0947668,-3.4950437999999995,2.4064236,92.1316464,-1.53552744,-76.42113803999997
0.93,93,0.011,-0.999,0.093,-13.980175199999998,-4.1252976000000015,2.86479,91.9884069,-1.55844576,-76.46697467999998
0.9400000000000001,94,0.001,-0.998,0.095,-14.2093584,-5.0993262,3.0939732,91.84516740000001,-1.59282324,-76.5185409
0.9500000000000001,95,-0.005,-1.003,0.097,-14.152062599999999,-5.2712136,2.86479,91.71911664,-1.61001198,-76.57583670000002
0.9600000000000001,96,-0.008,-1.007,0.098,-13.9228794,-4.7555514,2.4064236,91.57587714,-1.6329303,-76.62167334
0.97,97,-0.014,-1.004,0.096,-13.6936962,-3.3231564,2.1199446,91.43836722,-1.6558486199999998,-76.66178040000001
0.98,98,-0.024,-1.003,0.097,-13.178034,-1.3178034,2.1772404,91.30658688,-1.67303736,-76.67323956
0.99,99,-0.033,-1.005,0.095,-12.7196676,0.057295800000000015,2.291832,91.17480654,-1.70168526,-76.67323956
1.0,100,-0.03,-1.005,0.09,-11.917526400000002,1.5469866,2.2345362,91.0716741,-1.7188740000000002,-76.66178040000001
1.01,101,-0.023,-1.004,0.08800000000000001,-11.6310474,2.9220857999999996,2.2345362,90.95135292,-1.7475218999999995,-76.63886208
1.02,102,-0.009000000000000001,-1.009,0.087,-11.745639,3.8961144,2.291832,90.83103174,-1.77044022,-76.59875502
1.03,103,0.003,-1.014,0.077,-12.834259199999998,4.1252976000000015,2.1772404,90.69925140000001,-1.79908812,-76.55864796
1.04,104,0.008,-1.016,0.068,-13.5791046,4.0680017999999984,1.8334656000000005,90.56174148,-1.81627686,-76.5185409
1.05,105,0.008,-1.008,0.061,-14.495837400000001,3.380452200000001,1.4896908000000002,90.41850198,-1.82200644,-76.48989300000002
1.06,106,0.005,-0.997,0.051,-15.4125702,2.5210152000000003,1.2032118,90.26380332,-1.8334656000000005,-76.46697467999998
1.07,107,-0.002,-0.994,0.039,-16.386598799999998,1.7188740000000002,0.8021411999999999,90.0976455,-1.84492476,-76.44978594
1.08,108,-0.013,-0.988,0.024,-16.8449652,1.0886202,0.0,89.9257581,-1.84492476,-76.44405636
1.09,109,-0.029,-0.975,0.018000000000000002,-16.4438946,0.4010706,-1.432395,89.75387070000002,-1.8334656000000005,-76.43832678
1.1,110,-0.04,-0.965,0.019,-15.870936600000002,-1.0886202,-2.6356068,89.59344246,-1.81054728,-76.45551551999998
1.11,111,-0.039,-0.96,0.017,-15.6990492,-3.6096354,-3.724227,89.4387438,-1.7761698,-76.48989300000002
1.12,112,-0.029,-0.968,0.022,-16.2147114,-6.703608600000001,-4.6982556,89.27831556,-1.73033316,-76.55864796
1.1300000000000001,113,-0.017,-0.981,0.023,-18.2773602,-9.453807000000001,-6.0733548,89.09496899999998,-1.6673077799999998,-76.65605081999998
1.1400000000000001,114,-0.005,-0.993,0.015,-20.5691922,-11.745639,-7.2765666,88.88870412,-1.59855282,-76.77637200000002
1.1500000000000001,115,-0.004,-1.006,0.01,-22.345362,-13.9228794,-7.8495246,88.67098008,-1.51260912,-76.9196115
1.1600000000000001,116,-0.006,-1.009,0.021,-23.032911600000002,-16.1001198,-7.5630456000000015,88.44179688,-1.44385416,-77.08003973999998
1.17,117,-0.016,-1.006,0.039,-22.6891368,-18.3919518,-6.760904399999999,88.21834326000004,-1.3750992,-77.26911588
1.18,118,-0.035,-0.992,0.05,-21.199446,-19.595163600000006,-6.5317212,88.01207838,-1.31207382,-77.46392159999998
1.19,119,-0.056,-0.978,0.07200000000000001,-17.8189938,-19.7097552,-6.9327918,87.83446140000002,-1.24904844,-77.66445689999998
1.2,120,-0.069,-0.985,0.115,-14.896907999999998,-19.480572,-7.2765666,87.71414021999998,-1.18602306,-77.86499219999997
1.21,121,-0.073,-1.009,0.157,-14.9542038,-19.0222056,-6.703608600000001,87.57090072000004,-1.12299768,-78.05406833999999
1.22,122,-0.07,-1.037,0.181,-16.4438946,-18.449247600000003,-5.042030400000002,87.4047429,-1.07716104,-78.24314448
1.23,123,-0.06,-1.063,0.18,-18.621135,-17.5325148,-2.9220857999999996,87.22139634,-1.05424272,-78.42076146
1.24,124,-0.052000000000000005,-1.072,0.158,-20.1108258,-16.673077799999998,-0.9740286,87.02659062000002,-1.04851314,-78.58691927999998
1.25,125,-0.042,-1.063,0.133,-19.6524594,-16.386598799999998,0.8021411999999999,86.85470322,-1.06570188,-78.7530771
1.26,126,-0.03,-1.053,0.124,-17.131444199999994,-16.272007199999994,2.4637194,86.68854540000002,-1.09434978,-78.91350534
1.27,127,-0.02,-1.054,0.125,-14.8396122,-16.157415599999997,4.8128472,86.53957632,-1.15164558,-79.07393358
1.28,128,-0.016,-1.054,0.126,-13.0061466,-16.558486199999994,8.021412000000002,86.41352556000002,-1.23758928,-79.23436182
1.29,129,-0.024,-1.043,0.129,-12.2040054,-17.9908812,10.8289062,86.29893396,-1.35218088,-79.40624921999998
1.3,130,-0.037000000000000005,-1.024,0.128,-12.7769634,-19.8816426,12.318597,86.2015311,-1.48396122,-79.59532535999998
1.31,131,-0.057,-1.002,0.119,-13.8655836,-21.3713334,12.4904844,86.06975076,-1.6157415599999996,-79.80159024000002
1.32,132,-0.079,-0.976,0.108,-14.667724800000002,-22.2880662,12.032117999999999,85.92651126,-1.7475218999999995,-80.01358470000002
1.33,133,-0.094,-0.958,0.102,-15.756345000000001,-22.2880662,10.8289062,85.77754218,-1.86784308,-80.23130874
1.34,134,-0.104,-0.947,0.092,-16.558486199999994,-21.027558600000006,9.6829902,85.61711394,-1.9767051,-80.43184404
1.35,135,-0.101,-0.942,0.092,-16.1001198,-19.8243468,8.9954406,85.48533359999998,-2.08556712,-80.62664975999998
1.36,136,-0.08900000000000001,-0.94,0.097,-15.3552744,-19.0222056,8.7662574,85.3420941,-2.18296998,-80.80999632
1.37,137,-0.068,-0.94,0.102,-14.8396122,-18.7930224,8.9954406,85.19885459999998,-2.28037284,-80.98761329999998
1.3800000000000001,138,-0.049,-0.937,0.11,-13.9228794,-18.621135,9.167328,85.06707426,-2.38350528,-81.16523028
1.3900000000000001,139,-0.045,-0.941,0.113,-12.9488508,-18.3919518,9.224623800000002,84.94675308000002,-2.48663772,-81.34284726
1.4000000000000001,140,-0.058,-0.943,0.109,-12.4904844,-18.334656,9.167328,84.8550798,-2.59549974,-81.52046424
1.4100000000000001,141,-0.076,-0.948,0.098,-12.3758928,-18.5065434,8.59437,84.74048819999999,-2.6929026,-81.69808122
1.42,142,-0.08800000000000001,-0.949,0.095,-11.917526400000002,-18.1054728,7.5630456000000015,84.63162618,-2.7788463,-81.86996862
1.43,143,-0.08800000000000001,-0.949,0.097,-11.45916,-16.959556799999998,6.417129599999999,84.52276416000002,-2.85906042,-82.03039686
1.44,144,-0.08900000000000001,-0.948,0.102,-11.0580894,-15.756345000000001,5.7868758000000025,84.41963172,-2.92781538,-82.18509551999998
1.45,145,-0.093,-0.953,0.098,-11.0580894,-14.495837400000001,5.5003968,84.35660634000001,-3.00229992,-82.32260544
1.46,146,-0.095,-0.955,0.087,-11.172681,-13.6364004,5.3285094000000015,84.25347389999997,-3.0653253000000005,-82.45438578
1.47,147,-0.095,-0.952,0.077,-10.255948199999999,-13.6364004,4.583664,84.15607104,-3.1226211000000004,-82.58616612
1.48,148,-0.083,-0.947,0.077,-7.9641161999999985,-13.8082878,3.8388186,84.0815865,-3.16845774,-82.72367604
1.49,149,-0.078,-0.949,0.08199999999999999,-5.3858052,-14.0947668,3.0939732,84.03574986,-3.214294380000001,-82.85545637999998
1.5,150,-0.083,-0.961,0.094,-2.7501984,-13.2926256,2.578311,84.08731608000002,-3.26013102,-82.99296629999998
1.51,151,-0.093,-0.978,0.097,-1.8334656000000005,-11.8029348,2.4637194,84.07585692,-3.2945085,-83.1075579
1.52,152,-0.109,-0.992,0.099,-0.6875496,-10.1413566,2.8074942000000003,84.07585692,-3.32888598,-83.20496076
1.53,153,-0.129,-0.998,0.106,1.2605076000000002,-7.9641161999999985,3.0366774,84.09304566,-3.36326346,-83.27944529999998
1.54,154,-0.151,-1.003,0.118,3.8388186,-4.9847345999999995,2.5210152000000003,84.13315272,-3.3919113599999995,-83.32528194
1.55,155,-0.172,-1.011,0.14300000000000002,5.6722842,-1.432395,1.7188740000000002,84.37379508000002,-3.50077338,-83.34820026
1.56,156,-0.201,-1.029,0.16699999999999998,6.3598338,2.3491278,1.3750992,84.43682046,-3.5122325400000003,-83.31955236
1.57,157,-0.21600000000000005,-1.0590000000000002,0.18,5.5003968,6.8182002000000015,1.0886202,84.48838668,-3.51796212,-83.25079740000002
1.58,158,-0.21600000000000005,-1.093,0.179,4.0680017999999984,11.229976800000001,0.6875496,84.52276416000002,-3.51796212,-83.14193537999998
1.59,159,-0.193,-1.11,0.173,4.0680017999999984,14.0947668,-0.572958,84.55141205999998,-3.50077338,-82.99869588
1.6,160,-0.16399999999999998,-1.11,0.179,5.844171599999999,16.2147114,-2.0626488000000003,84.64308534,-3.48358464,-82.84399721999998
1.61,161,-0.15,-1.098,0.19,8.59437,18.5065434,-3.0366774,84.71756988,-3.44347758,-82.66065066
1.62,162,-0.145,-1.093,0.204,10.7143146,21.2567418,-3.3231564,84.81497274,-3.3919113599999995,-82.45438578
1.6300000000000001,163,-0.147,-1.095,0.219,12.2040054,24.350715,-2.86479,84.91810518,-3.34607472,-82.21374342
1.6400000000000001,164,-0.151,-1.1,0.228,13.8655836,28.1322378,-2.4064236,85.04415594,-3.3059676599999994,-81.93872358
1.6500000000000001,165,-0.128,-1.193,0.2,11.0580894,32.4294228,-1.0313244,85.14728838,-3.27731976,-81.6178671
1.6600000000000001,166,-0.041,-1.411,0.122,1.2605076000000002,31.2835068,5.3858052,85.13582922,-3.3116972399999995,-81.30274019999997
1.6700000000000002,167,0.011,-1.466,-0.012,-1.6615782,23.7204612,13.0634424,85.10145173999999,-3.43201842,-81.05636826
1.68,168,-0.021,-1.327,-0.111,7.2192707999999985,17.18874,14.2093584,85.16447712,-3.56379876,-80.87302170000002
1.69,169,-0.096,-1.166,-0.118,22.91832,17.0741484,9.3965112,85.38220116,-3.6440128800000013,-80.69540472
1.7,170,-0.154,-1.098,-0.076,37.1849742,25.8977016,3.2658606,85.73743512,-3.6669312000000014,-80.43184404
1.71,171,-0.188,-1.109,0.0,40.6227222,33.9764094,-1.6615782,86.12704656,-3.63255372,-80.09379881999998
1.72,172,-0.201,-1.134,0.002,34.66395900000001,37.5860448,-5.2139178,86.44790304,-3.56379876,-79.72137612
1.73,173,-0.18600000000000005,-1.128,-0.064,28.1322378,42.62807520000001,-7.6776372,86.70573413999998,-3.47212548,-79.2973872
1.74,174,-0.159,-1.115,-0.075,27.1582092,44.2323576,-8.880849000000003,86.94637650000001,-3.3689930400000003,-78.86193912
1.75,175,-0.109,-1.095,-0.041,22.5172494,42.4561878,-7.5057497999999985,87.14118221999998,-3.28304934,-78.44367978
1.76,176,-0.004,-1.065,-0.097,16.329303,46.29500640000001,-4.9847345999999995,87.27869214,-3.22002396,-77.98531338000002
1.77,177,0.07,-1.017,-0.159,10.886202,48.70143,-2.291832,87.35317668,-3.18564648,-77.49829908000002
1.78,178,0.094,-0.937,-0.181,6.417129599999999,49.04520479999999,0.0,87.38755416000002,-3.1799169000000003,-77.01128478000003
1.79,179,0.078,-0.882,-0.2,1.9480572,47.9565846,1.7761698,87.37609499999998,-3.18564648,-76.53572964
1.8,180,0.034,-0.8759999999999999,-0.217,-1.6615782,45.3209778,2.9793816000000004,87.30161045999998,-3.20283522,-76.0888224
1.81,181,0.004,-0.895,-0.2,-3.0939732,41.3102718,2.6929026,87.23858508000002,-3.22002396,-75.67629264
1.82,182,-0.003,-0.919,-0.182,-3.4377480000000005,37.4714532,-0.4010706,87.18128928,-3.2085648000000004,-75.30386994
1.83,183,0.012,-0.927,-0.163,-2.6356068,34.262888399999994,-4.583664,87.12972306,-3.15699858,-74.97155430000002
1.84,184,0.034,-0.92,-0.141,-1.2605076000000002,30.7678446,-8.078707799999998,87.09534558,-3.0653253000000005,-74.66788656
1.85,185,0.047,-0.916,-0.118,1.145916,26.929026,-10.313244,87.07242726,-2.93927454,-74.40432588
1.86,186,0.047,-0.912,-0.101,4.8128472,23.491278,-12.318597,87.10680474,-2.81322378,-74.18087225999999
1.87,187,0.044,-0.914,-0.08,9.2819196,21.6578124,-14.610429000000002,87.18701886,-2.6642547000000003,-73.96887779999999
1.8800000000000001,188,0.038,-0.917,-0.057,11.8029348,19.7097552,-16.501190400000002,87.29588088,-2.4923673,-73.77980166
1.8900000000000001,189,0.025,-0.914,-0.041,11.8029348,17.475219,-17.7044022,87.41047248,-2.3147503200000004,-73.61364384000002
1.9000000000000001,190,0.016,-0.917,-0.032,12.4904844,16.2147114,-18.907614000000002,87.52506408,-2.11421502,-73.45894518
1.9100000000000001,191,0.017,-0.924,-0.021,11.917526400000002,16.329303,-19.308684600000007,87.63965568,-1.9194093000000003,-73.30424652
1.9200000000000002,192,0.02,-0.926,-0.01,10.255948199999999,17.0741484,-18.6784308,87.73705853999998,-1.73033316,-73.1380887
1.93,193,0.03,-0.925,0.0,8.136003599999999,17.4179232,-17.246035799999998,87.81154308,-1.55844576,-72.97193088
1.94,194,0.032,-0.922,0.006999999999999999,6.2452422,17.8189938,-15.527161800000002,87.86883888,-1.39801752,-72.80004348
1.95,195,0.03,-0.921,0.017,4.6409598,17.7044022,-13.6364004,87.91467551999996,-1.24904844,-72.63388566
1.96,196,0.019,-0.92,0.024,2.8074942000000003,17.18874,-11.516455800000001,87.93759384,-1.13445684,-72.46772784
1.97,197,0.013,-0.921,0.028,1.2605076000000002,17.5325148,-10.0840608,87.94332342,-1.0313244,-72.29584044
1.98,198,0.023,-0.921,0.027000000000000003,-0.11459160000000004,17.9335854,-9.6256944,87.93759384,-0.93392154,-72.11822346
1.99,199,0.038,-0.92,0.028,-0.8021411999999999,17.7044022,-9.3392154,87.92613467999998,-0.8422482600000001,-71.94633606
2.0,200,0.056,-0.921,0.034,-1.5469866,16.558486199999994,-8.7089616,87.91467551999996,-0.73338624,-71.79163739999998
2.01,201,0.068,-0.926,0.035,-2.8074942000000003,14.495837400000001,-7.6776372,87.88029803999999,-0.6589017,-71.6483979
2.02,202,0.077,-0.936,0.035,-3.8961144,12.4904844,-6.417129599999999,87.84019098,-0.59014674,-71.52807672
2.03,203,0.08199999999999999,-0.947,0.041,-4.8701430000000006,10.3705398,-5.2139178,87.78862475999998,-0.53858052,-71.43067386
2.04,204,0.081,-0.953,0.048,-6.3598338,8.479778399999999,-4.1252976000000015,87.7198698,-0.4984734599999999,-71.34473016
2.05,205,0.069,-0.949,0.054000000000000006,-8.651665800000002,6.8182002000000015,-3.380452200000001,87.65684442,-0.43544808,-71.28170478000001
2.0599999999999996,206,0.059,-0.946,0.06,-10.7716104,5.72958,-3.0939732,87.54798240000002,-0.40680018,-71.23013856
2.07,207,0.054000000000000006,-0.945,0.066,-12.5477802,4.9847345999999995,-2.86479,87.41620206,-0.37815228,-71.18430192
2.0799999999999996,208,0.046,-0.949,0.078,-14.610429000000002,3.7815227999999994,-2.2345362,87.26723297999996,-0.35523396,-71.14419486
2.09,209,0.034,-0.957,0.086,-15.870936600000002,2.8074942000000003,-1.145916,87.10680474,-0.3437748,-71.12127654
2.0999999999999996,210,0.036000000000000004,-0.961,0.103,-15.985528200000001,1.9480572,0.0,86.99794272,-0.32658606,-71.1040878
2.11,211,0.042,-0.964,0.115,-16.329303,1.3178034,1.4896908000000002,86.83178489999996,-0.3437748,-71.09262864
2.1199999999999997,212,0.061,-0.965,0.112,-16.7876694,0.8594370000000001,3.4950437999999995,86.6598975,-0.37815228,-71.08689906
2.13,213,0.081,-0.966,0.095,-16.042824000000003,0.1718874,5.5003968,86.49946926,-0.43544808,-71.08116948
2.1399999999999997,214,0.097,-0.957,0.08199999999999999,-13.9228794,-1.0313244,7.5057497999999985,86.35622975999998,-0.5099326200000001,-71.08689906
2.15,215,0.111,-0.946,0.095,-10.9434978,-3.3231564,9.740286,86.28174521999998,-0.5729580000000001,-71.12127654
2.1599999999999997,216,0.12,-0.944,0.109,-9.1100322,-6.4744254,11.8602306,86.19580152,-0.69327918,-71.17857234
2.17,217,0.121,-0.953,0.129,-7.2192707999999985,-10.313244,13.6936962,86.12131698,-0.83651868,-71.27024562
2.1799999999999997,218,0.117,-0.974,0.155,-5.5576926,-14.9542038,15.0114996,86.06975076,-0.9912173399999998,-71.41348512
2.19,219,0.102,-1.005,0.16899999999999998,-5.3858052,-19.8816426,15.870936600000002,86.02391412,-1.1573751600000002,-71.59683168000002
2.1999999999999997,220,0.079,-1.035,0.159,-5.2712136,-24.064235999999998,15.985528200000001,86.00672538,-1.31207382,-71.83174446000002
2.21,221,0.046,-1.062,0.14400000000000002,-4.2398892,-27.3873924,15.183387000000002,85.9723479,-1.47250206,-72.08957556
2.2199999999999998,222,0.004,-1.081,0.11,-3.0366774,-26.9863218,13.5791046,85.95515916000002,-1.62147114,-72.34740666
2.23,223,-0.048,-1.087,0.085,-0.8021411999999999,-22.6891368,11.229976800000001,85.95515916000002,-1.74179232,-72.5651307
2.2399999999999998,224,-0.095,-1.085,0.091,1.7188740000000002,-17.9335854,9.3965112,85.98380705999998,-1.83919518,-72.7370181
2.25,225,-0.13,-1.079,0.106,3.0939732,-11.688343199999998,7.5630456000000015,86.06975076,-1.9480572000000005,-72.84588012
2.26,226,-0.153,-1.079,0.159,4.9847345999999995,-5.72958,6.417129599999999,86.12131698,-2.01681216,-72.89744634
2.27,227,-0.14,-1.074,0.229,7.0473834,-1.9480572,6.2452422,86.19580152,-2.07983754,-72.91463508000002
2.28,228,-0.057,-1.08,0.322,8.651665800000002,-2.0053530000000004,6.2452422,86.28174521999998,-2.14286292,-72.93182382
2.29,229,0.036000000000000004,-1.125,0.353,6.2452422,-7.1046792000000005,5.3285094000000015,86.35050018,-2.19442914,-72.9948492
2.3,230,0.097,-1.205,0.322,2.2345362,-12.7196676,1.6615782,86.41925513999998,-2.20015872,-73.12662954
2.31,231,0.128,-1.245,0.25,3.2085648,-13.178034,-5.3858052,86.4593622,-2.1485925000000003,-73.25840988
2.32,232,0.156,-1.221,0.184,11.4018642,-11.4018642,-12.7769634,86.57968338,-2.02827132,-73.37873106
2.3299999999999996,233,0.16699999999999998,-1.167,0.152,20.511896399999998,-15.9282324,-15.469866,86.79740741999998,-1.87357266,-73.53915930000002
2.34,234,0.099,-1.173,0.129,24.2361234,-23.376686399999997,-15.527161800000002,87.04950894,-1.7246035799999997,-73.77980166
2.3499999999999996,235,-0.045,-1.2819999999999998,0.017,22.7464326,-27.6738714,-18.162768600000003,87.29588088,-1.5527161800000002,-74.0548215
2.36,236,-0.16,-1.318,-0.103,24.8663772,-28.4187168,-21.9442914,87.55944156000002,-1.3349921400000002,-74.34703008
2.3699999999999997,237,-0.188,-1.235,-0.2,33.2888598,-29.9084076,-24.8090814,87.90894594,-1.0886202,-74.64496824
2.38,238,-0.199,-1.169,-0.198,36.8411994,-27.6165756,-29.1635622,88.28709822,-0.79641162,-74.92571766
2.3899999999999997,239,-0.174,-1.142,-0.238,29.621928600000004,-18.2773602,-34.8358464,88.59076596,-0.4526368200000001,-75.10906422000002
2.4,240,-0.086,-1.056,-0.266,27.7311672,-13.5791046,-36.38283300000001,88.85432664,-0.09167328,-75.24657413999998
2.4099999999999997,241,0.033,-0.934,-0.262,25.84040580000001,-14.32395,-32.6013102,89.11788732,0.23491278,-75.38981364
2.42,242,0.12,-0.83,-0.218,19.308684600000007,-18.5065434,-26.4706596,89.31269304,0.4984734599999999,-75.57316019999998
2.4299999999999997,243,0.187,-0.805,-0.17600000000000002,12.834259199999998,-20.3973048,-20.2827132,89.44447338,0.70473834,-75.77942508000002
2.44,244,0.211,-0.917,-0.141,3.380452200000001,-22.9756158,-15.527161800000002,89.47885086,0.86516658,-76.00287870000002
2.4499999999999997,245,0.197,-1.056,-0.123,-4.0680017999999984,-26.642547,-11.45916,89.41582548,1.0026765,-76.27216896
2.46,246,0.129,-1.128,-0.109,-7.6203414,-30.93973200000001,-8.7662574,89.34134094,1.09434978,-76.58156627999998
2.4699999999999998,247,0.062,-1.106,-0.108,-8.250595200000001,-33.403451399999994,-6.417129599999999,89.24966766,1.16310474,-76.90815234
2.48,248,0.02,-1.06,-0.106,-8.021412000000002,-35.0650296,-3.4377480000000005,89.16945354,1.2032117999999998,-77.25765672
2.4899999999999998,249,-0.006999999999999999,-1.026,-0.091,-7.161975,-35.695283399999994,-0.057295800000000015,89.09496899999998,1.20894138,-77.61289067999998
2.5,250,-0.038,-0.993,-0.066,-6.589017,-35.17962120000001,2.9793816000000004,89.01475488,1.1688343199999998,-77.96239505999998
2.51,251,-0.063,-0.958,-0.052000000000000005,-6.875496000000001,-33.8618178,5.6722842,88.94027034,1.1172681,-78.29471070000002
2.52,252,-0.066,-0.941,-0.046,-8.9381448,-31.054323600000004,7.8495246,88.84859706,1.03705398,-78.60410802
2.53,253,-0.062,-0.936,-0.055,-10.599723,-28.4187168,9.969469199999999,88.73973504,0.93965112,-78.88485744
2.54,254,-0.07,-0.926,-0.041,-10.599723,-25.55392680000001,11.4018642,88.63087302,0.8307891,-79.13695895999999
2.55,255,-0.07200000000000001,-0.914,-0.031,-12.2040054,-22.058883,11.45916,88.49909268,0.69900876,-79.34895342
2.56,256,-0.078,-0.909,-0.02,-14.266654199999998,-18.8503182,11.1153852,88.35585318,0.59014674,-79.53802956
2.57,257,-0.096,-0.913,-0.006,-16.386598799999998,-15.4125702,11.229976800000001,88.18969536,0.47555514,-79.68699864
2.5799999999999996,258,-0.118,-0.92,-0.013,-18.162768600000003,-11.745639,11.745639,88.0063488,0.35523396,-79.80159024000002
2.59,259,-0.142,-0.924,-0.014,-17.8762896,-7.8495246,12.2040054,87.82873182,0.23491278,-79.87607478
2.5999999999999996,260,-0.156,-0.917,-0.013,-17.4179232,-3.8961144,11.9748222,87.65111484,0.07448454,-79.91045226
2.61,261,-0.142,-0.911,-0.011,-16.329303,-0.4583664000000001,11.745639,87.48495702,-0.03437748,-79.91618184000002
2.6199999999999997,262,-0.107,-0.893,-0.001,-14.152062599999999,2.6929026,12.0894138,87.34171752,-0.15469866,-79.88180436
2.63,263,-0.062,-0.887,0.022,-11.0007936,4.583664,12.6623718,87.22712592,-0.28074942,-79.83596772
2.6399999999999997,264,-0.021,-0.887,0.048,-10.026765,5.042030400000002,13.120738199999998,87.12399348,-0.41252976,-79.77867192
2.65,265,0.017,-0.877,0.055,-8.021412000000002,4.1252976000000015,13.6936962,87.06669767999998,-0.53858052,-79.73283528
2.6599999999999997,266,0.02,-0.865,0.07200000000000001,-6.760904399999999,1.6615782,13.750992000000002,86.99794272,-0.67609044,-79.70991696000002
2.67,267,0.013,-0.855,0.08,-6.589017,-1.5469866,13.521808800000002,86.92918776,-0.8136003599999999,-79.72137612
2.6799999999999997,268,0.0,-0.8490000000000001,0.083,-6.875496000000001,-4.4690724,13.349921400000001,86.8604328,-0.9453806999999999,-79.76148318
2.69,269,-0.014,-0.8690000000000001,0.08800000000000001,-7.5057497999999985,-7.333862400000001,12.0894138,86.78594826,-1.06570188,-79.82450856
2.6999999999999997,270,-0.035,-0.8759999999999999,0.091,-8.651665800000002,-8.193299399999999,10.0840608,86.73438204,-1.1745638999999999,-79.90472267999998
2.71,271,-0.043,-0.867,0.093,-8.5370742,-9.167328,8.3651868,86.64843834,-1.2605076000000002,-79.99066638000002
2.7199999999999998,272,-0.056,-0.86,0.108,-7.7922288,-9.797581800000001,6.9327918,86.5739538,-1.3349921400000002,-80.08233966
2.73,273,-0.07200000000000001,-0.867,0.122,-7.7922288,-9.6829902,5.2712136,86.49946926,-1.39228794,-80.17974252
2.7399999999999998,274,-0.085,-0.8809999999999999,0.135,-8.078707799999998,-9.6256944,3.3231564,86.41925513999998,-1.42666542,-80.2714158
2.75,275,-0.099,-0.895,0.15,-8.078707799999998,-9.2819196,0.9167328,86.41352556000002,-1.47250206,-80.36308908
2.76,276,-0.118,-0.906,0.17,-7.6776372,-8.193299399999999,-1.432395,86.33904102,-1.4610428999999998,-80.44903278000002
2.77,277,-0.132,-0.921,0.174,-7.2192707999999985,-5.042030400000002,-4.4690724,86.27028606,-1.4209358399999998,-80.500599
2.78,278,-0.153,-0.93,0.162,-6.3025379999999975,-1.145916,-6.130650599999999,86.20726068,-1.3579104599999998,-80.51778774
2.79,279,-0.172,-0.924,0.152,-4.2398892,3.724227,-7.6776372,86.16142404,-1.28342592,-80.48913983999998
2.8,280,-0.192,-0.917,0.15,-1.6042823999999998,9.8548776,-9.453807000000001,86.2015311,-1.24331886,-80.39173698
2.81,281,-0.198,-0.926,0.161,0.9167328,16.7303736,-10.8289062,86.20726068,-1.12872726,-80.23703832
2.82,282,-0.197,-0.963,0.18600000000000005,3.3231564,23.204799,-11.0007936,86.23590858,-1.01413566,-80.01358470000002
2.8299999999999996,283,-0.181,-1.024,0.203,4.3544808,28.7051958,-10.255948199999999,86.27028606,-0.89954406,-79.73283528
2.84,284,-0.147,-1.088,0.22,5.2712136,33.231564,-9.1100322,86.31612270000002,-0.79641162,-79.4119788
2.8499999999999996,285,-0.109,-1.152,0.205,4.4117766,35.809875,-6.6463128000000005,86.37914808000002,-0.72192708,-79.05674484
2.86,286,-0.056,-1.183,0.173,2.1772404,32.0283522,-3.0366774,86.39060724,-0.68182002,-78.74734751999998
2.8699999999999997,287,0.003,-1.186,0.165,3.2658606,25.9549974,-0.1718874,86.41925513999998,-0.6703608600000001,-78.48951642
2.88,288,0.049,-1.177,0.161,4.010706000000001,17.761698000000006,2.291832,86.45363262000002,-0.6875496,-78.31189943999998
2.8899999999999997,289,0.07,-1.137,0.188,8.3651868,9.3392154,4.3544808,86.53957632,-0.72765666,-78.21449658
2.9,290,0.037000000000000005,-1.091,0.261,17.303331600000003,4.297185,5.2712136,86.7744891,-0.76776372,-78.16865994000003
2.9099999999999997,291,-0.03,-1.134,0.345,24.4653066,4.2398892,6.703608600000001,87.02659062000002,-0.83651868,-78.12282330000002
2.92,292,-0.08199999999999999,-1.295,0.396,27.501984000000004,5.72958,12.2040054,87.30161045999998,-0.95111028,-78.05406833999999
2.9299999999999997,293,-0.135,-1.405,0.425,30.7678446,5.042030400000002,21.1421502,87.61100778,-1.1573751600000002,-77.99104296
2.94,294,-0.21,-1.41,0.35100000000000003,30.194886600000004,3.8388186,26.298772200000002,87.92040510000002,-1.41520626,-77.94520632
2.9499999999999997,295,-0.232,-1.45,0.235,24.064235999999998,5.3858052,27.3873924,88.16677704,-1.6902260999999998,-77.87645136
2.96,296,-0.078,-1.602,0.16699999999999998,10.026765,4.4117766,27.6738714,88.26417990000002,-1.96524594,-77.82488514
2.9699999999999998,297,0.126,-1.6840000000000002,-0.033,-4.6982556,-2.7501984,30.7678446,88.21834326000004,-2.26891368,-77.84207388
2.98,298,0.254,-1.645,-0.307,-8.307891,0.5156622000000001,34.950438,88.13812913999998,-2.61841806,-77.83061472
2.9899999999999998,299,0.344,-1.443,-0.451,8.8235532,4.583664,41.3102718,88.22407283999998,-3.02521824,-77.77331892
3.0,300,0.204,-1.07,-0.412,29.67922440000001,-4.8701430000000006,45.6647526,88.4933631,-3.46066632,-77.80196682
3.01,301,-0.06,-0.792,-0.34600000000000003,45.263682,-13.120738199999998,39.3622146,88.96318865999999,-3.84454818,-77.92228800000002
3.02,302,-0.254,-0.72,-0.308,41.19568020000001,-8.307891,25.2674478,89.38717758,-4.09092012,-77.99677254
3.03,303,-0.373,-0.7140000000000001,-0.242,31.8564648,-2.86479,11.3445684,89.71376364,-4.19978214,-78.01969086
3.04,304,-0.413,-0.725,-0.198,19.308684600000007,2.8074942000000003,2.0053530000000004,89.90856936,-4.22270046,-77.99104296
3.05,305,-0.408,-0.782,-0.17600000000000002,9.3965112,12.261301199999998,-2.3491278,89.93721726,-4.30291458,-77.85353303999999
3.06,306,-0.363,-0.862,-0.13,4.4690724,23.204799,-4.3544808,89.96013558000001,-4.26280752,-77.62434984000002
3.07,307,-0.28,-0.924,-0.077,-0.11459160000000004,32.544014399999995,-5.5003968,89.93148768,-4.21697088,-77.29776378
3.08,308,-0.14300000000000002,-0.984,-0.049,-5.042030400000002,38.8465524,-6.4744254,89.84554397999999,-4.15967508,-76.91388192
3.09,309,0.002,-1.041,-0.045,-11.6310474,40.90920120000001,-6.875496000000001,89.6965749,-4.102379279999999,-76.51281132
3.0999999999999996,310,0.103,-1.067,-0.057,-14.667724800000002,38.0444112,-6.990087599999999,89.50176918,-4.01643558,-76.13465904
3.11,311,0.154,-1.034,-0.08,-13.521808800000002,34.7785506,-8.021412000000002,89.33561136,-3.94195104,-75.79661381999998
3.1199999999999997,312,0.16,-0.946,-0.093,-9.3392154,29.9657034,-9.5111028,89.21529018,-3.85600734,-75.49867565999998
3.13,313,0.129,-0.855,-0.07200000000000001,-6.1879464,21.8869956,-11.0580894,89.13507606,-3.74714532,-75.2866812
3.1399999999999997,314,0.087,-0.805,-0.048,-4.4117766,14.266654199999998,-13.120738199999998,89.08350984,-3.62109456,-75.14344170000003
3.15,315,0.036000000000000004,-0.7979999999999999,-0.006999999999999999,-2.0053530000000004,8.5370742,-16.042824000000003,89.05486194,-3.44347758,-75.06322758
3.1599999999999997,316,-0.003,-0.813,0.037000000000000005,-1.145916,5.5003968,-19.0222056,89.03767320000001,-3.26013102,-75.01166136
3.17,317,-0.021,-0.8290000000000001,0.067,-2.0053530000000004,3.5523396000000003,-20.626488,89.01475488,-3.05386614,-74.97728388
3.1799999999999997,318,-0.037000000000000005,-0.845,0.085,-4.8701430000000006,3.380452200000001,-20.2254174,88.96318865999999,-2.85333084,-74.94863597999998
3.19,319,-0.04,-0.873,0.095,-8.4224826,2.6356068,-18.3919518,88.87724496000001,-2.6699842800000004,-74.92571766
3.1999999999999997,320,-0.039,-0.899,0.104,-11.5737516,1.0313244,-16.042824000000003,88.78557168,-2.50955604,-74.91998808000002
3.21,321,-0.019,-0.904,0.107,-13.178034,0.1718874,-14.7823164,88.64806175999998,-2.36631654,-74.92571766
3.2199999999999998,322,-0.01,-0.8959999999999999,0.116,-13.6364004,0.5156622000000001,-15.6417534,88.51055184,-2.21161788,-74.92571766
3.23,323,-0.023,-0.8740000000000001,0.121,-13.521808800000002,1.7188740000000002,-17.9335854,88.37304191999998,-2.0340008999999997,-74.91425849999997
3.2399999999999998,324,-0.044,-0.853,0.132,-13.521808800000002,3.724227,-21.4286292,88.23553199999998,-1.82200644,-74.88561059999998
3.25,325,-0.053,-0.846,0.14400000000000002,-13.750992000000002,8.479778399999999,-25.0955604,88.11521081999999,-1.5813640800000002,-74.81112606
3.26,326,-0.065,-0.836,0.14,-15.3552744,14.037471,-26.5279554,87.95478258,-1.3178034,-74.67934572
3.27,327,-0.08199999999999999,-0.8190000000000001,0.129,-14.495837400000001,20.7410796,-26.2414764,87.80008391999998,-1.05424272,-74.48454000000002
3.28,328,-0.09,-0.82,0.138,-13.9228794,27.1009134,-25.55392680000001,87.65111484,-0.79641162,-74.2267089
3.29,329,-0.08,-0.8,0.132,-14.667724800000002,33.9191136,-24.350715,87.49068659999998,-0.55003968,-73.90585242
3.3,330,-0.067,-0.7829999999999999,0.135,-14.5531332,40.8519054,-22.5745452,87.3474471,-0.32658606,-73.51051140000001
3.31,331,-0.055,-0.779,0.132,-15.126091199999998,48.128471999999995,-20.511896399999998,87.18701886,-0.11459160000000004,-73.04641542
3.32,332,-0.052000000000000005,-0.7909999999999999,0.107,-15.2979786,54.4883058,-18.6784308,87.02659062000002,0.07448454,-72.51929406000002
3.33,333,-0.057,-0.79,0.099,-13.6364004,61.020027,-18.048177,86.87762153999998,0.26929026,-71.92341774
3.34,334,-0.047,-0.7829999999999999,0.111,-11.3445684,64.4004792,-18.5638392,86.75730036,0.46982556,-71.29889352000002
3.3499999999999996,335,-0.03,-0.782,0.124,-9.797581800000001,66.69231119999999,-19.194093,86.67135666,0.67609044,-70.65145097999998
3.36,336,-0.014,-0.7959999999999999,0.136,-7.5057497999999985,68.46848100000001,-19.4232762,86.59114253999998,0.8880849000000001,-69.9868197
3.3699999999999997,337,-0.011,-0.8190000000000001,0.161,-7.3911582,68.98414319999999,-19.4232762,86.52238758000001,1.10007936,-69.31645884000001
3.38,338,-0.043,-0.8220000000000001,0.195,-7.161975,70.9894962,-19.595163600000006,86.45363262000002,1.3178034,-68.62890924
3.3899999999999997,339,-0.067,-0.816,0.227,-5.9014674000000005,76.03152659999998,-20.454600600000006,86.40206640000002,1.5469866,-67.88979342
3.4,340,-0.078,-0.838,0.256,-5.042030400000002,82.04758559999998,-20.5691922,86.38487766,1.77044022,-67.08765222
3.4099999999999997,341,-0.048,-0.893,0.237,-6.589017,88.5793068,-18.162768600000003,86.33331144,1.98243468,-66.22821522
3.42,342,-0.012,-0.916,0.226,-5.844171599999999,91.386801,-13.6936962,86.29320437999998,2.1485925000000003,-65.32867116
3.4299999999999997,343,0.025,-0.919,0.22,-6.9327918,92.1889422,-8.9381448,86.24736774,2.2746432600000004,-64.42339752000001
3.44,344,0.058,-0.904,0.17,-9.797581800000001,90.6992514,-5.6149884000000005,86.16715362,2.36058696,-63.53531262
3.4499999999999997,345,0.068,-0.88,0.11,-12.2040054,87.54798240000002,-4.2398892,86.08120991999998,2.44080108,-62.67014604000001
3.46,346,0.08,-0.804,0.04,-11.45916,83.76645959999998,-3.380452200000001,85.98953664,2.50955604,-61.84508652000001
3.4699999999999998,347,0.09,-0.691,0.009000000000000001,-3.9534102,81.2454444,-1.9480572,85.9723479,2.5611222600000003,-61.04294532
3.48,348,0.131,-0.612,-0.005,2.4064236,77.23473840000003,0.1718874,86.02391412,2.59549974,-60.28091118000001
3.4899999999999998,349,0.168,-0.624,-0.069,4.6982556,64.744254,0.057295800000000015,86.09266908,2.61841806,-59.63919822
3.5,350,0.213,-0.6679999999999999,-0.129,4.5263682,49.04520479999999,-1.2605076000000002,86.13277614,2.68144344,-59.15791349999999
3.51,351,0.292,-0.696,-0.246,-3.8388186,32.257535399999995,-4.4690724,86.10412824,2.73873924,-58.8427866
3.52,352,0.391,-0.726,-0.39,-9.224623800000002,11.8602306,-10.7143146,86.01245496,2.84760126,-58.73392457999999
3.53,353,0.426,-0.7659999999999999,-0.6729999999999999,-21.6578124,-11.4018642,-16.902261,85.78900134,3.0080295,-58.85997533999999
3.54,354,0.4,-0.8440000000000001,-0.85,-29.1635622,-29.9657034,-25.8977016,85.47960402,3.2486718599999995,-59.18083182
3.55,355,0.203,-1.071,-0.907,-32.142943800000005,-37.9871154,-40.8519054,85.1129109,3.63255372,-59.58763199999999
3.56,356,-0.079,-1.453,-0.8290000000000001,-29.507337,-51.6235158,-54.889376399999996,84.78059526000001,4.14248634,-60.14913084
3.57,357,-0.179,-1.66,-0.5429999999999999,-9.797581800000001,-79.06820400000002,-55.00396800000001,84.62589659999998,4.63523022,-60.98564952
3.58,358,0.059,-1.902,-0.219,-7.448453999999999,-86.23017899999998,-50.1911208,84.48838668,5.0706783,-61.88519358
3.59,359,0.349,-1.96,-0.21600000000000005,-18.8503182,-80.09952840000003,-39.820581,84.23055558,5.40872352,-62.71598268
3.5999999999999996,360,0.311,-1.944,-0.079,-11.2872726,-71.9635248,-27.1009134,84.05293859999998,5.62071798,-63.4550985
3.61,361,0.022,-2.02,0.049,-18.5638392,-55.6342218,-23.032911600000002,83.81229624,5.80406454,-64.03378608
3.6199999999999997,362,0.087,-1.975,0.046,-30.93973200000001,-42.112413,-19.3659804,83.45706228,5.958763200000001,-64.47496373999999
3.63,363,0.262,-1.942,0.015,-42.91455420000001,-36.4974246,-10.4278356,82.98723672,6.0275181600000005,-64.85311602
3.6399999999999997,364,0.259,-2.013,0.058,-49.7900502,-34.37748,-1.7761698,82.4486562,6.00459984,-65.2026204
3.65,365,0.204,-2.083,0.08900000000000001,-53.858052,-33.1742682,8.078707799999998,81.8756982,5.88427866,-65.52347688
3.6599999999999997,366,0.17,-2.029,0.067,-55.5196302,-31.79916900000001,16.8449652,81.28555146,5.67801378,-65.82141504
3.67,367,0.153,-1.897,0.023,-53.8007562,-29.507337,23.6631654,80.72405262,5.40299394,-66.07924614
3.6799999999999997,368,0.116,-1.758,-0.001,-52.0245864,-27.3300966,29.507337,80.17974252,5.0706783,-66.30842934
3.69,369,0.056,-1.574,-0.004,-50.82137460000001,-25.496631,36.03905820000001,79.64689158,4.675337279999999,-66.49750548
3.6999999999999997,370,-0.004,-1.382,0.009000000000000001,-48.6441342,-23.4339822,43.3729206,79.15414770000002,4.20551172,-66.65220414
3.71,371,-0.039,-1.204,0.032,-45.9512316,-21.027558600000006,50.993262,78.68432214,3.6669312000000014,-66.76679573999999
3.7199999999999998,372,-0.069,-1.041,0.047,-44.977203,-19.7097552,57.92605379999999,78.22595574,3.0653253000000005,-66.85273944
3.73,373,-0.107,-0.948,0.03,-45.0917946,-21.9442914,63.942112800000004,77.76758934,2.40069402,-66.93868314
3.7399999999999998,374,-0.159,-0.852,0.03,-41.1383844,-26.069589,64.62966239999999,77.35505958,1.7188740000000002,-67.05900432000001
3.75,375,-0.157,-0.772,0.1,-35.809875,-26.356068,58.49901179999999,77.01128478000003,1.0886202,-67.19078465999999
3.76,376,-0.13,-0.6779999999999999,0.13699999999999998,-32.486718599999996,-23.777757,46.8679644,76.67896913999998,0.5844171599999999,-67.322565
3.77,377,-0.118,-0.603,0.168,-31.5699858,-19.3659804,32.257535399999995,76.36384224,0.2291832000000001,-67.43715660000001
3.78,378,-0.119,-0.478,0.096,-35.2942128,-17.131444199999994,22.6891368,76.00860828,-0.02291832,-67.55174819999999
3.79,379,-0.128,-0.389,0.069,-33.9764094,-15.126091199999998,19.194093,75.66483348,-0.24637194,-67.65488064
3.8,380,-0.066,-0.303,0.068,-28.074942,-13.120738199999998,18.5065434,75.39554322000002,-0.4583664000000001,-67.74082434
3.81,381,0.006999999999999999,-0.193,0.117,-16.386598799999998,-11.45916,20.9702628,75.2293854,-0.6875496,-67.79812014000001
3.82,382,0.07,-0.044,0.116,-7.7922288,-12.891555,24.637194,75.15490086000001,-0.95683986,-67.86114552
3.83,383,0.08199999999999999,0.07200000000000001,0.166,4.0680017999999984,-11.6310474,26.69984280000001,75.2007375,-1.23758928,-67.90698216000001
3.84,384,0.001,0.134,0.239,13.8655836,-7.333862400000001,27.043617600000005,75.34397700000002,-1.51260912,-67.90698216000001
3.8499999999999996,385,-0.138,0.163,0.191,21.0848544,0.057295800000000015,24.637194,75.56743062000002,-1.76471064,-67.84395678
3.86,386,-0.225,0.156,0.145,30.93973200000001,16.501190400000002,20.8556712,75.87109836,-1.93086846,-67.63196232
3.8699999999999997,387,-0.159,0.039,0.017,42.5707794,35.8671708,18.5638392,76.28362812,-2.02827132,-67.2366213
3.88,388,0.055,-0.298,-0.529,46.065823200000004,38.7319608,26.69984280000001,76.73626494,-2.20015872,-66.79544364
3.8899999999999997,389,-0.03,-0.6940000000000001,-0.435,57.983349600000004,-7.8495246,47.7846972,77.3206821,-2.67571386,-66.76106616
3.9,390,0.48,-1.3159999999999998,-0.392,51.9672906,-12.5477802,58.78549079999999,77.84780346,-3.25440144,-66.75533657999999
3.9099999999999997,391,0.715,-2.065,-0.6709999999999999,28.934379,-47.0398518,65.030733,78.17438952,-3.97059894,-67.08192264
3.92,392,0.488,-2.174,-0.171,41.6540466,-53.5142772,47.4982182,78.63275592,-4.5206386200000015,-67.50591156
3.9299999999999997,393,0.085,-1.935,-0.604,31.627281600000003,-45.550161,13.349921400000001,78.99371946,-4.72117392,-67.91844132
3.94,394,-0.102,-1.841,-0.504,39.6486936,-39.47680620000001,1.145916,79.43489712,-4.78992888,-68.30232318
3.9499999999999997,395,-0.302,-1.764,-0.5529999999999999,28.991674800000002,-30.5959572,-3.4950437999999995,79.75575359999998,-4.80138804,-68.60599092
3.96,396,-0.342,-1.768,-0.616,14.266654199999998,-21.027558600000006,-12.7769634,79.92191142,-4.703985179999999,-68.82944454
3.9699999999999998,397,-0.294,-1.877,-0.611,0.6302538000000001,-15.469866,-16.501190400000002,79.94482974,-4.56647526,-69.0127911
3.98,398,-0.16399999999999998,-1.903,-0.5429999999999999,-4.0680017999999984,-10.9434978,-18.5638392,79.91618184000002,-4.40031744,-69.15030102
3.9899999999999998,399,-0.086,-1.88,-0.47,-8.250595200000001,-8.307891,-19.4232762,79.84169729999998,-4.22270046,-69.2706222
4.0,400,0.005,-1.816,-0.421,-11.3445684,-7.9641161999999985,-19.0222056,79.73283528,-4.05081306,-69.37948422
4.01,401,0.094,-1.707,-0.389,-11.172681,-9.969469199999999,-19.2513888,79.62970284,-3.87892566,-69.51126456
4.02,402,0.138,-1.6030000000000002,-0.35,-8.880849000000003,-14.037471,-21.027558600000006,79.55521829999998,-3.6955791,-69.68888154
4.03,403,0.131,-1.526,-0.31,-6.3598338,-19.8816426,-22.9756158,79.50365208,-3.50077338,-69.92379432
4.04,404,0.085,-1.442,-0.285,-4.3544808,-24.637194,-26.298772200000002,79.48073375999998,-3.28304934,-70.2160029
4.05,405,0.037000000000000005,-1.346,-0.289,-1.3178034,-29.67922440000001,-30.65325300000001,79.48646334,-3.01948866,-70.5597777
4.06,406,0.0,-1.225,-0.269,2.0626488000000003,-32.486718599999996,-35.5806918,79.53229998,-2.7215505,-70.94365956
4.07,407,-0.014,-1.111,-0.218,4.6409598,-33.4607472,-39.4195104,79.60105494000003,-2.38923486,-71.33900058
4.08,408,-0.022,-1.021,-0.182,5.7868758000000025,-32.2002396,-41.4821592,79.67553948,-2.0340008999999997,-71.72861202
4.09,409,-0.015,-0.953,-0.15,6.2452422,-29.793816,-40.6227222,79.75575359999998,-1.6787669399999998,-72.08957556
4.1,410,0.0,-0.897,-0.111,6.0733548,-27.501984000000004,-37.81522800000001,79.83596772,-1.3464512999999998,-72.4218912
4.109999999999999,411,0.021,-0.8290000000000001,-0.077,6.417129599999999,-24.8090814,-34.2055926,79.91045226,-1.04278356,-72.72555894
4.12,412,0.076,-0.748,-0.055,6.990087599999999,-23.14750320000001,-29.9657034,79.9849368,-0.7849524600000001,-73.00057878
4.13,413,0.13,-0.682,-0.036000000000000004,7.3911582,-23.491278,-25.210152,80.06515092,-0.5729580000000001,-73.26986904
4.14,414,0.165,-0.637,-0.009000000000000001,8.4224826,-25.0955604,-21.0848544,80.1568242,-0.4010706000000001,-73.55061846
4.1499999999999995,415,0.17600000000000002,-0.599,0.01,9.5111028,-28.1895336,-16.902261,80.2714158,-0.25210152,-73.86001578
4.16,416,0.16399999999999998,-0.5539999999999999,0.006999999999999999,12.032117999999999,-31.79916900000001,-12.3758928,80.39746656,-0.1718874,-74.18660184000002
4.17,417,0.115,-0.525,0.029,15.870936600000002,-34.5493674,-8.4224826,80.56362438,-0.13750992,-74.5418358
4.18,418,0.053,-0.502,0.07,19.2513888,-35.4088044,-6.3025379999999975,80.76415968,-0.12032118,-74.89706976
4.1899999999999995,419,-0.01,-0.476,0.08199999999999999,19.938938399999998,-34.2055926,-5.042030400000002,80.97615413999998,-0.11459160000000004,-75.23511498
4.2,420,-0.046,-0.457,0.083,19.938938399999998,-31.1689152,-4.4117766,81.19387818,-0.11459160000000004,-75.54451230000002
4.21,421,-0.069,-0.434,0.075,19.2513888,-25.6112226,-2.7501984,81.39441348,-0.11459160000000004,-75.79661381999998
4.22,422,-0.068,-0.419,0.07,18.6784308,-21.199446,0.1718874,81.58348962,-0.13750992,-76.00287870000002
4.2299999999999995,423,-0.049,-0.4,0.063,16.7876694,-18.7930224,4.583664,81.76110659999998,-0.20626488,-76.18049568
4.24,424,-0.009000000000000001,-0.39,0.061,16.042824000000003,-18.1054728,9.6256944,81.92726442,-0.32085648,-76.34665349999999
4.25,425,0.038,-0.384,0.055,16.558486199999994,-18.334656,15.126091199999998,82.1048814,-0.48128472,-76.50135216
4.26,426,0.092,-0.396,0.066,16.329303,-20.7410796,20.9702628,82.2767688,-0.7104679199999999,-76.67896913999998
4.27,427,0.112,-0.404,0.062,15.5844576,-25.0382646,26.41336380000001,82.44292662,-0.9912173399999998,-76.89096359999998
4.28,428,0.115,-0.431,0.053,14.266654199999998,-29.9084076,31.2835068,82.59762528,-1.32926256,-77.14306512
4.29,429,0.057,-0.476,0.043,12.5477802,-36.2109456,32.486718599999996,82.74086478000002,-1.6844965200000002,-77.45819202
4.3,430,-0.014,-0.555,0.021,9.797581800000001,-37.41415739999999,30.252182399999995,82.86118596,-2.01681216,-77.79050766
4.31,431,-0.07200000000000001,-0.664,-0.001,5.958763200000001,-34.8358464,26.9863218,82.94140008000002,-2.3204799,-78.09990497999998
4.32,432,-0.103,-0.777,-0.064,1.8907613999999997,-28.361421000000004,24.4080108,82.97577756,-2.58404058,-78.34627692000002
4.33,433,-0.105,-0.858,-0.121,0.057295800000000015,-23.032911600000002,23.4339822,82.98723672,-2.8361421,-78.54681221999998
4.34,434,-0.085,-0.895,-0.108,2.5210152000000003,-22.1161788,23.204799,83.02734378,-3.08824362,-78.73588836
4.35,435,-0.07,-0.902,-0.045,6.6463128000000005,-22.91832,22.0015872,83.12474663999998,-3.32888598,-78.93642365999997
4.36,436,-0.083,-0.894,0.047,13.407217200000002,-22.173474600000002,20.511896399999998,83.27371572000001,-3.54661002,-79.13122938000002
4.37,437,-0.099,-0.911,0.17800000000000002,20.9702628,-24.7517856,20.2827132,83.5086285,-3.77006364,-79.354683
4.38,438,-0.08900000000000001,-0.957,0.292,25.78311,-28.5906042,20.2827132,83.78937792,-3.99351726,-79.6125141
4.39,439,-0.054000000000000006,-1.041,0.369,28.1895336,-33.1742682,19.1367972,84.10450482,-4.20551172,-79.91618184000002
4.3999999999999995,440,-0.03,-1.134,0.41,29.8511118,-34.7212548,14.610429000000002,84.47692752,-4.36593996,-80.24849748
4.41,441,-0.02,-1.26,0.384,31.3980984,-29.335449600000004,5.443101,84.82070232,-4.43469492,-80.5292469
4.42,442,-0.099,-1.466,0.17600000000000002,18.907614000000002,-29.0489706,-7.3911582,85.03842636,-4.37739912,-80.82145548
4.43,443,-0.242,-1.783,-0.065,7.6203414,-13.2926256,-28.4760126,85.13009964,-4.102379279999999,-80.97615413999998
4.4399999999999995,444,-0.379,-1.9,-0.55,-2.4064236,5.72958,-53.8007562,85.10145173999999,-3.56379876,-80.95896540000003
4.45,445,-0.35100000000000003,-1.443,-0.727,45.779344200000004,-11.3445684,-62.853492599999996,85.55981814,-2.9507337,-81.11939364
4.46,446,-0.14400000000000002,-1.077,-0.462,73.73969459999998,-18.9649098,-65.3745078,86.32185228,-2.30329116,-81.34284726
4.47,447,0.161,-0.8270000000000001,-0.4970000000000001,65.2026204,-14.8396122,-58.72819499999999,86.98648356,-1.7246035799999997,-81.51473466
4.4799999999999995,448,0.405,-0.738,-0.26,72.192708,-21.9442914,-38.5027776,87.73132896,-1.34072172,-81.73818828
4.49,449,0.48,-0.8809999999999999,0.066,55.92070079999999,-32.257535399999995,-22.5745452,88.31001654,-1.11153852,-82.05904475999998
4.5,450,0.443,-1.149,0.031,17.475219,-42.5707794,-15.0687954,88.49909268,-0.93392154,-82.48303368
4.51,451,0.303,-1.4409999999999998,0.043,-0.286479,-50.0192334,-11.0007936,88.51055184,-0.8193299399999999,-82.98150714
4.52,452,0.094,-1.727,0.011,-9.167328,-49.2170922,-10.6570188,88.43033772,-0.7161975,-83.47425102000003
4.53,453,-0.123,-1.813,-0.057,-13.349921400000001,-44.117766,-11.2872726,88.30428696,-0.6073354799999999,-83.91542868
4.54,454,-0.244,-1.706,-0.102,-7.2765666,-33.9191136,-9.8548776,88.24126158,-0.5099326200000001,-84.25347389999997
4.55,455,-0.276,-1.444,-0.16399999999999998,2.6356068,-23.777757,-5.7868758000000025,88.25845032,-0.46982556,-84.48838668
4.56,456,-0.215,-1.2,-0.165,13.521808800000002,-12.834259199999998,-0.8594370000000001,88.40168982,-0.4583664000000001,-84.61443744
4.57,457,-0.107,-1.104,-0.141,14.32395,-3.3231564,3.8961144,88.54492932000002,-0.4984734599999999,-84.64308534
4.58,458,-0.022,-1.088,-0.13699999999999998,10.886202,0.1718874,9.1100322,88.65952092,-0.5844171599999999,-84.63735576
4.59,459,0.014,-1.08,-0.14300000000000002,7.5057497999999985,2.1199446,13.5791046,88.73400546,-0.72192708,-84.61443744
4.6,460,0.006999999999999999,-1.035,-0.139,7.3911582,3.8961144,16.673077799999998,88.76265336,-0.87662574,-84.56860079999998
4.61,461,-0.039,-0.948,-0.09,10.3705398,5.958763200000001,19.0795014,88.8657858,-1.06570188,-84.50557542
4.62,462,-0.104,-0.892,-0.035,11.229976800000001,10.026765,19.8243468,88.97464782,-1.26623718,-84.40244298
4.63,463,-0.16399999999999998,-0.863,-0.01,11.172681,17.4179232,19.9962342,89.08350984,-1.46677248,-84.22482600000002
4.64,464,-0.229,-0.85,0.03,13.407217200000002,27.5592798,20.8556712,89.20956059999996,-1.67303736,-83.94980616
4.6499999999999995,465,-0.289,-0.833,0.067,12.3758928,38.10170700000001,21.8869956,89.32988178,-1.93086846,-83.5659243
4.66,466,-0.311,-0.816,0.081,8.021412000000002,47.2117392,22.5745452,89.38717758,-2.1657812400000003,-83.09609874
4.67,467,-0.301,-0.804,0.08800000000000001,2.3491278,54.43101,22.2880662,89.38144799999998,-2.39496444,-82.55751822
4.68,468,-0.274,-0.8079999999999999,0.078,-2.5210152000000003,59.186561399999995,20.168121600000006,89.3241522,-2.6069589,-81.96737148
4.6899999999999995,469,-0.236,-0.794,0.068,-5.3858052,65.7182826,15.469866,89.22674934,-2.76738714,-81.31419936
4.7,470,-0.196,-0.78,0.07,-5.958763200000001,71.67704579999999,10.1986524,89.12934648,-2.89916748,-80.60373144
4.71,471,-0.14400000000000002,-0.7490000000000001,0.07,-6.1879464,76.8336678,4.7555514,89.02048446,-2.9564632800000004,-79.84742688
4.72,472,-0.102,-0.708,0.07200000000000001,-6.0733548,79.87034519999997,0.2291832000000001,88.90589286,-2.96219286,-79.05674484
4.7299999999999995,473,-0.054000000000000006,-0.675,0.067,-6.760904399999999,82.39136040000002,-3.151269,88.78557168,-2.93927454,-78.24314448
4.74,474,-0.006999999999999999,-0.64,0.064,-5.72958,84.1675302,-4.8128472,88.67098008,-2.89916748,-77.40662579999999
4.75,475,0.014,-0.615,0.07400000000000001,-2.1199446,85.48533359999998,-5.958763200000001,88.60222512,-2.8361421,-76.56437754
4.76,476,0.004,-0.613,0.097,1.7188740000000002,86.68854540000002,-7.8495246,88.56784764,-2.76165756,-75.71067012
4.77,477,-0.026,-0.635,0.145,7.906820400000001,89.3241522,-10.0840608,88.59649553999998,-2.6642547000000003,-74.82831479999999
4.78,478,-0.064,-0.674,0.19,12.7769634,95.0537322,-12.4904844,88.67098008,-2.53820394,-73.88866368000002
4.79,479,-0.104,-0.7240000000000001,0.222,16.272007199999994,100.9551996,-14.381245800000002,88.77411251999996,-2.40069402,-72.88598718
4.8,480,-0.13,-0.768,0.245,18.8503182,105.02320139999999,-16.501190400000002,88.92881118,-2.25172494,-71.8489332
4.81,481,-0.126,-0.8109999999999999,0.255,21.3713334,110.17982340000002,-18.334656,89.08923942,-2.07983754,-70.760313
4.82,482,-0.1,-0.868,0.244,22.173474600000002,113.5029798,-18.2773602,89.26112682,-1.90795014,-69.63731532
4.83,483,-0.068,-0.94,0.191,20.340009,112.81543020000001,-16.042824000000003,89.41582548,-1.76471064,-68.52004722
4.84,484,-0.012,-0.994,0.13699999999999998,16.615782,108.40365359999998,-11.516455800000001,89.54187624,-1.6673077799999998,-67.44861576
4.85,485,0.023,-1.04,0.085,10.6570188,98.1477054,-5.042030400000002,89.6106312,-1.6329303,-66.47458716
4.86,486,0.058,-1.0490000000000002,0.058,7.9641161999999985,83.4226848,4.2398892,89.65646783999998,-1.6902260999999998,-65.64952764
4.87,487,0.058,-1.04,0.08199999999999999,11.8602306,68.9268474,12.1467096,89.74814112,-1.82773602,-64.96770762
4.88,488,0.034,-0.989,0.145,18.449247600000003,55.3477428,16.501190400000002,89.90856936,-1.99962342,-64.41766794
4.89,489,-0.011,-0.916,0.24,28.81978740000001,46.065823200000004,15.985528200000001,90.1835892,-2.17151082,-63.95930154
4.8999999999999995,490,-0.102,-0.858,0.327,38.7319608,44.06047020000001,10.3705398,90.59038938,-2.29756158,-63.52385346
4.91,491,-0.25,-0.852,0.361,45.3782736,49.1025006,2.6356068,91.02010788,-2.34339822,-63.03110958
4.92,492,-0.359,-0.945,0.373,48.3003594,62.5670136,-2.4637194,91.47847428,-2.34339822,-62.40658536
4.93,493,-0.29600000000000004,-1.168,0.393,43.20103320000001,79.641162,0.6302538000000001,91.8738153,-2.38923486,-61.61590332
4.9399999999999995,494,-0.122,-1.374,0.338,28.81978740000001,84.11023440000002,9.0527364,92.12018724,-2.53247436,-60.78511422
4.95,495,-0.023,-1.432,0.177,14.32395,84.56860079999998,18.7357266,92.2175901,-2.76738714,-59.95432512
4.96,496,0.081,-1.609,-0.014,1.4896908000000002,90.5846598,32.085648000000006,92.17748304,-3.14553942,-59.0719698
4.97,497,0.343,-2.0780000000000003,-0.117,-19.1367972,87.0323202,54.43101,91.91965194,-3.74141574,-58.23545111999999
4.9799999999999995,498,0.557,-2.082,-0.192,-28.074942,63.7702254,71.5624542,91.5873363,-4.49199072,-57.63384522
4.99,499,0.2,-1.4469999999999998,-0.487,-9.0527364,78.6671334,61.1919144,91.42117848,-5.14516284,-56.87181108
5.0,500,-0.217,-1.283,-0.329,21.199446,102.5021862,30.8824362,91.51285176,-5.50612638,-55.85767542
5.01,501,-0.297,-1.251,-0.393,23.6058696,123.8735196,8.250595200000001,91.6159842,-5.65509546,-54.631545300000006
5.02,502,-0.293,-1.4,-0.259,21.7151082,135.73375019999997,-2.4064236,91.68473916,-5.70666168,-53.27936442
5.03,503,-0.2,-1.473,-0.304,10.5424272,147.59398080000003,-4.2398892,91.62744336,-5.746768739999999,-51.81259193999999
5.04,504,-0.098,-1.474,-0.265,12.318597,153.6100398,-2.7501984,91.57587714,-5.80406454,-50.28852366
5.05,505,-0.044,-1.442,-0.165,11.1153852,156.07375919999996,-4.8701430000000006,91.50712218,-5.83271244,-48.73580748
5.06,506,0.005,-1.359,-0.126,7.8495246,158.36559119999995,-10.255948199999999,91.40398974,-5.815523699999999,-47.16017298
5.07,507,0.044,-1.252,-0.114,7.333862400000001,161.34497280000005,-17.761698000000006,91.29512772,-5.71812084,-45.55589058
5.08,508,0.056,-1.132,-0.105,7.5057497999999985,165.01190400000004,-28.6479,91.1862657,-5.51185596,-43.90577154
5.09,509,0.052000000000000005,-1.019,-0.095,8.9954406,168.3923562,-38.4454818,91.100322,-5.2139178,-42.2270046
5.1,510,0.048,-0.945,-0.06,12.1467096,172.0019916,-46.6387812,91.0430262,-4.81857678,-40.51386018
5.11,511,0.049,-0.904,-0.027000000000000003,14.037471,175.038669,-51.5089242,91.02010788,-4.38885828,-38.76633828
5.12,512,0.047,-0.872,0.002,15.527161800000002,176.47106399999996,-52.19647379999999,91.02583746,-3.94768062,-37.00735722
5.13,513,0.041,-0.8540000000000001,0.04,13.6936962,175.038669,-49.1025006,91.02583746,-3.5351508600000003,-35.25983532
5.14,514,0.055,-0.8,0.066,9.5111028,174.179232,-45.550161,90.99718956,-3.1627281600000003,-33.52950216000001
5.1499999999999995,515,0.077,-0.782,0.075,6.130650599999999,173.6635698,-43.258329,90.95135292,-2.80176462,-31.799169
5.16,516,0.086,-0.765,0.092,1.9480572,173.6635698,-40.2216516,90.86540922,-2.47517856,-30.080295
5.17,517,0.07400000000000001,-0.755,0.098,-2.291832,173.6635698,-37.1276784,90.75081762,-2.18296998,-28.35569142
5.18,518,0.039,-0.741,0.098,-3.151269,174.98137319999995,-34.7212548,90.63049644,-1.90222056,-26.61962868
5.1899999999999995,519,-0.001,-0.753,0.115,-2.6929026,177.1013178,-32.7731976,90.527364,-1.64438946,-24.8663772
5.2,520,-0.004,-0.7659999999999999,0.12,-3.3231564,179.8515162,-30.8251404,90.42423156,-1.4037471,-23.08447782
5.21,521,0.005,-0.7829999999999999,0.131,-2.3491278,181.9714608,-28.762491600000004,90.33828786,-1.18029348,-21.2853897
5.22,522,0.037000000000000005,-0.7929999999999999,0.142,-0.6875496,183.2892642,-26.4706596,90.2695329,-0.9740286,-19.47484242
5.2299999999999995,523,0.07,-0.785,0.145,2.7501984,183.74763059999998,-24.4653066,90.24661458,-0.7906820400000001,-17.65283598
5.24,524,0.098,-0.779,0.154,8.651665800000002,183.919518,-23.032911600000002,90.28672164,-0.61879464,-15.83655912
5.25,525,0.116,-0.782,0.187,13.8655836,184.0341096,-22.058883,90.39558366,-0.4526368200000001,-14.01455268
5.26,526,0.127,-0.799,0.213,16.157415599999997,183.6903348,-20.2827132,90.52163442,-0.31512690000000004,-12.19827582
5.27,527,0.141,-0.838,0.226,17.4179232,183.5757432,-17.6471064,90.66487392,-0.20626488,-10.37626938
5.28,528,0.14800000000000002,-0.8809999999999999,0.254,17.475219,182.9454894,-14.667724800000002,90.813843,-0.13178034,-8.565722099999999
5.29,529,0.161,-0.913,0.272,16.386598799999998,181.7995734,-11.688343199999998,90.95135292,-0.09167328,-6.76663398
5.3,530,0.172,-0.951,0.3,14.7250206,179.2212624,-8.5370742,91.08886284,-0.07448454,-4.99619376
5.31,531,0.182,-1.002,0.3,11.516455800000001,177.1013178,-5.7868758000000025,91.18053612,-0.10313244,-3.24294228
5.32,532,0.187,-1.046,0.292,7.5630456000000015,177.04402199999996,-3.3231564,91.22637276,-0.15469866,-1.49542038
5.33,533,0.175,-1.053,0.272,4.7555514,178.476417,-1.6615782,91.24929108,-0.22345362,0.26356068
5.34,534,0.16,-1.037,0.24,5.2139178,180.9401364,-0.286479,91.26647982,-0.30939732,2.05118964
5.35,535,0.145,-1.013,0.233,6.8182002000000015,181.9714608,0.7448454000000001,91.31231646,-0.39534102,3.84454818
5.36,536,0.139,-0.998,0.241,7.906820400000001,180.7109532,2.0053530000000004,91.35242352,-0.5099326200000001,5.63217714
5.37,537,0.152,-1.0,0.256,7.8495246,177.78886740000004,3.4377480000000005,91.39253058,-0.6302538000000001,7.385428619999999
5.38,538,0.17,-1.019,0.271,7.161975,174.75218999999996,4.3544808,91.42117848,-0.76776372,9.1100322
5.39,539,0.194,-1.036,0.251,6.703608600000001,173.26249919999995,4.8128472,91.4440968,-0.90527364,10.82317662
5.3999999999999995,540,0.21600000000000005,-1.025,0.234,7.5630456000000015,172.68954119999995,6.3598338,91.47847428,-1.04278356,12.52486188
5.41,541,0.228,-0.973,0.206,9.740286,170.97066719999995,8.9381448,91.51858134,-1.22040054,14.2093584
5.42,542,0.22,-0.926,0.206,12.7196676,166.7880738,11.172681,91.5873363,-1.4209358399999998,15.859477439999996
5.43,543,0.2,-0.8909999999999999,0.206,13.8655836,161.17308540000005,13.6936962,91.66755042,-1.65011904,17.4465711
5.4399999999999995,544,0.156,-0.8759999999999999,0.199,11.2872726,153.78192719999996,14.610429000000002,91.71338706000002,-1.87930224,18.95918022
5.45,545,0.107,-0.888,0.192,9.1100322,146.677248,12.9488508,91.74776454000002,-2.07983754,20.40303438
5.46,546,0.071,-0.93,0.189,7.5057497999999985,141.6925134,10.1986524,91.75349412,-2.2631841,21.8010519
5.47,547,0.062,-0.973,0.151,5.443101,137.96828639999998,6.9327918,91.73630538,-2.41215318,23.16469194
5.4799999999999995,548,0.056,-0.977,0.117,4.1825934,132.8116644,2.2345362,91.70192790000002,-2.50955604,24.47676576
5.49,549,0.038,-0.984,0.091,4.010706000000001,123.9881112,-3.4950437999999995,91.67328,-2.54393352,25.70289588
5.5,550,0.025,-1.013,0.08800000000000001,2.86479,116.3677698,-8.5370742,91.63890252,-2.5210152000000003,26.85454146
5.51,551,0.009000000000000001,-1.054,0.076,-2.1772404,112.1851764,-15.2406828,91.55295882,-2.42934192,27.96607998
5.52,552,0.005,-1.114,0.022,-8.9954406,111.5549226,-22.4026578,91.39826016,-2.26891368,29.0776185
5.53,553,-0.033,-1.1740000000000002,-0.037000000000000005,-14.7823164,110.17982340000002,-28.762491600000004,91.19199528,-2.0340008999999997,30.17196828
5.54,554,-0.08800000000000001,-1.214,-0.078,-17.3606274,111.3257394,-35.2942128,90.96281208,-1.73606274,31.27204764
5.55,555,-0.092,-1.195,-0.175,-18.9649098,114.9926706,-39.6486936,90.71071056,-1.39801752,32.41796364
5.56,556,-0.062,-1.133,-0.196,-13.349921400000001,113.96134620000001,-34.950438,90.53309358,-1.09434978,33.5466909
5.57,557,-0.054000000000000006,-1.092,-0.14300000000000002,-10.9434978,110.9819646,-22.1161788,90.38985408,-0.9167328000000001,34.64104068
5.58,558,-0.086,-1.091,-0.146,-15.3552744,110.867373,-11.0007936,90.20077794,-0.8422482600000001,35.74112004000001
5.59,559,-0.13,-1.112,-0.147,-15.985528200000001,111.3257394,-3.3231564,90.00597222,-0.8422482600000001,36.83546982
5.6,560,-0.152,-1.143,-0.118,-11.9748222,111.61221840000002,-0.4010706,89.84554397999999,-0.87662574,37.94127876
5.61,561,-0.145,-1.152,-0.08,-6.990087599999999,111.9559932,-0.6302538000000001,89.74241154,-0.89954406,39.04708770000001
5.62,562,-0.128,-1.154,-0.051,-2.578311,112.6435428,-1.3750992,89.68511574,-0.91100322,40.15862622
5.63,563,-0.12,-1.148,-0.033,-1.8907613999999997,113.5602756,-1.2032118,89.63354952,-0.92246238,41.2816239
5.64,564,-0.114,-1.133,-0.045,-2.1772404,112.299768,0.6875496,89.57625372,-0.95111028,42.38743284
5.6499999999999995,565,-0.122,-1.099,-0.043,0.286479,107.37232920000001,3.6096354,89.54187624,-1.01986524,43.45313472
5.66,566,-0.14,-1.05,-0.015,3.8388186,105.9399342,4.4690724,89.54760582,-1.0886202,44.50164786000001
5.67,567,-0.147,-1.022,0.013,5.844171599999999,107.9452872,4.2398892,89.57052414,-1.15164558,45.56734974
5.68,568,-0.153,-1.012,0.037000000000000005,7.3911582,110.7527814,3.6096354,89.6106312,-1.20894138,46.6674291
5.6899999999999995,569,-0.157,-0.999,0.06,7.7922288,114.8207832,2.5210152000000003,89.65073826,-1.25477802,47.80188594
5.7,570,-0.149,-0.99,0.08,7.3911582,118.37312279999999,0.9167328,89.68511574,-1.30061466,48.97072026
5.71,571,-0.119,-0.97,0.073,5.042030400000002,120.5503632,-0.9740286,89.6965749,-1.3178034,50.1624729
5.72,572,-0.102,-0.947,0.066,2.9220857999999996,123.93081540000001,-3.6669312000000014,89.67938615999998,-1.30634424,51.38860301999999
5.7299999999999995,573,-0.099,-0.924,0.078,0.9167328,127.8269298,-5.844171599999999,89.64500868,-1.27769634,52.6548402
5.74,574,-0.094,-0.911,0.09,-1.5469866,129.94687439999998,-6.130650599999999,89.5819833,-1.24331886,53.93826612
5.75,575,-0.086,-0.925,0.091,-5.1566220000000005,132.06681899999998,-4.9274388,89.49031002000002,-1.22613012,55.23888078
5.76,576,-0.081,-0.958,0.067,-9.453807000000001,133.212735,-3.0366774,89.34707052,-1.22040054,56.55668418000001
5.77,577,-0.077,-0.982,0.031,-12.2040054,133.6711014,-1.145916,89.1809127,-1.22613012,57.88021716000001
5.78,578,-0.073,-0.972,0.012,-12.2040054,134.3013552,-0.286479,89.00902529999998,-1.24331886,59.20375014
5.79,579,-0.073,-0.953,-0.006,-11.0580894,135.6191586,-1.3178034,88.84859706,-1.24331886,60.54447186
5.8,580,-0.064,-0.936,-0.02,-8.4224826,136.5358914,-2.8074942000000003,88.71108714,-1.22613012,61.89092316
5.81,581,-0.052000000000000005,-0.917,-0.008,-4.2398892,137.22344099999998,-3.380452200000001,88.62514344,-1.19748222,63.24883361999999
5.82,582,-0.054000000000000006,-0.911,0.028,-0.6875496,138.4839486,-3.9534102,88.56784764,-1.16310474,64.61820324
5.83,583,-0.051,-0.929,0.059,1.7761698,140.4320058,-4.297185,88.53919973999999,-1.12299768,66.00476160000001
5.84,584,-0.037000000000000005,-0.962,0.069,2.86479,141.6925134,-4.297185,88.52201099999998,-1.08289062,67.40277911999999
5.85,585,-0.019,-0.988,0.07400000000000001,4.4117766,141.2914428,-3.6669312000000014,88.52774058,-1.04851314,68.80079664
5.86,586,-0.016,-0.996,0.066,5.5003968,138.5412444,-2.578311,88.54492932000002,-1.0255948199999998,70.17016626
5.87,587,-0.029,-0.99,0.035,5.844171599999999,134.7597216,-2.4064236,88.56211806,-1.0026765,71.5051584
5.88,588,-0.035,-0.987,0.023,7.7922288,131.09279039999998,-2.9793816000000004,88.60222512,-0.9740286,72.80004348
5.89,589,-0.039,-0.98,0.028,9.6256944,128.5144794,-3.8388186,88.65952092,-0.93965112,74.07201024000003
5.8999999999999995,590,-0.049,-0.975,0.025,10.1413566,127.3112676,-4.8128472,88.72827588,-0.90527364,75.32678826
5.91,591,-0.057,-0.973,0.024,9.969469199999999,125.6496894,-5.6722842,88.79130126,-0.8537074199999999,76.57010712
5.92,592,-0.062,-0.978,0.02,8.7089616,123.70163219999999,-6.2452422,88.84859706,-0.79641162,77.79623724
5.93,593,-0.063,-0.977,0.029,9.3392154,121.9254624,-6.0733548,88.91162244,-0.75057498,78.99944904
5.9399999999999995,594,-0.083,-0.957,0.054000000000000006,12.318597,119.17526399999998,-6.0733548,89.00329572000004,-0.69900876,80.17974252
5.95,595,-0.127,-0.911,0.095,13.521808800000002,116.94072779999999,-8.250595200000001,89.12361690000002,-0.64171296,81.3313881
5.96,596,-0.149,-0.861,0.123,12.4904844,116.7115446,-12.9488508,89.22101975999998,-0.52712136,82.48876326
5.97,597,-0.152,-0.8340000000000001,0.16,12.1467096,118.77419340000002,-18.8503182,89.31842262,-0.35523396,83.66332716000002
5.9799999999999995,598,-0.14400000000000002,-0.8440000000000001,0.179,10.4851314,122.3838288,-24.0069402,89.40436632,-0.13178034,84.87226854000002
5.99,599,-0.122,-0.9,0.171,7.448453999999999,126.1080558,-26.5279554,89.46166212,0.10313244,86.11558740000002
6.0,600,-0.046,-1.04,0.159,0.8594370000000001,132.1241148,-24.8090814,89.46739170000002,0.32658606,87.42193164
6.01,601,0.122,-1.267,0.104,-10.4278356,134.98890480000003,-15.870936600000002,89.3528001,0.4583664000000001,88.7511942
6.02,602,0.312,-1.461,0.017,-18.2200644,127.9988172,-1.6615782,89.15799438,0.4526368200000001,90.01743138
6.03,603,0.388,-1.4,-0.078,-15.0114996,117.6855732,8.7662574,88.99756613999998,0.35523396,91.18053612
6.04,604,0.29,-1.119,-0.124,-3.6096354,109.3203864,11.0580894,88.9517295,0.23491278,92.25769716
6.05,605,0.139,-0.841,-0.07400000000000001,4.8128472,102.559482,9.969469199999999,88.98610698,0.13178034,93.27756240000001
6.06,606,0.026,-0.7040000000000001,-0.009000000000000001,5.0993262,100.2103542,8.136003599999999,89.02621404,0.04010706,94.26877974
6.07,607,-0.049,-0.732,0.033,5.2139178,98.4914802,7.161975,89.06632110000002,-0.03437748,95.24280834
6.08,608,-0.064,-0.888,0.048,5.3285094000000015,94.6526616,6.6463128000000005,89.10642816,-0.10886202,96.18245946
6.09,609,-0.031,-1.055,0.064,4.297185,89.8971102,5.9014674000000005,89.13507606,-0.17761697999999998,97.07054436
6.1,610,0.031,-1.134,0.058,3.0366774,84.91237559999998,4.9274388,89.15799438,-0.23491278,97.91279262
6.11,611,0.099,-1.11,0.034,3.8388186,79.87034519999997,5.5003968,89.1809127,-0.29793816,98.70347466
6.12,612,0.141,-1.047,0.014,7.2192707999999985,74.771019,6.760904399999999,89.24393807999998,-0.37815228,99.44259048
6.13,613,0.158,-1.007,0.011,10.026765,68.98414319999999,6.875496000000001,89.32988178,-0.4526368200000001,100.13014008
6.14,614,0.16,-0.991,0.018000000000000002,11.3445684,63.1399716,5.5003968,89.43301421999998,-0.5156622000000001,100.7546643
6.15,615,0.14800000000000002,-0.979,0.021,12.4904844,57.58227899999999,2.7501984,89.54760582,-0.52712136,101.3276223
6.16,616,0.127,-0.972,0.031,13.980175199999998,52.998615,-0.4010706,89.67938615999998,-0.53285094,101.85474366
6.17,617,0.105,-0.97,0.037000000000000005,14.9542038,49.4462754,-2.3491278,89.81689608,-0.52139178,102.34175796
6.18,618,0.081,-0.968,0.039,15.985528200000001,47.0398518,-3.2085648,89.97159474,-0.4984734599999999,102.81158352
6.1899999999999995,619,0.055,-0.974,0.055,17.8189938,45.72204840000001,-3.380452200000001,90.14348214,-0.47555514,103.26422034
6.2,620,0.041,-0.987,0.067,18.334656,44.1750618,-2.9793816000000004,90.3268287,-0.44690724,103.70539800000002
6.21,621,0.037000000000000005,-1.001,0.08,18.2200644,41.825934,-2.4637194,90.50444568,-0.43544808,104.11792776
6.22,622,0.055,-1.014,0.08900000000000001,17.761698000000006,38.7319608,-2.1199446,90.67633308,-0.4297185000000001,104.5075392
6.2299999999999995,623,0.083,-1.029,0.08199999999999999,16.4438946,35.46610020000001,-2.0053530000000004,90.83676132,-0.42398892,104.85704357999998
6.24,624,0.105,-1.037,0.073,15.527161800000002,32.7159018,-2.3491278,90.9857304,-0.41252976,105.18362964
6.25,625,0.125,-1.035,0.07,15.183387000000002,29.793816,-2.9220857999999996,91.14042906,-0.36096354,105.4815678
6.26,626,0.141,-1.026,0.065,14.0947668,26.298772200000002,-3.3231564,91.27793898,-0.33804522,105.74512848
6.27,627,0.156,-1.012,0.048,11.9748222,22.631841,-3.151269,91.39826016,-0.31512690000000004,105.97431168
6.28,628,0.16399999999999998,-0.989,0.041,10.6570188,17.303331600000003,-2.3491278,91.5013926,-0.30366774,106.14619908
6.29,629,0.166,-0.97,0.046,10.0840608,11.8602306,-1.6042823999999998,91.60452504,-0.29220857999999994,106.26652026
6.3,630,0.162,-0.962,0.047,9.6256944,7.0473834,-0.7448454000000001,91.69619832,-0.15469866,106.3410048
6.31,631,0.156,-0.963,0.046,9.0527364,2.4064236,0.286479,91.78787159999999,-0.15469866,106.3696527
6.32,632,0.14300000000000002,-0.966,0.046,9.2819196,-1.7761698,1.2605076000000002,91.87954488,-0.16615782,106.35246396
6.33,633,0.122,-0.971,0.047,10.1413566,-4.8128472,1.8907613999999997,91.9884069,-0.18334656,106.30662732
6.34,634,0.094,-0.975,0.051,11.229976800000001,-6.760904399999999,2.4637194,92.1029985,-0.20053530000000008,106.23787236
6.35,635,0.07400000000000001,-0.975,0.057,12.4904844,-7.906820400000001,3.7815227999999994,92.22904926,-0.19480572,106.16338782
6.36,636,0.068,-0.968,0.045,13.0634424,-7.9641161999999985,6.3598338,92.36082960000002,-0.25210152,106.0831737
6.37,637,0.053,-0.97,0.006,12.9488508,-8.7089616,8.4224826,92.49833952,-0.33231564,105.99150042
6.38,638,0.042,-0.978,0.013,15.2979786,-9.9121734,9.3392154,92.65303818,-0.41252976,105.89409756
6.39,639,0.046,-0.994,0.003,16.157415599999997,-9.969469199999999,9.1100322,92.819196,-0.4984734599999999,105.79096511999998
6.4,640,0.03,-1.005,-0.026,15.469866,-11.172681,8.9381448,92.94524676,-0.56722842,105.67637352
6.41,641,-0.015,-1.034,-0.044,15.756345000000001,-13.6936962,8.7662574,93.105675,-0.64171296,105.5388636
6.42,642,-0.101,-1.108,-0.045,17.303331600000003,-15.813640800000002,6.417129599999999,93.28902156,-0.6875496,105.38416494
6.43,643,-0.221,-1.218,0.021,21.0848544,-13.0061466,0.5156622000000001,93.5067456,-0.68182002,105.25811417999998
6.4399999999999995,644,-0.255,-1.248,0.047,21.1421502,-0.2291832000000001,-9.568398599999998,93.71874006,-0.5844171599999999,105.26384376
6.45,645,-0.17,-1.142,0.019,19.308684600000007,9.1100322,-14.32395,93.89062746,-0.47555514,105.36124662
6.46,646,-0.058,-1.004,0.003,20.168121600000006,13.349921400000001,-14.2093584,94.09689233999998,-0.3437748,105.50448612
6.47,647,0.035,-0.899,0.002,19.2513888,12.891555,-11.172681,94.28596848,-0.24637194,105.64772562
6.4799999999999995,648,0.102,-0.8640000000000001,0.016,16.7876694,8.307891,-6.9327918,94.45785588,-0.18334656,105.73366932000002
6.49,649,0.124,-0.89,0.035,14.667724800000002,2.5210152000000003,-3.5523396000000003,94.60682496,-0.14896908,105.76231722
6.5,650,0.1,-0.946,0.067,13.8082878,-2.7501984,-1.6615782,94.73287572,-0.07448454,105.74512848
6.51,651,0.053,-1.007,0.09,12.318597,-5.3858052,-1.4896908000000002,94.85892648,-0.05156622,105.69356226
6.52,652,0.015,-1.053,0.097,9.9121734,-5.7868758000000025,-2.8074942000000003,94.96205892,-0.01718874,105.64199604
6.53,653,-0.015,-1.075,0.091,7.7922288,-5.443101,-4.010706000000001,95.04227304,0.02291832,105.59042981999998
6.54,654,-0.043,-1.064,0.085,6.016058999999999,-5.042030400000002,-4.5263682,95.09956884,0.07448454,105.54459318
6.55,655,-0.059,-1.037,0.083,4.3544808,-5.042030400000002,-3.9534102,95.12248716,0.06875496,105.49302696
6.56,656,-0.059,-1.007,0.081,3.8388186,-5.443101,-2.8074942000000003,95.16259422,0.10313244,105.44146074
6.57,657,-0.052000000000000005,-0.988,0.075,4.1825934,-6.0733548,-1.7761698,95.20270128,0.12605075999999998,105.38416494
6.58,658,-0.043,-0.986,0.07400000000000001,4.6409598,-6.875496000000001,-1.0313244,95.24853792,0.14323950000000002,105.32113956
6.59,659,-0.038,-1.003,0.08199999999999999,4.3544808,-7.9641161999999985,-0.4010706,95.29437456,0.16042824,105.24092544
6.6,660,-0.037000000000000005,-1.023,0.083,2.9793816000000004,-9.167328,0.0,95.29437456,0.13750992,105.14925216
6.61,661,-0.038,-1.036,0.083,2.291832,-8.9954406,0.0,95.32302246,0.14896908,105.06330846
6.62,662,-0.038,-1.036,0.08199999999999999,2.0053530000000004,-8.880849000000003,0.0,95.3402112,0.16042824,104.97163518
6.63,663,-0.039,-1.032,0.085,1.432395,-8.651665800000002,0.0,95.35739994,0.1718874,104.89142106
6.64,664,-0.039,-1.024,0.083,0.8594370000000001,-8.193299399999999,-0.1718874,95.3688591,0.18334656,104.81120694
6.65,665,-0.036000000000000004,-1.015,0.085,0.3437748,-7.9641161999999985,0.057295800000000015,95.32875204,0.14323950000000002,104.72526323999998
6.66,666,-0.033,-1.005,0.086,-0.2291832000000001,-7.9641161999999985,0.572958,95.32875204,0.14896908,104.64504912
6.67,667,-0.03,-0.999,0.08800000000000001,-0.9167328,-7.9641161999999985,1.432395,95.32302246,0.14323950000000002,104.564835
6.68,668,-0.028,-0.992,0.085,-1.5469866,-8.479778399999999,2.4637194,95.30583372,0.12605075999999998,104.4788913
6.6899999999999995,669,-0.03,-0.991,0.086,-1.5469866,-9.224623800000002,3.0939732,95.28864498,0.10886202,104.38721802
6.7,670,-0.033,-0.997,0.08900000000000001,-1.3750992,-9.797581800000001,3.3231564,95.25999708,0.06302537999999999,104.28408558
6.71,671,-0.036000000000000004,-1.005,0.096,-1.145916,-10.4851314,3.151269,95.24853792,0.04010706,104.18095314
6.72,672,-0.04,-1.013,0.101,-1.3178034,-11.229976800000001,3.0939732,95.23707876,0.02291832,104.06636154
6.7299999999999995,673,-0.04,-1.013,0.104,-2.1199446,-11.6310474,2.9220857999999996,95.21416044,0.00572958,103.94604036
6.74,674,-0.038,-1.009,0.099,-2.86479,-11.516455800000001,2.7501984,95.18551254,0.0,103.83144876
6.75,675,-0.031,-1.006,0.094,-2.9793816000000004,-11.2872726,2.578311,95.14540548,-0.03437748,103.71685716
6.76,676,-0.026,-1.003,0.08900000000000001,-2.4064236,-10.5424272,2.6356068,95.12248716,-0.04583664,103.60799514
6.77,677,-0.025,-0.995,0.08900000000000001,-1.2605076000000002,-10.4851314,2.9793816000000004,95.111028,-0.06302537999999999,103.50486270000002
