TimeStamp(s),FrameCounter,AccX,AccY,AccZ,GyrX,GyrY,GyrZ,EulerX,EulerY,EulerZ
0.01,1,0.003,-0.977,0.25,-0.11459160000000004,0.1718874,-0.3437748,103.08660336,0.62452422,-49.44627540000001
0.02,2,0.005,-0.978,0.252,-0.11459160000000004,0.572958,-0.3437748,103.08087378,0.6302538000000001,-49.44054582
0.03,3,0.005,-0.978,0.251,-0.11459160000000004,0.572958,-0.286479,103.08087378,0.6302538000000001,-49.42908666
0.04,4,0.004,-0.978,0.249,0.0,0.4583664000000001,-0.286479,103.08087378,0.6302538000000001,-49.42335708
0.05,5,0.004,-0.977,0.251,-0.057295800000000015,0.4583664000000001,-0.3437748,103.09233293999998,0.63598338,-49.4176275
0.060000000000000005,6,0.006,-0.978,0.251,0.057295800000000015,0.4583664000000001,-0.286479,103.09233293999998,0.63598338,-49.41189792
0.06999999999999999,7,0.006999999999999999,-0.982,0.251,0.0,0.40107059999999994,-0.1718874,103.09233293999998,0.63598338,-49.40616834
0.08,8,0.008,-0.9840000000000001,0.252,-0.057295800000000015,0.40107059999999994,-0.3437748,103.09233293999998,0.64171296,-49.40616834
0.09,9,0.006,-0.9840000000000001,0.25,-0.11459160000000004,0.3437748,-0.3437748,103.09233293999998,0.64171296,-49.40043876
0.09999999999999999,10,0.006,-0.983,0.249,-0.1718874,0.286479,-0.286479,103.09233293999998,0.64171296,-49.39470918
0.11,11,0.006,-0.983,0.25,-0.2291832000000001,0.2291832000000001,-0.2291832000000001,103.08660336,0.64171296,-49.39470918
0.12,12,0.006,-0.982,0.25,-0.286479,0.2291832000000001,-0.11459160000000004,103.08660336,0.64171296,-49.38897959999999
0.13,13,0.006999999999999999,-0.983,0.252,-0.40107059999999994,0.286479,-0.11459160000000004,103.08087378,0.64171296,-49.38325002
0.14,14,0.008,-0.983,0.251,-0.5156622000000001,0.4583664000000001,-0.11459160000000004,103.0751442,0.64171296,-49.38325002
0.15000000000000002,15,0.009000000000000001,-0.983,0.252,-0.572958,0.5156622000000001,0.0,103.0751442,0.65317212,-49.37752044
0.16,16,0.008,-0.98,0.253,-0.4583664000000001,0.1718874,0.0,103.06941462,0.65317212,-49.37179086
0.17,17,0.008,-0.98,0.252,-0.4583664000000001,0.057295800000000015,-0.057295800000000015,103.06368504,0.65317212,-49.37179086
0.18000000000000002,18,0.006,-0.98,0.252,-0.40107059999999994,0.11459160000000004,0.0,103.05795546,0.65317212,-49.37179086
0.19,19,0.006,-0.981,0.252,-0.40107059999999994,0.0,-0.057295800000000015,103.05795546,0.65317212,-49.37179086
0.2,20,0.006,-0.98,0.252,-0.3437748,0.0,0.0,103.0751442,0.66463128,-49.36606128
0.21000000000000002,21,0.008,-0.978,0.251,-0.3437748,-0.057295800000000015,0.0,103.0751442,0.66463128,-49.37179086
0.22,22,0.008,-0.978,0.252,-0.286479,-0.057295800000000015,0.0,103.06941462,0.66463128,-49.37179086
0.23,23,0.006999999999999999,-0.977,0.251,-0.286479,0.0,0.0,103.06368504,0.66463128,-49.37179086
0.24000000000000002,24,0.006,-0.976,0.252,-0.11459160000000004,-0.057295800000000015,-0.057295800000000015,103.06368504,0.66463128,-49.37179086
0.25,25,0.006,-0.975,0.252,0.0,-0.1718874,0.0,103.10379209999999,0.6589017,-49.36606128
0.26,26,0.004,-0.975,0.252,0.11459160000000004,-0.11459160000000004,0.0,103.10379209999999,0.6589017,-49.36606128
0.27,27,0.004,-0.976,0.251,0.286479,-0.1718874,0.11459160000000004,103.10952168,0.6589017,-49.37179086
0.28,28,0.004,-0.977,0.253,0.4583664000000001,-0.1718874,0.11459160000000004,103.11525126,0.6589017,-49.37179086
0.29000000000000004,29,0.005,-0.977,0.251,0.4583664000000001,-0.11459160000000004,0.11459160000000004,103.11525126,0.6589017,-49.37179086
0.3,30,0.004,-0.978,0.252,0.5156622000000001,-0.1718874,0.057295800000000015,103.13244,0.65317212,-49.37179086
0.31,31,0.005,-0.9790000000000001,0.252,0.40107059999999994,0.0,0.057295800000000015,103.13816958,0.65317212,-49.37752044
0.32,32,0.004,-0.9790000000000001,0.253,0.3437748,0.0,0.11459160000000004,103.13816958,0.65317212,-49.37752044
0.33,33,0.003,-0.981,0.25,0.4583664000000001,-0.11459160000000004,0.1718874,103.14389916,0.65317212,-49.37752044
0.34,34,0.002,-0.98,0.251,0.4583664000000001,-0.057295800000000015,0.2291832000000001,103.14962874,0.64744254,-49.37752044
0.35000000000000003,35,0.003,-0.982,0.25,0.4583664000000001,-0.057295800000000015,0.2291832000000001,103.15535832,0.64171296,-49.37752044
0.36000000000000004,36,0.002,-0.983,0.251,0.40107059999999994,0.0,0.11459160000000004,103.16108789999998,0.64171296,-49.37752044
0.37,37,0.003,-0.9840000000000001,0.252,0.3437748,0.0,0.11459160000000004,103.16108789999998,0.64171296,-49.37752044
0.38,38,0.004,-0.983,0.251,0.2291832000000001,0.0,0.057295800000000015,103.16681748,0.63598338,-49.37752044
0.39,39,0.003,-0.983,0.252,0.1718874,0.057295800000000015,0.057295800000000015,103.16681748,0.63598338,-49.37752044
0.4,40,0.002,-0.9840000000000001,0.251,0.057295800000000015,0.057295800000000015,0.11459160000000004,103.16681748,0.61879464,-49.37752044
0.41000000000000003,41,0.003,-0.981,0.25,0.0,0.0,0.1718874,103.17254706,0.61306506,-49.37752044
0.42000000000000004,42,0.003,-0.98,0.251,0.057295800000000015,0.0,0.0,103.17254706,0.61306506,-49.37752044
0.43,43,0.002,-0.9840000000000001,0.253,0.0,0.0,0.057295800000000015,103.17254706,0.61306506,-49.37752044
0.44,44,0.004,-0.9840000000000001,0.251,0.0,-0.1718874,0.0,103.17254706,0.61306506,-49.37752044
0.45,45,0.003,-0.982,0.252,-0.2291832000000001,0.0,-0.11459160000000004,103.16681748,0.61306506,-49.37752044
0.46,46,0.002,-0.977,0.251,-0.2291832000000001,0.2291832000000001,-0.2291832000000001,103.16108789999998,0.61306506,-49.37752044
0.47000000000000003,47,0.003,-0.975,0.25,-0.11459160000000004,0.572958,0.0,103.16108789999998,0.61306506,-49.37179086
0.48000000000000004,48,0.005,-0.976,0.249,-0.3437748,0.40107059999999994,0.057295800000000015,103.16108789999998,0.6073354799999999,-49.36606128
0.49,49,0.003,-0.977,0.251,-0.057295800000000015,0.0,-0.057295800000000015,103.15535832,0.6073354799999999,-49.36606128
0.5,50,0.004,-0.98,0.252,0.0,0.0,-0.2291832000000001,103.16681748,0.6073354799999999,-49.3603317
0.51,51,0.004,-0.9790000000000001,0.254,-0.11459160000000004,0.0,-0.1718874,103.16681748,0.6073354799999999,-49.3603317
0.52,52,0.004,-0.978,0.256,-0.11459160000000004,0.0,-0.057295800000000015,103.16681748,0.61306506,-49.3603317
0.53,53,0.005,-0.98,0.254,0.0,0.0,0.0,103.16681748,0.6073354799999999,-49.3603317
0.54,54,0.003,-0.983,0.254,0.0,-0.11459160000000004,0.11459160000000004,103.16681748,0.6073354799999999,-49.36606128
0.55,55,0.003,-0.983,0.253,-0.11459160000000004,0.0,0.0,103.19546538,0.5844171599999999,-49.35460212
0.56,56,0.006,-0.983,0.254,-0.11459160000000004,0.11459160000000004,0.057295800000000015,103.19546538,0.5844171599999999,-49.35460212
0.5700000000000001,57,0.009000000000000001,-0.98,0.256,-0.11459160000000004,0.0,0.057295800000000015,103.19546538,0.5844171599999999,-49.35460212
0.5800000000000001,58,0.01,-0.9790000000000001,0.255,-0.057295800000000015,-0.1718874,0.057295800000000015,103.18973580000002,0.5844171599999999,-49.3603317
0.59,59,0.009000000000000001,-0.98,0.255,-0.11459160000000004,-0.2291832000000001,0.0,103.18973580000002,0.5844171599999999,-49.3603317
0.6,60,0.006999999999999999,-0.9790000000000001,0.254,-0.11459160000000004,-0.3437748,0.0,103.19546538,0.59587632,-49.36606128
0.61,61,0.004,-0.9790000000000001,0.253,-0.057295800000000015,-0.4583664000000001,-0.057295800000000015,103.19546538,0.59587632,-49.37179086
0.62,62,0.003,-0.978,0.252,0.0,-0.572958,-0.11459160000000004,103.19546538,0.6016058999999999,-49.37179086
0.63,63,0.003,-0.977,0.253,0.0,-0.5156622000000001,-0.1718874,103.19546538,0.6016058999999999,-49.37752044
0.64,64,0.002,-0.977,0.254,0.0,-0.3437748,-0.2291832000000001,103.19546538,0.6073354799999999,-49.38325002
0.65,65,0.003,-0.977,0.253,0.0,-0.057295800000000015,-0.3437748,103.20119496,0.6016058999999999,-49.38325002
0.66,66,0.003,-0.977,0.252,0.0,0.0,-0.3437748,103.20119496,0.6016058999999999,-49.37752044
0.67,67,0.005,-0.977,0.25,0.1718874,0.057295800000000015,-0.2291832000000001,103.20119496,0.6073354799999999,-49.37752044
0.68,68,0.006,-0.977,0.25,0.286479,0.0,-0.11459160000000004,103.20692454,0.6073354799999999,-49.37752044
0.6900000000000001,69,0.006,-0.978,0.249,0.3437748,-0.2291832000000001,-0.057295800000000015,103.20692454,0.6073354799999999,-49.37752044
0.7000000000000001,70,0.004,-0.9790000000000001,0.25,0.286479,-0.4583664000000001,0.0,103.20692454,0.6073354799999999,-49.38325002
0.7100000000000001,71,0.002,-0.977,0.249,0.3437748,-0.6302538000000001,-0.057295800000000015,103.20692454,0.6073354799999999,-49.38897959999999
0.72,72,0.006,-0.9790000000000001,0.249,0.40107059999999994,-0.4583664000000001,-0.11459160000000004,103.21265412,0.61306506,-49.39470918
0.73,73,0.003,-0.982,0.251,0.286479,-0.11459160000000004,-0.057295800000000015,103.2183837,0.61306506,-49.39470918
0.74,74,0.004,-0.9840000000000001,0.251,0.1718874,0.0,-0.057295800000000015,103.2183837,0.61306506,-49.39470918
0.75,75,0.006,-0.985,0.251,0.2291832000000001,-0.057295800000000015,0.0,103.2183837,0.62452422,-49.40043876
0.76,76,0.005,-0.9840000000000001,0.25,0.0,-0.1718874,0.11459160000000004,103.2183837,0.61879464,-49.40043876
0.77,77,0.004,-0.9840000000000001,0.251,0.0,-0.2291832000000001,0.11459160000000004,103.2183837,0.61879464,-49.40616834
0.78,78,0.004,-0.985,0.251,-0.11459160000000004,-0.1718874,0.057295800000000015,103.2183837,0.61879464,-49.40616834
0.79,79,0.004,-0.985,0.251,-0.2291832000000001,-0.1718874,0.0,103.21265412,0.61879464,-49.40616834
0.8,80,0.005,-0.9840000000000001,0.253,-0.2291832000000001,-0.1718874,0.0,103.2183837,0.62452422,-49.40616834
0.81,81,0.005,-0.982,0.252,-0.3437748,-0.11459160000000004,0.0,103.21265412,0.62452422,-49.41189792
0.8200000000000001,82,0.006,-0.98,0.251,-0.286479,-0.11459160000000004,0.0,103.21265412,0.62452422,-49.41189792
0.8300000000000001,83,0.005,-0.978,0.251,-0.286479,-0.11459160000000004,0.0,103.20692454,0.62452422,-49.41189792
0.8400000000000001,84,0.004,-0.977,0.25,-0.286479,-0.2291832000000001,0.057295800000000015,103.20692454,0.62452422,-49.4176275
0.85,85,0.005,-0.976,0.251,-0.2291832000000001,-0.1718874,0.0,103.20692454,0.62452422,-49.4176275
0.86,86,0.005,-0.977,0.251,-0.1718874,-0.057295800000000015,0.0,103.20692454,0.62452422,-49.4176275
0.87,87,0.005,-0.976,0.251,-0.11459160000000004,0.0,0.0,103.20692454,0.62452422,-49.4176275
0.88,88,0.005,-0.977,0.253,0.0,0.0,0.057295800000000015,103.20692454,0.62452422,-49.4176275
0.89,89,0.005,-0.976,0.252,0.0,0.0,0.0,103.20692454,0.62452422,-49.4176275
0.9,90,0.004,-0.976,0.253,0.0,0.0,0.0,103.22984286,0.61306506,-49.4176275
0.91,91,0.004,-0.976,0.252,0.0,0.057295800000000015,0.0,103.22984286,0.61306506,-49.4176275
0.92,92,0.005,-0.977,0.251,0.11459160000000004,0.0,0.0,103.22984286,0.61306506,-49.4176275
0.93,93,0.004,-0.978,0.253,0.2291832000000001,-0.057295800000000015,0.0,103.23557244,0.61306506,-49.4176275
0.9400000000000001,94,0.004,-0.978,0.254,0.2291832000000001,-0.11459160000000004,0.0,103.23557244,0.61306506,-49.4176275
0.9500000000000001,95,0.004,-0.9790000000000001,0.252,0.286479,-0.1718874,0.11459160000000004,103.2470316,0.61306506,-49.4176275
0.9600000000000001,96,0.004,-0.981,0.253,0.2291832000000001,-0.057295800000000015,0.11459160000000004,103.2470316,0.6073354799999999,-49.4176275
0.97,97,0.003,-0.981,0.253,0.1718874,0.0,0.11459160000000004,103.2470316,0.6073354799999999,-49.42335708
0.98,98,0.004,-0.98,0.252,0.11459160000000004,-0.057295800000000015,0.11459160000000004,103.25276118,0.6073354799999999,-49.42335708
0.99,99,0.003,-0.982,0.252,0.11459160000000004,-0.057295800000000015,0.057295800000000015,103.25276118,0.6073354799999999,-49.42335708
1.0,100,0.002,-0.982,0.252,0.057295800000000015,0.0,0.0,103.26994992,0.5729580000000001,-49.4176275
1.01,101,0.002,-0.98,0.253,0.0,0.057295800000000015,0.0,103.26994992,0.5729580000000001,-49.4176275
1.02,102,0.001,-0.981,0.252,0.0,0.057295800000000015,0.0,103.26994992,0.5729580000000001,-49.4176275
1.03,103,0.003,-0.98,0.252,0.0,0.1718874,0.0,103.26994992,0.56722842,-49.4176275
1.04,104,0.005,-0.981,0.252,0.0,0.11459160000000004,0.0,103.26994992,0.56722842,-49.41189792
1.05,105,0.005,-0.9790000000000001,0.252,-0.1718874,0.057295800000000015,0.057295800000000015,103.26994992,0.5786875800000001,-49.41189792
1.06,106,0.006,-0.98,0.252,-0.1718874,0.057295800000000015,0.057295800000000015,103.26994992,0.5729580000000001,-49.41189792
1.07,107,0.005,-0.981,0.252,-0.1718874,0.0,0.11459160000000004,103.26994992,0.5729580000000001,-49.4176275
1.08,108,0.004,-0.983,0.252,-0.057295800000000015,-0.11459160000000004,0.0,103.26422034,0.5729580000000001,-49.4176275
1.09,109,0.003,-0.982,0.251,-0.2291832000000001,0.0,0.0,103.26422034,0.5729580000000001,-49.4176275
1.1,110,0.002,-0.976,0.251,-0.2291832000000001,0.3437748,-0.11459160000000004,103.26422034,0.56722842,-49.41189792
1.11,111,0.005,-0.977,0.249,-0.286479,0.572958,-0.057295800000000015,103.25849076,0.56722842,-49.40616834
1.12,112,0.006999999999999999,-0.977,0.248,-0.2291832000000001,0.40107059999999994,0.0,103.25849076,0.56722842,-49.40043876
1.1300000000000001,113,0.006999999999999999,-0.9790000000000001,0.249,-0.11459160000000004,0.11459160000000004,-0.11459160000000004,103.25276118,0.56722842,-49.40043876
1.1400000000000001,114,0.006999999999999999,-0.981,0.249,0.0,0.0,-0.057295800000000015,103.25276118,0.56722842,-49.40043876
1.1500000000000001,115,0.006,-0.982,0.251,-0.1718874,0.0,-0.057295800000000015,103.25849076,0.5786875800000001,-49.40043876
1.1600000000000001,116,0.005,-0.981,0.253,-0.286479,0.0,0.0,103.25276118,0.5786875800000001,-49.40043876
1.17,117,0.004,-0.9790000000000001,0.25,0.0,-0.11459160000000004,0.11459160000000004,103.25276118,0.5786875800000001,-49.40043876
1.18,118,0.003,-0.981,0.252,-0.1718874,-0.286479,0.2291832000000001,103.25276118,0.5729580000000001,-49.40616834
1.19,119,0.002,-0.9840000000000001,0.254,-0.1718874,-0.057295800000000015,0.11459160000000004,103.2470316,0.5729580000000001,-49.40616834
1.2,120,0.004,-0.986,0.255,-0.2291832000000001,0.0,0.0,103.25276118,0.5786875800000001,-49.40616834
1.21,121,0.006999999999999999,-0.983,0.253,-0.3437748,0.057295800000000015,-0.11459160000000004,103.2470316,0.5786875800000001,-49.40616834
1.22,122,0.006999999999999999,-0.98,0.254,-0.286479,-0.11459160000000004,-0.057295800000000015,103.2470316,0.5786875800000001,-49.40616834
1.23,123,0.006,-0.98,0.253,-0.11459160000000004,-0.2291832000000001,-0.057295800000000015,103.24130202,0.5844171599999999,-49.40616834
1.24,124,0.004,-0.9790000000000001,0.252,-0.2291832000000001,-0.4583664000000001,0.0,103.24130202,0.5844171599999999,-49.41189792
1.25,125,0.004,-0.977,0.253,-0.1718874,-0.572958,0.0,103.2470316,0.5844171599999999,-49.4176275
1.26,126,0.004,-0.976,0.253,-0.11459160000000004,-0.7448454000000001,0.0,103.24130202,0.59014674,-49.42335708
1.27,127,0.004,-0.975,0.252,0.0,-0.6875496,-0.057295800000000015,103.24130202,0.59014674,-49.43481624
1.28,128,0.002,-0.975,0.253,0.1718874,-0.572958,0.0,103.2470316,0.59014674,-49.44054582
1.29,129,0.002,-0.975,0.254,0.286479,-0.40107059999999994,-0.11459160000000004,103.2470316,0.59587632,-49.44054582
1.3,130,0.002,-0.975,0.251,0.40107059999999994,-0.286479,-0.11459160000000004,103.25849076,0.59587632,-49.44627540000001
1.31,131,0.004,-0.976,0.25,0.6302538000000001,-0.40107059999999994,-0.057295800000000015,103.26422034,0.59587632,-49.44627540000001
1.32,132,0.005,-0.977,0.25,0.7448454000000001,-0.4583664000000001,-0.11459160000000004,103.26994992,0.59587632,-49.45200498000001
1.33,133,0.005,-0.978,0.248,0.8594370000000001,-0.6875496,0.0,103.28140908,0.6016058999999999,-49.45773456
1.34,134,0.004,-0.9790000000000001,0.249,0.8021411999999999,-0.8021411999999999,-0.11459160000000004,103.28713866,0.6016058999999999,-49.46346414
1.35,135,0.004,-0.978,0.25,0.8594370000000001,-0.8021411999999999,-0.1718874,103.29859782,0.6073354799999999,-49.47492329999999
1.36,136,0.004,-0.982,0.249,0.9167328000000001,-0.6875496,-0.1718874,103.3043274,0.61306506,-49.48065288
1.37,137,0.004,-0.9840000000000001,0.251,0.8021411999999999,-0.6302538000000001,-0.2291832000000001,103.31578656,0.61879464,-49.48638246
1.3800000000000001,138,0.005,-0.986,0.251,0.6302538000000001,-0.5156622000000001,-0.11459160000000004,103.32151614,0.61879464,-49.49211204
1.3900000000000001,139,0.006,-0.985,0.25,0.4583664000000001,-0.40107059999999994,-0.057295800000000015,103.32724572,0.61879464,-49.49211204
1.4000000000000001,140,0.006,-0.9840000000000001,0.251,0.3437748,-0.6875496,-0.057295800000000015,103.32724572,0.62452422,-49.49784162
1.4100000000000001,141,0.006,-0.985,0.252,0.286479,-0.9167328000000001,-0.11459160000000004,103.32724572,0.6302538000000001,-49.50930078
1.42,142,0.006,-0.986,0.253,0.1718874,-0.8021411999999999,-0.1718874,103.3329753,0.63598338,-49.51503036
1.43,143,0.006999999999999999,-0.986,0.255,0.0,-0.6302538000000001,-0.057295800000000015,103.3329753,0.63598338,-49.52075994000001
1.44,144,0.006999999999999999,-0.985,0.254,-0.2291832000000001,-0.4583664000000001,-0.11459160000000004,103.32724572,0.64171296,-49.52648952
1.45,145,0.006,-0.982,0.255,-0.286479,-0.2291832000000001,-0.1718874,103.32724572,0.64744254,-49.5322191
1.46,146,0.006999999999999999,-0.981,0.254,-0.2291832000000001,-0.40107059999999994,-0.1718874,103.32724572,0.64744254,-49.5322191
1.47,147,0.006,-0.9790000000000001,0.254,-0.1718874,-0.40107059999999994,-0.1718874,103.32724572,0.65317212,-49.53794868000001
1.48,148,0.006,-0.978,0.252,-0.2291832000000001,-0.3437748,-0.057295800000000015,103.32151614,0.65317212,-49.53794868000001
1.49,149,0.008,-0.976,0.254,-0.1718874,-0.4583664000000001,-0.11459160000000004,103.32151614,0.6589017,-49.54367826
1.5,150,0.006999999999999999,-0.975,0.252,-0.1718874,-0.286479,-0.1718874,103.32151614,0.66463128,-49.54940784
1.51,151,0.006999999999999999,-0.976,0.253,0.0,-0.3437748,-0.1718874,103.32151614,0.66463128,-49.54940784
1.52,152,0.005,-0.975,0.253,0.0,-0.3437748,-0.1718874,103.32151614,0.6703608600000001,-49.55513742
1.53,153,0.006,-0.975,0.252,0.057295800000000015,-0.057295800000000015,-0.057295800000000015,103.32151614,0.6703608600000001,-49.55513742
1.54,154,0.006,-0.975,0.253,0.1718874,-0.11459160000000004,-0.11459160000000004,103.32151614,0.6703608600000001,-49.55513742
1.55,155,0.006999999999999999,-0.976,0.253,0.2291832000000001,-0.11459160000000004,-0.11459160000000004,103.32724572,0.68182002,-49.55513742
1.56,156,0.008,-0.977,0.254,0.11459160000000004,0.0,0.0,103.3329753,0.68182002,-49.55513742
1.57,157,0.006,-0.978,0.254,0.1718874,0.0,0.0,103.3329753,0.68182002,-49.55513742
1.58,158,0.006,-0.978,0.253,0.1718874,0.057295800000000015,-0.057295800000000015,103.3329753,0.68182002,-49.55513742
1.59,159,0.005,-0.981,0.254,0.2291832000000001,0.057295800000000015,-0.057295800000000015,103.33870488,0.68182002,-49.55513742
1.6,160,0.006,-0.981,0.252,0.1718874,0.1718874,0.0,103.3329753,0.6875496,-49.54940784
1.61,161,0.006,-0.981,0.253,0.1718874,0.11459160000000004,0.0,103.3329753,0.68182002,-49.54940784
1.62,162,0.005,-0.981,0.253,0.1718874,0.0,0.0,103.33870488,0.68182002,-49.54940784
1.6300000000000001,163,0.006999999999999999,-0.981,0.253,0.0,0.0,0.11459160000000004,103.33870488,0.68182002,-49.54940784
1.6400000000000001,164,0.006,-0.981,0.252,-0.057295800000000015,0.0,0.11459160000000004,103.33870488,0.68182002,-49.54940784
1.6500000000000001,165,0.006,-0.981,0.253,0.0,0.0,0.11459160000000004,103.34443446,0.6875496,-49.54940784
1.6600000000000001,166,0.006,-0.982,0.253,-0.057295800000000015,0.0,0.057295800000000015,103.34443446,0.68182002,-49.54940784
1.6700000000000002,167,0.006999999999999999,-0.981,0.254,-0.1718874,0.1718874,0.11459160000000004,103.34443446,0.68182002,-49.54940784
1.68,168,0.008,-0.982,0.256,-0.2291832000000001,0.057295800000000015,0.2291832000000001,103.33870488,0.68182002,-49.54940784
1.69,169,0.006,-0.981,0.255,-0.40107059999999994,0.11459160000000004,0.2291832000000001,103.3329753,0.67609044,-49.54940784
1.7,170,0.006999999999999999,-0.98,0.254,-0.5156622000000001,0.057295800000000015,0.11459160000000004,103.3329753,0.68182002,-49.54940784
1.71,171,0.01,-0.9790000000000001,0.252,-0.4583664000000001,0.1718874,0.1718874,103.32724572,0.68182002,-49.54940784
1.72,172,0.008,-0.981,0.252,-0.40107059999999994,0.057295800000000015,0.11459160000000004,103.32151614,0.67609044,-49.54940784
1.73,173,0.008,-0.982,0.251,-0.2291832000000001,0.057295800000000015,0.057295800000000015,103.32151614,0.67609044,-49.54367826
1.74,174,0.005,-0.98,0.251,-0.286479,0.2291832000000001,0.057295800000000015,103.31578656,0.67609044,-49.54367826
1.75,175,0.003,-0.975,0.249,-0.286479,0.5156622000000001,0.057295800000000015,103.31005697999998,0.6703608600000001,-49.53794868000001
1.76,176,0.006,-0.973,0.248,-0.057295800000000015,0.572958,0.2291832000000001,103.31005697999998,0.66463128,-49.5322191
1.77,177,0.01,-0.975,0.251,-0.11459160000000004,0.4583664000000001,0.286479,103.3043274,0.6589017,-49.5322191
1.78,178,0.011000000000000001,-0.981,0.252,-0.057295800000000015,0.1718874,0.2291832000000001,103.3043274,0.6589017,-49.5322191
1.79,179,0.009000000000000001,-0.985,0.253,-0.057295800000000015,0.11459160000000004,0.11459160000000004,103.3043274,0.65317212,-49.52648952
1.8,180,0.006999999999999999,-0.985,0.255,-0.3437748,0.1718874,0.286479,103.3043274,0.65317212,-49.52648952
1.81,181,0.002,-0.982,0.255,-0.572958,0.0,0.286479,103.29859782,0.64744254,-49.52648952
1.82,182,0.002,-0.98,0.256,-0.3437748,-0.1718874,0.286479,103.29286824,0.64744254,-49.5322191
1.83,183,0.003,-0.983,0.257,-0.5156622000000001,-0.286479,0.286479,103.28713866,0.64171296,-49.5322191
1.84,184,0.008,-0.9840000000000001,0.259,-0.8594370000000001,0.0,0.2291832000000001,103.27567950000001,0.64171296,-49.5322191
1.85,185,0.012,-0.985,0.258,-1.0886202,0.3437748,0.0,103.27567950000001,0.64744254,-49.5322191
1.86,186,0.013000000000000001,-0.983,0.256,-1.145916,0.4583664000000001,0.0,103.25849076,0.64744254,-49.52648952
1.87,187,0.011000000000000001,-0.98,0.255,-1.2032118,0.4583664000000001,0.0,103.2470316,0.64744254,-49.52075994000001
1.8800000000000001,188,0.005,-0.9790000000000001,0.255,-1.145916,0.5156622000000001,0.0,103.23557244,0.64744254,-49.51503036
1.8900000000000001,189,0.004,-0.9790000000000001,0.254,-1.0886202,0.2291832000000001,-0.057295800000000015,103.22411327999998,0.64744254,-49.51503036
1.9000000000000001,190,0.004,-0.977,0.255,-1.145916,0.1718874,-0.11459160000000004,103.22411327999998,0.64744254,-49.51503036
1.9100000000000001,191,0.003,-0.9740000000000001,0.257,-0.9740286,0.2291832000000001,-0.11459160000000004,103.21265412,0.64744254,-49.50930078
1.9200000000000002,192,0.005,-0.973,0.261,-0.9167328000000001,0.40107059999999994,-0.3437748,103.20119496,0.64744254,-49.5035712
1.93,193,0.009000000000000001,-0.977,0.261,-0.9167328000000001,1.145916,-0.572958,103.18973580000002,0.65317212,-49.49211204
1.94,194,0.008,-0.982,0.254,-1.6042823999999998,1.432395,-0.7448454000000001,103.17254706,0.65317212,-49.47492329999999
1.95,195,0.003,-0.985,0.24600000000000002,-2.0626488000000003,1.2032118,-0.6875496,103.14962874,0.65317212,-49.46346414
1.96,196,0.0,-0.988,0.244,-2.0626488000000003,0.6875496,-0.4583664000000001,103.12671042,0.6589017,-49.45773456
1.97,197,0.003,-0.987,0.247,-1.7188740000000002,0.11459160000000004,-0.3437748,103.10952168,0.66463128,-49.45200498000001
1.98,198,0.006999999999999999,-0.987,0.25,-1.6042823999999998,-0.057295800000000015,-0.40107059999999994,103.09233293999998,0.66463128,-49.45200498000001
1.99,199,0.01,-0.986,0.255,-1.7188740000000002,-0.057295800000000015,-0.5156622000000001,103.0751442,0.6703608600000001,-49.45200498000001
2.0,200,0.009000000000000001,-0.986,0.257,-2.0053530000000004,0.11459160000000004,-0.6302538000000001,103.05795546,0.68182002,-49.45200498000001
2.01,201,0.006999999999999999,-0.987,0.256,-2.3491277999999998,0.286479,-0.572958,103.03503714,0.68182002,-49.44627540000001
2.02,202,0.003,-0.986,0.258,-2.4637194,0.286479,-0.4583664000000001,103.01211882,0.6875496,-49.44054582
2.03,203,0.005,-0.9840000000000001,0.259,-2.5783110000000002,0.4583664000000001,-0.4583664000000001,102.98347092,0.69327918,-49.44054582
2.04,204,0.008,-0.985,0.257,-2.86479,0.5156622000000001,-0.572958,102.95482302,0.69327918,-49.42908666
2.05,205,0.006999999999999999,-0.9890000000000001,0.256,-3.2085647999999996,0.3437748,-0.572958,102.92617512,0.69900876,-49.42908666
2.0599999999999996,206,0.006,-0.991,0.253,-3.6096353999999997,0.1718874,-0.572958,102.89179763999998,0.70473834,-49.42335708
2.07,207,0.008,-0.995,0.25,-4.0680017999999984,0.40107059999999994,-0.572958,102.845961,0.7104679199999999,-49.4176275
2.0799999999999996,208,0.009000000000000001,-0.995,0.253,-4.6409598,0.6302538000000001,-0.7448454000000001,102.80012436,0.7161975,-49.41189792
2.09,209,0.009000000000000001,-0.993,0.255,-4.6982555999999995,0.5156622000000001,-0.8594370000000001,102.75428772,0.72192708,-49.40616834
2.0999999999999996,210,0.006999999999999999,-0.99,0.254,-5.0993262,0.6302538000000001,-0.8021411999999999,102.7027215,0.72765666,-49.40043876
2.11,211,0.008,-0.9890000000000001,0.254,-5.5003968,0.7448454000000001,-0.8594370000000001,102.6454257,0.73338624,-49.38897959999999
2.1199999999999997,212,0.006,-0.988,0.255,-5.7868758000000025,0.7448454000000001,-0.8021411999999999,102.5881299,0.7448454000000001,-49.38325002
2.13,213,0.006,-0.986,0.259,-5.958763200000001,0.6302538000000001,-0.8021411999999999,102.52510452,0.75057498,-49.37179086
2.1399999999999997,214,0.01,-0.986,0.26,-6.130650599999999,0.6302538000000001,-0.8594370000000001,102.46207914,0.75630456,-49.36606128
2.15,215,0.009000000000000001,-0.986,0.263,-6.417129599999999,0.5156622000000001,-0.8021411999999999,102.40478334000002,0.76203414,-49.3603317
2.1599999999999997,216,0.009000000000000001,-0.9890000000000001,0.26,-6.990087599999999,0.5156622000000001,-0.9167328000000001,102.33602838,0.76776372,-49.35460212
2.17,217,0.009000000000000001,-0.993,0.259,-7.5057497999999985,0.6875496,-0.9740286,102.26154384,0.7792228800000001,-49.34314296
2.1799999999999997,218,0.011000000000000001,-0.998,0.255,-8.136003599999999,0.9167328000000001,-0.9740286,102.17560014,0.7849524600000001,-49.33741338
2.19,219,0.012,-1.001,0.256,-8.7089616,0.8594370000000001,-0.8594370000000001,102.08965644,0.7906820400000001,-49.32595422
2.1999999999999997,220,0.013999999999999999,-1.003,0.259,-9.167328,0.8021411999999999,-0.9167328000000001,101.99798316,0.79641162,-49.31449506
2.21,221,0.013000000000000001,-1.004,0.257,-9.682990199999999,0.8594370000000001,-1.0313244000000001,101.9005803,0.8078707799999998,-49.30876548
2.2199999999999998,222,0.01,-1.006,0.258,-10.313244000000001,0.8021411999999999,-1.0313244000000001,101.79744786,0.8136003599999999,-49.29730632
2.23,223,0.009000000000000001,-1.0090000000000001,0.262,-11.172680999999999,0.4583664000000001,-1.2605076000000002,101.68285626,0.8250595199999999,-49.29157674
2.2399999999999998,224,0.009000000000000001,-1.01,0.26899999999999996,-12.834259199999998,-0.40107059999999994,-1.4896908000000002,101.55107592,0.8422482600000001,-49.29730632
2.25,225,0.011000000000000001,-1.011,0.27,-14.896907999999998,-0.9740286,-1.8334656000000005,101.40783642,0.8594370000000001,-49.30303590000001
2.26,226,0.011000000000000001,-1.014,0.27,-16.386598799999998,-1.2032118,-2.1199446,101.2416786,0.8823553199999999,-49.31449506
2.27,227,0.009000000000000001,-1.016,0.27699999999999997,-17.761698000000006,-1.5469866,-2.2345362,101.05833204,0.90527364,-49.32595422
2.28,228,0.012,-1.0170000000000001,0.27899999999999997,-18.793022399999998,-1.6615782,-2.1772404,100.8692559,0.92819196,-49.34314296
2.29,229,0.013999999999999999,-1.02,0.268,-19.8243468,-1.7761698000000001,-2.0053530000000004,100.66872059999999,0.95111028,-49.35460212
2.3,230,0.011000000000000001,-1.023,0.263,-20.7983754,-2.2345362,-1.6615782,100.46245572,0.9740286,-49.37752044
2.31,231,0.01,-1.026,0.271,-22.2307704,-3.1512689999999997,-1.6042823999999998,100.23327252,0.9912173399999998,-49.40616834
2.32,232,0.012,-1.028,0.276,-24.2361234,-3.6669312000000014,-1.7761698000000001,99.98690058,1.01986524,-49.44627540000001
2.3299999999999996,233,0.016,-1.0270000000000001,0.257,-26.0122932,-4.297185,-2.1772404,99.7233399,1.04278356,-49.48638246
2.34,234,0.01,-1.025,0.26,-27.215505,-4.1252976000000015,-2.4637194,99.44832006,1.07716104,-49.52648952
2.3499999999999996,235,0.005,-1.025,0.276,-28.934378999999996,-3.2658606,-2.9220858,99.15611148,1.11153852,-49.55513742
2.36,236,0.006,-1.023,0.28,-30.252182399999995,-2.1772404,-3.4377480000000005,98.85244374,1.1459160000000002,-49.57232616
2.3699999999999997,237,0.016,-1.018,0.26899999999999996,-31.1689152,-0.9167328000000001,-3.8388186,98.53731684,1.18029348,-49.58378532
2.38,238,0.022000000000000002,-1.014,0.249,-30.8251404,0.1718874,-3.6096353999999997,98.22218994,1.21467096,-49.57805574
2.3899999999999997,239,0.02,-1.0290000000000001,0.228,-31.741873200000004,0.6875496,-3.380452200000001,97.90133346,1.24904844,-49.57232616
2.4,240,0.02,-1.042,0.21899999999999997,-34.262888399999994,1.0886202,-3.3231564,97.55182908,1.27769634,-49.560867
2.4099999999999997,241,0.017,-1.044,0.222,-37.41415739999999,1.2605076000000002,-3.3231564,97.1736768,1.30634424,-49.54940784
2.42,242,0.013999999999999999,-1.04,0.22399999999999998,-38.961144,1.8907614,-3.2658606,96.77833578,1.32926256,-49.52648952
2.4299999999999997,243,0.012,-1.034,0.221,-39.47680620000001,3.0366774,-3.3231564,96.37726518,1.3579104599999998,-49.49784162
2.44,244,0.008,-1.026,0.207,-39.247623,3.3231564,-3.2658606,95.98192416,1.38082878,-49.46919372000001
2.4499999999999997,245,0.011000000000000001,-1.016,0.19899999999999998,-39.19032720000001,2.2345362,-3.3231564,95.58658314,1.40947668,-49.44627540000001
2.46,246,0.013999999999999999,-1.015,0.198,-40.04976420000001,0.8021411999999999,-3.6096353999999997,95.17978295999998,1.44385416,-49.44054582
2.4699999999999998,247,0.009000000000000001,-1.02,0.20199999999999999,-40.4508348,0.3437748,-3.9534102,94.7672532,1.4782316400000002,-49.44054582
2.48,248,0.009000000000000001,-1.031,0.212,-40.6227222,2.0053530000000004,-4.583664,94.35472344,1.5183387000000002,-49.4176275
2.4899999999999998,249,0.006,-1.041,0.215,-43.9458786,4.6409598,-4.9847346,93.91354578,1.55844576,-49.37752044
2.5,250,0.004,-1.0390000000000001,0.17800000000000002,-46.8679644,7.5057497999999985,-5.2139178,93.43799064,1.59855282,-49.30303590000001
2.51,251,0.015,-1.044,0.136,-48.3576552,9.9694692,-5.5576926,92.95097633999998,1.64438946,-49.20563304
2.52,252,0.022000000000000002,-1.046,0.13,-50.6494872,10.4278356,-5.844171599999999,92.44104372,1.6902260999999998,-49.10823018
2.53,253,0.02,-1.0390000000000001,0.14,-51.3943326,9.1100322,-5.958763200000001,91.91965194,1.74179232,-49.02228648
2.54,254,0.013999999999999999,-1.0270000000000001,0.147,-51.56622,8.8235532,-6.417129599999999,91.39826016,1.7933585399999998,-48.93634278
2.55,255,0.011000000000000001,-1.02,0.158,-52.5975444,8.7089616,-6.9327918,90.86540922,1.85638392,-48.85612866
2.56,256,0.006999999999999999,-1.015,0.14400000000000002,-53.9726436,8.479778399999999,-7.0473834,90.32109912,1.9194093000000003,-48.77591454
2.57,257,0.004,-1.025,0.134,-55.92070079999999,7.734933000000002,-7.448453999999999,89.75387070000002,1.98816426,-48.70715958
2.5799999999999996,258,0.004,-1.0390000000000001,0.132,-59.24385720000001,7.3911582,-8.250595200000001,89.1522648,2.0626488000000003,-48.63840462
2.59,259,0.016,-1.052,0.10800000000000001,-62.2805346,9.6256944,-8.9381448,88.52201099999998,2.14286292,-48.55246092
2.5999999999999996,260,0.035,-1.056,0.076,-65.2599162,12.4331886,-8.7662574,87.86883888,2.22880662,-48.43786932
2.61,261,0.051,-1.042,0.037000000000000005,-68.52577679999999,13.2926256,-8.250595200000001,87.17555970000002,2.30329116,-48.31754814
2.6199999999999997,262,0.037000000000000005,-1.035,0.017,-69.6716928,11.5164558,-7.6776372,86.47082136,2.3777757,-48.2144157
2.63,263,0.02,-1.0290000000000001,0.02,-70.87490460000002,9.0527364,-7.6776372,85.74889427999999,2.45226024,-48.13993116
2.6399999999999997,264,0.016,-1.026,0.012,-71.5624542,8.136003599999999,-8.078707799999998,85.0269672,2.53247436,-48.0711762
2.65,265,0.02,-1.004,0.001,-73.2240324,7.8495246,-8.5370742,84.28785138,2.61268848,-48.00815082
2.6599999999999997,266,0.021,-0.982,-0.001,-74.65642740000001,6.3598338,-8.7662574,83.53154682,2.69863218,-47.96231418000001
2.67,267,0.021,-0.978,-0.023,-77.0055552,5.1566220000000005,-9.1100322,82.75232394,2.78457588,-47.93366628
2.6799999999999997,268,0.038,-0.986,-0.06,-79.1254998,4.9274388,-9.568398599999998,81.94445316,2.87624916,-47.90501838
2.69,269,0.063,-0.998,-0.091,-82.04758559999998,3.9534102,-9.568398599999998,81.11366405999998,2.96792244,-47.88782964
2.6999999999999997,270,0.07200000000000001,-0.9940000000000001,-0.1,-84.11023440000002,2.5783110000000002,-9.224623800000002,80.25995664,3.05386614,-47.88210005999999
2.71,271,0.066,-0.981,-0.083,-85.77181259999998,1.6042823999999998,-8.479778399999999,79.38906048,3.13408026,-47.89355922
2.7199999999999998,272,0.07,-0.961,-0.109,-86.23017899999998,1.8334656000000005,-7.2765666,78.51243473999997,3.19710564,-47.89355922
2.73,273,0.07400000000000001,-0.9470000000000001,-0.127,-85.8864042,1.0886202,-6.4744254,77.64153858,3.25440144,-47.90501838
2.7399999999999998,274,0.063,-0.95,-0.095,-86.63124959999998,-0.8594370000000001,-7.1046792000000005,76.75918326,3.3116972399999995,-47.93939586000001
2.75,275,0.057999999999999996,-0.973,-0.127,-87.94905299999998,-0.4583664000000001,-8.136003599999999,75.87109836,3.380452200000001,-47.96804376
2.76,276,0.073,-1.001,-0.133,-88.69389840000002,-0.572958,-8.307891,74.96582472,3.4492071599999994,-48.00242124
2.77,277,0.094,-1.032,-0.132,-91.0430262,-2.6356068,-8.651665800000002,74.03763276000002,3.51796212,-48.05971704
2.78,278,0.1,-1.03,-0.155,-92.81919599999999,-4.6409598,-8.078707799999998,73.09225205999998,3.56952834,-48.13420158
2.79,279,0.09300000000000001,-1.06,-0.17,-91.95975899999999,-4.4690724,-8.250595200000001,72.15260094,3.62682414,-48.20868612
2.8,280,0.09300000000000001,-1.092,-0.225,-91.6159842,-6.417129599999999,-7.7922288,71.22440897999998,3.67266078,-48.30608897999999
2.81,281,0.12300000000000001,-1.097,-0.253,-91.5013926,-12.261301199999998,-7.448453999999999,70.28475786,3.6955791,-48.44932848
2.82,282,0.132,-1.109,-0.251,-89.4387438,-17.18874,-4.8128472,69.36802506,3.67839036,-48.63840462
2.8299999999999996,283,0.111,-1.114,-0.354,-89.20956059999996,-19.194093,-3.2085647999999996,68.45129225999999,3.63255372,-48.83321034
2.84,284,0.073,-1.121,-0.36,-83.5945722,-16.501190400000002,-3.1512689999999997,67.59758484,3.59817624,-49.00509774
2.8499999999999996,285,0.076,-1.1179999999999999,-0.456,-78.8390208,-16.1001198,-4.3544808,66.78398448,3.56952834,-49.17698514
2.86,286,0.12300000000000001,-1.135,-0.507,-70.76031300000002,-15.011499599999999,-6.4744254,66.05632782,3.56379876,-49.34887254
2.8699999999999997,287,0.147,-1.178,-0.518,-64.457775,-18.1054728,-6.1879464,65.39742612,3.54088044,-49.54367826
2.88,288,0.163,-1.194,-0.542,-59.30115299999999,-20.7983754,-3.6096353999999997,64.78436106000001,3.48931422,-49.74994314
2.8899999999999997,289,0.153,-1.1740000000000002,-0.557,-54.43101,-22.9756158,-0.3437748,64.22286222,3.3919113599999995,-49.96193760000001
2.9,290,0.11,-1.153,-0.5589999999999999,-48.5868384,-19.9962342,0.4583664000000001,63.71865918,3.30023808,-50.14528416
2.9099999999999997,291,0.08800000000000001,-1.147,-0.579,-44.06047020000001,-14.4958374,-0.40107059999999994,63.26602236,3.2372127,-50.28279408
2.92,292,0.086,-1.137,-0.617,-40.33624320000001,-10.4278356,-0.40107059999999994,62.853492599999996,3.1913760600000005,-50.38019694
2.9299999999999997,293,0.095,-1.119,-0.6459999999999999,-36.554720399999994,-9.0527364,1.432395,62.47534032,3.13408026,-50.45468147999999
2.94,294,0.08900000000000001,-1.07,-0.64,-33.74722620000001,-10.084060800000001,3.4950437999999995,62.13156552,3.05959572,-50.52916602000001
2.9499999999999997,295,0.081,-1.022,-0.635,-31.913760600000003,-11.688343199999998,3.4950437999999995,61.79924988000001,2.9736520200000003,-50.62083930000001
2.96,296,0.08199999999999999,-0.9940000000000001,-0.628,-29.9084076,-12.3758928,1.8334656000000005,61.48985256,2.8934379,-50.72397174
2.9699999999999998,297,0.1,-0.995,-0.607,-27.6738714,-12.776963400000001,-1.2032118,61.20910314,2.84760126,-50.84429292
2.98,298,0.11,-1.012,-0.573,-26.0122932,-14.32395,-3.8388186,60.9340833,2.81322378,-50.993262
2.9899999999999998,299,0.107,-1.023,-0.5379999999999999,-25.0955604,-14.667724800000002,-5.443101,60.6762522,2.79030546,-51.14796066
3.0,300,0.10099999999999999,-0.997,-0.509,-23.9496444,-14.0947668,-6.0160589999999985,60.42988026,2.77311672,-51.30265932
3.01,301,0.099,-0.938,-0.48100000000000004,-22.2880662,-13.464512999999998,-5.6149884000000005,60.19496748,2.75592798,-51.4516284
3.02,302,0.10400000000000001,-0.888,-0.489,-20.5118964,-12.776963400000001,-4.6409598,59.98297302,2.73300966,-51.58340874
3.03,303,0.10800000000000001,-0.852,-0.479,-18.2200644,-12.1467096,-3.7815228,59.79389688,2.71009134,-51.709459499999994
3.04,304,0.10800000000000001,-0.825,-0.45899999999999996,-15.4125702,-12.318597,-2.7501984,59.63346864,2.6699842800000004,-51.82978068
3.05,305,0.105,-0.797,-0.46299999999999997,-12.6623718,-12.032118,-2.1199446,59.49595872,2.6413363800000003,-51.95010186
3.06,306,0.099,-0.7859999999999999,-0.451,-10.657018800000001,-11.917526400000002,-2.6929026,59.38709670000001,2.6069589,-52.06469346
3.07,307,0.09699999999999999,-0.789,-0.44,-9.167328,-11.172680999999999,-3.7242269999999995,59.28969384000001,2.58404058,-52.18501464000001
3.08,308,0.09,-0.799,-0.44299999999999995,-7.5630456000000015,-11.0007936,-4.8128472,59.20947972,2.56685184,-52.30533582
3.09,309,0.08199999999999999,-0.809,-0.45299999999999996,-6.3025379999999975,-11.2299768,-5.5003968,59.14072476,2.5611222600000003,-52.425657
3.0999999999999996,310,0.081,-0.8059999999999999,-0.44799999999999995,-5.3285094000000015,-11.802934800000001,-5.3858052,59.07769938,2.55539268,-52.55743734
3.11,311,0.087,-0.797,-0.445,-4.1825934,-11.5164558,-5.0993262,59.03186274000001,2.54393352,-52.68348810000001
3.1199999999999997,312,0.091,-0.784,-0.445,-2.9220858,-11.172680999999999,-4.7555514,58.99748526000001,2.52674478,-52.80380928
3.13,313,0.094,-0.763,-0.45399999999999996,-1.9480572,-11.45916,-4.3544808,58.97456694,2.50955604,-52.92413046
3.1399999999999997,314,0.092,-0.7509999999999999,-0.44799999999999995,-0.6302538000000001,-12.0894138,-4.1252976000000015,58.96310778000001,2.48663772,-53.05018122
3.15,315,0.084,-0.746,-0.435,-0.057295800000000015,-12.4331886,-4.1252976000000015,58.9573782,2.46944898,-53.18196156000001
3.1599999999999997,316,0.08199999999999999,-0.748,-0.45,0.5156622000000001,-12.5477802,-4.297185,58.9573782,2.44653066,-53.3137419
3.17,317,0.08,-0.748,-0.45899999999999996,1.7188740000000002,-12.318597,-4.4117766,58.97456694,2.42361234,-53.43979266
3.1799999999999997,318,0.075,-0.7490000000000001,-0.451,3.2085647999999996,-12.1467096,-4.4690724,59.00321484,2.40069402,-53.56584342
3.19,319,0.073,-0.7509999999999999,-0.45,4.4117766,-12.3758928,-4.6982555999999995,59.0433219,2.38350528,-53.69762376
3.1999999999999997,320,0.073,-0.752,-0.445,5.2139178,-12.605075999999999,-4.6409598,59.08915854000001,2.36631654,-53.8294041
3.21,321,0.084,-0.753,-0.45,5.958763200000001,-13.636400400000001,-4.583664,59.14645434000001,2.34339822,-53.97264360000001
3.2199999999999998,322,0.09300000000000001,-0.75,-0.455,6.6463128000000005,-14.7823164,-4.1252976000000015,59.21520930000001,2.30902074,-54.12161268
3.23,323,0.09300000000000001,-0.7490000000000001,-0.444,7.2765666,-15.469866,-3.9534102,59.28396425999999,2.26891368,-54.27631134000001
3.2399999999999998,324,0.092,-0.752,-0.45299999999999996,7.734933000000002,-15.4125702,-4.1252976000000015,59.3584488,2.22880662,-54.43101
3.25,325,0.09,-0.754,-0.452,8.193299399999999,-15.297978599999999,-4.0680017999999984,59.43293334,2.20015872,-54.57997908
3.26,326,0.09300000000000001,-0.757,-0.45799999999999996,8.479778399999999,-15.527161800000002,-3.8961144,59.513147460000006,2.16005166,-54.73467774000001
3.27,327,0.09300000000000001,-0.763,-0.462,9.1100322,-16.4438946,-3.1512689999999997,59.60482074,2.10848544,-54.89510598
3.28,328,0.095,-0.7659999999999999,-0.46399999999999997,9.396511199999999,-17.9908812,-2.5210152000000003,59.69649402,2.04546006,-55.06126379999999
3.29,329,0.1,-0.769,-0.462,9.3392154,-19.0222056,-2.4064236,59.7881673,1.9767051,-55.23888078
3.3,330,0.10099999999999999,-0.773,-0.44799999999999995,9.0527364,-18.5638392,-2.5210152000000003,59.87411099999999,1.92513888,-55.41076817999999
3.31,331,0.10099999999999999,-0.7809999999999999,-0.434,8.651665800000002,-17.6471064,-2.5783110000000002,59.9600547,1.8621134999999998,-55.57692599999999
3.32,332,0.111,-0.7909999999999999,-0.441,7.6776372,-17.3606274,-2.4637194,60.03453924,1.8048177,-55.74308382
3.33,333,0.12300000000000001,-0.792,-0.439,7.161975,-17.4179232,-1.5469866,60.10329420000001,1.73606274,-55.90351206
3.34,334,0.125,-0.7909999999999999,-0.431,6.7609043999999985,-18.449247600000003,-0.1718874,60.17204916000001,1.65011904,-56.06394029999999
3.3499999999999996,335,0.125,-0.7859999999999999,-0.441,5.958763200000001,-19.595163600000006,0.572958,60.22934496000001,1.56990492,-56.23009812
3.36,336,0.122,-0.7809999999999999,-0.429,6.0160589999999985,-21.0848544,0.7448454000000001,60.28664076,1.46677248,-56.41344468
3.3699999999999997,337,0.11699999999999999,-0.78,-0.429,5.443101,-22.058882999999998,0.572958,60.33820698000001,1.3579104599999998,-56.60252082
3.38,338,0.113,-0.779,-0.4320000000000001,5.1566220000000005,-22.058882999999998,0.1718874,60.38977319999999,1.25477802,-56.79159696000001
3.3899999999999997,339,0.107,-0.777,-0.42100000000000004,5.0993262,-22.2880662,-0.2291832000000001,60.44133942,1.15164558,-56.98640268000001
3.4,340,0.10400000000000001,-0.772,-0.415,4.8701430000000006,-22.803728399999997,-0.1718874,60.49290564,1.0599723,-57.18693798
3.4099999999999997,341,0.10099999999999999,-0.767,-0.402,4.1252976000000015,-23.892348600000002,0.286479,60.53301269999999,0.95111028,-57.39320286
3.42,342,0.10400000000000001,-0.7609999999999999,-0.41,3.1512689999999997,-24.8663772,0.4583664000000001,60.56739018,0.8307891,-57.6109269
3.4299999999999997,343,0.10400000000000001,-0.758,-0.401,2.8074942000000003,-26.5279554,0.11459160000000004,60.59603808000001,0.70473834,-57.8401101
3.44,344,0.107,-0.752,-0.4,1.8334656000000005,-27.3873924,-0.4583664000000001,60.61322682,0.5844171599999999,-58.08075246000001
3.4499999999999997,345,0.10800000000000001,-0.7490000000000001,-0.40299999999999997,1.3750992,-28.132237800000002,-1.2605076000000002,60.63041556,0.47555514,-58.33285398
3.46,346,0.11,-0.75,-0.39799999999999996,0.6875496,-28.4760126,-2.2345362,60.63614514,0.36669312,-58.59641466000001
3.4699999999999998,347,0.11199999999999999,-0.75,-0.405,0.0,-28.7051958,-2.86479,60.64187472,0.25783110000000004,-58.85997533999999
3.48,348,0.10400000000000001,-0.7440000000000001,-0.40299999999999997,-0.3437748,-28.9916748,-3.4377480000000005,60.64187472,0.15469866,-59.1292656
3.4899999999999998,349,0.10099999999999999,-0.747,-0.40399999999999997,-1.2032118,-29.736520199999998,-3.5523396000000003,60.63041556,0.04583664,-59.41001502
3.5,350,0.1,-0.755,-0.40700000000000003,-2.2345362,-31.1689152,-3.3231564,60.61322682,-0.05156622,-59.69649402
3.51,351,0.094,-0.763,-0.40299999999999997,-2.9220858,-32.142943800000005,-2.86479,60.58457892,-0.1718874,-59.99443218
3.52,352,0.092,-0.764,-0.41700000000000004,-4.0680017999999984,-34.2055926,-2.6356068,60.55020144,-0.30939732,-60.303829500000006
3.53,353,0.08900000000000001,-0.765,-0.42,-4.6982555999999995,-37.1849742,-2.7501984,60.51009438,-0.4583664000000001,-60.64187472
3.54,354,0.087,-0.7759999999999999,-0.41700000000000004,-5.0993262,-39.018439799999996,-3.2658606,60.46425774000001,-0.61306506,-61.00283826
3.55,355,0.084,-0.7879999999999999,-0.431,-5.443101,-40.1643558,-3.8388186,60.4184211,-0.75630456,-61.36953138
3.56,356,0.081,-0.797,-0.423,-5.042030400000002,-41.1383844,-4.4690724,60.37831404,-0.91100322,-61.75341324
3.57,357,0.081,-0.807,-0.424,-5.3858052,-42.1697088,-4.9847346,60.33820698000001,-1.06570188,-62.14875426
3.58,358,0.083,-0.816,-0.429,-6.130650599999999,-42.456187799999995,-5.042030400000002,60.28664076,-1.22040054,-62.54409528
3.59,359,0.08,-0.8270000000000001,-0.433,-6.7609043999999985,-42.5134836,-4.6982555999999995,60.23507453999999,-1.3750992,-62.939436300000004
3.5999999999999996,360,0.083,-0.845,-0.442,-7.3911582,-42.742666799999995,-3.9534102,60.17204916000001,-1.53552744,-63.32904774000001
3.61,361,0.083,-0.861,-0.451,-8.021412000000002,-43.888582799999995,-2.5783110000000002,60.10902378,-1.7188740000000002,-63.72438876
3.6199999999999997,362,0.08,-0.87,-0.45,-8.3651868,-45.72204840000001,-1.2032118,60.04599840000001,-1.92513888,-64.13118893999999
3.63,363,0.075,-0.87,-0.44299999999999995,-8.9954406,-48.529542600000006,-0.3437748,59.97151386,-2.1485925000000003,-64.55517785999999
3.6399999999999997,364,0.071,-0.865,-0.44299999999999995,-9.682990199999999,-50.82137460000001,-0.4583664000000001,59.89702932,-2.38350528,-65.0020851
3.65,365,0.068,-0.857,-0.444,-9.9694692,-52.19647379999999,-1.0313244000000001,59.82827436,-2.61841806,-65.4604515
3.6599999999999997,366,0.062,-0.853,-0.436,-10.4851314,-53.1705024,-1.7188740000000002,59.74806024000001,-2.85333084,-65.93027706000001
3.67,367,0.06,-0.85,-0.442,-11.6310474,-53.4569814,-2.1199446,59.66211654,-3.0939732,-66.40583219999999
3.6799999999999997,368,0.057,-0.847,-0.436,-12.7196676,-54.20182679999999,-2.1199446,59.57044326000001,-3.33461556,-66.89284649999999
3.69,369,0.055,-0.838,-0.431,-13.0061466,-55.3477428,-1.8334656000000005,59.473040399999995,-3.58671708,-67.37986079999999
3.6999999999999997,370,0.051,-0.8340000000000001,-0.425,-13.464512999999998,-55.6342218,-1.432395,59.37563754,-3.83308902,-67.87260468
3.71,371,0.045,-0.83,-0.425,-13.9228794,-55.86340500000001,-0.9740286,59.27823468,-4.0966497,-68.35961898
3.7199999999999998,372,0.057,-0.8270000000000001,-0.42200000000000004,-14.266654199999998,-56.66554620000001,-0.572958,59.17510224,-4.36593996,-68.85809244000001
3.73,373,0.051,-0.82,-0.413,-13.980175199999998,-57.06661679999999,0.2291832000000001,59.07769938,-4.64668938,-69.35083632
3.7399999999999998,374,0.04,-0.804,-0.402,-13.120738199999998,-57.2385042,1.0886202,58.99748526000001,-4.93316838,-69.83785062
3.75,375,0.035,-0.7879999999999999,-0.387,-12.9488508,-58.0979412,1.432395,58.91727113999999,-5.22537696,-70.33632408
3.76,376,0.035,-0.779,-0.376,-12.9488508,-60.3324774,0.7448454000000001,58.842786600000004,-5.52331512,-70.85198627999998
3.77,377,0.039,-0.773,-0.375,-12.834259199999998,-62.10864720000001,-0.6302538000000001,58.77403164,-5.8269828599999975,-71.39056679999999
3.78,378,0.042,-0.765,-0.365,-12.318597,-63.59833800000001,-1.8334656000000005,58.71673584,-6.11919144,-71.95206564
3.79,379,0.040999999999999995,-0.758,-0.35600000000000004,-12.261301199999998,-65.14532460000001,-2.7501984,58.66516962000001,-6.417129600000001,-72.53075322000002
3.8,380,0.047,-0.75,-0.363,-12.4904844,-66.2912406,-3.5523396000000003,58.613603399999995,-6.7093381800000005,-73.12089996
3.81,381,0.05,-0.742,-0.361,-11.9748222,-66.9214944,-4.1252976000000015,58.57349634000001,-7.001546759999999,-73.72250586
3.82,382,0.051,-0.738,-0.35200000000000004,-11.5164558,-67.5517482,-4.297185,58.54484844,-7.29948492,-74.32984134
3.83,383,0.055999999999999994,-0.741,-0.349,-11.2872726,-67.895523,-3.4377480000000005,58.51620054,-7.603152659999999,-74.93717682
3.84,384,0.063,-0.738,-0.34700000000000003,-10.5424272,-69.6716928,-1.7188740000000002,58.49901180000001,-7.935468299999997,-75.55024188
3.8499999999999996,385,0.057,-0.7240000000000001,-0.32299999999999995,-9.5111028,-72.76566600000002,0.0,58.50474138000001,-8.28497268,-76.18049568
3.86,386,0.053,-0.72,-0.311,-8.651665800000002,-74.65642740000001,0.6302538000000001,58.52193012,-8.663124960000001,-76.82220864
3.8699999999999997,387,0.055,-0.7240000000000001,-0.304,-7.8495246,-75.68775179999999,-0.11459160000000004,58.5563076,-9.03554766,-77.48111034
3.88,388,0.066,-0.727,-0.29100000000000004,-7.6203414,-77.2920342,-1.3750992,58.59641466000001,-9.40224078,-78.16293035999998
3.8899999999999997,389,0.071,-0.727,-0.289,-6.8182002000000015,-78.89631659999998,-2.0626488000000003,58.65371046,-9.77466348,-78.86193912
3.9,390,0.079,-0.727,-0.27899999999999997,-6.0733548,-79.87034519999997,-2.2345362,58.73392457999999,-10.13562702,-79.56667746000002
3.9099999999999997,391,0.066,-0.738,-0.285,-5.3285094000000015,-81.4173318,-2.5783110000000002,58.81986828,-10.513779300000001,-80.29433412
3.92,392,0.06,-0.741,-0.289,-4.5263682,-82.62054359999998,-3.0939732,58.92300072000001,-10.886202,-81.03344994
3.9299999999999997,393,0.069,-0.748,-0.29600000000000004,-3.7815228,-83.9956428,-3.380452200000001,59.03759232,-11.27008386,-81.7897545
3.94,394,0.08,-0.754,-0.297,-2.86479,-84.96967140000002,-3.4377480000000005,59.17510224,-11.64823614,-82.55178864
3.9499999999999997,395,0.099,-0.7609999999999999,-0.28300000000000003,-1.3178034,-86.34477059999998,-3.0939732,59.33553048,-12.02638842,-83.33101152
3.96,396,0.11800000000000001,-0.764,-0.27699999999999997,0.11459160000000004,-88.7511942,-2.6356068,59.51887703999999,-12.42745902,-84.13315272
3.9699999999999998,397,0.13,-0.773,-0.262,1.9480572,-92.07435059999999,-1.7761698000000001,59.7308715,-12.85144794,-84.95821224
3.98,398,0.122,-0.787,-0.24600000000000002,2.8074942000000003,-96.7153104,-1.6615782,59.97151386,-13.2926256,-85.82910840000002
3.9899999999999998,399,0.11599999999999999,-0.797,-0.244,3.6096353999999997,-99.2936214,-2.4637194,60.23507453999999,-13.73953284,-86.72865246
4.0,400,0.132,-0.79,-0.23600000000000002,3.9534102,-101.47086180000001,-3.0939732,60.51582396,-14.16352176,-87.66257399999998
4.01,401,0.139,-0.787,-0.21899999999999997,4.297185,-104.4502434,-3.5523396000000003,60.81376212,-14.61615858,-88.61941386
4.02,402,0.115,-0.7909999999999999,-0.233,4.0680017999999984,-106.7993712,-4.1825934,61.12315944,-15.06306582,-89.6106312
4.03,403,0.098,-0.7909999999999999,-0.25,4.9274388,-108.80472420000001,-5.2139178,61.45547508000001,-15.509973059999998,-90.63049644
4.04,404,0.086,-0.764,-0.247,6.130650599999999,-110.81007720000001,-5.72958,61.81643862,-15.951150719999998,-91.67328
4.05,405,0.10300000000000001,-0.757,-0.226,6.9327918,-113.73216299999999,-6.130650599999999,62.21177964,-16.38086922,-92.75617062
4.06,406,0.107,-0.745,-0.20800000000000002,7.161975,-117.2272068,-5.5576926,62.61857982,-16.83923562,-93.86770914
4.07,407,0.08800000000000001,-0.726,-0.192,7.6203414,-120.26388419999999,-5.3858052,63.04829832,-17.303331600000003,-95.01362514
4.08,408,0.079,-0.6920000000000001,-0.179,7.906820400000001,-121.00872959999998,-5.844171599999999,63.49520556,-17.761698000000006,-96.17672988
4.09,409,0.087,-0.687,-0.162,8.880849000000003,-121.3525044,-6.7609043999999985,63.965031120000006,-18.197146080000003,-97.35129378
4.1,410,0.068,-0.6990000000000001,-0.138,10.084060800000001,-122.0973498,-8.136003599999999,64.46350457999999,-18.60967584,-98.548776
4.109999999999999,411,0.015,-0.64,-0.122,10.5424272,-122.0973498,-8.078707799999998,64.97916677999999,-19.0222056,-99.75198780000001
4.12,412,0.006,-0.606,-0.105,11.0007936,-119.748222,-10.599723,65.50055856,-19.38889872,-100.95519959999999
4.13,413,-0.003,-0.5539999999999999,-0.09699999999999999,11.688343199999998,-116.596953,-11.5737516,66.02767992,-19.72694394,-102.1297635
4.14,414,-0.027000000000000003,-0.496,-0.059000000000000004,12.7196676,-113.50297979999999,-11.917526400000002,66.56626044,-20.04207084,-103.28713866
4.1499999999999995,415,-0.077,-0.39,-0.049,13.750992000000002,-110.81007720000001,-12.4331886,67.11630012,-20.32854984,-104.4215955
4.16,416,-0.13,-0.28800000000000003,-0.044000000000000004,16.2147114,-106.45559640000002,-12.1467096,67.67779895999999,-20.59211052,-105.51594528
4.17,417,-0.158,-0.213,-0.01,19.365980399999998,-101.2416786,-11.2299768,68.25648654,-20.83275288,-106.56445842
4.18,418,-0.151,-0.16,0.038,22.6891368,-96.6580146,-8.7662574,68.85809244000001,-21.07339524,-107.56140534
4.1899999999999995,419,-0.142,-0.14400000000000002,0.077,25.6112226,-92.1316464,-6.3025379999999975,69.47115749999999,-21.314037600000002,-108.50105646
4.2,420,-0.107,-0.09699999999999999,0.078,29.507337,-88.06364459999998,-4.1825934,70.11860004,-21.55467996,-109.4063301
4.21,421,-0.063,-0.057,0.124,34.8358464,-86.11558740000002,-2.3491277999999998,70.80614964,-21.78959274,-110.28295584
4.22,422,-0.073,-0.009000000000000001,0.139,39.6486936,-83.76645959999998,-1.3178034,71.53953588,-22.01877594,-111.13666326
4.2299999999999995,423,-0.076,0.017,0.17,45.72204840000001,-78.49524600000002,-1.9480572,72.31875876000002,-22.21358166,-111.93880446
4.24,424,-0.047,-0.031,0.102,49.2170922,-69.6716928,0.8594370000000001,73.09225205999998,-22.4026578,-112.64927238
4.25,425,-0.015,-0.12,0.006999999999999999,51.5089242,-62.96808420000001,6.990087599999999,73.86574535999998,-22.62038184,-113.2737966
4.26,426,0.094,-0.191,-0.105,53.34238979999999,-65.14532460000001,15.4125702,74.66215697999998,-22.91832,-113.9040504
4.27,427,0.28,-0.223,-0.175,54.4883058,-76.77637200000002,26.5279554,75.51013481999998,-23.34230892,-114.63170706
4.28,428,0.442,-0.21100000000000002,-0.24100000000000002,54.7747848,-96.6580146,39.5913978,76.44405636,-23.92672608,-115.54271028
4.29,429,0.494,-0.139,-0.192,56.837433600000004,-122.8421952,51.5089242,77.52121740000003,-24.660112320000003,-116.71727417999998
4.3,430,0.425,-0.054000000000000006,-0.14300000000000002,61.30650600000001,-151.49009519999996,62.910788399999994,78.78745458,-25.5252789,-118.19550582000002
4.31,431,0.15,-0.002,-0.126,68.8122558,-182.3152356,74.48454,80.31725244,-26.52222582,-120.02324184
4.32,432,-0.358,-0.151,0.04,84.1675302,-218.296998,89.6106312,82.22520258,-27.66241224,-122.2692372
4.33,433,-0.748,-0.311,0.341,87.20420759999998,-240.5850642,115.9666992,84.34514718,-29.00886354,-124.80171156
4.34,434,-1.494,-0.602,0.11599999999999999,96.14235240000001,-245.0541366,150.401475,86.67135666,-30.61314594,-127.44877752
4.35,435,-2.536,-1.666,0.128,112.299768,-232.907427,152.1776448,89.20956059999996,-32.13148464,-130.07292516
4.36,436,-3.155,-1.7890000000000001,0.027000000000000003,92.532717,-194.7484242,171.8301042,91.42690806,-33.77014452,-132.37048674
4.37,437,-3.673,-1.722,0.035,87.49068659999998,-146.84913540000005,200.248821,93.39788358,-35.64944676000001,-134.22687066
4.38,438,-3.99,-1.96,-0.062,83.4226848,-105.0232014,218.23970219999998,95.14540548,-37.69490682,-135.71083188
4.39,439,-3.998,-2.738,0.024,83.82375540000002,-74.2553568,217.3229694,96.7726062,-39.74036688,-136.92550283999998
4.3999999999999995,440,-3.9989999999999997,-3.573,0.495,103.3043274,-35.0077338,221.67745019999998,98.36542944,-41.86031148,-137.75056236
4.41,441,-3.2430000000000003,-3.995,1.36,108.2317662,27.1582092,200.8790748,99.49988628,-43.87139406,-137.80212858
4.42,442,-2.128,-2.785,1.558,48.987909,100.61142480000001,248.72106780000004,99.41394258,-46.4955417,-136.9942578
4.43,443,-1.735,-1.3159999999999998,1.5590000000000002,39.7059894,118.029348,305.1574308000001,99.07589736,-49.70410650000001,-136.01449962
4.4399999999999995,444,-1.196,-0.728,0.9790000000000001,42.5134836,110.81007720000001,309.970278,98.75504088,-52.93558962000001,-135.06338934
4.45,445,-0.364,-0.354,0.745,57.35309579999999,103.41891899999999,301.9488659999999,98.56596474,-56.07539946000001,-134.11800864000003
4.46,446,-0.19899999999999998,-0.24600000000000002,0.7829999999999999,61.5356892,79.354683,280.4056452,98.62899012,-58.96310778000001,-133.45910694
4.47,447,-0.42100000000000004,0.028999999999999998,0.8540000000000001,48.7587258,30.997027799999998,255.5965638,99.2936214,-61.51850046,-133.64818308000002
4.4799999999999995,448,-0.9279999999999999,0.171,0.711,21.7151082,15.297978599999999,213.8279256,99.91814562,-63.64417464,-134.1008199
4.49,449,-1.0290000000000001,0.285,0.524,31.340802600000004,13.8082878,197.3267352,100.69736850000001,-65.59223184,-134.61075252
4.5,450,-0.9990000000000001,-0.07400000000000001,0.521,40.1643558,0.1718874,185.5238004,101.9578761,-67.40277911999999,-135.53321490000002
4.51,451,-1.178,0.14300000000000002,0.41100000000000003,24.809081399999997,-1.0886202,195.2067906,103.31578656,-69.28781094,-136.71350838
4.52,452,-1.276,0.147,0.207,32.945085,-7.161975,196.8683688,105.18362964,-71.1613836,-138.3407091
4.53,453,-1.218,0.10300000000000001,0.209,39.247623,-11.5164558,190.68042240000003,107.57286450000001,-72.93755340000001,-140.42627622
4.54,454,-1.087,0.163,0.155,41.5967508,-18.2200644,191.4825636,110.7241335,-74.66788656,-143.26241832
4.55,455,-1.16,0.38799999999999996,-0.040999999999999995,46.29500640000001,-19.136797199999997,200.4207084,114.86089026,-76.4325972,-147.04394112
4.56,456,-1.2690000000000001,0.136,0.10400000000000001,81.360036,-21.371333399999997,185.351913,120.22377714,-77.95666548,-151.6906305
4.57,457,-1.3019999999999998,0.061,0.215,78.49524600000002,-20.626488000000002,166.6161864,126.32577984,-79.22290266,-157.09362444
4.58,458,-1.3219999999999998,0.163,0.249,78.89631659999998,-24.0069402,160.25635259999999,133.73985636,-80.28287496,-163.80869219999997
4.59,459,-1.319,0.10800000000000001,0.316,78.03687959999998,-33.6899304,148.85448839999995,142.48892501999995,-81.0162612,-171.86448167999995
4.6,460,-1.3159999999999998,0.062,0.3,70.87490460000002,-37.6433406,136.2494124,151.81668126,-81.43452054,179.42752728
4.61,461,-1.3130000000000002,0.15,0.311,56.5509546,-33.231564,130.8636072,161.21319246000004,-81.64651500000002,170.51803038
4.62,462,-1.399,0.18100000000000002,0.344,44.6334282,-28.418716800000002,123.8735196,170.21436264,-81.68089248,161.88355332
4.63,463,-1.355,0.287,0.335,28.81978740000001,-24.2934192,114.6488958,178.31025918,-81.54911214,154.00538082
4.64,464,-1.3969999999999998,0.276,0.377,23.2620948,-20.05353,98.6060718,-175.02720984,-81.32565852,147.51376667999997
4.6499999999999995,465,-1.351,0.213,0.341,11.688343199999998,-15.5844576,76.2607098,-170.18571474,-81.07355700000002,142.74102654
4.66,466,-1.315,0.254,0.28600000000000003,8.193299399999999,-10.943497800000001,56.66554620000001,-166.79380338,-80.85010338000002,139.38922224
4.67,467,-1.2309999999999999,0.222,0.258,3.4950437999999995,-7.0473834,35.0077338,-164.79417996,-80.70113429999998,137.40678756
4.68,468,-1.1079999999999999,0.317,0.21100000000000002,0.8021411999999999,-4.3544808,19.7097552,-163.71701892000004,-80.60373144,136.32389694
4.6899999999999995,469,-1.031,0.354,0.14300000000000002,5.9014674000000005,-1.8334656000000005,8.9381448,-163.18416798,-80.56362438,135.84261222
4.7,470,-0.956,0.349,0.122,12.605075999999999,-0.1718874,0.0,-162.54245501999995,-80.54643564,135.33840918
4.71,471,-0.932,0.312,0.128,18.277360199999997,3.7815228,-6.8182002000000015,-162.67996494000005,-80.60373144,135.66499524
4.72,472,-0.873,0.308,0.11599999999999999,26.69984280000001,11.5164558,-15.068795399999999,-163.06957638,-80.7584301,136.32962652
4.7299999999999995,473,-0.8220000000000001,0.27699999999999997,0.127,35.5806918,17.303331600000003,-20.7983754,-163.61961606,-80.98761329999998,137.24635932
4.74,474,-0.7959999999999999,0.247,0.171,40.7946096,23.319390600000002,-25.210151999999997,-164.31289524000005,-81.27982188,138.36935699999998
4.75,475,-0.807,0.215,0.21899999999999997,43.65939960000001,27.960350399999996,-28.5906042,-165.12076602,-81.6178671,139.6298646
4.76,476,-0.818,0.18899999999999997,0.252,44.2896534,31.2835068,-31.2835068,-166.19219748,-82.00174896,141.16539204
4.77,477,-0.843,0.14400000000000002,0.278,43.4302164,34.4920716,-35.52339600000001,-167.65324038,-82.41427872,143.07907176
4.78,478,-0.867,0.124,0.253,39.7059894,37.586044799999996,-40.4508348,-169.6815117,-82.86691554,145.51987284
4.79,479,-0.887,0.128,0.237,35.9244666,39.018439799999996,-43.48751220000001,-172.27128186,-83.31955236,148.49352486
4.8,480,-0.94,0.065,0.24600000000000002,33.6899304,40.393539000000004,-49.3316838,-175.79497356,-83.76073002,152.37818009999995
4.81,481,-0.973,0.019,0.261,29.4500412,43.65939960000001,-55.3477428,179.49055266,-84.21909642,157.40302176
4.82,482,-0.988,0.027999999999999997,0.244,25.210151999999997,48.70143,-56.6082504,173.78389098,-84.67173324000002,163.38470328
4.83,483,-1.0270000000000001,0.032,0.223,23.663165399999997,52.425657,-54.25912260000001,167.24644019999997,-85.10145173999999,170.17998516
4.84,484,-1.055,-0.026000000000000002,0.217,26.241476399999996,53.628868800000006,-53.4569814,159.62609880000005,-85.46814486,178.08680556
4.85,485,-1.065,-0.064,0.21600000000000005,24.694489800000003,55.2331512,-53.1705024,150.77962728,-85.7431647,-172.79267364
4.86,486,-1.0590000000000002,-0.049,0.203,20.168121600000006,58.38442020000001,-52.139178,140.72994396,-85.9437,-162.51953669999997
4.87,487,-1.055,-0.051,0.179,16.157415599999997,60.44706899999999,-47.498218200000004,130.18751676000002,-86.05256202000002,-151.79376294
4.88,488,-1.0959999999999999,-0.071,0.094,16.7876694,58.38442020000001,-44.06047020000001,119.94875729999998,-86.04110286,-141.36592733999996
4.89,489,-1.078,-0.135,-0.051,13.6936962,50.133825,-37.013086799999996,111.46897889999998,-85.93224083999998,-132.73145028000002
4.8999999999999995,490,-1.0090000000000001,-0.282,-0.166,8.880849000000003,38.159002799999996,-31.5699858,104.98882392,-85.74889427999999,-126.15962202
4.91,491,-0.904,-0.331,-0.158,11.3445684,30.366774000000003,-29.736520199999998,100.39370076,-85.53689982,-121.43844809999999
4.92,492,-0.8959999999999999,-0.287,-0.183,4.0680017999999984,31.51269000000001,-24.923673,96.1137045,-85.3420941,-117.10688562
4.93,493,-0.883,-0.14800000000000002,-0.179,0.9167328000000001,32.544014399999995,-18.7357266,92.08008018,-85.18739544,-113.05034298
4.9399999999999995,494,-0.873,-0.064,-0.109,5.3858052,32.4867186,-11.3445684,88.33293486,-85.08426299999998,-109.24017228
4.95,495,-0.919,-0.132,-0.067,11.1153852,33.231564,-11.5737516,84.6545445,-84.95248266,-105.43573116
4.96,496,-0.958,-0.179,-0.068,13.8655836,26.5279554,-10.1986524,81.97310106,-84.8264319,-102.61104822
4.97,497,-0.968,-0.19899999999999998,-0.094,10.1413566,22.058882999999998,-5.6149884000000005,79.7844015,-84.74048819999999,-100.30775706
4.9799999999999995,498,-0.9620000000000001,-0.191,-0.105,9.167328,16.615782,-0.8021411999999999,78.12855288,-84.70611072,-98.55450558
4.99,499,-0.9570000000000001,-0.175,-0.09699999999999999,8.9381448,10.084060800000001,2.5783110000000002,77.08576932000003,-84.71184029999998,-97.42004874
5.0,500,-0.915,-0.158,-0.073,6.6463128000000005,4.297185,4.9847346,76.44405636,-84.74048819999999,-96.70958082
5.01,501,-0.938,-0.054000000000000006,-0.067,-2.6929026,1.2605076000000002,12.4904844,75.95704206,-84.8550798,-96.25121442
5.02,502,-1.0190000000000001,-0.13699999999999998,-0.051,1.7188740000000002,-0.9167328000000001,10.1986524,75.80234340000001,-84.95821224,-96.07932702
5.03,503,-0.983,-0.23600000000000002,0.009000000000000001,5.9014674000000005,-4.1825934,3.5523396000000003,76.22060274,-84.99831929999998,-96.43456098
5.04,504,-0.96,-0.174,-0.013000000000000001,-7.906820400000001,-4.297185,3.9534102,76.53000005999998,-85.04988552,-96.82417242
5.05,505,-0.948,-0.115,-0.037000000000000005,-12.318597,-3.2658606,5.042030400000002,76.55864796,-85.09572216000002,-96.98460066
5.06,506,-0.929,-0.095,-0.042,-13.178034,-4.583664,5.443101,76.82220864,-85.15874754000002,-97.37994168
5.07,507,-0.91,-0.099,-0.038,-13.980175199999998,-5.2139178,5.0993262,77.16598344,-85.22177292,-97.86695598
5.08,508,-0.8959999999999999,-0.1,-0.039,-15.126091199999998,-4.3544808,4.8701430000000006,77.41808496,-85.27906872,-98.26802658
5.09,509,-0.893,-0.094,-0.046,-15.756345,-3.3231564,5.2139178,77.53840613999998,-85.33636451999998,-98.55450558
5.1,510,-0.899,-0.09,-0.040999999999999995,-15.6990492,-1.8334656000000005,5.443101,77.38943706,-85.38793074,-98.56596474
5.11,511,-0.904,-0.092,-0.028999999999999998,-15.527161800000002,-0.40107059999999994,5.9014674000000005,77.14306512,-85.45095612,-98.47429146
5.12,512,-0.9209999999999999,-0.09,-0.021,-15.2406828,0.11459160000000004,6.7609043999999985,76.79929032,-85.5139815,-98.28521532
5.13,513,-0.937,-0.085,-0.015,-15.183387000000002,-1.0313244000000001,7.6203414,76.57010712,-85.59419562000002,-98.21073078
5.14,514,-0.963,-0.085,-0.008,-14.5531332,-3.6096353999999997,8.7089616,76.64459166,-85.6858689,-98.42845481999998
5.1499999999999995,515,-0.9790000000000001,-0.077,-0.006999999999999999,-14.1520626,-6.589017,9.8548776,77.08576932000003,-85.8004605,-99.01860156
5.16,516,-0.993,-0.067,-0.005,-13.407217200000002,-9.453807,11.45916,77.91082884,-85.92651126,-99.981171
5.17,517,-1.0070000000000001,-0.057999999999999996,-0.005,-11.9748222,-11.917526400000002,12.605075999999999,79.11404064,-86.07548034,-101.30470398
5.18,518,-1.013,-0.045,-0.001,-10.2559482,-13.750992000000002,13.2353298,80.69540472,-86.22444942,-102.99493008
5.1899999999999995,519,-1.024,-0.031,0.016,-8.193299399999999,-14.896907999999998,13.6936962,82.58616612,-86.37914808000002,-104.97163518
5.2,520,-1.04,-0.018000000000000002,0.028999999999999998,-5.9014674000000005,-15.6990492,13.5791046,84.87799812,-86.53384674,-107.32649256
5.21,521,-1.048,-0.013999999999999999,0.046,-4.6409598,-16.329303,13.0634424,87.42766122,-86.67135666,-109.9219923
5.22,522,-1.055,-0.015,0.055,-3.8388186,-16.7876694,12.1467096,90.2695329,-86.79167784,-112.80397104
5.2299999999999995,523,-1.057,-0.016,0.068,-3.9534102,-16.615782,10.886202,93.28329198,-86.88908070000002,-115.86356676
5.24,524,-1.057,-0.011000000000000001,0.077,-4.1252976000000015,-15.527161800000002,9.3392154,96.25694399999999,-86.96356524000002,-118.88305541999998
5.25,525,-1.052,-0.005,0.078,-5.2712136,-13.980175199999998,7.6776372,99.29935098,-87.02659062000002,-121.9827582
5.26,526,-1.044,-0.001,0.075,-5.1566220000000005,-12.605075999999999,5.958763200000001,101.8432845,-87.0609681,-124.57825794
5.27,527,-1.031,-0.002,0.07,-5.042030400000002,-11.1153852,4.010706000000001,104.06636154,-87.07242726,-126.8529012
5.28,528,-1.022,-0.005,0.063,-4.7555514,-9.2819196,1.9480572,105.85972008,-87.0609681,-128.69782596
5.29,529,-1.013,-0.008,0.06,-4.297185,-8.078707799999998,0.286479,107.32649256,-87.04377936,-130.2047055
5.3,530,-1.003,-0.013000000000000001,0.059000000000000004,-3.6669312000000014,-6.875496000000001,-1.2032118,108.93077496,-87.02086104,-131.84909496
5.31,531,-0.996,-0.015,0.055999999999999994,-2.6929026,-5.5576926,-2.6929026,109.72718658,-86.97502440000002,-132.67415448
5.32,532,-0.99,-0.018000000000000002,0.055,-1.3750992,-4.1252976000000015,-3.8388186,110.17982340000002,-86.92345818,-133.14398004
5.33,533,-0.992,-0.022000000000000002,0.059000000000000004,-0.572958,-2.4637194,-4.9847346,110.27722626,-86.86616238,-133.24711248
5.34,534,-0.992,-0.025,0.059000000000000004,0.40107059999999994,-0.9740286,-6.130650599999999,110.05950221999998,-86.80886658,-133.02365886
5.35,535,-0.9890000000000001,-0.032,0.062,0.9167328000000001,-0.2291832000000001,-7.1046792000000005,110.19701214,-86.7458412,-133.14398004
5.36,536,-0.995,-0.039,0.06,1.2032118,-0.286479,-8.078707799999998,109.77302322,-86.66562708000002,-132.70853196000002
5.37,537,-1.0,-0.047,0.061,1.3178034,-0.286479,-8.5370742,109.34330472,-86.58541296,-132.26735430000002
5.38,538,-1.002,-0.052000000000000005,0.054000000000000006,1.3750992,0.0,-8.7089616,108.87920874,-86.50519884,-131.78606958
5.39,539,-1.0070000000000001,-0.061,0.052000000000000005,1.8907614,0.5156622000000001,-8.3651868,108.3750057,-86.43071429999998,-131.26467780000002
5.3999999999999995,540,-1.012,-0.068,0.054000000000000006,1.6615782,0.9740286,-8.021412000000002,108.04841964,-86.34477059999998,-130.91517342
5.41,541,-1.014,-0.071,0.057999999999999996,1.3178034,0.8594370000000001,-7.2765666,107.58432366,-86.28174521999998,-130.43961828
5.42,542,-1.0170000000000001,-0.07200000000000001,0.063,0.7448454000000001,0.3437748,-6.5317212,107.24054886,-86.21871984,-130.09011389999998
5.43,543,-1.018,-0.07200000000000001,0.064,0.286479,0.057295800000000015,-5.6149884000000005,106.98271776,-86.16715362,-129.82655322
5.4399999999999995,544,-1.0190000000000001,-0.07,0.057,0.0,0.11459160000000004,-4.8701430000000006,106.74780498,-86.12131698,-129.59164044
5.45,545,-1.016,-0.067,0.049,-0.1718874,0.3437748,-4.4117766,106.83374868,-86.06975076,-129.67758414
5.46,546,-1.015,-0.068,0.045,0.0,0.5156622000000001,-4.010706000000001,106.59883590000001,-86.02964370000002,-129.44267136
5.47,547,-1.011,-0.07,0.044000000000000004,0.2291832000000001,0.5156622000000001,-3.6669312000000014,106.37538227999998,-86.0009958,-129.21921774
5.4799999999999995,548,-1.008,-0.07400000000000001,0.045,0.11459160000000004,0.8021411999999999,-3.3231564,106.13473992000002,-85.96661832,-128.97284580000002
5.49,549,-1.004,-0.07200000000000001,0.044000000000000004,-0.057295800000000015,0.9740286,-2.9793816000000004,105.8826384,-85.9437,-128.72074428000002
5.5,550,-0.997,-0.071,0.042,-0.057295800000000015,0.9167328000000001,-2.8074942000000003,106.00868916,-85.90359294,-128.84679504000002
5.51,551,-0.99,-0.07400000000000001,0.042,-0.2291832000000001,0.9740286,-2.2345362,105.7966947,-85.8864042,-128.63480058
5.52,552,-0.985,-0.07400000000000001,0.036000000000000004,-0.286479,1.145916,-1.8334656000000005,105.57324107999996,-85.86921545999998,-128.41134696
5.53,553,-0.982,-0.076,0.036000000000000004,-0.11459160000000004,1.3178034,-1.432395,105.3383283,-85.86348588000001,-128.18216376
5.54,554,-0.978,-0.077,0.037000000000000005,-0.2291832000000001,1.4896908000000002,-0.9167328000000001,105.10341552,-85.85775629999998,-127.94725098
5.55,555,-0.977,-0.078,0.037000000000000005,-0.5156622000000001,1.7188740000000002,-0.4583664000000001,105.04039014,-85.83483798,-127.88995518000002
5.56,556,-0.978,-0.075,0.035,-0.8594370000000001,1.9480572,0.1718874,104.78255904,-85.84056756,-127.64358324
5.57,557,-0.982,-0.07200000000000001,0.033,-1.0886202,1.7188740000000002,0.7448454000000001,104.57056458,-85.85202672,-127.43731836
5.58,558,-0.985,-0.071,0.031,-1.2032118,1.4896908000000002,1.145916,104.40440676,-85.86921545999998,-127.2826197
5.59,559,-0.9890000000000001,-0.071,0.035,-1.432395,1.0313244000000001,1.4896908000000002,104.30127432,-85.8864042,-127.20240558
5.6,560,-0.9940000000000001,-0.073,0.036000000000000004,-1.7761698000000001,0.5156622000000001,1.8334656000000005,104.49035046,-85.89786336,-127.40294088
5.61,561,-0.9990000000000001,-0.07200000000000001,0.036000000000000004,-2.1199446,0.0,2.0626488000000003,104.54191668,-85.9150521,-127.47742542
5.62,562,-1.001,-0.068,0.038,-2.4064236,-0.6302538000000001,2.3491277999999998,104.69088576,-85.93797042,-127.64931282
5.63,563,-1.003,-0.065,0.037000000000000005,-2.4637194,-1.0886202,2.4637194,104.9086098,-85.96088874,-127.89568476
5.64,564,-1.005,-0.062,0.039,-2.4064236,-1.3178034,2.4637194,105.1664409,-85.97807748,-128.17643418
5.6499999999999995,565,-1.006,-0.063,0.04,-2.291832,-1.432395,2.4064236,105.63626646,-86.0009958,-128.66917806
5.66,566,-1.006,-0.06,0.042,-2.1199446,-1.4896908000000002,2.291832,105.91128629999999,-86.01818454000002,-128.97284580000002
5.67,567,-1.004,-0.057999999999999996,0.043,-1.8907614,-1.7761698000000001,2.1772404,106.23787236,-86.03537328,-129.31089102
5.68,568,-1.001,-0.055,0.042,-1.7761698000000001,-2.0626488000000003,1.8334656000000005,106.57591757999998,-86.04683244,-129.67185456
5.6899999999999995,569,-1.001,-0.055999999999999994,0.043,-1.4896908000000002,-1.8907614,1.6615782,106.90250364,-86.05829159999998,-130.00989978
5.7,570,-1.001,-0.055999999999999994,0.047,-1.2605076000000002,-1.6615782,1.432395,107.68172652,-86.06975076,-130.80631139999997
5.71,571,-1.002,-0.055,0.048,-0.9740286,-1.432395,1.2605076000000002,107.92809846,-86.07548034,-131.0641425
5.72,572,-1.001,-0.054000000000000006,0.051,-0.8594370000000001,-1.3750992,0.9740286,108.15728166,-86.08120991999998,-131.30478486
5.7299999999999995,573,-1.0,-0.054000000000000006,0.053,-0.8594370000000001,-1.2605076000000002,0.6875496,108.35781696,-86.08120991999998,-131.51104974
5.74,574,-0.9990000000000001,-0.055,0.052000000000000005,-0.8021411999999999,-1.0886202,0.5156622000000001,108.52970436,-86.0869395,-131.68866672
5.75,575,-0.998,-0.055,0.054000000000000006,-0.6302538000000001,-1.0313244000000001,0.286479,109.8360486,-86.08120991999998,-133.00074054
5.76,576,-0.9990000000000001,-0.055999999999999994,0.053,-0.9167328000000001,-0.8594370000000001,0.0,109.94491062,-86.08120991999998,-133.12106172
5.77,577,-0.997,-0.055,0.055999999999999994,-0.8594370000000001,-0.6302538000000001,-0.1718874,110.01939516,-86.07548034,-133.20127584000002
5.78,578,-0.998,-0.053,0.053,-0.6875496,-0.3437748,-0.3437748,110.04804306,-86.06975076,-133.23565332
5.79,579,-0.997,-0.055,0.053,-0.40107059999999994,-0.11459160000000004,-0.5156622000000001,110.03658389999998,-86.06402118000004,-133.23565332
5.8,580,-0.998,-0.055999999999999994,0.052000000000000005,-0.40107059999999994,0.11459160000000004,-0.6875496,111.35438729999998,-86.05829159999998,-134.54772714
5.81,581,-1.0,-0.057,0.053,-0.3437748,0.40107059999999994,-0.8594370000000001,111.24552528,-86.05256202000002,-134.44459469999998
5.82,582,-1.002,-0.055999999999999994,0.053,-0.4583664000000001,0.4583664000000001,-1.0313244000000001,111.1252041,-86.04683244,-134.32427352
5.83,583,-1.003,-0.057999999999999996,0.053,-0.5156622000000001,0.6302538000000001,-1.2032118,110.96477586,-86.03537328,-134.17530444
5.84,584,-1.004,-0.06,0.052000000000000005,-0.572958,0.6875496,-1.2605076000000002,110.79861804,-86.02964370000002,-134.0148762
5.85,585,-1.005,-0.063,0.052000000000000005,-0.572958,0.40107059999999994,-1.2605076000000002,111.33719856,-86.0009958,-134.55918630000002
5.86,586,-1.003,-0.063,0.052000000000000005,-0.8021411999999999,0.572958,-1.3178034,111.18822948,-85.98953664,-134.41021722
5.87,587,-1.002,-0.065,0.049,-0.6875496,0.572958,-1.2032118,111.03353082,-85.98380705999998,-134.26697772
5.88,588,-1.002,-0.066,0.048,-0.572958,0.6302538000000001,-1.0886202,110.88456174,-85.9723479,-134.12373822
5.89,589,-1.002,-0.065,0.048,-0.4583664000000001,0.6875496,-1.0313244000000001,110.73559266000002,-85.96661832,-133.98049872
5.8999999999999995,590,-1.0,-0.065,0.051,-0.286479,0.7448454000000001,-0.8594370000000001,111.36011688,-85.93797042,-134.60502293999997
5.91,591,-1.0,-0.065,0.047,-0.3437748,0.7448454000000001,-0.8021411999999999,111.21687738,-85.93797042,-134.46178344
5.92,592,-0.998,-0.065,0.045,0.0,0.9167328000000001,-0.572958,111.06790829999998,-85.93224083999998,-134.31281436
5.93,593,-1.0,-0.068,0.048,0.0,1.0313244000000001,-0.40107059999999994,110.90748005999998,-85.93224083999998,-134.15238612000002
5.9399999999999995,594,-1.001,-0.068,0.046,-0.057295800000000015,1.4896908000000002,-0.11459160000000004,110.70121518,-85.93797042,-133.95185082
5.95,595,-1.0,-0.066,0.047,-0.11459160000000004,1.432395,0.0,111.10801536,-85.93224083999998,-134.35865099999998
5.96,596,-0.998,-0.063,0.046,-0.057295800000000015,0.8021411999999999,0.057295800000000015,111.00488292,-85.93224083999998,-134.25551855999998
5.97,597,-0.998,-0.063,0.046,-0.2291832000000001,0.3437748,0.0,110.95904628,-85.93797042,-134.20968192
5.9799999999999995,598,-0.998,-0.064,0.045,-0.4583664000000001,0.5156622000000001,-0.11459160000000004,110.87310258,-85.93797042,-134.12946780000001
5.99,599,-0.9990000000000001,-0.064,0.044000000000000004,-0.40107059999999994,0.9740286,0.0,110.74132224,-85.93797042,-133.99768746
6.0,600,-1.001,-0.066,0.046,-0.3437748,1.145916,0.11459160000000004,111.13666326,-85.92651126,-134.39875806
6.01,601,-0.9990000000000001,-0.067,0.051,-1.0886202,0.7448454000000001,0.11459160000000004,111.03353082,-85.93224083999998,-134.30708478
6.02,602,-0.998,-0.068,0.053,-1.6615782,0.0,0.286479,111.0392604,-85.93224083999998,-134.32427352
6.03,603,-0.997,-0.067,0.054000000000000006,-2.1772404,-0.4583664000000001,0.3437748,111.0965562,-85.93797042,-134.41021722
6.04,604,-0.995,-0.065,0.051,-2.4637194,-0.2291832000000001,0.3437748,111.13093368,-85.93797042,-134.46751302
6.05,605,-0.9940000000000001,-0.061,0.042,-2.1772404,0.0,0.4583664000000001,111.35438729999998,-85.94942957999999,-134.71388496
6.06,606,-0.995,-0.06,0.04,-1.432395,0.0,0.4583664000000001,111.36584646,-85.95515916000002,-134.73680327999998
6.07,607,-0.996,-0.061,0.043,-1.0313244000000001,0.1718874,0.5156622000000001,111.36011688,-85.96088874,-134.74253286
6.08,608,-0.997,-0.062,0.046,-0.8594370000000001,0.5156622000000001,0.5156622000000001,111.30855066,-85.96661832,-134.7024258
6.09,609,-1.0,-0.061,0.047,-0.7448454000000001,0.6875496,0.5156622000000001,111.2397957,-85.9723479,-134.63940042
6.1,610,-1.002,-0.06,0.051,-0.9167328000000001,0.572958,0.40107059999999994,111.91588614,-85.97807748,-135.32695002
6.11,611,-1.002,-0.057999999999999996,0.048,-0.9740286,0.572958,0.286479,111.84713118,-85.98380705999998,-135.26392464
6.12,612,-1.0,-0.057,0.046,-0.7448454000000001,0.5156622000000001,0.057295800000000015,111.77264664,-85.98380705999998,-135.20089926
6.13,613,-1.0,-0.059000000000000004,0.047,-0.40107059999999994,0.4583664000000001,0.0,111.70962126,-85.98953664,-135.13787387999997
6.14,614,-0.9990000000000001,-0.061,0.047,-0.1718874,0.4583664000000001,-0.057295800000000015,111.6408663,-85.98953664,-135.07484849999997
6.15,615,-1.001,-0.063,0.048,-0.2291832000000001,0.7448454000000001,-0.11459160000000004,112.56332868,-85.97807748,-135.99731088
6.16,616,-1.001,-0.061,0.048,0.0,0.7448454000000001,-0.1718874,112.44873708,-85.97807748,-135.88271928
6.17,617,-1.001,-0.062,0.047,0.057295800000000015,0.9167328000000001,-0.1718874,112.31695674,-85.98380705999998,-135.74520936
6.18,618,-1.0,-0.062,0.048,-0.057295800000000015,0.8021411999999999,-0.286479,112.19090598,-85.98380705999998,-135.61915860000002
6.1899999999999995,619,-0.998,-0.061,0.045,-0.1718874,0.6302538000000001,-0.3437748,112.08204396,-85.97807748,-135.51602616
6.2,620,-1.0,-0.061,0.043,0.0,0.5156622000000001,-0.2291832000000001,112.6148949,-85.97807748,-136.04314752
6.21,621,-1.0,-0.063,0.044000000000000004,0.40107059999999994,0.572958,-0.3437748,112.52322162,-85.97807748,-135.95147424
6.22,622,-1.0,-0.064,0.045,0.5156622000000001,0.5156622000000001,-0.3437748,112.43727792,-85.97807748,-135.85407138
6.2299999999999995,623,-0.997,-0.063,0.046,0.4583664000000001,0.4583664000000001,-0.3437748,112.3570638,-85.97807748,-135.77385726
6.24,624,-0.997,-0.064,0.045,0.572958,0.5156622000000001,-0.2291832000000001,112.27684968,-85.97807748,-135.68791356
6.25,625,-0.998,-0.065,0.045,0.6875496,0.572958,-0.286479,112.6435428,-85.96088874,-136.04314752
6.26,626,-0.998,-0.065,0.046,0.7448454000000001,0.5156622000000001,-0.1718874,112.56905826,-85.96088874,-135.95720382
6.27,627,-0.998,-0.066,0.048,0.572958,0.40107059999999994,-0.057295800000000015,112.51176246,-85.96088874,-135.89990802
6.28,628,-0.998,-0.067,0.046,0.6302538000000001,0.40107059999999994,0.057295800000000015,112.46592582,-85.96661832,-135.84261222
6.29,629,-0.998,-0.066,0.044000000000000004,0.8021411999999999,0.572958,0.1718874,112.40290043999998,-85.96661832,-135.77385726
6.3,630,-0.9990000000000001,-0.065,0.045,1.0313244000000001,0.6875496,0.3437748,112.6435428,-85.96661832,-136.00304046
6.31,631,-1.0,-0.066,0.047,1.0886202,0.6875496,0.4583664000000001,112.59197658,-85.9723479,-135.94001508
6.32,632,-1.002,-0.064,0.049,1.145916,0.5156622000000001,0.6302538000000001,112.56905826,-85.97807748,-135.9056376
6.33,633,-1.003,-0.063,0.049,0.9740286,0.5156622000000001,0.6875496,112.54613994000002,-85.98953664,-135.87126012
6.34,634,-1.005,-0.062,0.05,0.8021411999999999,0.4583664000000001,0.6875496,112.53468078,-85.99526621999998,-135.8483418
6.35,635,-1.004,-0.061,0.05,0.6875496,0.40107059999999994,0.6875496,113.12482752,-85.99526621999998,-136.43275896
6.36,636,-1.004,-0.06,0.05,0.6302538000000001,0.286479,0.6302538000000001,113.12482752,-86.0009958,-136.42702938
6.37,637,-1.002,-0.062,0.05,0.4583664000000001,0.286479,0.572958,113.11909794,-86.01245496,-136.41557022
6.38,638,-0.9990000000000001,-0.061,0.048,0.572958,0.286479,0.4583664000000001,113.11336836,-86.01818454000002,-136.40411106
6.39,639,-0.9990000000000001,-0.062,0.048,0.6875496,0.5156622000000001,0.4583664000000001,113.07899088,-86.02391412,-136.364004
6.4,640,-0.998,-0.06,0.046,0.9167328000000001,0.6302538000000001,0.5156622000000001,113.37692904,-86.02964370000002,-136.650483
6.41,641,-0.9990000000000001,-0.061,0.047,1.2032118,0.6302538000000001,0.4583664000000001,113.32536282,-86.03537328,-136.58745761999998
6.42,642,-0.998,-0.06,0.047,1.2032118,0.8021411999999999,0.40107059999999994,113.25087827999998,-86.04683244,-136.49578434
6.43,643,-0.9990000000000001,-0.06,0.049,1.3178034,0.8594370000000001,0.2291832000000001,113.159205,-86.05256202000002,-136.39265189999998
6.4399999999999995,644,-1.0,-0.061,0.048,1.4896908000000002,1.0313244000000001,0.286479,113.05034298,-86.05829159999998,-136.26660114
6.45,645,-1.001,-0.062,0.048,1.6042823999999998,1.0886202,0.1718874,113.2737966,-86.05829159999998,-136.47286602
6.46,646,-1.001,-0.062,0.05,1.5469866,1.2032118,0.1718874,113.13628667999998,-86.06402118000004,-136.31816736000002
6.47,647,-1.001,-0.063,0.05,1.3178034,1.3178034,0.2291832000000001,112.98731759999998,-86.06975076,-136.15773912
6.4799999999999995,648,-1.002,-0.063,0.05,0.9167328000000001,1.145916,0.11459160000000004,112.85553726,-86.07548034,-136.01449962
6.49,649,-1.001,-0.064,0.052000000000000005,0.5156622000000001,0.9740286,0.1718874,112.73521608,-86.08120991999998,-135.88844885999998
6.5,650,-0.998,-0.064,0.052000000000000005,0.0,0.9740286,0.286479,113.31963324,-86.06975076,-136.46713644000002
6.51,651,-0.998,-0.063,0.048,-0.1718874,0.7448454000000001,0.3437748,113.23368954,-86.07548034,-136.38692232
6.52,652,-0.998,-0.063,0.045,-0.2291832000000001,0.6875496,0.40107059999999994,113.17066416,-86.08120991999998,-136.32389694
6.53,653,-0.998,-0.061,0.040999999999999995,0.057295800000000015,0.7448454000000001,0.5156622000000001,113.09617962,-86.0869395,-136.2494124
6.54,654,-0.9990000000000001,-0.062,0.042,0.6875496,0.9167328000000001,0.572958,113.01023592,-86.09839866,-136.15773912
6.55,655,-0.9990000000000001,-0.063,0.045,0.8594370000000001,1.432395,0.7448454000000001,113.01596550000002,-86.10412824,-136.15200954000002
6.56,656,-0.9990000000000001,-0.061,0.042,1.0313244000000001,1.9480572,0.7448454000000001,112.80397104,-86.12131698,-135.92855592
6.57,657,-0.9990000000000001,-0.057999999999999996,0.039,1.3178034,1.3178034,0.6302538000000001,112.67219070000002,-86.13277614,-135.78531642000002
6.58,658,-1.0,-0.057999999999999996,0.040999999999999995,1.3178034,0.7448454000000001,0.40107059999999994,112.60343573999998,-86.13850572,-135.7051023
6.59,659,-1.0,-0.057999999999999996,0.042,1.3178034,0.4583664000000001,0.057295800000000015,112.55186952,-86.1442353,-135.64207692
6.6,660,-0.998,-0.061,0.040999999999999995,1.6042823999999998,0.572958,0.0,112.69510902,-86.13850572,-135.76239809999998
6.61,661,-0.9990000000000001,-0.065,0.042,1.9480572,0.8594370000000001,0.1718874,112.60343573999998,-86.1442353,-135.65353607999998
6.62,662,-0.9990000000000001,-0.069,0.047,1.7761698000000001,0.8594370000000001,0.40107059999999994,112.5289512,-86.14996488,-135.55613322
6.63,663,-1.0,-0.068,0.054000000000000006,1.145916,0.5156622000000001,0.6302538000000001,112.50603288,-86.16142404,-135.52175574
6.64,664,-1.001,-0.066,0.055999999999999994,0.1718874,0.057295800000000015,0.9740286,112.5575991,-86.16715362,-135.56759238
6.65,665,-0.998,-0.063,0.051,0.0,0.0,1.145916,113.1305571,-86.16715362,-136.14627996
6.66,666,-0.997,-0.06,0.040999999999999995,0.11459160000000004,0.40107059999999994,1.2605076000000002,113.14774584,-86.17861278000002,-136.15773912
6.67,667,-0.995,-0.057999999999999996,0.038,0.6875496,0.8594370000000001,1.2605076000000002,113.10763878,-86.19580152,-136.11190248
6.68,668,-0.997,-0.057,0.04,1.0886202,1.145916,1.2605076000000002,113.03315424,-86.20726068,-136.02595878
6.6899999999999995,669,-0.9990000000000001,-0.057999999999999996,0.044000000000000004,1.2032118,1.2605076000000002,1.145916,112.93575138,-86.22444942,-135.91709676
6.7,670,-1.001,-0.055999999999999994,0.047,1.2032118,1.145916,1.0313244000000001,113.18785289999998,-86.24163816000002,-136.15200954000002
6.71,671,-1.001,-0.053,0.045,1.2032118,0.9167328000000001,0.8021411999999999,113.11909794,-86.25309732000002,-136.07179542
6.72,672,-1.0,-0.053,0.042,1.432395,0.6302538000000001,0.5156622000000001,113.07326129999998,-86.2588269,-136.01449962
6.7299999999999995,673,-0.9990000000000001,-0.054000000000000006,0.042,1.7188740000000002,0.6875496,0.286479,113.01023592,-86.26455648,-135.92855592
6.74,674,-0.998,-0.055,0.043,1.9480572,0.7448454000000001,0.1718874,112.93002179999999,-86.27028606,-135.83115306
6.75,675,-1.0,-0.057999999999999996,0.044000000000000004,2.1772404,0.9740286,0.0,113.07326129999998,-86.27028606,-135.95147424
6.76,676,-1.001,-0.057,0.045,2.2345362,1.0313244000000001,0.057295800000000015,112.94721054,-86.27601564,-135.80250516
6.77,677,-1.002,-0.057999999999999996,0.047,2.1772404,0.9167328000000001,0.0,112.83261894,-86.27601564,-135.66499524
6.78,678,-1.003,-0.059000000000000004,0.046,2.0626488000000003,0.7448454000000001,0.0,112.74667524000002,-86.28174521999998,-135.55613322
6.79,679,-1.0,-0.059000000000000004,0.047,1.7761698000000001,0.6302538000000001,-0.1718874,112.65500196,-86.28174521999998,-135.4472712
6.8,680,-0.998,-0.06,0.044000000000000004,1.7761698000000001,0.4583664000000001,-0.057295800000000015,112.87845558,-86.27601564,-135.65353607999998
6.81,681,-0.998,-0.061,0.043,1.7188740000000002,0.4583664000000001,0.0,112.82115978,-86.27601564,-135.57905154
6.82,682,-0.9990000000000001,-0.06,0.04,1.8907614,0.6302538000000001,0.057295800000000015,112.74667524000002,-86.27601564,-135.48164868
6.83,683,-0.9990000000000001,-0.06,0.039,2.0626488000000003,0.6302538000000001,0.0,112.67792028,-86.28174521999998,-135.3899754
6.84,684,-0.998,-0.061,0.042,2.0053530000000004,0.4583664000000001,0.0,112.62635406,-86.28174521999998,-135.31549086
6.85,685,-0.998,-0.06,0.043,1.8907614,0.3437748,0.0,112.88991474,-86.27601564,-135.5618628
6.86,686,-1.0,-0.057999999999999996,0.042,1.7761698000000001,0.286479,0.0,112.86126684,-86.27601564,-135.51602616
6.87,687,-0.9990000000000001,-0.059000000000000004,0.045,1.7188740000000002,0.3437748,0.0,112.82115978,-86.27601564,-135.45873036
6.88,688,-0.997,-0.064,0.049,1.432395,0.4583664000000001,0.0,112.76959356,-86.28174521999998,-135.3899754
6.89,689,-0.996,-0.064,0.048,1.3178034,0.3437748,0.286479,112.75240482,-86.28747480000001,-135.3613275
6.9,690,-0.996,-0.062,0.046,1.2032118,0.286479,0.5156622000000001,113.11909794,-86.27601564,-135.71656146
6.91,691,-0.996,-0.061,0.043,1.0886202,0.572958,0.6302538000000001,113.08472046,-86.28174521999998,-135.66499524
6.92,692,-0.997,-0.06,0.040999999999999995,1.3178034,0.7448454000000001,0.6875496,113.03315424,-86.29320437999998,-135.60196986
6.93,693,-0.998,-0.06,0.044000000000000004,1.3750992,0.5156622000000001,0.7448454000000001,113.02169508,-86.30466354,-135.57332196
6.9399999999999995,694,-1.001,-0.06,0.048,1.2032118,0.40107059999999994,0.6875496,113.01023592,-86.31039312,-135.55040364
6.95,695,-1.003,-0.06,0.05,0.9740286,0.5156622000000001,0.7448454000000001,113.3597403,-86.31039312,-135.89417844
6.96,696,-1.004,-0.059000000000000004,0.047,0.8021411999999999,0.6875496,0.6875496,113.31390366,-86.32185228,-135.83688264
6.97,697,-1.001,-0.059000000000000004,0.047,0.8021411999999999,0.6875496,0.8021411999999999,113.26806702,-86.32758186,-135.78531642000002
6.9799999999999995,698,-1.001,-0.059000000000000004,0.047,0.8594370000000001,0.6875496,0.8594370000000001,113.22795996,-86.33904102,-135.73375019999997
6.99,699,-1.0,-0.057,0.046,0.8021411999999999,0.6875496,0.8021411999999999,113.18785289999998,-86.35050018,-135.68791356
7.0,700,-1.001,-0.055999999999999994,0.046,0.8594370000000001,0.8021411999999999,0.8021411999999999,113.43995442,-86.35622975999998,-135.92282633999997
7.01,701,-1.0,-0.057,0.044000000000000004,0.9167328000000001,1.145916,0.8021411999999999,113.33109240000002,-86.36768892,-135.80823474
7.02,702,-1.001,-0.057,0.044000000000000004,1.145916,1.3178034,0.8021411999999999,113.19931206,-86.38487766,-135.66499524
7.03,703,-0.9990000000000001,-0.057,0.046,1.145916,1.3178034,0.8021411999999999,113.06753172,-86.39633682,-135.52175574
7.04,704,-1.001,-0.055999999999999994,0.048,0.9740286,1.2032118,0.8021411999999999,112.95294012,-86.40779597999996,-135.39570498
7.05,705,-1.002,-0.055,0.046,0.7448454000000001,1.145916,0.7448454000000001,113.22223038,-86.41352556000002,-135.65353607999998
7.06,706,-1.001,-0.055999999999999994,0.046,0.6302538000000001,1.0886202,0.6302538000000001,113.10763878,-86.42498472,-135.53321490000002
7.07,707,-1.001,-0.055999999999999994,0.046,0.5156622000000001,1.145916,0.5156622000000001,112.97585844,-86.43644388,-135.40143456
7.08,708,-1.001,-0.057999999999999996,0.047,0.40107059999999994,1.2605076000000002,0.4583664000000001,112.82688936,-86.44217346,-135.24100632
7.09,709,-1.0,-0.057,0.046,0.4583664000000001,1.145916,0.5156622000000001,112.68937944,-86.45363262000002,-135.10349639999998
7.1,710,-0.9990000000000001,-0.057999999999999996,0.045,0.3437748,1.3178034,0.5156622000000001,112.92429222,-86.45363262000002,-135.33267959999998
7.11,711,-0.9990000000000001,-0.055999999999999994,0.044000000000000004,0.1718874,1.2605076000000002,0.4583664000000001,112.76959356,-86.4593622,-135.17225136
7.12,712,-0.9990000000000001,-0.055999999999999994,0.044000000000000004,0.0,1.145916,0.5156622000000001,112.63208364,-86.47082136,-135.04047101999998
7.13,713,-0.997,-0.055,0.044000000000000004,0.0,1.145916,0.40107059999999994,112.48311456000002,-86.48228051999996,-134.89150193999998
7.14,714,-0.9990000000000001,-0.054000000000000006,0.040999999999999995,0.057295800000000015,1.0313244000000001,0.3437748,112.35133422,-86.48801010000004,-134.75399202
7.15,715,-1.0,-0.055,0.040999999999999995,0.2291832000000001,1.0313244000000001,0.286479,112.71802733999998,-86.48801010000004,-135.12068514
7.16,716,-1.0,-0.055,0.046,0.0,1.3178034,0.1718874,112.53468078,-86.49373968,-134.93733858
7.17,717,-0.997,-0.054000000000000006,0.043,-0.057295800000000015,1.7761698000000001,0.057295800000000015,112.27684968,-86.49946926,-134.67950748
7.18,718,-0.996,-0.052000000000000005,0.038,-0.2291832000000001,1.0886202,-0.057295800000000015,112.10496228,-86.50519884,-134.50762007999998
7.1899999999999995,719,-0.9990000000000001,-0.052000000000000005,0.039,-0.40107059999999994,0.40107059999999994,-0.40107059999999994,112.00755942,-86.50519884,-134.41021722
7.2,720,-0.9990000000000001,-0.054000000000000006,0.039,-0.6875496,0.11459160000000004,-0.8021411999999999,112.28830883999998,-86.48801010000004,-134.7024258
7.21,721,-0.996,-0.055,0.038,-0.3437748,-0.11459160000000004,-0.9167328000000001,112.25393136,-86.48228051999996,-134.66804832
7.22,722,-0.995,-0.06,0.04,-0.057295800000000015,-0.057295800000000015,-0.9167328000000001,112.20809472,-86.47082136,-134.62221168
7.2299999999999995,723,-0.995,-0.065,0.043,-0.286479,0.286479,-0.6875496,112.11069186,-86.46509178,-134.5305384
7.24,724,-0.996,-0.066,0.048,-0.8021411999999999,0.057295800000000015,-0.5156622000000001,112.05912564,-86.4593622,-134.48470176
7.25,725,-0.998,-0.065,0.051,-1.3750992,-0.2291832000000001,-0.11459160000000004,112.57478784,-86.43071429999998,-135.01182312
7.26,726,-0.997,-0.061,0.047,-1.7761698000000001,-0.3437748,0.1718874,112.62635406,-86.43071429999998,-135.08630766000002
7.27,727,-0.993,-0.059000000000000004,0.035,-1.7761698000000001,0.0,0.286479,112.63208364,-86.43071429999998,-135.11495556
7.28,728,-0.993,-0.059000000000000004,0.034,-1.4896908000000002,0.0,0.3437748,112.6435428,-86.43644388,-135.13787387999997
7.29,729,-0.9940000000000001,-0.057,0.039,-1.2032118,0.0,0.4583664000000001,112.66646112,-86.43644388,-135.17225136
7.3,730,-0.997,-0.057,0.042,-1.145916,-0.057295800000000015,0.5156622000000001,113.08472046,-86.43644388,-135.60196986
7.31,731,-1.002,-0.055,0.043,-1.145916,-0.11459160000000004,0.40107059999999994,113.12482752,-86.43644388,-135.65353607999998
7.32,732,-1.002,-0.054000000000000006,0.044000000000000004,-1.2605076000000002,0.057295800000000015,0.2291832000000001,113.11909794,-86.44217346,-135.65926566000002
7.33,733,-1.001,-0.051,0.044000000000000004,-1.145916,0.0,0.057295800000000015,113.11909794,-86.44217346,-135.67645439999998
7.34,734,-1.002,-0.052000000000000005,0.044000000000000004,-0.9740286,-0.1718874,-0.11459160000000004,113.13628667999998,-86.43644388,-135.69937272
7.35,735,-1.003,-0.053,0.046,-0.7448454000000001,-0.057295800000000015,-0.286479,113.89259124,-86.42498472,-136.46140686
7.36,736,-1.003,-0.054000000000000006,0.044000000000000004,-0.6302538000000001,0.11459160000000004,-0.5156622000000001,113.83529543999998,-86.41925513999998,-136.41557022
7.37,737,-1.003,-0.055999999999999994,0.045,-0.6302538000000001,0.057295800000000015,-0.572958,113.78372922,-86.41352556000002,-136.364004
7.38,738,-1.004,-0.055999999999999994,0.046,-0.572958,-0.1718874,-0.6875496,113.76081090000002,-86.40779597999996,-136.34681526
7.39,739,-1.003,-0.055999999999999994,0.047,-0.6302538000000001,-0.2291832000000001,-0.8021411999999999,113.73789258,-86.40206640000002,-136.32962652
7.4,740,-1.001,-0.057999999999999996,0.046,-0.6302538000000001,-0.057295800000000015,-0.9167328000000001,114.16188149999999,-86.37341849999999,-136.75934502
7.41,741,-1.0,-0.057999999999999996,0.047,-0.6302538000000001,0.0,-0.7448454000000001,114.09885612,-86.36768892,-136.70777880000003
7.42,742,-1.001,-0.057999999999999996,0.046,-0.572958,0.2291832000000001,-0.6302538000000001,114.01864199999999,-86.36195934,-136.63329426
7.43,743,-1.0,-0.057999999999999996,0.042,-0.40107059999999994,0.4583664000000001,-0.5156622000000001,113.90977998,-86.36195934,-136.52443223999998
7.4399999999999995,744,-1.001,-0.057,0.042,-0.11459160000000004,0.572958,-0.572958,113.78372922,-86.35622975999998,-136.40411106
7.45,745,-1.0,-0.059000000000000004,0.045,-0.11459160000000004,0.7448454000000001,-0.6875496,114.03010116,-86.33904102,-136.650483
7.46,746,-1.002,-0.06,0.044000000000000004,-0.11459160000000004,0.7448454000000001,-0.6875496,113.88113208,-86.33904102,-136.50151392
7.47,747,-1.003,-0.06,0.046,-0.1718874,0.7448454000000001,-0.6875496,113.72643342,-86.33331144,-136.34681526
7.4799999999999995,748,-1.002,-0.06,0.047,-0.2291832000000001,0.7448454000000001,-0.6302538000000001,113.57173476,-86.33331144,-136.19784618
7.49,749,-1.002,-0.064,0.049,-0.572958,0.6875496,-0.6302538000000001,113.42849526,-86.32758186,-136.06033626
7.5,750,-1.0,-0.064,0.05,-0.8594370000000001,0.6875496,-0.4583664000000001,113.73789258,-86.30466354,-136.38119274000002
7.51,751,-0.997,-0.063,0.046,-1.0886202,0.6875496,-0.1718874,113.62330098,-86.30466354,-136.27233072
7.52,752,-0.997,-0.062,0.044000000000000004,-1.145916,0.6302538000000001,0.0,113.51443896,-86.31039312,-136.17492786
7.53,753,-0.998,-0.062,0.044000000000000004,-1.0886202,0.572958,0.0,113.42276568,-86.31039312,-136.09471374
7.54,754,-0.9990000000000001,-0.062,0.042,-0.9740286,0.6302538000000001,0.11459160000000004,113.33682198,-86.31612270000002,-136.01449962
7.55,755,-0.998,-0.06,0.042,-0.8594370000000001,0.40107059999999994,0.2291832000000001,113.54308686,-86.31039312,-136.23795324
7.56,756,-0.998,-0.057999999999999996,0.039,-0.6875496,0.286479,0.2291832000000001,113.50870938,-86.31612270000002,-136.20930534
