TimeStamp(s),FrameCounter,AccX,AccY,AccZ,GyrX,GyrY,GyrZ,EulerX,EulerY,EulerZ
0.01,1,-0.011000000000000001,-0.996,0.124,-1.5469866,4.4117766,0.6875496,97.75809396,-0.36096354,-45.979879499999996
0.02,2,-0.013999999999999999,-1.0,0.126,-1.432395,4.297185,0.7448454000000001,97.7466348,-0.37815228,-45.93977244
0.03,3,-0.018000000000000002,-1.002,0.126,-1.432395,4.3544808,0.7448454000000001,97.72944606,-0.38961144,-45.89966538
0.04,4,-0.02,-1.004,0.125,-1.2605076000000002,4.4117766,0.7448454000000001,97.71225732,-0.40680018,-45.85955832
0.05,5,-0.016,-1.006,0.122,-0.8594370000000001,4.2398892,0.7448454000000001,97.68360942,-0.41825934,-45.81945126
0.060000000000000005,6,-0.013000000000000001,-1.005,0.12300000000000001,-0.5156622000000001,4.1252976000000015,0.7448454000000001,97.67787984,-0.43544808,-45.7793442
0.06999999999999999,7,-0.01,-1.005,0.126,-0.1718874,4.010706000000001,0.7448454000000001,97.67215026,-0.44690724,-45.74496672
0.08,8,-0.009000000000000001,-1.005,0.131,-0.1718874,4.1825934,0.6875496,97.67215026,-0.46409598,-45.70485966
0.09,9,-0.01,-1.005,0.131,-0.286479,4.2398892,0.8594370000000001,97.66642068,-0.47555514,-45.65902302
0.09999999999999999,10,-0.009000000000000001,-1.005,0.129,-0.40107059999999994,4.3544808,1.0313244000000001,97.64350236,-0.49274388,-45.62464554
0.11,11,-0.008,-1.004,0.127,-0.3437748,4.010706000000001,1.0886202,97.64350236,-0.5099326200000001,-45.584538480000006
0.12,12,-0.008,-1.003,0.128,-0.5156622000000001,3.6669312000000014,1.0886202,97.6320432,-0.52712136,-45.550160999999996
0.13,13,-0.01,-1.003,0.127,-0.7448454000000001,3.4950437999999995,1.0886202,97.62631362,-0.5443101,-45.51578352
0.14,14,-0.01,-1.003,0.126,-0.8594370000000001,3.4377480000000005,0.8594370000000001,97.61485446,-0.55576926,-45.48713562
0.15000000000000002,15,-0.011000000000000001,-1.001,0.124,-0.7448454000000001,3.2085647999999996,0.6875496,97.58047698,-0.56722842,-45.45848772
0.16,16,-0.012,-0.9990000000000001,0.122,0.057295800000000015,2.9220858,0.6302538000000001,97.58047698,-0.5786875800000001,-45.42983982
0.17,17,-0.012,-0.9990000000000001,0.12300000000000001,1.0313244000000001,2.5210152000000003,0.6302538000000001,97.59193614,-0.59014674,-45.4069215
0.18000000000000002,18,-0.01,-1.001,0.13,1.3750992,2.5210152000000003,0.6875496,97.60912488,-0.59587632,-45.38400318
0.19,19,-0.01,-1.004,0.136,0.9167328000000001,2.6929026,0.6875496,97.61485446,-0.6073354799999999,-45.35535528000001
0.2,20,-0.009000000000000001,-1.006,0.13699999999999998,0.057295800000000015,3.0366774,0.7448454000000001,97.59766572,-0.61306506,-45.33243696
0.21000000000000002,21,-0.008,-1.0070000000000001,0.135,-0.7448454000000001,3.2085647999999996,0.6875496,97.59193614,-0.6302538000000001,-45.29805948
0.22,22,-0.006999999999999999,-1.006,0.127,-1.6042823999999998,3.2658606,0.572958,97.5747474,-0.64171296,-45.26941158
0.23,23,-0.005,-1.002,0.124,-1.7761698000000001,3.2658606,0.6875496,97.55755866,-0.65317212,-45.24076368
0.24000000000000002,24,-0.003,-0.997,0.12300000000000001,-1.6615782,2.9220858,0.6875496,97.53464034,-0.66463128,-45.21211578
0.25,25,-0.003,-0.993,0.12300000000000001,-1.4896908000000002,2.4064236,0.6302538000000001,97.50026286,-0.66463128,-45.19492704
0.26,26,-0.005,-0.991,0.12300000000000001,-1.2605076000000002,2.0053530000000004,0.572958,97.48307412,-0.67609044,-45.17200872
0.27,27,-0.006999999999999999,-0.992,0.12300000000000001,-1.145916,1.6615782,0.40107059999999994,97.47161496,-0.68182002,-45.15481998
0.28,28,-0.006999999999999999,-0.9940000000000001,0.12300000000000001,-0.8594370000000001,1.6042823999999998,0.40107059999999994,97.46588538,-0.6875496,-45.14336082
0.29000000000000004,29,-0.009000000000000001,-0.997,0.12300000000000001,-0.6875496,1.5469866,0.40107059999999994,97.45442622,-0.69327918,-45.12617208
0.3,30,-0.008,-0.997,0.122,-0.5156622000000001,1.432395,0.40107059999999994,97.40858958,-0.6875496,-45.120442499999996
0.31,31,-0.008,-0.996,0.122,-0.5156622000000001,1.2605076000000002,0.286479,97.40286,-0.69327918,-45.10898334
0.32,32,-0.008,-0.993,0.124,-0.5156622000000001,1.2032118,0.3437748,97.39713042,-0.69900876,-45.09752418000001
0.33,33,-0.006999999999999999,-0.992,0.12300000000000001,-0.6302538000000001,1.145916,0.3437748,97.39140084,-0.70473834,-45.08606502
0.34,34,-0.006999999999999999,-0.992,0.122,-0.5156622000000001,0.9740286,0.40107059999999994,97.38567126,-0.7104679199999999,-45.08033544
0.35000000000000003,35,-0.006,-0.996,0.121,-0.40107059999999994,0.8021411999999999,0.40107059999999994,97.3169163,-0.69900876,-45.08033544
0.36000000000000004,36,-0.005,-0.9990000000000001,0.121,-0.1718874,0.5156622000000001,0.4583664000000001,97.3169163,-0.70473834,-45.07460586000001
0.37,37,-0.008,-0.9990000000000001,0.121,-0.11459160000000004,0.4583664000000001,0.40107059999999994,97.3169163,-0.7104679199999999,-45.07460586000001
0.38,38,-0.013000000000000001,-1.0,0.124,0.0,0.40107059999999994,0.1718874,97.3169163,-0.7104679199999999,-45.06887628
0.39,39,-0.017,-1.002,0.128,-0.1718874,0.8594370000000001,0.0,97.31118672,-0.7104679199999999,-45.0631467
0.4,40,-0.019,-0.998,0.127,-0.2291832000000001,0.9167328000000001,-0.1718874,97.26535008,-0.7104679199999999,-45.05741712
0.41000000000000003,41,-0.016,-0.996,0.128,-0.286479,0.7448454000000001,-0.286479,97.2596205,-0.7104679199999999,-45.05168754
0.42000000000000004,42,-0.012,-0.998,0.125,-0.40107059999999994,0.572958,-0.3437748,97.2596205,-0.7104679199999999,-45.04022838
0.43,43,-0.009000000000000001,-0.997,0.124,-0.40107059999999994,0.4583664000000001,-0.3437748,97.25389092,-0.70473834,-45.034498799999994
0.44,44,-0.008,-0.998,0.125,-0.3437748,0.3437748,-0.40107059999999994,97.24816134,-0.69900876,-45.034498799999994
0.45,45,-0.009000000000000001,-0.998,0.126,-0.40107059999999994,0.5156622000000001,-0.40107059999999994,97.19659512,-0.68182002,-45.034498799999994
0.46,46,-0.012,-0.9990000000000001,0.125,-0.2291832000000001,0.6875496,-0.5156622000000001,97.19659512,-0.67609044,-45.02876922
0.47000000000000003,47,-0.015,-1.0,0.122,-0.1718874,0.9740286,-0.6302538000000001,97.19086554,-0.6703608600000001,-45.01731006
0.48000000000000004,48,-0.015,-1.003,0.121,0.0,1.3178034,-0.7448454000000001,97.19086554,-0.66463128,-45.0058509
0.49,49,-0.013999999999999999,-1.005,0.121,0.1718874,1.4896908000000002,-0.8021411999999999,97.19086554,-0.6589017,-44.98866216
0.5,50,-0.015,-1.004,0.12,0.2291832000000001,1.4896908000000002,-0.8021411999999999,97.15648806,-0.64744254,-44.977203
0.51,51,-0.015,-1.004,0.11900000000000001,0.1718874,1.6042823999999998,-0.6302538000000001,97.15648806,-0.64744254,-44.96001426
0.52,52,-0.013999999999999999,-1.001,0.11800000000000001,0.3437748,1.4896908000000002,-0.572958,97.16221764,-0.64171296,-44.9485551
0.53,53,-0.011000000000000001,-1.001,0.11699999999999999,0.40107059999999994,1.3750992,-0.572958,97.16221764,-0.64171296,-44.93136636
0.54,54,-0.011000000000000001,-1.0,0.11599999999999999,0.5156622000000001,1.145916,-0.40107059999999994,97.16794722,-0.63598338,-44.919907200000004
0.55,55,-0.011000000000000001,-0.9990000000000001,0.115,0.6302538000000001,0.8021411999999999,-0.3437748,97.11065142,-0.6302538000000001,-44.919907200000004
0.56,56,-0.013999999999999999,-0.998,0.11599999999999999,0.9167328000000001,0.6875496,-0.4583664000000001,97.12211058,-0.62452422,-44.91417762
0.5700000000000001,57,-0.017,-0.9990000000000001,0.11800000000000001,1.2032118,0.7448454000000001,-0.6302538000000001,97.13356974,-0.61879464,-44.90271846
0.5800000000000001,58,-0.02,-1.002,0.12,1.2605076000000002,1.145916,-0.6875496,97.1450289,-0.61306506,-44.8912593
0.59,59,-0.02,-1.006,0.12300000000000001,1.2032118,1.3750992,-0.7448454000000001,97.16221764,-0.6073354799999999,-44.87407056
0.6,60,-0.017,-1.008,0.121,1.0886202,1.7761698000000001,-0.6302538000000001,97.1450289,-0.6016058999999999,-44.86261140000001
0.61,61,-0.013000000000000001,-1.008,0.121,0.9167328000000001,1.9480572,-0.5156622000000001,97.15075848,-0.6016058999999999,-44.83969308
0.62,62,-0.01,-1.0070000000000001,0.11900000000000001,0.8594370000000001,1.6042823999999998,-0.40107059999999994,97.16221764,-0.59587632,-44.82250434
0.63,63,-0.006,-1.0070000000000001,0.12,0.8021411999999999,1.145916,-0.3437748,97.16794722,-0.59587632,-44.81104518
0.64,64,-0.009000000000000001,-1.005,0.11699999999999999,0.6875496,1.0313244000000001,-0.1718874,97.1736768,-0.59587632,-44.79958602
0.65,65,-0.012,-1.003,0.11800000000000001,0.8021411999999999,0.9167328000000001,0.0,97.12784016,-0.59587632,-44.79958602
0.66,66,-0.015,-1.002,0.12,0.8021411999999999,0.9167328000000001,0.0,97.13356974,-0.59587632,-44.79385644
0.67,67,-0.017,-1.003,0.11900000000000001,0.8021411999999999,0.9167328000000001,-0.057295800000000015,97.1450289,-0.59587632,-44.78239728
0.68,68,-0.017,-1.004,0.11599999999999999,0.6875496,0.8594370000000001,-0.1718874,97.15075848,-0.59587632,-44.77093812
0.6900000000000001,69,-0.015,-1.005,0.115,0.6302538000000001,0.8021411999999999,-0.11459160000000004,97.15648806,-0.59587632,-44.76520854
0.7000000000000001,70,-0.011000000000000001,-1.003,0.115,0.8021411999999999,0.8021411999999999,-0.057295800000000015,97.09919226,-0.5844171599999999,-44.76520854
0.7100000000000001,71,-0.01,-1.003,0.11699999999999999,0.8021411999999999,0.7448454000000001,-0.11459160000000004,97.10492184,-0.5844171599999999,-44.75947896
0.72,72,-0.01,-1.004,0.11699999999999999,0.6302538000000001,0.7448454000000001,0.0,97.116381,-0.5844171599999999,-44.7480198
0.73,73,-0.009000000000000001,-1.004,0.11599999999999999,0.572958,0.8594370000000001,0.0,97.12211058,-0.59014674,-44.74229022
0.74,74,-0.008,-1.004,0.11599999999999999,0.572958,0.8021411999999999,0.0,97.12784016,-0.59014674,-44.73656064
0.75,75,-0.009000000000000001,-1.003,0.11599999999999999,0.572958,0.8021411999999999,0.0,97.05335562,-0.5786875800000001,-44.73656064
0.76,76,-0.011000000000000001,-1.004,0.11599999999999999,0.572958,0.7448454000000001,0.057295800000000015,97.05908520000001,-0.5786875800000001,-44.73083106
0.77,77,-0.015,-1.002,0.113,0.5156622000000001,0.7448454000000001,0.1718874,97.06481478,-0.5844171599999999,-44.72510148
0.78,78,-0.017,-1.002,0.114,0.8021411999999999,0.8021411999999999,0.11459160000000004,97.07054436,-0.5844171599999999,-44.71364232000001
0.79,79,-0.015,-1.002,0.11599999999999999,1.0313244000000001,1.0886202,0.0,97.08200352,-0.59014674,-44.70218316
0.8,80,-0.013999999999999999,-1.002,0.11599999999999999,1.2032118,1.2605076000000002,0.0,97.05908520000001,-0.5844171599999999,-44.69645358
0.81,81,-0.011000000000000001,-1.002,0.11699999999999999,1.2605076000000002,1.432395,0.11459160000000004,97.07054436,-0.59014674,-44.68499442
0.8200000000000001,82,-0.01,-1.003,0.11800000000000001,1.2032118,1.3178034,0.11459160000000004,97.08200352,-0.59587632,-44.66780568
0.8300000000000001,83,-0.011000000000000001,-1.002,0.11900000000000001,1.2032118,1.2605076000000002,0.2291832000000001,97.09346268,-0.59587632,-44.65634652
0.8400000000000001,84,-0.01,-1.002,0.12,1.3178034,1.145916,0.2291832000000001,97.11065142,-0.6016058999999999,-44.64488736
0.85,85,-0.01,-1.003,0.11900000000000001,1.145916,0.9740286,0.1718874,97.07627394,-0.59587632,-44.64488736
0.86,86,-0.01,-1.004,0.11800000000000001,0.5156622000000001,0.1718874,0.2291832000000001,97.08200352,-0.6016058999999999,-44.63915778
0.87,87,-0.009000000000000001,-1.004,0.11800000000000001,0.3437748,0.057295800000000015,0.1718874,97.0877331,-0.6016058999999999,-44.63915778
0.88,88,-0.01,-1.004,0.12,0.4583664000000001,0.0,0.11459160000000004,97.09346268,-0.6016058999999999,-44.63915778
0.89,89,-0.011000000000000001,-1.004,0.121,0.5156622000000001,0.0,0.11459160000000004,97.09919226,-0.6016058999999999,-44.63915778
0.9,90,-0.011000000000000001,-1.004,0.121,0.5156622000000001,0.11459160000000004,0.1718874,97.03616688,-0.59014674,-44.64488736
0.91,91,-0.011000000000000001,-1.003,0.12,0.4583664000000001,0.40107059999999994,0.286479,97.04189646,-0.59587632,-44.64488736
0.92,92,-0.011000000000000001,-1.004,0.11900000000000001,0.5156622000000001,0.3437748,0.4583664000000001,97.04762603999998,-0.6016058999999999,-44.63915778
0.93,93,-0.01,-1.004,0.11900000000000001,0.4583664000000001,0.11459160000000004,0.40107059999999994,97.05335562,-0.6073354799999999,-44.63915778
0.9400000000000001,94,-0.009000000000000001,-1.003,0.11699999999999999,0.286479,0.1718874,0.3437748,97.05335562,-0.6073354799999999,-44.63915778
0.9500000000000001,95,-0.009000000000000001,-1.005,0.11599999999999999,0.1718874,0.286479,0.3437748,96.96168234,-0.59014674,-44.650616940000006
0.9600000000000001,96,-0.01,-1.005,0.114,0.11459160000000004,0.6302538000000001,0.286479,96.96168234,-0.59587632,-44.64488736
0.97,97,-0.009000000000000001,-1.005,0.114,0.11459160000000004,0.8021411999999999,0.2291832000000001,96.96168234,-0.6016058999999999,-44.63915778
0.98,98,-0.008,-1.006,0.114,0.057295800000000015,0.8021411999999999,0.2291832000000001,96.96168234,-0.6016058999999999,-44.62769862
0.99,99,-0.006999999999999999,-1.0070000000000001,0.11699999999999999,0.057295800000000015,0.8021411999999999,0.1718874,96.96168234,-0.6073354799999999,-44.62196904
1.0,100,-0.006999999999999999,-1.006,0.11900000000000001,-0.1718874,1.0886202,0.057295800000000015,96.91011612,-0.59014674,-44.61623946
1.01,101,-0.006,-1.006,0.122,-0.286479,1.145916,0.057295800000000015,96.91011612,-0.59014674,-44.604780299999994
1.02,102,-0.004,-1.005,0.12300000000000001,-0.5156622000000001,0.9167328000000001,0.057295800000000015,96.90438654,-0.59587632,-44.59905072
1.03,103,-0.002,-1.004,0.124,-0.7448454000000001,0.5156622000000001,0.057295800000000015,96.89292738,-0.59587632,-44.59332114
1.04,104,-0.001,-1.0070000000000001,0.12300000000000001,-0.7448454000000001,0.11459160000000004,0.0,96.8871978,-0.59587632,-44.59332114
1.05,105,-0.002,-1.0070000000000001,0.12,-0.8594370000000001,0.0,0.0,96.80698368,-0.55576926,-44.604780299999994
1.06,106,-0.002,-1.003,0.12,-0.8021411999999999,0.11459160000000004,0.0,96.8012541,-0.55576926,-44.59905072
1.07,107,-0.004,-1.003,0.11900000000000001,-0.9167328000000001,0.057295800000000015,-0.057295800000000015,96.78979494,-0.55576926,-44.59905072
1.08,108,-0.005,-1.002,0.11599999999999999,-1.0886202,0.11459160000000004,-0.11459160000000004,96.77833578,-0.55576926,-44.59905072
1.09,109,-0.004,-1.003,0.11599999999999999,-0.9167328000000001,0.0,-0.1718874,96.76687662,-0.55576926,-44.59905072
1.1,110,-0.003,-1.002,0.115,-0.6875496,-0.1718874,-0.057295800000000015,96.68093292,-0.5099326200000001,-44.61623946
1.11,111,-0.004,-1.002,0.11800000000000001,-0.5156622000000001,-0.286479,0.0,96.67520334,-0.5099326200000001,-44.61623946
1.12,112,-0.004,-1.002,0.121,-0.5156622000000001,-0.40107059999999994,0.0,96.66947376,-0.5099326200000001,-44.62196904
1.1300000000000001,113,-0.005,-1.004,0.12,-0.6302538000000001,-0.4583664000000001,-0.057295800000000015,96.6580146,-0.5099326200000001,-44.62769862
1.1400000000000001,114,-0.004,-1.003,0.11900000000000001,-0.8021411999999999,-0.5156622000000001,-0.2291832000000001,96.65228502,-0.5042030399999999,-44.6334282
1.1500000000000001,115,-0.006999999999999999,-1.002,0.11900000000000001,-0.6875496,-0.40107059999999994,-0.40107059999999994,96.6007188,-0.4870143000000001,-44.63915778
1.1600000000000001,116,-0.006999999999999999,-1.0,0.11900000000000001,-0.5156622000000001,-0.286479,-0.4583664000000001,96.59498922000002,-0.48128472,-44.64488736
1.17,117,-0.009000000000000001,-0.9990000000000001,0.11900000000000001,-0.572958,-0.1718874,-0.4583664000000001,96.58925964,-0.47555514,-44.64488736
1.18,118,-0.01,-1.0,0.11699999999999999,-0.572958,-0.057295800000000015,-0.3437748,96.58353006,-0.47555514,-44.64488736
1.19,119,-0.009000000000000001,-1.0,0.11599999999999999,-0.5156622000000001,0.0,-0.3437748,96.57780048,-0.46982556,-44.64488736
1.2,120,-0.011000000000000001,-1.002,0.11599999999999999,-0.2291832000000001,0.11459160000000004,-0.286479,96.49185678,-0.4583664000000001,-44.65634652
1.21,121,-0.012,-1.004,0.11599999999999999,-0.11459160000000004,0.5156622000000001,-0.3437748,96.49185678,-0.4526368200000001,-44.64488736
1.22,122,-0.01,-1.003,0.11699999999999999,-0.2291832000000001,0.7448454000000001,-0.40107059999999994,96.4861272,-0.4526368200000001,-44.63915778
1.23,123,-0.006999999999999999,-1.001,0.11599999999999999,-0.286479,0.6302538000000001,-0.40107059999999994,96.4861272,-0.44690724,-44.6334282
1.24,124,-0.004,-0.9990000000000001,0.11800000000000001,-0.286479,0.3437748,-0.40107059999999994,96.48039762,-0.44690724,-44.62769862
1.25,125,-0.001,-1.001,0.11800000000000001,-0.286479,0.11459160000000004,-0.3437748,96.4001835,-0.38388186,-44.63915778
1.26,126,-0.001,-1.001,0.11800000000000001,-0.2291832000000001,0.0,-0.286479,96.4001835,-0.37815228,-44.63915778
1.27,127,-0.002,-1.002,0.12,-0.2291832000000001,-0.2291832000000001,-0.2291832000000001,96.39445392000002,-0.3724227000000001,-44.63915778
1.28,128,-0.005,-1.005,0.121,-0.11459160000000004,-0.3437748,-0.2291832000000001,96.39445392000002,-0.3724227000000001,-44.64488736
1.29,129,-0.006999999999999999,-1.005,0.12,-0.1718874,-0.4583664000000001,-0.3437748,96.38872434,-0.36669312,-44.650616940000006
1.3,130,-0.006,-1.005,0.12,-0.2291832000000001,-0.40107059999999994,-0.3437748,96.35434686,-0.34950438,-44.65634652
1.31,131,-0.006999999999999999,-1.004,0.12,-0.286479,-0.5156622000000001,-0.3437748,96.34861728,-0.3437748,-44.6620761
1.32,132,-0.005,-1.002,0.12,-0.3437748,-0.6302538000000001,-0.286479,96.34861728,-0.3437748,-44.66780568
1.33,133,-0.004,-1.002,0.121,0.11459160000000004,-0.6302538000000001,0.0,96.34861728,-0.3437748,-44.67353526
1.34,134,-0.006,-1.002,0.121,0.1718874,-0.8594370000000001,0.057295800000000015,96.34861728,-0.33804522,-44.68499442
1.35,135,-0.006999999999999999,-1.003,0.121,0.1718874,-0.8594370000000001,0.11459160000000004,96.32569896,-0.33231564,-44.69645358
1.36,136,-0.008,-1.002,0.121,0.2291832000000001,-0.9167328000000001,0.1718874,96.32569896,-0.33231564,-44.70791274
1.37,137,-0.01,-1.004,0.121,0.11459160000000004,-0.7448454000000001,0.057295800000000015,96.33142854,-0.33231564,-44.71364232000001
1.3800000000000001,138,-0.01,-1.003,0.121,0.11459160000000004,-0.6302538000000001,0.11459160000000004,96.33142854,-0.33231564,-44.7193719
1.3900000000000001,139,-0.008,-1.003,0.121,0.1718874,-0.6875496,0.0,96.33142854,-0.32658606,-44.72510148
1.4000000000000001,140,-0.006999999999999999,-1.003,0.122,0.11459160000000004,-0.6875496,0.057295800000000015,96.30278064,-0.32085648,-44.73656064
1.4100000000000001,141,-0.008,-1.003,0.12300000000000001,0.11459160000000004,-0.7448454000000001,0.11459160000000004,96.30278064,-0.32085648,-44.7480198
1.42,142,-0.009000000000000001,-1.003,0.122,0.057295800000000015,-0.8021411999999999,0.1718874,96.30278064,-0.32085648,-44.75374938
1.43,143,-0.009000000000000001,-1.003,0.122,0.0,-0.9740286,0.1718874,96.30278064,-0.32085648,-44.76520854
1.44,144,-0.009000000000000001,-1.002,0.121,0.0,-0.9740286,0.11459160000000004,96.30851022,-0.32085648,-44.7766677
1.45,145,-0.009000000000000001,-1.001,0.12,0.0,-0.8594370000000001,0.11459160000000004,96.26267357999998,-0.31512690000000004,-44.78812686
1.46,146,-0.01,-1.001,0.122,0.057295800000000015,-0.8021411999999999,0.11459160000000004,96.26840316,-0.31512690000000004,-44.79958602
1.47,147,-0.01,-1.0,0.122,0.1718874,-0.8594370000000001,0.11459160000000004,96.26840316,-0.31512690000000004,-44.8053156
1.48,148,-0.009000000000000001,-1.001,0.122,0.3437748,-0.9167328000000001,0.2291832000000001,96.27413274,-0.32085648,-44.81677476
1.49,149,-0.008,-1.002,0.124,0.3437748,-0.9167328000000001,0.286479,96.27413274,-0.32085648,-44.82250434
1.5,150,-0.006999999999999999,-1.004,0.12300000000000001,0.3437748,-1.0313244000000001,0.2291832000000001,96.26267357999998,-0.31512690000000004,-44.83969308
1.51,151,-0.005,-1.002,0.121,0.286479,-1.0886202,0.286479,96.26267357999998,-0.31512690000000004,-44.85115224
1.52,152,-0.006,-0.9990000000000001,0.12,0.286479,-1.2032118,0.2291832000000001,96.26840316,-0.31512690000000004,-44.86261140000001
1.53,153,-0.008,-1.0,0.11900000000000001,0.6302538000000001,-1.0313244000000001,0.11459160000000004,96.27413274,-0.31512690000000004,-44.87407056
1.54,154,-0.01,-0.9990000000000001,0.11699999999999999,0.9167328000000001,-1.0313244000000001,0.11459160000000004,96.28559190000001,-0.31512690000000004,-44.88552972
1.55,155,-0.012,-0.9990000000000001,0.11900000000000001,1.3178034,-1.145916,0.0,96.28559190000001,-0.31512690000000004,-44.89698888
1.56,156,-0.012,-0.9990000000000001,0.121,1.432395,-1.0313244000000001,0.057295800000000015,96.29705106,-0.31512690000000004,-44.90844804
1.57,157,-0.012,-1.001,0.121,1.6042823999999998,-0.6875496,0.0,96.3142398,-0.31512690000000004,-44.91417762
1.58,158,-0.011000000000000001,-1.004,0.12300000000000001,1.6615782,-0.286479,0.11459160000000004,96.33142854,-0.31512690000000004,-44.91417762
1.59,159,-0.009000000000000001,-1.0070000000000001,0.124,1.4896908000000002,-0.2291832000000001,0.057295800000000015,96.34861728,-0.31512690000000004,-44.919907200000004
1.6,160,-0.008,-1.008,0.12300000000000001,1.3750992,-0.3437748,0.11459160000000004,96.34288769999999,-0.30939732,-44.92563678000001
1.61,161,-0.008,-1.0070000000000001,0.125,1.145916,-0.1718874,0.11459160000000004,96.35434686,-0.31512690000000004,-44.92563678000001
1.62,162,-0.006999999999999999,-1.006,0.126,1.0886202,0.0,0.11459160000000004,96.36580602,-0.31512690000000004,-44.92563678000001
1.6300000000000001,163,-0.005,-1.005,0.129,1.2032118,-0.1718874,0.1718874,96.38299476,-0.31512690000000004,-44.93136636
1.6400000000000001,164,-0.005,-1.003,0.131,0.9740286,-0.572958,0.1718874,96.38872434,-0.31512690000000004,-44.93709594
1.6500000000000001,165,-0.004,-1.001,0.129,0.9740286,-0.9167328000000001,0.2291832000000001,96.39445392000002,-0.30939732,-44.9485551
1.6600000000000001,166,-0.004,-1.0,0.127,1.0886202,-1.2032118,0.0,96.40591308,-0.30939732,-44.96001426
1.6700000000000002,167,-0.004,-0.998,0.126,1.3178034,-0.8021411999999999,0.0,96.42310182,-0.30939732,-44.96574384
1.68,168,-0.005,-1.0,0.127,1.432395,-0.6875496,0.057295800000000015,96.43456098,-0.30939732,-44.97147342
1.69,169,-0.005,-1.005,0.126,1.2605076000000002,-0.4583664000000001,0.1718874,96.44602014,-0.30939732,-44.977203
1.7,170,-0.005,-1.006,0.124,1.145916,-0.5156622000000001,0.3437748,96.44602014,-0.30366774,-44.98866216
1.71,171,-0.005,-1.005,0.12300000000000001,1.145916,-0.572958,0.40107059999999994,96.45747929999999,-0.30366774,-44.99439174
1.72,172,-0.006,-1.003,0.124,1.0313244000000001,-0.6302538000000001,0.3437748,96.46893846,-0.30939732,-45.00012132
1.73,173,-0.009000000000000001,-1.0,0.12300000000000001,0.9740286,-0.8021411999999999,0.2291832000000001,96.47466804,-0.30939732,-45.0058509
1.74,174,-0.008,-1.0,0.124,1.0313244000000001,-0.8021411999999999,0.11459160000000004,96.4861272,-0.30939732,-45.01731006
1.75,175,-0.006999999999999999,-1.001,0.12300000000000001,1.145916,-1.0313244000000001,0.057295800000000015,96.4861272,-0.30366774,-45.02876922
1.76,176,-0.008,-1.0,0.124,1.432395,-0.8021411999999999,0.057295800000000015,96.49758636,-0.30366774,-45.034498799999994
1.77,177,-0.008,-1.0,0.127,1.7188740000000002,-0.6875496,0.057295800000000015,96.5147751,-0.30366774,-45.04022838
1.78,178,-0.01,-1.002,0.128,1.6042823999999998,-0.5156622000000001,0.11459160000000004,96.53196384,-0.30366774,-45.04595796
1.79,179,-0.011000000000000001,-1.004,0.126,1.3750992,-0.40107059999999994,0.1718874,96.54915258,-0.30366774,-45.05168754
1.8,180,-0.012,-1.002,0.124,1.3178034,-0.11459160000000004,0.11459160000000004,96.53769342,-0.30939732,-45.05741712
1.81,181,-0.013999999999999999,-1.002,0.127,1.3750992,0.057295800000000015,0.11459160000000004,96.55488216,-0.30939732,-45.05168754
1.82,182,-0.013000000000000001,-1.002,0.128,1.6042823999999998,0.40107059999999994,0.11459160000000004,96.5720709,-0.31512690000000004,-45.05168754
1.83,183,-0.01,-1.002,0.129,1.4896908000000002,0.6302538000000001,0.057295800000000015,96.58353006,-0.31512690000000004,-45.04022838
1.84,184,-0.006,-1.0,0.129,1.3750992,0.572958,0.0,96.6007188,-0.31512690000000004,-45.034498799999994
1.85,185,-0.005,-1.001,0.129,1.3750992,0.286479,0.057295800000000015,96.6007188,-0.30939732,-45.034498799999994
1.86,186,-0.004,-1.003,0.129,1.4896908000000002,0.1718874,0.11459160000000004,96.61217795999998,-0.30939732,-45.034498799999994
1.87,187,-0.005,-1.006,0.131,1.3750992,0.1718874,0.057295800000000015,96.6293667,-0.30939732,-45.02876922
1.8800000000000001,188,-0.004,-1.005,0.132,1.3178034,0.286479,0.286479,96.64082586,-0.31512690000000004,-45.02876922
1.8900000000000001,189,-0.005,-1.002,0.134,1.145916,0.3437748,0.2291832000000001,96.65228502,-0.32085648,-45.02303963999999
1.9000000000000001,190,-0.006,-1.002,0.133,0.9167328000000001,0.4583664000000001,0.286479,96.65228502,-0.31512690000000004,-45.02303963999999
1.9100000000000001,191,-0.006999999999999999,-1.003,0.132,0.7448454000000001,0.4583664000000001,0.1718874,96.6580146,-0.32085648,-45.01731006
1.9200000000000002,192,-0.006999999999999999,-1.002,0.132,0.9167328000000001,0.40107059999999994,0.11459160000000004,96.66947376,-0.32085648,-45.01158048
1.93,193,-0.009000000000000001,-1.002,0.131,0.9167328000000001,0.5156622000000001,0.11459160000000004,96.68093292,-0.32085648,-45.0058509
1.94,194,-0.006999999999999999,-1.001,0.133,1.0886202,0.5156622000000001,0.286479,96.69239208,-0.32658606,-45.00012132
1.95,195,-0.008,-1.001,0.134,0.9740286,0.572958,0.286479,96.69239208,-0.32085648,-45.00012132
1.96,196,-0.005,-1.003,0.134,0.9167328000000001,0.5156622000000001,0.3437748,96.69812166,-0.32658606,-44.99439174
1.97,197,-0.006,-1.001,0.131,0.8594370000000001,0.5156622000000001,0.286479,96.70958082,-0.33231564,-44.98866216
1.98,198,-0.005,-1.002,0.133,0.7448454000000001,0.5156622000000001,0.4583664000000001,96.7153104,-0.33804522,-44.98293258
1.99,199,-0.005,-1.0,0.132,0.7448454000000001,0.572958,0.3437748,96.72676956,-0.33804522,-44.977203
2.0,200,-0.006999999999999999,-0.9990000000000001,0.133,0.9167328000000001,0.5156622000000001,0.3437748,96.72103998,-0.33804522,-44.977203
2.01,201,-0.006,-1.0,0.133,0.9740286,0.5156622000000001,0.286479,96.73249914,-0.3437748,-44.97147342
2.02,202,-0.006,-1.0,0.134,0.9740286,0.4583664000000001,0.286479,96.73822872,-0.3437748,-44.96574384
2.03,203,-0.006999999999999999,-1.002,0.134,1.0313244000000001,0.4583664000000001,0.2291832000000001,96.74968788,-0.34950438,-44.96001426
2.04,204,-0.006999999999999999,-1.001,0.133,0.9740286,0.4583664000000001,0.286479,96.76114704,-0.34950438,-44.95428468
2.05,205,-0.006,-0.9990000000000001,0.134,1.2032118,0.3437748,0.286479,96.76114704,-0.3437748,-44.95428468
2.0599999999999996,206,-0.006,-0.9990000000000001,0.133,1.3178034,0.3437748,0.2291832000000001,96.77833578,-0.34950438,-44.9485551
2.07,207,-0.006999999999999999,-0.998,0.134,1.4896908000000002,0.40107059999999994,0.11459160000000004,96.78979494,-0.34950438,-44.9485551
2.0799999999999996,208,-0.006999999999999999,-0.998,0.134,1.6615782,0.286479,0.11459160000000004,96.80698368,-0.34950438,-44.94282552
2.09,209,-0.005,-1.001,0.134,1.6042823999999998,0.1718874,0.11459160000000004,96.82417242,-0.35523396,-44.94282552
2.0999999999999996,210,-0.003,-1.003,0.135,1.4896908000000002,0.057295800000000015,0.11459160000000004,96.829902,-0.33804522,-44.94282552
2.11,211,-0.002,-1.003,0.135,1.3178034,0.0,0.057295800000000015,96.84136116,-0.33804522,-44.94282552
2.1199999999999997,212,-0.001,-1.004,0.133,1.145916,0.057295800000000015,0.1718874,96.85282032,-0.33804522,-44.94282552
2.13,213,-0.001,-1.001,0.132,1.145916,0.0,0.2291832000000001,96.86427948,-0.3437748,-44.94282552
2.1399999999999997,214,-0.004,-1.001,0.13,1.145916,0.11459160000000004,0.11459160000000004,96.87573864,-0.3437748,-44.94282552
2.15,215,-0.004,-1.0,0.129,1.3178034,0.1718874,0.0,96.86427948,-0.33231564,-44.94282552
2.1599999999999997,216,-0.003,-0.997,0.128,1.432395,0.286479,-0.057295800000000015,96.88146822,-0.33231564,-44.93709594
2.17,217,-0.004,-0.996,0.129,0.40107059999999994,-0.057295800000000015,-0.2291832000000001,96.88146822,-0.33231564,-44.93709594
2.1799999999999997,218,-0.006,-0.9990000000000001,0.124,0.286479,0.11459160000000004,-0.1718874,96.8871978,-0.32658606,-44.93709594
2.19,219,-0.006,-1.005,0.122,0.7448454000000001,0.3437748,0.0,96.89292738,-0.33231564,-44.93136636
2.1999999999999997,220,-0.005,-1.01,0.127,1.3178034,0.4583664000000001,0.1718874,96.8871978,-0.32658606,-44.93136636
2.21,221,-0.005,-1.008,0.13,1.4896908000000002,0.6302538000000001,0.11459160000000004,96.90438654,-0.32658606,-44.92563678000001
2.2199999999999998,222,-0.006999999999999999,-1.006,0.133,1.2032118,1.2032118,-0.057295800000000015,96.9158457,-0.32658606,-44.90844804
2.23,223,-0.009000000000000001,-1.01,0.13,0.5156622000000001,2.0053530000000004,-0.4583664000000001,96.92157528,-0.32658606,-44.8912593
2.2399999999999998,224,-0.008,-1.013,0.127,-0.40107059999999994,2.5783110000000002,-0.6302538000000001,96.9158457,-0.32085648,-44.86261140000001
2.25,225,-0.002,-1.014,0.128,-1.2032118,2.4637194,-0.8021411999999999,96.89292738,-0.30939732,-44.83969308
2.26,226,0.006999999999999999,-1.016,0.128,-2.3491277999999998,2.4637194,-0.8594370000000001,96.87000906,-0.30939732,-44.81677476
2.27,227,0.016,-1.022,0.124,-3.5523396000000003,2.291832,-0.8594370000000001,96.829902,-0.30366774,-44.79385644
2.28,228,0.021,-1.026,0.11599999999999999,-4.9274388,1.8907614,-0.7448454000000001,96.77833578,-0.29793816,-44.77093812
2.29,229,0.018000000000000002,-1.025,0.111,-5.9014674000000005,1.432395,-0.5156622000000001,96.72103998,-0.29220857999999994,-44.75947896
2.3,230,0.011000000000000001,-1.022,0.109,-6.990087599999999,0.6875496,-0.40107059999999994,96.63509628,-0.28074942,-44.75374938
2.31,231,0.006,-1.02,0.106,-7.734933000000002,-0.057295800000000015,-0.5156622000000001,96.55488216,-0.28074942,-44.75374938
2.32,232,0.004,-1.0190000000000001,0.10400000000000001,-8.3651868,-0.6302538000000001,-0.8021411999999999,96.46893846,-0.26929026,-44.75947896
2.3299999999999996,233,0.003,-1.018,0.102,-9.0527364,-1.0886202,-1.2032118,96.37726518,-0.25783110000000004,-44.77093812
2.34,234,0.002,-1.0190000000000001,0.098,-9.9121734,-1.2032118,-1.4896908000000002,96.27986232,-0.24064236,-44.78239728
2.3499999999999996,235,0.003,-1.023,0.09300000000000001,-11.0580894,-1.0886202,-1.6615782,96.15381156,-0.21772404,-44.79385644
2.36,236,0.004,-1.025,0.08900000000000001,-11.9748222,-1.2605076000000002,-1.432395,96.03349038,-0.20626488,-44.8053156
2.3699999999999997,237,0.008,-1.026,0.084,-13.0061466,-1.4896908000000002,-1.2032118,95.90171004,-0.18907614,-44.82250434
2.38,238,0.01,-1.026,0.084,-14.266654199999998,-2.0053530000000004,-0.9740286,95.75847054,-0.17761697999999998,-44.83969308
2.3899999999999997,239,0.012,-1.028,0.079,-15.469866,-2.4637194,-0.9167328000000001,95.59804229999999,-0.16615782,-44.868340980000006
2.4,240,0.013000000000000001,-1.028,0.07,-15.928232399999999,-2.5210152000000003,-0.9167328000000001,95.42615490000001,-0.15469866,-44.89698888
2.4099999999999997,241,0.011000000000000001,-1.028,0.067,-15.9855282,-2.4064236,-0.9167328000000001,95.26572666,-0.14323950000000002,-44.919907200000004
2.42,242,0.009000000000000001,-1.031,0.07200000000000001,-16.558486199999994,-2.4637194,-0.8594370000000001,95.09956884,-0.13178034,-44.94282552
2.4299999999999997,243,0.006999999999999999,-1.034,0.073,-17.7044022,-2.4064236,-0.9740286,94.92195186,-0.12032118,-44.97147342
2.44,244,0.003,-1.034,0.07200000000000001,-18.793022399999998,-2.5210152000000003,-0.9167328000000001,94.72714614,-0.10886202,-44.99439174
2.4499999999999997,245,-0.002,-1.034,0.064,-19.9962342,-2.4637194,-1.0313244000000001,94.52088126,-0.09740286,-45.02303963999999
2.46,246,0.0,-1.031,0.059000000000000004,-20.8556712,-2.4637194,-0.8594370000000001,94.3088868,-0.0859437,-45.05168754
2.4699999999999998,247,0.001,-1.031,0.049,-21.772404,-2.6929026,-0.8594370000000001,94.08543318,-0.07448454,-45.08033544
2.48,248,0.003,-1.034,0.044000000000000004,-22.4599536,-2.6929026,-1.0313244000000001,93.85624998,-0.06302537999999999,-45.10898334
2.4899999999999998,249,0.004,-1.034,0.049,-23.892348600000002,-3.380452200000001,-1.0313244000000001,93.61560762,-0.05156622,-45.14336082
2.5,250,0.006999999999999999,-1.031,0.049,-25.55392680000001,-4.0680017999999984,-0.8021411999999999,93.35204694,-0.04010706,-45.18919746
2.51,251,0.005,-1.035,0.040999999999999995,-27.043617600000005,-3.8961144,-0.572958,93.0770271,-0.03437748,-45.22930452
2.52,252,0.003,-1.042,0.042,-28.4760126,-4.0680017999999984,-0.6875496,92.7905481,-0.02291832,-45.26941158
2.53,253,0.003,-1.0390000000000001,0.039,-30.4240698,-5.042030400000002,-1.0313244000000001,92.48115077999998,-0.01145916,-45.32670738
2.54,254,0.004,-1.035,0.028999999999999998,-34.262888399999994,-5.0993262,-0.9167328000000001,92.13737598,0.0,-45.3782736
2.55,255,0.0,-1.033,0.011000000000000001,-37.299565799999996,-4.6982555999999995,-0.8594370000000001,91.75349412,0.0,-45.42983982
2.56,256,-0.004,-1.0290000000000001,0.001,-40.1643558,-4.7555514,-0.7448454000000001,91.34669394,0.00572958,-45.48140604
2.57,257,-0.008,-1.015,-0.006,-42.5707794,-4.7555514,-0.8594370000000001,90.91124586,0.01718874,-45.53297226
2.5799999999999996,258,-0.006,-1.001,-0.006,-44.175061799999995,-4.7555514,-1.2605076000000002,90.46433862,0.028647900000000007,-45.584538480000006
2.59,259,-0.002,-0.993,0.015,-46.29500640000001,-4.8701430000000006,-1.6615782,89.99451306,0.04010706,-45.64183428
2.5999999999999996,260,0.001,-1.001,0.006,-51.0505578,-4.010706000000001,-1.8907614,89.47885086,0.057295800000000015,-45.68767092
2.61,261,0.002,-1.01,-0.013000000000000001,-56.6082504,-2.6356068,-2.1772404,88.90016328,0.07448454,-45.71631882
2.6199999999999997,262,0.002,-0.988,-0.039,-61.191914399999995,-0.9167328000000001,-2.3491277999999998,88.28136864,0.09167328,-45.73350756000001
2.63,263,0.002,-0.946,-0.075,-62.68160520000001,0.9740286,-2.1772404,87.64538526,0.10886202,-45.73350756000001
2.6399999999999997,264,0.003,-0.92,-0.079,-63.48374640000001,1.5469866,-1.4896908000000002,86.99794272,0.12032118,-45.72777798
2.65,265,0.006,-0.9079999999999999,-0.062,-65.14532460000001,1.2032118,-0.9167328000000001,86.33904102,0.12605075999999998,-45.7220484
2.6599999999999997,266,0.006999999999999999,-0.9009999999999999,-0.07,-68.41118519999999,0.6302538000000001,-0.7448454000000001,85.64576184,0.12605075999999998,-45.7220484
2.67,267,0.006,-0.903,-0.09300000000000001,-70.8176088,0.057295800000000015,-0.6875496,84.92383476,0.12605075999999998,-45.72777798
2.6799999999999997,268,0.003,-0.899,-0.102,-70.93220040000001,0.40107059999999994,-1.5469866,84.20190768,0.13750992,-45.73350756000001
2.69,269,0.002,-0.889,-0.1,-70.7030172,1.6042823999999998,-2.9793816000000004,83.48571018,0.16042824,-45.72777798
2.6999999999999997,270,0.004,-0.883,-0.092,-72.3645954,2.0626488000000003,-4.4117766,82.75232394,0.20053530000000008,-45.7220484
2.71,271,0.012,-0.885,-0.11,-74.65642740000001,3.2658606,-5.3285094000000015,81.9902898,0.25210152,-45.70485966
2.7199999999999998,272,0.018000000000000002,-0.895,-0.131,-75.1147938,5.042030400000002,-5.5576926,81.22825566,0.30366774,-45.67048218
2.73,273,0.027999999999999997,-0.8959999999999999,-0.124,-73.6823988,6.3025379999999975,-5.1566220000000005,80.47768067999998,0.35523396,-45.62464554
2.7399999999999998,274,0.038,-0.887,-0.136,-72.5937786,8.3651868,-4.8128472,79.74429444,0.40680018,-45.55589058
2.75,275,0.042,-0.8759999999999999,-0.141,-71.33327100000002,10.2559482,-4.5263682,79.01663778,0.46409598,-45.46994688
2.76,276,0.044000000000000004,-0.877,-0.127,-70.18735500000001,11.5164558,-3.7815228,78.30616986,0.5099326200000001,-45.37254402
2.77,277,0.05,-0.897,-0.136,-70.4165382,12.4904844,-2.5210152000000003,77.58997236,0.55003968,-45.263682
2.78,278,0.049,-0.903,-0.131,-70.30194660000001,11.802934800000001,-1.0886202,76.87377486,0.5786875800000001,-45.15481998
2.79,279,0.047,-0.909,-0.147,-69.9581718,12.0894138,-0.286479,76.16330694,0.59587632,-45.04595796
2.8,280,0.044000000000000004,-0.9209999999999999,-0.168,-69.61439700000001,11.917526400000002,0.3437748,75.45856859999998,0.61306506,-44.93709594
2.81,281,0.06,-0.927,-0.168,-68.52577679999999,10.313244000000001,1.0313244000000001,74.76528942,0.61879464,-44.83969308
2.82,282,0.062,-0.9229999999999999,-0.18600000000000005,-66.6350154,9.7975818,0.8594370000000001,74.08919897999998,0.6302538000000001,-44.7480198
2.8299999999999996,283,0.057,-0.9279999999999999,-0.193,-64.62966239999999,8.5370742,0.0,73.43029728,0.64171296,-44.67353526
2.84,284,0.055999999999999994,-0.932,-0.18899999999999997,-63.02538000000001,7.8495246,-0.8021411999999999,72.78858432000001,0.66463128,-44.604780299999994
2.8499999999999996,285,0.061,-0.937,-0.195,-61.24921020000001,8.4224826,-1.432395,72.17551926,0.69900876,-44.53602534
2.86,286,0.065,-0.938,-0.217,-59.1865614,9.5111028,-1.0886202,71.57391336,0.72765666,-44.45581122
2.8699999999999997,287,0.07,-0.951,-0.226,-56.72284200000001,9.6256944,0.11459160000000004,70.99522578,0.75057498,-44.36413794
2.88,288,0.07200000000000001,-0.9670000000000001,-0.24600000000000002,-54.4883058,8.7089616,1.7188740000000002,70.44518609999999,0.75057498,-44.28392382
2.8899999999999997,289,0.07200000000000001,-0.9790000000000001,-0.255,-51.68081160000001,7.8495246,2.8074942000000003,69.91806474,0.7448454000000001,-44.20370970000001
2.9,290,0.07400000000000001,-0.981,-0.243,-49.3316838,6.9327918,3.2085647999999996,69.42532086,0.73338624,-44.12922516
2.9099999999999997,291,0.079,-0.977,-0.233,-47.67010560000001,5.9014674000000005,2.9220858,68.93830656,0.72192708,-44.06619978
2.92,292,0.08800000000000001,-0.973,-0.22899999999999998,-46.8106686,4.297185,2.3491277999999998,68.46848100000001,0.7104679199999999,-44.02609272
2.9299999999999997,293,0.105,-0.982,-0.243,-45.893935799999994,2.6929026,1.5469866,67.99865544000001,0.69900876,-43.99744482000001
2.94,294,0.113,-0.991,-0.251,-44.117765999999996,1.0313244000000001,0.9740286,67.55174819999999,0.6875496,-43.98598566
2.9499999999999997,295,0.10800000000000001,-0.997,-0.272,-42.8572584,0.0,0.6875496,67.12775927999999,0.6875496,-43.98598566
2.96,296,0.11199999999999999,-1.002,-0.282,-41.539455,-1.145916,1.2032118,66.70377036,0.66463128,-43.99171524000001
2.9699999999999998,297,0.113,-1.001,-0.29,-40.1643558,-2.5210152000000003,2.1199446,66.29697017999999,0.6302538000000001,-44.01463356000001
2.98,298,0.11800000000000001,-1.0,-0.297,-38.67466500000001,-4.1825934,2.9220858,65.90735873999999,0.5844171599999999,-44.04328146
2.9899999999999998,299,0.125,-1.0070000000000001,-0.31,-37.6433406,-5.3858052,3.4950437999999995,65.52347688,0.52712136,-44.07765894
3.0,300,0.132,-1.014,-0.32299999999999995,-36.7839036,-6.589017,3.7242269999999995,65.15678376,0.47555514,-44.12922516
3.01,301,0.13699999999999998,-1.013,-0.341,-35.4088044,-8.7089616,3.6096353999999997,64.8015498,0.4010706000000001,-44.19225054
3.02,302,0.14,-1.012,-0.35,-33.804522,-11.0007936,3.0366774,64.457775,0.32658606,-44.28392382
3.03,303,0.138,-1.004,-0.345,-32.6013102,-13.3499214,2.0626488000000003,64.12545936000001,0.25210152,-44.39851542
3.04,304,0.131,-0.99,-0.34,-31.627281600000003,-15.068795399999999,0.572958,63.81033246000001,0.17761697999999998,-44.53029576
3.05,305,0.125,-0.982,-0.34600000000000003,-30.8251404,-15.6417534,-0.7448454000000001,63.50666471999999,0.12605075999999998,-44.67926484
3.06,306,0.11900000000000001,-0.976,-0.342,-29.793815999999996,-16.272007199999994,-1.6615782,63.20299698,0.06875496,-44.8339635
3.07,307,0.10800000000000001,-0.973,-0.34700000000000003,-29.335449600000004,-15.813640800000002,-2.2345362,62.910788399999994,0.02291832,-44.98866216
3.08,308,0.10400000000000001,-0.973,-0.354,-29.392745399999995,-15.756345,-2.5210152000000003,62.61285024,-0.02291832,-45.13763124000001
3.09,309,0.11199999999999999,-0.9740000000000001,-0.359,-29.736520199999998,-16.615782,-2.1772404,62.31491208,-0.08021412,-45.29805948
3.0999999999999996,310,0.133,-0.98,-0.385,-30.5386614,-19.194093,-1.4896908000000002,62.01124434000001,-0.14323950000000002,-45.48140604
3.11,311,0.146,-0.973,-0.38799999999999996,-29.9084076,-22.1734746,-1.0886202,61.71330618,-0.23491278,-45.68194134
3.1199999999999997,312,0.14300000000000002,-0.9690000000000001,-0.389,-29.392745399999995,-25.0382646,-1.3750992,61.42109760000001,-0.33804522,-45.91112454
3.13,313,0.145,-0.9670000000000001,-0.408,-29.220858000000003,-28.132237800000002,-2.1772404,61.12888902000001,-0.44690724,-46.17468522
3.1399999999999997,314,0.149,-0.96,-0.413,-28.4760126,-30.5386614,-3.2658606,60.84241002,-0.56149884,-46.45543464000001
3.15,315,0.145,-0.956,-0.41200000000000003,-27.788463,-32.2002396,-4.0680017999999984,60.57884934,-0.6703608600000001,-46.75910238
3.1599999999999997,316,0.139,-0.9520000000000001,-0.40399999999999997,-27.100913399999996,-33.3461556,-4.7555514,60.30955908,-0.7849524600000001,-47.07995886000001
3.17,317,0.133,-0.941,-0.402,-26.642546999999997,-33.403451399999994,-5.2139178,60.04599840000001,-0.89954406,-47.39508576
3.1799999999999997,318,0.139,-0.927,-0.40399999999999997,-26.929026,-33.6326346,-5.7868758000000025,59.78243772,-1.01413566,-47.71594224
3.19,319,0.138,-0.915,-0.40700000000000003,-26.642546999999997,-34.2055926,-5.844171599999999,59.52460662,-1.12872726,-48.04825788
3.1999999999999997,320,0.131,-0.905,-0.405,-26.814434400000003,-34.66395900000001,-5.5576926,59.26677552,-1.23758928,-48.37484394
3.21,321,0.128,-0.883,-0.39899999999999997,-26.5279554,-35.122325399999994,-5.0993262,59.00894442,-1.36936962,-48.70715958
3.2199999999999998,322,0.14,-0.889,-0.415,-27.272800800000002,-36.1536498,-4.583664,58.74538374,-1.50687954,-49.03947522
3.23,323,0.151,-0.9,-0.402,-28.5906042,-38.3308902,-4.1825934,58.4703639,-1.6673077799999998,-49.39470918
3.2399999999999998,324,0.166,-0.889,-0.406,-28.132237800000002,-40.393539000000004,-4.297185,58.20107363999999,-1.8334656000000005,-49.76713188
3.25,325,0.17300000000000001,-0.887,-0.424,-28.5906042,-42.5134836,-4.2398892,57.93751296000001,-1.99962342,-50.15101374
3.26,326,0.17300000000000001,-0.888,-0.414,-29.4500412,-46.1804148,-4.1825934,57.65676354000001,-2.20015872,-50.56927308
3.27,327,0.17300000000000001,-0.88,-0.402,-30.022999199999997,-48.2430636,-4.8701430000000006,57.37601412,-2.4064236,-51.00472116
3.28,328,0.163,-0.866,-0.39799999999999996,-30.4240698,-47.67010560000001,-5.2712136,57.0952647,-2.61268848,-51.44016924
3.29,329,0.139,-0.865,-0.397,-29.9084076,-45.3782736,-4.9847346,56.81451528,-2.8074942000000003,-51.85269900000001
3.3,330,0.128,-0.871,-0.406,-31.2835068,-45.263682,-4.4690724,56.53376586,-3.00229992,-52.25949918
3.31,331,0.139,-0.87,-0.41700000000000004,-32.7731976,-45.2063862,-3.8388186,56.22436854,-3.2085648000000004,-52.66056978
3.32,332,0.154,-0.868,-0.41600000000000004,-33.5753388,-46.1804148,-3.5523396000000003,55.91497122000001,-3.42628884,-53.06736996000001
3.33,333,0.163,-0.851,-0.41700000000000004,-34.37748,-47.784697200000004,-3.8388186,55.59984432,-3.65547204,-53.49135888000001
3.34,334,0.156,-0.831,-0.41200000000000003,-35.0650296,-52.0245864,-4.5263682,55.27898784,-3.90184398,-53.94972528000001
3.3499999999999996,335,0.168,-0.82,-0.391,-35.236917,-55.5196302,-6.2452422,54.96959052,-4.14821592,-54.44819874
3.36,336,0.185,-0.8059999999999999,-0.373,-35.7525792,-56.837433600000004,-8.479778399999999,54.65446362,-4.39458786,-54.96959052
3.3699999999999997,337,0.196,-0.792,-0.365,-35.4088044,-56.4936588,-10.4851314,54.34506629999999,-4.62377106,-55.49671188
3.38,338,0.19699999999999998,-0.802,-0.375,-34.60666320000001,-56.436363,-11.5164558,54.04139856000001,-4.84722468,-56.02956282
3.3899999999999997,339,0.19399999999999998,-0.813,-0.386,-34.091001,-57.35309579999999,-12.2040054,53.74918998,-5.07640788,-56.56814333999999
3.4,340,0.19399999999999998,-0.8109999999999999,-0.402,-34.3201842,-59.0719698,-12.891555,53.46844056,-5.29413192,-57.12964218
3.4099999999999997,341,0.184,-0.8059999999999999,-0.4,-33.518043,-61.07732280000001,-13.750992000000002,53.18769113999999,-5.5405038599999985,-57.70832975999999
3.42,342,0.179,-0.8029999999999999,-0.395,-33.6899304,-64.0567044,-15.2406828,52.9126713,-5.7868758,-58.32139482
3.4299999999999997,343,0.187,-0.794,-0.39299999999999996,-33.74722620000001,-66.9787902,-16.7303736,52.64911062,-6.0447069,-58.96310778000001
3.44,344,0.205,-0.794,-0.374,-33.9191136,-71.1613836,-17.589810600000003,52.38554994,-6.3254563200000025,-59.64492780000001
3.4499999999999997,345,0.22699999999999998,-0.787,-0.345,-34.262888399999994,-76.4325972,-18.162768600000003,52.139178,-6.6176648999999985,-60.37258446000001
3.46,346,0.239,-0.7709999999999999,-0.32799999999999996,-34.3201842,-80.95896540000003,-18.9649098,51.89280606,-6.94998054,-61.14034818
3.4699999999999998,347,0.244,-0.7559999999999999,-0.321,-33.804522,-84.05293859999998,-20.2254174,51.65789328,-7.29375534,-61.9367598
3.48,348,0.248,-0.75,-0.331,-32.142943800000005,-86.34477059999998,-20.626488000000002,51.44589881999999,-7.648989299999997,-62.75608973999999
3.4899999999999998,349,0.22899999999999998,-0.757,-0.341,-30.7678446,-88.8657858,-20.1108258,51.26255225999999,-8.021412,-63.59260842
3.5,350,0.195,-0.758,-0.34600000000000003,-30.194886600000004,-93.105675,-19.5378678,51.09639444,-8.422482599999999,-64.457775
3.51,351,0.175,-0.748,-0.349,-30.194886600000004,-96.6580146,-19.9389384,50.9359662,-8.852201099999998,-65.35158948
3.52,352,0.16399999999999998,-0.7290000000000001,-0.35600000000000004,-30.366774000000003,-100.4395374,-20.3973048,50.78699712000001,-9.30483792,-66.27978144
3.53,353,0.149,-0.706,-0.349,-30.4813656,-104.851314,-20.9702628,50.65521678,-9.78039306,-67.24235088
3.54,354,0.136,-0.684,-0.33,-30.366774000000003,-109.5495696,-21.7151082,50.5348956,-10.27886652,-68.25075696
3.55,355,0.12300000000000001,-0.6679999999999999,-0.327,-29.220858000000003,-114.4197126,-22.4599536,50.4489519,-10.800258300000001,-69.30499968000001
3.56,356,0.115,-0.6559999999999999,-0.319,-27.501984000000004,-116.9407278,-22.9756158,50.3916561,-11.33883882,-70.38216072
3.57,357,0.111,-0.6459999999999999,-0.322,-25.84040580000001,-118.48771440000002,-23.7204612,50.36873778,-11.88314892,-71.48224008000003
3.58,358,0.095,-0.621,-0.319,-23.2620948,-121.0660254,-24.4653066,50.38592652000001,-12.4331886,-72.60523776
3.59,359,0.053,-0.5920000000000001,-0.31,-20.168121600000006,-120.60765900000001,-25.3247436,50.44322232,-12.977498700000002,-73.72823544
3.5999999999999996,360,0.047,-0.58,-0.319,-17.18874,-119.4044472,-25.4393352,50.54062518,-13.49889048,-74.85123311999997
3.61,361,0.047,-0.573,-0.311,-14.209358400000001,-119.461743,-24.7517856,50.68386468,-14.037471000000002,-75.9742308
3.6199999999999997,362,0.040999999999999995,-0.562,-0.29600000000000004,-10.886202,-119.97740520000002,-23.7204612,50.86148166,-14.581781099999999,-77.09722848
3.63,363,0.02,-0.544,-0.294,-7.161975,-120.4357716,-22.803728399999997,51.09639444,-15.126091199999998,-78.22595574
3.6399999999999997,364,0.013000000000000001,-0.509,-0.28,-2.8074942000000003,-119.748222,-23.663165399999997,51.38287344,-15.65894214,-79.354683
3.65,365,0.022000000000000002,-0.491,-0.248,0.6875496,-117.6282774,-25.496631,51.72091866,-16.15168602,-80.48341026
3.6599999999999997,366,-0.004,-0.44799999999999995,-0.19899999999999998,4.6982555999999995,-112.7008386,-27.501984000000004,52.09334136,-16.598593259999998,-81.59494878
3.67,367,-0.075,-0.38799999999999996,-0.165,8.136003599999999,-108.6328368,-28.418716800000002,52.50587112,-17.00539344,-82.67783940000002
3.6799999999999997,368,-0.1,-0.34,-0.134,11.802934800000001,-103.5908064,-28.418716800000002,52.94704878,-17.37781614,-83.72635254
3.69,369,-0.132,-0.322,-0.106,14.667724800000002,-98.8925508,-27.6165756,53.41114475999999,-17.72159094,-84.74048819999999
3.6999999999999997,370,-0.115,-0.307,-0.10400000000000001,16.8449652,-95.0537322,-25.2674478,53.89815906,-18.048177,-85.70305764
3.71,371,-0.063,-0.26,-0.10800000000000001,20.168121600000006,-91.386801,-23.605869600000002,54.40236209999999,-18.3633039,-86.63697918
3.7199999999999998,372,-0.066,-0.182,-0.08900000000000001,26.069589,-90.2981808,-24.0069402,54.9753201,-18.66124206,-87.55944156000002
3.73,373,-0.031,-0.09699999999999999,-0.036000000000000004,31.51269000000001,-88.63660259999996,-25.78311,55.605573899999996,-18.92480274,-88.48763352
3.7399999999999998,374,-0.025,-0.023,0.002,39.19032720000001,-84.56860079999998,-26.1268848,56.30458266,-19.15398594,-89.38717758
3.75,375,-0.03,-0.008,0.078,45.4928652,-82.79243100000002,-25.78311,57.07807596,-19.3659804,-90.2695329
3.76,376,-0.004,0.008,0.138,53.68616460000001,-81.7038108,-24.4080108,57.92605379999999,-19.57224528,-91.14042906
3.77,377,0.026000000000000002,-0.01,0.134,60.8481396,-79.0109082,-20.7983754,58.83132744000001,-19.77851016,-91.97121816
3.78,378,0.016,-0.044000000000000004,0.159,66.6350154,-79.24009140000003,-15.068795399999999,59.79389688,-20.01915252,-92.77335936
3.79,379,0.022000000000000002,-0.064,0.16699999999999998,71.90622900000002,-81.47462759999998,-8.136003599999999,60.80803254,-20.32282026,-93.56977098
3.8,380,0.027999999999999997,-0.049,0.14,75.2866812,-81.47462759999998,-0.9740286,61.86227526,-20.66659506,-94.3375347
3.81,381,0.008,-0.042,0.14,83.3080932,-81.1308528,4.9847346,62.97954336,-21.056206500000002,-95.0823801
3.82,382,-0.017,-0.08199999999999999,0.07,89.3241522,-79.18279559999998,11.688343199999998,64.15410726,-21.47446584,-95.78138886
3.83,383,0.04,-0.161,-0.004,91.5013926,-73.10944079999999,15.469866,65.32867116,-21.89845476,-96.41737224
3.84,384,0.11699999999999999,-0.245,-0.122,90.7565472,-71.21867940000001,20.9702628,66.48604631999999,-22.345361999999998,-97.01897814
3.8499999999999996,385,0.184,-0.27399999999999997,-0.28600000000000003,88.80849,-79.18279559999998,30.4240698,67.64342148,-22.88394252,-97.67215026
3.86,386,0.252,-0.306,-0.51,82.2767688,-96.3142398,42.685371,68.80652622,-23.60014002,-98.46856188
3.8699999999999997,387,0.18899999999999997,-0.27399999999999997,-0.505,81.81840240000002,-124.15999860000001,57.2385042,70.07849298,-24.522602400000004,-99.51707502
3.88,388,0.111,-0.345,-0.635,82.67783940000002,-155.32891379999995,69.55710119999999,71.51661756,-25.62841134,-100.87498548
3.8899999999999997,389,-0.237,-0.769,-0.385,94.251591,-184.5497718,79.4119788,73.24695072,-26.87745978,-102.55948199999999
3.9,390,-0.867,-1.301,-0.317,92.0170548,-204.7178934,99.8665794,75.08614589999998,-28.32131394,-104.46170256
3.9099999999999997,391,-1.699,-1.4240000000000002,-0.382,90.527364,-205.4627388,134.2440594,76.95971856,-30.04018794000001,-106.35819354
3.92,392,-2.608,-1.945,-0.593,104.851314,-187.2426744,148.7398968,78.95361240000003,-31.81062816,-108.1171746
3.9299999999999997,393,-3.4219999999999997,-2.4730000000000003,-0.733,98.94984659999999,-150.00040439999995,166.15782,80.73551178,-33.64982334,-109.50946254
3.94,394,-3.9930000000000003,-3.063,-0.848,97.975818,-118.315827,201.22284960000002,82.34552376,-35.75830878,-110.55797568
3.9499999999999997,395,-3.9989999999999997,-3.798,-0.7120000000000001,89.7252228,-83.76645959999998,240.06940200000003,83.66905674,-38.19338028,-111.22260695999998
3.96,396,-3.9989999999999997,-3.9760000000000004,0.049,81.18814859999998,-36.955791,275.1344316,84.56860079999998,-40.93211952,-111.33146898
3.9699999999999998,397,-3.622,-3.3960000000000004,1.1540000000000001,72.9948492,28.533308399999996,305.673093,84.79778400000002,-43.92868986,-110.57516442
3.98,398,-2.064,-2.668,1.295,46.3523022,74.9429064,320.6845926000001,84.20190768,-47.04558138,-109.09120320000001
3.9899999999999998,399,-1.287,-2.249,1.037,19.652459399999998,92.1889422,319.5386766000001,82.97577756,-50.12236584,-107.19471222
4.0,400,-0.805,-1.579,0.659,-12.3758928,96.6007188,314.0955756,81.11939364,-53.10174744000001,-104.9945535
4.01,401,-0.28800000000000003,-0.89,0.541,-2.7501984,86.11558740000002,302.92289460000006,79.19425475999998,-55.94361912,-102.66834402
4.02,402,-0.157,-0.385,0.5710000000000001,13.750992000000002,73.3959198,289.1719026,77.31495251999998,-58.63079214,-100.27337958
4.03,403,0.054000000000000006,-0.063,0.8109999999999999,14.0947668,35.0077338,273.587445,75.79661381999998,-61.20337356,-98.35397028
4.04,404,-0.147,0.386,0.711,-2.1772404,-7.2192707999999985,268.6600062,74.61632033999999,-63.7988733,-97.04189646
4.05,405,-0.146,0.5710000000000001,0.373,7.734933000000002,-20.05353,256.68518400000005,73.63083258,-66.31415892,-95.86733256
4.06,406,-0.031,0.39399999999999996,0.039,29.507337,-11.1153852,236.6889498,72.55367154000002,-68.59453176,-94.3661826
4.07,407,-0.324,-0.05,0.062,44.0031744,-4.9847346,199.9050462,71.49369924,-70.49102274,-92.75617062
4.08,408,-0.987,-0.083,0.21600000000000005,34.5493674,-13.120738199999998,176.8148388,70.5311298,-72.18697842,-91.36388268
4.09,409,-1.284,0.276,0.215,17.8762896,-37.24227,179.7369246,69.900876,-73.98033696,-90.50444568
4.1,410,-1.406,0.6,-0.18100000000000002,19.8816426,-41.0237928,189.07614,69.08154606000001,-75.87682794,-89.44447338
4.109999999999999,411,-1.11,0.441,-0.24100000000000002,58.38442020000001,-25.4393352,177.1586136,67.9528188,-77.59570194,-87.66257399999998
4.12,412,-1.072,0.22899999999999998,-0.214,53.9153478,-40.6227222,157.73533740000005,67.44288618,-79.18279559999998,-86.57968338
4.13,413,-1.247,0.22,-0.319,46.925260200000004,-56.3790672,142.49465460000005,67.83822719999999,-80.68394556000001,-86.48228051999996
4.14,414,-1.389,0.24600000000000002,-0.27399999999999997,48.185767799999994,-60.045998399999995,136.4212998,68.70339378,-82.14498846000002,-86.85470322
4.1499999999999995,415,-1.578,0.325,-0.187,41.9405256,-46.466893799999994,134.4159468,68.71485294,-83.54300598,-86.42498472
4.16,416,-1.571,0.33399999999999996,-0.055,47.3836266,-35.0650296,129.20202899999998,67.71217644,-84.84935021999998,-84.92956434
4.17,417,-1.659,0.247,0.085,49.274388,-34.7212548,118.77419340000002,66.463128,-86.05256202000002,-83.17058328
4.18,418,-1.743,0.195,0.11699999999999999,36.554720399999994,-44.5761324,107.0285544,66.61209708,-87.19274844,-82.9356705
4.1899999999999995,419,-1.72,0.287,0.081,23.319390600000002,-57.06661679999999,99.0071424,71.47078092000002,-88.2928278,-87.54798240000002
4.2,420,-1.669,0.429,0.013000000000000001,21.944291399999997,-57.754166399999995,87.0323202,92.58428322,-89.23247891999998,-108.4323015
4.21,421,-1.545,0.46299999999999997,0.077,29.5646328,-52.82672760000001,67.9528188,169.41222144,-89.43301421999998,175.03293942
4.22,422,-1.446,0.373,0.124,37.757932200000006,-51.6235158,46.409597999999995,-162.01533366,-88.87724496000001,146.85486498
4.2299999999999995,423,-1.2890000000000001,0.243,0.10800000000000001,45.607456799999994,-47.784697200000004,24.9809688,-158.96146752,-88.36158276,144.27655398
4.24,424,-1.123,0.145,0.07,47.326330799999994,-36.1536498,10.599723,-159.67766502,-88.00061922,145.4740362
4.25,425,-0.993,0.099,0.08199999999999999,47.211739200000004,-25.210151999999997,3.5523396000000003,-160.65169362,-87.75424728,146.9350791
4.26,426,-0.889,0.079,0.059000000000000004,45.607456799999994,-18.506543399999998,1.6615782,-161.41372776,-87.58235988,148.16120922
4.27,427,-0.8290000000000001,0.07,0.06,43.888582799999995,-15.813640800000002,-0.3437748,-162.31327182,-87.44484996,149.50766052
4.28,428,-0.7859999999999999,0.08900000000000001,0.10099999999999999,40.5081306,-11.401864199999999,-4.6982555999999995,-163.71701892000004,-87.35890626,151.32966696
4.29,429,-0.818,0.132,0.171,38.90384820000001,-4.0680017999999984,-8.9954406,-165.48745914,-87.3474471,153.4954482
4.3,430,-0.825,0.171,0.27,37.9298196,5.0993262,-11.6310474,-167.06309364,-87.39901332,155.46069414
4.31,431,-0.86,0.16,0.318,39.9924684,10.313244000000001,-14.266654199999998,-169.32054816,-87.53079366,158.12494884
4.32,432,-0.9309999999999999,0.141,0.33399999999999996,38.159002799999996,14.209358400000001,-15.2406828,-171.9446958,-87.70268106,161.13870792
4.33,433,-0.919,0.09699999999999999,0.33899999999999997,36.32553720000001,17.5325148,-15.870936600000002,-175.08450564,-87.89748678,164.64521088
4.34,434,-0.961,0.052000000000000005,0.341,33.6326346,23.0329116,-18.162768600000003,-179.55357804,-88.13812913999998,169.45805808
4.35,435,-1.003,0.05,0.3,28.533308399999996,29.0489706,-20.2254174,173.94431922,-88.40168982,176.24188080000005
4.36,436,-1.018,0.039,0.233,25.496631,32.658606,-22.5745452,163.25865252,-88.67670966,-172.80986238
4.37,437,-1.036,0.009000000000000001,0.207,23.0902074,36.4401288,-25.55392680000001,145.42246998000005,-88.90016328,-154.73876706
4.38,438,-1.041,-0.004,0.184,19.136797199999997,42.1697088,-27.3873924,118.76846382,-88.99183656,-127.89568476
4.39,439,-1.064,0.0,0.179,16.902261,46.982556,-29.8511118,90.94562334,-88.83140832000002,-99.90095688
4.3999999999999995,440,-1.042,0.043,0.19,14.896907999999998,49.6754586,-31.6845774,72.58804902,-88.4647152,-81.39441348
4.41,441,-1.051,0.064,0.20199999999999999,13.2353298,51.5089242,-33.403451399999994,61.54141878,-87.97197132,-70.2160029
4.42,442,-1.055,-0.009000000000000001,0.096,14.7250206,52.19647379999999,-34.7785506,55.05553422000001,-87.41047248,-63.58114926
4.43,443,-1.1540000000000001,-0.179,-0.124,11.6310474,39.7059894,-31.5699858,52.36263161999999,-86.93491734,-60.77365506
4.4399999999999995,444,-1.083,-0.285,-0.142,1.0886202,28.1895336,-24.694489800000003,51.09066486,-86.5739538,-59.49022914
4.45,445,-0.927,-0.23800000000000002,-0.085,-5.6722842,36.955791,-20.912967000000002,48.69570042,-86.17288319999999,-57.15829008000001
4.46,446,-0.903,-0.16,-0.09300000000000001,-4.8701430000000006,45.263682,-17.0741484,45.50432436,-85.75462386000002,-54.01275066
4.47,447,-1.0070000000000001,-0.14300000000000002,-0.076,1.145916,44.06047020000001,-10.2559482,42.44472864,-85.37647158,-50.9359662
4.4799999999999995,448,-1.075,-0.147,-0.040999999999999995,0.7448454000000001,42.05511720000001,-6.2452422,39.64296402,-85.03269678,-48.12274242
4.49,449,-1.101,-0.121,-0.027000000000000003,-2.6356068,38.61736920000001,-4.4690724,37.25945874,-84.71184029999998,-45.76215546
4.5,450,-1.101,-0.114,-0.027999999999999997,-5.6149884000000005,31.6845774,-3.2085647999999996,35.54058474,-84.44255003999999,-44.09484768
4.51,451,-1.056,-0.133,-0.046,-8.136003599999999,24.522602399999997,-1.432395,34.113919319999994,-84.24201474,-42.74839638
4.52,452,-0.996,-0.131,-0.08900000000000001,-11.5164558,19.2513888,0.9740286,32.836222979999995,-84.09304566,-41.58529164
4.53,453,-0.937,-0.12,-0.106,-14.667724800000002,16.1001198,4.3544808,31.484042100000003,-83.98418364,-40.37635026
4.54,454,-0.924,-0.11699999999999999,-0.133,-17.18874,14.4958374,5.2139178,30.15477954,-83.89251035999997,-39.2189751
4.55,455,-0.9209999999999999,-0.115,-0.155,-18.6784308,13.2926256,4.2398892,29.003133960000003,-83.78937792,-38.25640566
4.56,456,-0.917,-0.091,-0.165,-21.772404,12.318597,3.7815228,27.91451376,-83.70343421999998,-37.3855095
4.57,457,-0.929,-0.062,-0.17600000000000002,-22.803728399999997,12.4331886,3.1512689999999997,26.88891894,-83.61176094,-36.5833683
4.58,458,-0.946,-0.057999999999999996,-0.17,-21.829699800000004,12.834259199999998,1.4896908000000002,26.00656362,-83.51435808,-35.9244666
4.59,459,-0.9309999999999999,-0.064,-0.16,-20.6837838,12.7196676,-0.6875496,25.34193234,-83.39976648,-35.47182978
4.6,460,-0.9059999999999999,-0.068,-0.153,-20.2827132,14.209358400000001,-3.380452200000001,24.82627014,-83.25079740000002,-35.15670288
4.61,461,-0.8859999999999999,-0.073,-0.175,-20.168121600000006,14.667724800000002,-5.443101,24.48822492,-83.10182832,-35.03065212
4.62,462,-0.865,-0.086,-0.18100000000000002,-18.449247600000003,14.209358400000001,-6.2452422,24.25331214,-82.95285924,-34.984815479999995
4.63,463,-0.846,-0.09,-0.18600000000000005,-17.0168526,13.120738199999998,-5.7868758000000025,24.04131768,-82.80961973999997,-34.94470842
4.64,464,-0.85,-0.098,-0.18100000000000002,-14.896907999999998,11.688343199999998,-4.9274388,23.84651196,-82.68929856,-34.90460136
4.6499999999999995,465,-0.8640000000000001,-0.102,-0.177,-13.407217200000002,10.313244000000001,-3.8961144,23.67462456,-82.5632478,-34.870223880000005
4.66,466,-0.885,-0.10400000000000001,-0.17300000000000001,-11.745639,9.3392154,-3.2085647999999996,23.47981884,-82.46584494,-34.79000976
4.67,467,-0.9009999999999999,-0.095,-0.172,-10.7716104,8.250595200000001,-2.5210152000000003,23.27928354,-82.37990124000002,-34.69833648
4.68,468,-0.914,-0.086,-0.171,-9.2819196,6.3025379999999975,-1.8334656000000005,23.10739614,-82.32260544,-34.62385194
4.6899999999999995,469,-0.93,-0.08800000000000001,-0.177,-7.5057497999999985,3.5523396000000003,-0.7448454000000001,22.96988622,-82.28822796,-34.56655614
4.7,470,-0.943,-0.098,-0.18100000000000002,-6.1879464,0.1718874,0.572958,22.95842706,-82.219473,-34.61239278000001
4.71,471,-0.956,-0.105,-0.17800000000000002,-5.3285094000000015,-1.8907614,2.1772404,22.80945798,-82.24239132,-34.5207195
4.72,472,-0.971,-0.10400000000000001,-0.16899999999999998,-4.6982555999999995,-3.4950437999999995,3.8961144,22.603193100000002,-82.29395754,-34.36029126
4.7299999999999995,473,-0.992,-0.096,-0.14800000000000002,-4.2398892,-5.2139178,5.0993262,22.36828032,-82.35698292000002,-34.16548554000001
4.74,474,-1.008,-0.08199999999999999,-0.12300000000000001,-3.9534102,-6.130650599999999,6.0733548,22.09326048,-82.43719704,-33.92484318
4.75,475,-1.026,-0.069,-0.11,-4.010706000000001,-6.7609043999999985,6.5317212,21.83542938,-82.52887032,-33.70711914
4.76,476,-1.041,-0.057999999999999996,-0.09300000000000001,-4.2398892,-7.448453999999999,6.589017,21.54895038,-82.62054359999998,-33.4607472
4.77,477,-1.0490000000000002,-0.053,-0.081,-4.4690724,-8.136003599999999,6.3025379999999975,21.29684886,-82.71794646,-33.24875274
4.78,478,-1.051,-0.048,-0.07400000000000001,-5.1566220000000005,-8.59437,5.844171599999999,21.07339524,-82.82107890000002,-33.07686534
4.79,479,-1.047,-0.042,-0.068,-5.5003968,-8.59437,5.5003968,20.87285994,-82.91848175999998,-32.92789626
4.8,480,-1.038,-0.037000000000000005,-0.065,-5.6149884000000005,-8.250595200000001,4.8128472,20.71816128,-83.02734378,-32.8304934
4.81,481,-1.023,-0.032,-0.065,-5.5576926,-7.906820400000001,4.0680017999999984,20.59211052,-83.11328748,-32.756008859999994
4.82,482,-1.0090000000000001,-0.031,-0.069,-5.3858052,-7.7922288,3.1512689999999997,20.52908514,-83.19923118,-32.75027928
4.83,483,-0.997,-0.031,-0.073,-5.042030400000002,-7.3911582,2.2345362,20.53481472,-83.27371572000001,-32.80757508
4.84,484,-0.985,-0.032,-0.077,-4.7555514,-6.589017,1.3178034,20.59211052,-83.34247067999998,-32.91070752
4.85,485,-0.977,-0.032,-0.083,-4.0680017999999984,-5.958763200000001,0.286479,20.70097254,-83.41122564,-33.0596766
4.86,486,-0.9740000000000001,-0.033,-0.081,-2.9793816000000004,-5.5003968,-0.4583664000000001,20.89004868,-83.45706228,-33.28313022
4.87,487,-0.9740000000000001,-0.036000000000000004,-0.08199999999999999,-1.7761698000000001,-4.9847346,-1.0313244000000001,21.12496146,-83.50289891999998,-33.53523174
4.88,488,-0.972,-0.039,-0.081,-0.7448454000000001,-4.2398892,-1.6042823999999998,21.39425172,-83.53154682,-33.81598116
4.89,489,-0.971,-0.044000000000000004,-0.08199999999999999,0.3437748,-3.380452200000001,-2.0053530000000004,21.68073072,-83.55446514,-34.10246016
4.8999999999999995,490,-0.9740000000000001,-0.053,-0.076,1.4896908000000002,-2.6929026,-2.2345362,22.15628586,-83.58884262000002,-34.560826559999995
4.91,491,-0.982,-0.064,-0.068,1.8334656000000005,-1.7188740000000002,-2.2345362,22.41984654,-83.5945722,-34.8071985
4.92,492,-0.993,-0.07,-0.067,1.5469866,-1.3178034,-1.8334656000000005,22.63757058,-83.60030178,-35.01346338
4.93,493,-1.0070000000000001,-0.066,-0.067,1.0313244000000001,-1.432395,-1.2605076000000002,22.80945798,-83.60603136,-35.16816204
4.9399999999999995,494,-1.02,-0.063,-0.065,0.6875496,-1.8334656000000005,-0.9167328000000001,22.96415664,-83.62322009999998,-35.31713112
4.95,495,-1.0290000000000001,-0.062,-0.062,0.40107059999999994,-1.8334656000000005,-0.8021411999999999,23.52565548,-83.6805159,-35.87290038
4.96,496,-1.035,-0.064,-0.055999999999999994,0.2291832000000001,-1.6615782,-0.6302538000000001,23.65170624000001,-83.69197505999998,-35.99322156
4.97,497,-1.034,-0.067,-0.053,-0.40107059999999994,-1.2605076000000002,-0.2291832000000001,23.720461199999995,-83.70343421999998,-36.0677061
4.9799999999999995,498,-1.0290000000000001,-0.065,-0.061,-1.4896908000000002,-0.8021411999999999,0.057295800000000015,23.72619078,-83.7091638,-36.09062442
4.99,499,-1.026,-0.064,-0.069,-1.5469866,-0.5156622000000001,0.3437748,23.70327246,-83.71489338,-36.08489484
5.0,500,-1.022,-0.066,-0.07400000000000001,-1.4896908000000002,-0.057295800000000015,0.40107059999999994,24.25331214,-83.73781170000002,-36.6406641
5.01,501,-1.015,-0.065,-0.078,-1.432395,0.4583664000000001,0.40107059999999994,24.1788276,-83.73781170000002,-36.5833683
5.02,502,-1.006,-0.06,-0.083,-1.3178034,1.432395,0.2291832000000001,24.08715432,-83.72635254,-36.50315418
5.03,503,-0.998,-0.059000000000000004,-0.085,-1.2032118,2.2345362,-0.057295800000000015,23.99548104,-83.70343421999998,-36.42294006
5.04,504,-0.99,-0.06,-0.084,-1.0886202,2.6929026,-0.286479,23.90380776,-83.6805159,-36.34272594
5.05,505,-0.986,-0.061,-0.086,-1.145916,2.7501984,-0.572958,24.064235999999998,-83.65186800000002,-36.51461334
5.06,506,-0.983,-0.065,-0.087,-1.2605076000000002,2.6929026,-0.7448454000000001,24.01266978,-83.62322009999998,-36.47450628
5.07,507,-0.978,-0.067,-0.092,-1.2605076000000002,2.4637194,-0.6875496,23.96110356,-83.60030178,-36.43439922
5.08,508,-0.98,-0.068,-0.09300000000000001,-1.432395,2.291832,-0.40107059999999994,23.89807818,-83.57738346,-36.38856258
5.09,509,-0.9840000000000001,-0.069,-0.09300000000000001,-1.4896908000000002,2.291832,-0.1718874,23.8064049,-83.55446514,-36.31407804
5.1,510,-0.9840000000000001,-0.066,-0.092,-1.8334656000000005,2.4064236,0.0,23.90380776,-83.52581724,-36.42294006
5.11,511,-0.9840000000000001,-0.063,-0.094,-1.8907614,2.1199446,0.0,23.80067532,-83.50289891999998,-36.34272594
5.12,512,-0.986,-0.062,-0.095,-2.0626488000000003,1.8907614,0.0,23.70327246,-83.48571018,-36.2682414
5.13,513,-0.99,-0.064,-0.098,-2.2345362,1.6615782,-0.057295800000000015,23.62878792,-83.47425102000003,-36.2109456
5.14,514,-0.992,-0.066,-0.10099999999999999,-2.3491277999999998,1.3178034,0.0,23.55430338,-83.46279186000002,-36.16510896000001
5.1499999999999995,515,-0.995,-0.068,-0.10099999999999999,-2.3491277999999998,1.0886202,0.2291832000000001,23.74337952,-83.43414396,-36.37137384
5.16,516,-0.996,-0.069,-0.09699999999999999,-2.6929026,0.8021411999999999,0.4583664000000001,23.64024708,-83.42841438,-36.30261888
5.17,517,-0.9940000000000001,-0.068,-0.095,-2.86479,0.1718874,0.8594370000000001,23.53711464,-83.43414396,-36.22240476
5.18,518,-0.996,-0.067,-0.094,-2.9793816000000004,-0.2291832000000001,0.9740286,23.4339822,-83.43987354000002,-36.14792022
5.1899999999999995,519,-0.9990000000000001,-0.07,-0.098,-2.9793816000000004,0.0,1.2032118,23.30220186,-83.44560312,-36.05051736
5.2,520,-0.996,-0.061,-0.1,-2.6356068,0.572958,1.432395,23.27355396,-83.43414396,-36.04478778
5.21,521,-0.996,-0.06,-0.10400000000000001,-2.4064236,0.8594370000000001,1.3750992,23.10739614,-83.42841438,-35.90154828
5.22,522,-0.996,-0.057,-0.102,-2.0053530000000004,1.0313244000000001,1.3178034,22.93550874,-83.42841438,-35.7525792
5.2299999999999995,523,-0.997,-0.057,-0.09699999999999999,-1.4896908000000002,0.7448454000000001,1.3178034,22.78653966,-83.4226848,-35.61506928
5.24,524,-0.997,-0.059000000000000004,-0.094,-1.4896908000000002,0.4583664000000001,1.2605076000000002,22.64902974,-83.4226848,-35.4947481
5.25,525,-0.996,-0.057999999999999996,-0.09699999999999999,-1.5469866,0.286479,1.3178034,22.66621848,-83.41695522,-35.52339600000001
5.26,526,-0.993,-0.054000000000000006,-0.098,-1.3178034,0.057295800000000015,1.0886202,22.56308604,-83.4226848,-35.43172272
5.27,527,-0.99,-0.052000000000000005,-0.09699999999999999,-1.0313244000000001,0.286479,0.9740286,22.459953600000002,-83.4226848,-35.34004944
5.28,528,-0.99,-0.052000000000000005,-0.09699999999999999,-0.6302538000000001,0.286479,0.7448454000000001,22.37973948,-83.4226848,-35.2655649
5.29,529,-0.99,-0.053,-0.095,-0.40107059999999994,0.0,0.572958,22.32817326,-83.4226848,-35.21972826
5.3,530,-0.993,-0.055,-0.095,-0.40107059999999994,-0.40107059999999994,0.3437748,22.71205512,-83.41695522,-35.60361012
5.31,531,-0.993,-0.055999999999999994,-0.096,-0.2291832000000001,-0.6302538000000001,0.2291832000000001,22.71205512,-83.4226848,-35.60361012
5.32,532,-0.9940000000000001,-0.057,-0.096,-0.057295800000000015,-0.7448454000000001,0.11459160000000004,22.72924386,-83.43414396,-35.620798859999994
5.33,533,-0.9940000000000001,-0.057,-0.09699999999999999,0.11459160000000004,-0.40107059999999994,0.057295800000000015,22.74070302,-83.43414396,-35.63225802
5.34,534,-0.993,-0.057,-0.098,0.572958,0.0,0.0,22.7464326,-83.43414396,-35.63225802
5.35,535,-0.993,-0.059000000000000004,-0.098,0.9167328000000001,0.11459160000000004,0.0,23.27355396,-83.39976648,-36.14219064
5.36,536,-0.992,-0.061,-0.09699999999999999,1.0886202,0.057295800000000015,0.0,23.27355396,-83.3940369,-36.13646106
5.37,537,-0.992,-0.063,-0.096,0.9740286,0.0,0.0,23.27928354,-83.3940369,-36.13073148
5.38,538,-0.993,-0.062,-0.095,0.8594370000000001,0.0,0.057295800000000015,23.27928354,-83.3940369,-36.11927232
5.39,539,-0.9940000000000001,-0.061,-0.095,0.9740286,-0.11459160000000004,0.11459160000000004,23.28501312,-83.39976648,-36.11354274
5.3999999999999995,540,-0.996,-0.061,-0.092,0.9167328000000001,-0.2291832000000001,0.11459160000000004,23.96110356,-83.3940369,-36.77817402
5.41,541,-0.9940000000000001,-0.062,-0.09300000000000001,0.6875496,0.0,0.0,23.97256272000001,-83.3940369,-36.77817402
5.42,542,-0.993,-0.061,-0.096,0.7448454000000001,0.11459160000000004,0.057295800000000015,23.97256272000001,-83.3940369,-36.76671485999999
5.43,543,-0.9940000000000001,-0.063,-0.095,0.9740286,0.3437748,0.0,23.96110356,-83.3940369,-36.74952612
5.4399999999999995,544,-0.9940000000000001,-0.063,-0.094,0.7448454000000001,0.40107059999999994,0.1718874,23.94391482,-83.38830732,-36.72087822
5.45,545,-0.996,-0.062,-0.091,0.5156622000000001,0.1718874,0.286479,24.7517856,-83.39976648,-37.51728984
5.46,546,-0.997,-0.062,-0.08900000000000001,0.40107059999999994,-0.057295800000000015,0.40107059999999994,24.7231377,-83.39976648,-37.48291236
5.47,547,-0.9940000000000001,-0.062,-0.092,0.1718874,-0.11459160000000004,0.4583664000000001,24.694489800000003,-83.40549606,-37.45426446000001
5.4799999999999995,548,-0.993,-0.061,-0.095,0.11459160000000004,-0.3437748,0.5156622000000001,24.6658419,-83.41122564,-37.41988698
5.49,549,-0.9940000000000001,-0.06,-0.096,0.1718874,-0.3437748,0.6302538000000001,24.631464420000004,-83.41695522,-37.3855095
5.5,550,-0.995,-0.062,-0.092,0.1718874,-0.11459160000000004,0.6875496,25.30182528000001,-83.41122564,-38.0444112
5.51,551,-0.996,-0.06,-0.091,0.11459160000000004,0.057295800000000015,0.7448454000000001,25.24452948,-83.41122564,-37.98138582
5.52,552,-0.995,-0.061,-0.09,0.2291832000000001,0.3437748,0.6875496,25.17577452,-83.41122564,-37.91263086
5.53,553,-0.9940000000000001,-0.062,-0.09300000000000001,0.11459160000000004,0.5156622000000001,0.6875496,25.10128998,-83.41122564,-37.83241674
5.54,554,-0.993,-0.063,-0.094,0.1718874,0.572958,0.8594370000000001,25.0096167,-83.41122564,-37.74074346
5.55,555,-0.993,-0.063,-0.095,0.11459160000000004,0.6302538000000001,0.9167328000000001,25.19869284,-83.3940369,-37.9298196
5.56,556,-0.995,-0.06,-0.096,0.0,0.572958,1.0313244000000001,25.08983082,-83.3940369,-37.82095758
5.57,557,-0.997,-0.057,-0.094,-0.057295800000000015,0.5156622000000001,1.0313244000000001,24.98669838,-83.38830732,-37.71782514
5.58,558,-0.9990000000000001,-0.057,-0.09300000000000001,0.057295800000000015,0.572958,0.9167328000000001,24.88929552,-83.38830732,-37.62042228
5.59,559,-0.998,-0.055999999999999994,-0.092,0.0,0.6302538000000001,0.8594370000000001,24.79762224000001,-83.38830732,-37.52301942
5.6,560,-0.996,-0.055,-0.09300000000000001,-0.057295800000000015,0.6302538000000001,0.8021411999999999,24.923673,-83.38830732,-37.64907018
5.61,561,-0.9940000000000001,-0.057,-0.094,-0.057295800000000015,0.572958,0.7448454000000001,24.843458880000004,-83.38830732,-37.56885606
5.62,562,-0.993,-0.059000000000000004,-0.095,-0.2291832000000001,0.572958,0.6302538000000001,24.76324476,-83.38257774,-37.49437152
5.63,563,-0.9940000000000001,-0.059000000000000004,-0.096,-0.286479,0.3437748,0.6875496,24.694489800000003,-83.38257774,-37.42561656
5.64,564,-0.995,-0.057,-0.09699999999999999,-0.2291832000000001,0.3437748,0.572958,24.62573484,-83.38257774,-37.36259118
5.6499999999999995,565,-0.9940000000000001,-0.057,-0.099,-0.11459160000000004,0.3437748,0.4583664000000001,24.768974340000003,-83.35392984,-37.50583068
5.66,566,-0.9940000000000001,-0.057,-0.09699999999999999,0.0,0.3437748,0.4583664000000001,24.71740812,-83.34820026,-37.45426446000001
5.67,567,-0.995,-0.057,-0.099,0.0,0.8021411999999999,0.4583664000000001,24.64865316,-83.34820026,-37.37977992
5.68,568,-0.9940000000000001,-0.057,-0.102,0.0,1.145916,0.3437748,24.57416862,-83.3367411,-37.30529538
5.6899999999999995,569,-0.9890000000000001,-0.054000000000000006,-0.102,0.11459160000000004,0.7448454000000001,0.2291832000000001,24.52833198,-83.33101152,-37.25945874
5.7,570,-0.987,-0.055,-0.10099999999999999,0.0,0.0,0.11459160000000004,24.809081399999997,-83.26225656,-37.53447858
5.71,571,-0.9890000000000001,-0.055999999999999994,-0.102,-0.3437748,-0.1718874,0.0,24.809081399999997,-83.26798613999998,-37.54593774
5.72,572,-0.993,-0.057999999999999996,-0.10400000000000001,-0.286479,-0.1718874,-0.11459160000000004,24.82627014,-83.26798613999998,-37.56312648
5.7299999999999995,573,-0.995,-0.062,-0.1,0.0,0.057295800000000015,-0.11459160000000004,24.8377293,-83.26798613999998,-37.57458564
5.74,574,-0.993,-0.065,-0.094,-0.3437748,0.40107059999999994,0.0,24.82054056,-83.26225656,-37.5573969
5.75,575,-0.99,-0.066,-0.08900000000000001,-0.6875496,0.11459160000000004,0.1718874,25.33620276,-83.26798613999998,-38.07878868
5.76,576,-0.992,-0.064,-0.08800000000000001,-1.2605076000000002,-0.3437748,0.4583664000000001,25.30182528000001,-83.27371572000001,-38.05587036
5.77,577,-0.991,-0.057999999999999996,-0.095,-1.7188740000000002,-0.7448454000000001,0.1718874,25.2960957,-83.27944529999998,-38.06732952
5.78,578,-0.9890000000000001,-0.057,-0.10400000000000001,-1.4896908000000002,-0.5156622000000001,0.057295800000000015,25.2960957,-83.28517488,-38.08451826
5.79,579,-0.9890000000000001,-0.057,-0.10800000000000001,-0.9740286,-0.057295800000000015,0.0,25.29036612,-83.28517488,-38.08451826
5.8,580,-0.9890000000000001,-0.059000000000000004,-0.106,-0.572958,0.057295800000000015,0.057295800000000015,25.44506478,-83.23360865999999,-38.25067608
5.81,581,-0.992,-0.057999999999999996,-0.10099999999999999,-0.5156622000000001,0.0,0.057295800000000015,25.43360562,-83.23360865999999,-38.23921692
5.82,582,-0.993,-0.055999999999999994,-0.099,-0.572958,0.0,0.11459160000000004,25.41641688,-83.23933824000002,-38.22775776
5.83,583,-0.993,-0.054000000000000006,-0.1,-0.6302538000000001,-0.057295800000000015,0.0,25.41641688,-83.23933824000002,-38.23348734
5.84,584,-0.9940000000000001,-0.054000000000000006,-0.10099999999999999,-0.4583664000000001,0.0,-0.057295800000000015,25.41641688,-83.23933824000002,-38.24494650000001
5.85,585,-0.995,-0.055999999999999994,-0.10099999999999999,-0.1718874,0.057295800000000015,-0.1718874,25.61695218,-83.19923118,-38.4454818
5.86,586,-0.996,-0.055999999999999994,-0.099,-0.11459160000000004,0.0,-0.1718874,25.62841134,-83.19923118,-38.45694096
5.87,587,-0.996,-0.055999999999999994,-0.099,-0.11459160000000004,-0.11459160000000004,-0.286479,25.65132966,-83.19923118,-38.48558885999999
5.88,588,-0.997,-0.057,-0.09699999999999999,0.0,-0.11459160000000004,-0.40107059999999994,25.69143672,-83.19923118,-38.51996634
5.89,589,-0.997,-0.057,-0.09699999999999999,-0.11459160000000004,-0.1718874,-0.5156622000000001,25.73727336,-83.19923118,-38.56580298
5.8999999999999995,590,-0.995,-0.057,-0.09699999999999999,-0.1718874,-0.11459160000000004,-0.5156622000000001,26.00083404,-83.20496076,-38.82936366
5.91,591,-0.992,-0.057999999999999996,-0.09699999999999999,-0.286479,-0.2291832000000001,-0.5156622000000001,26.04667068,-83.20496076,-38.88092988
5.92,592,-0.99,-0.057999999999999996,-0.099,-0.286479,-0.1718874,-0.572958,26.098236899999996,-83.19923118,-38.9324961
5.93,593,-0.99,-0.057999999999999996,-0.1,-0.40107059999999994,-0.286479,-0.4583664000000001,26.138343960000004,-83.20496076,-38.98406232000001
5.9399999999999995,594,-0.992,-0.057999999999999996,-0.102,-0.3437748,-0.2291832000000001,-0.4583664000000001,26.1841806,-83.20496076,-39.02989896
5.95,595,-0.992,-0.057,-0.10099999999999999,-0.286479,-0.2291832000000001,-0.572958,26.25293556,-83.18777202,-39.11011308
5.96,596,-0.992,-0.057999999999999996,-0.1,-0.4583664000000001,-0.2291832000000001,-0.6875496,26.315960940000004,-83.18777202,-39.17313846
5.97,597,-0.99,-0.059000000000000004,-0.1,-0.572958,-0.3437748,-0.6875496,26.37325674,-83.18777202,-39.24189342
5.9799999999999995,598,-0.991,-0.057999999999999996,-0.1,-0.7448454000000001,-0.4583664000000001,-0.6875496,26.4420117,-83.18777202,-39.31064838
5.99,599,-0.992,-0.06,-0.1,-0.8594370000000001,-0.5156622000000001,-0.6302538000000001,26.50503708,-83.18777202,-39.38513292
6.0,600,-0.991,-0.061,-0.099,-1.0313244000000001,-0.5156622000000001,-0.5156622000000001,26.63108784,-83.18204244,-39.52264284
6.01,601,-0.99,-0.062,-0.099,-1.3178034,-0.5156622000000001,-0.5156622000000001,26.67692448,-83.18777202,-39.58566822
6.02,602,-0.988,-0.059000000000000004,-0.102,-1.432395,-0.6875496,-0.5156622000000001,26.73422028,-83.19350159999998,-39.65442318
6.03,603,-0.9890000000000001,-0.059000000000000004,-0.102,-1.3750992,-1.0313244000000001,-0.5156622000000001,26.80297524,-83.19923118,-39.7346373
6.04,604,-0.9890000000000001,-0.061,-0.10300000000000001,-1.432395,-1.2605076000000002,-0.5156622000000001,26.87745978,-83.20496076,-39.82631058
6.05,605,-0.991,-0.062,-0.102,-1.3750992,-1.3178034,-0.40107059999999994,26.9863218,-83.20496076,-39.95236134
6.06,606,-0.99,-0.059000000000000004,-0.102,-1.2605076000000002,-1.0313244000000001,-0.40107059999999994,27.043617600000005,-83.21641991999998,-40.02684588
6.07,607,-0.991,-0.059000000000000004,-0.10300000000000001,-1.2032118,-0.7448454000000001,-0.3437748,27.09518382,-83.2221495,-40.08414168
6.08,608,-0.993,-0.059000000000000004,-0.10099999999999999,-1.145916,-0.5156622000000001,-0.286479,27.129561300000002,-83.2221495,-40.12997832
6.09,609,-0.9940000000000001,-0.059000000000000004,-0.1,-1.2032118,-0.5156622000000001,-0.286479,27.1582092,-83.22787908000002,-40.17581496
6.1,610,-0.995,-0.059000000000000004,-0.102,-1.3178034,-0.572958,-0.2291832000000001,27.192586680000005,-83.2221495,-40.2216516
6.11,611,-0.9940000000000001,-0.06,-0.1,-1.4896908000000002,-0.6302538000000001,-0.286479,27.22696416,-83.22787908000002,-40.27321782
6.12,612,-0.993,-0.06,-0.1,-1.5469866,-0.6875496,-0.1718874,27.25561206,-83.23360865999999,-40.31905446
6.13,613,-0.993,-0.057,-0.10099999999999999,-1.6615782,-0.6875496,-0.1718874,27.27853038,-83.23933824000002,-40.35916152
6.14,614,-0.9940000000000001,-0.057,-0.10099999999999999,-1.6615782,-0.7448454000000001,-0.2291832000000001,27.31290786000001,-83.24506782,-40.40499816
6.15,615,-0.995,-0.055999999999999994,-0.10099999999999999,-1.5469866,-0.6875496,-0.1718874,27.3300966,-83.24506782,-40.43937564
6.16,616,-0.998,-0.055999999999999994,-0.098,-1.6042823999999998,-0.6302538000000001,-0.286479,27.3587445,-83.24506782,-40.49094186
6.17,617,-0.997,-0.055999999999999994,-0.09699999999999999,-1.6042823999999998,-0.3437748,-0.286479,27.381662819999995,-83.25079740000002,-40.52531934
6.18,618,-0.996,-0.055999999999999994,-0.099,-1.6615782,-0.40107059999999994,-0.40107059999999994,27.41031072,-83.25079740000002,-40.57688556
6.1899999999999995,619,-0.995,-0.057,-0.099,-1.6042823999999998,-0.4583664000000001,-0.5156622000000001,27.45041778,-83.25079740000002,-40.63418136
6.2,620,-0.992,-0.055999999999999994,-0.10099999999999999,-1.6615782,-0.4583664000000001,-0.6302538000000001,27.47906568,-83.24506782,-40.680018
6.21,621,-0.992,-0.055999999999999994,-0.102,-1.6615782,-0.6302538000000001,-0.572958,27.53636148,-83.25079740000002,-40.75450254
6.22,622,-0.991,-0.055999999999999994,-0.10300000000000001,-1.6042823999999998,-0.6875496,-0.6302538000000001,27.59938686,-83.25079740000002,-40.82898708000001
6.2299999999999995,623,-0.99,-0.055999999999999994,-0.102,-1.4896908000000002,-0.6875496,-0.6875496,27.66241224,-83.25652698,-40.91493078
6.24,624,-0.99,-0.057999999999999996,-0.105,-1.3750992,-0.6875496,-0.6875496,27.7311672,-83.25652698,-40.9951449
6.25,625,-0.992,-0.055999999999999994,-0.10300000000000001,-1.2605076000000002,-0.7448454000000001,-0.7448454000000001,27.77127426,-83.25652698,-41.04671112
6.26,626,-0.995,-0.057999999999999996,-0.10300000000000001,-1.2605076000000002,-0.572958,-0.8021411999999999,27.84002922,-83.25652698,-41.13265482
6.27,627,-0.9940000000000001,-0.057999999999999996,-0.106,-1.2605076000000002,-0.40107059999999994,-0.7448454000000001,27.903054600000004,-83.25652698,-41.20713936
6.28,628,-0.99,-0.057,-0.107,-1.145916,-0.6875496,-0.8594370000000001,27.98326872,-83.25652698,-41.29881264
6.29,629,-0.99,-0.057,-0.105,-1.2605076000000002,-1.2032118,-0.9167328000000001,28.09213074,-83.26798613999998,-41.41913382
6.3,630,-0.993,-0.057999999999999996,-0.106,-1.3750992,-1.3178034,-0.9740286,28.16661528,-83.26225656,-41.5108071
6.31,631,-0.9940000000000001,-0.06,-0.107,-1.2605076000000002,-1.2605076000000002,-1.145916,28.29266604,-83.26798613999998,-41.6540466
6.32,632,-0.993,-0.063,-0.106,-1.0886202,-1.2032118,-1.145916,28.418716800000002,-83.27371572000001,-41.79155652
6.33,633,-0.993,-0.065,-0.10099999999999999,-1.432395,-1.2605076000000002,-1.0886202,28.53903798,-83.27944529999998,-41.92906644
6.34,634,-0.99,-0.065,-0.096,-1.145916,-1.3750992,-0.6875496,28.63644084,-83.28517488,-42.03792846
6.35,635,-0.9890000000000001,-0.064,-0.094,-0.8021411999999999,-1.6042823999999998,-0.1718874,28.762491600000004,-83.29663404,-42.1697088
6.36,636,-0.99,-0.062,-0.096,-1.0886202,-1.8334656000000005,0.0,28.83697614,-83.31382278,-42.2556525
6.37,637,-0.9890000000000001,-0.06,-0.10300000000000001,-1.145916,-1.145916,0.0,28.87135362,-83.32528194,-42.30721872
6.38,638,-0.9890000000000001,-0.059000000000000004,-0.106,-0.8021411999999999,-0.6302538000000001,0.11459160000000004,28.88281278,-83.33101152,-42.32440746
6.39,639,-0.991,-0.059000000000000004,-0.105,-0.4583664000000001,-0.40107059999999994,0.11459160000000004,28.88281278,-83.33101152,-42.33013704
6.4,640,-0.9940000000000001,-0.06,-0.102,-0.572958,-0.286479,0.057295800000000015,28.78540992,-83.3080932,-42.24419334
6.41,641,-0.998,-0.06,-0.099,-0.572958,-0.6302538000000001,0.057295800000000015,28.80259866,-83.31382278,-42.26138208
6.42,642,-0.9990000000000001,-0.059000000000000004,-0.099,-0.6875496,-0.4583664000000001,0.0,28.81405782,-83.31955236,-42.28430039999999
6.43,643,-0.996,-0.057,-0.10300000000000001,-0.6875496,-0.3437748,0.0,28.82551698,-83.32528194,-42.30148914
6.4399999999999995,644,-0.9940000000000001,-0.055999999999999994,-0.1,-0.3437748,-0.40107059999999994,0.0,28.83697614,-83.33101152,-42.31867788
6.45,645,-0.9940000000000001,-0.06,-0.09699999999999999,-0.3437748,-0.40107059999999994,0.0,28.8770832,-83.3080932,-42.36451452
6.46,646,-0.993,-0.059000000000000004,-0.09699999999999999,-0.40107059999999994,-0.572958,-0.11459160000000004,28.91146068,-83.31382278,-42.398892
6.47,647,-0.9940000000000001,-0.057999999999999996,-0.099,-0.4583664000000001,-0.6302538000000001,-0.1718874,28.94583816,-83.31955236,-42.43899906
6.4799999999999995,648,-0.993,-0.059000000000000004,-0.1,-0.4583664000000001,-0.6302538000000001,-0.2291832000000001,28.991674800000002,-83.32528194,-42.49056528000001
6.49,649,-0.9940000000000001,-0.06,-0.1,-0.3437748,-0.572958,-0.1718874,29.03178186,-83.32528194,-42.53067234
6.5,650,-0.995,-0.06,-0.09699999999999999,-0.4583664000000001,-0.40107059999999994,-0.286479,29.05470018,-83.31955236,-42.55932024
6.51,651,-0.995,-0.06,-0.09699999999999999,-0.6875496,-0.5156622000000001,-0.286479,29.09480724,-83.32528194,-42.61088646
6.52,652,-0.993,-0.059000000000000004,-0.1,-0.6875496,-0.6875496,-0.286479,29.14064388,-83.33101152,-42.66245268
6.53,653,-0.993,-0.059000000000000004,-0.099,-0.40107059999999994,-0.6302538000000001,-0.1718874,29.18075094000001,-83.33101152,-42.70828932
6.54,654,-0.992,-0.06,-0.1,-0.11459160000000004,-0.11459160000000004,-0.1718874,29.19793968,-83.3367411,-42.73120764
6.55,655,-0.991,-0.062,-0.10099999999999999,0.1718874,0.1718874,-0.11459160000000004,29.19793968,-83.27944529999998,-42.73120764
6.56,656,-0.991,-0.063,-0.10099999999999999,0.2291832000000001,0.5156622000000001,-0.11459160000000004,29.186480520000003,-83.27371572000001,-42.7140189
6.57,657,-0.995,-0.062,-0.1,0.11459160000000004,0.6875496,-0.057295800000000015,29.16929178,-83.26798613999998,-42.69110058
6.58,658,-0.996,-0.061,-0.098,0.0,0.6302538000000001,0.0,29.14064388,-83.26225656,-42.66245268
6.59,659,-0.997,-0.062,-0.09699999999999999,-0.057295800000000015,0.2291832000000001,0.0,29.12345514,-83.26225656,-42.65099352
6.6,660,-0.996,-0.063,-0.098,-0.2291832000000001,0.1718874,0.11459160000000004,29.163562199999998,-83.22787908000002,-42.69110058
6.61,661,-0.992,-0.063,-0.098,-0.286479,-0.1718874,0.1718874,29.157832620000004,-83.23360865999999,-42.685371
6.62,662,-0.99,-0.06,-0.10099999999999999,-0.4583664000000001,-0.057295800000000015,0.286479,29.1349143,-83.23360865999999,-42.66818226
6.63,663,-0.988,-0.059000000000000004,-0.10099999999999999,-0.3437748,0.0,0.286479,29.1062664,-83.23360865999999,-42.64526393999999
6.64,664,-0.991,-0.059000000000000004,-0.1,-0.286479,0.0,0.2291832000000001,29.08334808,-83.23933824000002,-42.62807520000001
6.65,665,-0.992,-0.061,-0.1,-0.3437748,-0.11459160000000004,0.286479,29.05470018,-83.21641991999998,-42.5994273
6.66,666,-0.995,-0.061,-0.099,-0.40107059999999994,-0.1718874,0.2291832000000001,29.03751144,-83.2221495,-42.58796814
6.67,667,-0.995,-0.057999999999999996,-0.098,-0.5156622000000001,-0.057295800000000015,0.1718874,29.0203227,-83.2221495,-42.57650898
6.68,668,-0.993,-0.057999999999999996,-0.10099999999999999,-0.4583664000000001,-0.057295800000000015,0.1718874,29.003133960000003,-83.22787908000002,-42.56504982
6.6899999999999995,669,-0.992,-0.059000000000000004,-0.10300000000000001,-0.3437748,-0.3437748,0.11459160000000004,29.00886354,-83.22787908000002,-42.5707794
6.7,670,-0.992,-0.057,-0.1,-0.286479,-0.4583664000000001,0.0,28.90000152,-83.21641991999998,-42.46764696
6.71,671,-0.9940000000000001,-0.06,-0.09699999999999999,-0.2291832000000001,-0.3437748,0.0,28.91146068,-83.2221495,-42.48483570000001
6.72,672,-0.995,-0.06,-0.1,-0.11459160000000004,-0.057295800000000015,0.0,28.91146068,-83.2221495,-42.48483570000001
6.7299999999999995,673,-0.995,-0.062,-0.10099999999999999,0.0,0.0,0.11459160000000004,28.90000152,-83.2221495,-42.47337654
6.74,674,-0.996,-0.061,-0.099,0.0,-0.057295800000000015,0.1718874,28.888542359999995,-83.2221495,-42.46191738
6.75,675,-0.995,-0.061,-0.09699999999999999,0.057295800000000015,-0.057295800000000015,0.1718874,28.91146068,-83.19350159999998,-42.48483570000001
6.76,676,-0.9940000000000001,-0.057999999999999996,-0.098,0.0,-0.057295800000000015,0.2291832000000001,28.90000152,-83.19350159999998,-42.47337654
6.77,677,-0.992,-0.06,-0.098,-0.057295800000000015,-0.2291832000000001,0.1718874,28.89427194,-83.19923118,-42.46764696
6.78,678,-0.991,-0.059000000000000004,-0.10099999999999999,-0.11459160000000004,-0.1718874,0.11459160000000004,28.888542359999995,-83.19923118,-42.46191738
6.79,679,-0.991,-0.059000000000000004,-0.10099999999999999,0.0,-0.057295800000000015,0.057295800000000015,28.88281278,-83.20496076,-42.46191738
6.8,680,-0.993,-0.06,-0.10099999999999999,0.1718874,0.0,0.0,28.8770832,-83.15912412,-42.45045822
6.81,681,-0.992,-0.06,-0.1,0.1718874,-0.057295800000000015,0.057295800000000015,28.8770832,-83.15912412,-42.45045822
6.82,682,-0.993,-0.06,-0.098,0.2291832000000001,-0.1718874,0.057295800000000015,28.88281278,-83.15912412,-42.45045822
6.83,683,-0.992,-0.06,-0.098,0.1718874,-0.1718874,0.057295800000000015,28.888542359999995,-83.16485370000002,-42.4561878
6.84,684,-0.992,-0.059000000000000004,-0.098,0.057295800000000015,-0.1718874,0.11459160000000004,28.888542359999995,-83.16485370000002,-42.4561878
6.85,685,-0.992,-0.057999999999999996,-0.099,0.0,-0.2291832000000001,0.057295800000000015,28.74530286,-83.14193537999998,-42.312948299999995
6.86,686,-0.9940000000000001,-0.06,-0.1,0.057295800000000015,-0.2291832000000001,0.0,28.756762020000004,-83.14766496,-42.32440746
6.87,687,-0.993,-0.06,-0.102,0.2291832000000001,-0.3437748,0.11459160000000004,28.76822118,-83.14766496,-42.33586662
6.88,688,-0.993,-0.061,-0.10099999999999999,0.572958,-0.1718874,0.1718874,28.76822118,-83.15339454,-42.33013704
6.89,689,-0.996,-0.062,-0.099,0.3437748,0.2291832000000001,0.057295800000000015,28.756762020000004,-83.14766496,-42.312948299999995
6.9,690,-0.996,-0.059000000000000004,-0.098,0.1718874,0.572958,0.1718874,28.66508874,-83.14193537999998,-42.22127501999999
6.91,691,-0.995,-0.057,-0.10099999999999999,0.40107059999999994,0.3437748,0.1718874,28.64217042,-83.14193537999998,-42.19262712
6.92,692,-0.9940000000000001,-0.055999999999999994,-0.102,0.572958,-0.057295800000000015,0.0,28.65362958,-83.14193537999998,-42.19262712
6.93,693,-0.992,-0.057999999999999996,-0.10300000000000001,0.4583664000000001,-0.11459160000000004,-0.057295800000000015,28.670818319999995,-83.14193537999998,-42.20981586
6.9399999999999995,694,-0.992,-0.059000000000000004,-0.105,0.572958,0.0,-0.2291832000000001,28.69946622,-83.14193537999998,-42.23273418
6.95,695,-0.993,-0.061,-0.1,0.7448454000000001,0.057295800000000015,-0.3437748,28.756762020000004,-83.13047622,-42.28430039999999
6.96,696,-0.995,-0.062,-0.095,0.286479,0.11459160000000004,-0.286479,28.77968034,-83.13047622,-42.30148914
6.97,697,-0.9940000000000001,-0.061,-0.09300000000000001,-0.057295800000000015,-0.4583664000000001,-0.286479,28.81978740000001,-83.13047622,-42.34159620000001
6.9799999999999995,698,-0.993,-0.063,-0.09300000000000001,-0.2291832000000001,-1.2032118,-0.1718874,28.88281278,-83.14193537999998,-42.41035116
6.99,699,-0.99,-0.062,-0.09300000000000001,-0.6302538000000001,-1.3750992,-0.11459160000000004,28.94583816,-83.15339454,-42.47910612
7.0,700,-0.988,-0.059000000000000004,-0.099,-0.7448454000000001,-0.8594370000000001,-0.11459160000000004,28.940108580000004,-83.15339454,-42.47910612
7.01,701,-0.987,-0.057999999999999996,-0.10300000000000001,-0.11459160000000004,-0.3437748,0.0,28.95729732,-83.15339454,-42.50202444
7.02,702,-0.9890000000000001,-0.061,-0.099,0.286479,-0.1718874,0.0,28.968756480000003,-83.15912412,-42.5134836
7.03,703,-0.9940000000000001,-0.063,-0.095,0.3437748,0.0,0.057295800000000015,28.968756480000003,-83.15912412,-42.50775402
7.04,704,-0.998,-0.061,-0.095,0.11459160000000004,0.0,0.11459160000000004,28.95729732,-83.15912412,-42.49629486
7.05,705,-1.0,-0.059000000000000004,-0.09699999999999999,0.057295800000000015,-0.057295800000000015,0.1718874,28.8770832,-83.15912412,-42.41608074
7.06,706,-1.0,-0.057,-0.098,0.286479,0.057295800000000015,0.11459160000000004,28.86562404,-83.15912412,-42.398892
7.07,707,-0.997,-0.057999999999999996,-0.098,0.572958,0.2291832000000001,0.11459160000000004,28.848435300000002,-83.15912412,-42.37597368
7.08,708,-0.996,-0.059000000000000004,-0.096,0.6875496,0.4583664000000001,0.057295800000000015,28.83124656,-83.15339454,-42.34732578
7.09,709,-0.996,-0.06,-0.098,0.6875496,0.572958,0.0,28.81405782,-83.14766496,-42.32440746
7.1,710,-0.998,-0.06,-0.099,0.8021411999999999,0.6302538000000001,0.057295800000000015,28.78540992,-83.1362058,-42.29002998
7.11,711,-0.998,-0.06,-0.099,1.0313244000000001,0.7448454000000001,0.057295800000000015,28.756762020000004,-83.13047622,-42.24992292
7.12,712,-0.997,-0.06,-0.096,1.0886202,0.6875496,0.1718874,28.72238454,-83.12474663999998,-42.20408628
7.13,713,-0.996,-0.06,-0.096,0.9167328000000001,0.7448454000000001,0.1718874,28.68227748,-83.11901706,-42.15252006
7.14,714,-0.9940000000000001,-0.06,-0.099,0.8594370000000001,0.6875496,0.11459160000000004,28.65362958,-83.11328748,-42.11814258
7.15,715,-0.993,-0.06,-0.102,0.9167328000000001,0.3437748,0.1718874,28.6192521,-83.10182832,-42.07230594
7.16,716,-0.993,-0.059000000000000004,-0.10099999999999999,0.9740286,0.40107059999999994,0.11459160000000004,28.60206336,-83.10182832,-42.04365804
