TimeStamp(s),FrameCounter,AccX,AccY,AccZ,GyrX,GyrY,GyrZ,EulerX,EulerY,EulerZ
0.01,1,0.0,-0.987,0.213,0.0,-0.40107059999999994,-0.11459160000000004,100.22754294,0.49274388,-48.36911436000001
0.02,2,0.0,-0.987,0.218,0.0,-0.6875496,-0.2291832000000001,100.22754294,0.49274388,-48.37484394
0.03,3,0.0,-0.987,0.217,-0.057295800000000015,-0.8021411999999999,-0.2291832000000001,100.22754294,0.4984734599999999,-48.386303100000006
0.04,4,-0.001,-0.988,0.218,0.0,-0.7448454000000001,-0.2291832000000001,100.22754294,0.5042030399999999,-48.39203268
0.05,5,-0.001,-0.9890000000000001,0.218,-0.057295800000000015,-0.6875496,-0.1718874,100.26765,0.4984734599999999,-48.39203268
0.060000000000000005,6,0.0,-0.9890000000000001,0.215,-0.2291832000000001,-0.6875496,-0.1718874,100.26765,0.5042030399999999,-48.39776225999999
0.06999999999999999,7,-0.001,-0.988,0.21600000000000005,-0.2291832000000001,-0.6875496,-0.1718874,100.26192042,0.5042030399999999,-48.40349184
0.08,8,-0.001,-0.987,0.215,-0.2291832000000001,-0.4583664000000001,-0.2291832000000001,100.26192042,0.5099326200000001,-48.40922142
0.09,9,-0.001,-0.987,0.215,-0.286479,-0.40107059999999994,-0.11459160000000004,100.25619084000002,0.5099326200000001,-48.414951
0.09999999999999999,10,0.0,-0.99,0.213,-0.2291832000000001,-0.4583664000000001,-0.11459160000000004,100.30202748,0.4984734599999999,-48.414951
0.11,11,0.001,-0.99,0.215,-0.1718874,-0.3437748,0.0,100.30202748,0.5042030399999999,-48.414951
0.12,12,0.001,-0.9890000000000001,0.217,-0.2291832000000001,-0.1718874,-0.057295800000000015,100.30202748,0.5042030399999999,-48.414951
0.13,13,0.003,-0.988,0.215,-0.2291832000000001,-0.1718874,0.0,100.29629789999998,0.5042030399999999,-48.42068058
0.14,14,0.002,-0.987,0.215,-0.1718874,-0.11459160000000004,0.0,100.29629789999998,0.5042030399999999,-48.42068058
0.15000000000000002,15,0.003,-0.99,0.215,-0.1718874,-0.11459160000000004,0.057295800000000015,100.37078244,0.5042030399999999,-48.414951
0.16,16,0.0,-0.987,0.21600000000000005,-0.2291832000000001,0.0,0.057295800000000015,100.36505286,0.4984734599999999,-48.414951
0.17,17,-0.003,-0.9840000000000001,0.213,-0.40107059999999994,0.1718874,0.0,100.35932327999998,0.4984734599999999,-48.414951
0.18000000000000002,18,-0.002,-0.978,0.212,-0.2291832000000001,0.286479,0.1718874,100.35932327999998,0.4984734599999999,-48.40922142
0.19,19,0.0,-0.9790000000000001,0.214,0.11459160000000004,0.286479,0.286479,100.35932327999998,0.49274388,-48.40922142
0.2,20,0.003,-0.986,0.218,0.0,0.2291832000000001,0.1718874,100.44526698,0.4984734599999999,-48.39776225999999
0.21000000000000002,21,0.005,-0.987,0.21600000000000005,0.11459160000000004,0.0,0.0,100.44526698,0.4984734599999999,-48.39776225999999
0.22,22,0.003,-0.9890000000000001,0.218,0.3437748,-0.057295800000000015,0.0,100.45099656,0.4984734599999999,-48.39776225999999
0.23,23,0.0,-0.99,0.222,0.0,0.0,0.0,100.45099656,0.4984734599999999,-48.39776225999999
0.24000000000000002,24,-0.001,-0.988,0.22,-0.11459160000000004,-0.057295800000000015,0.11459160000000004,100.45099656,0.4984734599999999,-48.39776225999999
0.25,25,-0.001,-0.9890000000000001,0.21899999999999997,0.057295800000000015,-0.286479,0.11459160000000004,100.50256278,0.47555514,-48.39203268
0.26,26,-0.001,-0.9890000000000001,0.221,0.0,-0.5156622000000001,0.11459160000000004,100.50256278,0.47555514,-48.39776225999999
0.27,27,0.001,-0.991,0.221,-0.11459160000000004,-0.2291832000000001,0.1718874,100.50256278,0.47555514,-48.40349184
0.28,28,0.004,-0.991,0.222,-0.057295800000000015,0.0,0.057295800000000015,100.50256278,0.47555514,-48.40349184
0.29000000000000004,29,0.004,-0.988,0.221,-0.1718874,0.0,0.0,100.50256278,0.47555514,-48.40349184
0.3,30,0.002,-0.986,0.221,-0.2291832000000001,0.0,0.0,100.55985858,0.46409598,-48.39776225999999
0.31,31,0.0,-0.986,0.21899999999999997,-0.1718874,-0.1718874,0.0,100.55985858,0.46409598,-48.39776225999999
0.32,32,-0.001,-0.986,0.217,-0.286479,-0.1718874,0.0,100.554129,0.46409598,-48.39776225999999
0.33,33,-0.001,-0.985,0.21600000000000005,-0.286479,-0.11459160000000004,-0.057295800000000015,100.554129,0.46409598,-48.40349184
0.34,34,-0.002,-0.9840000000000001,0.21600000000000005,-0.286479,-0.11459160000000004,-0.11459160000000004,100.54839942,0.46982556,-48.40349184
0.35000000000000003,35,-0.002,-0.9840000000000001,0.214,-0.1718874,0.0,-0.1718874,100.58850648,0.44690724,-48.39776225999999
0.36000000000000004,36,-0.002,-0.985,0.212,0.0,0.0,-0.286479,100.58850648,0.4526368200000001,-48.39776225999999
0.37,37,-0.003,-0.985,0.21100000000000002,0.057295800000000015,0.0,-0.2291832000000001,100.58850648,0.4526368200000001,-48.39776225999999
0.38,38,-0.002,-0.986,0.21100000000000002,0.057295800000000015,-0.057295800000000015,-0.1718874,100.58850648,0.4583664000000001,-48.39776225999999
0.39,39,0.0,-0.987,0.214,0.11459160000000004,-0.057295800000000015,0.0,100.59423606,0.4583664000000001,-48.39776225999999
0.4,40,0.0,-0.988,0.214,0.057295800000000015,0.0,0.0,100.63434312,0.44690724,-48.39203268
0.41000000000000003,41,0.0,-0.987,0.21100000000000002,0.1718874,-0.1718874,0.057295800000000015,100.63434312,0.44690724,-48.39776225999999
0.42000000000000004,42,-0.001,-0.987,0.212,0.057295800000000015,-0.11459160000000004,0.0,100.63434312,0.44690724,-48.39776225999999
0.43,43,-0.001,-0.986,0.212,0.1718874,-0.1718874,-0.11459160000000004,100.6400727,0.44690724,-48.39776225999999
0.44,44,-0.002,-0.987,0.215,0.3437748,0.0,-0.11459160000000004,100.6400727,0.44690724,-48.39776225999999
0.45,45,-0.001,-0.992,0.21600000000000005,0.0,0.1718874,-0.057295800000000015,100.68590934,0.4297185000000001,-48.39203268
0.46,46,-0.001,-0.99,0.214,-0.057295800000000015,0.1718874,-0.11459160000000004,100.68590934,0.4297185000000001,-48.39203268
0.47000000000000003,47,0.0,-0.99,0.214,0.0,-0.057295800000000015,-0.11459160000000004,100.68590934,0.43544808,-48.39203268
0.48000000000000004,48,0.001,-0.99,0.218,-0.11459160000000004,-0.1718874,-0.057295800000000015,100.68590934,0.43544808,-48.39203268
0.49,49,0.001,-0.992,0.21899999999999997,-0.1718874,-0.286479,0.0,100.68017976,0.43544808,-48.39776225999999
0.5,50,0.0,-0.992,0.218,-0.286479,-0.2291832000000001,0.0,100.70882766,0.4297185000000001,-48.39203268
0.51,51,0.0,-0.991,0.22,-0.3437748,-0.2291832000000001,-0.057295800000000015,100.70882766,0.43544808,-48.39776225999999
0.52,52,0.001,-0.99,0.221,-0.40107059999999994,0.0,-0.057295800000000015,100.70309808,0.43544808,-48.39776225999999
0.53,53,0.0,-0.987,0.22,-0.40107059999999994,0.057295800000000015,0.0,100.69736850000001,0.43544808,-48.39776225999999
0.54,54,0.0,-0.9840000000000001,0.221,-0.4583664000000001,0.11459160000000004,0.0,100.69163892000002,0.43544808,-48.39203268
0.55,55,0.0,-0.981,0.221,-0.40107059999999994,0.057295800000000015,0.0,100.75466429999999,0.42398892,-48.386303100000006
0.56,56,0.0,-0.981,0.22,-0.4583664000000001,0.057295800000000015,0.0,100.74893472,0.42398892,-48.386303100000006
0.5700000000000001,57,0.0,-0.981,0.22,-0.286479,0.057295800000000015,-0.057295800000000015,100.74320514,0.42398892,-48.386303100000006
0.5800000000000001,58,0.001,-0.981,0.218,0.0,-0.057295800000000015,0.0,100.74320514,0.42398892,-48.386303100000006
0.59,59,0.001,-0.982,0.21899999999999997,0.0,0.0,-0.11459160000000004,100.74320514,0.42398892,-48.386303100000006
0.6,60,0.001,-0.981,0.218,0.057295800000000015,0.0,-0.11459160000000004,100.78904178,0.42398892,-48.38057352000001
0.61,61,0.0,-0.98,0.217,0.0,0.0,-0.057295800000000015,100.78904178,0.42398892,-48.38057352000001
0.62,62,0.0,-0.982,0.217,0.0,0.057295800000000015,-0.057295800000000015,100.78904178,0.42398892,-48.38057352000001
0.63,63,-0.001,-0.983,0.215,0.0,0.11459160000000004,-0.057295800000000015,100.78904178,0.42398892,-48.38057352000001
0.64,64,-0.002,-0.9840000000000001,0.217,0.1718874,0.1718874,0.0,100.79477136,0.42398892,-48.37484394
0.65,65,-0.002,-0.985,0.21600000000000005,0.11459160000000004,0.40107059999999994,-0.057295800000000015,100.8119601,0.41252976,-48.36911436000001
0.66,66,-0.003,-0.988,0.214,0.11459160000000004,0.4583664000000001,-0.057295800000000015,100.8119601,0.41252976,-48.36338478
0.67,67,0.0,-0.9890000000000001,0.215,0.057295800000000015,0.4583664000000001,-0.1718874,100.81768968,0.41252976,-48.3576552
0.68,68,0.0,-0.9890000000000001,0.215,0.057295800000000015,0.4583664000000001,-0.11459160000000004,100.81768968,0.41252976,-48.3576552
0.6900000000000001,69,0.0,-0.9890000000000001,0.213,0.0,0.40107059999999994,-0.11459160000000004,100.81768968,0.41252976,-48.35192562
0.7000000000000001,70,0.001,-0.991,0.21100000000000002,-0.11459160000000004,0.286479,-0.1718874,100.82341926,0.41252976,-48.34619604
0.7100000000000001,71,0.001,-0.9890000000000001,0.212,-0.11459160000000004,0.1718874,-0.11459160000000004,100.82341926,0.41252976,-48.34619604
0.72,72,0.0,-0.99,0.213,-0.2291832000000001,0.2291832000000001,-0.286479,100.82341926,0.41825934,-48.34046646
0.73,73,0.0,-0.99,0.213,-0.40107059999999994,0.286479,-0.2291832000000001,100.81768968,0.41825934,-48.34046646
0.74,74,-0.002,-0.9890000000000001,0.215,-0.4583664000000001,0.286479,-0.11459160000000004,100.8119601,0.41825934,-48.33473688
0.75,75,-0.001,-0.99,0.214,-0.6875496,0.40107059999999994,-0.11459160000000004,100.8119601,0.41252976,-48.3290073
0.76,76,-0.001,-0.9890000000000001,0.213,-0.6302538000000001,0.40107059999999994,-0.11459160000000004,100.80623052,0.41252976,-48.32327771999999
0.77,77,0.0,-0.987,0.212,-0.6302538000000001,0.2291832000000001,-0.1718874,100.80050094,0.41252976,-48.32327771999999
0.78,78,-0.002,-0.986,0.212,-0.40107059999999994,0.057295800000000015,-0.1718874,100.79477136,0.41252976,-48.32327771999999
0.79,79,-0.003,-0.985,0.213,-0.2291832000000001,0.2291832000000001,-0.286479,100.79477136,0.41825934,-48.31754814
0.8,80,-0.006,-0.986,0.212,-0.2291832000000001,0.1718874,-0.3437748,100.80050094,0.39534102,-48.31181856
0.81,81,-0.006999999999999999,-0.987,0.214,-0.057295800000000015,0.1718874,-0.40107059999999994,100.80050094,0.4010706000000001,-48.31181856
0.8200000000000001,82,-0.008,-0.985,0.215,-0.11459160000000004,0.4583664000000001,-0.286479,100.80050094,0.4010706000000001,-48.30608897999999
0.8300000000000001,83,-0.005,-0.98,0.21,0.0,0.6302538000000001,-0.1718874,100.80050094,0.4010706000000001,-48.3003594
0.8400000000000001,84,-0.004,-0.978,0.21,0.40107059999999994,0.572958,-0.11459160000000004,100.80050094,0.4010706000000001,-48.28890024
0.85,85,-0.003,-0.98,0.215,0.4583664000000001,0.572958,-0.2291832000000001,100.81768968,0.39534102,-48.28317066
0.86,86,-0.004,-0.982,0.21600000000000005,0.4583664000000001,0.572958,-0.3437748,100.82341926,0.39534102,-48.27744108
0.87,87,-0.003,-0.986,0.214,0.40107059999999994,0.8021411999999999,-0.3437748,100.82914884,0.4010706000000001,-48.26598192
0.88,88,0.0,-0.99,0.217,0.286479,0.9167328000000001,-0.286479,100.82914884,0.4010706000000001,-48.26025234
0.89,89,0.0,-0.99,0.218,0.11459160000000004,0.7448454000000001,-0.1718874,100.83487842,0.4010706000000001,-48.24879317999999
0.9,90,0.002,-0.9890000000000001,0.218,0.40107059999999994,0.4583664000000001,0.0,100.85206716,0.40680018,-48.2430636
0.91,91,0.002,-0.991,0.215,0.286479,0.286479,0.0,100.85779674,0.40680018,-48.2430636
0.92,92,0.002,-0.99,0.21600000000000005,0.40107059999999994,0.40107059999999994,-0.057295800000000015,100.85779674,0.4010706000000001,-48.23733402000001
0.93,93,0.005,-0.9890000000000001,0.217,0.5156622000000001,0.5156622000000001,-0.11459160000000004,100.86352632,0.40680018,-48.23160444
0.9400000000000001,94,0.006,-0.988,0.22,0.40107059999999994,0.286479,-0.057295800000000015,100.8692559,0.4010706000000001,-48.23160444
0.9500000000000001,95,0.006999999999999999,-0.986,0.22,0.1718874,0.11459160000000004,-0.057295800000000015,100.90363338,0.4297185000000001,-48.22587486
0.9600000000000001,96,0.006999999999999999,-0.988,0.218,0.057295800000000015,0.11459160000000004,-0.057295800000000015,100.90936295999998,0.4297185000000001,-48.22587486
0.97,97,0.004,-0.987,0.215,0.057295800000000015,-0.057295800000000015,-0.057295800000000015,100.90936295999998,0.4297185000000001,-48.22587486
0.98,98,0.003,-0.987,0.215,0.057295800000000015,-0.1718874,-0.057295800000000015,100.90936295999998,0.43544808,-48.22587486
0.99,99,0.001,-0.985,0.215,0.0,-0.286479,-0.1718874,100.90936295999998,0.43544808,-48.23160444
1.0,100,0.001,-0.985,0.213,0.057295800000000015,-0.3437748,-0.11459160000000004,100.91509254,0.43544808,-48.23160444
1.01,101,0.002,-0.985,0.214,0.2291832000000001,-0.286479,-0.1718874,100.92082212,0.44117766,-48.23733402000001
1.02,102,0.002,-0.985,0.214,0.2291832000000001,-0.2291832000000001,-0.11459160000000004,100.92082212,0.44117766,-48.23733402000001
1.03,103,0.002,-0.986,0.215,0.40107059999999994,-0.1718874,-0.057295800000000015,100.9265517,0.44117766,-48.23733402000001
1.04,104,0.001,-0.985,0.21600000000000005,0.3437748,-0.2291832000000001,0.0,100.93228128,0.44690724,-48.2430636
1.05,105,0.0,-0.985,0.214,0.40107059999999994,-0.3437748,0.057295800000000015,100.93801086,0.44117766,-48.2430636
1.06,106,0.0,-0.985,0.213,0.4583664000000001,-0.3437748,0.1718874,100.94374043999998,0.44117766,-48.24879317999999
1.07,107,0.0,-0.985,0.213,0.572958,-0.286479,-0.057295800000000015,100.94947002,0.44117766,-48.25452276
1.08,108,0.0,-0.986,0.214,0.6875496,-0.2291832000000001,-0.057295800000000015,100.95519959999999,0.44117766,-48.25452276
1.09,109,0.0,-0.987,0.21600000000000005,0.7448454000000001,0.0,0.0,100.96665876,0.44117766,-48.25452276
1.1,110,0.001,-0.99,0.217,0.6302538000000001,0.057295800000000015,0.0,100.97811792,0.44690724,-48.24879317999999
1.11,111,0.001,-0.991,0.21600000000000005,0.5156622000000001,0.0,0.1718874,100.9838475,0.44117766,-48.25452276
1.12,112,0.0,-0.99,0.214,0.40107059999999994,-0.286479,0.1718874,100.98957708,0.44117766,-48.25452276
1.1300000000000001,113,0.002,-0.9890000000000001,0.215,0.40107059999999994,-0.2291832000000001,0.1718874,100.99530666,0.44117766,-48.26025234
1.1400000000000001,114,0.003,-0.988,0.215,0.3437748,-0.1718874,0.3437748,101.00103624,0.43544808,-48.26025234
1.1500000000000001,115,0.002,-0.9890000000000001,0.215,0.11459160000000004,-0.1718874,0.2291832000000001,101.01822498,0.43544808,-48.26025234
1.1600000000000001,116,0.001,-0.9890000000000001,0.217,0.0,-0.057295800000000015,0.1718874,101.01822498,0.43544808,-48.26598192
1.17,117,0.0,-0.9890000000000001,0.21600000000000005,-0.11459160000000004,0.0,0.2291832000000001,101.01822498,0.4297185000000001,-48.26598192
1.18,118,0.0,-0.9890000000000001,0.21600000000000005,-0.11459160000000004,-0.057295800000000015,0.3437748,101.0124954,0.4297185000000001,-48.26598192
1.19,119,0.0,-0.9890000000000001,0.221,-0.5156622000000001,0.0,0.40107059999999994,101.00676582,0.42398892,-48.26598192
1.2,120,0.002,-0.987,0.21899999999999997,-0.8594370000000001,0.3437748,0.3437748,101.00676582,0.41825934,-48.26598192
1.21,121,0.001,-0.9840000000000001,0.212,-0.6302538000000001,0.286479,0.057295800000000015,101.00103624,0.41825934,-48.26025234
1.22,122,-0.001,-0.986,0.214,0.0,0.0,0.057295800000000015,101.00103624,0.41825934,-48.26025234
1.23,123,0.0,-0.985,0.21899999999999997,0.1718874,-0.286479,0.1718874,101.00103624,0.41252976,-48.26598192
1.24,124,0.0,-0.985,0.22,0.0,-0.2291832000000001,0.057295800000000015,101.00103624,0.41252976,-48.26598192
1.25,125,0.0,-0.9840000000000001,0.218,0.11459160000000004,-0.11459160000000004,0.0,101.04687288,0.40680018,-48.26598192
1.26,126,0.0,-0.986,0.218,0.2291832000000001,-0.11459160000000004,0.0,101.04687288,0.40680018,-48.26598192
1.27,127,0.0,-0.985,0.218,0.286479,0.0,0.0,101.05260246,0.40680018,-48.26598192
1.28,128,-0.002,-0.9840000000000001,0.21899999999999997,0.3437748,0.0,0.0,101.05260246,0.40680018,-48.26598192
1.29,129,0.0,-0.985,0.218,0.5156622000000001,0.057295800000000015,0.0,101.05833204,0.40680018,-48.26598192
1.3,130,0.001,-0.9840000000000001,0.21899999999999997,0.40107059999999994,0.057295800000000015,0.057295800000000015,101.08697994,0.4010706000000001,-48.26598192
1.31,131,0.001,-0.9840000000000001,0.218,0.286479,-0.057295800000000015,0.057295800000000015,101.08697994,0.4010706000000001,-48.26598192
1.32,132,0.0,-0.986,0.21600000000000005,0.286479,0.0,0.057295800000000015,101.09270952,0.4010706000000001,-48.26598192
1.33,133,0.002,-0.987,0.217,0.40107059999999994,0.0,0.11459160000000004,101.0984391,0.4010706000000001,-48.26598192
1.34,134,0.001,-0.987,0.21600000000000005,0.5156622000000001,-0.057295800000000015,0.11459160000000004,101.10416868000002,0.4010706000000001,-48.26598192
1.35,135,0.0,-0.987,0.21600000000000005,0.4583664000000001,0.0,0.057295800000000015,101.12135742,0.39534102,-48.26598192
1.36,136,0.0,-0.986,0.223,0.5156622000000001,0.0,0.0,101.127087,0.39534102,-48.26598192
1.37,137,0.001,-0.987,0.221,0.5156622000000001,0.0,0.0,101.127087,0.39534102,-48.26598192
1.3800000000000001,138,0.001,-0.988,0.21899999999999997,0.286479,0.0,-0.057295800000000015,101.13281658,0.39534102,-48.26598192
1.3900000000000001,139,0.0,-0.988,0.217,0.11459160000000004,-0.057295800000000015,-0.11459160000000004,101.13281658,0.39534102,-48.26598192
1.4000000000000001,140,0.0,-0.99,0.218,0.11459160000000004,-0.057295800000000015,-0.11459160000000004,101.1557349,0.38961144,-48.26598192
1.4100000000000001,141,0.0,-0.99,0.218,0.1718874,-0.057295800000000015,0.0,101.1557349,0.38961144,-48.26598192
1.42,142,0.0,-0.9890000000000001,0.217,0.057295800000000015,0.0,0.0,101.1557349,0.38961144,-48.26598192
1.43,143,0.0,-0.988,0.217,0.0,-0.057295800000000015,0.0,101.1557349,0.38961144,-48.26598192
1.44,144,0.0,-0.988,0.217,0.0,-0.11459160000000004,0.0,101.1557349,0.39534102,-48.26598192
1.45,145,0.001,-0.99,0.217,-0.057295800000000015,-0.1718874,0.0,101.1557349,0.4010706000000001,-48.26598192
1.46,146,0.002,-0.99,0.21600000000000005,-0.057295800000000015,-0.1718874,0.0,101.1557349,0.4010706000000001,-48.2717115
1.47,147,0.0,-0.9890000000000001,0.217,-0.2291832000000001,-0.11459160000000004,0.0,101.15000532,0.4010706000000001,-48.2717115
1.48,148,-0.002,-0.985,0.217,-0.286479,0.057295800000000015,0.0,101.15000532,0.4010706000000001,-48.2717115
1.49,149,0.0,-0.983,0.217,-0.11459160000000004,0.286479,0.11459160000000004,101.15000532,0.39534102,-48.26598192
1.5,150,0.001,-0.9840000000000001,0.21600000000000005,-0.1718874,0.40107059999999994,0.1718874,101.15000532,0.4010706000000001,-48.26598192
1.51,151,0.002,-0.986,0.218,-0.11459160000000004,0.11459160000000004,0.11459160000000004,101.15000532,0.39534102,-48.26598192
1.52,152,0.001,-0.985,0.218,-0.057295800000000015,-0.057295800000000015,-0.057295800000000015,101.15000532,0.39534102,-48.26598192
1.53,153,0.001,-0.988,0.21899999999999997,-0.11459160000000004,0.057295800000000015,0.0,101.14427573999998,0.39534102,-48.26025234
1.54,154,0.001,-0.988,0.222,-0.2291832000000001,0.11459160000000004,0.0,101.14427573999998,0.39534102,-48.26025234
1.55,155,0.001,-0.987,0.222,-0.286479,0.0,0.1718874,101.16146448,0.39534102,-48.26025234
1.56,156,0.001,-0.987,0.221,-0.2291832000000001,-0.2291832000000001,0.3437748,101.1557349,0.38961144,-48.26598192
1.57,157,0.001,-0.988,0.221,-0.4583664000000001,-0.2291832000000001,0.3437748,101.1557349,0.38961144,-48.26598192
1.58,158,0.001,-0.9890000000000001,0.22,-0.5156622000000001,-0.057295800000000015,0.1718874,101.15000532,0.38388186,-48.26598192
1.59,159,0.002,-0.987,0.221,-0.4583664000000001,0.0,0.11459160000000004,101.14427573999998,0.38388186,-48.26598192
1.6,160,0.002,-0.987,0.222,-0.3437748,0.0,0.11459160000000004,101.16146448,0.38388186,-48.26598192
1.61,161,0.002,-0.985,0.222,-0.1718874,-0.057295800000000015,0.057295800000000015,101.16146448,0.38388186,-48.2717115
1.62,162,0.001,-0.985,0.22,-0.286479,-0.057295800000000015,0.057295800000000015,101.1557349,0.38388186,-48.2717115
1.6300000000000001,163,0.001,-0.985,0.22,-0.3437748,-0.2291832000000001,0.057295800000000015,101.1557349,0.38388186,-48.2717115
1.6400000000000001,164,0.001,-0.9840000000000001,0.22,-0.286479,-0.286479,0.057295800000000015,101.15000532,0.38388186,-48.27744108
1.6500000000000001,165,0.0,-0.983,0.22,-0.286479,-0.286479,0.0,101.16146448,0.38388186,-48.27744108
1.6600000000000001,166,0.0,-0.983,0.21899999999999997,-0.11459160000000004,-0.2291832000000001,0.057295800000000015,101.16146448,0.38388186,-48.28317066
1.6700000000000002,167,-0.001,-0.985,0.221,-0.11459160000000004,-0.1718874,0.0,101.1557349,0.38388186,-48.28317066
1.68,168,-0.001,-0.985,0.22,-0.1718874,-0.1718874,-0.11459160000000004,101.1557349,0.38388186,-48.28317066
1.69,169,0.0,-0.9840000000000001,0.21899999999999997,-0.2291832000000001,0.0,-0.057295800000000015,101.1557349,0.38388186,-48.28317066
1.7,170,0.0,-0.987,0.21899999999999997,-0.057295800000000015,0.0,0.0,101.23021944,0.40680018,-48.28317066
1.71,171,0.002,-0.987,0.218,0.0,-0.057295800000000015,0.0,101.23021944,0.40680018,-48.28317066
1.72,172,0.0,-0.987,0.21600000000000005,0.0,-0.2291832000000001,0.0,101.23021944,0.40680018,-48.28317066
1.73,173,0.0,-0.986,0.217,0.11459160000000004,-0.2291832000000001,0.0,101.23021944,0.40680018,-48.28890024
1.74,174,-0.001,-0.985,0.22,0.1718874,-0.2291832000000001,0.0,101.23021944,0.40680018,-48.28890024
1.75,175,-0.002,-0.986,0.21899999999999997,0.057295800000000015,-0.1718874,0.0,101.2416786,0.38388186,-48.28890024
1.76,176,0.0,-0.9890000000000001,0.22,0.057295800000000015,0.11459160000000004,0.0,101.24740818,0.38388186,-48.28890024
1.77,177,0.001,-0.99,0.21899999999999997,0.0,0.1718874,-0.057295800000000015,101.24740818,0.38388186,-48.28890024
1.78,178,0.003,-0.9890000000000001,0.22,-0.11459160000000004,0.057295800000000015,0.0,101.2416786,0.38388186,-48.28317066
1.79,179,0.0,-0.987,0.221,-0.2291832000000001,-0.1718874,0.057295800000000015,101.2416786,0.38388186,-48.28890024
1.8,180,0.0,-0.9890000000000001,0.22,-0.3437748,-0.286479,0.0,101.24740818,0.38388186,-48.28890024
1.81,181,0.0,-0.99,0.221,-0.40107059999999994,-0.1718874,0.0,101.2416786,0.38388186,-48.29462982
1.82,182,0.0,-0.9890000000000001,0.22,-0.3437748,-0.057295800000000015,0.0,101.23594902,0.38388186,-48.29462982
1.83,183,0.0,-0.988,0.22,-0.40107059999999994,0.0,0.0,101.23594902,0.38388186,-48.29462982
1.84,184,0.0,-0.986,0.221,-0.40107059999999994,0.11459160000000004,0.0,101.23021944,0.38388186,-48.29462982
1.85,185,0.0,-0.986,0.22,-0.3437748,0.1718874,0.0,101.23021944,0.37815228,-48.28890024
1.86,186,0.0,-0.985,0.21899999999999997,-0.40107059999999994,0.057295800000000015,0.0,101.23021944,0.37815228,-48.28890024
1.87,187,0.002,-0.9840000000000001,0.22,-0.1718874,0.0,0.0,101.22448986,0.37815228,-48.28890024
1.8800000000000001,188,0.002,-0.985,0.221,-0.1718874,-0.057295800000000015,0.0,101.22448986,0.37815228,-48.28890024
1.8900000000000001,189,0.002,-0.983,0.21899999999999997,-0.286479,0.0,0.0,101.21876028,0.37815228,-48.28890024
1.9000000000000001,190,0.002,-0.9840000000000001,0.21899999999999997,-0.1718874,0.057295800000000015,0.0,101.23021944,0.38388186,-48.28890024
1.9100000000000001,191,0.0,-0.9840000000000001,0.218,-0.1718874,0.11459160000000004,0.0,101.23021944,0.38388186,-48.28890024
1.9200000000000002,192,0.0,-0.983,0.218,-0.11459160000000004,0.11459160000000004,0.0,101.23021944,0.37815228,-48.28890024
1.93,193,0.0,-0.985,0.22,0.0,0.1718874,0.057295800000000015,101.23021944,0.37815228,-48.28317066
1.94,194,0.0,-0.985,0.222,-0.057295800000000015,0.11459160000000004,0.0,101.23021944,0.37815228,-48.28317066
1.95,195,0.001,-0.986,0.223,-0.2291832000000001,0.2291832000000001,0.0,101.2416786,0.38388186,-48.27744108
1.96,196,0.002,-0.987,0.22,-0.40107059999999994,0.3437748,-0.11459160000000004,101.23594902,0.38388186,-48.27744108
1.97,197,0.001,-0.987,0.223,-0.572958,0.3437748,-0.1718874,101.23021944,0.38388186,-48.2717115
1.98,198,0.001,-0.987,0.231,-0.7448454000000001,0.7448454000000001,-0.286479,101.21876028,0.38388186,-48.26598192
1.99,199,0.003,-0.9890000000000001,0.22899999999999998,-1.0886202,1.432395,-0.3437748,101.20730112,0.38388186,-48.24879317999999
2.0,200,0.003,-0.993,0.21899999999999997,-1.8907614,1.6615782,-0.4583664000000001,101.19011238,0.38961144,-48.23160444
2.01,201,-0.003,-0.995,0.215,-2.3491277999999998,1.2605076000000002,-0.4583664000000001,101.16719406,0.38961144,-48.22014528
2.02,202,-0.009000000000000001,-0.9940000000000001,0.214,-2.1772404,0.1718874,-0.3437748,101.14427573999998,0.38961144,-48.22014528
2.03,203,-0.01,-0.9940000000000001,0.21600000000000005,-1.8907614,-0.572958,-0.286479,101.127087,0.39534102,-48.22587486
2.04,204,-0.005,-0.9940000000000001,0.22399999999999998,-1.7188740000000002,-0.6875496,-0.4583664000000001,101.10416868000002,0.4010706000000001,-48.23160444
2.05,205,-0.001,-0.991,0.23,-1.7761698000000001,-0.3437748,-0.572958,101.0984391,0.40680018,-48.23160444
2.0599999999999996,206,0.0,-0.991,0.23199999999999998,-2.0053530000000004,0.057295800000000015,-0.572958,101.08125036,0.41252976,-48.23160444
2.07,207,0.0,-0.992,0.231,-2.5783110000000002,0.572958,-0.286479,101.05260246,0.41252976,-48.22587486
2.0799999999999996,208,0.0,-0.993,0.23199999999999998,-3.0366774,0.9167328000000001,-0.1718874,101.02395456,0.41252976,-48.2144157
2.09,209,0.0,-0.9890000000000001,0.237,-3.380452200000001,1.0313244000000001,-0.11459160000000004,100.98957708,0.41252976,-48.20295654
2.0999999999999996,210,0.0,-0.99,0.243,-3.4950437999999995,0.8021411999999999,-0.057295800000000015,100.96665876,0.41252976,-48.19722696000001
2.11,211,0.003,-0.995,0.249,-3.6669312000000014,0.8594370000000001,-0.1718874,100.9265517,0.41252976,-48.185767799999994
2.1199999999999997,212,0.003,-0.998,0.24600000000000002,-3.9534102,0.6302538000000001,-0.2291832000000001,100.88644464,0.41252976,-48.18003822000001
2.13,213,-0.002,-1.003,0.237,-4.5263682,-0.057295800000000015,-0.11459160000000004,100.84060799999999,0.41252976,-48.18003822000001
2.1399999999999997,214,-0.012,-1.004,0.23399999999999999,-4.8701430000000006,-0.7448454000000001,0.0,100.78904178,0.41825934,-48.19149738
2.15,215,-0.013999999999999999,-1.005,0.23600000000000002,-4.8128472,-0.9167328000000001,0.0,100.74893472,0.41252976,-48.19722696000001
2.1599999999999997,216,-0.009000000000000001,-1.005,0.239,-5.0993262,-0.9167328000000001,0.057295800000000015,100.69736850000001,0.41252976,-48.20868612
2.17,217,-0.004,-1.006,0.247,-5.443101,-0.8021411999999999,0.0,100.6400727,0.41252976,-48.22014528
2.1799999999999997,218,0.0,-1.002,0.256,-6.0160589999999985,-0.5156622000000001,-0.11459160000000004,100.58277690000001,0.41825934,-48.22587486
2.19,219,0.001,-0.9990000000000001,0.262,-6.990087599999999,0.0,-0.3437748,100.50829236,0.41825934,-48.22587486
2.1999999999999997,220,-0.001,-0.998,0.262,-7.9641161999999985,0.572958,-0.572958,100.4395374,0.42398892,-48.22014528
2.21,221,0.0,-0.9990000000000001,0.258,-8.5370742,1.0886202,-1.0313244000000001,100.3535937,0.4297185000000001,-48.20868612
2.2199999999999998,222,0.001,-1.0070000000000001,0.248,-9.2819196,1.0313244000000001,-1.432395,100.25619084000002,0.44117766,-48.19722696000001
2.23,223,0.003,-1.014,0.24100000000000002,-10.313244000000001,0.8021411999999999,-1.6042823999999998,100.1530584,0.4526368200000001,-48.185767799999994
2.2399999999999998,224,0.006999999999999999,-1.021,0.235,-11.1153852,0.8021411999999999,-1.7188740000000002,100.0384668,0.46982556,-48.17430864
2.25,225,0.01,-1.024,0.23199999999999998,-12.4331886,0.8594370000000001,-1.7761698000000001,99.91814562,0.4870143000000001,-48.16284948000001
2.26,226,0.013000000000000001,-1.022,0.233,-13.980175199999998,0.6302538000000001,-1.6042823999999998,99.77490612,0.4984734599999999,-48.1571199
2.27,227,0.016,-1.021,0.23399999999999999,-15.6990492,0.286479,-1.4896908000000002,99.61447788,0.5156622000000001,-48.1571199
2.28,228,0.016,-1.021,0.237,-17.303331600000003,-0.286479,-1.432395,99.4368609,0.52712136,-48.1571199
2.29,229,0.016,-1.021,0.23399999999999999,-18.9649098,-0.9167328000000001,-1.432395,99.24778476,0.5443101,-48.16857906
2.3,230,0.015,-1.0270000000000001,0.22899999999999998,-20.8556712,-1.2605076000000002,-1.5469866,99.03579029999999,0.56149884,-48.18003822000001
2.31,231,0.012,-1.032,0.222,-22.9756158,-1.7761698000000001,-1.7188740000000002,98.8066071,0.5786875800000001,-48.19722696000001
2.32,232,0.006,-1.033,0.221,-25.0955604,-2.4064236,-1.8334656000000005,98.548776,0.6016058999999999,-48.22014528
2.3299999999999996,233,0.002,-1.033,0.22,-26.642546999999997,-3.1512689999999997,-2.0626488000000003,98.27948574,0.62452422,-48.25452276
2.34,234,0.003,-1.04,0.215,-29.2781538,-3.5523396000000003,-2.0626488000000003,97.98154758,0.64744254,-48.28890024
2.3499999999999996,235,0.006,-1.045,0.205,-32.085648000000006,-3.5523396000000003,-2.0626488000000003,97.6606911,0.6703608600000001,-48.32327771999999
2.36,236,0.006,-1.045,0.196,-34.4347758,-3.7242269999999995,-1.8907614,97.31118672,0.69327918,-48.36338478
2.3699999999999997,237,0.009000000000000001,-1.046,0.18899999999999997,-36.38283300000001,-4.9274388,-1.8334656000000005,96.93876402,0.7161975,-48.414951
2.38,238,0.006999999999999999,-1.048,0.188,-38.5027776,-7.1046792000000005,-1.8334656000000005,96.54915258,0.7448454000000001,-48.48370596
2.3899999999999997,239,0.0,-1.047,0.19,-40.1643558,-8.479778399999999,-1.8907614,96.1423524,0.7734933,-48.56964966
2.4,240,0.0,-1.034,0.17600000000000002,-43.029145799999995,-7.6203414,-2.5210152000000003,95.70690432,0.8021412000000001,-48.64986378
2.4099999999999997,241,0.0,-1.02,0.179,-43.7166954,-5.72958,-2.8074942000000003,95.25999708,0.83651868,-48.70715958
2.42,242,-0.001,-1.026,0.188,-45.3782736,-5.042030400000002,-2.86479,94.80163068,0.86516658,-48.75872579999999
2.4299999999999997,243,-0.001,-1.04,0.161,-47.211739200000004,-4.8128472,-3.0366774,94.32034596,0.89954406,-48.81029202000001
2.44,244,-0.003,-1.0490000000000002,0.138,-49.1597964,-2.7501984,-3.2658606,93.8218725,0.92819196,-48.8446695
2.4499999999999997,245,0.002,-1.047,0.147,-50.133825,-1.432395,-3.2085647999999996,93.31193988,0.95683986,-48.86185824
2.46,246,0.01,-1.044,0.149,-50.47759979999999,-1.432395,-3.1512689999999997,92.80200726,0.9912173399999998,-48.87904698000001
2.4699999999999998,247,0.013999999999999999,-1.042,0.138,-52.3110654,-2.1772404,-2.7501984,92.26915632,1.01413566,-48.90769488
2.48,248,0.011000000000000001,-1.031,0.135,-53.68616460000001,-2.6929026,-2.4064236,91.72484622,1.03705398,-48.93634278
2.4899999999999998,249,0.003,-1.03,0.136,-53.571573,-2.6356068,-2.4064236,91.18053612,1.05424272,-48.97072026
2.5,250,0.0,-1.035,0.126,-53.8007562,0.0,-2.4637194,90.63622602,1.07716104,-48.97644984
2.51,251,-0.004,-1.036,0.10800000000000001,-53.285093999999994,2.1772404,-2.9220858,90.0976455,1.10007936,-48.959261100000006
2.52,252,-0.006999999999999999,-1.037,0.096,-54.3164184,2.9220858,-3.2658606,89.54760582,1.12872726,-48.93634278
2.53,253,-0.013999999999999999,-1.033,0.098,-55.40503860000001,1.2032118,-3.7242269999999995,88.98037740000002,1.16310474,-48.9306132
2.54,254,-0.013000000000000001,-1.046,0.091,-56.9520252,0.286479,-4.6982555999999995,88.40168982,1.2032117999999998,-48.93634278
2.55,255,-0.005,-1.052,0.079,-59.7022236,0.6875496,-5.2139178,87.80008391999998,1.24904844,-48.93634278
2.56,256,0.005,-1.051,0.063,-61.87946400000001,0.7448454000000001,-5.0993262,87.17555970000002,1.29488508,-48.93634278
2.57,257,0.009000000000000001,-1.042,0.04,-64.11400019999999,0.1718874,-4.8701430000000006,86.52238758000001,1.34072172,-48.94207236
2.5799999999999996,258,0.003,-1.025,0.039,-64.9161414,-0.5156622000000001,-5.5576926,85.86348588000001,1.38655836,-48.959261100000006
2.59,259,-0.004,-1.013,0.031,-64.97343719999999,0.572958,-6.1879464,85.20458418000003,1.44385416,-48.96499067999999
2.5999999999999996,260,-0.013000000000000001,-1.015,0.027000000000000003,-64.17129600000001,1.7761698000000001,-6.1879464,84.55714164,1.50114996,-48.959261100000006
2.61,261,-0.009000000000000001,-1.026,0.013999999999999999,-65.4890994,3.7815228,-6.589017,83.89251035999997,1.56417534,-48.93634278
2.6199999999999997,262,-0.004,-1.03,-0.002,-66.749607,6.4744254,-7.1046792000000005,83.21069034,1.6329303,-48.88477656
2.63,263,-0.002,-1.03,-0.024,-68.2965936,8.4224826,-7.2765666,82.51741116,1.7074148399999998,-48.82175118000001
2.6399999999999997,264,0.0,-1.035,-0.035,-71.44786260000002,8.651665800000002,-7.9641161999999985,81.79548408,1.78762896,-48.75299622
2.65,265,0.0,-1.03,-0.045,-74.48454,8.193299399999999,-8.3651868,81.04490909999998,1.86784308,-48.68997084
2.6599999999999997,266,0.022000000000000002,-1.022,-0.071,-77.46392159999998,7.3911582,-8.5370742,80.25995664,1.9595163600000003,-48.63840462
2.67,267,0.045,-1.012,-0.099,-79.75575359999998,6.3598338,-8.021412000000002,79.44635628,2.03973048,-48.59829756
2.6799999999999997,268,0.059000000000000004,-1.01,-0.09699999999999999,-80.21412,4.6982555999999995,-7.8495246,78.63275592,2.11421502,-48.57537924
2.69,269,0.07400000000000001,-1.02,-0.127,-83.19350159999998,2.5783110000000002,-7.734933000000002,77.79050766,2.18296998,-48.57537924
2.6999999999999997,270,0.076,-1.0270000000000001,-0.147,-85.0269672,-0.8594370000000001,-6.417129599999999,76.92534108,2.24026578,-48.60402714000001
2.71,271,0.068,-1.035,-0.152,-87.089616,-5.5576926,-4.297185,76.04298576,2.25745452,-48.67278209999999
2.7199999999999998,272,0.049,-1.023,-0.16899999999999998,-89.66792699999998,-10.3705398,-1.6042823999999998,75.12625296,2.24026578,-48.7873737
2.73,273,0.022000000000000002,-0.997,-0.147,-91.27220940000001,-14.1520626,0.2291832000000001,74.198061,2.20015872,-48.9306132
2.7399999999999998,274,0.027000000000000003,-0.971,-0.134,-90.8711388,-14.381245800000002,0.5156622000000001,73.26986904,2.1485925000000003,-49.0738527
2.75,275,0.052000000000000005,-0.9590000000000001,-0.163,-91.5586884,-13.120738199999998,-0.40107059999999994,72.34167708,2.10848544,-49.21136262
2.76,276,0.057999999999999996,-0.968,-0.179,-90.240885,-14.037471,-1.0886202,71.42494428,2.06837838,-49.35460212
2.77,277,0.048,-0.981,-0.2,-90.5846598,-14.32395,-2.2345362,70.49675232,2.0340009,-49.5035712
2.78,278,0.024,-0.995,-0.191,-88.2928278,-13.521808800000002,-2.8074942000000003,69.59720826,2.01108258,-49.6468107
2.79,279,0.028999999999999998,-1.018,-0.237,-90.1835892,-13.2353298,-2.5210152000000003,68.68047546,1.9767051,-49.7900502
2.8,280,0.017,-1.055,-0.303,-92.4754212,-13.8082878,-1.7761698000000001,67.74082434,1.93659804,-49.9332897
2.81,281,0.005,-1.081,-0.376,-92.4754212,-13.750992000000002,-0.572958,66.80117322,1.88503182,-50.06507004
2.82,282,0.001,-1.099,-0.397,-87.77716559999998,-14.209358400000001,0.057295800000000015,65.90735873999999,1.81627686,-50.20257996
2.8299999999999996,283,0.027000000000000003,-1.115,-0.418,-83.0216142,-14.667724800000002,0.057295800000000015,65.05938090000001,1.75325148,-50.34008988
2.84,284,0.071,-1.114,-0.447,-77.0055552,-13.407217200000002,-0.40107059999999994,64.28015802,1.6902260999999998,-50.47187021999999
2.8499999999999996,285,0.10400000000000001,-1.117,-0.455,-71.79163740000001,-12.318597,0.11459160000000004,63.54677177999999,1.6329303,-50.58646182
2.86,286,0.1,-1.127,-0.48200000000000004,-67.83822719999999,-12.1467096,0.8594370000000001,62.85922218,1.56417534,-50.69532384
2.8699999999999997,287,0.081,-1.137,-0.502,-63.59833800000001,-12.1467096,0.11459160000000004,62.21177964,1.50687954,-50.80991544000001
2.88,288,0.051,-1.148,-0.541,-58.9000824,-11.0007936,-0.9740286,61.61017374000001,1.45531332,-50.91304787999999
2.8899999999999997,289,0.017,-1.157,-0.579,-55.06126379999999,-8.4224826,-1.8907614,61.05440448,1.42666542,-50.99899158
2.9,290,0.012,-1.1340000000000001,-0.608,-50.24841660000001,-6.7609043999999985,-2.6929026,60.53874228000001,1.41520626,-51.0792057
2.9099999999999997,291,0.027999999999999997,-1.099,-0.63,-47.326330799999994,-7.7922288,-1.8334656000000005,60.05745756,1.38655836,-51.15941982
2.92,292,0.05,-1.073,-0.645,-44.2323576,-9.6256944,-0.572958,59.61055032,1.34072172,-51.24536352
2.9299999999999997,293,0.064,-1.065,-0.633,-41.4248634,-11.0007936,0.0,59.186561399999995,1.28342592,-51.34276638
2.94,294,0.084,-1.065,-0.626,-39.247623,-11.45916,-0.3437748,58.79122037999999,1.22613012,-51.44589881999999
2.9499999999999997,295,0.09699999999999999,-1.064,-0.623,-37.757932200000006,-11.0580894,-1.5469866,58.40733852000001,1.18029348,-51.55476083999999
2.96,296,0.096,-1.05,-0.632,-36.2682414,-11.2872726,-2.7501984,58.03491582,1.1459160000000002,-51.66362286
2.9699999999999998,297,0.08,-1.025,-0.63,-33.8618178,-11.2299768,-3.4377480000000005,57.69114102000001,1.11153852,-51.78394404000001
2.98,298,0.059000000000000004,-0.992,-0.62,-30.7105488,-10.657018800000001,-2.6356068,57.37601412,1.07716104,-51.88707648
2.9899999999999998,299,0.046,-0.9520000000000001,-0.595,-28.0176462,-9.9694692,-1.432395,57.0952647,1.03705398,-51.98447934000001
3.0,300,0.036000000000000004,-0.917,-0.5710000000000001,-24.809081399999997,-8.9954406,-0.5156622000000001,56.84316318,0.9912173399999998,-52.06469346
3.01,301,0.034,-0.884,-0.565,-22.2880662,-8.078707799999998,0.0,56.61397998,0.9453807,-52.13344842
3.02,302,0.040999999999999995,-0.8590000000000001,-0.5489999999999999,-19.2513888,-7.161975,0.1718874,56.41917426,0.90527364,-52.19074422
3.03,303,0.054000000000000006,-0.8390000000000001,-0.536,-16.042824000000003,-6.3598338,0.286479,56.25301644,0.86516658,-52.24231044
3.04,304,0.065,-0.823,-0.524,-13.0634424,-6.990087599999999,0.6875496,56.121236100000004,0.8193299399999999,-52.29960624
3.05,305,0.07400000000000001,-0.812,-0.518,-10.3705398,-7.2192707999999985,0.6875496,56.01810366,0.7849524600000001,-52.35690204
3.06,306,0.078,-0.797,-0.513,-5.7868758000000025,-6.9327918,0.2291832000000001,55.96080786,0.75057498,-52.41419784
3.07,307,0.086,-0.8009999999999999,-0.508,-2.6929026,-7.5057497999999985,0.0,55.93215996,0.7104679199999999,-52.477223220000006
3.08,308,0.09,-0.813,-0.499,0.4583664000000001,-7.5630456000000015,-0.2291832000000001,55.93788954,0.6703608600000001,-52.54024860000001
3.09,309,0.077,-0.82,-0.484,3.2658606,-8.078707799999998,-1.0313244000000001,55.97226702,0.63598338,-52.61473314
3.0999999999999996,310,0.06,-0.804,-0.48100000000000004,5.2139178,-7.906820400000001,-2.4064236,56.02383324,0.62452422,-52.69494725999999
3.11,311,0.046,-0.778,-0.47600000000000003,7.2192707999999985,-7.6776372,-3.4377480000000005,56.09831778,0.61306506,-52.78089096
3.1199999999999997,312,0.040999999999999995,-0.753,-0.47,8.59437,-7.0473834,-3.8388186,56.18999106,0.6073354799999999,-52.8553755
3.13,313,0.055,-0.727,-0.45899999999999996,9.568398599999998,-6.703608600000001,-3.4950437999999995,56.28739392,0.6016058999999999,-52.93558962000001
3.1399999999999997,314,0.075,-0.7120000000000001,-0.45899999999999996,11.1153852,-6.7609043999999985,-2.9793816000000004,56.39625594,0.59014674,-53.00434458
3.15,315,0.08800000000000001,-0.716,-0.456,12.2040054,-6.9327918,-3.3231564,56.5223067,0.59587632,-53.0845587
3.1599999999999997,316,0.106,-0.721,-0.449,13.5791046,-7.5057497999999985,-3.5523396000000003,56.65981662,0.5844171599999999,-53.16477282
3.17,317,0.109,-0.725,-0.45,15.068795399999999,-8.651665800000002,-3.6096353999999997,56.81451528,0.5729580000000001,-53.25644610000001
3.1799999999999997,318,0.095,-0.728,-0.447,16.272007199999994,-9.740286,-3.6096353999999997,56.9806731,0.55576926,-53.35957854000001
3.19,319,0.08199999999999999,-0.726,-0.428,17.131444199999994,-10.5424272,-3.6669312000000014,57.15256049999999,0.53285094,-53.46844056
3.1999999999999997,320,0.077,-0.726,-0.431,17.761698000000006,-11.745639,-4.1252976000000015,57.33590706,0.5156622000000001,-53.58876174
3.21,321,0.08,-0.7240000000000001,-0.43,18.1054728,-12.3758928,-4.583664,57.51925361999999,0.49274388,-53.71481250000001
3.2199999999999998,322,0.09,-0.725,-0.428,18.506543399999998,-13.8655836,-4.583664,57.70832975999999,0.46409598,-53.858052
3.23,323,0.1,-0.7240000000000001,-0.426,18.8503182,-15.011499599999999,-4.2398892,57.8974059,0.4297185000000001,-54.00702108
3.2399999999999998,324,0.107,-0.721,-0.435,19.079501399999998,-15.9855282,-3.8388186,58.09221162,0.38388186,-54.16171974
3.25,325,0.10300000000000001,-0.7170000000000001,-0.426,19.365980399999998,-17.131444199999994,-3.4377480000000005,58.29274692,0.33804522,-54.32787755999999
3.26,326,0.098,-0.718,-0.426,19.5378678,-17.761698000000006,-3.380452200000001,58.49328222000001,0.28074942,-54.49403537999999
3.27,327,0.094,-0.722,-0.42,19.5378678,-18.907614,-3.4377480000000005,58.69381752,0.21772404,-54.67165236
3.28,328,0.096,-0.725,-0.423,18.6784308,-19.8243468,-3.4950437999999995,58.88289365999999,0.15469866,-54.86072849999999
3.29,329,0.1,-0.7240000000000001,-0.414,18.334656,-20.7983754,-3.4377480000000005,59.0719698,0.0859437,-55.05553422000001
3.3,330,0.105,-0.727,-0.41600000000000004,17.4179232,-22.1734746,-3.4377480000000005,59.24958678,0.01718874,-55.26752868000001
3.31,331,0.10400000000000001,-0.7340000000000001,-0.41100000000000003,16.329303,-23.892348600000002,-3.380452200000001,59.42147418,-0.057295800000000015,-55.49098230000001
3.32,332,0.099,-0.74,-0.415,14.7823164,-25.6112226,-3.7242269999999995,59.57617283999999,-0.14896908,-55.72589508000001
3.33,333,0.1,-0.742,-0.429,13.9228794,-27.3300966,-4.0680017999999984,59.71941234,-0.24064236,-55.98372618000001
3.34,334,0.10300000000000001,-0.7390000000000001,-0.42100000000000004,13.407217200000002,-29.5646328,-4.3544808,59.86265184,-0.3437748,-56.2644756
3.3499999999999996,335,0.105,-0.735,-0.414,12.776963400000001,-31.340802600000004,-4.9847346,60.00016175999999,-0.43544808,-56.56241376000001
3.36,336,0.105,-0.7290000000000001,-0.413,11.802934800000001,-33.0596766,-5.7868758000000025,60.12621252,-0.53858052,-56.87754066
3.3699999999999997,337,0.105,-0.7290000000000001,-0.408,10.828906199999999,-34.0337052,-6.4744254,60.24080411999999,-0.64171296,-57.20412672
3.38,338,0.10300000000000001,-0.7290000000000001,-0.39399999999999996,9.224623800000002,-34.8931422,-6.9327918,60.34393656,-0.7448454000000001,-57.54217193999999
3.3899999999999997,339,0.096,-0.728,-0.40299999999999997,7.3911582,-35.9244666,-7.2192707999999985,60.42988026,-0.8479778399999999,-57.89167632
3.4,340,0.08800000000000001,-0.72,-0.406,6.2452422,-36.4401288,-7.2765666,60.50436480000001,-0.9453807,-58.24691028
3.4099999999999997,341,0.08,-0.713,-0.39,5.2139178,-37.013086799999996,-7.2765666,60.56739018,-1.05424272,-58.60214424
3.42,342,0.078,-0.7070000000000001,-0.401,3.4950437999999995,-37.6433406,-7.448453999999999,60.61322682,-1.16310474,-58.96883736
3.4299999999999997,343,0.078,-0.7070000000000001,-0.41100000000000003,2.4064236,-38.67466500000001,-7.9641161999999985,60.65333388000001,-1.27196676,-59.34698964
3.44,344,0.07400000000000001,-0.7090000000000001,-0.409,1.5469866,-39.6486936,-8.8235532,60.68198178,-1.3750992,-59.73660108
3.4499999999999997,345,0.077,-0.72,-0.415,0.3437748,-41.1383844,-9.5111028,60.69917052,-1.4782316400000002,-60.14340126
3.46,346,0.08199999999999999,-0.7340000000000001,-0.424,-0.9740286,-42.742666799999995,-10.3705398,60.70490010000001,-1.5813640800000002,-60.56739018
3.4699999999999998,347,0.083,-0.7440000000000001,-0.42,-2.3491277999999998,-44.690723999999996,-10.7716104,60.69917052,-1.6959556799999995,-61.01429741999999
3.48,348,0.08,-0.748,-0.429,-3.9534102,-45.3209778,-11.172680999999999,60.68198178,-1.8048177,-61.46120466
3.4899999999999998,349,0.083,-0.752,-0.428,-5.2139178,-45.72204840000001,-11.401864199999999,60.6476043,-1.9194093000000003,-61.91957106
3.5,350,0.076,-0.757,-0.444,-6.5317212,-47.3836266,-11.3445684,60.60176765999999,-2.0340009,-62.38939661999999
3.51,351,0.071,-0.762,-0.439,-7.2765666,-48.70143,-11.3445684,60.55020144,-2.16005166,-62.87068134
3.52,352,0.073,-0.77,-0.43799999999999994,-8.193299399999999,-48.2430636,-11.5164558,60.49290564,-2.28610242,-63.35196606000001
3.53,353,0.08199999999999999,-0.7829999999999999,-0.436,-9.682990199999999,-47.8992888,-11.1153852,60.4184211,-2.41215318,-63.82179162
3.54,354,0.09,-0.8,-0.449,-11.0007936,-48.2430636,-9.9121734,60.3324774,-2.5496631,-64.29734676
3.55,355,0.08,-0.815,-0.442,-11.2872726,-48.3003594,-8.7662574,60.24653370000001,-2.6929026,-64.76144274
3.56,356,0.057,-0.828,-0.43,-11.3445684,-48.7587258,-7.6776372,60.16059,-2.85906042,-65.22553872
3.57,357,0.027000000000000003,-0.835,-0.41100000000000003,-12.0894138,-48.8733174,-6.9327918,60.06891672,-3.03094782,-65.68390511999999
3.58,358,0.01,-0.8390000000000001,-0.41600000000000004,-12.891555,-48.7587258,-6.3025379999999975,59.96578428,-3.20283522,-66.14227152
3.59,359,0.002,-0.8290000000000001,-0.423,-13.6936962,-48.8733174,-5.7868758000000025,59.86265184,-3.38618178,-66.59490833999999
3.5999999999999996,360,0.01,-0.8290000000000001,-0.4270000000000001,-14.8396122,-49.274388,-5.5003968,59.74806024000001,-3.56952834,-67.05327473999999
3.61,361,0.027000000000000003,-0.8270000000000001,-0.42200000000000004,-15.870936600000002,-50.1911208,-5.5003968,59.62200948000001,-3.76433406,-67.51737072
3.6199999999999997,362,0.044000000000000004,-0.828,-0.4270000000000001,-16.673077799999998,-51.3943326,-5.3858052,59.49022914,-3.9648693599999993,-67.99292586
3.63,363,0.053,-0.8270000000000001,-0.4320000000000001,-16.615782,-53.39968560000001,-4.9847346,59.36417838,-4.1825934,-68.48566973999999
3.6399999999999997,364,0.067,-0.833,-0.41100000000000003,-16.042824000000003,-54.14453099999999,-4.8128472,59.24385720000001,-4.40031744,-68.97841362
3.65,365,0.079,-0.843,-0.4,-16.272007199999994,-54.717489,-4.6409598,59.1292656,-4.6180414800000005,-69.47688708
3.6599999999999997,366,0.07200000000000001,-0.85,-0.385,-16.4438946,-54.54560160000001,-4.010706000000001,59.00894442,-4.85295426,-69.96963095999999
3.67,367,0.049,-0.855,-0.38299999999999995,-16.272007199999994,-53.8007562,-2.86479,58.89435282,-5.08786704,-70.45091568
3.6799999999999997,368,0.02,-0.863,-0.38799999999999996,-16.386598799999998,-52.82672760000001,-1.3750992,58.77403164,-5.339968560000001,-70.91501166
3.69,369,-0.006,-0.8640000000000001,-0.387,-16.4438946,-52.425657,0.11459160000000004,58.65944003999999,-5.59779966,-71.36764848
3.6999999999999997,370,-0.01,-0.857,-0.386,-16.902261,-51.68081160000001,1.8334656000000005,58.54484844,-5.86708992,-71.80309656
3.71,371,-0.002,-0.847,-0.392,-17.475219,-51.2224452,2.86479,58.41879768,-6.14210976,-72.23281506
3.7199999999999998,372,0.008,-0.841,-0.39399999999999996,-17.7044022,-52.2537696,3.8388186,58.29274692,-6.4400479200000005,-72.66253356
3.73,373,0.013000000000000001,-0.8370000000000001,-0.392,-17.475219,-53.571573,4.9274388,58.17242574000001,-6.74944524,-73.09798164
3.7399999999999998,374,0.021,-0.8390000000000001,-0.391,-17.589810600000003,-56.8947294,5.844171599999999,58.05783414,-7.08176088,-73.55634804
3.75,375,0.035,-0.84,-0.386,-17.7044022,-59.7595194,6.3025379999999975,57.94897212000001,-7.431265259999999,-74.03763276000002
3.76,376,0.055,-0.846,-0.385,-17.303331600000003,-60.9054354,6.3598338,57.84583968000001,-7.792228800000001,-74.53037664
3.77,377,0.063,-0.848,-0.363,-16.4438946,-61.764872399999994,6.2452422,57.75989598,-8.158921920000001,-75.0288501
3.78,378,0.05,-0.847,-0.35200000000000004,-15.3552744,-61.994055599999996,5.72958,57.68541144,-8.519885460000001,-75.53305314
3.79,379,0.031,-0.836,-0.342,-13.980175199999998,-61.8221682,5.72958,57.62811564,-8.88657858,-76.03152659999998
3.8,380,0.015,-0.83,-0.33299999999999996,-12.6623718,-61.24921020000001,6.4744254,57.59373816,-9.24181254,-76.53000005999998
3.81,381,0.013000000000000001,-0.8270000000000001,-0.32899999999999996,-12.1467096,-61.30650600000001,7.5057497999999985,57.5536311,-9.61996482,-77.01701435999998
3.82,382,0.028999999999999998,-0.823,-0.316,-11.5737516,-62.3378304,8.651665800000002,57.53071278,-10.00957626,-77.50402865999997
3.83,383,0.045,-0.816,-0.308,-11.401864199999999,-64.457775,9.9121734,57.51352404000001,-10.42210602,-78.00823170000002
3.84,384,0.053,-0.8140000000000001,-0.317,-10.828906199999999,-65.317212,10.657018800000001,57.50206488,-10.84036536,-78.51816432000003
3.8499999999999996,385,0.062,-0.807,-0.315,-9.9121734,-67.66633979999999,11.2872726,57.51925361999999,-11.27008386,-79.0395561
3.86,386,0.069,-0.794,-0.319,-8.7662574,-71.44786260000002,11.745639,57.5536311,-11.73417984,-79.59532535999998
3.8699999999999997,387,0.073,-0.778,-0.308,-7.5057497999999985,-74.02617359999998,11.745639,57.60519732,-12.20973498,-80.17401294
3.88,388,0.064,-0.775,-0.294,-6.3598338,-76.0888224,11.0580894,57.67968186,-12.68529012,-80.78134842
3.8899999999999997,389,0.065,-0.777,-0.285,-4.8128472,-76.8336678,10.4278356,57.78281430000001,-13.160845260000002,-81.39441348
3.9,390,0.085,-0.774,-0.275,-3.380452200000001,-76.7190762,10.7143146,57.90886506,-13.624941240000002,-82.00747854
3.9099999999999997,391,0.094,-0.774,-0.266,-2.0053530000000004,-77.23473840000003,11.917526400000002,58.0406454,-14.11195554,-82.62054359999998
3.92,392,0.105,-0.775,-0.257,-0.8021411999999999,-78.38065440000003,13.3499214,58.20107363999999,-14.61615858,-83.23933824000002
3.9299999999999997,393,0.109,-0.763,-0.25,0.5156622000000001,-81.1308528,14.438541599999999,58.37869062,-15.14327994,-83.8810512
3.94,394,0.105,-0.748,-0.24600000000000002,2.1772404,-83.8810512,14.7823164,58.59068508,-15.68186046,-84.54568248000002
3.9499999999999997,395,0.121,-0.733,-0.24600000000000002,3.6669312000000014,-85.54262940000002,14.610429000000002,58.83705702,-16.208981819999998,-85.23323208
3.96,396,0.131,-0.7190000000000001,-0.22399999999999998,5.6149884000000005,-87.83446140000002,15.2406828,59.10634728,-16.764751080000003,-85.9437
3.9699999999999998,397,0.114,-0.7090000000000001,-0.2,6.875496000000001,-90.1262934,15.813640800000002,59.40428544,-17.331979500000006,-86.67135666
3.98,398,0.08800000000000001,-0.685,-0.185,7.8495246,-92.7619002,17.246035799999998,59.72514192,-17.92212624,-87.42193164
3.9899999999999998,399,0.09300000000000001,-0.675,-0.18100000000000002,9.453807,-93.85052040000001,17.9908812,60.06891672,-18.518002560000006,-88.18969536
4.0,400,0.09,-0.682,-0.152,10.4278356,-94.9391406,17.9335854,60.44706899999999,-19.1081493,-88.96891824000002
4.01,401,0.078,-0.644,-0.138,11.2872726,-96.829902,16.902261,60.84813959999999,-19.69829604,-89.7825186
4.02,402,0.045,-0.586,-0.124,12.9488508,-96.4288314,15.2406828,61.27212852,-20.26552446,-90.60184854
4.03,403,0.0,-0.54,-0.109,14.5531332,-95.7412818,14.8396122,61.72476534,-20.82129372,-91.43263764
4.04,404,-0.009000000000000001,-0.501,-0.09,16.329303,-93.6213372,15.2406828,62.1945909,-21.36560382,-92.24050842
4.05,405,0.001,-0.452,-0.07200000000000001,18.3919518,-92.41812540000001,14.610429000000002,62.69879394,-21.886995600000002,-93.05410878
4.06,406,-0.016,-0.385,-0.03,20.454600600000006,-90.9857304,12.7196676,63.22591529999999,-22.38546906,-93.86770914
4.07,407,-0.001,-0.326,0.01,21.886995600000002,-87.83446140000002,11.45916,63.76449582,-22.84956504,-94.66412076
4.08,408,0.009000000000000001,-0.261,0.038,23.9496444,-85.37074199999998,11.0580894,64.32599466,-23.29647228,-95.44334364
4.09,409,0.023,-0.235,0.083,26.1841806,-84.11023440000002,11.1153852,64.9161414,-23.72619078,-96.22256652
4.1,410,0.021,-0.195,0.09699999999999999,28.2468294,-84.56860079999998,12.776963400000001,65.53493604,-24.16736844,-97.00751898
4.109999999999999,411,0.011000000000000001,-0.13,0.1,30.137590799999998,-86.51665799999998,14.1520626,66.18810816,-24.62000526,-97.80966018
4.12,412,0.018000000000000002,-0.07200000000000001,0.111,31.627281600000003,-87.6052782,15.2406828,66.86419860000001,-25.07837166,-98.62899012
4.13,413,0.017,-0.052000000000000005,0.1,33.403451399999994,-89.26685640000002,16.902261,67.57466652000001,-25.54819722,-99.45977922
4.14,414,0.011000000000000001,-0.071,0.049,31.51269000000001,-86.80313699999998,18.6784308,68.25648654,-26.01802278000001,-100.27337958
4.1499999999999995,415,-0.006,-0.09699999999999999,-0.062,29.392745399999995,-81.4173318,21.485925,68.8981995,-26.48211876,-101.02968414
4.16,416,0.008,-0.153,-0.231,26.1841806,-85.3134462,27.8457588,69.5284533,-27.014969699999998,-101.80890702
4.17,417,0.081,-0.163,-0.3670000000000001,24.350715,-99.4655088,41.9405256,70.19881416000001,-27.71970804,-102.69699192
4.18,418,0.222,-0.08800000000000001,-0.316,22.058882999999998,-126.5664222,58.49901179999999,70.97230746,-28.6479,-103.83144876
4.1899999999999995,419,0.387,-0.022000000000000002,-0.311,22.9756158,-147.1356144,70.8176088,71.8775811,-29.736520199999998,-105.1664409
4.2,420,0.424,-0.023,-0.204,30.022999199999997,-170.2258218,79.06820400000002,73.01203794,-30.93400242,-106.76499372
4.21,421,0.26899999999999996,-0.071,-0.163,32.544014399999995,-192.4565922,82.8497268,74.35848924,-32.20596918,-108.65002554
4.22,422,-0.048,-0.047,-0.166,33.6899304,-208.27023300000002,86.7458412,75.88255752,-33.506583840000005,-110.76997013999998
4.2299999999999995,423,-0.25,0.011000000000000001,-0.068,37.0703826,-220.302351,93.2202666,77.59570194,-34.84730556,-113.09045004
4.24,424,-0.43,0.01,0.025,40.7373138,-231.9333984,100.66872059999999,79.50938166,-36.21667518,-115.6229244
4.25,425,-0.623,-0.132,0.073,42.685371,-247.97622239999998,118.94608079999999,81.66370374,-37.71782514,-118.41895944
4.26,426,-1.102,-0.183,0.132,31.913760600000003,-266.8838364,159.74069039999995,83.9669949,-39.54556116,-121.53012138
4.27,427,-2.13,-0.762,-0.22699999999999998,51.279740999999994,-254.679831,164.9546082,86.55103548,-41.31600138,-124.65274248
4.28,428,-2.615,-1.311,0.156,59.0719698,-225.9746352,164.725425,89.14653522,-42.96612042,-127.58055786
4.29,429,-2.995,-1.058,0.21600000000000005,47.498218200000004,-183.5184474,189.30532319999998,91.40971932,-44.78239728,-130.10730264
4.3,430,-3.411,-0.909,0.258,49.388979600000006,-144.6145992,213.7706298,93.48955686,-46.79920943999999,-132.28454304
4.31,431,-3.4410000000000003,-1.217,0.228,54.8320806,-117.45638999999998,224.886015,95.53501692,-48.89623572000001,-134.26697772
4.32,432,-3.952,-1.797,0.308,72.192708,-94.251591,232.907427,97.69506857999998,-51.05628738,-136.10617290000002
4.33,433,-3.697,-2.75,0.988,96.3142398,-78.2660628,226.4902974,100.10722176,-53.13039533999999,-137.90526101999998
4.34,434,-3.2289999999999996,-2.9139999999999997,1.252,68.6976642,-30.7105488,231.01666559999998,101.82609576,-55.31336532,-139.15430945999998
4.35,435,-2.09,-1.994,1.5090000000000001,58.0979412,26.4706596,250.955604,102.84023142,-57.80573262,-139.66424208
4.36,436,-2.023,-0.4970000000000001,1.381,5.6722842,36.4974246,287.7968034,103.41891899999999,-60.6762522,-140.26584798000002
4.37,437,-2.4219999999999997,0.667,1.0979999999999999,-15.813640800000002,7.5057497999999985,321.2002548,104.61067164,-63.79314372,-141.78991625999996
4.38,438,-2.045,0.89,0.731,21.772404,-13.178034,277.19708039999995,106.71915708000002,-66.40010262000001,-143.86402422
4.39,439,-1.166,0.995,0.56,60.9054354,-24.5798982,221.7920418,109.53238086000002,-68.40545562,-146.23034076
4.3999999999999995,440,-1.4080000000000001,0.40399999999999997,0.845,79.92764100000002,-57.2385042,172.63224540000004,113.34828114,-69.78055481999999,-149.43317598
4.41,441,-1.8880000000000001,0.102,0.862,47.4409224,-76.0888224,154.7559558,117.55379286,-70.82333838000002,-153.37512701999995
4.42,442,-1.6980000000000002,0.24100000000000002,0.616,35.0650296,-61.07732280000001,151.89116579999995,121.65044256,-71.8202853,-157.31134848
4.43,443,-1.54,-0.044000000000000004,0.429,51.56622,-34.8358464,151.1463204,125.66687814,-72.86879844,-160.97255009999995
4.4399999999999995,444,-1.469,-0.40700000000000003,0.462,72.9948492,-38.61736920000001,161.17308540000005,130.6917198,-73.87720451999998,-165.43016334
4.45,445,-1.176,-0.48700000000000004,0.298,78.89631659999998,-55.86340500000001,178.24723380000003,137.22344099999998,-74.75383026,-171.3717378
4.46,446,-0.887,-0.33399999999999996,0.204,70.4165382,-65.54639519999999,183.69033480000002,144.72919080000003,-75.38981364,-178.38474372000005
4.47,447,-0.9740000000000001,0.087,0.177,54.8320806,-73.052145,186.0967584,152.80789860000004,-75.7163997,173.85837552
4.4799999999999995,448,-1.1420000000000001,0.348,0.309,50.0192334,-79.92764100000002,178.24723380000003,160.84076976,-75.67629264,166.10625378
4.49,449,-1.393,0.488,0.409,46.7533728,-79.0109082,162.14711400000004,168.05431098,-75.34970658,159.16200282
4.5,450,-1.4980000000000002,0.3,0.535,52.6548402,-74.3699484,130.061466,173.74951349999995,-74.82831479999999,153.83349342
4.51,451,-1.314,0.207,0.65,45.3782736,-71.04679200000002,106.283709,178.11545346,-74.20379058,149.79413952
4.52,452,-1.242,0.012,0.53,33.6326346,-73.338624,82.79243100000002,-178.75143684,-73.4818635,146.9064312
4.53,453,-1.109,0.052000000000000005,0.321,13.521808800000002,-73.45321560000002,67.895523,-176.55127812,-72.73128852,144.76356828
4.54,454,-0.9359999999999999,0.16399999999999998,0.24100000000000002,10.1413566,-70.18735500000001,58.38442020000001,-174.84386328,-71.99790228,143.09053092
4.55,455,-0.831,0.251,0.23800000000000002,13.2353298,-68.98414319999999,48.2430636,-173.49741197999995,-71.27024562,141.82429374
4.56,456,-0.767,0.32899999999999996,0.23199999999999998,17.18874,-67.2079734,39.1330314,-172.48900590000005,-70.56550728,140.95339758
4.57,457,-0.7609999999999999,0.369,0.237,21.0848544,-64.0567044,28.3041252,-171.78426756,-69.90660558,140.43773538
4.58,458,-0.7390000000000001,0.303,0.278,22.7464326,-60.7908438,16.8449652,-171.38319696,-69.29354052,140.27157756
4.59,459,-0.736,0.293,0.276,22.4599536,-57.123912600000004,7.448453999999999,-171.22276872,-68.72631209999999,140.35179168
4.6,460,-0.722,0.268,0.297,23.0902074,-50.6494872,0.3437748,-171.16547292,-68.23356822000001,140.55805656
4.61,461,-0.758,0.184,0.345,21.314037600000002,-45.1490904,-7.906820400000001,-171.33736032,-67.80957930000001,140.98204548
4.62,462,-0.7070000000000001,0.16,0.382,13.0634424,-43.77399120000001,-13.464512999999998,-171.70978302,-67.40277911999999,141.53208516
4.63,463,-0.7090000000000001,0.136,0.34600000000000003,8.3651868,-41.19568020000001,-18.277360199999997,-172.20825648,-67.03035642,142.17379812
4.64,464,-0.737,0.131,0.32,3.4950437999999995,-38.961144,-22.345361999999998,-172.82705112000005,-66.68085204,142.88999561999995
4.6499999999999995,465,-0.747,0.153,0.33,-0.8594370000000001,-36.955791,-27.7311672,-173.56616694,-66.3485364,143.69213682
4.66,466,-0.768,0.153,0.342,-3.0939732,-34.091001,-34.8358464,-174.47144058,-66.05059824,144.65470625999995
4.67,467,-0.8079999999999999,0.134,0.374,-4.8128472,-32.7159018,-40.680018,-175.49703540000004,-65.76411924,145.72613772
4.68,468,-0.833,0.113,0.40299999999999997,-7.3911582,-32.142943800000005,-46.0658232,-176.6429514,-65.48336982,146.9064312
4.6899999999999995,469,-0.868,0.096,0.456,-9.6256944,-30.137590799999998,-50.5921914,-177.88054068,-65.20834998000001,148.16120922
4.7,470,-0.9009999999999999,0.07200000000000001,0.495,-12.891555,-27.7311672,-53.9726436,-179.18688492,-64.9447893,149.46182388
4.71,471,-0.958,0.053,0.515,-15.870936600000002,-28.7051958,-57.4103916,179.42179769999996,-64.66403987999999,150.81973434
4.72,472,-0.9990000000000001,0.016,0.561,-18.3919518,-29.9657034,-60.9627312,177.96648438,-64.35464255999999,152.22348144
4.7299999999999995,473,-0.982,0.016,0.599,-21.7151082,-26.069589,-63.08267579999999,176.47106399999996,-64.06243398,153.64441728
4.74,474,-1.0,-0.004,0.637,-21.5432208,-15.126091199999998,-64.22859179999999,174.96991404,-63.86762826,155.07681227999996
4.75,475,-1.012,-0.018000000000000002,0.6779999999999999,-18.907614,-4.2398892,-65.66098679999999,173.46876408,-63.75303666000001,156.5321256
4.76,476,-1.026,-0.033,0.708,-15.011499599999999,6.0160589999999985,-65.14532460000001,172.00772118,-63.73011834,157.9931685
4.77,477,-1.102,-0.109,0.736,-10.2559482,15.2406828,-66.00476160000001,170.54667827999995,-63.78168456,159.50004804
4.78,478,-1.097,-0.11,0.752,-11.0580894,21.886995600000002,-64.744254,169.0799058,-63.87908742,161.00692758
4.79,479,-1.1,-0.086,0.7170000000000001,-8.021412000000002,27.272800800000002,-61.24921020000001,167.67615869999997,-64.02232692,162.46797048000005
4.8,480,-1.092,-0.067,0.667,-1.8334656000000005,32.372127,-58.15523699999999,166.36981446,-64.20567348,163.89463590000003
4.81,481,-1.043,-0.037000000000000005,0.604,6.9327918,39.3622146,-53.7434604,165.17806181999995,-64.457775,165.29265342000005
4.82,482,-0.975,-0.11800000000000001,0.578,19.480572,48.071176200000004,-53.0559108,164.05506413999996,-64.78436106000001,166.74796674
4.83,483,-0.94,-0.084,0.557,22.631841,50.993262,-45.0917946,163.06957638,-65.14532460000001,168.07149972
4.84,484,-1.053,-0.129,0.529,30.137590799999998,53.0559108,-41.3675676,162.19868022,-65.53493604,169.36638480000005
4.85,485,-0.99,-0.138,0.593,34.0337052,54.3164184,-44.2323576,161.26475868,-65.90735873999999,170.75867274
4.86,486,-0.9670000000000001,-0.095,0.632,32.4867186,60.6189564,-41.252976000000004,160.29073008,-66.3485364,172.173879
4.87,487,-0.904,-0.122,0.546,39.247623,73.625103,-42.62807520000001,159.21356903999995,-66.89284649999999,173.77243182
4.88,488,-0.867,-0.11599999999999999,0.47,38.5027776,82.1621772,-35.6379876,158.14213758,-67.53455946,175.34806632
4.89,489,-0.8,-0.233,0.426,37.81522800000001,97.1736768,-28.934378999999996,157.00195116,-68.3252415,176.97526704
4.8999999999999995,490,-0.8009999999999999,-0.312,0.315,36.6120162,111.89869740000002,-19.2513888,155.80446894000005,-69.27635178,178.64257482
4.91,491,-0.815,-0.38,0.284,39.9924684,109.148499,-7.1046792000000005,154.85908823999995,-70.24465079999999,-179.93173032
4.92,492,-0.8740000000000001,-0.40299999999999997,0.3670000000000001,38.38818600000001,102.3302988,4.6982555999999995,154.17153864000005,-71.19003149999998,-178.80300306
4.93,493,-0.8959999999999999,-0.384,0.46299999999999997,37.299565799999996,99.981171,10.943497800000001,153.5813919,-72.14114178,-177.79459698
4.9399999999999995,494,-0.965,-0.254,0.45299999999999996,33.3461556,99.8665794,17.761698000000006,153.0657297,-73.11517038,-176.91224166
4.95,495,-1.012,-0.156,0.40700000000000003,32.0283522,97.689339,21.600516600000002,152.60163372,-74.0834694,-176.10437088
4.96,496,-1.0390000000000001,-0.065,0.397,26.814434400000003,89.7252228,21.657812399999997,152.13180816,-74.98301346,-175.34806632
4.97,497,-1.018,-0.084,0.371,19.4232762,78.8390208,16.673077799999998,151.53593184000005,-75.75650676000002,-174.53446595999995
4.9799999999999995,498,-0.978,-0.127,0.28800000000000003,11.172680999999999,68.41118519999999,11.688343199999998,150.79681602,-76.41540846000002,-173.66929938
4.99,499,-0.951,-0.172,0.19,4.5263682,65.3745078,11.0007936,149.94883818,-77.03993267999998,-172.75829616
5.0,500,-0.9329999999999999,-0.21,0.099,1.4896908000000002,63.5410422,11.5737516,148.99199832000005,-77.65299774,-171.76707882
5.01,501,-0.9129999999999999,-0.191,0.045,0.8594370000000001,60.9054354,12.776963400000001,148.09245426,-78.2374149,-170.85034602
5.02,502,-0.9059999999999999,-0.147,0.019,2.0626488000000003,54.94667220000001,13.636400400000001,147.3075018,-78.781725,-170.03674566
5.03,503,-0.882,-0.087,-0.001,1.145916,48.3576552,13.5791046,146.60849304,-79.26300972,-169.32054816
5.04,504,-0.9159999999999999,-0.065,0.003,5.443101,41.5967508,11.917526400000002,146.01261672,-79.67553948,-168.66164646
5.05,505,-0.9490000000000001,-0.078,0.005,3.0366774,38.5027776,9.396511199999999,145.26777132,-80.06515092,-167.88242358
5.06,506,-0.9590000000000001,-0.092,0.017,1.3750992,34.262888399999994,7.8495246,144.56303298,-80.39173698,-167.15476692
5.07,507,-0.948,-0.10800000000000001,0.022000000000000002,-0.2291832000000001,31.455394199999997,7.3911582,143.86975379999996,-80.68967513999998,-166.45575816000004
5.08,508,-0.924,-0.121,0.018000000000000002,-1.145916,29.1062664,7.3911582,143.20512252,-80.97042456,-165.79685646
5.09,509,-0.9009999999999999,-0.12300000000000001,0.013999999999999999,-2.7501984,27.3873924,8.5370742,142.60351662,-81.2454444,-165.22389846000004
5.1,510,-0.893,-0.11900000000000001,0.008,-4.0680017999999984,26.642546999999997,9.9121734,141.96753324,-81.52619381999997,-164.62802214
5.11,511,-0.889,-0.10400000000000001,0.013000000000000001,-5.3285094000000015,26.69984280000001,11.2872726,141.44041188,-81.80694324,-164.152467
5.12,512,-0.884,-0.085,0.018000000000000002,-5.958763200000001,26.642546999999997,11.8602306,140.90756094,-82.08769266,-163.68264144
5.13,513,-0.89,-0.073,0.024,-6.0160589999999985,26.2987722,11.917526400000002,140.35752126,-82.36844208,-163.18989756
5.14,514,-0.8959999999999999,-0.073,0.027000000000000003,-6.589017,24.809081399999997,11.745639,139.81894074,-82.63773234,-162.720072
5.1499999999999995,515,-0.904,-0.069,0.03,-7.6203414,22.2307704,11.5737516,139.30900812,-82.88983386,-162.29035349999995
5.16,516,-0.917,-0.067,0.032,-7.9641161999999985,18.5638392,11.401864199999999,138.98815164,-83.1075579,-162.04971114
5.17,517,-0.917,-0.068,0.034,-8.880849000000003,14.7250206,11.2872726,138.83918255999998,-83.29090446000002,-161.99241534
5.18,518,-0.919,-0.063,0.019,-10.1413566,10.313244000000001,11.3445684,138.92512626,-83.44560312,-162.18149148
5.1899999999999995,519,-0.9209999999999999,-0.05,0.008,-10.5424272,5.2712136,11.0580894,139.26890106,-83.55446514,-162.63985788
5.2,520,-0.934,-0.031,0.003,-10.7143146,0.286479,10.313244000000001,139.81321116,-83.65186800000002,-163.29875958
5.21,521,-0.9520000000000001,-0.013999999999999999,0.016,-10.084060800000001,-4.297185,8.651665800000002,140.56378614,-83.66905674,-164.152467
5.22,522,-0.961,-0.005,0.026000000000000002,-9.6256944,-10.1413566,5.72958,141.42322314,-83.62894968,-165.11503644
5.2299999999999995,523,-0.976,0.0,0.034,-9.1100322,-15.068795399999999,2.8074942000000003,142.32849678,-83.52581724,-166.11771294
5.24,524,-0.9840000000000001,-0.001,0.040999999999999995,-8.4224826,-19.136797199999997,-0.1718874,143.19939294,-83.37111858,-167.08028238000003
5.25,525,-0.99,-0.009000000000000001,0.055999999999999994,-7.6203414,-21.371333399999997,-2.9220858,143.99007498,-83.18777202,-167.95117854
5.26,526,-0.995,-0.02,0.07,-6.4744254,-22.345361999999998,-5.0993262,144.6145992,-82.97577756,-168.64445772000005
5.27,527,-1.0,-0.031,0.084,-5.5576926,-23.4339822,-7.1046792000000005,145.1302614,-82.74086478000002,-169.21168614
5.28,528,-1.0,-0.039,0.10400000000000001,-5.5003968,-25.496631,-8.3651868,145.61154612,-82.48303368,-169.75599624
5.29,529,-0.992,-0.047,0.12,-5.7868758000000025,-27.3300966,-9.453807,146.06418294,-82.20228426,-170.26592885999997
5.3,530,-0.981,-0.054000000000000006,0.126,-5.5576926,-28.1895336,-10.599723,146.47098312,-81.91007568,-170.73002484
5.31,531,-0.983,-0.062,0.13699999999999998,-4.5263682,-27.559279800000002,-11.0580894,146.78611002,-81.6178671,-171.09098838
5.32,532,-0.978,-0.069,0.149,-3.4950437999999995,-26.1841806,-11.0580894,147.04394112,-81.33711767999998,-171.38892654
5.33,533,-0.9740000000000001,-0.071,0.15,-2.291832,-24.350715,-10.886202,147.24447642,-81.07355700000002,-171.60665058
5.34,534,-0.977,-0.07400000000000001,0.155,-0.4583664000000001,-22.803728399999997,-10.5424272,147.41636382,-80.82145548,-171.78999714
5.35,535,-0.981,-0.083,0.171,1.0886202,-21.371333399999997,-10.1413566,147.59398080000003,-80.58081312,-171.95042538
5.36,536,-0.9890000000000001,-0.094,0.192,2.0053530000000004,-19.8243468,-9.396511199999999,147.73722030000005,-80.36308908,-172.07647614
5.37,537,-1.0,-0.10099999999999999,0.207,2.4064236,-18.449247600000003,-8.3651868,147.89191896,-80.16255378,-172.2025269
5.38,538,-1.0070000000000001,-0.1,0.221,2.291832,-17.246035799999998,-7.0473834,148.06953593999995,-79.97920722,-172.35722556000005
5.39,539,-1.011,-0.1,0.225,2.0053530000000004,-16.501190400000002,-6.0160589999999985,148.27007124,-79.80731982,-172.53484254
5.3999999999999995,540,-1.012,-0.10099999999999999,0.231,1.3750992,-15.469866,-5.0993262,148.5107136,-79.62970284,-172.76402574
5.41,541,-1.016,-0.102,0.23600000000000002,0.9167328000000001,-14.209358400000001,-4.3544808,148.69978974,-79.48646334,-172.94164272
5.42,542,-1.021,-0.10099999999999999,0.24,0.4583664000000001,-12.834259199999998,-3.7242269999999995,148.87167714,-79.354683,-173.10780054
5.43,543,-1.021,-0.099,0.239,-0.11459160000000004,-11.45916,-3.0939732,149.0263758,-79.24009140000003,-173.26822878000004
5.4399999999999995,544,-1.018,-0.098,0.23600000000000002,-0.4583664000000001,-9.9694692,-2.5783110000000002,149.15815614000005,-79.14268854000002,-173.4057387
5.45,545,-1.016,-0.098,0.233,-0.5156622000000001,-8.307891,-2.0053530000000004,149.34723228,-79.03382652,-173.60054442
5.46,546,-1.014,-0.098,0.23,-0.572958,-6.5317212,-1.432395,149.43890556000005,-78.97080113999998,-173.70367686
5.47,547,-1.008,-0.098,0.226,-0.8021411999999999,-5.042030400000002,-1.0313244000000001,149.51339009999995,-78.91923492,-173.77816140000004
5.4799999999999995,548,-1.004,-0.096,0.222,-0.8021411999999999,-3.6669312000000014,-0.6875496,149.55922674,-78.88485744,-173.84118678
5.49,549,-0.9990000000000001,-0.098,0.21899999999999997,-0.6875496,-2.291832,-0.40107059999999994,149.59360422000003,-78.86193912,-173.88129383999996
5.5,550,-0.998,-0.096,0.217,-0.6875496,-0.9740286,0.0,150.04624103999996,-78.73015878,-174.32820108
5.51,551,-0.995,-0.095,0.215,-0.6875496,0.1718874,0.3437748,150.05197062,-78.73588836,-174.33966024
5.52,552,-0.9940000000000001,-0.094,0.214,-0.6875496,1.2605076000000002,0.572958,150.04051146,-78.74734751999998,-174.33393066
5.53,553,-0.992,-0.092,0.21100000000000002,-0.6875496,2.3491277999999998,0.8594370000000001,150.01759314,-78.77026584,-174.31674192
5.54,554,-0.991,-0.09300000000000001,0.209,-0.3437748,3.6669312000000014,1.3178034,149.98321565999996,-78.8103729,-174.28809402
5.55,555,-0.9890000000000001,-0.09300000000000001,0.204,-0.3437748,4.3544808,1.6615782,150.00613398000004,-78.8390208,-174.31674192
5.56,556,-0.988,-0.094,0.201,-0.40107059999999994,5.042030400000002,2.0053530000000004,149.97175650000003,-78.89631659999998,-174.28236443999995
5.57,557,-0.988,-0.094,0.196,-0.40107059999999994,5.6149884000000005,2.4064236,149.93737902,-78.95361240000003,-174.25944612
5.58,558,-0.985,-0.09,0.19,-0.286479,6.0160589999999985,2.6929026,149.90873112000003,-79.02236736,-174.23079822
5.59,559,-0.9840000000000001,-0.08900000000000001,0.183,-0.3437748,6.3025379999999975,2.9220858,149.88008322,-79.09112232,-174.20787990000005
5.6,560,-0.9840000000000001,-0.086,0.18,-0.3437748,6.4744254,3.0366774,149.88008322,-79.15987728,-174.20787990000005
5.61,561,-0.9840000000000001,-0.084,0.17600000000000002,-0.40107059999999994,6.589017,3.0939732,149.85143532,-79.23436182,-174.19069116
5.62,562,-0.986,-0.08199999999999999,0.174,-0.6302538000000001,6.589017,3.1512689999999997,149.82851699999995,-79.30884636,-174.16777284
5.63,563,-0.985,-0.079,0.171,-0.6302538000000001,6.5317212,2.9793816000000004,149.79413952,-79.37760132,-174.13912494000004
5.64,564,-0.9840000000000001,-0.077,0.165,-0.9740286,6.2452422,2.6929026,149.74830288,-79.44635628,-174.11047704
5.6499999999999995,565,-0.982,-0.076,0.16399999999999998,-1.145916,5.3858052,2.4064236,149.74830288,-79.51511124,-174.1219362
5.66,566,-0.9790000000000001,-0.075,0.16,-1.432395,4.8701430000000006,2.0053530000000004,149.70246623999995,-79.56667746000002,-174.08755872
5.67,567,-0.9790000000000001,-0.07400000000000001,0.156,-1.6042823999999998,4.297185,1.6042823999999998,149.65090002,-79.6125141,-174.05318124
5.68,568,-0.9790000000000001,-0.073,0.152,-1.4896908000000002,3.6669312000000014,1.3178034,149.60506338,-79.64689158,-174.01880376
5.6899999999999995,569,-0.981,-0.07400000000000001,0.153,-1.432395,3.3231564,0.8594370000000001,149.542038,-79.68126906,-173.97296712
5.7,570,-0.982,-0.07400000000000001,0.154,-1.3750992,2.8074942000000003,0.5156622000000001,149.542038,-79.73283528,-173.98442628
5.71,571,-0.98,-0.073,0.152,-1.2605076000000002,2.3491277999999998,0.1718874,149.47328304,-79.75575359999998,-173.93286006
5.72,572,-0.977,-0.07200000000000001,0.15,-1.0886202,1.8334656000000005,-0.286479,149.3987985,-79.76721276,-173.86983468
5.7299999999999995,573,-0.976,-0.07400000000000001,0.14800000000000002,-0.8021411999999999,1.145916,-0.7448454000000001,149.32431395999996,-79.77294234,-173.80107972000005
5.74,574,-0.9740000000000001,-0.07400000000000001,0.147,-0.572958,0.4583664000000001,-1.0313244000000001,149.255559,-79.77294234,-173.73805434000005
5.75,575,-0.976,-0.075,0.14800000000000002,-0.286479,-0.057295800000000015,-1.5469866,149.28993648,-79.81304940000003,-173.76670224
5.76,576,-0.977,-0.076,0.152,0.2291832000000001,-0.4583664000000001,-1.8907614,149.20972236,-79.80159024000002,-173.68648811999995
5.77,577,-0.9790000000000001,-0.079,0.154,0.6875496,-0.7448454000000001,-2.1772404,149.13523782,-79.7844015,-173.60054442
5.78,578,-0.981,-0.084,0.157,0.9740286,-0.7448454000000001,-2.2345362,149.06075328,-79.76148318,-173.51460072
5.79,579,-0.985,-0.08800000000000001,0.162,1.0313244000000001,-0.6875496,-2.1199446,148.98626874,-79.74429444,-173.42865702
5.8,580,-0.988,-0.086,0.16699999999999998,0.7448454000000001,-1.2605076000000002,-2.1199446,148.97480958,-79.72137612,-173.4057387
5.81,581,-0.991,-0.085,0.17,0.4583664000000001,-2.2345362,-2.1199446,148.93470252,-79.69272822,-173.36563164
5.82,582,-0.9890000000000001,-0.086,0.172,0.057295800000000015,-2.8074942000000003,-2.1199446,148.9117842,-79.65262116,-173.34271332
5.83,583,-0.987,-0.087,0.16899999999999998,-0.1718874,-2.6929026,-2.1199446,148.88313630000005,-79.61824368,-173.31406542
5.84,584,-0.985,-0.09,0.17,-0.11459160000000004,-2.4637194,-2.0053530000000004,148.86021798000004,-79.58959578,-173.28541751999995
5.85,585,-0.988,-0.09300000000000001,0.175,-0.4583664000000001,-2.291832,-1.6615782,148.86594756,-79.54375913999998,-173.29687668
5.86,586,-0.988,-0.09300000000000001,0.179,-1.2032118,-2.4637194,-1.432395,148.85448839999995,-79.51511124,-173.29687668
5.87,587,-0.986,-0.091,0.17600000000000002,-1.3178034,-3.0366774,-1.0886202,148.87167714,-79.48073375999998,-173.33125416
5.88,588,-0.985,-0.09300000000000001,0.179,-1.2605076000000002,-3.0939732,-0.9167328000000001,148.89459545999995,-79.45208586,-173.37136121999995
5.89,589,-0.985,-0.092,0.17800000000000002,-1.0313244000000001,-2.5210152000000003,-0.6302538000000001,148.92324336,-79.42343796,-173.4057387
5.8999999999999995,590,-0.985,-0.091,0.17300000000000001,-0.5156622000000001,-1.8334656000000005,-0.3437748,149.03783496,-79.39479005999998,-173.52605988
5.91,591,-0.983,-0.092,0.171,0.0,-1.3750992,-0.057295800000000015,149.07221244,-79.3833309,-173.56043736
5.92,592,-0.9840000000000001,-0.091,0.174,0.286479,-1.3178034,0.1718874,149.11804908,-79.37187173999997,-173.60627399999996
5.93,593,-0.987,-0.09,0.17800000000000002,0.5156622000000001,-1.2605076000000002,0.572958,149.18680404,-79.36614216000002,-173.66356979999995
5.9399999999999995,594,-0.991,-0.08800000000000001,0.18100000000000002,0.5156622000000001,-0.9740286,0.6875496,149.24982942,-79.36041258,-173.72659518
5.95,595,-0.993,-0.086,0.184,0.5156622000000001,-0.5156622000000001,0.7448454000000001,149.58214506,-79.33176468,-174.04745166
5.96,596,-0.991,-0.085,0.183,0.572958,-0.1718874,0.7448454000000001,149.6279817,-79.33176468,-174.08755872
5.97,597,-0.99,-0.086,0.18100000000000002,0.7448454000000001,0.0,0.9167328000000001,149.67954791999995,-79.33749426,-174.12766577999997
5.9799999999999995,598,-0.99,-0.087,0.18,1.0313244000000001,0.2291832000000001,0.9740286,149.72538456,-79.34322384000002,-174.16777284
5.99,599,-0.99,-0.086,0.18,1.0313244000000001,0.40107059999999994,1.145916,149.77695078,-79.354683,-174.21360948
6.0,600,-0.992,-0.085,0.18100000000000002,0.8594370000000001,0.6875496,1.145916,149.96029733999995,-79.354683,-174.38549688
6.01,601,-0.993,-0.08199999999999999,0.183,0.9167328000000001,0.9167328000000001,1.0313244000000001,149.99467482,-79.37187173999997,-174.40841519999995
6.02,602,-0.993,-0.083,0.183,0.7448454000000001,1.0313244000000001,0.8021411999999999,150.01759314,-79.3833309,-174.41987436
6.03,603,-0.99,-0.08199999999999999,0.18,0.5156622000000001,1.0886202,0.572958,150.02332272,-79.39479005999998,-174.41987436
6.04,604,-0.987,-0.08199999999999999,0.17600000000000002,0.5156622000000001,1.0313244000000001,0.4583664000000001,150.02332272,-79.40624921999998,-174.41414478
6.05,605,-0.985,-0.083,0.172,0.7448454000000001,1.0886202,0.5156622000000001,150.10926642,-79.42343796,-174.4943589
6.06,606,-0.986,-0.08199999999999999,0.16899999999999998,1.0886202,1.145916,0.4583664000000001,150.114996,-79.43489712,-174.48862932
6.07,607,-0.9840000000000001,-0.08199999999999999,0.17300000000000001,1.2032118,1.2032118,0.2291832000000001,150.10926642,-79.45208586,-174.465711
6.08,608,-0.983,-0.08199999999999999,0.17300000000000001,1.432395,1.3178034,0.1718874,150.09780726,-79.46354502,-174.44279268
6.09,609,-0.9840000000000001,-0.083,0.17,1.3750992,1.5469866,0.0,150.06915936,-79.47500418000001,-174.40268562
6.1,610,-0.987,-0.083,0.16899999999999998,1.3750992,1.432395,-0.057295800000000015,150.10926642,-79.49219292000002,-174.41987436
6.11,611,-0.985,-0.084,0.16899999999999998,1.5469866,0.9740286,-0.057295800000000015,150.09780726,-79.50365208,-174.39122646
6.12,612,-0.983,-0.085,0.17,1.3750992,0.6302538000000001,-0.057295800000000015,150.08634809999995,-79.50938166,-174.36830814
6.13,613,-0.982,-0.086,0.171,1.3178034,0.6302538000000001,0.0,150.08061851999997,-79.51511124,-174.35111940000004
6.14,614,-0.982,-0.086,0.16699999999999998,1.432395,0.8594370000000001,0.057295800000000015,150.07488894,-79.52084082,-174.33393066
6.15,615,-0.983,-0.085,0.166,1.5469866,1.0313244000000001,0.1718874,150.10353684,-79.53229998,-174.33966024
6.16,616,-0.985,-0.087,0.16699999999999998,1.6042823999999998,0.7448454000000001,0.3437748,150.114996,-79.54375913999998,-174.33393066
6.17,617,-0.988,-0.085,0.172,1.2605076000000002,0.286479,0.40107059999999994,150.13791432,-79.54948872,-174.34538981999995
6.18,618,-0.986,-0.084,0.17300000000000001,0.7448454000000001,-0.11459160000000004,0.3437748,150.16656222,-79.54948872,-174.36830814
6.1899999999999995,619,-0.986,-0.084,0.16899999999999998,0.572958,-0.40107059999999994,0.286479,150.19521012,-79.54948872,-174.39122646
6.2,620,-0.986,-0.085,0.168,0.572958,-0.4583664000000001,0.3437748,150.27542424,-79.54375913999998,-174.465711
6.21,621,-0.985,-0.085,0.168,0.6875496,-0.572958,0.4583664000000001,150.32126088,-79.54375913999998,-174.50008848
6.22,622,-0.983,-0.086,0.168,0.6875496,-0.572958,0.572958,150.3728271,-79.53802956,-174.54592512
6.2299999999999995,623,-0.983,-0.085,0.17,0.8021411999999999,-0.6302538000000001,0.6302538000000001,150.43012290000001,-79.53802956,-174.59749133999995
6.24,624,-0.9840000000000001,-0.083,0.16899999999999998,0.9167328000000001,-0.7448454000000001,0.7448454000000001,150.49314828,-79.53229998,-174.65478714
6.25,625,-0.9840000000000001,-0.083,0.17,0.9740286,-0.8021411999999999,0.8021411999999999,150.61346945999995,-79.53229998,-174.75791958
6.26,626,-0.985,-0.08199999999999999,0.171,1.0886202,-0.8021411999999999,0.8594370000000001,150.68222441999995,-79.5265704,-174.82094496
6.27,627,-0.987,-0.08199999999999999,0.175,0.9167328000000001,-0.9167328000000001,0.8021411999999999,150.75097938,-79.5265704,-174.88397034
6.28,628,-0.99,-0.08199999999999999,0.17800000000000002,0.6875496,-0.8021411999999999,0.8594370000000001,150.82546392,-79.52084082,-174.94699572
6.29,629,-0.99,-0.081,0.179,0.572958,-0.572958,0.9167328000000001,150.8884893,-79.52084082,-175.01002110000005
6.3,630,-0.985,-0.08199999999999999,0.177,0.6302538000000001,-0.40107059999999994,0.9167328000000001,151.05464712,-79.50365208,-175.16471976
6.31,631,-0.9840000000000001,-0.083,0.177,0.6302538000000001,-0.11459160000000004,0.9740286,151.11194292,-79.50365208,-175.21628598
6.32,632,-0.9840000000000001,-0.084,0.17800000000000002,0.4583664000000001,0.11459160000000004,1.0886202,151.16923872,-79.50938166,-175.2678522
6.33,633,-0.987,-0.083,0.177,0.286479,0.5156622000000001,1.2032118,151.21507536,-79.52084082,-175.31368884
6.34,634,-0.99,-0.08199999999999999,0.177,0.11459160000000004,0.6302538000000001,1.145916,151.25518242,-79.53229998,-175.3537959
6.35,635,-0.992,-0.079,0.177,0.2291832000000001,0.572958,1.145916,151.43852898,-79.53802956,-175.53141288
6.36,636,-0.993,-0.079,0.174,0.4583664000000001,0.5156622000000001,1.0886202,151.47863604,-79.54948872,-175.56579036
6.37,637,-0.995,-0.08,0.17600000000000002,0.572958,0.4583664000000001,1.0313244000000001,151.52447268,-79.55521829999998,-175.60589742
6.38,638,-0.9940000000000001,-0.08,0.17600000000000002,0.6302538000000001,0.9167328000000001,1.0313244000000001,151.55312057999996,-79.57240704,-175.63454532
6.39,639,-0.993,-0.078,0.174,0.572958,1.3750992,0.9167328000000001,151.57030932,-79.58959578,-175.6402749
6.4,640,-0.988,-0.075,0.17300000000000001,0.6302538000000001,0.9167328000000001,0.8594370000000001,151.74792630000005,-79.60105494000003,-175.8121623
6.41,641,-0.9840000000000001,-0.075,0.171,0.4583664000000001,0.286479,0.572958,151.77657419999997,-79.60678451999998,-175.83508062
6.42,642,-0.983,-0.076,0.17,0.40107059999999994,0.4583664000000001,0.11459160000000004,151.77657419999997,-79.6125141,-175.82935103999995
6.43,643,-0.983,-0.078,0.166,0.6875496,0.7448454000000001,0.0,151.76511504,-79.61824368,-175.8121623
6.4399999999999995,644,-0.9840000000000001,-0.083,0.17,0.8594370000000001,1.0886202,0.0,151.74219672,-79.62970284,-175.7835144
6.45,645,-0.985,-0.084,0.175,0.40107059999999994,0.9167328000000001,0.057295800000000015,151.83387,-79.60105494000003,-175.86372852
6.46,646,-0.9840000000000001,-0.083,0.17800000000000002,-0.11459160000000004,0.4583664000000001,0.11459160000000004,151.82814042,-79.60678451999998,-175.85799894000004
6.47,647,-0.983,-0.083,0.17800000000000002,-0.5156622000000001,0.0,0.286479,151.83387,-79.60678451999998,-175.87518768
6.4799999999999995,648,-0.983,-0.083,0.171,-0.572958,0.057295800000000015,0.5156622000000001,151.85678832000005,-79.6125141,-175.89810599999996
6.49,649,-0.981,-0.079,0.163,-0.286479,0.40107059999999994,0.7448454000000001,151.87970664,-79.61824368,-175.92675390000005
6.5,650,-0.98,-0.077,0.159,0.11459160000000004,0.6302538000000001,0.7448454000000001,151.91408412,-79.65262116,-175.96113137999996
6.51,651,-0.981,-0.078,0.163,0.3437748,0.5156622000000001,0.6302538000000001,151.93700244,-79.66408032,-175.97832011999995
6.52,652,-0.9840000000000001,-0.078,0.16699999999999998,0.4583664000000001,0.3437748,0.7448454000000001,151.96565034,-79.66980989999998,-176.00696802
6.53,653,-0.988,-0.077,0.16899999999999998,0.40107059999999994,0.4583664000000001,0.6302538000000001,151.98856866,-79.67553948,-176.02415676
6.54,654,-0.988,-0.076,0.16899999999999998,0.40107059999999994,0.40107059999999994,0.5156622000000001,152.01148698,-79.68126906,-176.0413455
6.55,655,-0.987,-0.076,0.168,0.5156622000000001,0.1718874,0.40107059999999994,152.14326732,-79.6984578,-176.16739626
6.56,656,-0.987,-0.077,0.16899999999999998,0.6875496,0.1718874,0.3437748,152.16045606,-79.6984578,-176.17885542
6.57,657,-0.986,-0.077,0.16899999999999998,0.7448454000000001,0.1718874,0.286479,152.1776448,-79.70418738,-176.19031458
6.58,658,-0.9890000000000001,-0.078,0.17,0.8021411999999999,0.11459160000000004,0.286479,152.20056312,-79.70418738,-176.20177374
6.59,659,-0.988,-0.078,0.171,0.8594370000000001,0.0,0.2291832000000001,152.21775186,-79.70991696000002,-176.2132329
6.6,660,-0.988,-0.078,0.17,0.8021411999999999,0.0,0.1718874,152.38390968000004,-79.70991696000002,-176.36793156000005
6.61,661,-0.9890000000000001,-0.079,0.17300000000000001,0.6875496,0.0,0.1718874,152.40109841999995,-79.71564654,-176.37366114000002
6.62,662,-0.988,-0.079,0.171,0.572958,0.0,0.11459160000000004,152.41255758,-79.71564654,-176.38512029999995
6.63,663,-0.985,-0.08,0.171,0.40107059999999994,-0.1718874,0.11459160000000004,152.42974632,-79.71564654,-176.39657946
6.64,664,-0.985,-0.078,0.171,0.2291832000000001,-0.2291832000000001,0.1718874,152.45266464000005,-79.70991696000002,-176.4137682
6.65,665,-0.985,-0.076,0.168,0.286479,-0.40107059999999994,0.1718874,152.6073633,-79.72137612,-176.56273728
6.66,666,-0.9840000000000001,-0.075,0.16899999999999998,0.2291832000000001,-0.11459160000000004,0.11459160000000004,152.61882246,-79.72137612,-176.57419644
6.67,667,-0.982,-0.077,0.17,0.4583664000000001,-0.11459160000000004,0.0,152.62455204,-79.72137612,-176.57419644
6.68,668,-0.983,-0.078,0.17,0.286479,-0.057295800000000015,-0.11459160000000004,152.62455204,-79.71564654,-176.56846686
6.6899999999999995,669,-0.9840000000000001,-0.077,0.171,0.1718874,0.0,-0.11459160000000004,152.61882246,-79.71564654,-176.56273728
6.7,670,-0.985,-0.076,0.171,0.0,-0.057295800000000015,-0.286479,152.73341406,-79.70418738,-176.6715993
6.71,671,-0.987,-0.077,0.17300000000000001,-0.4583664000000001,-0.40107059999999994,-0.6875496,152.69903658,-79.69272822,-176.64868098
6.72,672,-0.985,-0.078,0.175,-0.6302538000000001,-0.4583664000000001,-0.7448454000000001,152.67038868,-79.68699864,-176.62003308
6.7299999999999995,673,-0.985,-0.078,0.17300000000000001,-0.6875496,-0.7448454000000001,-0.8021411999999999,152.64174078,-79.67553948,-176.60284434
6.74,674,-0.9840000000000001,-0.078,0.171,-0.8594370000000001,-0.6875496,-0.8594370000000001,152.6073633,-79.66408032,-176.57419644
6.75,675,-0.985,-0.079,0.171,-0.9167328000000001,-0.8021411999999999,-0.9167328000000001,152.59590414,-79.64689158,-176.57419644
6.76,676,-0.9840000000000001,-0.078,0.171,-1.0313244000000001,-0.8594370000000001,-1.0313244000000001,152.55579708,-79.63543242,-176.54554853999997
6.77,677,-0.986,-0.078,0.171,-0.7448454000000001,-1.0313244000000001,-1.0886202,152.5214196,-79.62397326,-176.51117105999995
6.78,678,-0.986,-0.079,0.17,-0.6302538000000001,-0.9740286,-1.0886202,152.48704212,-79.60678451999998,-176.48252316
6.79,679,-0.986,-0.081,0.16899999999999998,-0.4583664000000001,-0.8021411999999999,-1.0886202,152.44693506,-79.59532535999998,-176.44814567999995
6.8,680,-0.987,-0.08199999999999999,0.171,-0.40107059999999994,-0.6302538000000001,-0.9740286,152.41828716,-79.57813662,-176.42522736
6.81,681,-0.987,-0.083,0.174,-0.5156622000000001,-0.5156622000000001,-0.8021411999999999,152.38963926000002,-79.56667746000002,-176.40230904
6.82,682,-0.987,-0.083,0.17600000000000002,-0.8021411999999999,-0.5156622000000001,-0.572958,152.36099136,-79.56094787999999,-176.38512029999995
6.83,683,-0.988,-0.08199999999999999,0.174,-1.2032118,-0.6302538000000001,-0.4583664000000001,152.34380262,-79.54948872,-176.37939072
6.84,684,-0.987,-0.081,0.17300000000000001,-1.3178034,-0.5156622000000001,-0.3437748,152.32661388,-79.54375913999998,-176.37366114000002
6.85,685,-0.987,-0.08,0.171,-1.3750992,-0.6302538000000001,-0.286479,152.33807303999995,-79.53802956,-176.39657946
6.86,686,-0.986,-0.08,0.172,-1.3178034,-0.6875496,-0.286479,152.32661388,-79.53229998,-176.40230904
6.87,687,-0.985,-0.079,0.172,-1.2605076000000002,-0.6302538000000001,-0.2291832000000001,152.31515471999995,-79.5265704,-176.40230904
6.88,688,-0.986,-0.079,0.172,-1.2605076000000002,-0.572958,-0.40107059999999994,152.29796598,-79.51511124,-176.40230904
6.89,689,-0.988,-0.078,0.174,-1.2032118,-0.40107059999999994,-0.3437748,152.28077724,-79.50938166,-176.39084988
6.9,690,-0.9890000000000001,-0.078,0.17300000000000001,-1.2032118,-0.2291832000000001,-0.5156622000000001,152.32088430000005,-79.50938166,-176.44241609999997
6.91,691,-0.9890000000000001,-0.078,0.17300000000000001,-1.145916,-0.3437748,-0.572958,152.28650682,-79.50365208,-176.41949778
6.92,692,-0.9890000000000001,-0.079,0.174,-1.2032118,-0.4583664000000001,-0.6875496,152.25212934,-79.49219292000002,-176.40230904
6.93,693,-0.9890000000000001,-0.078,0.174,-1.3750992,-0.4583664000000001,-0.8021411999999999,152.21202228,-79.48646334,-176.37366114000002
6.9399999999999995,694,-0.9890000000000001,-0.077,0.17300000000000001,-1.5469866,-0.572958,-0.9740286,152.16045606,-79.47500418000001,-176.33928366
6.95,695,-0.986,-0.078,0.17300000000000001,-1.4896908000000002,-0.572958,-1.0886202,152.16045606,-79.46354502,-176.35074282
6.96,696,-0.985,-0.078,0.17,-1.3178034,-0.572958,-1.2032118,152.10316026,-79.45208586,-176.30490618000005
6.97,697,-0.985,-0.078,0.168,-0.9740286,-0.6875496,-1.145916,152.05159404,-79.4406267,-176.26479912
6.9799999999999995,698,-0.987,-0.079,0.171,-0.8594370000000001,-0.4583664000000001,-1.2032118,152.00002782,-79.43489712,-176.21896248000004
6.99,699,-0.987,-0.081,0.171,-0.9167328000000001,0.057295800000000015,-1.2605076000000002,151.92554328,-79.42916754,-176.15593710000005
7.0,700,-0.986,-0.08,0.171,-0.8021411999999999,0.0,-1.3178034,151.8911658,-79.42916754,-176.1272892
7.01,701,-0.986,-0.078,0.171,-0.8021411999999999,-0.9167328000000001,-1.3750992,151.83959958,-79.4119788,-176.08145256
7.02,702,-0.985,-0.079,0.172,-0.8594370000000001,-1.2032118,-1.4896908000000002,151.78803336,-79.39479005999998,-176.0413455
7.03,703,-0.985,-0.081,0.16899999999999998,-0.9167328000000001,-0.8021411999999999,-1.6042823999999998,151.72500798000004,-79.37760132,-175.9840497
7.04,704,-0.986,-0.084,0.16699999999999998,-0.6302538000000001,-0.4583664000000001,-1.6615782,151.65052344,-79.36614216000002,-175.91529473999995
7.05,705,-0.988,-0.086,0.171,-0.8594370000000001,-0.40107059999999994,-1.5469866,151.58749806,-79.354683,-175.85799894000004
7.06,706,-0.987,-0.087,0.177,-1.2032118,-1.0313244000000001,-1.432395,151.53020225999995,-79.33749426,-175.8121623
7.07,707,-0.986,-0.086,0.17800000000000002,-1.5469866,-1.6615782,-1.2605076000000002,151.49582478,-79.31457594,-175.79497356
7.08,708,-0.9840000000000001,-0.086,0.179,-2.0053530000000004,-2.2345362,-1.2032118,151.47290646000005,-79.29165762,-175.79497356
7.09,709,-0.981,-0.084,0.17300000000000001,-2.3491277999999998,-1.9480572,-1.0886202,151.44425856,-79.26873930000002,-175.78924398
7.1,710,-0.98,-0.084,0.165,-1.9480572,-1.5469866,-0.9167328000000001,151.40415149999995,-79.25728014,-175.76632566
7.11,711,-0.9790000000000001,-0.083,0.162,-1.2032118,-1.145916,-0.8021411999999999,151.38123318,-79.24582097999998,-175.76059607999997
7.12,712,-0.981,-0.084,0.16699999999999998,-0.8594370000000001,-0.9740286,-0.6875496,151.36404444,-79.23436182,-175.7548665
7.13,713,-0.9840000000000001,-0.08199999999999999,0.17,-0.6302538000000001,-0.8594370000000001,-0.7448454000000001,151.3468557,-79.22290266,-175.73767776
7.14,714,-0.9840000000000001,-0.081,0.174,-0.6302538000000001,-0.9740286,-0.8021411999999999,151.32393738000005,-79.2114435,-175.7262186
7.15,715,-0.9840000000000001,-0.079,0.171,-0.4583664000000001,-1.0313244000000001,-0.9167328000000001,151.36404444,-79.2114435,-175.76632566
7.16,716,-0.983,-0.081,0.17,-0.057295800000000015,-0.9167328000000001,-0.8594370000000001,151.34112612,-79.19425475999998,-175.74340734
7.17,717,-0.985,-0.083,0.177,-0.057295800000000015,-0.572958,-0.9167328000000001,151.31247822,-79.18852518,-175.71475944
7.18,718,-0.988,-0.085,0.18,-0.2291832000000001,-0.2291832000000001,-0.9740286,151.26664158,-79.17706602000001,-175.67465238
7.1899999999999995,719,-0.993,-0.086,0.18600000000000005,-0.4583664000000001,-0.1718874,-0.8594370000000001,151.22653452,-79.17133643999998,-175.63454532
7.2,720,-0.995,-0.08800000000000001,0.187,-0.9167328000000001,-0.40107059999999994,-0.7448454000000001,151.23799368,-79.14841812,-175.65746364
7.21,721,-0.9940000000000001,-0.08800000000000001,0.182,-1.3750992,-0.40107059999999994,-0.6302538000000001,151.20934577999995,-79.14268854000002,-175.6402749
7.22,722,-0.993,-0.087,0.18100000000000002,-1.6042823999999998,-0.11459160000000004,-0.4583664000000001,151.17496830000005,-79.14268854000002,-175.61735658
7.2299999999999995,723,-0.991,-0.085,0.179,-1.7761698000000001,0.0,-0.5156622000000001,151.12913165999996,-79.13695895999999,-175.59443826
7.24,724,-0.988,-0.083,0.177,-1.7761698000000001,-0.11459160000000004,-0.572958,151.08902460000004,-79.13122938000002,-175.57151994
7.25,725,-0.987,-0.083,0.175,-1.6615782,-0.11459160000000004,-0.6302538000000001,151.10048376,-79.13695895999999,-175.60016783999995
7.26,726,-0.986,-0.085,0.17300000000000001,-1.432395,0.0,-0.572958,151.06037669999995,-79.13695895999999,-175.57724951999995
7.27,727,-0.985,-0.084,0.172,-1.145916,0.057295800000000015,-0.572958,151.02026963999995,-79.13122938000002,-175.54860162
7.28,728,-0.9840000000000001,-0.083,0.17300000000000001,-0.9740286,0.11459160000000004,-0.6875496,150.98016258,-79.13122938000002,-175.51422413999995
7.29,729,-0.983,-0.083,0.171,-0.8021411999999999,0.1718874,-0.8594370000000001,150.92286678,-79.1254998,-175.4683875
7.3,730,-0.985,-0.084,0.171,-0.7448454000000001,0.11459160000000004,-0.8594370000000001,150.91140762,-79.13695895999999,-175.45692834000005
7.31,731,-0.985,-0.084,0.171,-0.7448454000000001,0.1718874,-0.8594370000000001,150.85411182,-79.13695895999999,-175.4110917
7.32,732,-0.982,-0.086,0.171,-0.7448454000000001,0.057295800000000015,-0.9167328000000001,150.8025456,-79.13122938000002,-175.36525506
