TimeStamp(s),FrameCounter,AccX,AccY,AccZ,GyrX,GyrY,GyrZ,EulerX,EulerY,EulerZ
0.01,1,0.048,-0.9890000000000001,-0.121,-7.161975,0.40107059999999994,2.9220858,84.83216148,2.08556712,-33.75868536
0.02,2,0.043,-0.988,-0.121,-7.161975,0.4583664000000001,3.2085647999999996,84.76340652,2.05691922,-33.75295578
0.03,3,0.038,-0.985,-0.11900000000000001,-7.7922288,0.11459160000000004,3.4950437999999995,84.68319240000002,2.01681216,-33.74722620000001
0.04,4,0.040999999999999995,-0.982,-0.11199999999999999,-8.3651868,0.0,3.9534102,84.59724870000002,1.9767051,-33.74722620000001
0.05,5,0.054000000000000006,-0.981,-0.10300000000000001,-8.7662574,-0.6302538000000001,4.4690724,84.49984584,1.94232762,-33.74722620000001
0.060000000000000005,6,0.07200000000000001,-0.982,-0.095,-9.167328,-2.0053530000000004,4.6409598,84.40817256,1.89649098,-33.76441494
0.06999999999999999,7,0.08900000000000001,-0.9890000000000001,-0.086,-9.740286,-4.297185,4.3544808,84.30504012,1.84492476,-33.80452200000001
0.08,8,0.099,-0.9940000000000001,-0.078,-10.3705398,-6.3598338,3.9534102,84.20190768,1.8048177,-33.86754738
0.09,9,0.102,-1.001,-0.07200000000000001,-10.828906199999999,-8.3651868,3.8961144,84.08731608000002,1.75898106,-33.9477615
0.09999999999999999,10,0.095,-1.0070000000000001,-0.07200000000000001,-11.5737516,-9.9121734,4.0680017999999984,83.97272448,1.7188740000000002,-34.03943478
0.11,11,0.083,-1.014,-0.07200000000000001,-11.9748222,-11.0007936,4.3544808,83.84667372,1.6615782,-34.1482968
0.12,12,0.068,-1.021,-0.07400000000000001,-12.605075999999999,-10.599723,4.2398892,83.72062296,1.61001198,-34.24569966
0.13,13,0.054000000000000006,-1.026,-0.084,-13.178034,-9.2819196,4.1252976000000015,83.58311304,1.56417534,-34.33737294
0.14,14,0.040999999999999995,-1.023,-0.092,-13.2926256,-7.734933000000002,4.1252976000000015,83.44560312,1.51260912,-34.41185748
0.15000000000000002,15,0.034,-1.005,-0.096,-12.6623718,-4.8128472,4.6409598,83.31955236,1.4610428999999998,-34.45196454
0.16,16,0.027000000000000003,-0.992,-0.098,-11.9748222,-2.4637194,5.443101,83.19350159999998,1.40947668,-34.47488286
0.17,17,0.027999999999999997,-0.9840000000000001,-0.099,-11.3445684,-0.8594370000000001,6.3025379999999975,83.07891,1.34072172,-34.47488286
0.18000000000000002,18,0.033,-0.9840000000000001,-0.095,-10.7143146,0.0,7.0473834,82.97004798,1.27196676,-34.46915328
0.19,19,0.04,-0.987,-0.094,-10.4278356,0.2291832000000001,7.2765666,82.86691554,1.19748222,-34.45769412
0.2,20,0.048,-0.99,-0.09699999999999999,-9.9694692,0.2291832000000001,7.5057497999999985,82.76378309999998,1.13445684,-34.44623496
0.21000000000000002,21,0.051,-0.995,-0.1,-9.167328,0.057295800000000015,7.5057497999999985,82.67210982,1.05424272,-34.440505380000005
0.22,22,0.053,-0.998,-0.099,-8.4224826,0.11459160000000004,7.161975,82.58616612,0.98548776,-34.429046220000004
0.23,23,0.049,-1.0,-0.1,-7.6203414,0.2291832000000001,6.1879464,82.51168158,0.92246238,-34.41758706
0.24000000000000002,24,0.039,-1.001,-0.10099999999999999,-6.589017,0.3437748,5.5576926,82.44292662,0.87089616,-34.41185748
0.25,25,0.027999999999999997,-0.997,-0.102,-5.72958,0.6875496,5.0993262,82.38563081999997,0.8250595199999999,-34.39466874
0.26,26,0.018000000000000002,-0.99,-0.102,-5.0993262,1.5469866,4.583664,82.33406459999998,0.7792228800000001,-34.37748000000001
0.27,27,0.011000000000000001,-0.981,-0.11,-4.5263682,2.7501984,4.010706000000001,82.28822796,0.7391158200000001,-34.343102519999995
0.28,28,0.006999999999999999,-0.9670000000000001,-0.11699999999999999,-3.7815228,3.7242269999999995,3.380452200000001,82.2481209,0.7104679199999999,-34.30299546
0.29000000000000004,29,0.004,-0.95,-0.12300000000000001,-3.0366774,4.4690724,2.4064236,82.219473,0.69327918,-34.25715882
0.3,30,-0.002,-0.935,-0.122,-1.8907614,4.4117766,1.2032118,82.19082510000001,0.67609044,-34.21132218
0.31,31,-0.009000000000000001,-0.924,-0.114,-0.1718874,2.9220858,-0.9167328000000001,82.19082510000001,0.69327918,-34.18267428
0.32,32,-0.019,-0.9209999999999999,-0.11199999999999999,-0.1718874,0.2291832000000001,-3.7242269999999995,82.18509551999998,0.72765666,-34.18840386
0.33,33,-0.025,-0.914,-0.111,-1.432395,-3.6669312000000014,-7.6776372,82.17363636,0.8021412000000001,-34.23424050000001
0.34,34,-0.037000000000000005,-0.897,-0.10800000000000001,-3.4950437999999995,-8.136003599999999,-13.120738199999998,82.13352929999998,0.92246238,-34.33164336
0.35000000000000003,35,-0.052000000000000005,-0.872,-0.099,-6.3598338,-11.45916,-19.652459399999998,82.07050392,1.09434978,-34.46915328
0.36000000000000004,36,-0.062,-0.8490000000000001,-0.094,-10.313244000000001,-12.891555,-27.043617600000005,81.96164189999998,1.3464512999999998,-34.6353111
0.37,37,-0.055,-0.843,-0.095,-16.2147114,-12.891555,-34.262888399999994,81.79548408,1.6673077799999998,-34.81292808
0.38,38,-0.037000000000000005,-0.871,-0.11199999999999999,-22.6891368,-12.0894138,-39.534102000000004,81.56057129999998,2.03973048,-34.99054506
0.39,39,-0.012,-0.9540000000000001,-0.139,-27.788463,-10.4851314,-41.5967508,81.27409229999998,2.4350715000000003,-35.15670288
0.4,40,0.013000000000000001,-1.048,-0.147,-28.5906042,-8.9381448,-38.961144,80.97615413999998,2.80176462,-35.30567196
0.41000000000000003,41,0.023,-1.135,-0.142,-25.152856200000002,-8.193299399999999,-33.0596766,80.71259346,3.11116194,-35.4374523
0.42000000000000004,42,0.03,-1.196,-0.12300000000000001,-17.18874,-9.0527364,-24.522602399999997,80.53497648,3.34034514,-35.56923264
0.43,43,0.052000000000000005,-1.216,-0.07400000000000001,-6.5317212,-10.313244000000001,-15.756345,80.46049194,3.47785506,-35.695283399999994
0.44,44,0.085,-1.21,-0.003,3.8388186,-11.0007936,-8.9954406,80.48913983999998,3.5523396000000003,-35.82133416
0.45,45,0.126,-1.204,0.042,9.568398599999998,-11.6310474,-5.2139178,80.59800186,3.59244666,-35.94165534
0.46,46,0.136,-1.19,0.052000000000000005,9.167328,-15.5844576,-4.0680017999999984,80.68394556000001,3.61536498,-36.096354
0.47000000000000003,47,0.10400000000000001,-1.194,0.061,5.72958,-24.0069402,-2.291832,80.7297822,3.60390582,-36.33699636
0.48000000000000004,48,0.081,-1.186,0.075,3.0366774,-28.2468294,-0.1718874,80.74697094,3.56952834,-36.6120162
0.49,49,0.057999999999999996,-1.157,0.07200000000000001,-0.286479,-28.2468294,1.432395,80.7297822,3.51796212,-36.88703604
0.5,50,0.047,-1.133,0.057999999999999996,-3.7242269999999995,-26.9863218,3.2658606,80.70113429999998,3.4492071599999994,-37.14486714
0.51,51,0.036000000000000004,-1.122,0.033,-7.1046792000000005,-26.642546999999997,6.0160589999999985,80.61519059999998,3.3518043,-37.40269823999999
0.52,52,0.019,-1.1,0.006999999999999999,-9.5111028,-27.788463,8.9954406,80.51205816,3.2257535399999995,-37.66052934
0.53,53,0.0,-1.044,-0.012,-10.7716104,-28.0176462,11.3445684,80.39173698,3.07678446,-37.91836044
0.54,54,-0.017,-0.955,-0.027999999999999997,-10.657018800000001,-26.41336380000001,11.917526400000002,80.2714158,2.9220857999999996,-38.159002799999996
0.55,55,-0.026000000000000002,-0.865,-0.043,-9.453807,-23.5485738,10.4278356,80.17401294,2.7788463,-38.37099726
0.56,56,-0.025,-0.813,-0.042,-8.078707799999998,-21.199446,8.7662574,80.08806924,2.65852512,-38.56580298
0.5700000000000001,57,-0.03,-0.79,-0.043,-6.8182002000000015,-18.8503182,7.8495246,80.01358470000002,2.55539268,-38.73769038
0.5800000000000001,58,-0.039,-0.787,-0.05,-6.3025379999999975,-16.902261,7.6776372,79.94482974,2.45226024,-38.89238904
0.59,59,-0.042,-0.7859999999999999,-0.052000000000000005,-5.72958,-14.7250206,7.448453999999999,79.88180436,2.36058696,-39.02416938
0.6,60,-0.045,-0.7959999999999999,-0.049,-4.9274388,-12.4904844,6.703608600000001,79.83596772,2.2631841,-39.1330314
0.61,61,-0.043,-0.82,-0.043,-4.1825934,-10.084060800000001,6.0160589999999985,79.79586065999997,2.18869956,-39.2189751
0.62,62,-0.036000000000000004,-0.852,-0.044000000000000004,-3.1512689999999997,-7.5057497999999985,5.1566220000000005,79.76148318,2.13140376,-39.28773006
0.63,63,-0.026000000000000002,-0.8859999999999999,-0.046,-1.0886202,-4.6409598,4.2398892,79.75002402,2.07983754,-39.32210754000001
0.64,64,-0.01,-0.898,-0.039,1.3178034,-2.5783110000000002,3.7242269999999995,79.76148318,2.03973048,-39.34502586
0.65,65,0.004,-0.897,-0.024,4.2398892,-1.0886202,3.1512689999999997,79.84169729999998,1.99962342,-39.34502586
0.66,66,0.018000000000000002,-0.894,-0.006,6.3598338,-0.11459160000000004,2.86479,79.91045226,1.9767051,-39.33929628
0.67,67,0.022000000000000002,-0.894,0.006,8.651665800000002,0.1718874,2.9793816000000004,79.99639596,1.9480572000000005,-39.3335667
0.68,68,0.021,-0.894,0.031,10.657018800000001,0.6875496,3.2085647999999996,80.10525798,1.91367972,-39.32210754000001
0.6900000000000001,69,0.013999999999999999,-0.904,0.052000000000000005,11.5737516,1.0886202,3.3231564,80.22557916000002,1.88503182,-39.304918799999996
0.7000000000000001,70,0.0,-0.925,0.067,11.688343199999998,1.432395,3.6669312000000014,80.39173698,1.84492476,-39.2762709
0.7100000000000001,71,-0.011000000000000001,-0.9490000000000001,0.086,10.943497800000001,1.4896908000000002,3.6096353999999997,80.50632858,1.81054728,-39.25335258
0.72,72,-0.015,-0.968,0.096,9.568398599999998,1.6042823999999998,3.7242269999999995,80.60373144,1.78189938,-39.23043426
0.73,73,-0.023,-0.996,0.09300000000000001,8.5370742,2.0053530000000004,3.6096353999999997,80.68967513999998,1.7475218999999995,-39.20751594
0.74,74,-0.037000000000000005,-1.037,0.081,7.734933000000002,3.4950437999999995,2.6356068,80.76988926,1.7246035799999997,-39.16740888
0.75,75,-0.04,-1.053,0.077,6.3025379999999975,4.5263682,2.9220858,80.90166959999998,1.6844965200000002,-39.11011308
0.76,76,-0.034,-1.0590000000000002,0.081,6.0160589999999985,5.042030400000002,3.6096353999999997,80.96469498,1.6558486199999998,-39.05854686
0.77,77,-0.038,-1.072,0.085,4.9847346,5.6722842,4.0680017999999984,81.0162612,1.6272007199999998,-38.99552148
0.78,78,-0.055999999999999994,-1.093,0.1,4.6982555999999995,5.5576926,4.583664,81.06782741999999,1.5870936600000003,-38.9324961
0.79,79,-0.083,-1.124,0.11199999999999999,4.9847346,6.5317212,4.583664,81.11939364,1.5527161800000002,-38.85801156
0.8,80,-0.106,-1.156,0.141,4.6409598,9.167328,3.7242269999999995,81.19960776,1.50687954,-38.76060870000001
0.81,81,-0.12300000000000001,-1.195,0.18,4.8128472,13.8082878,2.6356068,81.25117398,1.50114996,-38.62309878
0.8200000000000001,82,-0.131,-1.234,0.205,4.5263682,18.9649098,1.6042823999999998,81.30274019999997,1.50687954,-38.43402264
0.8300000000000001,83,-0.13699999999999998,-1.2690000000000001,0.204,4.4690724,23.491278,1.145916,81.34857683999998,1.52406828,-38.19910986
0.8400000000000001,84,-0.131,-1.29,0.204,3.0939732,26.814434400000003,1.8907614,81.38295432,1.5412570200000002,-37.9298196
0.85,85,-0.11599999999999999,-1.296,0.222,1.0313244000000001,30.194886600000004,4.010706000000001,81.4173318,1.52979786,-37.63188144
0.86,86,-0.038,-1.341,0.128,-7.3911582,32.257535399999995,8.9954406,81.34284726,1.48396122,-37.2995658
0.87,87,0.08900000000000001,-1.4069999999999998,-0.1,-19.365980399999998,23.319390600000002,16.2147114,81.15377112,1.35218088,-37.04746428
0.88,88,0.122,-1.393,-0.16399999999999998,-6.3598338,9.5111028,20.8556712,81.09074574,1.1573751600000002,-36.9271431
0.89,89,0.242,-1.3,-0.08199999999999999,11.3445684,7.0473834,20.340009,81.20533734,0.96829902,-36.82401066
0.9,90,0.287,-1.2690000000000001,0.061,20.6837838,0.2291832000000001,17.7044022,81.42879096,0.8078707799999998,-36.78963318
0.91,91,0.21899999999999997,-1.265,0.16,25.210151999999997,-8.4224826,15.6417534,81.68089248,0.64171296,-36.85265856
0.92,92,0.059000000000000004,-1.252,0.162,20.2827132,-11.688343199999998,13.2353298,81.89288694,0.5042030399999999,-36.94433184
0.93,93,-0.127,-1.311,0.05,14.610429000000002,-12.261301199999998,12.0894138,82.04185602,0.3724227000000001,-37.04746428
0.9400000000000001,94,-0.304,-1.337,-0.122,9.167328,-6.417129599999999,10.7716104,82.13352929999998,0.25783110000000004,-37.09330092
0.9500000000000001,95,-0.379,-1.244,-0.29,4.583664,15.3552744,8.4224826,82.16790678,0.17761697999999998,-36.93287268
0.9600000000000001,96,-0.322,-1.131,-0.348,4.3544808,40.6227222,8.4224826,82.20801384,0.13750992,-36.52034292
0.97,97,-0.175,-1.103,-0.314,-0.6875496,48.414951,9.9121734,82.19655467999998,0.09167328,-36.03332862
0.98,98,-0.003,-1.042,-0.337,-8.7662574,48.2430636,10.084060800000001,82.1048814,0.04010706,-35.54631432
0.99,99,0.154,-0.9540000000000001,-0.379,-13.0061466,53.68616460000001,8.7662574,81.96164189999998,0.01145916,-35.0077338
1.0,100,0.201,-0.9309999999999999,-0.366,-15.5844576,55.7488134,10.4278356,81.78402492,-0.01145916,-34.44623496
1.01,101,0.142,-0.9540000000000001,-0.37799999999999995,-19.652459399999998,51.852699,15.3552744,81.57776004,-0.10313244,-33.9191136
1.02,102,0.037000000000000005,-0.963,-0.38299999999999995,-21.371333399999997,47.0971476,19.8816426,81.35430642,-0.24637194,-33.42636972
1.03,103,-0.033,-0.9690000000000001,-0.368,-20.2254174,42.5134836,19.308684600000007,81.14231196,-0.38388186,-32.98519206
1.04,104,-0.055,-0.966,-0.33399999999999996,-17.3606274,39.018439799999996,16.042824000000003,80.95323582,-0.4984734599999999,-32.57839188
1.05,105,-0.035,-0.973,-0.287,-13.636400400000001,34.3201842,10.828906199999999,80.79853716,-0.56149884,-32.2288875
1.06,106,0.006999999999999999,-1.005,-0.26,-10.886202,28.7051958,4.010706000000001,80.67821597999998,-0.56149884,-31.94240850000001
1.07,107,0.066,-1.025,-0.247,-9.1100322,22.803728399999997,-2.5210152000000003,80.58081312,-0.5099326200000001,-31.72468446
1.08,108,0.111,-1.0190000000000001,-0.231,-6.7609043999999985,16.959556799999998,-8.307891,80.50632858,-0.4010706000000001,-31.5699858
1.09,109,0.132,-1.0090000000000001,-0.195,-4.1825934,11.5737516,-12.4904844,80.46622152,-0.26356068,-31.47831252
1.1,110,0.13,-0.998,-0.156,-1.6615782,6.9327918,-15.928232399999999,80.44330319999997,-0.06875496,-31.43247588
1.11,111,0.114,-0.985,-0.113,0.572958,3.3231564,-17.8189938,80.44903278000002,0.10313244,-31.43247588
1.12,112,0.107,-0.9620000000000001,-0.085,0.572958,0.6302538000000001,-19.136797199999997,80.45476235999998,0.29220857999999994,-31.455394199999997
1.1300000000000001,113,0.08800000000000001,-0.9229999999999999,-0.07,0.1718874,-1.2032118,-19.8243468,80.46049194,0.4870143000000001,-31.50123084
1.1400000000000001,114,0.062,-0.879,-0.057,-0.1718874,-2.7501984,-19.595163600000006,80.45476235999998,0.6703608600000001,-31.558526640000004
1.1500000000000001,115,0.045,-0.8490000000000001,-0.04,-0.6302538000000001,-4.8701430000000006,-18.7357266,80.46049194,0.8537074199999999,-31.63874076
1.1600000000000001,116,0.027999999999999997,-0.83,-0.037000000000000005,-1.6615782,-6.875496000000001,-17.9335854,80.44330319999997,1.01986524,-31.73614362
1.17,117,0.021,-0.8029999999999999,-0.038,-3.4377480000000005,-8.021412000000002,-18.048177,80.40892572,1.18602306,-31.839276060000003
1.18,118,0.012,-0.774,-0.036000000000000004,-3.9534102,-8.307891,-19.365980399999998,80.36308908,1.36364004,-31.95386766
1.19,119,0.008,-0.74,-0.034,-4.6409598,-6.990087599999999,-19.9962342,80.31725244,1.5469866,-32.0570001
1.2,120,-0.001,-0.7240000000000001,-0.045,-5.5576926,-5.1566220000000005,-19.8816426,80.25995664,1.73606274,-32.142943800000005
1.21,121,0.002,-0.726,-0.057999999999999996,-7.0473834,-2.3491277999999998,-18.449247600000003,80.18547209999998,1.91367972,-32.19451002
1.22,122,0.011000000000000001,-0.713,-0.061,-7.6203414,-0.6302538000000001,-15.756345,80.11098756,2.0626488000000003,-32.2288875
1.23,123,0.031,-0.711,-0.048,-6.703608600000001,0.3437748,-13.407217200000002,80.03650302,2.19442914,-32.24607624
1.24,124,0.068,-0.716,-0.027999999999999997,-5.1566220000000005,0.2291832000000001,-11.2299768,79.9849368,2.30329116,-32.26899456
1.25,125,0.087,-0.7290000000000001,-0.012,-3.8961144,-0.6875496,-9.9121734,79.9562889,2.41215318,-32.29191288
1.26,126,0.111,-0.754,-0.011000000000000001,-3.9534102,-2.0626488000000003,-7.7922288,79.91618184000002,2.48090814,-32.32629036
1.27,127,0.11,-0.772,-0.043,-4.8701430000000006,-4.3544808,-5.443101,79.86461562,2.53247436,-32.37785658
1.28,128,0.09,-0.789,-0.064,-2.9793816000000004,-5.2139178,-3.7242269999999995,79.83023813999998,2.5611222600000003,-32.43515238
1.29,129,0.055999999999999994,-0.8140000000000001,-0.08199999999999999,-0.3437748,-6.875496000000001,-2.4637194,79.82450856,2.57258142,-32.50390734
1.3,130,0.037000000000000005,-0.83,-0.077,2.3491277999999998,-10.7716104,-1.2032118,79.85888604,2.57258142,-32.61276936
1.31,131,0.051,-0.852,-0.046,7.0473834,-13.8655836,-0.4583664000000001,79.92764100000002,2.55539268,-32.75027928
1.32,132,0.078,-0.875,-0.023,9.167328,-16.386598799999998,-0.40107059999999994,80.01358470000002,2.53820394,-32.91070752
1.33,133,0.113,-0.909,0.005,12.4331886,-18.334656,-0.6875496,80.13390588000001,2.5210152000000003,-33.08832450000001
1.34,134,0.14800000000000002,-0.96,0.031,14.667724800000002,-21.142150199999996,-0.572958,80.27714538,2.49809688,-33.294589380000005
1.35,135,0.17800000000000002,-1.002,-0.002,14.896907999999998,-24.1215318,0.3437748,80.43757362,2.48090814,-33.52950216000001
1.36,136,0.174,-1.04,-0.052000000000000005,15.928232399999999,-25.4393352,1.7761698000000001,80.59227228,2.42934192,-33.7758741
1.37,137,0.126,-1.0590000000000002,-0.033,19.308684600000007,-26.8717302,3.380452200000001,80.78134842,2.36058696,-34.0337052
1.3800000000000001,138,0.064,-1.061,0.035,23.605869600000002,-28.361421000000004,4.4690724,81.0162612,2.28610242,-34.30299546
1.3900000000000001,139,0.015,-1.051,0.113,26.2987722,-28.4760126,4.7555514,81.27409229999998,2.2058883,-34.57228572
1.4000000000000001,140,-0.008,-1.048,0.17,27.960350399999996,-26.814434400000003,4.6982555999999995,81.58348962,2.12567418,-34.82438724000001
1.4100000000000001,141,-0.017,-1.054,0.203,28.762491600000004,-25.78311,4.9274388,81.86996862,2.04546006,-35.0650296
1.42,142,0.0,-1.069,0.215,29.736520199999998,-26.69984280000001,7.161975,82.1621772,1.9480572000000005,-35.31713112
1.43,143,0.015,-1.171,0.053,21.4286292,-35.236917,7.9641161999999985,82.37417166,1.83919518,-35.64944676000001
1.44,144,-0.081,-1.25,-0.336,9.682990199999999,-43.65939960000001,3.380452200000001,82.46584494,1.75898106,-36.07343568
1.45,145,-0.02,-1.469,-0.504,30.4813656,-32.2002396,-7.6776372,82.76951268,1.8048177,-36.40002174
1.46,146,-0.068,-1.589,-0.614,15.011499599999999,-29.67922440000001,-22.86102420000001,82.91275218,2.005353,-36.71514864
1.47,147,-0.153,-1.58,-0.685,17.303331600000003,-38.159002799999996,-30.7678446,83.07891,2.2746432600000004,-37.1276784
1.48,148,-0.109,-1.3430000000000002,-0.518,22.803728399999997,-48.7587258,-24.809081399999997,83.29663404,2.47517856,-37.63188144
1.49,149,0.038,-1.088,-0.47200000000000003,18.277360199999997,-56.0352924,-19.0222056,83.46279186000002,2.61841806,-38.20483944
1.5,150,0.273,-1.028,-0.401,6.703608600000001,-57.696870600000004,-20.626488000000002,83.49716934,2.78457588,-38.80071576
1.51,151,0.341,-1.186,-0.302,-2.5210152000000003,-52.3683612,-24.2361234,83.45133270000002,2.9793816000000004,-39.33929628
1.52,152,0.33399999999999996,-1.409,-0.261,-12.7196676,-44.5761324,-24.7517856,83.30236362,3.18564648,-39.80912184
1.53,153,0.23399999999999999,-1.574,-0.294,-19.8243468,-37.0703826,-21.485925,83.07891,3.36326346,-40.20446286
1.54,154,0.14,-1.6019999999999999,-0.315,-20.9702628,-27.960350399999996,-14.0947668,82.85545637999998,3.47212548,-40.49667144
1.55,155,0.027000000000000003,-1.508,-0.32799999999999996,-19.365980399999998,-16.4438946,-2.0053530000000004,82.6491915,3.47212548,-40.66282926
1.56,156,-0.086,-1.409,-0.28,-15.2406828,-8.250595200000001,11.802934800000001,82.48876326,3.34607472,-40.73158422
1.57,157,-0.184,-1.287,-0.212,-13.636400400000001,-1.3750992,22.803728399999997,82.35125334,3.1226211000000004,-40.72012506
1.58,158,-0.233,-1.126,-0.155,-14.266654199999998,3.0366774,30.366774000000003,82.20801384,2.82468294,-40.6513701
1.59,159,-0.23600000000000002,-0.987,-0.11599999999999999,-16.1001198,7.2192707999999985,32.2002396,82.05331518,2.51528562,-40.5367785
1.6,160,-0.192,-0.889,-0.10300000000000001,-17.475219,11.688343199999998,29.9084076,81.88142778,2.21161788,-40.38207984
1.61,161,-0.10099999999999999,-0.8190000000000001,-0.086,-16.501190400000002,16.959556799999998,26.1268848,81.71526996,1.97097552,-40.18154454
1.62,162,0.013999999999999999,-0.746,-0.081,-16.157415599999997,22.0015872,22.345361999999998,81.55484172,1.7761698000000001,-39.9351726
1.6300000000000001,163,0.09699999999999999,-0.6559999999999999,-0.077,-14.667724800000002,22.9756158,19.136797199999997,81.41160221999998,1.6157415599999996,-39.68307108000001
1.6400000000000001,164,0.13699999999999998,-0.583,-0.053,-13.8655836,20.3973048,18.048177,81.27409229999998,1.4610428999999998,-39.45961746
1.6500000000000001,165,0.126,-0.517,-0.042,-14.610429000000002,17.6471064,18.8503182,81.1308528,1.30061466,-39.25908216000001
1.6600000000000001,166,0.075,-0.488,-0.011000000000000001,-14.667724800000002,16.615782,21.4286292,80.98188372,1.11153852,-39.06427644
1.6700000000000002,167,0.024,-0.48100000000000004,-0.022000000000000002,-16.673077799999998,19.4232762,23.777757,80.8157259,0.89954406,-38.84082282
1.68,168,-0.01,-0.478,-0.036000000000000004,-16.157415599999997,22.1161788,24.4653066,80.65529766,0.6875496,-38.58299172
1.69,169,-0.038,-0.486,-0.033,-15.527161800000002,25.152856200000002,23.204798999999998,80.49486942,0.49274388,-38.302242299999996
1.7,170,-0.031,-0.506,-0.028999999999999998,-15.527161800000002,28.7051958,21.7151082,80.34017076,0.31512690000000004,-37.9871154
1.71,171,-0.047,-0.527,-0.033,-16.386598799999998,30.595957199999997,19.5378678,80.16828336,0.16615782,-37.65479976
1.72,172,-0.08,-0.56,-0.037000000000000005,-18.2200644,31.856464799999998,16.902261,79.97920722,0.04583664,-37.31675454
1.73,173,-0.121,-0.6,-0.054000000000000006,-19.767051000000002,34.37748,14.667724800000002,79.77867192,-0.04583664,-36.96152058
1.74,174,-0.16899999999999998,-0.648,-0.047,-19.8243468,38.445481799999996,12.318597,79.56667746000002,-0.10886202,-36.56617956
1.75,175,-0.187,-0.7020000000000001,-0.046,-19.136797199999997,44.2896534,11.45916,79.37187173999997,-0.1718874,-36.11354274
1.76,176,-0.151,-0.7609999999999999,-0.046,-16.4438946,48.70143,10.4278356,79.19998434,-0.19480572,-35.620798859999994
1.77,177,-0.07200000000000001,-0.826,-0.016,-11.401864199999999,50.3630082,8.479778399999999,79.07393358,-0.20053530000000008,-35.11086624
1.78,178,0.026000000000000002,-0.892,0.026000000000000002,-5.5003968,48.414951,5.2712136,79.01090819999997,-0.1718874,-34.62958152
1.79,179,0.129,-0.96,0.055,-1.432395,43.888582799999995,1.3178034,78.98798988,-0.11459160000000003,-34.19986302
1.8,180,0.19699999999999998,-1.01,0.044000000000000004,0.5156622000000001,36.4974246,-2.4637194,79.02236736,0.0,-33.85035864
1.81,181,0.20199999999999999,-1.055,0.054000000000000006,3.1512689999999997,26.929026,-5.0993262,79.04528567999998,0.0859437,-33.59825712
1.82,182,0.162,-1.091,0.084,4.5263682,17.5325148,-6.130650599999999,79.09112232,0.17761697999999998,-33.43782888
1.83,183,0.087,-1.1320000000000001,0.098,4.297185,8.250595200000001,-6.0733548,79.13695895999999,0.25210152,-33.363344340000005
1.84,184,0.013999999999999999,-1.189,0.094,2.6356068,4.1825934,-5.844171599999999,79.15987728,0.31512690000000004,-33.33469644
1.85,185,-0.006999999999999999,-1.25,0.083,0.7448454000000001,4.3544808,-6.589017,79.19425475999998,0.38388186,-33.30604854
1.86,186,-0.023,-1.311,0.091,0.286479,5.1566220000000005,-8.021412000000002,79.19998434,0.46982556,-33.265941479999995
1.87,187,-0.045,-1.375,0.099,0.8594370000000001,7.448453999999999,-9.2819196,79.20571392,0.5729580000000001,-33.21437526
1.8800000000000001,188,-0.034,-1.421,0.111,1.8907614,10.943497800000001,-9.5111028,79.22863224,0.6875496,-33.12270198
1.8900000000000001,189,0.01,-1.4280000000000002,0.14,3.2658606,13.6936962,-8.880849000000003,79.25728014,0.79641162,-33.002380800000005
1.9000000000000001,190,0.051,-1.3869999999999998,0.19,4.0680017999999984,14.1520626,-8.3651868,79.32030552,0.89954406,-32.88205962
1.9100000000000001,191,0.057999999999999996,-1.3419999999999999,0.21,3.7242269999999995,12.891555,-7.7922288,79.354683,0.9969469199999998,-32.76746802
1.9200000000000002,192,0.03,-1.341,0.152,2.4637194,10.313244000000001,-7.161975,79.3833309,1.08289062,-32.68152432
1.93,193,0.001,-1.374,0.075,1.145916,9.2819196,-6.990087599999999,79.39479005999998,1.1688343199999998,-32.6013102
1.94,194,-0.017,-1.422,-0.02,-2.1199446,11.6310474,-8.307891,79.37187173999997,1.26623718,-32.50390734
1.95,195,-0.049,-1.4569999999999999,-0.151,-4.7555514,17.131444199999994,-9.1100322,79.32603509999998,1.38082878,-32.35493826
1.96,196,-0.09300000000000001,-1.469,-0.336,-3.0939732,25.6112226,-6.3025379999999975,79.2973872,1.48396122,-32.114295899999995
1.97,197,-0.081,-1.4180000000000001,-0.51,-2.4637194,36.8411994,-0.7448454000000001,79.27446888,1.5469866,-31.75906194
1.98,198,-0.018000000000000002,-1.2890000000000001,-0.6729999999999999,-11.917526400000002,45.034498799999994,5.3858052,79.15987728,1.56417534,-31.30642512
1.99,199,0.092,-1.162,-0.7959999999999999,-26.2987722,43.258328999999996,8.078707799999998,78.90204618,1.5527161800000002,-30.87097704
2.0,200,0.179,-1.041,-0.833,-31.455394199999997,32.8877892,8.7089616,78.55827138,1.52406828,-30.5386614
2.01,201,0.243,-0.903,-0.7040000000000001,-31.5699858,25.6112226,6.0733548,78.24314448,1.50687954,-30.2808303
2.02,202,0.21,-0.8170000000000001,-0.512,-30.7105488,22.803728399999997,-0.9740286,77.93374716000002,1.5527161800000002,-30.06310626
2.03,203,0.096,-0.8220000000000001,-0.414,-30.882436199999997,26.2987722,-7.6203414,77.62434984000002,1.67303736,-29.828193480000003
2.04,204,-0.031,-0.917,-0.386,-30.080295,28.5906042,-9.8548776,77.3206821,1.82200644,-29.57609196000001
2.05,205,-0.154,-1.021,-0.365,-28.6479,29.4500412,-8.9954406,77.02274394,1.94232762,-29.312531279999995
2.0599999999999996,206,-0.203,-1.113,-0.348,-28.81978740000001,28.074942,-9.682990199999999,76.73626494,2.0912967,-29.06615934
2.07,207,-0.14300000000000002,-1.169,-0.35700000000000004,-31.054323600000004,25.668518399999996,-13.8082878,76.42686762000002,2.2746432600000004,-28.848435300000002
2.0799999999999996,208,-0.023,-1.171,-0.3720000000000001,-34.262888399999994,23.777757,-17.6471064,76.08309282,2.4923672999999997,-28.66508874
2.09,209,0.109,-1.15,-0.385,-35.9817624,21.829699800000004,-19.8816426,75.72212928,2.72728008,-28.504660499999996
2.0999999999999996,210,0.207,-1.13,-0.345,-37.52874900000001,20.05353,-21.314037600000002,75.33824741999999,2.9793816000000004,-28.36715058
2.11,211,0.24,-1.0979999999999999,-0.312,-39.9351726,17.9335854,-22.6891368,74.93717682,3.2372127,-28.25255898
2.1199999999999997,212,0.24,-1.052,-0.318,-41.76863820000001,16.8449652,-23.5485738,74.51891748,3.4950437999999995,-28.15515612
2.13,213,0.218,-0.997,-0.312,-41.76863820000001,15.068795399999999,-23.9496444,74.09492856,3.75860448,-28.08067158
2.1399999999999997,214,0.18,-0.9229999999999999,-0.306,-40.4508348,11.688343199999998,-24.4080108,73.6823988,4.01643558,-28.03483494
2.15,215,0.14400000000000002,-0.8420000000000001,-0.29,-39.820581,8.4224826,-26.0122932,73.27559862,4.28572584,-28.03483494
2.1599999999999997,216,0.11800000000000001,-0.773,-0.258,-39.5913978,5.042030400000002,-28.132237800000002,72.86879844,4.56074568,-28.069212420000003
2.17,217,0.10800000000000001,-0.7340000000000001,-0.222,-38.5027776,0.5156622000000001,-31.2835068,72.46772784,4.85295426,-28.1608857
2.1799999999999997,218,0.109,-0.725,-0.19899999999999998,-38.5600734,-3.6096353999999997,-34.7212548,72.06665724,5.16808116,-28.304125200000005
2.19,219,0.11,-0.725,-0.201,-38.67466500000001,-5.5576926,-37.586044799999996,71.65412748,5.50612638,-28.4760126
2.1999999999999997,220,0.122,-0.735,-0.191,-38.90384820000001,-7.6776372,-38.5027776,71.24159771999999,5.844171599999999,-28.670818319999995
2.21,221,0.157,-0.733,-0.192,-39.018439799999996,-10.2559482,-37.3568616,70.82333838000002,6.1592985,-28.89427194
2.2199999999999998,222,0.19699999999999998,-0.73,-0.193,-38.5027776,-13.5791046,-36.2109456,70.40507904,6.45723666,-29.14637346
2.23,223,0.217,-0.738,-0.195,-38.7892566,-17.4179232,-35.5806918,69.98109012,6.7322565,-29.43285246
2.2399999999999998,224,0.228,-0.754,-0.2,-38.5027776,-19.079501399999998,-35.236917,69.5571012,6.99581718,-29.736520199999998
2.25,225,0.233,-0.7659999999999999,-0.19699999999999998,-37.757932200000006,-20.168121600000006,-35.695283399999994,69.13884186,7.265107439999999,-30.051647100000004
2.26,226,0.251,-0.789,-0.185,-37.24227,-22.4599536,-36.7266078,68.72058252,7.528668120000002,-30.40115148
2.27,227,0.257,-0.795,-0.191,-38.159002799999996,-24.5798982,-37.9298196,68.28513444,7.792228800000001,-30.773574180000004
2.28,228,0.261,-0.795,-0.166,-39.6486936,-27.8457588,-39.4195104,67.83249762,8.05578948,-31.18037436
2.29,229,0.265,-0.79,-0.185,-40.966497,-31.340802600000004,-40.6227222,67.35121290000001,8.31362058,-31.63301118
2.3,230,0.287,-0.785,-0.223,-43.4302164,-36.554720399999994,-39.6486936,66.84700986,8.54853336,-32.13148464
2.31,231,0.302,-0.765,-0.23199999999999998,-41.4821592,-43.0864416,-36.2109456,66.3485364,8.72042076,-32.67579474
2.32,232,0.312,-0.745,-0.184,-38.159002799999996,-50.5348956,-32.31483119999999,65.87298125999999,8.81782362,-33.27740064
2.3299999999999996,233,0.319,-0.7290000000000001,-0.146,-35.9244666,-59.53033620000001,-28.81978740000001,65.41461486,8.84647152,-33.9477615
2.34,234,0.34,-0.698,-0.136,-34.950438,-68.2965936,-25.7258142,64.95624846,8.80636446,-34.68687732
2.3499999999999996,235,0.386,-0.664,-0.10800000000000001,-26.1268848,-77.6931048,-26.356068,64.58382576,8.749068659999999,-35.51193684000001
2.36,236,0.42,-0.669,-0.043,-22.7464326,-89.49603959999996,-26.7571386,64.22286222,8.62874748,-36.44585838
2.3699999999999997,237,0.446,-0.664,0.015,-22.345361999999998,-102.845961,-28.1895336,63.85043952,8.45686008,-37.50583068
2.38,238,0.467,-0.7140000000000001,0.086,-19.5378678,-116.596953,-29.736520199999998,63.49520556,8.23913604,-38.69758331999999
2.3899999999999997,239,0.515,-0.823,0.11699999999999999,-21.829699800000004,-134.64513,-28.9916748,63.09986454,7.929738719999999,-40.04976420000001
2.4,240,0.539,-0.93,0.051,-30.65325300000001,-153.4381524,-25.4393352,62.61857982,7.505749800000001,-41.54518458
2.4099999999999997,241,0.508,-1.061,-0.071,-42.7999626,-175.8408102,-21.829699800000004,61.99978518,6.9270622200000025,-43.22395152
2.42,242,0.461,-1.217,-0.24600000000000002,-54.94667220000001,-192.9722544,-18.7357266,61.26066936,6.22805346,-45.02876922
2.4299999999999997,243,0.413,-1.357,-0.345,-64.457775,-202.3687656,-15.297978599999999,60.44133942,5.42591226,-46.89088271999999
2.44,244,0.345,-1.43,-0.33799999999999997,-72.9948492,-206.6659506,-13.0634424,59.56471368,4.56074568,-48.76445538
2.4499999999999997,245,0.255,-1.359,-0.22,-81.2454444,-207.983754,-9.167328,58.64225129999999,3.62109456,-50.60938014
2.46,246,0.18600000000000005,-1.232,-0.132,-87.4333908,-210.848544,-0.8021411999999999,57.68541144,2.56685184,-52.425657
2.4699999999999998,247,0.131,-1.052,-0.287,-88.98037740000002,-220.302351,7.6203414,56.751489899999996,1.36364004,-54.25339302
2.48,248,0.066,-0.961,-0.369,-81.5892192,-226.89136800000003,11.401864199999999,55.92643038,0.06875496,-56.0925882
2.4899999999999998,249,-0.02,-0.985,-0.354,-84.56860079999998,-219.2137308,13.6936962,55.11855959999999,-1.22613012,-57.8401101
2.5,250,-0.10800000000000001,-1.005,-0.44799999999999995,-92.7619002,-205.9211052,18.506543399999998,54.25912260000001,-2.5210152000000003,-59.43293334
2.51,251,-0.221,-0.987,-0.501,-94.251591,-205.6346262,26.1841806,53.41687434000001,-3.896114400000001,-60.96273120000001
2.52,252,-0.32799999999999996,-0.996,-0.46,-91.0430262,-207.06702119999997,35.2942128,52.63765146,-5.37434604,-62.42950368
2.53,253,-0.439,-1.046,-0.45899999999999996,-90.8711388,-200.3634126,42.28430039999999,51.88707648,-6.8869551599999985,-63.78168456
2.54,254,-0.4,-1.0390000000000001,-0.44299999999999995,-90.527364,-185.4092088,47.8992888,51.14796066,-8.37091638,-64.96770762
2.55,255,-0.265,-1.02,-0.452,-90.240885,-169.882047,53.8007562,50.420303999999994,-9.826229699999999,-65.97611370000001
2.56,256,-0.18,-0.982,-0.4370000000000001,-93.4494498,-154.5840684,61.36380179999999,49.6468107,-11.25289512,-66.80117322
2.57,257,-0.185,-0.943,-0.4320000000000001,-98.09040959999999,-142.26547140000002,71.7343416,48.80456244000001,-12.696749280000002,-67.44861576
2.5799999999999996,258,-0.226,-0.93,-0.45899999999999996,-101.0697912,-135.73375019999997,81.53192340000003,47.91647754,-14.180710500000002,-67.9528188
2.59,259,-0.263,-0.9209999999999999,-0.46299999999999997,-103.3043274,-132.5251854,90.1835892,46.98828558,-15.71623794,-68.35388940000001
2.5999999999999996,260,-0.308,-0.925,-0.425,-103.2470316,-127.54045079999999,96.37153559999999,46.05436404,-17.268954119999997,-68.65755714000001
2.61,261,-0.304,-0.963,-0.385,-104.39294759999999,-117.45638999999998,97.8039306,45.06887628,-18.77010408,-68.8409037
2.6199999999999997,262,-0.305,-0.9690000000000001,-0.381,-106.3410048,-109.6068654,94.9391406,44.04328146,-20.196769500000002,-68.96122488
2.63,263,-0.28,-0.953,-0.326,-106.5128922,-102.1011156,92.7046044,43.0004979,-21.56040954,-69.01852068
2.6399999999999997,264,-0.183,-0.9129999999999999,-0.322,-106.3983006,-99.981171,92.3608296,41.9405256,-22.90686084,-69.03570942
2.65,265,-0.094,-0.8540000000000001,-0.315,-109.5495696,-100.7833122,92.41812540000001,40.8519054,-24.25331214,-69.02997984
2.6599999999999997,266,-0.026000000000000002,-0.784,-0.301,-114.305121,-103.8199896,91.67328,39.7059894,-25.62268176,-69.02425026
2.67,267,0.054000000000000006,-0.669,-0.263,-118.4304186,-108.51824520000001,90.2981808,38.51996634,-27.02069928,-69.02997984
2.6799999999999997,268,0.161,-0.534,-0.21100000000000002,-122.613012,-113.159205,88.17823620000001,37.30529538,-28.44163512,-69.05862774
2.69,269,0.195,-0.374,-0.14400000000000002,-128.45718359999998,-118.4304186,85.7145168,36.04478778,-29.88548928,-69.11019395999999
2.6999999999999997,270,0.19399999999999998,-0.23199999999999998,-0.19699999999999998,-130.34794499999998,-124.7902524,83.4226848,34.7785506,-31.36372092,-69.19040808
2.71,271,0.21600000000000005,-0.106,-0.19,-128.8582542,-134.4732426,78.7244292,33.575338800000004,-32.89924836,-69.34510673999999
2.7199999999999998,272,0.23,-0.017,-0.127,-126.7383096,-142.26547140000002,72.3645954,32.44088196,-34.46915328,-69.58001952
2.73,273,0.18600000000000005,0.027999999999999997,0.004,-122.040054,-147.02102280000003,63.4264506,31.409557560000003,-36.03332862,-69.90660558
2.7399999999999998,274,0.182,0.065,0.085,-117.57098159999998,-145.7605152,55.3477428,30.46417686,-37.54593774,-70.28475786
2.75,275,0.168,0.11900000000000001,0.11,-110.29441499999999,-141.00496379999996,50.706783,29.593280699999998,-39.00125106,-70.65718056
2.76,276,0.154,0.175,0.124,-101.127087,-135.6191586,47.0971476,28.81405782,-40.39926858,-71.0181441
2.77,277,0.135,0.233,0.16699999999999998,-92.5900128,-130.46253660000002,44.51883660000001,28.11504906,-41.7399903,-71.35618932
2.78,278,0.11,0.278,0.21899999999999997,-84.91237559999998,-128.8582542,40.5081306,27.51917274,-43.04633454,-71.72288244
2.79,279,0.065,0.345,0.27399999999999997,-76.4325972,-132.5251854,34.8931422,27.06653592,-44.36413794,-72.16978968
2.8,280,-0.075,0.48,0.305,-73.10944079999999,-141.6925134,33.9191136,26.69411322,-45.7793442,-72.67972230000002
2.81,281,-0.19899999999999998,0.622,0.305,-67.49445240000001,-144.671895,35.2942128,26.40763422,-47.20600962,-73.20111408
2.82,282,-0.223,0.644,0.313,-64.4004792,-144.32812019999997,34.8931422,26.166991860000003,-48.63267504,-73.72823544
2.8299999999999996,283,-0.207,0.59,0.32799999999999996,-62.68160520000001,-147.76586819999997,36.38283300000001,25.96645656,-50.09371794,-74.27254554
2.84,284,-0.205,0.47,0.34700000000000003,-63.6556338,-145.4740362,39.47680620000001,25.714355040000004,-51.54903126000001,-74.75955984
2.8499999999999996,285,-0.268,0.316,0.327,-68.2392978,-138.94231499999998,42.742666799999995,25.3533915,-52.98715583999999,-75.15490086000001
2.86,286,-0.38,0.168,0.3720000000000001,-75.2293854,-137.45262419999997,45.72204840000001,24.87783636,-54.40236209999999,-75.4872165
2.8699999999999997,287,-0.489,0.059000000000000004,0.359,-88.35012359999996,-140.4320058,49.7900502,24.23039382,-55.86913458,-75.76796592000002
2.88,288,-0.5489999999999999,0.134,0.263,-104.22106020000001,-136.1348208,60.6189564,23.227717320000004,-57.34163663999999,-75.81380256
2.8899999999999997,289,-0.629,0.272,0.132,-114.4770084,-121.98275819999999,72.88025760000002,21.79532232,-58.73965416000001,-75.47575734
2.9,290,-0.5710000000000001,0.32899999999999996,0.032,-121.6962792,-104.7367224,83.25079740000002,19.9102905,-60.0173505,-74.71372319999998
2.9099999999999997,291,-0.418,0.299,-0.076,-126.910197,-99.408213,93.3348582,17.68148388,-61.26066936,-73.61364384000002
2.92,292,-0.28600000000000003,0.225,0.013999999999999999,-113.1019092,-106.85666699999999,96.14235240000001,15.441218099999999,-62.54982486,-72.35886581999998
2.9299999999999997,293,-0.138,-0.002,0.19,-105.3096804,-103.5908064,93.4494498,13.15511568,-63.78168456,-70.97803704
2.94,294,-0.149,-0.158,0.136,-109.9506402,-96.7153104,94.65266159999999,10.59399342,-64.92187098,-69.35083632
2.9499999999999997,295,-0.28,-0.233,0.11800000000000001,-118.2585312,-81.18814859999998,107.0285544,7.43699484,-65.90162916,-67.18505508000001
2.96,296,-0.21,-0.043,-0.188,-126.7383096,-63.4264506,127.25397179999999,3.45493674,-66.6636633,-64.22859179999999
2.9699999999999998,297,0.062,0.244,-0.6509999999999999,-114.3624168,-71.2759752,146.677248,-1.06570188,-67.41423827999999,-60.5616606
2.98,298,-0.017,0.251,-0.815,-89.66792699999998,-112.52895120000001,150.5733624,-5.75249832,-68.45129225999999,-56.47074048
2.9899999999999998,299,-0.275,0.315,-1.196,-61.6502808,-137.8536948,124.2745902,-9.95801004,-69.64877448000001,-52.61473314
3.0,300,-0.579,0.513,-1.4040000000000001,-25.8977016,-133.61380559999998,93.2202666,-13.38429888,-70.75458342,-49.23428094000001
3.01,301,-0.7340000000000001,0.619,-1.117,3.1512689999999997,-137.3953284,75.00020219999998,-16.386598799999998,-71.88904026,-46.0085274
3.02,302,-0.818,0.667,-0.924,-3.2658606,-159.568803,62.910788399999994,-19.7097552,-73.20684365999998,-42.53640192
3.03,303,-0.972,0.855,-1.045,-4.8128472,-181.7995734,42.1697088,-23.227717320000004,-74.74810068,-38.9038482
3.04,304,-0.995,0.805,-0.987,20.05353,-180.3671784,11.401864199999999,-26.103966480000004,-76.34092392,-35.695283399999994
3.05,305,-0.27399999999999997,0.349,-1.008,46.123119,-193.4306208,-27.215505,-28.13796738,-78.16293035999998,-33.09978366
3.06,306,2.741,2.873,-1.016,-6.2452422,-316.1582244,169.595568,-44.31257172,-79.76721276,-16.66734822
3.07,307,-2.735,3.969,-1.272,-46.00852740000001,-334.3782888,386.4028752,-69.91806474,-78.38065440000003,8.9667927
3.08,308,-3.9989999999999997,-1.264,2.13,129.94687439999998,-322.861833,165.06919979999995,-84.69465156,-77.56132446000002,25.48517184
3.09,309,-3.9989999999999997,-1.669,1.195,-80.2714158,-391.61679300000003,-33.518043,-103.35016404,-77.75040059999998,43.79117994
3.0999999999999996,310,-3.9989999999999997,3.444,1.391,-133.6711014,-338.8473612,108.17447040000002,-116.60841216,-75.64764474,56.05821072
3.11,311,-3.9989999999999997,3.719,2.302,1.8907614,-310.1994612,46.5814854,-125.43769494,-73.73396502,65.27710494
3.1199999999999997,312,-3.995,2.381,2.175,-22.345361999999998,-272.3842332,-62.96808420000001,-133.94612124,-72.55367154000002,73.96887779999999
3.13,313,-3.588,2.088,1.9069999999999998,28.418716800000002,-213.8852214,-115.164558,-140.83307639999995,-71.81455572,81.53192340000003
3.1399999999999997,314,-2.436,1.026,1.9269999999999998,41.9978214,-184.2632928,-113.0446134,-146.40795774,-71.05252157999998,87.8917572
3.15,315,-1.785,0.821,1.5659999999999998,65.2026204,-154.7559558,-86.91772859999998,-150.20666928,-70.23319164,92.63584944
3.1599999999999997,316,-1.3019999999999998,0.688,1.275,86.1728832,-143.1822042,-54.3164184,-152.53287876,-69.27635178,96.06786786
3.17,317,-1.272,0.5920000000000001,0.99,96.6007188,-125.93616840000001,-36.554720399999994,-153.90224838,-68.35961898,98.6060718
3.1799999999999997,318,-1.115,0.722,0.857,110.6381898,-103.53351059999999,-28.0176462,-154.55542050000003,-67.58612568,100.53121068
3.19,319,-0.938,0.62,0.767,116.25317820000001,-91.1576178,-24.064236,-154.85335866,-66.90430566,102.15268182
3.1999999999999997,320,-0.782,0.441,0.6409999999999999,116.9407278,-82.04758559999998,-28.7051958,-155.09400102,-66.30269976,103.71685716
3.21,321,-0.713,0.363,0.522,112.2424722,-70.18735500000001,-32.658606,-155.30599548,-65.8328742,105.20654796
3.2199999999999998,322,-0.6509999999999999,0.309,0.452,109.6641612,-63.1972674,-34.66395900000001,-155.49507162,-65.4318036,106.63894295999998
3.23,323,-0.401,0.18600000000000005,0.41100000000000003,109.3203864,-56.264475600000004,-33.5753388,-155.56955616,-65.08802879999999,107.95674635999998
3.2399999999999998,324,-0.11699999999999999,-0.019,0.426,104.851314,-53.9153478,-24.8663772,-155.48361246,-64.72706526,109.04536656
3.25,325,-0.057,-0.11699999999999999,0.3720000000000001,96.7726062,-62.0513514,-18.1054728,-155.4435054,-64.25151012,110.08242054
3.26,326,-0.18,-0.135,0.377,83.4226848,-71.1040878,-7.9641161999999985,-155.37475044,-63.66709296000001,110.95904628
3.27,327,-0.457,-0.08800000000000001,0.38799999999999996,71.44786260000002,-71.61975,1.7188740000000002,-155.23724052,-63.03683916,111.62940714
3.28,328,-0.467,0.087,0.41,60.3324774,-62.0513514,8.59437,-154.99659816000005,-62.458151580000006,112.05912564
3.29,329,-0.47,0.204,0.44299999999999995,49.7327544,-46.5814854,7.734933000000002,-154.75022622,-62.01697392,112.3570638
3.3,330,-0.556,0.179,0.474,41.6540466,-32.658606,-1.2032118,-154.62990503999995,-61.72476534,112.70656818
3.31,331,-0.595,0.271,0.53,33.804522,-19.9962342,-7.161975,-154.57260924,-61.58152584,113.03315424
3.32,332,-0.7170000000000001,0.355,0.573,34.091001,-14.896907999999998,-9.7975818,-154.50958386,-61.49558214,113.3597403
3.33,333,-0.7170000000000001,0.298,0.561,36.2109456,-9.9121734,-15.126091199999998,-154.47520637999997,-61.4783934,113.73789258
3.34,334,-0.611,0.318,0.542,36.096354,-11.2299768,-12.5477802,-154.41218099999998,-61.43828634000001,114.08166738
3.3499999999999996,335,-0.602,0.154,0.501,32.4867186,-12.4904844,-15.928232399999999,-154.46947680000005,-61.38672012000001,114.52284504
3.36,336,-0.622,0.155,0.528,25.668518399999996,-11.5737516,-17.8189938,-154.59552756,-61.36380180000001,114.96402270000002
3.3699999999999997,337,-0.6970000000000001,0.177,0.5770000000000001,23.14750320000001,-9.8548776,-16.4438946,-154.71011916,-61.35234264,115.3650933
3.38,338,-0.845,0.222,0.674,17.131444199999994,-9.9694692,-14.896907999999998,-154.86481782,-61.32942432,115.73751599999999
3.3899999999999997,339,-0.9440000000000001,0.35600000000000004,0.7979999999999999,12.2040054,-7.3911582,-11.6310474,-154.99086857999995,-61.31223558000001,116.023995
3.4,340,-1.0,0.381,0.823,6.5317212,-7.333862400000001,-10.3705398,-155.15129682,-61.27212852,116.28755568
3.4099999999999997,341,-1.014,0.395,0.779,1.2032118,-8.880849000000003,-7.5057497999999985,-155.33464338000005,-61.22629188,116.51100929999998
3.42,342,-1.025,0.415,0.7959999999999999,-2.1199446,-9.0527364,-3.1512689999999997,-155.47788287999995,-61.15753692,116.64851922
3.4299999999999997,343,-1.07,0.434,0.83,-4.1252976000000015,-9.682990199999999,-0.40107059999999994,-155.60393364,-61.07159322,116.74592208
3.44,344,-1.121,0.38,0.778,-4.4117766,-4.583664,-2.8074942000000003,-155.72998439999995,-61.04294532,116.83759536
3.4499999999999997,345,-1.114,0.312,0.6920000000000001,-1.6615782,6.130650599999999,-7.5630456000000015,-155.82738726,-61.11742986,116.92926864
3.46,346,-1.051,0.275,0.652,2.5783110000000002,12.261301199999998,-10.4851314,-155.87895348,-61.27212852,117.01521234
3.4699999999999998,347,-1.0070000000000001,0.299,0.652,9.740286,13.521808800000002,-11.9748222,-155.8732239,-61.44401592000001,117.12407436
3.48,348,-1.04,0.285,0.67,16.8449652,12.4331886,-13.407217200000002,-155.83311684,-61.61017374000001,117.26731386
3.4899999999999998,349,-1.061,0.292,0.6759999999999999,20.626488000000002,11.802934800000001,-15.6990492,-155.79873935999996,-61.78779072,117.46211958
3.5,350,-1.036,0.32299999999999995,0.664,23.605869600000002,18.2200644,-18.449247600000003,-155.72425482,-62.01697392,117.64546614
3.51,351,-1.012,0.377,0.6509999999999999,22.1161788,23.892348600000002,-20.05353,-155.64977028,-62.31491208,117.81162396
3.52,352,-1.037,0.402,0.628,19.7097552,37.1849742,-22.2880662,-155.5294491,-62.738901,117.90329724
3.53,353,-1.016,0.462,0.598,23.491278,59.8168152,-20.2827132,-155.14556724,-63.35769564,117.73140984
3.54,354,-1.022,0.444,0.532,31.79916900000001,67.3798608,-17.9908812,-154.55542050000003,-64.03378608,117.42201252
3.55,355,-1.055,0.325,0.42200000000000004,32.142943800000005,67.43715660000001,-22.6891368,-154.01683998,-64.73279484,117.17564058
3.56,356,-0.7979999999999999,0.138,0.308,35.52339600000001,80.3860074,-26.69984280000001,-153.3808566,-65.55785436,116.8547841
3.57,357,-0.632,0.113,0.256,30.595957199999997,80.09952840000003,-23.2620948,-152.69330699999998,-66.35999556,116.43652476
3.58,358,-0.684,0.085,0.23800000000000002,25.0382646,72.65107440000001,-25.3247436,-152.15472648,-67.11057054,116.10993870000001
3.59,359,-0.691,-0.011000000000000001,0.17600000000000002,22.1734746,86.80313699999998,-30.080295,-151.547391,-67.99865544000001,115.68594978
3.5999999999999996,360,-0.596,-0.027999999999999997,0.237,18.2200644,96.0850566,-33.116972399999995,-150.91140762,-68.97841362,115.18174674000002
3.61,361,-0.655,0.062,0.348,17.0168526,86.63124959999998,-32.7159018,-150.32699046,-69.87795768,114.7348395
3.6199999999999997,362,-0.775,0.09300000000000001,0.4370000000000001,17.9335854,68.01011460000001,-30.4813656,-149.90873112000003,-70.60561434,114.47127882
3.63,363,-0.941,0.102,0.39,16.558486199999994,52.82672760000001,-28.3041252,-149.65662959999997,-71.19576108,114.37387596
3.6399999999999997,364,-1.054,0.083,0.313,11.802934800000001,45.550160999999996,-27.6738714,-149.53630842,-71.71715286,114.36814637999998
3.65,365,-1.084,0.09300000000000001,0.245,2.3491277999999998,40.8519054,-26.9863218,-149.57641548,-72.20989674,114.43117176
3.6599999999999997,366,-1.022,0.076,0.192,-2.4637194,40.966497,-23.835052800000003,-149.57641548,-72.67399272,114.39106470000002
3.67,367,-0.99,0.069,0.17,-7.0473834,42.742666799999995,-19.595163600000006,-149.46755346,-73.13235912,114.19625898
3.6799999999999997,368,-0.995,0.044000000000000004,0.161,-9.740286,46.3523022,-16.558486199999994,-149.2269111,-73.60218468000002,113.83529543999998
3.69,369,-0.9620000000000001,-0.023,0.151,-12.4331886,51.33703679999999,-14.896907999999998,-148.85448839999995,-74.10065814,113.30817408
3.6999999999999997,370,-0.9420000000000001,-0.064,0.149,-18.9649098,52.425657,-12.891555,-148.49352486,-74.62204992,112.72375692
3.71,371,-0.915,-0.064,0.153,-24.923673,51.1651494,-10.3705398,-148.04661761999995,-75.09187548,111.99037068
3.7199999999999998,372,-0.8740000000000001,-0.02,0.14300000000000002,-28.5906042,48.071176200000004,-6.589017,-147.54814416,-75.52159398,111.16531116000002
3.73,373,-0.895,0.038,0.127,-30.8251404,40.7946096,-2.1199446,-147.04394112,-75.8596392,110.31733332000002
3.7399999999999998,374,-0.934,0.071,0.11699999999999999,-31.741873200000004,31.627281600000003,2.0053530000000004,-146.58557472,-76.10028156,109.51519212
3.75,375,-0.922,0.064,0.08199999999999999,-31.741873200000004,25.4393352,4.4117766,-146.1615858,-76.30081686,108.74169881999998
3.76,376,-0.882,0.053,0.039,-30.8251404,22.1734746,6.875496000000001,-145.72040814,-76.4325972,107.95674635999998
3.77,377,-0.853,0.057999999999999996,0.01,-29.0489706,18.506543399999998,9.5111028,-145.244853,-76.52427048,107.16033474
3.78,378,-0.847,0.077,0.006999999999999999,-25.8977016,14.381245800000002,12.318597,-144.73492038,-76.56437754,106.3696527
3.79,379,-0.843,0.09300000000000001,0.02,-21.4286292,11.0580894,14.7250206,-144.17915112,-76.56437754,105.57324107999996
3.8,380,-0.8340000000000001,0.107,0.042,-18.1054728,8.250595200000001,16.157415599999997,-143.56035648,-76.54718879999999,104.74818156
3.81,381,-0.8370000000000001,0.121,0.08,-15.9855282,5.9014674000000005,16.959556799999998,-143.0103168,-76.48989300000002,104.01479532
3.82,382,-0.86,0.128,0.11599999999999999,-12.9488508,3.1512689999999997,17.131444199999994,-142.50038418,-76.40967888,103.35589362
3.83,383,-0.8909999999999999,0.133,0.14800000000000002,-9.7975818,0.572958,16.673077799999998,-142.04201777999995,-76.31227602,102.78293562
3.84,384,-0.9279999999999999,0.14300000000000002,0.168,-7.9641161999999985,-0.9167328000000001,15.756345,-141.64667676000005,-76.20341400000002,102.29019174
3.8499999999999996,385,-0.9490000000000001,0.156,0.184,-6.0160589999999985,-1.7188740000000002,14.667724800000002,-141.26852448,-76.09455198,101.8432845
3.86,386,-0.96,0.171,0.203,-4.1825934,-2.2345362,13.2926256,-140.95912716,-75.99714911999997,101.47659138
3.8699999999999997,387,-0.963,0.16899999999999998,0.22699999999999998,-2.3491277999999998,-3.380452200000001,11.745639,-140.70702564,-75.89401668000002,101.19584196
3.88,388,-0.971,0.175,0.24600000000000002,-1.432395,-4.583664,10.7716104,-140.51221992,-75.79088424,100.97811792
3.8899999999999997,389,-0.987,0.187,0.251,-0.6875496,-4.9847346,10.313244000000001,-140.33460294,-75.68775179999999,100.78904178
3.9,390,-1.0090000000000001,0.201,0.254,0.0,-4.0680017999999984,9.740286,-140.16271554,-75.56743062000002,100.61142480000001
3.9099999999999997,391,-1.02,0.217,0.257,0.6875496,-2.9793816000000004,9.0527364,-139.96218024,-75.4872165,100.4108895
3.92,392,-1.015,0.22699999999999998,0.264,1.5469866,-2.5210152000000003,8.3651868,-139.76737452,-75.41273196,100.22754294
3.9299999999999997,393,-1.012,0.233,0.261,1.8907614,-2.0053530000000004,7.3911582,-139.58402796,-75.34970658,100.05565554
3.94,394,-1.006,0.23199999999999998,0.251,2.291832,-0.5156622000000001,6.3025379999999975,-139.38922224,-75.30959952,99.88376814
3.9499999999999997,395,-1.006,0.226,0.242,2.6929026,1.432395,5.443101,-139.13139114,-75.24657413999998,99.64312578
3.96,396,-1.0070000000000001,0.217,0.23600000000000002,3.4950437999999995,3.0366774,4.2398892,-138.89647836,-75.24084456,99.4368609
3.9699999999999998,397,-1.002,0.209,0.231,3.7815228,3.8961144,3.0939732,-138.66729516,-75.25230372,99.24778476
3.98,398,-0.993,0.21,0.225,4.1825934,4.7555514,1.8334656000000005,-138.44957112000003,-75.27522203999997,99.0644382
3.9899999999999998,399,-0.99,0.213,0.221,5.1566220000000005,5.3858052,0.6875496,-138.23757666,-75.30959952,98.89828038
4.0,400,-0.986,0.213,0.221,6.4744254,5.5003968,-0.1718874,-138.00839346,-75.32678826,98.72639298
4.01,401,-0.978,0.209,0.22,7.6203414,5.72958,-1.0313244000000001,-137.80785816,-75.37262489999998,98.60034222
4.02,402,-0.9670000000000001,0.20800000000000002,0.214,8.193299399999999,5.958763200000001,-1.9480572,-137.6245116,-75.42992070000003,98.49720978
4.03,403,-0.961,0.207,0.207,8.9381448,6.0160589999999985,-2.6929026,-137.45262419999997,-75.49294608,98.41126608
4.04,404,-0.965,0.196,0.20199999999999999,9.568398599999998,5.3285094000000015,-3.8961144,-137.32084386,-75.56170104,98.3768886
4.05,405,-0.966,0.185,0.2,9.8548776,4.5263682,-4.5263682,-137.22917058000002,-75.61899684,98.38261818
4.06,406,-0.968,0.17600000000000002,0.198,9.5111028,3.8961144,-4.9847346,-137.17187478,-75.68202222,98.42272524
4.07,407,-0.965,0.17,0.191,8.9954406,3.7242269999999995,-5.3858052,-137.13176772000003,-75.74504759999998,98.47429146
4.08,408,-0.9640000000000001,0.168,0.188,7.5057497999999985,4.0680017999999984,-5.7868758000000025,-137.1088494,-75.81380256,98.53158726
4.09,409,-0.965,0.161,0.18600000000000005,6.130650599999999,4.4117766,-6.0160589999999985,-137.09739024,-75.88828709999999,98.58315348
4.1,410,-0.963,0.155,0.18100000000000002,5.3285094000000015,4.4690724,-6.0160589999999985,-137.1088494,-75.96850122000002,98.65190844
4.109999999999999,411,-0.96,0.14800000000000002,0.175,4.4117766,4.1252976000000015,-5.6722842,-137.11457898,-76.03725618000001,98.70347466
4.12,412,-0.955,0.14800000000000002,0.168,3.4377480000000005,3.7815228,-5.3858052,-137.13749730000004,-76.10028156,98.75504088
4.13,413,-0.96,0.14300000000000002,0.165,2.9793816000000004,3.6669312000000014,-5.1566220000000005,-137.15468604,-76.16330694,98.8066071
4.14,414,-0.9640000000000001,0.135,0.171,2.4064236,3.7242269999999995,-4.7555514,-137.16614520000002,-76.22060274,98.84098458
4.1499999999999995,415,-0.96,0.13,0.17300000000000001,1.2032118,3.380452200000001,-3.8961144,-137.26927763999998,-76.30081686,98.96130576
4.16,416,-0.958,0.129,0.16899999999999998,-0.1718874,2.86479,-3.0939732,-137.2807368,-76.34092392,98.96703534
4.17,417,-0.958,0.132,0.165,-1.2605076000000002,2.291832,-2.5210152000000003,-137.30365511999997,-76.37530140000001,98.97849449999998
4.18,418,-0.963,0.134,0.163,-1.9480572,1.9480572,-1.8334656000000005,-137.32657344,-76.39821972,98.97849449999998
4.1899999999999995,419,-0.971,0.136,0.168,-2.1772404,1.6042823999999998,-1.145916,-137.3380326,-76.42113803999997,98.96703534
4.2,420,-0.977,0.136,0.17600000000000002,-2.2345362,1.2032118,-0.572958,-137.51564958,-76.47843384000002,99.11600442
4.21,421,-0.975,0.14,0.17600000000000002,-2.6356068,0.6875496,0.0,-137.52137915999998,-76.48416342,99.09881568
4.22,422,-0.973,0.142,0.175,-3.0939732,0.057295800000000015,0.572958,-137.53283832,-76.47843384000002,99.07589736
4.2299999999999995,423,-0.9740000000000001,0.141,0.177,-3.4377480000000005,-0.286479,1.0313244000000001,-137.54429748,-76.46697467999998,99.05297904
4.24,424,-0.972,0.14400000000000002,0.182,-4.010706000000001,-0.4583664000000001,1.6042823999999998,-137.55002706,-76.45551551999998,99.01860156
4.25,425,-0.971,0.146,0.182,-4.5263682,-0.8594370000000001,2.2345362,-137.61305244,-76.43832678,99.03006072
4.26,426,-0.9740000000000001,0.147,0.188,-4.9274388,-1.4896908000000002,2.6929026,-137.6245116,-76.40967888,98.98995366
4.27,427,-0.9740000000000001,0.149,0.192,-5.6149884000000005,-2.291832,3.0366774,-137.6531595,-76.36957182,98.96703534
4.28,428,-0.9740000000000001,0.156,0.19,-6.0733548,-2.3491277999999998,3.2085647999999996,-137.68753697999998,-76.32946476,98.93265786
4.29,429,-0.9690000000000001,0.163,0.188,-5.9014674000000005,-2.1772404,3.3231564,-137.71045529999998,-76.28935770000002,98.8925508
4.3,430,-0.9640000000000001,0.166,0.187,-5.6149884000000005,-2.1199446,3.3231564,-137.72764404,-76.24925064,98.85817332
4.31,431,-0.9670000000000001,0.16399999999999998,0.18899999999999997,-5.443101,-1.9480572,3.3231564,-137.7391032,-76.20914358,98.8066071
4.32,432,-0.972,0.162,0.19399999999999998,-5.1566220000000005,-1.8907614,3.3231564,-137.74483278,-76.1747661,98.76077046
4.33,433,-0.975,0.165,0.198,-5.3858052,-2.5210152000000003,3.3231564,-137.7677511,-76.13465904,98.73212256
4.34,434,-0.973,0.16899999999999998,0.19899999999999998,-5.5576926,-3.2085647999999996,3.1512689999999997,-137.81931731999998,-76.0888224,98.72639298
4.35,435,-0.9690000000000001,0.174,0.193,-5.3858052,-2.86479,2.9220858,-137.85942438,-76.03725618000001,98.70920424
4.36,436,-0.971,0.179,0.187,-4.6982555999999995,-1.8334656000000005,2.6929026,-137.87661312,-76.00287870000002,98.68055634
4.37,437,-0.972,0.182,0.187,-3.9534102,-1.2605076000000002,2.4064236,-137.88234269999998,-75.97996038,98.64044928
4.38,438,-0.973,0.184,0.188,-3.2085647999999996,-0.9740286,1.7761698000000001,-137.88807228,-75.95704206,98.61753096
4.39,439,-0.9740000000000001,0.184,0.18899999999999997,-2.5210152000000003,-0.7448454000000001,1.2032118,-137.89953144,-75.9455829,98.60034222
4.3999999999999995,440,-0.9740000000000001,0.183,0.188,-1.8907614,-0.7448454000000001,0.7448454000000001,-137.79066942,-75.89974626,98.47429146
4.41,441,-0.971,0.18,0.187,-1.2605076000000002,-0.6302538000000001,0.286479,-137.81358774,-75.89401668000002,98.48575062
4.42,442,-0.971,0.17800000000000002,0.188,-0.7448454000000001,-0.6302538000000001,0.0,-137.83650605999998,-75.88828709999999,98.50293936
4.43,443,-0.971,0.179,0.19,-0.3437748,-0.6302538000000001,-0.4583664000000001,-137.87661312,-75.88828709999999,98.53731684
4.4399999999999995,444,-0.973,0.177,0.19,-0.057295800000000015,-0.5156622000000001,-0.8021411999999999,-137.91672018000003,-75.88828709999999,98.5774239
4.45,445,-0.973,0.174,0.191,0.2291832000000001,-0.3437748,-1.145916,-137.89953144,-75.87109836,98.56596474
4.46,446,-0.9740000000000001,0.17300000000000001,0.192,0.572958,-0.1718874,-1.432395,-137.9396385,-75.88255752,98.61180138
4.47,447,-0.9740000000000001,0.17,0.195,0.8021411999999999,0.057295800000000015,-1.6042823999999998,-137.97401598,-75.89401668000002,98.65763802
4.4799999999999995,448,-0.9740000000000001,0.168,0.196,1.0313244000000001,0.286479,-1.6615782,-138.00266388,-75.90547584,98.70347466
4.49,449,-0.973,0.166,0.19899999999999998,1.0313244000000001,0.11459160000000004,-1.7761698000000001,-138.04277094,-75.916935,98.75504088
4.5,450,-0.973,0.163,0.19699999999999998,0.8021411999999999,0.0,-1.7188740000000002,-138.19174002,-75.916935,98.90973954
4.51,451,-0.975,0.161,0.193,0.6875496,0.057295800000000015,-1.7761698000000001,-138.23757666,-75.93412373999998,98.96130576
4.52,452,-0.9740000000000001,0.161,0.19399999999999998,0.6875496,0.11459160000000004,-1.6042823999999998,-138.27195414,-75.9455829,99.0071424
4.53,453,-0.972,0.158,0.195,0.7448454000000001,0.057295800000000015,-1.432395,-138.30633161999998,-75.95704206,99.04724946
4.54,454,-0.972,0.155,0.195,0.40107059999999994,0.11459160000000004,-1.2032118,-138.33497952,-75.96277164,99.08162694
4.55,455,-0.972,0.156,0.19399999999999998,0.2291832000000001,0.4583664000000001,-0.9740286,-138.50686692,-75.9742308,99.25924392
4.56,456,-0.9740000000000001,0.157,0.191,0.1718874,0.7448454000000001,-0.8594370000000001,-138.5125965,-75.98568996,99.2649735
4.57,457,-0.975,0.155,0.192,0.40107059999999994,0.9167328000000001,-0.6302538000000001,-138.50113734,-75.99714911999997,99.25924392
4.58,458,-0.973,0.153,0.18899999999999997,0.1718874,0.8021411999999999,-0.40107059999999994,-138.48967818,-76.00287870000002,99.24778476
4.59,459,-0.973,0.153,0.19,-0.1718874,0.6875496,-0.1718874,-138.48394860000002,-76.01433786,99.23632559999999
4.6,460,-0.975,0.152,0.193,-0.5156622000000001,0.7448454000000001,0.057295800000000015,-138.67875432,-76.03725618000001,99.42540174
4.61,461,-0.973,0.152,0.195,-0.9167328000000001,0.8594370000000001,0.40107059999999994,-138.65010642,-76.03725618000001,99.38529468
4.62,462,-0.9690000000000001,0.157,0.191,-1.4896908000000002,0.8594370000000001,0.8594370000000001,-138.61572894,-76.03725618000001,99.33372846
4.63,463,-0.97,0.16,0.187,-1.8334656000000005,0.9740286,0.9740286,-138.58135146,-76.03725618000001,99.27070308
4.64,464,-0.971,0.161,0.18600000000000005,-1.8907614,1.0886202,1.0886202,-138.53551481999997,-76.03725618000001,99.2076777
4.6499999999999995,465,-0.971,0.162,0.187,-1.8334656000000005,0.9167328000000001,1.2605076000000002,-138.48967818,-76.03725618000001,99.14465232
4.66,466,-0.97,0.162,0.18600000000000005,-1.8907614,0.6875496,1.3750992,-138.44957112000003,-76.03152659999998,99.08162694
4.67,467,-0.9690000000000001,0.163,0.182,-2.0053530000000004,0.40107059999999994,1.432395,-138.41519364,-76.02579702,99.02433114
4.68,468,-0.97,0.165,0.182,-2.0626488000000003,0.2291832000000001,1.432395,-138.38654574,-76.02006744,98.97276492
4.6899999999999995,469,-0.97,0.16899999999999998,0.185,-1.9480572,0.2291832000000001,1.3178034,-138.36362742,-76.01433786,98.92692828
4.7,470,-0.9670000000000001,0.171,0.18600000000000005,-1.7761698000000001,0.0,1.145916,-138.26049498,-75.98568996,98.8066071
4.71,471,-0.9670000000000001,0.172,0.184,-1.4896908000000002,-0.11459160000000004,0.8021411999999999,-138.2547654,-75.97996038,98.78368878
4.72,472,-0.9670000000000001,0.171,0.184,-1.2032118,-0.11459160000000004,0.7448454000000001,-138.24903582000002,-75.9742308,98.76650004
4.7299999999999995,473,-0.9690000000000001,0.171,0.187,-1.2032118,-0.11459160000000004,0.572958,-138.24330623999998,-75.96850122000002,98.7493113
4.74,474,-0.97,0.171,0.19,-1.145916,-0.11459160000000004,0.3437748,-138.24903582000002,-75.96277164,98.74358172
4.75,475,-0.971,0.16899999999999998,0.19,-1.2032118,0.0,0.11459160000000004,-138.23184708000002,-75.93985332,98.70920424
4.76,476,-0.97,0.16899999999999998,0.18899999999999997,-1.3178034,-0.11459160000000004,0.0,-138.24903582000002,-75.93985332,98.71493382
4.77,477,-0.9690000000000001,0.16899999999999998,0.187,-1.2605076000000002,-0.2291832000000001,-0.057295800000000015,-138.27195414,-75.93412373999998,98.7206634
4.78,478,-0.9690000000000001,0.168,0.18600000000000005,-1.2032118,-0.286479,-0.2291832000000001,-138.30060204,-75.93412373999998,98.73785214
4.79,479,-0.97,0.17,0.18600000000000005,-1.0313244000000001,-0.2291832000000001,-0.3437748,-138.32924994,-75.93412373999998,98.75504088
4.8,480,-0.972,0.168,0.18600000000000005,-0.8021411999999999,-0.057295800000000015,-0.40107059999999994,-138.31779078,-75.93412373999998,98.74358172
4.81,481,-0.971,0.16399999999999998,0.19,-0.6302538000000001,-0.11459160000000004,-0.40107059999999994,-138.3407091,-75.93412373999998,98.76077046
4.82,482,-0.97,0.16399999999999998,0.18600000000000005,-0.6302538000000001,-0.2291832000000001,-0.4583664000000001,-138.36935699999998,-75.93985332,98.77795919999998
4.83,483,-0.9690000000000001,0.163,0.187,-0.7448454000000001,-0.11459160000000004,-0.4583664000000001,-138.39800490000002,-75.93985332,98.80087752
4.84,484,-0.97,0.163,0.18600000000000005,-0.8594370000000001,0.0,-0.40107059999999994,-138.41519364,-75.93985332,98.81233668
4.85,485,-0.972,0.163,0.188,-0.9740286,0.0,-0.3437748,-138.48394860000002,-75.9455829,98.86963248
4.86,486,-0.972,0.161,0.19,-1.3178034,-0.3437748,-0.2291832000000001,-138.51832608,-75.9455829,98.88682122
4.87,487,-0.972,0.163,0.188,-1.6042823999999998,-0.572958,-0.286479,-138.55843313999998,-75.9455829,98.91546912
4.88,488,-0.968,0.165,0.185,-1.432395,-0.286479,-0.286479,-138.59281062,-75.9455829,98.93265786
4.89,489,-0.966,0.163,0.184,-1.2032118,-0.057295800000000015,-0.286479,-138.61572894,-75.9455829,98.94411702
4.8999999999999995,490,-0.9670000000000001,0.159,0.187,-0.7448454000000001,-0.11459160000000004,-0.057295800000000015,-138.73032054,-75.95704206,99.04724946
4.91,491,-0.971,0.154,0.193,-0.8021411999999999,-0.2291832000000001,0.0,-138.74177969999997,-75.95131248,99.05297904
4.92,492,-0.9740000000000001,0.155,0.196,-1.3178034,-0.4583664000000001,0.286479,-138.75896844,-75.9455829,99.05870862
4.93,493,-0.976,0.157,0.198,-1.9480572,-1.2032118,0.5156622000000001,-138.7990755,-75.93412373999998,99.07589736
4.9399999999999995,494,-0.9740000000000001,0.159,0.193,-2.3491277999999998,-1.2032118,0.6302538000000001,-138.83345298,-75.92266457999997,99.08735652
4.95,495,-0.972,0.162,0.18899999999999997,-2.291832,-0.6875496,0.8594370000000001,-138.83918255999998,-75.91120542,99.07589736
4.96,496,-0.972,0.165,0.18600000000000005,-1.8334656000000005,-0.286479,0.9167328000000001,-138.83918255999998,-75.89974626,99.05297904
4.97,497,-0.973,0.16699999999999998,0.187,-1.6615782,-0.11459160000000004,0.8021411999999999,-138.83918255999998,-75.89401668000002,99.03006072
4.9799999999999995,498,-0.973,0.16699999999999998,0.188,-1.432395,-0.057295800000000015,0.8021411999999999,-138.82772340000002,-75.88828709999999,99.0071424
4.99,499,-0.973,0.166,0.191,-1.2605076000000002,-0.057295800000000015,0.8021411999999999,-138.82199382,-75.88255752,98.98422408
5.0,500,-0.973,0.166,0.191,-1.3750992,-0.057295800000000015,0.8594370000000001,-138.78188676,-75.87109836,98.93265786
5.01,501,-0.975,0.16699999999999998,0.193,-1.2605076000000002,-0.11459160000000004,0.7448454000000001,-138.77615717999998,-75.86536878,98.90973954
5.02,502,-0.975,0.16899999999999998,0.192,-1.145916,0.0,0.7448454000000001,-138.76469802000003,-75.8596392,98.88682122
5.03,503,-0.972,0.17,0.19,-1.0886202,0.057295800000000015,0.572958,-138.75323885999998,-75.8596392,98.86963248
5.04,504,-0.971,0.16899999999999998,0.18899999999999997,-0.8594370000000001,0.11459160000000004,0.40107059999999994,-138.74750928,-75.85390962,98.85244374
5.05,505,-0.971,0.168,0.19,-0.8594370000000001,0.057295800000000015,0.2291832000000001,-138.70167264,-75.83672088,98.79514794
5.06,506,-0.9690000000000001,0.16699999999999998,0.191,-0.7448454000000001,0.057295800000000015,0.11459160000000004,-138.70167264,-75.83672088,98.78941836
5.07,507,-0.97,0.16899999999999998,0.191,-0.6875496,0.0,0.057295800000000015,-138.70740222,-75.83672088,98.78941836
5.08,508,-0.968,0.168,0.18899999999999997,-0.7448454000000001,0.057295800000000015,-0.057295800000000015,-138.7131318,-75.83672088,98.78941836
5.09,509,-0.97,0.168,0.18899999999999997,-0.6302538000000001,0.057295800000000015,-0.11459160000000004,-138.72459096,-75.83672088,98.78941836
5.1,510,-0.971,0.16699999999999998,0.19,-0.6875496,0.0,-0.1718874,-138.66729516,-75.8309913,98.72639298
5.11,511,-0.972,0.166,0.19,-0.8021411999999999,0.0,-0.2291832000000001,-138.67875432,-75.8309913,98.73212256
5.12,512,-0.97,0.166,0.188,-0.8594370000000001,0.11459160000000004,-0.2291832000000001,-138.69594306000002,-75.83672088,98.73785214
5.13,513,-0.9690000000000001,0.166,0.188,-0.9740286,0.11459160000000004,-0.1718874,-138.70740222,-75.83672088,98.73785214
5.14,514,-0.97,0.16399999999999998,0.18600000000000005,-0.9740286,0.286479,-0.2291832000000001,-138.7131318,-75.84245046,98.73785214
5.1499999999999995,515,-0.972,0.166,0.187,-0.8021411999999999,0.5156622000000001,-0.3437748,-138.69021347999998,-75.84818004,98.70347466
5.16,516,-0.972,0.166,0.188,-0.40107059999999994,0.6302538000000001,-0.40107059999999994,-138.69021347999998,-75.85390962,98.69774508
5.17,517,-0.971,0.165,0.185,-0.3437748,0.572958,-0.40107059999999994,-138.69021347999998,-75.8596392,98.69774508
5.18,518,-0.971,0.163,0.18600000000000005,-0.40107059999999994,0.40107059999999994,-0.3437748,-138.69594306000002,-75.86536878,98.6920155
5.1899999999999995,519,-0.972,0.161,0.191,-0.6875496,0.057295800000000015,-0.286479,-138.70740222,-75.87109836,98.70347466
5.2,520,-0.972,0.16,0.192,-1.0313244000000001,-0.057295800000000015,-0.2291832000000001,-138.80480508,-75.87109836,98.78941836
5.21,521,-0.972,0.161,0.191,-1.2032118,0.0,-0.057295800000000015,-138.82199382,-75.87109836,98.78941836
5.22,522,-0.971,0.162,0.191,-1.4896908000000002,0.0,0.0,-138.83918255999998,-75.87109836,98.78941836
5.2299999999999995,523,-0.97,0.163,0.188,-1.432395,0.0,0.11459160000000004,-138.85064172,-75.87109836,98.78941836
5.24,524,-0.971,0.16399999999999998,0.188,-1.5469866,0.11459160000000004,0.11459160000000004,-138.85637130000003,-75.87109836,98.78368878
5.25,525,-0.97,0.16399999999999998,0.187,-1.432395,0.286479,0.1718874,-138.82772340000002,-75.87682794,98.73785214
5.26,526,-0.97,0.162,0.188,-1.4896908000000002,0.0,0.1718874,-138.83918255999998,-75.87109836,98.73212256
5.27,527,-0.97,0.163,0.187,-1.6615782,-0.286479,0.2291832000000001,-138.85637130000003,-75.87109836,98.73212256
5.28,528,-0.971,0.16399999999999998,0.187,-1.6615782,-0.2291832000000001,0.286479,-138.87356004,-75.86536878,98.73212256
5.29,529,-0.97,0.166,0.187,-1.432395,-0.11459160000000004,0.3437748,-138.87928962,-75.8596392,98.72639298
5.3,530,-0.9690000000000001,0.166,0.188,-1.2605076000000002,-0.11459160000000004,0.286479,-138.85064172,-75.85390962,98.68055634
5.31,531,-0.97,0.165,0.184,-1.145916,-0.2291832000000001,0.1718874,-138.86210088,-75.85390962,98.68055634
5.32,532,-0.972,0.166,0.183,-1.0886202,-0.3437748,0.2291832000000001,-138.87356004,-75.84818004,98.68055634
5.33,533,-0.972,0.166,0.192,-0.9167328000000001,-0.2291832000000001,0.286479,-138.87928962,-75.84245046,98.68055634
5.34,534,-0.9740000000000001,0.165,0.192,-1.145916,-0.057295800000000015,0.11459160000000004,-138.89074878,-75.84245046,98.68055634
5.35,535,-0.973,0.163,0.191,-1.145916,0.0,0.057295800000000015,-138.8850192,-75.84245046,98.6633676
5.36,536,-0.973,0.165,0.19,-1.2605076000000002,-0.286479,0.1718874,-138.90220793999998,-75.83672088,98.6633676
5.37,537,-0.97,0.165,0.188,-1.2605076000000002,-0.40107059999999994,0.057295800000000015,-138.92512626,-75.83672088,98.67482676
5.38,538,-0.97,0.166,0.188,-0.1718874,-0.40107059999999994,0.0,-138.93658541999997,-75.8309913,98.68628592
5.39,539,-0.97,0.16699999999999998,0.188,0.0,-0.3437748,0.057295800000000015,-138.94231499999998,-75.8309913,98.6920155
5.3999999999999995,540,-0.9690000000000001,0.16399999999999998,0.19,0.1718874,-0.2291832000000001,0.057295800000000015,-138.9136671,-75.81380256,98.6633676
5.41,541,-0.9690000000000001,0.16399999999999998,0.188,0.2291832000000001,-0.1718874,0.11459160000000004,-138.9136671,-75.81380256,98.6633676
5.42,542,-0.97,0.163,0.18600000000000005,0.2291832000000001,-0.3437748,0.0,-138.91939668,-75.81380256,98.67482676
5.43,543,-0.971,0.16399999999999998,0.187,0.0,0.0,0.0,-138.91939668,-75.81380256,98.67482676
5.4399999999999995,544,-0.973,0.163,0.18899999999999997,0.0,0.0,0.11459160000000004,-138.9136671,-75.80807297999998,98.66909718
5.45,545,-0.97,0.166,0.191,-0.3437748,-0.2291832000000001,0.1718874,-138.89074878,-75.79661381999998,98.64044928
5.46,546,-0.971,0.165,0.19,-0.572958,-0.40107059999999994,0.057295800000000015,-138.90220793999998,-75.79661381999998,98.65190844
5.47,547,-0.972,0.16699999999999998,0.188,-0.5156622000000001,0.0,0.0,-138.90793752,-75.79661381999998,98.65190844
5.4799999999999995,548,-0.9690000000000001,0.165,0.18899999999999997,-0.2291832000000001,0.40107059999999994,0.0,-138.90220793999998,-75.79661381999998,98.64044928
5.49,549,-0.968,0.161,0.19,-0.11459160000000004,0.5156622000000001,0.0,-138.8850192,-75.80234340000001,98.62326054
5.5,550,-0.97,0.16,0.193,-0.11459160000000004,0.057295800000000015,0.1718874,-138.98242206,-75.81380256,98.71493382
5.51,551,-0.9740000000000001,0.159,0.196,-0.6875496,-0.2291832000000001,0.2291832000000001,-138.98815164,-75.80807297999998,98.71493382
5.52,552,-0.973,0.162,0.196,-1.145916,-0.9740286,0.286479,-139.01679954000002,-75.79661381999998,98.73212256
5.53,553,-0.971,0.163,0.192,-1.2605076000000002,-0.6875496,0.40107059999999994,-139.03398828,-75.79088424,98.73785214
5.54,554,-0.973,0.16399999999999998,0.188,-0.8021411999999999,0.0,0.572958,-139.02825869999998,-75.78515466,98.7206634
5.55,555,-0.9740000000000001,0.165,0.187,-0.40107059999999994,0.286479,0.6875496,-138.94231499999998,-75.79088424,98.6347197
5.56,556,-0.973,0.16699999999999998,0.187,-0.3437748,0.286479,0.6302538000000001,-138.91939668,-75.78515466,98.6060718
5.57,557,-0.9740000000000001,0.16699999999999998,0.188,-0.5156622000000001,0.40107059999999994,0.572958,-138.89647836,-75.78515466,98.5774239
5.58,558,-0.9740000000000001,0.16899999999999998,0.187,-0.2291832000000001,0.40107059999999994,0.4583664000000001,-138.87356004,-75.78515466,98.548776
5.59,559,-0.973,0.17,0.18899999999999997,0.0,0.5156622000000001,0.3437748,-138.85064172,-75.79088424,98.5201281
5.6,560,-0.9740000000000001,0.17,0.18899999999999997,0.2291832000000001,0.40107059999999994,0.2291832000000001,-138.7131318,-75.78515466,98.38834776
5.61,561,-0.975,0.16699999999999998,0.191,0.3437748,0.572958,0.1718874,-138.68448389999998,-75.78515466,98.36542944
5.62,562,-0.973,0.16699999999999998,0.19,0.3437748,0.6875496,0.057295800000000015,-138.66156558,-75.79088424,98.34251112
5.63,563,-0.972,0.16699999999999998,0.19,0.5156622000000001,0.5156622000000001,0.057295800000000015,-138.63864726,-75.79661381999998,98.32532238000002
5.64,564,-0.971,0.16699999999999998,0.18899999999999997,0.4583664000000001,0.572958,0.0,-138.61572894,-75.79661381999998,98.30813364
5.6499999999999995,565,-0.9690000000000001,0.166,0.188,0.40107059999999994,0.5156622000000001,0.0,-138.52978524,-75.80234340000001,98.22791952
5.66,566,-0.9670000000000001,0.166,0.188,0.40107059999999994,0.40107059999999994,0.0,-138.51832608,-75.80807297999998,98.21646036
5.67,567,-0.9690000000000001,0.168,0.18899999999999997,0.2291832000000001,0.286479,-0.1718874,-138.5125965,-75.80807297999998,98.21646036
5.68,568,-0.97,0.166,0.18899999999999997,0.2291832000000001,0.286479,-0.2291832000000001,-138.50686692,-75.81380256,98.21646036
5.6899999999999995,569,-0.9690000000000001,0.165,0.187,0.1718874,0.1718874,-0.2291832000000001,-138.50686692,-75.81380256,98.21646036
5.7,570,-0.9690000000000001,0.165,0.18600000000000005,0.0,0.11459160000000004,-0.286479,-138.44957112000003,-75.84245046,98.16489414
5.71,571,-0.97,0.163,0.18600000000000005,0.057295800000000015,0.0,-0.2291832000000001,-138.4553007,-75.84245046,98.17062372
5.72,572,-0.971,0.165,0.18600000000000005,0.0,0.0,-0.1718874,-138.46675986,-75.84245046,98.17635329999999
5.7299999999999995,573,-0.972,0.165,0.187,0.0,0.057295800000000015,-0.1718874,-138.46675986,-75.84818004,98.18208288
5.74,574,-0.972,0.166,0.187,0.11459160000000004,0.2291832000000001,-0.1718874,-138.46675986,-75.84818004,98.17635329999999
5.75,575,-0.971,0.165,0.185,0.057295800000000015,0.4583664000000001,-0.1718874,-138.37508658,-75.87682794,98.09040960000002
5.76,576,-0.97,0.16399999999999998,0.184,0.057295800000000015,0.40107059999999994,-0.2291832000000001,-138.36935699999998,-75.88255752,98.08468002
5.77,577,-0.971,0.16399999999999998,0.185,0.0,0.3437748,-0.286479,-138.36935699999998,-75.88255752,98.08468002
5.78,578,-0.972,0.16399999999999998,0.187,-0.057295800000000015,0.11459160000000004,-0.11459160000000004,-138.36935699999998,-75.88828709999999,98.08468002
5.79,579,-0.97,0.163,0.18899999999999997,-0.11459160000000004,-0.1718874,-0.1718874,-138.38081616,-75.88828709999999,98.09613918
5.8,580,-0.97,0.162,0.19,-0.3437748,-0.057295800000000015,0.0,-138.44957112000003,-75.89401668000002,98.15916456
5.81,581,-0.971,0.163,0.19,-0.40107059999999994,-0.057295800000000015,0.11459160000000004,-138.44957112000003,-75.89401668000002,98.15343498
5.82,582,-0.971,0.165,0.19,-0.40107059999999994,0.057295800000000015,0.11459160000000004,-138.44384154,-75.88828709999999,98.1477054
5.83,583,-0.972,0.165,0.19,-0.4583664000000001,0.1718874,0.057295800000000015,-138.44384154,-75.89401668000002,98.13624624
5.84,584,-0.971,0.165,0.187,-0.3437748,0.0,0.1718874,-138.44384154,-75.88828709999999,98.13051665999998
5.85,585,-0.971,0.166,0.187,-0.2291832000000001,-0.286479,0.2291832000000001,-138.42092322,-75.88255752,98.10759834
5.86,586,-0.973,0.166,0.18600000000000005,-0.3437748,-0.2291832000000001,0.11459160000000004,-138.42665280000003,-75.87682794,98.11332792
5.87,587,-0.972,0.16699999999999998,0.187,-0.11459160000000004,-0.057295800000000015,0.1718874,-138.42665280000003,-75.87682794,98.10759834
5.88,588,-0.9740000000000001,0.168,0.188,-0.057295800000000015,-0.11459160000000004,0.1718874,-138.42092322,-75.87682794,98.10759834
5.89,589,-0.972,0.168,0.187,0.0,-0.1718874,0.1718874,-138.42092322,-75.87109836,98.10759834
5.8999999999999995,590,-0.971,0.16699999999999998,0.18600000000000005,0.0,-0.2291832000000001,0.1718874,-138.30060204,-75.87682794,97.99300674
5.91,591,-0.972,0.168,0.18600000000000005,0.057295800000000015,-0.11459160000000004,0.057295800000000015,-138.30060204,-75.87682794,97.99300674
5.92,592,-0.972,0.168,0.188,0.11459160000000004,-0.057295800000000015,0.057295800000000015,-138.30060204,-75.87109836,97.99300674
5.93,593,-0.972,0.166,0.188,0.1718874,-0.11459160000000004,0.057295800000000015,-138.30060204,-75.87109836,97.99300674
5.9399999999999995,594,-0.971,0.165,0.187,0.0,-0.2291832000000001,0.0,-138.3120612,-75.87109836,97.99873632
5.95,595,-0.9690000000000001,0.16699999999999998,0.185,0.0,-0.40107059999999994,0.0,-138.23184708000002,-75.87109836,97.92998136
5.96,596,-0.9690000000000001,0.16699999999999998,0.184,0.057295800000000015,-0.4583664000000001,0.0,-138.24330623999998,-75.87109836,97.94144052
5.97,597,-0.968,0.16699999999999998,0.183,0.2291832000000001,-0.40107059999999994,0.0,-138.2547654,-75.86536878,97.95289968
5.9799999999999995,598,-0.97,0.16699999999999998,0.18600000000000005,0.4583664000000001,-0.1718874,-0.057295800000000015,-138.26049498,-75.86536878,97.96435884
5.99,599,-0.972,0.168,0.185,0.6302538000000001,-0.1718874,-0.1718874,-138.26049498,-75.86536878,97.975818
6.0,600,-0.973,0.166,0.185,0.8021411999999999,-0.1718874,-0.2291832000000001,-138.23184708000002,-75.87682794,97.95289968
6.01,601,-0.973,0.166,0.183,0.7448454000000001,-0.1718874,-0.286479,-138.24330623999998,-75.87682794,97.97008842
6.02,602,-0.975,0.166,0.184,0.6875496,-0.057295800000000015,-0.1718874,-138.24330623999998,-75.87682794,97.98154758
6.03,603,-0.973,0.16699999999999998,0.188,0.4583664000000001,-0.286479,-0.11459160000000004,-138.24903582000002,-75.87682794,97.99300674
6.04,604,-0.972,0.166,0.187,0.286479,-0.40107059999999994,-0.1718874,-138.26049498,-75.87109836,98.01019548
6.05,605,-0.9690000000000001,0.16899999999999998,0.184,0.3437748,-0.1718874,-0.286479,-138.18028085999998,-75.87109836,97.92998136
6.06,606,-0.9690000000000001,0.16899999999999998,0.183,0.8021411999999999,0.0,-0.2291832000000001,-138.18028085999998,-75.87682794,97.94144052
6.07,607,-0.97,0.163,0.187,1.0886202,-0.057295800000000015,-0.2291832000000001,-138.18028085999998,-75.87682794,97.95289968
6.08,608,-0.972,0.161,0.193,1.0313244000000001,-0.2291832000000001,-0.1718874,-138.18028085999998,-75.87682794,97.96435884
6.09,609,-0.976,0.161,0.195,0.5156622000000001,-0.9167328000000001,-0.057295800000000015,-138.20319918,-75.87109836,97.99300674
6.1,610,-0.976,0.162,0.196,-0.057295800000000015,-1.3178034,0.0,-138.2834133,-75.85390962,98.07322086
6.11,611,-0.975,0.16399999999999998,0.19,-0.286479,-0.9740286,0.057295800000000015,-138.3120612,-75.84818004,98.09613918
6.12,612,-0.972,0.166,0.18600000000000005,0.057295800000000015,-0.3437748,0.2291832000000001,-138.3120612,-75.84245046,98.10186876
6.13,613,-0.972,0.16899999999999998,0.184,0.4583664000000001,-0.057295800000000015,0.2291832000000001,-138.30060204,-75.84245046,98.09613918
6.14,614,-0.973,0.171,0.185,0.572958,-0.286479,0.057295800000000015,-138.30060204,-75.83672088,98.10186876
6.15,615,-0.972,0.17,0.185,0.5156622000000001,-0.2291832000000001,0.0,-138.20319918,-75.84245046,98.01592506
6.16,616,-0.973,0.17,0.184,0.6875496,-0.1718874,-0.11459160000000004,-138.20892876,-75.84245046,98.02165464
6.17,617,-0.972,0.17,0.185,0.6302538000000001,-0.286479,-0.1718874,-138.21465834,-75.84245046,98.03884338
6.18,618,-0.973,0.16899999999999998,0.188,0.6875496,-0.40107059999999994,-0.2291832000000001,-138.22611750000002,-75.84245046,98.05603212
6.1899999999999995,619,-0.973,0.16699999999999998,0.18899999999999997,0.7448454000000001,-0.286479,-0.3437748,-138.23757666,-75.84245046,98.07895044
6.2,620,-0.972,0.16899999999999998,0.188,0.6302538000000001,-0.286479,-0.40107059999999994,-138.21465834,-75.83672088,98.06749128
6.21,621,-0.97,0.168,0.188,0.6875496,-0.286479,-0.4583664000000001,-138.23184708000002,-75.83672088,98.09040960000002
6.22,622,-0.968,0.16699999999999998,0.187,0.6302538000000001,-0.40107059999999994,-0.572958,-138.2547654,-75.84245046,98.1190575
6.2299999999999995,623,-0.968,0.16699999999999998,0.187,0.8594370000000001,-0.5156622000000001,-0.572958,-138.27768372,-75.84245046,98.15343498
6.24,624,-0.9690000000000001,0.16699999999999998,0.187,0.4583664000000001,-0.057295800000000015,-0.572958,-138.29487246000002,-75.84245046,98.17635329999999
6.25,625,-0.9690000000000001,0.16399999999999998,0.188,0.3437748,0.0,-0.572958,-138.32924994,-75.85390962,98.21073078
6.26,626,-0.9690000000000001,0.166,0.188,0.3437748,0.0,-0.572958,-138.3407091,-75.85390962,98.22791952
6.27,627,-0.97,0.16399999999999998,0.188,0.286479,0.0,-0.572958,-138.35789784,-75.8596392,98.25083784
6.28,628,-0.973,0.163,0.18600000000000005,0.2291832000000001,0.057295800000000015,-0.4583664000000001,-138.36362742,-75.86536878,98.262297
6.29,629,-0.972,0.165,0.187,0.40107059999999994,0.0,-0.40107059999999994,-138.37508658,-75.86536878,98.27375616
6.3,630,-0.973,0.165,0.18600000000000005,0.40107059999999994,0.057295800000000015,-0.286479,-138.3407091,-75.88255752,98.24510826
6.31,631,-0.976,0.166,0.18600000000000005,0.4583664000000001,0.11459160000000004,-0.40107059999999994,-138.34643868,-75.88255752,98.25656742
6.32,632,-0.976,0.16699999999999998,0.18600000000000005,0.7448454000000001,0.057295800000000015,-0.5156622000000001,-138.35216825999998,-75.88828709999999,98.26802658
6.33,633,-0.9740000000000001,0.166,0.184,0.9740286,0.0,-0.572958,-138.35789784,-75.89401668000002,98.28521532
6.34,634,-0.971,0.16399999999999998,0.185,0.6875496,0.11459160000000004,-0.40107059999999994,-138.35789784,-75.89401668000002,98.29667448
6.35,635,-0.971,0.161,0.188,0.4583664000000001,0.0,-0.2291832000000001,-138.40946406,-75.90547584,98.3482407
6.36,636,-0.972,0.162,0.19,0.11459160000000004,0.0,-0.1718874,-138.41519364,-75.90547584,98.35397028
6.37,637,-0.971,0.161,0.191,-0.057295800000000015,0.0,0.0,-138.41519364,-75.90547584,98.35397028
6.38,638,-0.9690000000000001,0.162,0.191,-0.40107059999999994,0.0,0.057295800000000015,-138.41519364,-75.90547584,98.35397028
6.39,639,-0.9690000000000001,0.165,0.188,-0.4583664000000001,0.1718874,0.057295800000000015,-138.40946406,-75.90547584,98.34251112
6.4,640,-0.9690000000000001,0.168,0.19,-0.286479,0.3437748,0.11459160000000004,-138.38081616,-75.88255752,98.30813364
6.41,641,-0.9690000000000001,0.16699999999999998,0.191,-0.1718874,0.286479,0.11459160000000004,-138.36935699999998,-75.88255752,98.29667448
6.42,642,-0.971,0.166,0.19,-0.2291832000000001,0.11459160000000004,0.1718874,-138.36362742,-75.88255752,98.2909449
6.43,643,-0.972,0.166,0.19,-0.2291832000000001,0.057295800000000015,0.1718874,-138.35789784,-75.88255752,98.27948574
6.4399999999999995,644,-0.971,0.166,0.19,-0.11459160000000004,0.11459160000000004,0.2291832000000001,-138.34643868,-75.88255752,98.26802658
6.45,645,-0.97,0.16699999999999998,0.19,-0.2291832000000001,0.057295800000000015,0.1718874,-138.31779078,-75.87109836,98.23937868
6.46,646,-0.971,0.168,0.188,-0.11459160000000004,0.057295800000000015,0.057295800000000015,-138.31779078,-75.87109836,98.2336491
6.47,647,-0.973,0.168,0.185,0.0,0.11459160000000004,0.0,-138.3120612,-75.87109836,98.22791952
