TimeStamp(s),FrameCounter,AccX,AccY,AccZ,GyrX,GyrY,GyrZ,EulerX,EulerY,EulerZ
0.01,1,0.064,-0.997,0.13699999999999998,0.286479,0.3437748,0.2291832000000001,96.12516366,4.0393539,14.444271179999998
0.02,2,0.063,-1.0,0.138,0.11459160000000004,0.3437748,0.057295800000000015,96.12516366,4.0393539,14.450000759999998
0.03,3,0.063,-1.001,0.141,0.1718874,0.1718874,0.0,96.13089324,4.0393539,14.450000759999998
0.04,4,0.064,-1.001,0.141,0.057295800000000015,0.057295800000000015,-0.11459160000000004,96.13089324,4.0393539,14.450000759999998
0.05,5,0.065,-0.998,0.142,0.057295800000000015,-0.057295800000000015,-0.057295800000000015,96.30278064,4.04508348,14.42135286
0.060000000000000005,6,0.064,-0.998,0.142,0.0,-0.2291832000000001,-0.11459160000000004,96.30278064,4.04508348,14.42135286
0.06999999999999999,7,0.063,-0.997,0.14300000000000002,0.11459160000000004,-0.286479,0.0,96.30278064,4.04508348,14.41562328
0.08,8,0.064,-0.997,0.146,0.1718874,-0.1718874,0.0,96.30278064,4.04508348,14.41562328
0.09,9,0.061,-0.9990000000000001,0.149,0.1718874,-0.11459160000000004,0.0,96.30851022,4.04508348,14.41562328
0.09999999999999999,10,0.06,-1.001,0.151,0.11459160000000004,-0.1718874,-0.057295800000000015,96.5147751,3.99351726,14.381245800000002
0.11,11,0.06,-1.002,0.15,0.1718874,-0.1718874,0.0,96.5147751,3.99351726,14.37551622
0.12,12,0.059000000000000004,-1.001,0.152,0.0,-0.2291832000000001,-0.057295800000000015,96.52050468,3.99351726,14.37551622
0.13,13,0.059000000000000004,-0.9990000000000001,0.152,0.0,-0.286479,0.0,96.5147751,3.99924684,14.36978664
0.14,14,0.06,-0.996,0.152,-0.1718874,-0.1718874,0.057295800000000015,96.5147751,3.99351726,14.36978664
0.15000000000000002,15,0.059000000000000004,-0.993,0.154,-0.3437748,-0.2291832000000001,0.11459160000000004,96.56634132,3.9820581,14.35832748
0.16,16,0.06,-0.993,0.154,-0.6302538000000001,-0.11459160000000004,0.1718874,96.56061174,3.9820581,14.35832748
0.17,17,0.059000000000000004,-0.9940000000000001,0.152,-0.5156622000000001,-0.057295800000000015,0.11459160000000004,96.55488216,3.9820581,14.35832748
0.18000000000000002,18,0.059000000000000004,-0.997,0.152,-0.40107059999999994,0.0,0.1718874,96.54915258,3.97632852,14.35832748
0.19,19,0.06,-0.998,0.154,-0.286479,0.11459160000000004,0.286479,96.543423,3.97632852,14.35832748
0.2,20,0.061,-1.0,0.155,-0.3437748,0.057295800000000015,0.286479,96.6007188,3.95913978,14.34686832
0.21000000000000002,21,0.061,-1.0,0.15,-0.2291832000000001,0.11459160000000004,0.3437748,96.6007188,3.95913978,14.34686832
0.22,22,0.063,-1.004,0.147,-0.40107059999999994,0.2291832000000001,0.3437748,96.59498922000002,3.9534102,14.3525979
0.23,23,0.065,-1.002,0.147,-0.3437748,0.11459160000000004,0.40107059999999994,96.58925964,3.94768062,14.3525979
0.24000000000000002,24,0.065,-1.001,0.14800000000000002,-0.2291832000000001,-0.057295800000000015,0.3437748,96.58925964,3.94195104,14.3525979
0.25,25,0.061,-1.001,0.15,-0.1718874,-0.11459160000000004,0.40107059999999994,96.63509628,3.9247623,14.34113874
0.26,26,0.057,-1.001,0.15,-0.286479,-0.11459160000000004,0.2291832000000001,96.6293667,3.9247623,14.34113874
0.27,27,0.057,-0.9990000000000001,0.15,-0.5156622000000001,0.11459160000000004,0.057295800000000015,96.62363712,3.9247623,14.34113874
0.28,28,0.06,-0.996,0.147,-0.6302538000000001,0.286479,0.0,96.61790754,3.9190327200000006,14.34113874
0.29000000000000004,29,0.063,-0.993,0.147,-0.5156622000000001,0.1718874,0.0,96.61217795999998,3.9190327200000006,14.34686832
0.3,30,0.064,-0.991,0.147,-0.40107059999999994,0.286479,0.11459160000000004,96.64082586,3.9247623,14.34686832
0.31,31,0.064,-0.99,0.146,-0.40107059999999994,0.2291832000000001,0.2291832000000001,96.63509628,3.9190327200000006,14.34686832
0.32,32,0.064,-0.9890000000000001,0.14400000000000002,-0.2291832000000001,0.286479,0.11459160000000004,96.6293667,3.9190327200000006,14.3525979
0.33,33,0.063,-0.99,0.141,-0.3437748,0.3437748,0.11459160000000004,96.6293667,3.9190327200000006,14.3525979
0.34,34,0.062,-0.993,0.141,-0.286479,0.2291832000000001,0.11459160000000004,96.62363712,3.9190327200000006,14.35832748
0.35000000000000003,35,0.064,-0.995,0.14300000000000002,-0.057295800000000015,0.0,0.1718874,96.66374418,3.9190327200000006,14.3525979
0.36000000000000004,36,0.064,-0.997,0.139,0.0,-0.1718874,0.1718874,96.66374418,3.9190327200000006,14.34686832
0.37,37,0.063,-1.0,0.14,0.0,-0.40107059999999994,0.11459160000000004,96.66374418,3.9190327200000006,14.34686832
0.38,38,0.062,-1.0,0.142,0.057295800000000015,-0.572958,0.057295800000000015,96.66374418,3.9190327200000006,14.335409159999998
0.39,39,0.06,-0.9990000000000001,0.14300000000000002,0.1718874,-0.5156622000000001,0.0,96.66947376,3.9190327200000006,14.335409159999998
0.4,40,0.06,-1.0,0.14400000000000002,0.057295800000000015,-0.40107059999999994,-0.057295800000000015,96.6866625,3.90757356,14.32395
0.41000000000000003,41,0.059000000000000004,-1.001,0.14300000000000002,0.11459160000000004,-0.2291832000000001,0.057295800000000015,96.69239208,3.90757356,14.32395
0.42000000000000004,42,0.059000000000000004,-1.001,0.14400000000000002,0.057295800000000015,-0.286479,0.1718874,96.69239208,3.90757356,14.31822042
0.43,43,0.059000000000000004,-0.996,0.14300000000000002,-0.1718874,0.0,0.1718874,96.6866625,3.90184398,14.31822042
0.44,44,0.06,-0.993,0.14400000000000002,-0.3437748,0.286479,0.11459160000000004,96.6866625,3.90184398,14.32395
0.45,45,0.062,-0.992,0.142,-0.3437748,0.2291832000000001,0.057295800000000015,96.69239208,3.90757356,14.32395
0.46,46,0.064,-0.9940000000000001,0.141,-0.1718874,0.1718874,0.286479,96.69239208,3.90757356,14.32395
0.47000000000000003,47,0.063,-0.9990000000000001,0.142,-0.11459160000000004,-0.1718874,0.2291832000000001,96.69239208,3.90184398,14.32395
0.48000000000000004,48,0.062,-1.004,0.14300000000000002,-0.11459160000000004,-0.3437748,0.286479,96.6866625,3.90184398,14.31822042
0.49,49,0.062,-1.004,0.14400000000000002,-0.1718874,-0.3437748,0.1718874,96.6866625,3.896114400000001,14.31249084
0.5,50,0.064,-1.002,0.146,-0.2291832000000001,-0.3437748,0.1718874,96.70958082,3.90184398,14.306761259999998
0.51,51,0.064,-1.0,0.147,-0.3437748,-0.40107059999999994,0.11459160000000004,96.70385124,3.90184398,14.30103168
0.52,52,0.061,-0.997,0.146,-0.286479,-0.5156622000000001,0.0,96.70385124,3.90184398,14.2953021
0.53,53,0.06,-0.998,0.149,-0.11459160000000004,-0.5156622000000001,0.0,96.69812166,3.90184398,14.289572520000002
0.54,54,0.061,-0.998,0.151,-0.1718874,-0.40107059999999994,-0.11459160000000004,96.69812166,3.90184398,14.289572520000002
0.55,55,0.062,-1.0,0.152,-0.3437748,-0.3437748,-0.286479,96.72676956,3.90184398,14.28384294
0.56,56,0.062,-0.998,0.152,-0.5156622000000001,-0.4583664000000001,-0.1718874,96.72103998,3.90757356,14.27811336
0.5700000000000001,57,0.061,-0.997,0.149,-0.6875496,-0.572958,-0.11459160000000004,96.70958082,3.90757356,14.272383780000002
0.5800000000000001,58,0.06,-0.9940000000000001,0.14800000000000002,-0.6302538000000001,-0.5156622000000001,0.0,96.70385124,3.90757356,14.266654199999998
0.59,59,0.059000000000000004,-0.9940000000000001,0.149,-0.572958,-0.3437748,0.0,96.69812166,3.91330314,14.26092462
0.6,60,0.057999999999999996,-0.993,0.14800000000000002,-0.5156622000000001,-0.286479,0.0,96.72103998,3.90184398,14.25519504
0.61,61,0.057999999999999996,-0.993,0.15,-0.4583664000000001,-0.286479,0.0,96.7153104,3.90184398,14.24946546
0.62,62,0.057999999999999996,-0.9940000000000001,0.14800000000000002,-0.3437748,-0.2291832000000001,-0.057295800000000015,96.7153104,3.90184398,14.24946546
0.63,63,0.057,-0.996,0.146,-0.1718874,-0.11459160000000004,-0.11459160000000004,96.70958082,3.90184398,14.24946546
0.64,64,0.057,-0.997,0.146,0.0,-0.2291832000000001,-0.11459160000000004,96.70958082,3.90184398,14.24373588
0.65,65,0.057999999999999996,-0.998,0.147,0.11459160000000004,-0.2291832000000001,-0.2291832000000001,96.73822872,3.89038482,14.24373588
0.66,66,0.057,-0.9990000000000001,0.147,0.11459160000000004,-0.057295800000000015,-0.286479,96.73822872,3.896114400000001,14.2380063
0.67,67,0.057,-0.997,0.146,0.11459160000000004,0.0,-0.40107059999999994,96.73822872,3.90184398,14.2380063
0.68,68,0.059000000000000004,-0.995,0.145,0.2291832000000001,0.057295800000000015,-0.40107059999999994,96.7439583,3.90184398,14.24373588
0.6900000000000001,69,0.061,-0.995,0.145,0.286479,0.057295800000000015,-0.3437748,96.7439583,3.90757356,14.24373588
0.7000000000000001,70,0.06,-0.995,0.146,0.286479,0.0,-0.40107059999999994,96.76687662,3.90184398,14.24373588
0.7100000000000001,71,0.06,-0.995,0.14400000000000002,0.2291832000000001,0.0,-0.40107059999999994,96.7726062,3.90757356,14.24373588
0.72,72,0.063,-0.998,0.14400000000000002,0.286479,0.11459160000000004,-0.3437748,96.77833578,3.91330314,14.24373588
0.73,73,0.066,-1.001,0.14,0.11459160000000004,0.4583664000000001,-0.1718874,96.77833578,3.91330314,14.24946546
0.74,74,0.067,-1.002,0.14,0.0,0.4583664000000001,-0.11459160000000004,96.77833578,3.91330314,14.25519504
0.75,75,0.067,-1.001,0.14,-0.2291832000000001,0.3437748,-0.057295800000000015,96.7726062,3.9247623,14.26092462
0.76,76,0.066,-0.9990000000000001,0.139,-0.40107059999999994,0.2291832000000001,-0.11459160000000004,96.76687662,3.9247623,14.26092462
0.77,77,0.063,-0.996,0.13699999999999998,-0.286479,0.0,0.0,96.76687662,3.93049188,14.26092462
0.78,78,0.062,-0.996,0.138,-0.2291832000000001,-0.286479,0.0,96.76114704,3.93049188,14.25519504
0.79,79,0.059000000000000004,-0.997,0.138,-0.057295800000000015,-0.4583664000000001,-0.057295800000000015,96.76114704,3.93049188,14.24946546
0.8,80,0.057999999999999996,-0.9990000000000001,0.14,0.0,-0.5156622000000001,-0.1718874,96.76114704,3.9190327200000006,14.24946546
0.81,81,0.059000000000000004,-0.9990000000000001,0.14,-0.11459160000000004,-0.40107059999999994,-0.2291832000000001,96.76114704,3.9247623,14.24373588
0.8200000000000001,82,0.059000000000000004,-0.997,0.141,-0.11459160000000004,-0.4583664000000001,-0.2291832000000001,96.76114704,3.9247623,14.2380063
0.8300000000000001,83,0.059000000000000004,-0.998,0.138,-0.11459160000000004,-0.3437748,-0.2291832000000001,96.76114704,3.93049188,14.232276719999998
0.8400000000000001,84,0.06,-0.996,0.13699999999999998,-0.11459160000000004,-0.2291832000000001,-0.2291832000000001,96.75541746,3.93049188,14.232276719999998
0.85,85,0.059000000000000004,-0.996,0.138,0.0,-0.057295800000000015,-0.1718874,96.75541746,3.91330314,14.232276719999998
0.86,86,0.059000000000000004,-0.998,0.14,0.2291832000000001,0.0,0.0,96.75541746,3.91330314,14.232276719999998
0.87,87,0.059000000000000004,-0.996,0.14300000000000002,0.3437748,0.057295800000000015,0.0,96.76114704,3.91330314,14.232276719999998
0.88,88,0.06,-0.9940000000000001,0.142,0.40107059999999994,0.057295800000000015,0.0,96.76687662,3.91330314,14.2380063
0.89,89,0.06,-0.995,0.14300000000000002,0.286479,0.286479,-0.057295800000000015,96.76687662,3.91330314,14.2380063
0.9,90,0.062,-0.995,0.145,0.286479,0.5156622000000001,-0.11459160000000004,96.78979494,3.9190327200000006,14.24373588
0.91,91,0.061,-0.995,0.14400000000000002,0.286479,0.572958,-0.11459160000000004,96.78979494,3.9190327200000006,14.24946546
0.92,92,0.062,-0.995,0.146,0.1718874,0.572958,-0.11459160000000004,96.79552452,3.9190327200000006,14.25519504
0.93,93,0.061,-0.995,0.146,0.1718874,0.286479,-0.057295800000000015,96.79552452,3.9190327200000006,14.26092462
0.9400000000000001,94,0.064,-0.992,0.14300000000000002,0.2291832000000001,0.286479,0.0,96.8012541,3.9190327200000006,14.26092462
0.9500000000000001,95,0.065,-0.995,0.142,0.286479,0.572958,0.0,96.8012541,3.9247623,14.266654199999998
0.9600000000000001,96,0.064,-0.996,0.142,0.4583664000000001,0.7448454000000001,0.0,96.80698368,3.9190327200000006,14.27811336
0.97,97,0.065,-0.995,0.141,0.4583664000000001,0.9740286,0.0,96.81271325999998,3.9190327200000006,14.28384294
0.98,98,0.068,-0.995,0.14,0.6302538000000001,0.6875496,-0.1718874,96.81844284,3.9190327200000006,14.2953021
0.99,99,0.068,-0.993,0.141,0.6302538000000001,0.5156622000000001,-0.3437748,96.829902,3.9247623,14.30103168
1.0,100,0.067,-0.991,0.142,0.572958,0.572958,-0.5156622000000001,96.83563158,3.93049188,14.306761259999998
1.01,101,0.065,-0.993,0.142,0.4583664000000001,0.6875496,-0.6302538000000001,96.84136116,3.93622146,14.31249084
1.02,102,0.065,-1.001,0.14400000000000002,0.572958,0.11459160000000004,-0.572958,96.84709073999998,3.94195104,14.31249084
1.03,103,0.063,-1.0090000000000001,0.142,0.5156622000000001,-0.5156622000000001,-0.572958,96.85282032,3.94768062,14.31249084
1.04,104,0.065,-1.014,0.14300000000000002,0.5156622000000001,-0.9167328000000001,-0.3437748,96.8585499,3.9534102,14.30103168
1.05,105,0.066,-1.015,0.14300000000000002,0.40107059999999994,-1.3178034,-0.057295800000000015,96.86427948,3.95913978,14.289572520000002
1.06,106,0.067,-1.011,0.14400000000000002,0.1718874,-1.432395,0.0,96.86427948,3.95913978,14.272383780000002
1.07,107,0.065,-1.0070000000000001,0.14400000000000002,0.0,-1.145916,0.057295800000000015,96.86427948,3.9648693599999993,14.26092462
1.08,108,0.061,-1.0,0.14400000000000002,-0.286479,-0.8021411999999999,0.1718874,96.8585499,3.95913978,14.25519504
1.09,109,0.059000000000000004,-0.995,0.14400000000000002,-0.4583664000000001,-0.6875496,0.2291832000000001,96.85282032,3.95913978,14.24373588
1.1,110,0.057999999999999996,-0.99,0.142,-0.40107059999999994,-0.6875496,0.2291832000000001,96.84709073999998,3.9534102,14.2380063
1.11,111,0.059000000000000004,-0.988,0.141,-0.2291832000000001,-0.572958,0.1718874,96.84709073999998,3.94768062,14.232276719999998
1.12,112,0.059000000000000004,-0.988,0.141,-0.286479,-0.3437748,0.11459160000000004,96.84136116,3.94768062,14.22654714
1.1300000000000001,113,0.06,-0.988,0.141,-0.11459160000000004,-0.40107059999999994,0.2291832000000001,96.84136116,3.94768062,14.22654714
1.1400000000000001,114,0.06,-0.987,0.139,0.0,-0.286479,0.2291832000000001,96.84136116,3.94768062,14.22081756
1.1500000000000001,115,0.059000000000000004,-0.99,0.14,0.057295800000000015,-0.057295800000000015,0.3437748,96.84136116,3.9247623,14.22081756
1.1600000000000001,116,0.059000000000000004,-0.9890000000000001,0.14,0.1718874,-0.057295800000000015,0.286479,96.84709073999998,3.9190327200000006,14.215087979999998
1.17,117,0.064,-0.9890000000000001,0.14300000000000002,0.286479,0.057295800000000015,0.2291832000000001,96.84709073999998,3.9190327200000006,14.22081756
1.18,118,0.063,-0.992,0.14400000000000002,0.286479,0.1718874,0.11459160000000004,96.85282032,3.91330314,14.22081756
1.19,119,0.061,-0.993,0.146,0.057295800000000015,0.1718874,0.0,96.85282032,3.91330314,14.22081756
1.2,120,0.063,-0.996,0.14400000000000002,0.0,0.3437748,0.0,96.86427948,3.9190327200000006,14.22654714
1.21,121,0.064,-0.997,0.141,-0.057295800000000015,0.286479,0.057295800000000015,96.86427948,3.9190327200000006,14.22654714
1.22,122,0.065,-0.9990000000000001,0.14,-0.057295800000000015,0.40107059999999994,0.11459160000000004,96.86427948,3.91330314,14.232276719999998
1.23,123,0.065,-1.0,0.14,0.0,0.572958,0.1718874,96.86427948,3.91330314,14.2380063
1.24,124,0.064,-1.003,0.14,0.0,0.572958,0.2291832000000001,96.86427948,3.90757356,14.24373588
1.25,125,0.064,-1.006,0.139,0.0,0.6302538000000001,0.057295800000000015,96.85282032,3.90757356,14.24946546
1.26,126,0.064,-1.006,0.13699999999999998,0.0,0.5156622000000001,0.11459160000000004,96.85282032,3.90757356,14.25519504
1.27,127,0.064,-1.005,0.136,-0.2291832000000001,0.4583664000000001,0.0,96.85282032,3.90757356,14.26092462
1.28,128,0.064,-1.001,0.14,-0.3437748,0.572958,-0.11459160000000004,96.84709073999998,3.90757356,14.266654199999998
1.29,129,0.063,-0.997,0.142,-0.2291832000000001,0.40107059999999994,0.0,96.84709073999998,3.90757356,14.266654199999998
1.3,130,0.065,-0.997,0.141,-0.40107059999999994,0.3437748,-0.11459160000000004,96.84136116,3.91330314,14.272383780000002
1.31,131,0.065,-0.9990000000000001,0.141,-0.6302538000000001,0.4583664000000001,0.0,96.83563158,3.91330314,14.27811336
1.32,132,0.067,-1.002,0.14300000000000002,-0.9740286,0.3437748,0.057295800000000015,96.82417242,3.90757356,14.28384294
1.33,133,0.067,-1.004,0.14,-1.2032118,0.2291832000000001,0.11459160000000004,96.81271325999998,3.90757356,14.28384294
1.34,134,0.066,-1.006,0.14,-1.5469866,0.11459160000000004,0.11459160000000004,96.79552452,3.90757356,14.28384294
1.35,135,0.065,-1.0070000000000001,0.14300000000000002,-1.6615782,-0.057295800000000015,0.1718874,96.78406536,3.90757356,14.28384294
1.36,136,0.066,-1.0070000000000001,0.145,-1.8907614,-0.286479,0.2291832000000001,96.76114704,3.90184398,14.27811336
1.37,137,0.065,-1.0070000000000001,0.142,-2.2345362,-0.1718874,0.2291832000000001,96.73822872,3.90184398,14.27811336
1.3800000000000001,138,0.063,-1.008,0.139,-2.4064236,-0.3437748,0.40107059999999994,96.7153104,3.896114400000001,14.272383780000002
1.3900000000000001,139,0.06,-1.004,0.14,-2.4064236,-0.4583664000000001,0.40107059999999994,96.6866625,3.896114400000001,14.266654199999998
1.4000000000000001,140,0.06,-0.9990000000000001,0.141,-2.4064236,-0.40107059999999994,0.40107059999999994,96.66947376,3.89038482,14.26092462
1.4100000000000001,141,0.061,-0.995,0.14400000000000002,-2.2345362,-0.057295800000000015,0.3437748,96.64082586,3.88465524,14.26092462
1.42,142,0.062,-0.993,0.146,-2.2345362,0.11459160000000004,0.286479,96.61790754,3.87892566,14.26092462
1.43,143,0.062,-0.9940000000000001,0.14800000000000002,-2.4064236,0.11459160000000004,0.2291832000000001,96.59498922000002,3.87892566,14.26092462
1.44,144,0.063,-0.9940000000000001,0.146,-2.5783110000000002,0.057295800000000015,0.1718874,96.5720709,3.873196080000002,14.26092462
1.45,145,0.064,-0.997,0.14400000000000002,-2.5210152000000003,0.057295800000000015,0.1718874,96.54915258,3.873196080000002,14.26092462
1.46,146,0.063,-1.0,0.142,-2.6356068,0.057295800000000015,0.11459160000000004,96.52623426,3.873196080000002,14.26092462
1.47,147,0.065,-1.003,0.138,-2.6929026,0.0,0.2291832000000001,96.49758636,3.873196080000002,14.26092462
1.48,148,0.066,-0.9990000000000001,0.136,-2.4637194,0.0,0.286479,96.46893846,3.8674665,14.26092462
1.49,149,0.066,-0.996,0.13699999999999998,-1.9480572,-0.286479,0.2291832000000001,96.45174972,3.8674665,14.25519504
1.5,150,0.065,-0.992,0.138,-1.8334656000000005,-0.40107059999999994,0.2291832000000001,96.43456098,3.8674665,14.24946546
1.51,151,0.062,-0.9890000000000001,0.13699999999999998,-1.6042823999999998,-0.572958,0.1718874,96.41737224,3.8674665,14.24373588
1.52,152,0.061,-0.988,0.136,-1.4896908000000002,-0.7448454000000001,0.057295800000000015,96.4001835,3.8674665,14.2380063
1.53,153,0.061,-0.991,0.135,-1.4896908000000002,-0.4583664000000001,0.11459160000000004,96.38872434,3.86173692,14.232276719999998
1.54,154,0.063,-0.995,0.136,-1.6042823999999998,-0.286479,0.1718874,96.37153559999999,3.86173692,14.22654714
1.55,155,0.064,-0.9990000000000001,0.141,-1.8334656000000005,-0.1718874,0.2291832000000001,96.36007644,3.86173692,14.22654714
1.56,156,0.066,-1.001,0.138,-2.4637194,0.11459160000000004,0.40107059999999994,96.33715812,3.86173692,14.22654714
1.57,157,0.063,-1.002,0.131,-2.86479,-0.286479,0.6302538000000001,96.30851022,3.85600734,14.22081756
1.58,158,0.057999999999999996,-1.005,0.126,-3.2085647999999996,-0.9167328000000001,0.9740286,96.27413274,3.84454818,14.209358400000001
1.59,159,0.057999999999999996,-1.0090000000000001,0.128,-3.4377480000000005,-1.0313244000000001,1.2032118,96.23975526,3.83308902,14.197899240000002
1.6,160,0.06,-1.016,0.122,-4.1252976000000015,-0.6302538000000001,1.2032118,96.18818904,3.82162986,14.19216966
1.61,161,0.06,-1.023,0.11699999999999999,-4.9274388,-0.4583664000000001,1.3178034,96.1423524,3.810170700000002,14.18644008
1.62,162,0.061,-1.028,0.114,-5.3858052,-0.286479,1.432395,96.0850566,3.79298196,14.180710500000002
1.6300000000000001,163,0.067,-1.023,0.114,-5.7868758000000025,0.1718874,1.4896908000000002,96.0277608,3.77579322,14.17498092
1.6400000000000001,164,0.069,-1.02,0.12,-5.9014674000000005,0.4583664000000001,1.5469866,95.96473541999998,3.75860448,14.180710500000002
1.6500000000000001,165,0.069,-1.0170000000000001,0.126,-6.3025379999999975,0.6302538000000001,1.6042823999999998,95.90171004,3.74714532,14.18644008
1.6600000000000001,166,0.069,-1.013,0.122,-6.875496000000001,0.9740286,1.6615782,95.83295508,3.7299565800000014,14.19216966
1.6700000000000002,167,0.073,-1.01,0.121,-7.1046792000000005,1.0313244000000001,1.7188740000000002,95.75847054,3.70703826,14.197899240000002
1.68,168,0.076,-1.0090000000000001,0.12,-7.448453999999999,0.8021411999999999,1.7761698000000001,95.683986,3.68984952,14.20362882
1.69,169,0.077,-1.008,0.122,-7.8495246,0.286479,1.7761698000000001,95.60377188,3.67266078,14.20362882
1.7,170,0.07400000000000001,-1.008,0.12,-8.078707799999998,-0.2291832000000001,1.6615782,95.52355776,3.65547204,14.197899240000002
1.71,171,0.068,-1.0090000000000001,0.12,-8.193299399999999,-0.572958,1.5469866,95.43761406,3.644012880000001,14.19216966
1.72,172,0.062,-1.0070000000000001,0.11699999999999999,-8.193299399999999,-0.9167328000000001,1.3750992,95.35167036,3.62682414,14.180710500000002
1.73,173,0.059000000000000004,-0.998,0.11599999999999999,-8.078707799999998,-1.0313244000000001,1.0313244000000001,95.27145624,3.62109456,14.16925134
1.74,174,0.059000000000000004,-0.993,0.12,-7.6776372,-0.9740286,0.8594370000000001,95.19124212,3.6096354,14.15779218
1.75,175,0.057,-0.9940000000000001,0.13,-6.9327918,-0.9740286,0.7448454000000001,95.12821674,3.60390582,14.14060344
1.76,176,0.051,-0.9940000000000001,0.13699999999999998,-6.7609043999999985,-0.6875496,0.5156622000000001,95.05946178,3.59817624,14.13487386
1.77,177,0.040999999999999995,-0.993,0.139,-7.0473834,-0.2291832000000001,0.4583664000000001,94.98497724,3.59244666,14.12914428
1.78,178,0.039,-0.9940000000000001,0.141,-7.448453999999999,0.11459160000000004,0.3437748,94.9104927,3.58671708,14.12914428
1.79,179,0.042,-0.9990000000000001,0.135,-8.307891,0.8021411999999999,0.0,94.824549,3.58671708,14.14060344
1.8,180,0.045,-1.006,0.132,-8.651665800000002,0.9740286,-0.057295800000000015,94.75006446,3.5809875,14.14633302
1.81,181,0.052000000000000005,-1.015,0.13699999999999998,-9.167328,1.3178034,-0.057295800000000015,94.65266159999999,3.5809875,14.15779218
1.82,182,0.057999999999999996,-1.0190000000000001,0.132,-10.1986524,1.6042823999999998,-0.1718874,94.55525874,3.5809875,14.17498092
1.83,183,0.061,-1.023,0.13,-11.172680999999999,1.6042823999999998,0.0,94.44066714,3.5809875,14.18644008
1.84,184,0.062,-1.033,0.127,-12.1467096,1.432395,0.286479,94.31461638,3.57525792,14.20362882
1.85,185,0.062,-1.037,0.11900000000000001,-13.464512999999998,1.5469866,0.7448454000000001,94.18283604,3.56379876,14.215087979999998
1.86,186,0.059000000000000004,-1.042,0.11800000000000001,-14.381245800000002,1.7761698000000001,0.9167328000000001,94.03959654,3.5523396000000003,14.232276719999998
1.87,187,0.054000000000000006,-1.042,0.12,-15.527161800000002,2.0053530000000004,1.0886202,93.87916829999999,3.5351508600000003,14.24946546
1.8800000000000001,188,0.055,-1.038,0.115,-16.673077799999998,2.7501984,1.0886202,93.71301048,3.5236917,14.272383780000002
1.8900000000000001,189,0.054000000000000006,-1.036,0.10400000000000001,-17.7044022,3.0939732,0.8594370000000001,93.53539350000001,3.50650296,14.30103168
1.9000000000000001,190,0.055999999999999994,-1.038,0.10099999999999999,-18.9649098,2.9793816000000004,0.6302538000000001,93.34631736,3.50077338,14.32967958
1.9100000000000001,191,0.063,-1.037,0.09699999999999999,-20.3973048,2.9793816000000004,0.5156622000000001,93.14005248,3.48931422,14.3525979
1.9200000000000002,192,0.07,-1.034,0.084,-21.5432208,2.86479,0.3437748,92.92232844,3.48358464,14.381245800000002
1.93,193,0.071,-1.037,0.073,-22.517249399999997,1.432395,0.1718874,92.69314524,3.47785506,14.39270496
1.94,194,0.07,-1.037,0.07200000000000001,-23.3766864,0.0,0.057295800000000015,92.45250288,3.47212548,14.38697538
1.95,195,0.07,-1.035,0.07200000000000001,-24.1788276,-0.8594370000000001,-0.4583664000000001,92.21186052,3.47785506,14.37551622
1.96,196,0.067,-1.032,0.07,-25.3247436,-1.0886202,-1.0313244000000001,91.95402942,3.48931422,14.364057060000002
1.97,197,0.064,-1.028,0.062,-26.356068,-1.145916,-1.432395,91.68473916,3.50077338,14.3525979
1.98,198,0.06,-1.03,0.057,-26.929026,-1.3750992,-1.6042823999999998,91.40971932,3.51796212,14.335409159999998
1.99,199,0.055999999999999994,-1.033,0.055,-27.559279800000002,-1.6042823999999998,-2.0626488000000003,91.1289699,3.5351508600000003,14.31249084
2.0,200,0.059000000000000004,-1.034,0.054000000000000006,-28.132237800000002,-1.2032118,-2.6356068,90.84249090000002,3.56379876,14.30103168
2.01,201,0.057999999999999996,-1.028,0.057999999999999996,-29.5646328,-0.5156622000000001,-3.2658606,90.54455274,3.59244666,14.289572520000002
2.02,202,0.06,-1.021,0.054000000000000006,-30.5386614,-0.3437748,-3.4950437999999995,90.23515542,3.62682414,14.28384294
2.03,203,0.063,-1.012,0.043,-31.340802600000004,-0.572958,-3.6096353999999997,89.91429894,3.66120162,14.27811336
2.04,204,0.069,-1.022,0.035,-31.741873200000004,-1.0313244000000001,-3.6669312000000014,89.58771288,3.6955791,14.26092462
2.05,205,0.07400000000000001,-1.025,0.028999999999999998,-32.658606,-2.1199446,-4.010706000000001,89.26112682,3.7299565800000014,14.2380063
2.0599999999999996,206,0.07400000000000001,-1.0290000000000001,0.025,-33.4607472,-3.4950437999999995,-3.8961144,88.91735202,3.77006364,14.197899240000002
2.07,207,0.07,-1.045,0.027999999999999997,-35.0077338,-4.4117766,-4.8701430000000006,88.55638848,3.81590028,14.14633302
2.0799999999999996,208,0.068,-1.04,0.032,-36.2109456,-4.6409598,-5.443101,88.18969536,3.8674665,14.0947668
2.09,209,0.068,-1.044,0.033,-38.159002799999996,-4.6982555999999995,-5.9014674000000005,87.80008391999998,3.9190327200000006,14.04320058
2.0999999999999996,210,0.07400000000000001,-1.043,0.028999999999999998,-39.6486936,-4.6982555999999995,-6.8182002000000015,87.39328374,3.98778768,13.99163436
2.11,211,0.084,-1.083,0.04,-41.6540466,-4.2398892,-5.6149884000000005,86.96929482,4.0393539,13.94006814
2.1199999999999997,212,0.098,-1.077,0.02,-44.5761324,-4.583664,-4.9847346,86.51092842,4.08519054,13.88850192
2.13,213,0.10300000000000001,-1.077,0.006999999999999999,-47.211739200000004,-5.7868758000000025,-4.3544808,86.02964370000002,4.11956802,13.81974696
2.1399999999999997,214,0.109,-1.069,-0.002,-49.4462754,-7.7922288,-3.6096353999999997,85.52544065999999,4.14821592,13.733803259999998
2.15,215,0.111,-1.069,-0.01,-51.10785360000001,-9.6256944,-3.0939732,84.99831929999998,4.17113424,13.63067082
2.1599999999999997,216,0.115,-1.081,-0.011000000000000001,-53.8007562,-10.886202,-2.5210152000000003,84.44827962000002,4.1825934,13.51607922
2.17,217,0.11699999999999999,-1.103,-0.013000000000000001,-56.837433600000004,-12.5477802,-2.1772404,83.86386246,4.19405256,13.38429888
2.1799999999999997,218,0.109,-1.1159999999999999,-0.017,-59.93140680000001,-14.209358400000001,-2.9220858,83.24506782,4.20551172,13.2353298
2.19,219,0.113,-1.0859999999999999,-0.023,-63.770225399999994,-15.5844576,-2.86479,82.58616612,4.211241299999998,13.069171980000002
2.1999999999999997,220,0.122,-1.0759999999999998,-0.02,-66.176649,-16.7876694,-2.1199446,81.91007568,4.211241299999998,12.891555
2.21,221,0.121,-1.068,-0.015,-70.07276340000001,-18.048177,-1.6615782,81.18814859999998,4.19978214,12.70820844
2.2199999999999998,222,0.11800000000000001,-1.0659999999999998,-0.033,-73.28132819999998,-19.480572,-1.432395,80.43184404,4.1825934,12.507673139999998
2.23,223,0.106,-1.084,-0.045,-76.77637200000002,-21.5432208,-1.6615782,79.63543242,4.15967508,12.28421952
2.2399999999999998,224,0.095,-1.0759999999999998,-0.045,-81.2454444,-23.605869600000002,-1.4896908000000002,78.79891374,4.1252976000000015,12.04357716
2.25,225,0.077,-1.0859999999999999,-0.05,-85.48533359999998,-26.2987722,-0.6875496,77.92228800000002,4.0794609600000005,11.774286900000002
2.26,226,0.063,-1.074,-0.032,-91.67328,-28.877083199999998,-0.11459160000000004,76.97117771999999,4.01643558,11.48207832
2.27,227,0.057,-1.04,-0.019,-97.116381,-30.4240698,0.11459160000000004,75.96850122000002,3.94195104,11.17841058
2.28,228,0.055,-1.036,-0.024,-101.700045,-30.366774000000003,-0.1718874,74.91998808000002,3.8674665,10.87474284
2.29,229,0.066,-1.032,0.009000000000000001,-108.2317662,-27.043617600000005,-0.6302538000000001,73.80844956,3.79871154,10.60545258
2.3,230,0.09,-1.043,0.006,-111.84140159999998,-25.496631,-0.6875496,72.66826314,3.7299565800000014,10.34762148
2.31,231,0.122,-1.093,-0.057,-109.2057948,-26.9863218,0.11459160000000004,71.54526546,3.6382833,10.084060800000001
2.32,232,0.11,-1.1640000000000001,-0.138,-110.5235982,-28.4760126,1.8334656000000005,70.41080862,3.5236917,9.81477054
2.3299999999999996,233,0.085,-1.205,-0.095,-111.0965562,-23.663165399999997,2.6929026,69.2706222,3.4148296799999995,9.59131692
2.34,234,0.059000000000000004,-1.2229999999999999,-0.08900000000000001,-115.1072622,-22.4599536,3.0939732,68.09605830000001,3.2945085,9.38505204
2.3499999999999996,235,0.031,-1.214,-0.222,-116.023995,-24.1215318,3.4950437999999995,66.91003524,3.1627281600000003,9.16159842
2.36,236,0.011000000000000001,-1.23,-0.364,-116.36776979999999,-23.14750320000001,4.4117766,65.72401218,3.01948866,8.96106312
2.3699999999999997,237,-0.01,-1.217,-0.39799999999999996,-116.0812908,-19.9389384,6.3598338,64.53798911999999,2.87051958,8.794905300000002
2.38,238,-0.031,-1.205,-0.3720000000000001,-110.81007720000001,-19.365980399999998,7.9641161999999985,63.40926186,2.71009134,8.651665800000002
2.3899999999999997,239,-0.039,-1.193,-0.441,-108.17447040000002,-19.308684600000007,8.9381448,62.3091825,2.53247436,8.5084263
2.4,240,-0.049,-1.136,-0.469,-104.278356,-17.4179232,8.9381448,61.24921019999999,2.36058696,8.393834700000001
2.4099999999999997,241,-0.049,-1.115,-0.528,-97.40286,-14.209358400000001,7.3911582,60.25799286,2.21734746,8.29643184
2.42,242,-0.036000000000000004,-1.094,-0.59,-93.7359288,-10.886202,5.2139178,59.30688258,2.10848544,8.2219473
2.4299999999999997,243,-0.028999999999999998,-1.0490000000000002,-0.631,-89.7825186,-9.224623800000002,3.380452200000001,58.39014978,2.02827132,8.15319234
2.44,244,-0.034,-1.024,-0.6829999999999999,-83.4799806,-7.5057497999999985,2.0053530000000004,57.54217193999999,1.9595163600000003,8.09589654
2.4499999999999997,245,-0.045,-1.002,-0.6990000000000001,-78.4379502,-5.042030400000002,0.6302538000000001,56.74576032,1.91367972,8.05578948
2.46,246,-0.059000000000000004,-0.9640000000000001,-0.735,-72.93755340000001,-2.291832,-0.6302538000000001,56.00091491999999,1.89649098,8.02714158
2.4699999999999998,247,-0.055999999999999994,-0.932,-0.7609999999999999,-67.036086,0.057295800000000015,-2.0626488000000003,55.32482448,1.90795014,8.00995284
2.48,248,-0.055,-0.9279999999999999,-0.7859999999999999,-60.44706899999999,1.7761698000000001,-3.5523396000000003,54.70602984,1.93659804,8.00422326
2.4899999999999998,249,-0.063,-0.9359999999999999,-0.795,-52.8840234,3.6096353999999997,-5.5003968,54.16744932,1.99389384,7.99849368
2.5,250,-0.075,-0.9570000000000001,-0.7979999999999999,-46.696077,5.0993262,-7.5057497999999985,53.69189418,2.07410796,7.9927641000000005
2.51,251,-0.08,-0.995,-0.8,-41.6540466,6.875496000000001,-8.651665800000002,53.26790526,2.1772404,7.99849368
2.52,252,-0.079,-1.004,-0.794,-38.90384820000001,8.4224826,-9.682990199999999,52.87256424,2.29756158,8.00422326
2.53,253,-0.062,-0.971,-0.778,-36.03905820000001,10.2559482,-10.657018800000001,52.50587112,2.44080108,8.021412
2.54,254,-0.06,-0.9009999999999999,-0.741,-33.0596766,11.745639,-12.2040054,52.1678259,2.6012293200000003,8.044330319999998
2.55,255,-0.095,-0.8320000000000001,-0.7070000000000001,-28.418716800000002,12.9488508,-15.183387000000002,51.87561732,2.7788463,8.0500599
2.56,256,-0.12300000000000001,-0.843,-0.6940000000000001,-22.5745452,13.980175199999998,-17.9335854,51.64070454,3.00229992,8.0500599
2.57,257,-0.114,-0.873,-0.6559999999999999,-17.5325148,15.4125702,-18.8503182,51.46308756,3.2372127,8.05578948
2.5799999999999996,258,-0.073,-0.883,-0.6709999999999999,-13.636400400000001,14.4958374,-16.902261,51.31984806000001,3.45493674,8.067248639999999
2.59,259,-0.027000000000000003,-0.856,-0.672,-10.4851314,12.891555,-13.8082878,51.21098604,3.6382833,8.08443738
2.5999999999999996,260,-0.015,-0.804,-0.6629999999999999,-6.0733548,9.9694692,-10.828906199999999,51.14223108,3.76433406,8.09589654
2.61,261,-0.027000000000000003,-0.7559999999999999,-0.633,-1.9480572,8.8235532,-10.4851314,51.11931276,3.90184398,8.09589654
2.6199999999999997,262,-0.038,-0.725,-0.588,1.4896908000000002,8.136003599999999,-12.7196676,51.1365015,4.04508348,8.08443738
2.63,263,-0.055,-0.7240000000000001,-0.598,5.042030400000002,7.448453999999999,-15.068795399999999,51.18233814,4.211241299999998,8.0500599
2.6399999999999997,264,-0.075,-0.736,-0.5660000000000001,7.161975,8.136003599999999,-16.8449652,51.25109310000001,4.38885828,8.00995284
2.65,265,-0.092,-0.7340000000000001,-0.541,9.6256944,8.8235532,-18.3919518,51.34276638,4.56647526,7.9641161999999985
2.6599999999999997,266,-0.10300000000000001,-0.725,-0.528,11.5737516,10.2559482,-19.595163600000006,51.45735798,4.784199299999999,7.92400914
2.67,267,-0.11,-0.721,-0.501,13.636400400000001,12.032118,-20.340009,51.58913832,5.01911208,7.89536124
2.6799999999999997,268,-0.10400000000000001,-0.713,-0.491,14.896907999999998,13.6936962,-20.6837838,51.7381074,5.25975444,7.8781725000000025
2.69,269,-0.092,-0.703,-0.45399999999999996,15.813640800000002,15.928232399999999,-20.6837838,51.89853564,5.51758554,7.8781725000000025
2.6999999999999997,270,-0.063,-0.6859999999999999,-0.44299999999999995,16.1001198,17.4179232,-20.5691922,52.06469346,5.77541664,7.889631660000001
2.71,271,-0.043,-0.664,-0.439,17.246035799999998,17.9335854,-20.2254174,52.23658086,6.0447069,7.91254998
2.7199999999999998,272,-0.043,-0.6459999999999999,-0.43,18.5638392,18.907614,-19.652459399999998,52.425657,6.30826758,7.94692746
2.73,273,-0.04,-0.626,-0.429,20.7983754,21.314037600000002,-18.9649098,52.64338104000001,6.589017,8.00422326
2.7399999999999998,274,-0.048,-0.607,-0.42,23.777757,22.5745452,-18.6784308,52.88975298,6.86976642,8.07297822
2.75,275,-0.064,-0.598,-0.39799999999999996,26.642546999999997,23.777757,-18.2200644,53.1705024,7.144786260000001,8.158921920000001
2.76,276,-0.075,-0.573,-0.358,29.220858000000003,27.4446882,-18.6784308,53.47417014,7.45418358,8.27351352
2.77,277,-0.075,-0.5529999999999999,-0.363,32.7159018,32.372127,-19.9389384,53.82367452,7.80368796,8.422482599999999
2.78,278,-0.08900000000000001,-0.546,-0.354,36.38283300000001,36.1536498,-21.199446,54.21328595999999,8.18184024,8.60009958
2.79,279,-0.094,-0.552,-0.359,39.304918799999996,40.04976420000001,-22.1161788,54.631545300000006,8.58291084,8.80636446
2.8,280,-0.10400000000000001,-0.551,-0.341,41.539455,43.0864416,-23.319390600000002,55.08418212,9.00689976,9.02981808
2.81,281,-0.086,-0.546,-0.35600000000000004,43.77399120000001,46.696077,-24.350715,55.56546684,9.46526616,9.28764918
2.82,282,-0.064,-0.534,-0.353,45.1490904,47.555514,-24.923673,56.05821072,9.92936214,9.55120986
2.8299999999999996,283,-0.034,-0.525,-0.348,46.2377106,47.6128098,-25.2674478,56.56814333999999,10.39345812,9.81477054
2.84,284,-0.016,-0.515,-0.35100000000000003,47.0971476,46.409597999999995,-25.668518399999996,57.08953512000001,10.8575541,10.07833122
2.8499999999999996,285,0.001,-0.518,-0.349,47.269035,46.0658232,-26.5852512,57.6109269,11.3159205,10.33043274
2.86,286,0.025,-0.52,-0.324,48.185767799999994,44.6334282,-27.6738714,58.14377784,11.78001648,10.571075099999998
2.8699999999999997,287,0.031,-0.522,-0.35,48.2430636,42.456187799999995,-28.6479,58.67089920000001,12.23838288,10.79452872
2.88,288,0.033,-0.526,-0.33899999999999997,48.2430636,44.0031744,-29.1062664,59.20947972,12.70820844,11.03517108
2.8899999999999997,289,0.024,-0.544,-0.364,48.128472,46.8679644,-28.533308399999996,59.74806024000001,13.18376358,11.30446134
2.9,290,0.006999999999999999,-0.5660000000000001,-0.39899999999999997,46.5814854,45.607456799999994,-27.1582092,60.2751816,13.63067082,11.579481179999998
2.9099999999999997,291,-0.013999999999999999,-0.5760000000000001,-0.389,45.4355694,45.263682,-25.0955604,60.79657338000001,14.0661189,11.86596018
2.92,292,-0.006,-0.606,-0.345,45.4355694,48.185767799999994,-24.637194,61.32942432,14.501566980000002,12.18108708
2.9299999999999997,293,0.0,-0.64,-0.409,42.2270046,49.90464179999999,-25.55392680000001,61.83935694,14.954203799999998,12.51340272
2.94,294,0.008,-0.6729999999999999,-0.40700000000000003,41.5967508,51.1651494,-26.41336380000001,62.34355998,15.418299779999998,12.8629071
2.9499999999999997,295,0.024,-0.733,-0.415,41.0237928,55.00396800000001,-27.3300966,62.853492599999996,15.89385492,13.24105938
2.96,296,0.053,-0.782,-0.41700000000000004,38.5027776,58.2125328,-28.418716800000002,63.35196606000001,16.39805796,13.65358914
2.9699999999999998,297,0.09300000000000001,-0.809,-0.409,35.236917,62.3951262,-29.9084076,63.82752120000001,16.92517932,14.10622596
2.98,298,0.136,-0.828,-0.434,31.111619399999995,66.80690279999999,-31.1689152,64.28015802,17.48094858,14.593240260000002
2.9899999999999998,299,0.163,-0.83,-0.4370000000000001,28.934378999999996,68.41118519999999,-31.51269000000001,64.72133568,18.04244742,15.10890246
3.0,300,0.177,-0.816,-0.41200000000000003,27.7311672,64.62966239999999,-31.2835068,65.14532460000001,18.57529836,15.59018718
3.01,301,0.188,-0.7929999999999999,-0.42200000000000004,25.7258142,60.3324774,-31.22621100000001,65.54066562,19.09669014,16.031364840000002
3.02,302,0.187,-0.7609999999999999,-0.386,26.0122932,54.14453099999999,-31.79916900000001,65.92454748,19.595163600000006,16.420976279999998
3.03,303,0.222,-0.733,-0.324,26.7571386,49.3316838,-33.9191136,66.30269976,20.09363706,16.7590215
3.04,304,0.27399999999999997,-0.722,-0.337,26.5852512,46.5241896,-38.0444112,66.66939288,20.61502884,17.056959659999997
3.05,305,0.299,-0.747,-0.321,27.4446882,42.28430039999999,-41.9978214,67.03035642,21.15360936,17.303331600000003
3.06,306,0.308,-0.7809999999999999,-0.308,27.960350399999996,39.018439799999996,-44.175061799999995,67.38559038,21.70364904,17.50959648
3.07,307,0.308,-0.8109999999999999,-0.304,26.7571386,36.4401288,-45.3209778,67.71790602000002,22.24795914,17.69294304
3.08,308,0.292,-0.815,-0.305,24.9809688,33.9191136,-45.607456799999994,68.02730333999999,22.792269240000003,17.847641699999997
3.09,309,0.272,-0.799,-0.301,23.9496444,30.997027799999998,-45.3209778,68.31951192,23.3193906,17.98515162
3.0999999999999996,310,0.253,-0.7759999999999999,-0.267,22.9756158,28.6479,-45.607456799999994,68.58880218,23.835052800000003,18.09401364
3.11,311,0.24,-0.7490000000000001,-0.273,20.912967000000002,28.533308399999996,-46.5814854,68.84663328,24.36217416,18.20287566
3.1199999999999997,312,0.217,-0.725,-0.267,19.595163600000006,28.418716800000002,-48.128472,69.08154606000001,24.90648426000001,18.31173768
3.13,313,0.21600000000000005,-0.721,-0.266,17.9908812,28.533308399999996,-50.133825,69.30499968000001,25.4679831,18.41487012
3.1399999999999997,314,0.221,-0.728,-0.275,16.615782,29.163562199999998,-52.3110654,69.51126456,26.052400259999995,18.518002560000006
3.15,315,0.228,-0.745,-0.265,15.6417534,30.5386614,-54.20182679999999,69.71752943999999,26.64827658,18.63259416
3.1599999999999997,316,0.23,-0.765,-0.266,14.381245800000002,29.736520199999998,-54.8893764,69.90660558,27.25561206,18.7357266
3.17,317,0.231,-0.774,-0.26,13.407217200000002,27.3300966,-54.8320806,70.07276340000001,27.85148838,18.81594072
3.1799999999999997,318,0.228,-0.773,-0.251,11.9748222,23.5485738,-54.717489,70.2160029,28.44163512,18.86177736
3.19,319,0.221,-0.752,-0.251,10.026765,19.767051000000002,-55.3477428,70.31340576,29.0203227,18.86177736
3.1999999999999997,320,0.222,-0.7170000000000001,-0.25,9.1100322,18.9649098,-57.63957480000001,70.39361987999997,29.61046944000001,18.8503182
3.21,321,0.228,-0.698,-0.251,7.5630456000000015,21.314037600000002,-60.67625219999999,70.46810442,30.24645282,18.8503182
3.2199999999999998,322,0.225,-0.688,-0.23800000000000002,6.2452422,22.058882999999998,-62.96808420000001,70.5311298,30.89962494,18.8503182
3.23,323,0.223,-0.682,-0.237,4.6409598,22.9756158,-64.6869582,70.57696644,31.57571538,18.85604778
3.2399999999999998,324,0.223,-0.674,-0.22399999999999998,3.2658606,22.803728399999997,-65.7755784,70.60561434,32.26326498,18.85604778
3.25,325,0.221,-0.6659999999999999,-0.21899999999999997,2.5783110000000002,21.485925,-66.5777196,70.61707349999998,32.945085,18.83885904
3.26,326,0.214,-0.665,-0.205,1.8907614,19.480572,-67.49445240000001,70.60561434,33.63836418,18.7930224
3.27,327,0.204,-0.664,-0.191,1.0313244000000001,17.475219,-68.9268474,70.57123686,34.33737294,18.71853786
3.28,328,0.192,-0.6629999999999999,-0.191,-0.6875496,14.896907999999998,-70.93220040000001,70.49675232,35.04784086,18.60967584
3.29,329,0.19399999999999998,-0.652,-0.201,-2.6356068,11.0580894,-73.10944079999999,70.37070156,35.76403836,18.43778844
3.3,330,0.195,-0.638,-0.187,-2.5783110000000002,8.9954406,-75.51586440000001,70.22173248,36.48596544,18.23725314
3.31,331,0.2,-0.627,-0.17300000000000001,-2.6356068,8.8235532,-78.4379502,70.05557466,37.24799958000001,18.01379952
3.32,332,0.192,-0.611,-0.161,-3.0366774,9.9121734,-81.18814859999998,69.88368726,38.03868162,17.78461632
3.33,333,0.18600000000000005,-0.5920000000000001,-0.155,-3.7242269999999995,12.2040054,-82.90702259999998,69.71179986,38.8465524,17.566892279999998
3.34,334,0.18,-0.5770000000000001,-0.136,-3.8388186,13.6936962,-83.3080932,69.53991246000001,39.66588234,17.36635698
3.3499999999999996,335,0.158,-0.57,-0.125,-4.8128472,13.3499214,-82.79243100000002,69.35083632,40.46802354,17.15436252
3.36,336,0.146,-0.564,-0.126,-6.8182002000000015,12.1467096,-82.39136040000002,69.1273827,41.27589432,16.92517932
3.3699999999999997,337,0.129,-0.5660000000000001,-0.128,-9.3392154,9.682990199999999,-82.2767688,68.85236286,42.06657636,16.65588906
3.38,338,0.114,-0.564,-0.12,-12.3758928,7.906820400000001,-82.90702259999998,68.52004722,42.86298798,16.35222132
3.3899999999999997,339,0.11699999999999999,-0.5539999999999999,-0.129,-17.0741484,8.5370742,-83.9956428,68.13043578,43.66512918,16.03709442
3.4,340,0.129,-0.528,-0.16899999999999998,-22.517249399999997,9.9694692,-86.1728832,67.67779895999999,44.47872954,15.721967520000002
3.4099999999999997,341,0.147,-0.502,-0.179,-25.8977016,10.5424272,-88.63660259999996,67.17359592,45.32670738,15.3839223
3.42,342,0.14,-0.47200000000000003,-0.166,-27.501984000000004,10.026765,-91.21491359999999,66.61782666,46.19760354,15.00577002
3.4299999999999997,343,0.11900000000000001,-0.43799999999999994,-0.138,-27.8457588,8.9954406,-93.6213372,66.02767992,47.07995886000001,14.581781099999999
3.44,344,0.08800000000000001,-0.40299999999999997,-0.08900000000000001,-28.0176462,9.396511199999999,-95.8558734,65.40315569999999,47.97950292,14.12914428
3.4499999999999997,345,0.076,-0.381,-0.048,-28.5906042,13.750992000000002,-97.8612264,64.79582022,48.9019653,13.70515536
3.46,346,0.078,-0.365,-0.017,-29.736520199999998,16.8449652,-99.121734,64.17702557999999,49.85880516,13.2926256
3.4699999999999998,347,0.052000000000000005,-0.33799999999999997,0.003,-30.595957199999997,18.506543399999998,-99.4655088,63.53531262,50.81564502,12.86863668
3.48,348,-0.001,-0.301,0.004,-30.595957199999997,18.334656,-99.9238752,62.87068134,51.77821446,12.41599986
3.4899999999999998,349,-0.049,-0.268,-0.008,-30.997027799999998,18.7357266,-101.81463659999999,62.16594299999999,52.75224306,11.92898556
3.5,350,-0.059000000000000004,-0.24600000000000002,-0.031,-33.3461556,22.1161788,-104.22106020000001,61.43255676,53.74918998,11.44197126
3.51,351,-0.027999999999999997,-0.23,-0.057999999999999996,-37.0703826,27.559279800000002,-106.74207539999999,60.6762522,54.8034327,10.97787528
3.52,352,0.057,-0.182,-0.07200000000000001,-41.3675676,31.054323600000004,-109.148499,59.86265184,55.88059374000001,10.50804972
3.53,353,0.14300000000000002,-0.128,-0.08800000000000001,-46.409597999999995,31.1689152,-112.4143596,58.93445988,56.99213225999999,9.969469199999999
3.54,354,0.11199999999999999,-0.094,-0.107,-51.0505578,29.67922440000001,-113.67486720000001,57.88021716000001,58.09221162,9.3392154
3.55,355,-0.067,-0.027999999999999997,-0.146,-53.39968560000001,29.4500412,-112.0705848,56.74003074,59.16937266,8.65739538
3.56,356,-0.3,0.05,-0.21,-54.08723520000001,27.3300966,-108.86202,55.54827810000001,60.20642664,7.91254998
3.57,357,-0.44799999999999995,0.084,-0.07200000000000001,-47.6128098,47.0398518,-104.22106020000001,54.69457067999999,61.30650599999999,7.500020219999999
3.58,358,-0.5870000000000001,0.063,0.146,-50.5348956,94.53807,-99.981171,54.54560160000001,62.63003898,7.929738719999999
3.59,359,-0.7859999999999999,0.121,0.223,-60.7908438,143.4113874,-98.835255,55.14147792,64.21140306000001,9.30483792
3.5999999999999996,360,-1.051,0.254,0.305,-71.90622900000002,199.5039756,-103.705398,56.73430116,66.11362362,11.89460808
3.61,361,-1.111,0.41,0.505,-75.00020219999998,284.6455344,-116.88343200000001,60.31528866,68.50285848,16.6444299
3.6199999999999997,362,-0.873,0.575,0.746,-75.8596392,340.5089394,-139.85904779999998,66.08497572,71.17284276000002,23.65743582
3.63,363,-0.02,0.653,0.84,-65.66098679999999,380.84518260000004,-175.55433119999995,74.93144724,73.97460738,33.684200819999994
3.6399999999999997,364,2.193,0.19699999999999998,0.787,-54.7747848,390.92924339999996,-195.378678,87.74851770000002,76.38103097999998,47.56697316
3.65,365,3.9960000000000004,0.28600000000000003,-0.11599999999999999,-72.82296179999999,325.6120314,-224.54224019999998,102.04954938,78.24887406,63.03110958
3.6599999999999997,366,3.9960000000000004,2.593,-2.1830000000000003,-122.38382879999999,139.17149819999997,-386.1163962,114.68327327999998,81.42879096,77.17171302
3.67,367,3.9960000000000004,3.332,0.55,-57.63957480000001,-77.40662579999999,-541.3307183999998,138.63291768000002,86.32185228,101.80890702
3.6799999999999997,368,3.9960000000000004,1.329,2.161,112.93002179999999,207.7545708,-435.0470094,-158.47445322,84.79778400000002,163.71701892000004
3.69,369,3.9960000000000004,2.5810000000000004,0.48700000000000004,-17.475219,278.40029219999997,-366.80771160000006,-144.4713597,80.63810892000002,178.04669850000005
3.6999999999999997,370,3.9960000000000004,2.9789999999999996,1.165,9.6256944,263.04501780000004,-284.93201339999996,-141.25133574,76.89669318,-178.72851852
3.71,371,3.8369999999999997,2.1069999999999998,1.018,35.695283399999994,191.13878880000001,-176.184585,-140.44346496,74.34703008,-178.24150422
3.7199999999999998,372,3.0269999999999997,0.36200000000000004,1.179,-30.4813656,206.0356968,-54.8893764,-143.6978664,72.44480952,178.7056002
3.73,373,3.275,-0.42,0.604,-40.2789474,187.5291534,11.0580894,-147.69711324,71.01241452000002,174.9527253
3.7399999999999998,374,3.048,-0.46399999999999997,0.64,16.7303736,124.44647759999998,10.2559482,-149.67954791999995,70.02692676,172.68381162
3.75,375,2.614,-0.218,0.272,16.2147114,48.7587258,1.4896908000000002,-150.24677634,69.62585616,171.9160479
3.76,376,1.675,0.11900000000000001,0.687,41.9978214,-12.5477802,-9.2819196,-149.42744639999995,69.67742238,172.33430724
3.77,377,1.3519999999999999,0.33299999999999996,0.588,50.420303999999994,-19.0222056,-25.55392680000001,-148.04661761999995,69.69461112,173.25104004
3.78,378,0.935,0.425,0.409,50.305712400000004,-22.517249399999997,-23.14750320000001,-146.67151842,69.74617734,174.17350242
3.79,379,0.445,0.536,0.45,60.045998399999995,-29.9084076,-16.4438946,-145.22193468,69.88941684,175.06731689999995
3.8,380,0.203,0.515,0.335,67.83822719999999,-15.5844576,-18.162768600000003,-143.84683548,69.8722281,175.78924398
3.81,381,-0.008,0.5329999999999999,0.485,73.6823988,-8.5370742,-23.835052800000003,-142.44308838,69.7862844,176.48825274
3.82,382,0.001,0.486,0.473,75.8023434,-0.057295800000000015,-19.136797199999997,-141.26852448,69.66023364,176.91797124
3.83,383,0.20199999999999999,0.546,0.475,76.4325972,5.1566220000000005,-16.272007199999994,-140.24865924,69.50553498000001,177.18153192
3.84,384,0.47100000000000003,0.38299999999999995,0.474,77.5785132,5.6149884000000005,-10.026765,-139.36057434,69.39094338,177.29039394
3.8499999999999996,385,0.672,0.149,0.44799999999999995,77.2920342,-1.0886202,2.6929026,-138.65583600000002,69.39667296,177.21017981999995
3.86,386,0.638,0.18,0.424,66.9214944,-9.1100322,7.448453999999999,-137.95682724,69.4998054,177.22736856
3.8699999999999997,387,0.4920000000000001,0.231,0.27699999999999997,59.35844880000001,-14.7823164,5.3285094000000015,-137.18906352,69.63731532,177.40498554
3.88,388,0.581,0.025,0.244,56.149884,-22.6891368,13.120738199999998,-136.4499477,69.87795768,177.58260252
3.8899999999999997,389,0.534,0.149,0.264,44.690723999999996,-26.1841806,13.407217200000002,-135.74520936,70.14151836,177.84043362
3.9,390,0.5489999999999999,0.317,0.252,37.52874900000001,-22.5745452,11.5737516,-135.12641472,70.35924240000001,178.09253514
3.9099999999999997,391,0.624,0.361,0.24100000000000002,32.085648000000006,-20.05353,12.891555,-134.64513,70.58269602,178.25296338
3.92,392,0.583,0.402,0.261,26.069589,-17.246035799999998,11.8602306,-134.25551855999998,70.78323132,178.37901414
3.9299999999999997,393,0.584,0.474,0.306,22.91832,-10.657018800000001,9.6256944,-133.99195788,70.92074124,178.41339162
3.94,394,0.706,0.466,0.331,20.2827132,-5.0993262,7.5630456000000015,-133.83152964,71.00668494,178.3618254
3.9499999999999997,395,0.667,0.55,0.37799999999999995,14.32395,-1.0886202,4.4690724,-133.56223938,70.8749046,178.47068742000005
3.96,396,0.736,0.652,0.389,11.1153852,3.7242269999999995,-1.0313244000000001,-133.51067315999998,70.84052712,178.40766204000005
3.9699999999999998,397,0.8540000000000001,0.655,0.396,9.682990199999999,7.6203414,-4.010706000000001,-133.49348442000002,70.760313,178.32171834000005
3.98,398,0.9470000000000001,0.5770000000000001,0.408,6.703608600000001,9.0527364,-3.3231564,-133.5565098,70.6743693,178.18993799999996
3.9899999999999998,399,0.932,0.512,0.391,2.1772404,9.2819196,-2.6929026,-133.67683098,70.59415518,178.03523934
4.0,400,0.934,0.423,0.376,0.0,9.682990199999999,-0.6302538000000001,-133.8429888,70.45664526,177.85762236
4.01,401,0.992,0.42200000000000004,0.389,-3.5523396000000003,11.1153852,0.057295800000000015,-134.11227906,70.38216072,177.61697999999996
4.02,402,1.001,0.439,0.39299999999999996,-4.3544808,10.7716104,1.6042823999999998,-134.41021722,70.32486492,177.34768974
4.03,403,1.0590000000000002,0.436,0.379,-4.3544808,8.5370742,5.443101,-134.7310737,70.30767618000002,177.04975158
4.04,404,1.133,0.39399999999999996,0.382,-4.2398892,4.9847346,11.401864199999999,-135.09776682,70.35351282,176.70597678
4.05,405,1.138,0.40700000000000003,0.364,-7.6203414,1.145916,16.558486199999994,-135.51602616,70.45091568,176.35074282
4.06,406,1.162,0.41100000000000003,0.314,-10.1986524,-6.1879464,22.345361999999998,-135.94001508,70.65145097999998,176.00696802
4.07,407,1.1059999999999999,0.429,0.342,-9.3392154,-14.5531332,30.4240698,-136.364004,70.96657788,175.65746364
4.08,408,1.0979999999999999,0.44799999999999995,0.397,-4.7555514,-17.4179232,36.32553720000001,-136.81664082,71.33900058,175.22774513999997
4.09,409,1.127,0.41,0.40700000000000003,-0.286479,-12.261301199999998,42.97185,-137.49273126,71.71715286,174.51154763999997
4.1,410,1.155,0.419,0.4370000000000001,2.8074942000000003,-9.453807,47.0398518,-138.32352036,72.08957556,173.60627399999996
4.109999999999999,411,1.1340000000000001,0.354,0.419,4.583664,-5.9014674000000005,51.68081160000001,-139.35484476,72.46772784,172.47181716
4.12,412,1.0959999999999999,0.327,0.307,2.6356068,-6.5317212,53.7434604,-140.49503118,72.86306886,171.24568704
4.13,413,1.107,0.293,0.212,1.2605076000000002,-14.4958374,53.5142772,-141.52635558,73.3099761,170.15133726
4.14,414,1.063,0.239,0.172,1.6615782,-27.3300966,52.425657,-142.31130804,73.83709746000002,169.31481858
4.1499999999999995,415,1.001,0.162,0.12300000000000001,2.4064236,-44.6334282,48.0138804,-142.62070536,74.47881042,168.95958462000004
4.16,416,0.955,0.046,0.062,3.380452200000001,-56.72284200000001,46.00852740000001,-142.61497577999995,75.19500792,168.91947756
4.17,417,0.9079999999999999,0.042,0.012,-0.7448454000000001,-73.625103,41.9405256,-142.09931358,76.01433786,169.44659892
4.18,418,0.863,0.11800000000000001,-0.003,-1.145916,-83.36538900000002,36.096354,-141.0622596,76.86804528,170.51230080000005
4.1899999999999995,419,0.8290000000000001,0.10800000000000001,0.044000000000000004,6.2452422,-83.65186800000002,36.898495200000006,-139.82467032,77.7217527,171.70405344
4.2,420,0.8340000000000001,0.141,0.121,9.9121734,-75.9742308,37.757932200000006,-138.65010642,78.52389389999998,172.79267364
4.21,421,0.907,0.121,0.177,12.1467096,-65.4890994,39.304918799999996,-137.73337362,79.25155056000001,173.59481483999997
4.22,422,0.8440000000000001,0.096,0.214,11.745639,-57.8114622,39.8778768,-137.01717612,79.92764100000002,174.19069116
4.2299999999999995,423,0.903,0.113,0.198,9.396511199999999,-51.279740999999994,36.7839036,-136.37546316,80.54070606,174.73500126
4.24,424,0.868,0.08,0.188,9.5111028,-48.6441342,33.5753388,-135.63061776,81.10793448000003,175.38817338
4.25,425,0.846,-0.021,0.166,12.7196676,-44.34694920000001,34.3201842,-135.05765976,81.65224458,175.82362146
4.26,426,0.8640000000000001,-0.012,0.151,9.740286,-40.8519054,31.9710564,-134.45605386,82.15071803999999,176.33355408
4.27,427,0.905,0.019,0.145,8.8235532,-37.7006364,29.621928600000004,-133.83152964,82.61481402000003,176.86067544
4.28,428,0.991,0.069,0.134,8.8235532,-33.231564,25.84040580000001,-133.20127584000002,83.0216142,177.40498554
4.29,429,1.053,0.053,0.10300000000000001,9.453807,-29.9657034,23.5485738,-132.56529246,83.38830732,177.93783648000004
4.3,430,1.091,0.06,0.102,6.417129599999999,-28.934378999999996,21.4286292,-131.83190622,83.73208212,178.60819734
4.31,431,1.117,0.065,0.049,4.297185,-27.501984000000004,19.308684600000007,-131.01830586,84.04720902,179.38169064
4.32,432,1.097,0.047,0.064,5.3858052,-33.403451399999994,16.902261,-129.48277842,84.38525424,-179.12958912
4.33,433,1.103,0.026000000000000002,0.08900000000000001,6.4744254,-33.6326346,12.834259199999998,-127.46023668,84.68319240000002,-177.17007275999995
4.34,434,1.1320000000000001,0.019,0.027999999999999997,4.1825934,-30.65325300000001,9.1100322,-125.26580754,84.92956434,-175.01575068
4.35,435,1.0979999999999999,0.005,-0.019,2.6356068,-31.741873200000004,6.3025379999999975,-122.50987956000002,85.15874754000002,-172.27701144
4.36,436,1.1059999999999999,0.002,-0.017,-0.11459160000000004,-31.627281600000003,3.7815228,-119.45028384,85.34782368,-169.21741572
4.37,437,1.0859999999999999,0.004,0.004,-2.7501984,-31.6845774,1.7761698000000001,-116.05837248,85.50252234,-165.78539730000003
4.38,438,1.062,0.02,-0.006,-2.1772404,-34.091001,-1.5469866,-111.97318194,85.61711394,-161.67155885999995
4.39,439,1.0490000000000002,0.008,-0.009000000000000001,-1.2605076000000002,-35.3515086,-5.0993262,-107.38951794,85.68013932,-157.06497654
4.3999999999999995,440,1.044,-0.01,-0.005,-3.4377480000000005,-32.658606,-8.3651868,-102.92617512,85.6858689,-152.55579708
4.41,441,1.01,-0.043,-0.024,-6.6463128000000005,-30.7105488,-10.599723,-98.76650004,85.63430267999998,-148.32736704
4.42,442,0.9490000000000001,-0.027000000000000003,-0.036000000000000004,-10.599723,-31.111619399999995,-13.464512999999998,-94.69276866,85.52544065999999,-144.12758490000004
4.43,443,0.885,0.009000000000000001,-0.040999999999999995,-13.2926256,-30.997027799999998,-16.902261,-90.85395006,85.36501242,-140.15125638
4.4399999999999995,444,0.828,0.042,-0.049,-15.4125702,-30.137590799999998,-19.7097552,-87.4333908,85.15874754000002,-136.55880972
4.45,445,0.787,0.069,-0.059000000000000004,-15.4125702,-27.788463,-20.2827132,-84.50557542,84.92956434,-133.47056609999998
4.46,446,0.763,0.10400000000000001,-0.08,-14.7250206,-24.350715,-20.454600600000006,-82.27103922,84.69465156,-131.07560166
4.47,447,0.757,0.122,-0.098,-13.2353298,-19.8243468,-19.9962342,-80.66102724,84.46546836,-129.33380934
4.4799999999999995,448,0.745,0.126,-0.102,-11.802934800000001,-14.1520626,-18.334656,-79.69272822,84.25920348,-128.23945956
4.49,449,0.762,0.134,-0.09699999999999999,-9.224623800000002,-7.7922288,-16.673077799999998,-79.33749426,84.07585692,-127.78682274
4.5,450,0.7829999999999999,0.138,-0.092,-6.589017,-3.4950437999999995,-15.297978599999999,-79.22290266,83.90396952,-127.60347618
4.51,451,0.828,0.136,-0.081,-3.9534102,-0.286479,-13.5791046,-79.46927459999998,83.77218918,-127.80974106
4.52,452,0.867,0.139,-0.08199999999999999,-2.2345362,1.3178034,-11.6310474,-79.79586065999997,83.66332716000002,-128.11913838
4.53,453,0.894,0.147,-0.076,-0.9167328000000001,1.7188740000000002,-10.1413566,-80.11671714,83.5659243,-128.4285357
4.54,454,0.935,0.15,-0.062,0.2291832000000001,2.6356068,-8.479778399999999,-80.4719511,83.48571018,-128.78949924
4.55,455,0.976,0.157,-0.048,0.7448454000000001,4.583664,-6.8182002000000015,-80.83291464,83.3940369,-129.15619236
4.56,456,1.014,0.172,-0.042,1.0313244000000001,7.0473834,-4.7555514,-81.48035718,83.35965941999999,-129.82082364
4.57,457,1.048,0.18100000000000002,-0.039,1.6042823999999998,8.7662574,-2.6929026,-82.23093216,83.34820026,-130.59431694
4.58,458,1.069,0.177,-0.033,1.8334656000000005,8.880849000000003,-0.9740286,-82.97004798,83.34820026,-131.35635108
4.59,459,1.082,0.168,-0.034,1.5469866,7.6776372,0.40107059999999994,-83.60603136,83.36538900000002,-132.00952320000002
4.6,460,1.083,0.162,-0.036000000000000004,1.0886202,5.042030400000002,1.6615782,-83.85813288,83.35965941999999,-132.27308388
4.61,461,1.069,0.157,-0.040999999999999995,0.7448454000000001,1.7761698000000001,2.4064236,-83.97845406,83.38257774,-132.40486422
4.62,462,1.056,0.152,-0.038,0.7448454000000001,-0.1718874,2.9220858,-83.92688783999998,83.41122564,-132.35902758
4.63,463,1.046,0.146,-0.031,1.2605076000000002,-1.145916,3.4377480000000005,-83.77791876,83.44560312,-132.22724724
4.64,464,1.036,0.145,-0.024,2.3491277999999998,-1.432395,4.1825934,-83.5945722,83.48571018,-132.06108942
4.6499999999999995,465,1.0290000000000001,0.14300000000000002,-0.02,3.9534102,-2.0626488000000003,4.9847346,-83.28517488,83.5086285,-131.79179915999998
4.66,466,1.028,0.13699999999999998,-0.012,4.7555514,-3.0939732,5.72958,-82.90702259999998,83.5659243,-131.4652131
4.67,467,1.022,0.13,0.0,5.2139178,-4.5263682,6.2452422,-82.39136040000002,83.61749052,-131.00111712
4.68,468,1.013,0.125,0.017,6.0733548,-5.2139178,6.5317212,-81.79548408,83.67478632,-130.4625366
4.6899999999999995,469,1.0170000000000001,0.121,0.025,6.8182002000000015,-4.8701430000000006,6.3025379999999975,-81.21106692,83.72635254,-129.94687439999998
4.7,470,1.025,0.115,0.03,7.2765666,-4.7555514,5.9014674000000005,-80.76415968,83.77218918,-129.56872212000002
4.71,471,1.0270000000000001,0.11199999999999999,0.035,7.0473834,-4.6409598,5.443101,-80.20266084,83.81802582,-129.07597823999998
4.72,472,1.0270000000000001,0.107,0.04,6.4744254,-4.7555514,4.9847346,-79.63543242,83.85813288,-128.57177520000002
4.7299999999999995,473,1.023,0.107,0.04,6.2452422,-5.5003968,4.297185,-79.00517862,83.88678078000002,-128.00454678
4.74,474,1.01,0.10400000000000001,0.038,6.130650599999999,-6.3025379999999975,3.380452200000001,-78.31762902,83.90396952,-127.37429298000002
4.75,475,1.013,0.10300000000000001,0.031,6.1879464,-6.5317212,2.4064236,-77.8076964,83.9096991,-126.92738574
4.76,476,1.01,0.10300000000000001,0.03,6.0160589999999985,-7.161975,1.7761698000000001,-77.06858058,83.9096991,-126.24556572
4.77,477,1.013,0.107,0.027000000000000003,5.9014674000000005,-7.6203414,1.145916,-76.30654644,83.90396952,-125.54082738000002
4.78,478,1.0090000000000001,0.105,0.019,6.130650599999999,-7.8495246,0.6302538000000001,-75.53305314,83.88678078000002,-124.83035946
4.79,479,1.0090000000000001,0.10099999999999999,0.009000000000000001,5.7868758000000025,-7.6776372,0.0,-74.7996669,83.86386246,-124.14853944
4.8,480,1.008,0.1,-0.006,4.9847346,-7.6203414,-0.8021411999999999,-74.12930604,83.82948498,-123.52974479999999
4.81,481,1.008,0.106,-0.027999999999999997,4.297185,-7.734933000000002,-1.3178034,-73.4532156,83.7951075,-122.89376142
4.82,482,1.011,0.111,-0.039,3.6669312000000014,-7.906820400000001,-1.432395,-72.77712516,83.75500044,-122.25204846
4.83,483,1.018,0.11199999999999999,-0.052000000000000005,3.3231564,-8.9954406,-1.3178034,-72.02082060000002,83.7091638,-121.52439180000002
4.84,484,1.0070000000000001,0.11,-0.077,2.6929026,-11.917526400000002,-1.3750992,-71.03533284,83.65759758,-120.56182236000002
4.85,485,1.0,0.10099999999999999,-0.081,2.7501984,-14.381245800000002,-1.6615782,-69.73471817999999,83.58311304,-119.28985559999998
4.86,486,0.995,0.096,-0.077,2.8074942000000003,-14.5531332,-1.9480572,-68.59453176,83.5086285,-118.16685791999998
4.87,487,0.993,0.096,-0.073,2.6356068,-12.834259199999998,-2.6929026,-67.63769190000001,83.43414396,-117.23293638
4.88,488,0.992,0.091,-0.069,2.86479,-10.313244000000001,-3.8388186,-66.93295356,83.35392984,-116.55684594
4.89,489,0.987,0.08900000000000001,-0.055999999999999994,3.2085647999999996,-8.136003599999999,-4.7555514,-66.44020968,83.27944529999998,-116.09274996
4.8999999999999995,490,0.986,0.091,-0.043,2.7501984,-5.844171599999999,-5.3285094000000015,-66.14227152,83.20496076,-115.8234597
4.91,491,0.986,0.09699999999999999,-0.037000000000000005,2.0626488000000003,-3.4377480000000005,-5.7868758000000025,-66.05632782,83.1362058,-115.76043432000002
4.92,492,0.992,0.106,-0.038,1.432395,-1.432395,-6.3598338,-66.15373068,83.07318042,-115.86929633999998
4.93,493,0.997,0.12300000000000001,-0.044000000000000004,1.0313244000000001,0.1718874,-6.6463128000000005,-66.37718430000001,83.01015504,-116.10420912
4.9399999999999995,494,0.997,0.13699999999999998,-0.047,0.8594370000000001,1.432395,-6.4744254,-66.68085204,82.95858882,-116.4250656
4.95,495,0.995,0.14800000000000002,-0.049,0.6302538000000001,2.6356068,-6.130650599999999,-67.11630012,82.87264512,-116.86624326
4.96,496,0.992,0.156,-0.055,0.0,3.4950437999999995,-5.2139178,-67.53455946,82.84399721999998,-117.28450259999998
4.97,497,0.9890000000000001,0.16,-0.069,-0.6302538000000001,3.4377480000000005,-3.8961144,-67.90125258,82.82107890000002,-117.65119572
4.9799999999999995,498,0.9790000000000001,0.159,-0.08,-0.6302538000000001,1.7761698000000001,-2.291832,-68.11324704,82.80389016000002,-117.85173102
4.99,499,0.968,0.155,-0.087,-0.9167328000000001,-0.286479,-0.9740286,-68.1247062,82.79243100000002,-117.8574606
5.0,500,0.9590000000000001,0.152,-0.091,-1.2032118,-1.6042823999999998,0.0,-67.57466652000001,82.66638024,-117.29596176
5.01,501,0.951,0.146,-0.092,-0.9167328000000001,-2.4637194,1.0313244000000001,-67.37986079999999,82.66638024,-117.0839673
5.02,502,0.9470000000000001,0.142,-0.09,-0.6302538000000001,-2.9220858,2.0053530000000004,-67.11630012,82.67210982,-116.81467704000002
5.03,503,0.953,0.139,-0.08199999999999999,0.11459160000000004,-2.8074942000000003,2.86479,-66.82409154000001,82.68929856,-116.52246846
5.04,504,0.9590000000000001,0.133,-0.078,0.8594370000000001,-1.7761698000000001,3.6096353999999997,-66.5777196,82.71221688,-116.28182610000002
5.05,505,0.9620000000000001,0.127,-0.076,1.0313244000000001,-0.572958,3.9534102,-66.18810816,82.70075771999998,-115.90367382
5.06,506,0.97,0.126,-0.073,1.0313244000000001,0.9167328000000001,4.583664,-66.09643487999999,82.74659436,-115.8234597
5.07,507,0.976,0.133,-0.069,1.4896908000000002,2.291832,4.8128472,-66.0907053,82.79816058,-115.83491886
5.08,508,0.987,0.128,-0.066,1.6615782,3.0939732,4.9847346,-66.13654194,82.85545637999998,-115.89221466
5.09,509,0.986,0.122,-0.053,1.5469866,3.2658606,5.443101,-66.18237858,82.91848175999998,-115.95524004
5.1,510,0.991,0.12300000000000001,-0.055,0.8594370000000001,3.9534102,5.6149884000000005,-66.25113354,82.97004798,-116.03545416
5.11,511,0.993,0.12,-0.054000000000000006,0.9167328000000001,4.1825934,5.844171599999999,-66.35426598000001,83.03880294000002,-116.15004575999998
5.12,512,0.995,0.11599999999999999,-0.05,1.2605076000000002,4.4690724,6.0160589999999985,-66.47458716,83.11328748,-116.28182610000002
5.13,513,1.001,0.113,-0.042,1.3750992,4.8128472,5.844171599999999,-66.62928581999999,83.18777202,-116.4537135
5.14,514,1.01,0.111,-0.037000000000000005,1.0886202,5.443101,5.72958,-66.84128028,83.26225656,-116.67716712
5.1499999999999995,515,1.015,0.109,-0.036000000000000004,0.9740286,5.6149884000000005,5.6149884000000005,-67.11057054,83.33101152,-116.95791654
5.16,516,1.0170000000000001,0.106,-0.031,0.5156622000000001,6.417129599999999,5.2712136,-67.43142702,83.40549606,-117.28450259999998
5.17,517,1.021,0.102,-0.028999999999999998,-0.1718874,7.6203414,4.8701430000000006,-67.87260468,83.4799806,-117.72568026000002
5.18,518,1.021,0.1,-0.034,-0.9740286,8.307891,4.5263682,-68.39972604,83.55446514,-118.24707204
5.1899999999999995,519,1.018,0.098,-0.037000000000000005,-1.3750992,8.59437,4.1252976000000015,-68.97841362,83.62894968,-118.80857088
5.2,520,1.011,0.094,-0.039,-1.8334656000000005,8.59437,3.4377480000000005,-69.54564203999999,83.68624548,-119.36434014
5.21,521,1.006,0.094,-0.042,-2.0626488000000003,8.4224826,2.5210152000000003,-70.19308457999999,83.74354128,-119.98886436
5.22,522,1.001,0.092,-0.046,-2.0626488000000003,8.136003599999999,1.6615782,-70.8462567,83.78937792,-120.62484774
5.2299999999999995,523,0.997,0.094,-0.045,-2.0626488000000003,7.5630456000000015,0.8021411999999999,-71.48796966,83.82375540000002,-121.24937196
5.24,524,0.9940000000000001,0.096,-0.045,-1.6615782,6.875496000000001,-0.11459160000000004,-72.10676430000002,83.84667372,-121.85097786
5.25,525,0.993,0.10099999999999999,-0.042,-1.432395,6.5317212,-0.9740286,-72.59950818,83.84094414,-122.33799216
5.26,526,0.993,0.10400000000000001,-0.04,-1.7188740000000002,6.4744254,-1.4896908000000002,-73.2240324,83.84667372,-122.94532764
5.27,527,0.992,0.107,-0.035,-1.2605076000000002,6.2452422,-1.432395,-73.81990872,83.85240329999998,-123.52974479999999
5.28,528,0.99,0.11199999999999999,-0.033,-1.145916,5.5576926,-1.432395,-74.35848924,83.85240329999998,-124.05686616
5.29,529,0.99,0.113,-0.034,-0.8594370000000001,4.583664,-1.432395,-74.80539647999998,83.85240329999998,-124.49804382
5.3,530,0.99,0.11599999999999999,-0.031,-0.6302538000000001,3.5523396000000003,-1.3750992,-75.09187548,83.80656666,-124.77306366
5.31,531,0.993,0.11900000000000001,-0.026000000000000002,-0.286479,2.86479,-1.0886202,-75.37262489999998,83.80656666,-125.05381308
5.32,532,0.996,0.122,-0.02,0.3437748,2.5783110000000002,-0.7448454000000001,-75.61326726,83.80656666,-125.30018502
5.33,533,1.002,0.122,-0.016,0.8594370000000001,2.5210152000000003,-0.5156622000000001,-75.84245046,83.80656666,-125.54082738000002
5.34,534,1.0090000000000001,0.122,-0.013999999999999999,1.0886202,2.4637194,-0.1718874,-76.05444492,83.81229624,-125.764281
5.35,535,1.014,0.121,-0.012,1.2605076000000002,2.291832,0.057295800000000015,-76.38676056,83.77218918,-126.10805580000002
5.36,536,1.0170000000000001,0.121,-0.008,1.3750992,1.7188740000000002,0.40107059999999994,-76.5185409,83.77791876,-126.2512953
5.37,537,1.022,0.122,-0.004,1.7761698000000001,1.2605076000000002,0.7448454000000001,-76.59875502,83.78937792,-126.35442774
5.38,538,1.026,0.121,-0.004,2.291832,0.9167328000000001,0.8594370000000001,-76.64459166,83.80083708,-126.4231827
5.39,539,1.0290000000000001,0.11900000000000001,-0.003,2.7501984,0.7448454000000001,1.0313244000000001,-76.66178040000001,83.81229624,-126.46901934
5.3999999999999995,540,1.0270000000000001,0.11699999999999999,-0.003,2.9793816000000004,0.4583664000000001,1.0886202,-76.84512696,83.80083708,-126.6810138
5.41,541,1.026,0.115,-0.003,3.0939732,0.0,1.145916,-76.79356074,83.81229624,-126.66382506
5.42,542,1.023,0.11599999999999999,-0.003,3.2085647999999996,-0.572958,1.145916,-76.68469872,83.82375540000002,-126.58934052
5.43,543,1.02,0.113,-0.006999999999999999,3.0366774,-1.0886202,1.0313244000000001,-76.53572964,83.82948498,-126.46901934
5.4399999999999995,544,1.0190000000000001,0.111,-0.01,2.7501984,-1.3750992,1.0313244000000001,-76.36384224,83.83521456,-126.32577984
5.45,545,1.011,0.109,-0.015,2.291832,-1.7761698000000001,0.9167328000000001,-76.18622526,83.81229624,-126.17108118000002
5.46,546,1.003,0.107,-0.022000000000000002,1.7761698000000001,-1.9480572,0.6875496,-75.97996038,83.81802582,-125.98200504
5.47,547,0.9990000000000001,0.106,-0.027999999999999997,1.2605076000000002,-2.291832,0.5156622000000001,-75.75650676000002,83.81229624,-125.764281
5.4799999999999995,548,0.993,0.107,-0.035,1.0313244000000001,-2.4064236,0.3437748,-75.52159398,83.81229624,-125.54655696
5.49,549,0.992,0.107,-0.037000000000000005,0.8594370000000001,-2.2345362,0.2291832000000001,-75.30959952,83.80656666,-125.34029208
5.5,550,0.988,0.107,-0.040999999999999995,0.6875496,-1.9480572,0.2291832000000001,-74.70799362,83.74927086,-124.74441576
5.51,551,0.982,0.106,-0.045,0.6875496,-1.6615782,0.2291832000000001,-74.54756538,83.74927086,-124.58971709999999
5.52,552,0.978,0.106,-0.049,0.572958,-1.2605076000000002,0.286479,-74.42151462000002,83.74354128,-124.46939592
5.53,553,0.981,0.10800000000000001,-0.053,0.3437748,-0.6875496,0.1718874,-74.35848924,83.74354128,-124.40637054
5.54,554,0.982,0.11,-0.052000000000000005,0.3437748,-0.1718874,0.2291832000000001,-74.32984134,83.74927086,-124.38345222
5.55,555,0.981,0.109,-0.047,0.2291832000000001,-0.1718874,0.2291832000000001,-72.6224265,83.4799806,-122.67603738
5.56,556,0.986,0.11199999999999999,-0.04,-0.11459160000000004,0.057295800000000015,0.286479,-72.61669692,83.48571018,-122.67603738
5.57,557,0.993,0.11199999999999999,-0.038,-0.1718874,0.40107059999999994,0.40107059999999994,-72.64534482,83.49143975999998,-122.69895569999998
5.58,558,1.0,0.111,-0.039,-0.1718874,0.6875496,0.40107059999999994,-72.69118146,83.49716934,-122.74479233999998
5.59,559,0.998,0.11,-0.036000000000000004,-0.1718874,1.0886202,0.3437748,-72.77712516,83.50289891999998,-122.83073604
5.6,560,0.998,0.11199999999999999,-0.033,-0.1718874,1.6615782,0.3437748,-72.87452801999999,83.46852143999998,-122.91667974
5.61,561,0.998,0.11199999999999999,-0.027999999999999997,-0.1718874,1.5469866,0.40107059999999994,-72.98911962000003,83.47425102000003,-123.03700092
5.62,562,1.001,0.113,-0.025,-0.1718874,0.9740286,0.40107059999999994,-73.06360416,83.4799806,-123.11148546
5.63,563,0.9990000000000001,0.111,-0.024,-0.2291832000000001,0.8021411999999999,0.40107059999999994,-73.12662954,83.49143975999998,-123.16878126
5.64,564,0.997,0.111,-0.027000000000000003,-0.286479,1.145916,0.40107059999999994,-73.21257324000003,83.49716934,-123.25472496
5.6499999999999995,565,0.996,0.111,-0.031,-0.11459160000000004,1.3750992,0.40107059999999994,-73.28132819999998,83.45133270000002,-123.31775034
5.66,566,0.998,0.114,-0.027999999999999997,0.286479,1.3178034,0.40107059999999994,-73.37873106,83.45706228,-123.4151532
5.67,567,1.0,0.114,-0.026000000000000002,0.8021411999999999,1.2605076000000002,0.4583664000000001,-73.46467476,83.46852143999998,-123.51255606
5.68,568,1.003,0.113,-0.025,0.9167328000000001,1.2605076000000002,0.4583664000000001,-73.55061846,83.47425102000003,-123.60995892
5.6899999999999995,569,1.003,0.113,-0.023,0.9740286,1.2032118,0.5156622000000001,-73.625103,83.48571018,-123.69590262
5.7,570,1.002,0.111,-0.026000000000000002,0.8594370000000001,1.0886202,0.4583664000000001,-73.71677628,83.45133270000002,-123.79330548
5.71,571,1.001,0.11199999999999999,-0.027999999999999997,0.9740286,0.8594370000000001,0.6302538000000001,-73.76834249999997,83.45706228,-123.85633086
5.72,572,1.0,0.11199999999999999,-0.027999999999999997,0.9740286,0.7448454000000001,0.572958,-73.80844956,83.46852143999998,-123.90789708
5.7299999999999995,573,0.9990000000000001,0.111,-0.027000000000000003,0.9167328000000001,0.8021411999999999,0.572958,-73.8542862,83.47425102000003,-123.9594633
5.74,574,0.998,0.11,-0.026000000000000002,0.7448454000000001,0.9167328000000001,0.7448454000000001,-73.90585242,83.48571018,-124.02248868
5.75,575,0.998,0.11,-0.025,0.5156622000000001,0.9167328000000001,0.7448454000000001,-73.96314822000002,83.45706228,-124.07978448
5.76,576,1.0,0.11,-0.024,0.2291832000000001,0.9167328000000001,0.8594370000000001,-74.01471444,83.46279186000002,-124.13708028
5.77,577,1.0,0.111,-0.025,0.0,0.8594370000000001,1.0886202,-74.06055108000002,83.4799806,-124.1886465
5.78,578,1.0,0.11,-0.022000000000000002,-0.286479,0.572958,1.145916,-74.08919897999998,83.49143975999998,-124.20583524
5.79,579,1.002,0.109,-0.02,-0.7448454000000001,0.11459160000000004,1.145916,-74.07773982,83.50289891999998,-124.19437607999998
5.8,580,1.003,0.109,-0.02,-1.2605076000000002,-0.40107059999999994,1.2605076000000002,-74.07201024000003,83.49143975999998,-124.17145776
5.81,581,1.005,0.11,-0.025,-1.3750992,-1.0886202,1.3750992,-73.95741863999999,83.49716934,-124.03967742
5.82,582,1.002,0.11199999999999999,-0.028999999999999998,-1.6042823999999998,-1.2605076000000002,1.3178034,-73.83136787999999,83.5086285,-123.89643792
5.83,583,1.001,0.11,-0.035,-2.0053530000000004,-1.0313244000000001,1.2605076000000002,-73.73396502,83.52008766,-123.77611674
5.84,584,0.9990000000000001,0.109,-0.039,-2.1772404,-0.286479,1.3750992,-73.68812838,83.53154682,-123.71309136
5.85,585,0.995,0.109,-0.04,-1.7188740000000002,0.286479,1.432395,-73.51624097999998,83.51435808,-123.52401522
5.86,586,0.993,0.109,-0.036000000000000004,-1.2605076000000002,0.9740286,1.432395,-73.57926636,83.53154682,-123.56985186
5.87,587,0.9940000000000001,0.10800000000000001,-0.033,-1.0313244000000001,1.3178034,1.432395,-73.66521005999998,83.54873556,-123.6443364
5.88,588,0.998,0.10400000000000001,-0.028999999999999998,-1.0886202,1.5469866,1.3750992,-73.77407208,83.5659243,-123.74173926
5.89,589,1.002,0.10400000000000001,-0.024,-1.2032118,1.6042823999999998,1.2605076000000002,-73.88866368000002,83.58311304,-123.8448717
5.8999999999999995,590,1.005,0.10300000000000001,-0.023,-1.2032118,1.6615782,1.145916,-74.02044402,83.58884262000002,-123.97092246
5.91,591,1.008,0.105,-0.02,-1.145916,1.6615782,1.145916,-74.14649478,83.60603136,-124.08551406
5.92,592,1.0090000000000001,0.105,-0.02,-1.2605076000000002,1.5469866,0.9740286,-74.26681596,83.61749052,-124.1886465
5.93,593,1.0090000000000001,0.105,-0.021,-1.2605076000000002,1.0313244000000001,0.8594370000000001,-74.35275966,83.62894968,-124.25740146
5.9399999999999995,594,1.0070000000000001,0.106,-0.021,-1.3750992,0.6875496,0.8594370000000001,-74.3985963,83.64040884,-124.29177894
5.95,595,1.006,0.106,-0.021,-1.3178034,0.4583664000000001,0.8021411999999999,-74.47308084,83.61749052,-124.35480432
5.96,596,1.003,0.10800000000000001,-0.022000000000000002,-1.145916,0.286479,0.6875496,-74.49026957999997,83.62894968,-124.36053390000002
5.97,597,1.004,0.10800000000000001,-0.021,-0.8594370000000001,0.0,0.6302538000000001,-74.49026957999997,83.63467926,-124.34907474
5.9799999999999995,598,1.002,0.107,-0.018000000000000002,-0.7448454000000001,-0.286479,0.6302538000000001,-74.45016252,83.64040884,-124.3032381
5.99,599,1.0,0.106,-0.018000000000000002,-0.7448454000000001,-0.9740286,0.6302538000000001,-74.35275966,83.64040884,-124.19437607999998
6.0,600,0.9990000000000001,0.105,-0.019,-0.9167328000000001,-1.3178034,0.572958,-74.27827512,83.62322009999998,-124.11416196
6.01,601,0.997,0.106,-0.022000000000000002,-1.2032118,-1.6042823999999998,0.6302538000000001,-74.13503562,83.62322009999998,-123.95373372
6.02,602,0.996,0.107,-0.026000000000000002,-1.2605076000000002,-2.0053530000000004,0.6875496,-73.96314822000002,83.62322009999998,-123.76465758
6.03,603,0.996,0.10800000000000001,-0.026000000000000002,-1.2032118,-2.291832,0.7448454000000001,-73.75688333999999,83.62322009999998,-123.54693353999998
6.04,604,0.995,0.105,-0.027000000000000003,-1.2032118,-2.5210152000000003,0.7448454000000001,-73.53342971999999,83.62322009999998,-123.30629118
6.05,605,0.995,0.105,-0.028999999999999998,-1.2605076000000002,-2.5783110000000002,0.8594370000000001,-73.2526803,83.60603136,-123.01408259999998
6.06,606,0.997,0.107,-0.031,-1.3750992,-2.4637194,0.9167328000000001,-73.02922668,83.60603136,-122.77916982
6.07,607,0.996,0.105,-0.035,-1.432395,-2.1772404,0.9167328000000001,-72.83442096,83.60603136,-122.56717536
6.08,608,0.996,0.10400000000000001,-0.035,-1.4896908000000002,-1.7188740000000002,0.7448454000000001,-72.67972230000002,83.61176094,-122.39528796
6.09,609,0.997,0.105,-0.035,-1.3750992,-1.0313244000000001,0.8021411999999999,-72.58231943999998,83.61176094,-122.28642594
6.1,610,0.998,0.105,-0.034,-1.0886202,-0.5156622000000001,0.7448454000000001,-72.32448833999999,83.57738346,-122.0114061
6.11,611,0.996,0.105,-0.035,-0.8021411999999999,-0.057295800000000015,0.6875496,-72.3072996,83.58311304,-121.98848778
6.12,612,0.998,0.105,-0.036000000000000004,-0.572958,0.1718874,0.6302538000000001,-72.31302918,83.58884262000002,-121.98848778
6.13,613,0.9990000000000001,0.105,-0.035,-0.286479,0.3437748,0.572958,-72.33021792000002,83.5945722,-121.99994694
6.14,614,1.002,0.105,-0.033,-0.1718874,0.572958,0.572958,-72.37032497999998,83.60030178,-122.040054
6.15,615,1.003,0.10400000000000001,-0.03,-0.2291832000000001,0.4583664000000001,0.5156622000000001,-72.27292212,83.55446514,-121.94265114
6.16,616,1.002,0.102,-0.028999999999999998,-0.40107059999999994,0.286479,0.40107059999999994,-72.29584044,83.56019472,-121.95983988
6.17,617,1.003,0.102,-0.028999999999999998,-0.572958,0.286479,0.3437748,-72.31875876000002,83.5659243,-121.97129904
6.18,618,1.002,0.10400000000000001,-0.03,-0.6875496,0.286479,0.2291832000000001,-72.34167708,83.5659243,-121.98848778
6.1899999999999995,619,1.001,0.10400000000000001,-0.03,-0.6302538000000001,0.2291832000000001,0.2291832000000001,-72.35886581999998,83.57165388,-121.99994694
6.2,620,1.001,0.105,-0.03,-0.572958,0.0,0.1718874,-72.18697842,83.46279186000002,-121.81660038
6.21,621,1.003,0.106,-0.03,-0.286479,0.057295800000000015,0.2291832000000001,-72.18697842,83.46852143999998,-121.81660038
6.22,622,1.001,0.106,-0.027000000000000003,-0.057295800000000015,0.2291832000000001,0.2291832000000001,-72.19843758,83.46852143999998,-121.82805954
6.2299999999999995,623,0.9990000000000001,0.10400000000000001,-0.03,0.057295800000000015,0.1718874,0.286479,-72.20989674,83.47425102000003,-121.8395187
6.24,624,0.995,0.10400000000000001,-0.03,0.1718874,0.0,0.2291832000000001,-72.20416716,83.47425102000003,-121.83378912
6.25,625,0.995,0.106,-0.035,0.1718874,0.286479,0.057295800000000015,-71.75153034,83.37684816,-121.38115229999998
6.26,626,0.995,0.106,-0.034,0.057295800000000015,0.40107059999999994,0.11459160000000004,-71.78017824,83.38257774,-121.41552978
6.27,627,0.996,0.10800000000000001,-0.027999999999999997,-0.1718874,0.1718874,0.057295800000000015,-71.79736698,83.38257774,-121.43271852
6.28,628,1.001,0.10800000000000001,-0.027999999999999997,-0.40107059999999994,0.0,0.1718874,-71.80309656,83.38257774,-121.43271852
6.29,629,1.004,0.10400000000000001,-0.03,-0.3437748,-0.1718874,0.2291832000000001,-71.78017824,83.38830732,-121.40407062
6.3,630,1.004,0.10300000000000001,-0.031,-0.5156622000000001,-0.11459160000000004,0.1718874,-71.49369924,83.33101152,-121.11186204
6.31,631,1.001,0.102,-0.03,-0.572958,0.1718874,0.11459160000000004,-71.51088797999998,83.3367411,-121.1233212
6.32,632,1.001,0.105,-0.032,-0.5156622000000001,0.286479,0.1718874,-71.5338063,83.3367411,-121.14050994
6.33,633,1.004,0.106,-0.028999999999999998,-0.3437748,-0.057295800000000015,0.286479,-71.52234714,83.34247067999998,-121.12905078
6.34,634,1.0070000000000001,0.106,-0.024,-0.1718874,-0.6875496,0.40107059999999994,-71.45932176,83.34247067999998,-121.06029582
6.35,635,1.006,0.105,-0.023,-0.286479,-0.8021411999999999,0.5156622000000001,-71.51088797999998,83.33101152,-121.10613246
6.36,636,1.005,0.105,-0.028999999999999998,-0.3437748,-0.572958,0.3437748,-71.45359218,83.33101152,-121.04883665999998
6.37,637,1.004,0.106,-0.031,-0.1718874,-0.572958,0.3437748,-71.39629638,83.33101152,-120.98581128
6.38,638,1.003,0.106,-0.028999999999999998,0.057295800000000015,-0.8594370000000001,0.3437748,-71.31608226,83.33101152,-120.90559716
6.39,639,1.005,0.106,-0.027000000000000003,0.286479,-1.0886202,0.2291832000000001,-71.21867940000001,83.33101152,-120.81392388
6.4,640,1.0070000000000001,0.107,-0.027999999999999997,0.40107059999999994,-1.432395,0.2291832000000001,-71.10981738,83.3080932,-120.70506186
6.41,641,1.006,0.106,-0.027999999999999997,0.286479,-1.6615782,0.2291832000000001,-70.96657788,83.3080932,-120.56755194
6.42,642,1.004,0.106,-0.027999999999999997,0.057295800000000015,-1.7188740000000002,0.2291832000000001,-70.81760879999999,83.30236362,-120.41858286
6.43,643,1.001,0.105,-0.028999999999999998,0.0,-1.8334656000000005,0.3437748,-70.66291014,83.30236362,-120.25815462
6.4399999999999995,644,1.0,0.106,-0.03,-0.11459160000000004,-1.8907614,0.3437748,-70.50248189999998,83.29663404,-120.09772638
6.45,645,1.0,0.105,-0.031,-0.1718874,-1.8334656000000005,0.4583664000000001,-70.34778324,83.27371572000001,-119.93729814
6.46,646,0.9990000000000001,0.106,-0.032,-0.286479,-1.7188740000000002,0.572958,-70.19308457999999,83.27371572000001,-119.78259948
6.47,647,0.998,0.105,-0.035,-0.4583664000000001,-1.6042823999999998,0.572958,-70.04984508,83.27371572000001,-119.6336304
6.4799999999999995,648,0.996,0.10400000000000001,-0.035,-0.7448454000000001,-1.432395,0.572958,-69.9295239,83.27371572000001,-119.50185006
6.49,649,0.996,0.10400000000000001,-0.036000000000000004,-0.9740286,-1.2032118,0.572958,-69.82639146,83.27371572000001,-119.38725846
6.5,650,0.996,0.10300000000000001,-0.037000000000000005,-1.0886202,-0.9167328000000001,0.572958,-69.68888154,83.25652698,-119.24401896000002
6.51,651,0.996,0.10300000000000001,-0.036000000000000004,-1.145916,-0.4583664000000001,0.572958,-69.64877448000001,83.26225656,-119.18672316
6.52,652,0.998,0.102,-0.038,-1.145916,-0.1718874,0.5156622000000001,-69.62585616,83.26798613999998,-119.15234567999998
6.53,653,0.997,0.10099999999999999,-0.038,-1.432395,-0.11459160000000004,0.40107059999999994,-69.614397,83.26798613999998,-119.12369778
6.54,654,0.996,0.102,-0.039,-1.8334656000000005,0.11459160000000004,0.4583664000000001,-69.63158574,83.27371572000001,-119.12369778
6.55,655,0.996,0.102,-0.040999999999999995,-2.0626488000000003,0.4583664000000001,0.40107059999999994,-69.54564203999999,83.26225656,-119.01483575999998
6.56,656,0.997,0.10400000000000001,-0.044000000000000004,-1.9480572,0.3437748,0.40107059999999994,-69.58001952,83.26798613999998,-119.0320245
6.57,657,0.998,0.10400000000000001,-0.046,-1.6042823999999998,0.40107059999999994,0.3437748,-69.614397,83.27371572000001,-119.04921324
6.58,658,0.9990000000000001,0.10400000000000001,-0.043,-1.4896908000000002,0.8021411999999999,0.3437748,-69.68315196,83.27944529999998,-119.10077945999998
6.59,659,0.998,0.10300000000000001,-0.040999999999999995,-1.4896908000000002,0.9740286,0.40107059999999994,-69.7576365,83.28517488,-119.16380483999998
6.6,660,0.998,0.105,-0.039,-1.3178034,0.8594370000000001,0.40107059999999994,-69.77482524000001,83.27371572000001,-119.16380483999998
6.61,661,0.9990000000000001,0.10400000000000001,-0.035,-1.145916,0.6875496,0.40107059999999994,-69.82639146,83.28517488,-119.20964148
6.62,662,1.001,0.10400000000000001,-0.033,-1.2032118,0.8021411999999999,0.40107059999999994,-69.88941684,83.29090446000002,-119.25547812
6.63,663,1.001,0.10300000000000001,-0.032,-1.3178034,0.9167328000000001,0.3437748,-69.96390138000001,83.29663404,-119.3185035
6.64,664,1.0,0.10400000000000001,-0.032,-1.2032118,0.9740286,0.3437748,-70.0441155,83.30236362,-119.38725846
6.65,665,0.9990000000000001,0.10400000000000001,-0.033,-1.0886202,0.7448454000000001,0.3437748,-70.07849298,83.29090446000002,-119.41017678
6.66,666,0.998,0.105,-0.035,-0.8021411999999999,0.572958,0.40107059999999994,-70.12432962,83.29663404,-119.44455426000002
6.67,667,0.9990000000000001,0.105,-0.035,-0.572958,0.40107059999999994,0.40107059999999994,-70.15297752000001,83.30236362,-119.46747258
6.68,668,1.001,0.106,-0.035,-0.2291832000000001,0.3437748,0.40107059999999994,-70.17016626,83.3080932,-119.48466132
6.6899999999999995,669,1.003,0.106,-0.032,0.057295800000000015,0.40107059999999994,0.4583664000000001,-70.19308457999999,83.31382278,-119.50757964
6.7,670,1.004,0.107,-0.03,0.40107059999999994,0.40107059999999994,0.572958,-70.26183954,83.29090446000002,-119.5763346
6.71,671,1.006,0.105,-0.028999999999999998,0.7448454000000001,0.11459160000000004,0.7448454000000001,-70.23892122,83.29663404,-119.56487544
6.72,672,1.006,0.105,-0.026000000000000002,0.8021411999999999,0.0,0.8021411999999999,-70.21027332,83.3080932,-119.54195712
6.7299999999999995,673,1.0070000000000001,0.105,-0.025,0.9167328000000001,-0.057295800000000015,0.8021411999999999,-70.17016626,83.31382278,-119.51330922000002
6.74,674,1.006,0.10300000000000001,-0.027000000000000003,1.0313244000000001,-0.057295800000000015,0.6875496,-70.1300592,83.31955236,-119.48466132
6.75,675,1.006,0.102,-0.027999999999999997,0.9167328000000001,-0.2291832000000001,0.6875496,-70.10714088,83.3080932,-119.46747258
6.76,676,1.005,0.102,-0.028999999999999998,0.9167328000000001,-0.286479,0.572958,-70.05557466,83.31382278,-119.42736552
6.77,677,1.005,0.10099999999999999,-0.031,0.8021411999999999,-0.5156622000000001,0.3437748,-69.99254927999999,83.31382278,-119.3757993
6.78,678,1.005,0.1,-0.028999999999999998,0.5156622000000001,-0.40107059999999994,0.286479,-69.94671264,83.31382278,-119.32996266
6.79,679,1.001,0.098,-0.028999999999999998,0.2291832000000001,-0.3437748,0.286479,-69.90660558,83.31955236,-119.28985559999998
6.8,680,0.9990000000000001,0.099,-0.031,0.057295800000000015,-0.2291832000000001,0.11459160000000004,-69.63731532,83.25079740000002,-119.02629492
6.81,681,0.9990000000000001,0.10099999999999999,-0.036000000000000004,-0.057295800000000015,-0.1718874,0.0,-69.62585616,83.25079740000002,-119.01483575999998
6.82,682,1.0,0.102,-0.037000000000000005,-0.11459160000000004,-0.3437748,-0.11459160000000004,-69.60293784,83.24506782,-118.98618786
6.83,683,1.001,0.102,-0.038,-0.1718874,-0.40107059999999994,-0.286479,-69.58001952,83.23933824000002,-118.96326954
6.84,684,0.9990000000000001,0.10099999999999999,-0.039,-0.286479,-0.11459160000000004,-0.286479,-69.58001952,83.23933824000002,-118.95753996
6.85,685,0.998,0.10099999999999999,-0.038,-0.2291832000000001,-0.057295800000000015,-0.40107059999999994,-69.35083632,83.19923118,-118.73408634
6.86,686,0.9990000000000001,0.10099999999999999,-0.039,-0.3437748,-0.057295800000000015,-0.4583664000000001,-69.36229548,83.19350159999998,-118.73981592
6.87,687,0.9990000000000001,0.10400000000000001,-0.039,-0.40107059999999994,-0.11459160000000004,-0.572958,-69.37375464,83.18777202,-118.7455455
6.88,688,1.0,0.105,-0.037000000000000005,-0.286479,-0.11459160000000004,-0.5156622000000001,-69.37948422,83.18204244,-118.75127508
6.89,689,1.0,0.10300000000000001,-0.035,-0.40107059999999994,0.0,-0.40107059999999994,-69.39667296,83.17631286,-118.76273424
6.9,690,0.9990000000000001,0.10300000000000001,-0.034,-0.6302538000000001,0.0,-0.40107059999999994,-69.39667296,83.15339454,-118.75700466
6.91,691,1.0,0.10400000000000001,-0.035,-0.8021411999999999,0.11459160000000004,-0.4583664000000001,-69.43105044,83.14766496,-118.77992298
6.92,692,0.998,0.10300000000000001,-0.037000000000000005,-0.9167328000000001,0.3437748,-0.40107059999999994,-69.48261666,83.14766496,-118.82003004
6.93,693,0.998,0.106,-0.035,-0.9167328000000001,0.4583664000000001,-0.40107059999999994,-69.53991246000001,83.14766496,-118.87159626
6.9399999999999995,694,0.998,0.107,-0.036000000000000004,-0.6875496,0.3437748,-0.3437748,-69.58574909999999,83.14193537999998,-118.90597374
6.95,695,0.9990000000000001,0.10800000000000001,-0.035,-0.5156622000000001,0.2291832000000001,-0.057295800000000015,-69.59720826,83.09609874,-118.91170332000002
6.96,696,1.0,0.107,-0.034,-0.3437748,-0.057295800000000015,0.057295800000000015,-69.59147868,83.09609874,-118.90597374
6.97,697,1.0,0.105,-0.033,-0.4583664000000001,-0.057295800000000015,0.1718874,-69.58574909999999,83.10182832,-118.89451458
6.9799999999999995,698,0.9990000000000001,0.10400000000000001,-0.034,-0.572958,0.1718874,0.11459160000000004,-69.60293784,83.10182832,-118.90024416
6.99,699,1.0,0.107,-0.038,-0.6302538000000001,0.572958,0.1718874,-69.64877448000001,83.1075579,-118.94608079999999
7.0,700,1.001,0.109,-0.038,-0.5156622000000001,0.3437748,0.2291832000000001,-69.65450406,83.07318042,-118.94035122
7.01,701,1.003,0.10800000000000001,-0.034,-0.3437748,0.057295800000000015,0.40107059999999994,-69.64877448000001,83.07891,-118.93462164
7.02,702,1.002,0.106,-0.033,-0.11459160000000004,-0.11459160000000004,0.5156622000000001,-69.62585616,83.07891,-118.90597374
