TimeStamp(s),FrameCounter,AccX,AccY,AccZ,GyrX,GyrY,GyrZ,EulerX,EulerY,EulerZ
0.01,1,-0.04,-0.993,0.06,-0.057295800000000015,-8.9954406,0.6875496,89.83408482,-3.66120162,-17.67002472
0.02,2,-0.047,-0.987,0.066,0.1718874,-10.4278356,1.145916,89.83981440000002,-3.6669312000000005,-17.77315716
0.03,3,-0.065,-0.98,0.063,1.7188740000000002,-9.0527364,0.8594370000000001,89.8684623,-3.67266078,-17.86483044
0.04,4,-0.075,-0.976,0.063,3.6096354,-7.2192707999999985,0.286479,89.90856936,-3.67839036,-17.9335854
0.05,5,-0.075,-0.976,0.06,5.3858052,-5.844171599999999,-0.4583664000000001,89.97732432000002,-3.67266078,-17.9908812
0.060000000000000005,6,-0.069,-0.976,0.055,6.130650599999999,-5.844171599999999,-1.432395,90.04607927999999,-3.65547204,-18.048177
0.06999999999999999,7,-0.062,-0.976,0.054000000000000006,4.8701430000000006,-7.6203414,-2.4064236,90.10337508,-3.62682414,-18.12266154
0.08,8,-0.059,-0.976,0.067,2.578311,-9.8548776,-2.6356068,90.13202298,-3.59817624,-18.2200644
0.09,9,-0.063,-0.986,0.084,0.9167328,-13.0061466,-1.145916,90.15494129999999,-3.5809875,-18.35184474
0.09999999999999999,10,-0.07200000000000001,-1.006,0.102,0.6302538000000001,-18.2773602,1.3178034,90.1835892,-3.59244666,-18.5351913
0.11,11,-0.07200000000000001,-1.022,0.103,-0.057295800000000015,-23.7204612,3.5523396000000003,90.20077794,-3.62109456,-18.77010408
0.12,12,-0.076,-1.025,0.08900000000000001,-2.6929026,-29.507337,4.7555514,90.20077794,-3.66120162,-19.06231266
0.13,13,-0.084,-1.009,0.065,-7.5630456000000015,-34.7785506,4.6409598,90.14921172,-3.6955791,-19.40608746
0.14,14,-0.095,-0.981,0.036000000000000004,-13.178034,-39.820581,3.724227,90.04607927999999,-3.724227,-19.80142848
0.15000000000000002,15,-0.104,-0.962,0.01,-17.5325148,-44.2896534,2.1772404,89.90283978,-3.73568616,-20.24260614
0.16,16,-0.109,-0.96,-0.002,-20.9702628,-46.982556,0.22918320000000006,89.72522280000004,-3.7299565800000014,-20.712431700000003
0.17,17,-0.103,-0.972,0.004,-22.631841,-47.269034999999995,-1.5469866,89.53041707999998,-3.70703826,-21.18225726
0.18000000000000002,18,-0.091,-1.002,0.031,-22.4026578,-46.29500640000001,-2.5210152000000003,89.34134094,-3.67266078,-21.64635324
0.19,19,-0.096,-1.03,0.047,-20.3973048,-46.5241896,-2.3491278,89.16945354,-3.6440128800000013,-22.10471964000001
0.2,20,-0.126,-1.045,0.066,-16.1001198,-47.555514,-0.9740286,89.04340278,-3.63255372,-22.58027478
0.21000000000000002,21,-0.154,-1.041,0.099,-11.172681,-45.8939358,1.0313244,88.96891824000002,-3.6382833,-23.0329116
0.22,22,-0.177,-1.026,0.132,-5.958763200000001,-41.9405256,2.8074942000000003,88.94027034,-3.6669312000000005,-23.45117094
0.23,23,-0.192,-1.024,0.16,-1.432395,-37.2995658,4.5263682,88.9517295,-3.70703826,-23.81786406
0.24000000000000002,24,-0.196,-1.045,0.17800000000000002,1.5469866,-33.6326346,6.302537999999998,88.99183656,-3.76433406,-24.1501797
0.25,25,-0.193,-1.08,0.184,3.7815227999999994,-30.7678446,8.5370742,89.06632110000002,-3.85600734,-24.45384744
0.26,26,-0.191,-1.11,0.181,5.042030400000002,-28.6479,11.917526400000002,89.14653522,-3.97059894,-24.734596860000003
0.27,27,-0.204,-1.109,0.194,5.7868758000000025,-26.9863218,15.0114996,89.22674934,-4.11383844,-25.00388712
0.28,28,-0.21600000000000005,-1.081,0.18600000000000005,5.3858052,-24.923673,17.303331600000003,89.30123388000001,-4.28572584,-25.24452948
0.29000000000000004,29,-0.218,-1.029,0.146,3.4377480000000005,-23.8923486,18.2200644,89.35852968,-4.45761324,-25.47944226
0.3,30,-0.217,-0.977,0.114,0.5156622000000001,-23.7204612,17.7044022,89.39290716000002,-4.64668938,-25.70862546
0.31,31,-0.208,-0.94,0.1,-2.5210152000000003,-23.2620948,16.615782,89.39290716000002,-4.80711762,-25.93780866
0.32,32,-0.194,-0.921,0.095,-5.3858052,-22.86102420000001,15.469866,89.35852968,-4.9560867,-26.166991860000003
0.33,33,-0.192,-0.919,0.092,-7.5057497999999985,-22.058883,14.152062599999999,89.30696345999998,-5.0935966200000005,-26.384715900000003
0.34,34,-0.199,-0.929,0.092,-8.9381448,-20.2254174,12.7196676,89.2382085,-5.21964738,-26.5852512
0.35000000000000003,35,-0.21,-0.933,0.091,-9.740286,-17.8189938,11.45916,89.16372396,-5.3456981400000005,-26.7571386
0.36000000000000004,36,-0.223,-0.928,0.09,-10.1413566,-15.527161800000002,10.4851314,89.07778026000004,-5.44883058,-26.91183726
0.37,37,-0.235,-0.921,0.094,-9.6829902,-13.0061466,10.1413566,88.99183656,-5.5519630200000005,-27.043617600000005
0.38,38,-0.243,-0.916,0.095,-9.3392154,-10.0840608,10.313244,88.91162244,-5.65509546,-27.14102046
0.39,39,-0.249,-0.91,0.094,-8.7662574,-6.875496000000001,10.3705398,88.82567874,-5.7582279000000005,-27.20977542
0.4,40,-0.249,-0.906,0.099,-8.021412000000002,-3.0366774,9.797581800000001,88.76838294000002,-5.89000824,-27.22696416
0.41000000000000003,41,-0.247,-0.902,0.098,-6.2452422,0.9167328,8.250595200000001,88.70535756,-5.97022236,-27.215505
0.42000000000000004,42,-0.242,-0.901,0.106,-4.1252976000000015,5.0993262,5.958763200000001,88.65379134000001,-6.0275181600000005,-27.163938779999995
0.43,43,-0.235,-0.907,0.119,-2.578311,7.6776372,4.0680017999999984,88.61941386,-6.0733548000000015,-27.08945424
0.44,44,-0.221,-0.922,0.136,-1.2032118,9.3392154,2.86479,88.59649553999998,-6.1020027,-26.99778096
0.45,45,-0.205,-0.939,0.14800000000000002,0.1718874,10.886202,2.1772404,88.62514344,-6.147839339999999,-26.88318936
0.46,46,-0.188,-0.958,0.151,1.4896908000000002,12.1467096,1.6615782,88.62514344,-6.165028080000001,-26.7571386
0.47000000000000003,47,-0.174,-0.971,0.159,1.9480572,13.464512999999998,1.0886202,88.63087302,-6.18221682,-26.62535826
0.48000000000000004,48,-0.171,-0.973,0.166,2.578311,15.0114996,0.572958,88.63660259999997,-6.1879464,-26.47638918
0.49,49,-0.177,-0.965,0.17,4.2398892,16.7876694,0.11459160000000003,88.65952092,-6.1879464,-26.30450178
0.5,50,-0.189,-0.962,0.184,6.760904399999999,18.907614000000002,-0.4010706,88.73400546,-6.1994055600000015,-26.11542564
0.51,51,-0.196,-0.967,0.189,8.880849000000003,20.8556712,-0.9740286,88.80276042,-6.1879464,-25.90916076
0.52,52,-0.208,-0.974,0.194,8.9954406,21.199446,-1.2032118,88.8657858,-6.17648724,-25.69716630000001
0.53,53,-0.224,-0.984,0.204,8.7662574,21.027558600000006,-0.9167328,88.92881118,-6.17075766,-25.48517184
0.54,54,-0.242,-0.995,0.204,8.5370742,21.829699800000004,-0.22918320000000006,88.99183656,-6.165028080000001,-25.2674478
0.55,55,-0.257,-1.001,0.21,8.078707799999998,23.7204612,0.11459160000000003,89.06632110000002,-6.1879464,-25.02680544
0.56,56,-0.27,-0.999,0.234,8.651665800000002,26.356068,0.286479,89.12361690000002,-6.19367598,-24.76324476
0.5700000000000001,57,-0.274,-1.0,0.251,10.9434978,29.7365202,0.4010706,89.19810143999999,-6.1994055600000015,-24.4653066
0.5800000000000001,58,-0.269,-1.0,0.26,12.4904844,32.7731976,0.572958,89.28977472,-6.210864720000001,-24.13872054
0.59,59,-0.262,-1.002,0.276,15.4125702,34.60666320000001,0.8021411999999999,89.40436632,-6.22232388,-23.79494574
0.6,60,-0.25,-0.996,0.299,19.595163600000006,35.52339600000001,1.145916,89.57625372,-6.25097178,-23.4339822
0.61,61,-0.235,-0.993,0.319,23.2620948,36.4974246,1.2605076000000002,89.76532986,-6.26816052,-23.06728908
0.62,62,-0.221,-1.0,0.319,25.3820394,36.7266078,1.145916,89.97732432000002,-6.285349259999999,-22.70059596
0.63,63,-0.219,-1.027,0.325,29.5646328,35.46610020000001,1.4896908000000002,90.23515542,-6.30826758,-22.345362
0.64,64,-0.21600000000000005,-1.0759999999999998,0.321,32.6013102,34.3201842,2.0053530000000004,90.527364,-6.34264506,-22.0015872
0.65,65,-0.204,-1.12,0.314,32.7159018,32.142943800000005,1.9480572,90.83103174,-6.37129296,-21.67500114
0.66,66,-0.179,-1.153,0.308,29.4500412,29.0489706,1.2605076000000002,91.09459242,-6.39421128,-21.38279256
0.67,67,-0.135,-1.208,0.263,27.3873924,26.2414764,0.8594370000000001,91.33523478,-6.417129600000001,-21.11923188
0.68,68,-0.1,-1.285,0.19,30.5386614,21.772404,1.4896908000000002,91.62171378,-6.4400479200000005,-20.90150784
0.6900000000000001,69,-0.08199999999999999,-1.368,0.119,35.6379876,17.303331600000003,2.6929026,91.959759,-6.474425399999999,-20.72389086
0.7000000000000001,70,-0.056,-1.439,0.023,35.8671708,13.2353298,3.151269,92.3035338,-6.5088028799999975,-20.59211052
0.7100000000000001,71,-0.013,-1.489,-0.078,29.1635622,9.969469199999999,4.583664,92.5900128,-6.560369099999999,-20.488978080000006
0.72,72,-0.032,-1.457,-0.158,24.8663772,7.5057497999999985,6.760904399999999,92.83065516000002,-6.62912406,-20.42022312
0.73,73,-0.087,-1.3259999999999998,-0.206,26.298772200000002,17.0168526,3.6096354,93.0770271,-6.6806902799999985,-20.24833572
0.74,74,-0.14300000000000002,-1.17,-0.18,27.1009134,34.0337052,-4.6982556,93.3062103,-6.65777196,-19.90456092
0.75,75,-0.194,-1.085,-0.153,24.1215318,42.28430039999999,-12.834259199999998,93.48382728,-6.5718282599999975,-19.46911284
0.76,76,-0.232,-1.031,-0.154,18.907614000000002,45.206386200000004,-17.6471064,93.6213372,-6.43431834,-19.01074644
0.77,77,-0.231,-1.013,-0.14,14.2093584,48.987909,-18.334656,93.70155132,-6.29680842,-18.5065434
0.78,78,-0.187,-1.023,-0.152,9.9121734,53.39968560000001,-16.902261,93.7359288,-6.17648724,-17.96796288
0.79,79,-0.116,-1.029,-0.16699999999999998,5.7868758000000025,56.3790672,-15.3552744,93.72446964,-6.0733548000000015,-17.39500488
0.8,80,-0.04,-1.028,-0.182,2.1199446,56.72284200000001,-14.9542038,93.66144426,-5.97022236,-16.82777646
0.81,81,0.005,-1.007,-0.18,-1.3750992,51.9099948,-14.0947668,93.58695972,-5.87854908,-16.3006551
0.8200000000000001,82,0.035,-0.984,-0.165,-4.5263682,45.206386200000004,-12.3758928,93.48955686,-5.79260538,-15.84801828
0.8300000000000001,83,0.063,-0.956,-0.14400000000000002,-6.302537999999998,38.90384820000001,-10.1986524,93.38069484,-5.72958,-15.45840684
0.8400000000000001,84,0.08,-0.924,-0.118,-6.4744254,33.002380800000005,-8.651665800000002,93.27756240000001,-5.6722842,-15.126091199999998
0.85,85,0.084,-0.899,-0.08800000000000001,-6.3598338,27.7311672,-8.250595200000001,93.1629708,-5.59207008,-14.85107136
0.86,86,0.078,-0.888,-0.054000000000000006,-6.2452422,23.14750320000001,-9.0527364,93.0770271,-5.52331512,-14.61615858
0.87,87,0.065,-0.889,-0.031,-6.302537999999998,18.2200644,-10.4278356,92.99108340000001,-5.4316418399999975,-14.427082439999998
0.88,88,0.064,-0.907,-0.008,-5.844171599999999,13.750992000000002,-12.4331886,92.91659886,-5.32277982,-14.289572520000002
0.89,89,0.07200000000000001,-0.936,0.006999999999999999,-5.72958,9.568398599999998,-14.667724800000002,92.8478439,-5.1852699,-14.18644008
0.9,90,0.079,-0.96,0.022,-6.0733548,4.8128472,-16.615782,92.77335936,-4.99046418,-14.14060344
0.91,91,0.075,-0.962,0.039,-6.4744254,1.0886202,-17.9908812,92.7046044,-4.812847199999998,-14.11768512
0.92,92,0.06,-0.947,0.052000000000000005,-8.021412000000002,-1.6042823999999998,-18.7357266,92.62439028,-4.629500640000002,-14.12914428
0.93,93,0.044,-0.927,0.055,-10.313244,-3.724227,-18.3919518,92.52125784,-4.4404245000000016,-14.15779218
0.9400000000000001,94,0.025,-0.912,0.053,-11.8602306,-5.2139178,-17.246035799999998,92.40666624,-4.2685371,-14.20362882
0.9500000000000001,95,0.0,-0.901,0.05,-13.407217200000002,-5.72958,-15.469866,92.26915632,-4.102379279999999,-14.25519504
0.9600000000000001,96,-0.031,-0.895,0.044,-14.667724800000002,-5.3858052,-13.6936962,92.12591682,-3.9648693599999993,-14.306761259999998
0.97,97,-0.054000000000000006,-0.892,0.034,-16.157415599999997,-4.9847345999999995,-12.4331886,91.96548857999998,-3.8388186000000006,-14.3525979
0.98,98,-0.068,-0.895,0.04,-17.761698000000006,-5.3285094000000015,-12.032117999999999,91.78787159999999,-3.71849742,-14.40416412
0.99,99,-0.065,-0.897,0.049,-19.194093,-6.990087599999999,-12.032117999999999,91.59879546,-3.59817624,-14.47291908
1.0,100,-0.048,-0.901,0.063,-20.168121600000006,-9.1100322,-11.8602306,91.40398974,-3.47212548,-14.558862779999998
1.01,101,-0.023,-0.902,0.077,-20.454600600000006,-11.5737516,-11.172681,91.20345444,-3.35753388,-14.67345438
1.02,102,0.0,-0.9,0.081,-20.340009,-13.980175199999998,-10.1413566,91.00864872,-3.25440144,-14.810964300000002
1.03,103,0.022,-0.89,0.086,-18.7357266,-15.3552744,-9.2819196,90.82530216,-3.15699858,-14.96566296
1.04,104,0.032,-0.885,0.08800000000000001,-16.1001198,-16.1001198,-8.59437,90.67633308,-3.0653253000000005,-15.126091199999998
1.05,105,0.026,-0.883,0.081,-14.0947668,-16.157415599999997,-7.333862400000001,90.55028232,-2.9736520200000003,-15.29224902
1.06,106,0.017,-0.878,0.079,-13.464512999999998,-15.756345000000001,-5.9014674000000005,90.41850198,-2.91062664,-15.44694768
1.07,107,0.008,-0.868,0.086,-13.178034,-16.1001198,-4.3544808,90.2981808,-2.86479,-15.60737592
1.08,108,-0.002,-0.861,0.093,-11.917526400000002,-17.131444199999994,-2.9220857999999996,90.1835892,-2.83041252,-15.779263320000002
1.09,109,-0.006999999999999999,-0.8540000000000001,0.102,-10.3705398,-18.5065434,-1.0886202,90.09191592,-2.81322378,-15.96260988
1.1,110,-0.015,-0.84,0.112,-8.880849000000003,-20.168121600000006,0.6875496,90.02316096,-2.81322378,-16.16314518
1.11,111,-0.023,-0.8240000000000001,0.124,-7.2192707999999985,-21.772404,2.4637194,89.96586515999998,-2.8361421,-16.38086922
1.12,112,-0.033,-0.813,0.13,-5.3858052,-22.9756158,4.1252976000000015,89.9257581,-2.87051958,-16.61005242
1.1300000000000001,113,-0.041,-0.8079999999999999,0.128,-2.7501984,-24.694489800000003,6.5317212,89.91429894,-2.92781538,-16.85642436
1.1400000000000001,114,-0.049,-0.8079999999999999,0.134,-0.286479,-26.41336380000001,8.59437,89.9257581,-3.0080295,-17.114255460000006
1.1500000000000001,115,-0.052000000000000005,-0.8059999999999999,0.14800000000000002,2.1199446,-28.1322378,9.8548776,89.97732432000002,-3.0997027800000003,-17.39500488
1.1600000000000001,116,-0.047,-0.807,0.17,5.1566220000000005,-29.0489706,10.255948199999999,90.05180886000002,-3.1913760600000005,-17.68148388
1.17,117,-0.035,-0.82,0.196,6.9327918,-28.7051958,9.3965112,90.14348214,-3.27731976,-17.96796288
1.18,118,-0.017,-0.853,0.213,6.760904399999999,-27.444688199999998,7.5057497999999985,90.22942584,-3.34034514,-18.23725314
1.19,119,-0.001,-0.904,0.218,6.1879464,-27.3300966,5.443101,90.31536954,-3.38618178,-18.51227298
1.2,120,0.01,-0.963,0.235,5.958763200000001,-29.220858000000003,4.1252976000000015,90.42423156,-3.4091001000000003,-18.80448156
1.21,121,0.018000000000000002,-1.017,0.269,5.2712136,-32.7159018,3.151269,90.4987161,-3.42628884,-19.12533804
1.22,122,0.006999999999999999,-1.06,0.3,3.9534102,-35.122325399999994,2.9793816000000004,90.56747106,-3.44347758,-19.47484242
1.23,123,-0.032,-1.084,0.302,2.6356068,-34.2055926,3.3804522000000006,90.61903728,-3.4663959,-19.812887640000003
1.24,124,-0.075,-1.116,0.287,0.9167328,-30.194886600000004,3.5523396000000003,90.64768518,-3.48931422,-20.1108258
1.25,125,-0.115,-1.148,0.28,-1.3178034,-23.7204612,2.9220857999999996,90.67633308,-3.5122325400000003,-20.35146816
1.26,126,-0.16,-1.176,0.261,-2.86479,-12.1467096,1.432395,90.65341476,-3.5236917,-20.47178934
1.27,127,-0.215,-1.186,0.242,-1.6615782,-2.3491278,0.0,90.6419556,-3.5236917,-20.49470766
1.28,128,-0.259,-1.2,0.257,3.151269,1.8334656000000005,-2.7501984,90.6706035,-3.4950437999999995,-20.47178934
1.29,129,-0.262,-1.198,0.32299999999999995,10.5424272,-1.3750992,-7.0473834,90.77946552,-3.42628884,-20.4832485
1.3,130,-0.229,-1.211,0.381,12.032117999999999,-7.8495246,-10.886202,90.92270502,-3.31742682,-20.55773304
1.31,131,-0.17800000000000002,-1.257,0.403,4.5263682,-12.7196676,-14.0947668,90.97427124,-3.1741873200000006,-20.6837838
1.32,132,-0.145,-1.346,0.33,3.2658606,-9.9121734,-18.9649098,91.0143783,-2.9793816000000004,-20.77545708
1.33,133,-0.151,-1.547,0.292,16.042824000000003,5.3858052,-26.8717302,91.17480654,-2.71009134,-20.712431700000003
1.34,134,-0.156,-1.742,0.123,31.2835068,24.694489800000003,-36.5547204,91.47847428,-2.36058696,-20.454600600000006
1.35,135,-0.15,-1.842,-0.084,42.5134836,33.8618178,-40.393539,91.89100404,-1.9767051,-20.10509622
1.36,136,-0.115,-1.694,-0.179,41.0810886,34.2055926,-35.809875,92.29207464,-1.6386598799999998,-19.74986226
1.37,137,-0.038,-1.416,-0.161,35.9817624,34.37748,-25.1528562,92.64157902,-1.40947668,-19.3946283
1.3800000000000001,138,0.067,-1.252,-0.247,35.0650296,25.4393352,-17.9335854,92.98535382,-1.24904844,-19.13106762
1.3900000000000001,139,0.151,-1.147,-0.281,21.199446,12.1467096,-14.266654199999998,93.19734828,-1.1172681,-18.99928728
1.4000000000000001,140,0.165,-1.046,-0.305,7.906820400000001,-0.057295800000000015,-10.8289062,93.18588912,-0.95683986,-18.99928728
1.4100000000000001,141,0.155,-0.983,-0.281,2.6929026,-8.880849000000003,-7.8495246,93.2202666,-0.87089616,-19.08523098
1.42,142,0.125,-0.976,-0.258,1.6615782,-14.037471,-6.9327918,93.23745534,-0.7906820400000001,-19.21701132
1.43,143,0.115,-0.99,-0.207,0.6302538000000001,-17.246035799999998,-7.0473834,93.24891449999998,-0.7104679199999999,-19.38316914
1.44,144,0.129,-1.001,-0.175,-1.7188740000000002,-20.454600600000006,-7.1046792000000005,93.23745534,-0.61879464,-19.57797486
1.45,145,0.146,-1.004,-0.142,-5.9014674000000005,-25.210152,-6.4744254,93.15724122,-0.5156622000000001,-19.83007638
1.46,146,0.14,-1.024,-0.125,-6.4744254,-27.788463,-5.0993262,93.09421584,-0.44117766,-20.10509622
1.47,147,0.115,-1.0490000000000002,-0.121,-5.72958,-27.5592798,-3.2658606,93.04264962,-0.38388186,-20.37438648
1.48,148,0.07200000000000001,-1.041,-0.107,-4.6409598,-24.2934192,-1.2032118,93.00254256,-0.35523396,-20.61502884
1.49,149,0.013,-1.0,-0.092,-3.666931200000001,-18.2200644,1.0886202,92.96816508,-0.34950438,-20.79264582
1.5,150,-0.058,-0.968,-0.07400000000000001,-2.578311,-12.4331886,3.9534102,92.89941012,-0.40680018,-20.912967000000002
1.51,151,-0.125,-0.954,-0.066,-2.6356068,-8.307891,7.2765666,92.8764918,-0.46982556,-20.9989107
1.52,152,-0.177,-0.945,-0.051,-3.5523396000000003,-5.2712136,11.4018642,92.84211432,-0.5786875800000001,-21.0562065
1.53,153,-0.211,-0.922,-0.033,-5.2139178,-2.4064236,17.0168526,92.7905481,-0.75057498,-21.09058398
1.54,154,-0.24,-0.887,-0.006,-5.3285094000000015,-0.6875496,21.0848544,92.73898188,-0.95683986,-21.10777272
1.55,155,-0.259,-0.86,0.003,-5.9014674000000005,2.0053530000000004,23.6058696,92.67022692,-1.2318597,-21.09058398
1.56,156,-0.262,-0.833,-0.004,-8.136003599999999,5.042030400000002,24.5226024,92.58428322,-1.4782316400000002,-21.0562065
1.57,157,-0.261,-0.8140000000000001,-0.004,-10.3705398,7.7349330000000025,24.1215318,92.4754212,-1.7246035799999997,-20.99318112
1.58,158,-0.242,-0.812,0.001,-11.9748222,11.4018642,22.9756158,92.34937044,-1.9595163600000003,-20.89004868
1.59,159,-0.196,-0.812,-0.021,-14.495837400000001,14.667724800000002,21.485925,92.19467178,-2.18296998,-20.75253876
1.6,160,-0.126,-0.797,-0.045,-16.329303,16.157415599999997,19.767051,92.01132522,-2.40069402,-20.60356968
1.61,161,-0.07400000000000001,-0.7809999999999999,-0.039,-16.959556799999998,17.9335854,18.2200644,91.83370824,-2.59549974,-20.43741186
1.62,162,-0.048,-0.7709999999999999,-0.034,-16.902261,19.8243468,17.0741484,91.65036168,-2.77311672,-20.24833572
1.6300000000000001,163,-0.042,-0.764,-0.04,-17.131444199999994,21.2567418,15.756345000000001,91.46128554,-2.94500412,-20.04207084
1.6400000000000001,164,-0.065,-0.757,-0.038,-17.0168526,22.2307704,14.495837400000001,91.2722094,-3.1054323600000004,-19.83007638
1.6500000000000001,165,-0.095,-0.765,-0.026,-17.0168526,23.032911600000002,13.0061466,91.08313326,-3.2486718599999995,-19.60662276
1.6600000000000001,166,-0.123,-0.773,-0.012,-17.3606274,22.6891368,11.0580894,90.88832754,-3.3689930400000003,-19.38316914
1.6700000000000002,167,-0.141,-0.779,-0.01,-16.272007199999994,21.1421502,8.7662574,90.71071056,-3.4663959,-19.17690426
1.68,168,-0.14800000000000002,-0.789,0.006,-14.5531332,19.4232762,5.6722842,90.55028232,-3.5351508600000003,-18.98782812
1.69,169,-0.142,-0.799,0.046,-12.9488508,18.5638392,2.1772404,90.40131324,-3.56379876,-18.80448156
1.7,170,-0.134,-0.816,0.049,-11.3445684,18.7930224,0.057295800000000015,90.27526248,-3.5809875,-18.61540542
1.71,171,-0.115,-0.821,0.048,-11.1153852,19.4232762,-1.6615782,90.14921172,-3.57525792,-18.42632928
1.72,172,-0.093,-0.8240000000000001,0.073,-9.167328,20.340009,-2.86479,90.04034970000002,-3.5523396000000003,-18.22579398
1.73,173,-0.076,-0.83,0.097,-5.844171599999999,21.3140376,-3.2658606,89.96586515999998,-3.5236917,-18.01379952
1.74,174,-0.067,-0.835,0.133,-3.8388186,22.91832,-3.4950437999999995,89.90856936,-3.4950437999999995,-17.7903459
1.75,175,-0.069,-0.848,0.17,-1.0313244,25.1528562,-4.0680017999999984,89.90283978,-3.4663959,-17.538244380000002
1.76,176,-0.087,-0.875,0.208,3.2658606,27.501984000000004,-4.7555514,89.91429894,-3.42628884,-17.268954119999997
1.77,177,-0.118,-0.913,0.23,6.1879464,29.621928600000004,-5.6149884000000005,89.96013558000001,-3.37472262,-16.97101596
1.78,178,-0.14,-0.949,0.25,5.72958,30.366774000000003,-5.72958,89.99451306,-3.3231564,-16.6730778
1.79,179,-0.14300000000000002,-0.976,0.252,2.86479,30.7678446,-5.844171599999999,90.00024264,-3.27731976,-16.36368048
1.8,180,-0.141,-0.997,0.225,-0.4010706,30.194886600000004,-6.3598338,90.00597222,-3.2314831199999987,-16.06574232
1.81,181,-0.14,-1.019,0.197,-3.151269,30.194886600000004,-7.448453999999999,89.94867642,-3.16845774,-15.76780416
1.82,182,-0.165,-1.052,0.174,-6.417129599999999,31.3980984,-8.4224826,89.86273272,-3.0939732,-15.45840684
1.83,183,-0.204,-1.089,0.14800000000000002,-10.7716104,32.2002396,-8.136003599999999,89.73095237999998,-3.01948866,-15.13755036
1.84,184,-0.227,-1.11,0.147,-14.7250206,32.0283522,-6.4744254,89.56479456,-2.96219286,-14.82242346
1.85,185,-0.212,-1.117,0.17600000000000002,-20.2827132,31.054323600000004,-4.010706000000001,89.3528001,-2.93927454,-14.518755719999998
1.86,186,-0.189,-1.129,0.218,-26.069589,30.93973200000001,-2.291832,89.06632110000002,-2.9220858,-14.215087979999998
1.87,187,-0.173,-1.135,0.21600000000000005,-30.8824362,32.7731976,-1.6615782,88.73400546,-2.91062664,-13.894231499999998
1.8800000000000001,188,-0.168,-1.137,0.153,-32.085648000000006,34.262888399999994,-2.1772404,88.38450107999998,-2.8934379,-13.55618628
1.8900000000000001,189,-0.182,-1.143,0.127,-27.5592798,34.0337052,-3.2658606,88.08083334,-2.86479,-13.223870639999998
1.9000000000000001,190,-0.163,-1.171,0.114,-18.334656,35.2942128,-3.4377480000000005,87.88029803999999,-2.83041252,-12.88009584
1.9100000000000001,191,-0.103,-1.205,0.12,-9.568398599999998,35.8671708,-3.0939732,87.76570644,-2.80176462,-12.52486188
1.9200000000000002,192,-0.013,-1.279,0.15,-1.8907613999999997,36.38283300000001,-2.0053530000000004,87.7198698,-2.77311672,-12.16389834
1.93,193,0.091,-1.381,0.057,-4.3544808,38.961144,0.057295800000000015,87.65111484,-2.77311672,-11.78001648
1.94,194,0.233,-1.655,-0.226,-19.308684600000007,32.257535399999995,7.3911582,87.43912037999998,-2.84187168,-11.45916
1.95,195,0.3720000000000001,-2.255,-0.379,-37.0703826,-13.6364004,34.8358464,87.06669767999998,-3.1913760600000005,-11.58521076
1.96,196,0.5589999999999999,-2.548,-0.246,-19.595163600000006,-57.35309579999999,66.3485364,86.91199902000002,-3.8674665,-12.118061700000002
1.97,197,0.647,-1.928,-0.239,10.313244,-52.7694318,59.1292656,87.0609681,-4.46334282,-12.61080558
1.98,198,0.298,-1.048,-0.302,14.32395,-30.9970278,34.950438,87.2328555,-4.81857678,-12.903014159999998
1.99,199,-0.084,-0.779,-0.172,25.8977016,-5.5576926,7.906820400000001,87.50214575999998,-4.898790900000002,-12.9488508
2.0,200,-0.303,-0.682,-0.126,0.22918320000000006,-0.4010706,-11.45916,87.49068659999998,-4.81857678,-12.9488508
2.01,201,-0.449,-0.688,-0.131,-23.491278,-7.7349330000000025,-21.485925,87.26150340000002,-4.60658232,-13.04052408
2.02,202,-0.522,-0.8,-0.124,-33.6899304,-2.8074942000000003,-22.5172494,86.92345818,-4.38885828,-13.08063114
2.03,203,-0.486,-0.944,-0.129,-32.31483119999999,9.568398599999998,-18.1054728,86.58541296,-4.20551172,-13.00041702
2.04,204,-0.38,-1.079,-0.118,-31.8564648,20.1108258,-13.8655836,86.24736774,-4.0680017999999984,-12.81134088
2.05,205,-0.225,-1.031,-0.105,-37.24227,31.054323600000004,-11.745639,85.84056756,-3.94768062,-12.51340272
2.0599999999999996,206,-0.07200000000000001,-0.905,-0.116,-42.4561878,40.5654264,-9.9121734,85.37647158,-3.83308902,-12.12379128
2.07,207,0.022,-0.8,-0.151,-45.6074568,42.7999626,-7.8495246,84.87799812,-3.73568616,-11.71126152
2.0799999999999996,208,0.093,-0.727,-0.161,-47.555514,35.0650296,-6.016058999999999,84.3680655,-3.65547204,-11.3732163
2.09,209,0.126,-0.7070000000000001,-0.133,-45.4355694,22.2880662,-6.2452422,83.89251035999997,-3.5809875,-11.16695142
2.0999999999999996,210,0.128,-0.7040000000000001,-0.103,-39.9924684,15.0687954,-8.9954406,83.47425102000003,-3.47212548,-11.03517108
2.11,211,0.093,-0.713,-0.062,-34.7212548,14.037471,-13.178034,83.11328748,-3.32888598,-10.914849900000002
2.1199999999999997,212,0.046,-0.733,-0.035,-33.403451399999994,19.3659804,-18.3919518,82.76378309999998,-3.13408026,-10.74869208
2.13,213,0.017,-0.752,-0.037000000000000005,-34.0337052,27.2728008,-23.376686399999997,82.39708998,-2.88197874,-10.5137793
2.1399999999999997,214,-0.006999999999999999,-0.767,-0.058,-30.4813656,38.8465524,-27.9603504,82.07050392,-2.56685184,-10.1700045
2.15,215,-0.042,-0.763,-0.055,-24.2361234,52.9413192,-31.913760600000003,81.79548408,-2.19442914,-9.69444936
2.1599999999999997,216,-0.114,-0.727,-0.044,-19.480572,65.7755784,-34.60666320000001,81.56630088,-1.78189938,-9.098573040000002
2.17,217,-0.19,-0.6940000000000001,-0.041,-15.2979786,80.7297822,-36.03905820000001,81.38295432,-1.3349921400000002,-8.35945722
2.1799999999999997,218,-0.248,-0.672,-0.003,-13.521808800000002,92.4181254,-35.7525792,81.21106692,-0.87089616,-7.505749800000001
2.19,219,-0.275,-0.6629999999999999,-0.005,-11.2872726,103.6481022,-34.1482968,81.07355700000002,-0.40680018,-6.543180359999999
2.1999999999999997,220,-0.27,-0.66,-0.056,-5.2712136,116.023995,-31.6845774,80.99907246000002,0.03437748,-5.45456016
2.21,221,-0.249,-0.6829999999999999,-0.114,2.9220857999999996,127.36856340000001,-26.9863218,81.0162612,0.46409598,-4.24561878
2.2199999999999998,222,-0.214,-0.725,-0.222,6.875496000000001,134.3013552,-19.194093,81.08501616,0.8193299399999999,-2.9564632800000004
2.23,223,-0.16,-0.789,-0.311,9.224623800000002,138.369357,-10.7143146,81.18241902,1.10007936,-1.6157415599999996
2.2399999999999998,224,-0.098,-0.924,-0.293,11.9748222,133.1554392,-1.8907613999999997,81.31419936,1.28342592,-0.30939732
2.25,225,-0.079,-1.078,-0.107,13.750992000000002,108.7474284,8.5370742,81.46889802,1.32926256,0.76776372
2.26,226,-0.049,-1.198,0.012,14.266654199999998,81.4173318,19.0222056,81.62359668,1.23758928,1.59282324
2.27,227,0.01,-1.234,0.044,15.9282324,48.1857678,28.0176462,81.7897545,1.01986524,2.10848544
2.28,228,0.111,-1.21,0.08199999999999999,22.6891368,16.272007199999994,30.65325300000001,82.0189377,0.7391158200000001,2.3147503200000004
2.29,229,0.258,-1.216,0.171,35.46610020000001,-2.0053530000000004,23.491278,82.37990124000002,0.5099326200000001,2.33193906
2.3,230,0.3670000000000001,-1.242,0.192,52.3683612,-8.3651868,7.906820400000001,82.92421134,0.44690724,2.25745452
2.31,231,0.396,-1.17,0.13,59.58763199999999,-16.8449652,-6.5317212,83.53154682,0.4984734599999999,2.0912967
2.32,232,0.39,-0.929,0.029,49.2170922,-16.673077799999998,-20.3973048,84.03002028,0.69327918,1.90795014
2.3299999999999996,233,0.41,-0.754,-0.07,36.7839036,1.145916,-32.7159018,84.40244298,1.01986524,1.8907613999999997
2.34,234,0.344,-0.638,-0.127,30.7105488,6.2452422,-42.34159620000001,84.71756988,1.44958374,1.9194093000000003
2.3499999999999996,235,0.188,-0.557,-0.051,26.298772200000002,6.875496000000001,-49.90464179999999,84.98113056000003,1.95378678,1.9480572000000005
2.36,236,0.018000000000000002,-0.528,-0.018000000000000002,15.0687954,7.8495246,-51.852699,85.13582922,2.47517856,1.98243468
2.3699999999999997,237,-0.163,-0.4970000000000001,0.013,2.1199446,8.3651868,-46.065823200000004,85.15874754000002,2.93354496,2.02827132
2.38,238,-0.295,-0.488,0.008,-3.5523396000000003,8.9954406,-33.403451399999994,85.12437006,3.27159018,2.0912967
2.3899999999999997,239,-0.327,-0.525,-0.006999999999999999,-7.7349330000000025,3.0366774,-17.9908812,85.04415594,3.4492071599999994,2.10275586
2.4,240,-0.404,-0.431,0.052000000000000005,-10.886202,-15.6417534,-3.8961144,84.93529392,3.4377480000000005,1.95378678
2.4099999999999997,241,-0.421,-0.364,0.233,9.167328,-12.5477802,-2.0626488000000003,85.0269672,3.4492071599999994,1.82773602
2.42,242,-0.333,-0.39,0.281,18.1054728,9.797581800000001,-11.8029348,85.21031375999998,3.57525792,1.9194093000000003
2.4299999999999997,243,-0.28600000000000003,-0.403,0.305,11.1153852,25.553926800000006,-26.5852512,85.33636451999998,3.85600734,2.1485925000000003
2.44,244,-0.235,-0.383,0.331,13.980175199999998,34.60666320000001,-39.0757356,85.49679276,4.26280752,2.4637194
2.4499999999999997,245,-0.204,-0.449,0.415,23.7204612,38.90384820000001,-43.48751220000001,85.78327176,4.6982555999999995,2.82468294
2.46,246,-0.17600000000000002,-0.489,0.433,23.9496444,41.9978214,-41.9405256,86.05256202000002,5.13370368,3.214294380000001
2.4699999999999998,247,-0.13699999999999998,-0.429,0.358,17.131444199999994,48.2430636,-40.2216516,86.26455648,5.5519630200000005,3.6669312000000005
2.48,248,-0.104,-0.336,0.17800000000000002,11.5737516,56.3790672,-39.6486936,86.42498472,5.97022236,4.20551172
2.4899999999999998,249,-0.105,-0.25,0.069,6.1879464,64.5723666,-39.7059894,86.5453059,6.382752120000001,4.82430636
2.5,250,-0.122,-0.129,0.079,6.2452422,64.97343719999999,-41.1383844,86.67708624000002,6.8010114600000025,5.45456016
2.51,251,-0.109,-0.048,0.05,6.130650599999999,65.4890994,-44.1750618,86.80886658,7.259377859999999,6.079084379999999
2.52,252,-0.07200000000000001,-0.021,-0.071,-1.5469866,69.32791800000001,-48.8160216,86.86616238,7.763580899999999,6.74944524
2.53,253,0.04,0.011,-0.17800000000000002,-12.3758928,68.41118519999999,-55.2331512,86.82605532,8.325079740000001,7.39688778
2.54,254,0.193,0.023,-0.275,-11.5737516,53.628868800000006,-62.853492599999996,86.7744891,8.9667927,7.90109082
2.55,255,0.355,-0.009000000000000001,-0.33,-6.5317212,30.1375908,-64.62966239999999,86.72865246,9.63715356,8.164651500000002
2.56,256,0.4970000000000001,-0.105,-0.307,-20.2254174,9.6256944,-60.50436480000001,86.52811716,10.23875946,8.2219473
2.57,257,0.542,-0.163,-0.415,-42.8572584,-5.3285094000000015,-55.86340500000001,86.07548034,10.78306956,8.13027402
2.5799999999999996,258,0.565,-0.258,-0.56,-57.2958,-11.5737516,-53.11320660000001,85.46241528,11.29873176,7.96984578
2.59,259,0.521,-0.262,-0.6409999999999999,-63.7702254,-15.2406828,-54.029939399999996,84.78059526000001,11.82012354,7.763580899999999
2.5999999999999996,260,0.455,-0.265,-0.603,-81.1308528,-12.2040054,-52.48295279999999,83.89251035999997,12.34151532,7.574504760000001
2.61,261,0.495,-0.23,-0.421,-101.127087,-11.3445684,-49.388979600000006,82.82680848,12.81134088,7.3911582
2.6199999999999997,262,0.589,-0.342,-0.359,-108.575541,-17.7044022,-44.8053156,81.66943332,13.21814106,7.13905668
2.63,263,0.6940000000000001,-0.654,-0.479,-110.7527814,-32.7159018,-39.4195104,80.45476235999998,13.55618628,6.7379860800000015
2.6399999999999997,264,0.8320000000000001,-1.133,-0.52,-134.87431320000002,-53.1705024,-34.091001,78.94788281999998,13.796828639999998,6.130650600000001
2.65,265,0.878,-1.755,-0.773,-168.3923562,-74.771019,-29.220858000000003,77.05139184,13.928608980000002,5.2998615
2.6599999999999997,266,0.994,-2.634,-1.141,-171.54362519999995,-80.5578948,-18.7930224,75.10906422000002,13.922879400000005,4.4404245000000016
2.67,267,1.146,-3.83,-1.054,-199.1602008,-98.835255,-1.8334656000000005,72.86306886,13.67650746,3.44347758
2.6799999999999997,268,1.4169999999999998,-3.999,-1.499,-288.02598660000007,-163.29303000000004,55.06126379999999,69.63731532,12.64518306,2.01681216
2.69,269,2.768,-3.999,-2.9210000000000003,-444.2716332,-361.7656812,232.6782438,64.70414694,9.16159842,-0.49274388
2.6999999999999997,270,3.149,-2.724,-0.195,-437.453433,-407.659617,196.8683688,59.97151386,5.603529239999999,-3.26013102
2.71,271,0.8340000000000001,-0.948,0.787,-260.35211519999996,-331.6853862,46.9252602,57.16974924,3.5351508600000003,-5.88427866
2.7199999999999998,272,-1.027,-1.733,-0.32299999999999995,-203.2854984,-208.1556414,-57.1239126,55.02115674,2.88197874,-7.9583866200000015
2.73,273,-1.759,-2.057,-0.5760000000000001,-239.3818524,-167.8193982,-145.244853,52.49441196,3.07105488,-10.18719324
2.7399999999999998,274,-1.588,-1.717,0.29600000000000004,-289.6875648,-205.9211052,-171.8301042,49.43481624,3.1226211000000004,-12.88582542
2.75,275,-1.285,-0.947,0.871,-323.72127,-183.0027852,-142.5519504,46.05436404,2.9507337,-15.223494059999998
2.76,276,-0.547,-0.511,0.951,-331.57079460000006,-111.153852,-87.31879920000002,42.62807520000001,2.7501984,-16.638700319999998
2.77,277,-0.008,-0.453,0.8640000000000001,-323.7785658,-44.34694920000001,-37.0130868,39.32210754000001,2.62987722,-17.2173879
2.78,278,0.053,-0.521,0.747,-315.1841958,-7.9641161999999985,-6.0733548,36.11927232,2.5611222600000003,-17.31479076
2.79,279,-0.033,-0.215,0.426,-321.5440296,7.2192707999999985,14.381245800000002,32.86487088,2.4923673,-17.15436252
2.8,280,-0.19,0.025,0.08800000000000001,-283.72880160000005,-3.4377480000000005,34.091001,29.994351300000005,2.24026578,-16.87934268
2.81,281,-0.161,-0.084,0.073,-225.5162688,-1.8907613999999997,39.247623,27.71970804,1.99962342,-16.54702704
2.82,282,-0.066,-0.377,0.034,-210.6766566,13.120738199999998,41.252976,25.59403386,1.90222056,-16.11157896
2.8299999999999996,283,-0.21,-0.516,0.092,-217.3229694,29.392745399999995,47.841993,23.4053343,1.93659804,-15.55008012
2.84,284,-0.225,-0.151,-0.252,-247.0021938,38.2162986,27.8457588,20.90723742,2.14286292,-15.131820780000002
2.8499999999999996,285,-0.321,0.015,-0.159,-224.2557612,42.5707794,-2.1772404,18.63259416,2.49809688,-14.98858128
2.86,286,-0.441,-0.024,-0.038,-193.7170998,57.86875799999999,-24.1215318,16.66161864,3.0825140400000004,-15.02295876
2.8699999999999997,287,-0.564,0.242,-0.09,-188.0448156,67.7236356,-29.0489706,14.73647976,3.77579322,-15.091713719999998
2.88,288,-0.962,0.6890000000000001,-0.309,-162.7773678,96.1996482,-33.518043,13.069171980000002,4.749821819999998,-15.1547391
2.8899999999999997,289,-1.226,0.8690000000000001,-0.5660000000000001,-126.2799432,137.1088494,-51.4516284,11.75136858,6.1592985,-15.32089692
2.9,290,-1.142,0.877,-0.7170000000000001,-84.7404882,160.08446519999995,-63.25456320000001,10.82317662,7.80368796,-15.57872802
2.9099999999999997,291,-0.988,0.628,-0.4970000000000001,-50.76407879999999,181.7995734,-68.75496,10.23875946,9.682990199999999,-15.876666179999996
2.92,292,-0.918,0.396,-0.501,-24.350715,212.1090516,-66.80690279999999,9.91790298,11.84877144,-16.105849380000002
2.9299999999999997,293,-0.7859999999999999,0.361,-0.366,-21.2567418,240.2985852,-59.98870260000001,9.64288314,14.27811336,-16.22617056
2.94,294,-0.473,0.476,-0.045,-28.1322378,275.9365728,-48.4722468,9.33348582,17.034041339999998,-16.17460434
2.9499999999999997,295,-0.054000000000000006,0.774,0.044,-37.7006364,305.9022762,-40.10706,8.949603960000003,20.07071874,-15.99698736
2.96,296,0.516,0.985,0.161,-66.9214944,326.7006516,-30.194886600000004,8.34226848,23.28501312,-15.69331962
2.9699999999999998,297,0.833,0.862,0.218,-92.1889422,345.0353076,-22.7464326,7.51720896,26.6711949,-15.30943776
2.98,298,0.928,0.636,0.369,-100.3249458,296.2765818000001,-21.829699800000004,6.58328742,29.58182154,-15.04587708
2.9899999999999998,299,1.073,0.994,-0.545,-46.123119,205.5200346,-23.491278,6.11919144,31.61582244,-14.98858128
3.0,300,1.243,1.105,-1.366,96.543423,160.42824,-9.453807000000001,7.15051584,33.208645680000004,-14.845341780000002
3.01,301,2.1630000000000003,0.7440000000000001,-1.249,117.97205220000001,164.4962418,12.032117999999999,8.58291084,34.8071985,-14.38697538
3.02,302,3.467,0.38,-1.242,69.55710119999999,141.807105,24.5798982,9.6256944,36.1536498,-13.77391032
3.03,303,2.834,0.104,-2.011,9.797581800000001,97.8612264,42.34159620000001,10.16427492,37.03027554000001,-13.01760576
3.04,304,2.994,0.325,-2.882,-2.1199446,11.5737516,17.589810600000003,10.29032568,37.11048966,-12.7769634
3.05,305,3.819,0.578,-2.679,69.041439,-126.7383096,-12.7196676,10.72004418,35.91873702,-13.263977700000002
3.06,306,3.893,0.815,-2.303,-4.0680017999999984,-243.9655164,-37.3568616,10.10124954,33.6326346,-14.32395
3.07,307,2.541,2.0,-1.872,-145.244853,-264.4774128,-68.1247062,7.94119788,31.15172646000001,-15.676130880000002
3.08,308,1.839,0.919,-2.696,-35.9244666,-205.8065136,0.057295800000000015,7.41407652,29.1349143,-16.04855358
3.09,309,1.893,-0.516,-3.194,-52.82672760000001,-235.7149212,124.045407,7.3625102999999985,26.66546532,-15.074524979999998
3.0999999999999996,310,1.779,-0.478,-2.385,-77.6931048,-252.8463654,158.0791122,7.167704579999999,23.98402188,-13.77391032
3.11,311,1.466,0.4970000000000001,-1.5830000000000002,-68.1247062,-236.058696,100.4395374,6.783822719999999,21.54895038,-13.069171980000002
3.1199999999999997,312,0.985,0.863,-1.204,-64.22859179999999,-209.12967,41.825934,6.205135139999999,19.44619452,-12.93739164
3.13,313,0.6609999999999999,0.5770000000000001,-1.16,-50.8786704,-183.2319684,26.069589,5.72385042,17.61272892,-12.91447332
3.1399999999999997,314,0.617,0.342,-0.959,-62.5670136,-157.276971,25.840405800000006,5.1279740999999985,16.03709442,-12.839988780000002
3.15,315,0.583,0.263,-0.815,-66.00476160000001,-146.10429,16.615782,4.4690724,14.593240260000002,-12.834259200000002
3.1599999999999997,316,0.401,0.222,-0.8009999999999999,-57.92605379999999,-141.23414699999995,4.6982556,3.87892566,13.18949316,-12.925932479999995
3.17,317,0.177,0.21,-0.818,-53.285094,-133.38462239999998,-5.2139178,3.31742682,11.87741934,-13.09781988
3.1799999999999997,318,0.056,0.34700000000000003,-0.823,-54.3164184,-122.72760359999998,-9.568398599999998,2.74446882,10.66274838,-13.2926256
3.19,319,-0.051,0.528,-0.81,-57.7541664,-113.33109240000002,-7.448453999999999,2.1485925000000003,9.54548028,-13.44159468
3.1999999999999997,320,-0.245,0.6659999999999999,-0.763,-62.5097178,-104.851314,-5.2712136,1.48396122,8.48550798,-13.55618628
3.21,321,-0.402,0.644,-0.7609999999999999,-57.2958,-93.50674559999999,-6.6463128000000005,0.89954406,7.55731602,-13.659318719999998
3.2199999999999998,322,-0.509,0.531,-0.754,-49.274388,-79.24009140000003,-8.9381448,0.39534102,6.77236356,-13.779639899999998
3.23,323,-0.618,0.396,-0.743,-42.7999626,-66.0620574,-9.3965112,-0.04010706,6.113461859999999,-13.88850192
3.2399999999999998,324,-0.6709999999999999,0.27,-0.721,-36.1536498,-54.7747848,-9.2819196,-0.40680018,5.56915176,-13.99163436
3.25,325,-0.623,0.175,-0.695,-28.1895336,-45.263682,-8.9954406,-0.7161975,5.042030400000002,-14.07757806
3.26,326,-0.547,0.11,-0.695,-20.168121600000006,-38.27359439999999,-10.4278356,-0.92246238,4.66387812,-14.18644008
3.27,327,-0.478,0.021,-0.722,-7.7349330000000025,-29.793816,-14.2093584,-1.00840608,4.36593996,-14.32967958
3.28,328,-0.439,-0.063,-0.727,9.3392154,-20.912967,-21.485925,-0.92819196,4.1539455,-14.54740362
3.29,329,-0.392,-0.138,-0.691,26.7571386,-14.7823164,-29.335449600000004,-0.67609044,4.010706,-14.8396122
3.3,330,-0.33,-0.155,-0.679,32.142943800000005,-8.136003599999999,-34.4347758,-0.36096354,3.89038482,-15.183387
3.31,331,-0.307,-0.108,-0.711,33.2888598,0.9167328,-36.955791,-0.05156622,3.90757356,-15.55008012
3.32,332,-0.29,-0.036000000000000004,-0.7959999999999999,33.5753388,6.990087599999999,-37.9871154,0.25783110000000004,3.9820580999999997,-15.93396198
3.33,333,-0.272,0.01,-0.9,33.403451399999994,10.5424272,-35.52339600000001,0.5729580000000001,4.09092012,-16.28346636
3.34,334,-0.267,0.024,-1.017,33.4607472,12.9488508,-29.8511118,0.8880849000000001,4.22843004,-16.58140452
3.3499999999999996,335,-0.234,0.016,-1.138,30.7105488,15.469866,-22.7464326,1.1745638999999999,4.36593996,-16.79912856
3.36,336,-0.181,-0.042,-1.238,27.9603504,18.621135,-14.5531332,1.44958374,4.56074568,-16.93663848
3.3699999999999997,337,-0.132,-0.14,-1.288,25.4393352,20.454600600000006,-8.307891,1.6959556799999995,4.76701056,-17.01112302
3.38,338,-0.105,-0.228,-1.293,21.6578124,20.05353,-3.4377480000000005,1.91367972,4.96754586,-17.034041339999998
3.3899999999999997,339,-0.086,-0.28,-1.245,15.870936600000002,20.454600600000006,-0.22918320000000006,2.07410796,5.17381074,-17.02258218
3.4,340,-0.055,-0.275,-1.175,9.568398599999998,20.8556712,2.1199446,2.19442914,5.3571573,-16.98247512
3.4099999999999997,341,-0.02,-0.254,-1.113,2.0053530000000004,19.938938399999998,4.9847345999999995,2.21734746,5.5519630200000005,-16.919449739999994
3.42,342,0.032,-0.205,-1.0659999999999998,-4.1825934,17.8762896,7.161975,2.18296998,5.72385042,-16.83923562
3.4299999999999997,343,0.08800000000000001,-0.158,-1.014,-6.302537999999998,16.501190400000002,8.8235532,2.12567418,5.88427866,-16.736103179999994
3.44,344,0.13,-0.121,-0.966,-8.078707799999998,16.042824000000003,9.3392154,2.05118964,6.03897732,-16.632970739999998
3.4499999999999997,345,0.147,-0.081,-0.922,-8.7089616,16.329303,8.193299399999999,1.9767051,6.205135139999999,-16.541297460000006
3.46,346,0.141,-0.058,-0.884,-7.9641161999999985,17.303331600000003,6.302537999999998,1.90222056,6.37129296,-16.466812920000002
3.4699999999999998,347,0.139,-0.043,-0.852,-7.333862400000001,17.303331600000003,4.8128472,1.8334656000000003,6.543180359999999,-16.409517119999997
3.48,348,0.149,-0.031,-0.8420000000000001,-6.3598338,16.673077799999998,4.8128472,1.77044022,6.7036086,-16.35222132
3.4899999999999998,349,0.161,-0.013,-0.8490000000000001,-4.010706000000001,16.902261,5.5576926,1.73606274,6.86976642,-16.28346636
3.5,350,0.188,-0.002,-0.866,0.0,19.2513888,6.9327918,1.73033316,7.08176088,-16.208981819999998
3.51,351,0.218,0.009000000000000001,-0.899,4.3544808,22.631841,8.307891,1.78762896,7.29948492,-16.11157896
3.52,352,0.242,0.02,-0.934,7.7922288,25.1528562,9.453807000000001,1.87357266,7.545856859999999,-16.002716940000006
3.53,353,0.271,0.026,-0.97,11.229976800000001,27.2728008,9.8548776,1.99962342,7.8151471200000024,-15.888125340000002
3.54,354,0.292,0.015,-0.974,11.8029348,27.9603504,9.3392154,2.13140376,8.09016696,-15.779263320000002
3.55,355,0.308,0.0,-0.984,9.740286,26.5852512,8.8235532,2.2345362,8.376645960000001,-15.676130880000002
3.56,356,0.327,-0.019,-1.003,7.9641161999999985,24.1215318,8.3651868,2.32620948,8.61155874,-15.57872802
3.57,357,0.338,-0.034,-1.014,7.161975,20.912967,7.906820400000001,2.41215318,8.81782362,-15.48705474
3.58,358,0.335,-0.044,-1.015,6.6463128000000005,18.334656,7.1046792000000005,2.4923673,8.9954406,-15.40111104
3.59,359,0.32,-0.042,-1.005,5.7868758000000025,16.386598799999998,6.130650599999999,2.5611222600000003,9.15586884,-15.326626499999998
3.5999999999999996,360,0.31,-0.033,-0.998,3.666931200000001,13.6364004,5.1566220000000005,2.58977016,9.3392154,-15.27506028
3.61,361,0.301,-0.018000000000000002,-0.99,0.8594370000000001,10.313244,4.3544808,2.6069589,9.43661826,-15.223494059999998
3.6199999999999997,362,0.293,-0.003,-0.982,-0.3437748,7.3911582,4.1825934,2.6069589,9.5111028,-15.17765742
3.63,363,0.278,0.012,-0.974,-0.4583664000000001,5.443101,4.0680017999999984,2.61268848,9.56266902,-15.131820780000002
3.6399999999999997,364,0.259,0.023,-0.962,0.11459160000000003,4.583664,3.6096354,2.61841806,9.60850566,-15.091713719999998
3.65,365,0.24,0.034,-0.95,0.5156622000000001,3.8388186,2.9220857999999996,2.50955604,9.71736768,-15.091713719999998
3.6599999999999997,366,0.225,0.042,-0.949,0.4010706,2.6929026,2.0053530000000004,2.5210152000000003,9.746015580000002,-15.068795399999999
3.67,367,0.211,0.041,-0.959,0.3437748,1.432395,1.2605076000000002,2.52674478,9.75747474,-15.05160666
3.6799999999999997,368,0.203,0.032,-0.963,1.2605076000000002,-0.8594370000000001,0.8021411999999999,2.53820394,9.746015580000002,-15.04587708
3.69,369,0.193,0.008,-0.96,2.6356068,-3.7815227999999994,0.572958,2.56685184,9.7116381,-15.0401475
3.6999999999999997,370,0.18600000000000005,-0.014,-0.957,3.151269,-5.844171599999999,0.6302538000000001,2.56685184,9.66007188,-15.04587708
3.71,371,0.181,-0.029,-0.958,3.151269,-6.990087599999999,0.5156622000000001,2.6012293200000003,9.59131692,-15.04587708
3.7199999999999998,372,0.184,-0.037000000000000005,-0.963,2.8074942000000003,-7.5057497999999985,0.3437748,2.62987722,9.51683238,-15.04587708
3.73,373,0.188,-0.039,-0.974,2.2345362,-7.5630456000000015,-0.11459160000000003,2.65279554,9.44234784,-15.05733624
3.7399999999999998,374,0.189,-0.038,-0.989,2.1772404,-7.161975,-0.5156622000000001,2.67571386,9.37359288,-15.068795399999999
3.75,375,0.182,-0.043,-0.98,2.1199446,-7.2765666,-0.6875496,2.67571386,9.3105675,-15.08025456
3.76,376,0.173,-0.049,-0.977,1.3178034,-7.2192707999999985,-0.7448454000000001,2.68717302,9.23608296,-15.097443299999998
3.77,377,0.161,-0.057,-0.984,0.9740286,-6.589017,-0.8021411999999999,2.69863218,9.17305758,-15.10890246
3.78,378,0.151,-0.06,-0.986,1.2032118,-5.958763200000001,-1.0313244,2.71009134,9.11576178,-15.126091199999998
3.79,379,0.14,-0.062,-0.989,1.3750992,-5.0993262,-1.2605076000000002,2.7215505,9.06419556,-15.14327994
3.8,380,0.127,-0.06,-1.0,1.3178034,-4.8128472,-1.3750992,2.7215505,8.97252228,-15.1547391
3.81,381,0.114,-0.058,-1.0,1.3750992,-5.958763200000001,-1.3178034,2.73300966,8.91522648,-15.17192784
3.82,382,0.106,-0.059,-0.997,1.3750992,-7.333862400000001,-1.2032118,2.7501984,8.84647152,-15.18911658
3.83,383,0.1,-0.06,-0.987,1.0886202,-8.021412000000002,-1.2032118,2.75592798,8.7662574,-15.206305319999998
3.84,384,0.099,-0.056,-0.979,0.572958,-7.2192707999999985,-1.2032118,2.76165756,8.69750244,-15.22922364
3.8499999999999996,385,0.103,-0.042,-0.968,0.4010706,-5.5576926,-1.2032118,2.72728008,8.58291084,-15.240682800000002
3.86,386,0.112,-0.03,-0.971,0.7448454000000001,-4.297185,-1.0313244,2.73300966,8.542803780000002,-15.25214196
3.8699999999999997,387,0.122,-0.026,-0.974,1.145916,-3.2085648,-0.9740286,2.74446882,8.5084263,-15.26360112
3.88,388,0.131,-0.023,-0.976,1.5469866,-2.3491278,-0.7448454000000001,2.75592798,8.48550798,-15.27506028
3.8899999999999997,389,0.134,-0.024,-0.977,1.9480572,-2.1772404,-0.572958,2.7788463,8.46831924,-15.28078986
3.9,390,0.139,-0.024,-0.98,2.291832,-2.1199446,-0.11459160000000003,2.7215505,8.41675302,-15.29224902
3.9099999999999997,391,0.141,-0.023,-0.98,2.0053530000000004,-1.8334656000000005,0.22918320000000006,2.74446882,8.39956428,-15.29224902
3.92,392,0.14,-0.022,-0.981,1.432395,-1.2032118,0.4583664000000001,2.75592798,8.38810512,-15.28651944
3.9299999999999997,393,0.138,-0.024,-0.981,0.9167328,-0.3437748,0.4583664000000001,2.76738714,8.382375540000002,-15.28078986
3.94,394,0.133,-0.025,-0.984,0.4583664000000001,0.4010706,0.4583664000000001,2.77311672,8.38810512,-15.27506028
3.9499999999999997,395,0.124,-0.028,-0.978,0.22918320000000006,0.8594370000000001,0.4010706,2.57258142,8.233406460000001,-15.27506028
3.96,396,0.118,-0.028,-0.978,-0.11459160000000003,0.8594370000000001,0.286479,2.57258142,8.23913604,-15.2693307
3.9699999999999998,397,0.117,-0.025,-0.977,-0.572958,0.9167328,0.22918320000000006,2.56685184,8.250595200000001,-15.26360112
3.98,398,0.119,-0.024,-0.977,-0.572958,1.2032118,0.1718874,2.5611222600000003,8.262054359999999,-15.26360112
3.9899999999999998,399,0.121,-0.025,-0.978,-0.5156622000000001,1.8334656000000005,0.286479,2.55539268,8.2792431,-15.25787154
4.0,400,0.123,-0.027000000000000003,-0.981,-0.4010706,2.2345362,0.4583664000000001,2.46944898,8.23913604,-15.25214196
4.01,401,0.125,-0.03,-0.983,-0.4583664000000001,2.4064236,0.572958,2.4637194,8.262054359999999,-15.24641238
4.02,402,0.125,-0.034,-0.983,-0.6302538000000001,2.291832,0.7448454000000001,2.45798982,8.28497268,-15.23495322
4.03,403,0.122,-0.034,-0.985,-0.5156622000000001,2.1199446,0.8021411999999999,2.45226024,8.307891,-15.223494059999998
4.04,404,0.12,-0.035,-0.984,-0.057295800000000015,2.3491278,0.6875496,2.45226024,8.33080932,-15.21776448
4.05,405,0.123,-0.035,-0.986,0.22918320000000006,2.5210152000000003,0.572958,2.4064236,8.302161420000001,-15.206305319999998
4.06,406,0.131,-0.038,-0.986,0.22918320000000006,2.6356068,0.6302538000000001,2.4064236,8.325079740000001,-15.20057574
4.07,407,0.141,-0.039,-0.985,-0.057295800000000015,2.4637194,0.6302538000000001,2.4064236,8.34799806,-15.18911658
4.08,408,0.14400000000000002,-0.041,-0.983,-0.286479,2.291832,0.572958,2.4064236,8.37091638,-15.183387
4.09,409,0.14800000000000002,-0.043,-0.98,-0.572958,1.7761698,0.5156622000000001,2.40069402,8.38810512,-15.17765742
4.1,410,0.15,-0.042,-0.978,-0.7448454000000001,1.4896908000000002,0.4583664000000001,2.3376686399999995,8.393834700000001,-15.17765742
4.109999999999999,411,0.152,-0.039,-0.977,-0.8594370000000001,1.6615782,0.3437748,2.33193906,8.41102344,-15.17192784
4.12,412,0.157,-0.036000000000000004,-0.977,-0.6875496,2.1772404,0.3437748,2.3204799,8.43394176,-15.166198259999998
4.13,413,0.162,-0.031,-0.978,-0.4583664000000001,2.5210152000000003,0.286479,2.3204799,8.45686008,-15.16046868
4.14,414,0.163,-0.028,-0.979,-0.057295800000000015,2.86479,0.3437748,2.3147503200000004,8.48550798,-15.1547391
4.1499999999999995,415,0.162,-0.026,-0.979,0.22918320000000006,2.86479,0.286479,2.24599536,8.52561504,-15.16046868
4.16,416,0.157,-0.028,-0.978,0.4010706,2.4064236,0.057295800000000015,2.25172494,8.54853336,-15.16046868
4.17,417,0.155,-0.032,-0.979,0.5156622000000001,1.8334656000000005,-0.1718874,2.25745452,8.565722099999999,-15.16046868
4.18,418,0.156,-0.035,-0.977,0.1718874,1.3750992,-0.1718874,2.25745452,8.58291084,-15.16046868
4.1899999999999995,419,0.162,-0.035,-0.975,-0.286479,1.145916,-0.11459160000000003,2.25745452,8.594370000000001,-15.16046868
4.2,420,0.17,-0.031,-0.975,-0.1718874,1.2605076000000002,-0.11459160000000003,2.09702628,8.6803137,-15.18911658
4.21,421,0.174,-0.031,-0.974,0.286479,1.5469866,0.0,2.09702628,8.69750244,-15.18911658
4.22,422,0.173,-0.034,-0.966,0.057295800000000015,1.432395,0.11459160000000003,2.09702628,8.7089616,-15.18911658
4.2299999999999995,423,0.168,-0.041,-0.969,-0.3437748,0.4583664000000001,0.11459160000000003,2.09702628,8.714691179999999,-15.183387
4.24,424,0.166,-0.042,-0.973,-0.9167328,0.0,0.057295800000000015,2.08556712,8.714691179999999,-15.183387
4.25,425,0.16899999999999998,-0.036000000000000004,-0.981,-0.9167328,0.3437748,-0.1718874,1.9767051,8.75479824,-15.206305319999998
4.26,426,0.17,-0.03,-0.992,-0.22918320000000006,0.7448454000000001,-0.4583664000000001,1.9767051,8.7662574,-15.212034899999995
4.27,427,0.16899999999999998,-0.025,-0.994,0.3437748,0.5156622000000001,-0.4010706,1.9767051,8.77198698,-15.212034899999995
4.28,428,0.166,-0.028,-0.986,0.3437748,-0.1718874,-0.4010706,1.98243468,8.7662574,-15.21776448
4.29,429,0.158,-0.033,-0.981,0.1718874,-0.7448454000000001,-0.4583664000000001,1.98243468,8.76052782,-15.223494059999998
4.3,430,0.153,-0.035,-0.978,0.057295800000000015,-0.8594370000000001,-0.6302538000000001,1.89649098,8.714691179999999,-15.23495322
4.31,431,0.14800000000000002,-0.032,-0.975,0.0,-0.8021411999999999,-0.572958,1.89649098,8.7089616,-15.240682800000002
4.32,432,0.145,-0.029,-0.975,0.0,-0.4583664000000001,-0.4010706,1.89649098,8.70323202,-15.24641238
4.33,433,0.14300000000000002,-0.028,-0.976,0.11459160000000003,-0.057295800000000015,-0.1718874,1.89649098,8.70323202,-15.25214196
4.34,434,0.142,-0.028,-0.976,0.22918320000000006,0.22918320000000006,-0.22918320000000006,1.89649098,8.70323202,-15.25214196
4.35,435,0.14,-0.029,-0.979,0.286479,0.5156622000000001,-0.4583664000000001,1.79908812,8.634477059999998,-15.25787154
4.36,436,0.13699999999999998,-0.029,-0.981,0.4010706,0.22918320000000006,-0.4010706,1.8048176999999999,8.634477059999998,-15.26360112
4.37,437,0.134,-0.031,-0.981,0.4010706,-0.22918320000000006,-0.4010706,1.81054728,8.634477059999998,-15.2693307
4.38,438,0.13,-0.032,-0.977,0.3437748,-0.5156622000000001,-0.3437748,1.81054728,8.62874748,-15.2693307
4.39,439,0.131,-0.034,-0.977,0.22918320000000006,-0.3437748,-0.286479,1.81627686,8.62874748,-15.27506028
4.3999999999999995,440,0.132,-0.033,-0.976,0.057295800000000015,0.0,-0.22918320000000006,1.61001198,8.37091638,-15.2693307
4.41,441,0.135,-0.034,-0.98,0.11459160000000003,0.5156622000000001,-0.1718874,1.61001198,8.376645960000001,-15.2693307
4.42,442,0.135,-0.035,-0.983,0.4583664000000001,1.2032118,-0.22918320000000006,1.6157415599999996,8.38810512,-15.27506028
4.43,443,0.133,-0.036000000000000004,-0.982,0.4010706,1.4896908000000002,-0.4583664000000001,1.62147114,8.40529386,-15.27506028
4.4399999999999995,444,0.131,-0.038,-0.982,0.4010706,1.5469866,-0.6875496,1.62147114,8.41675302,-15.28078986
4.45,445,0.133,-0.038,-0.98,0.22918320000000006,1.145916,-0.6302538000000001,1.59282324,8.37091638,-15.28651944
4.46,446,0.13699999999999998,-0.039,-0.978,0.286479,0.8594370000000001,-0.4010706,1.59282324,8.382375540000002,-15.29224902
4.47,447,0.14,-0.037000000000000005,-0.98,0.5156622000000001,0.9740286,-0.11459160000000003,1.59855282,8.393834700000001,-15.29224902
4.4799999999999995,448,0.14300000000000002,-0.034,-0.983,0.8594370000000001,1.3178034,0.0,1.61001198,8.40529386,-15.29224902
4.49,449,0.14400000000000002,-0.03,-0.985,1.0886202,1.4896908000000002,0.0,1.62147114,8.422482599999999,-15.29224902
4.5,450,0.145,-0.03,-0.986,1.2032118,1.4896908000000002,0.057295800000000015,1.59282324,8.41675302,-15.29224902
4.51,451,0.145,-0.03,-0.982,1.2032118,1.6615782,0.1718874,1.61001198,8.43394176,-15.28651944
4.52,452,0.14800000000000002,-0.031,-0.978,1.145916,2.0053530000000004,0.11459160000000003,1.62147114,8.45686008,-15.28651944
4.53,453,0.152,-0.032,-0.976,1.2032118,2.1772404,0.286479,1.6329303,8.47404882,-15.28078986
4.54,454,0.152,-0.032,-0.973,1.2032118,2.3491278,0.286479,1.64438946,8.49696714,-15.27506028
4.55,455,0.155,-0.031,-0.975,1.2032118,2.6929026,0.3437748,1.6329303,8.52561504,-15.27506028
4.56,456,0.156,-0.029,-0.977,1.5469866,3.151269,0.4010706,1.65011904,8.55999252,-15.2693307
4.57,457,0.157,-0.029,-0.979,1.6615782,3.151269,0.3437748,1.6673077799999998,8.58864042,-15.26360112
4.58,458,0.156,-0.032,-0.98,1.7188740000000002,2.9220857999999996,0.286479,1.6844965200000002,8.623017899999999,-15.25787154
4.59,459,0.156,-0.036000000000000004,-0.98,1.6042823999999998,2.578311,0.22918320000000006,1.70168526,8.64593622,-15.25214196
4.6,460,0.156,-0.039,-0.981,1.3178034,2.1772404,0.11459160000000003,1.6959556799999995,8.663124960000001,-15.25214196
4.61,461,0.158,-0.038,-0.983,1.3750992,1.7188740000000002,0.1718874,1.71314442,8.6803137,-15.25214196
4.62,462,0.158,-0.039,-0.985,1.5469866,1.3178034,0.1718874,1.73033316,8.691772859999999,-15.24641238
4.63,463,0.155,-0.039,-0.987,1.7761698,1.3178034,0.11459160000000003,1.7475218999999995,8.7089616,-15.24641238
4.64,464,0.153,-0.039,-0.981,1.3750992,1.3750992,-0.11459160000000003,1.75898106,8.72042076,-15.24641238
4.6499999999999995,465,0.155,-0.042,-0.981,0.9740286,1.2605076000000002,-0.1718874,1.7475218999999995,8.72615034,-15.25214196
4.66,466,0.158,-0.043,-0.982,0.11459160000000003,0.9167328,-0.22918320000000006,1.7475218999999995,8.73187992,-15.25214196
4.67,467,0.156,-0.041,-0.979,-0.3437748,0.572958,-0.22918320000000006,1.74179232,8.7376095,-15.25214196
4.68,468,0.153,-0.039,-0.98,-0.22918320000000006,0.6875496,-0.1718874,1.74179232,8.74333908,-15.25787154
4.6899999999999995,469,0.152,-0.039,-0.982,0.286479,1.145916,-0.1718874,1.74179232,8.76052782,-15.25787154
4.7,470,0.153,-0.044,-0.971,0.11459160000000003,1.0886202,-0.1718874,1.7246035799999997,8.74333908,-15.25787154
4.71,471,0.152,-0.047,-0.967,-0.4583664000000001,0.6875496,-0.11459160000000003,1.7188740000000002,8.75479824,-15.25787154
4.72,472,0.156,-0.046,-0.973,-0.9740286,0.11459160000000003,0.0,1.7074148399999998,8.75479824,-15.25787154
4.7299999999999995,473,0.159,-0.039,-0.978,-0.6875496,0.286479,0.0,1.70168526,8.75479824,-15.25787154
4.74,474,0.16,-0.033,-0.987,-0.286479,0.8594370000000001,-0.11459160000000003,1.6959556799999995,8.7662574,-15.25787154
4.75,475,0.157,-0.029,-0.995,0.0,1.0886202,-0.286479,1.62147114,8.749068659999999,-15.2693307
4.76,476,0.151,-0.032,-0.99,0.22918320000000006,0.5156622000000001,-0.286479,1.62147114,8.75479824,-15.2693307
4.77,477,0.147,-0.036000000000000004,-0.985,0.22918320000000006,0.1718874,-0.22918320000000006,1.6272007199999998,8.75479824,-15.27506028
4.78,478,0.146,-0.036000000000000004,-0.98,0.4583664000000001,0.22918320000000006,-0.22918320000000006,1.6272007199999998,8.76052782,-15.27506028
4.79,479,0.147,-0.035,-0.976,0.6302538000000001,0.3437748,-0.1718874,1.6386598799999998,8.76052782,-15.28078986
4.8,480,0.151,-0.032,-0.976,0.5156622000000001,0.4010706,-0.057295800000000015,1.5527161800000002,8.72615034,-15.28651944
4.81,481,0.152,-0.032,-0.974,0.4583664000000001,0.22918320000000006,0.0,1.55844576,8.72615034,-15.28651944
4.82,482,0.152,-0.033,-0.973,0.4010706,0.22918320000000006,0.057295800000000015,1.56417534,8.73187992,-15.28651944
4.83,483,0.152,-0.035,-0.975,0.22918320000000006,0.6302538000000001,0.0,1.56417534,8.7376095,-15.28078986
4.84,484,0.152,-0.035,-0.98,0.22918320000000006,0.8594370000000001,-0.057295800000000015,1.56990492,8.749068659999999,-15.28078986
4.85,485,0.149,-0.035,-0.984,0.3437748,0.9740286,-0.11459160000000003,1.52979786,8.714691179999999,-15.28651944
4.86,486,0.146,-0.034,-0.983,0.4583664000000001,0.8594370000000001,-0.22918320000000006,1.53552744,8.72615034,-15.28651944
4.87,487,0.14300000000000002,-0.039,-0.981,0.4010706,0.6302538000000001,-0.286479,1.5412570200000002,8.73187992,-15.29224902
4.88,488,0.145,-0.041,-0.979,0.0,0.572958,-0.057295800000000015,1.5412570200000002,8.7376095,-15.29224902
4.89,489,0.149,-0.043,-0.98,-0.11459160000000003,0.6302538000000001,0.0,1.53552744,8.74333908,-15.28651944
4.8999999999999995,490,0.153,-0.043,-0.98,0.057295800000000015,0.7448454000000001,0.057295800000000015,1.52406828,8.73187992,-15.28651944
4.91,491,0.152,-0.044,-0.979,0.11459160000000003,0.9167328,0.057295800000000015,1.52406828,8.7376095,-15.28651944
4.92,492,0.15,-0.043,-0.979,-0.057295800000000015,1.0313244,0.0,1.52406828,8.749068659999999,-15.28651944
4.93,493,0.15,-0.04,-0.978,-0.22918320000000006,0.8594370000000001,0.0,1.5183387000000002,8.76052782,-15.28651944
4.9399999999999995,494,0.151,-0.039,-0.978,-0.286479,0.6875496,0.0,1.5183387000000002,8.7662574,-15.28651944
4.95,495,0.153,-0.037000000000000005,-0.98,-0.22918320000000006,0.6875496,0.0,1.46677248,8.74333908,-15.28651944
4.96,496,0.154,-0.039,-0.982,0.11459160000000003,0.8594370000000001,0.11459160000000003,1.46677248,8.75479824,-15.28651944
4.97,497,0.153,-0.039,-0.983,0.3437748,1.0886202,0.1718874,1.47250206,8.7662574,-15.28651944
4.9799999999999995,498,0.152,-0.039,-0.981,0.3437748,1.145916,0.1718874,1.4782316400000002,8.77771656,-15.28078986
4.99,499,0.149,-0.038,-0.98,0.286479,1.0313244,0.0,1.4782316400000002,8.783446139999999,-15.28078986
5.0,500,0.14800000000000002,-0.038,-0.979,0.1718874,1.0886202,-0.057295800000000015,1.44958374,8.75479824,-15.28078986
5.01,501,0.15,-0.037000000000000005,-0.978,0.0,1.2605076000000002,-0.11459160000000003,1.44958374,8.7662574,-15.28078986
5.02,502,0.152,-0.036000000000000004,-0.979,0.0,1.4896908000000002,-0.057295800000000015,1.44958374,8.783446139999999,-15.28078986
5.03,503,0.154,-0.036000000000000004,-0.979,0.0,1.6042823999999998,0.0,1.44958374,8.80063488,-15.28078986
5.04,504,0.155,-0.032,-0.977,0.057295800000000015,1.6615782,0.0,1.44958374,8.81782362,-15.28078986
5.05,505,0.156,-0.032,-0.975,0.286479,1.4896908000000002,0.0,1.41520626,8.81782362,-15.28078986
5.06,506,0.155,-0.033,-0.973,0.286479,0.8594370000000001,0.0,1.4209358399999998,8.82928278,-15.28078986
5.07,507,0.155,-0.034,-0.972,0.11459160000000003,0.286479,0.0,1.4209358399999998,8.82928278,-15.28078986
5.08,508,0.153,-0.036000000000000004,-0.971,0.11459160000000003,0.4010706,0.0,1.4209358399999998,8.83501236,-15.28078986
5.09,509,0.151,-0.037000000000000005,-0.976,0.3437748,0.4010706,0.0,1.42666542,8.84074194,-15.28078986
5.1,510,0.151,-0.038,-0.978,0.286479,0.5156622000000001,-0.057295800000000015,1.39801752,8.80063488,-15.28078986
5.11,511,0.154,-0.038,-0.984,0.22918320000000006,0.572958,0.0,1.4037471,8.80636446,-15.28078986
5.12,512,0.155,-0.037000000000000005,-0.988,0.057295800000000015,0.572958,0.0,1.4037471,8.81209404,-15.28078986
5.13,513,0.155,-0.038,-0.988,0.11459160000000003,0.3437748,-0.057295800000000015,1.4037471,8.81782362,-15.28078986
5.14,514,0.152,-0.041,-0.982,0.11459160000000003,0.0,-0.057295800000000015,1.40947668,8.81782362,-15.28078986
5.1499999999999995,515,0.152,-0.043,-0.976,-0.11459160000000003,-0.057295800000000015,-0.1718874,1.39228794,8.7662574,-15.28078986
5.16,516,0.152,-0.044,-0.976,-0.22918320000000006,-0.4010706,-0.11459160000000003,1.39228794,8.76052782,-15.28078986
5.17,517,0.154,-0.042,-0.98,-0.5156622000000001,-0.7448454000000001,0.0,1.38655836,8.75479824,-15.28651944
5.18,518,0.153,-0.039,-0.981,-0.4583664000000001,-0.5156622000000001,0.0,1.38082878,8.749068659999999,-15.28078986
5.1899999999999995,519,0.149,-0.037000000000000005,-0.987,0.0,-0.1718874,0.0,1.38082878,8.749068659999999,-15.28651944
5.2,520,0.149,-0.043,-0.98,0.11459160000000003,0.0,-0.22918320000000006,1.39228794,8.663124960000001,-15.27506028
5.21,521,0.14800000000000002,-0.049,-0.97,-0.7448454000000001,-0.3437748,-0.11459160000000003,1.38082878,8.663124960000001,-15.28078986
5.22,522,0.152,-0.05,-0.971,-1.2605076000000002,-0.7448454000000001,0.057295800000000015,1.36936962,8.651665800000002,-15.28078986
5.2299999999999995,523,0.156,-0.045,-0.973,-1.2605076000000002,-0.5156622000000001,0.1718874,1.3579104599999998,8.651665800000002,-15.27506028
5.24,524,0.161,-0.036000000000000004,-0.978,-0.9167328,0.11459160000000003,0.1718874,1.3464512999999998,8.651665800000002,-15.27506028
5.25,525,0.16399999999999998,-0.029,-0.988,-0.5156622000000001,0.6875496,0.057295800000000015,1.29488508,8.66885454,-15.28078986
5.26,526,0.163,-0.027000000000000003,-0.992,-0.572958,0.6302538000000001,0.057295800000000015,1.2891555000000001,8.67458412,-15.28078986
5.27,527,0.158,-0.029,-0.984,-0.6302538000000001,0.0,0.11459160000000003,1.28342592,8.67458412,-15.27506028
5.28,528,0.154,-0.034,-0.979,-0.3437748,-0.6875496,0.057295800000000015,1.27769634,8.66885454,-15.27506028
5.29,529,0.15,-0.037000000000000005,-0.976,0.0,-0.6875496,-0.057295800000000015,1.27769634,8.663124960000001,-15.27506028
5.3,530,0.149,-0.035,-0.976,0.286479,-0.1718874,-0.11459160000000003,1.23758928,8.61728832,-15.28078986
5.31,531,0.15,-0.031,-0.978,0.286479,0.11459160000000003,-0.11459160000000003,1.23758928,8.61728832,-15.28078986
5.32,532,0.152,-0.03,-0.978,0.286479,0.1718874,-0.057295800000000015,1.24331886,8.61728832,-15.28078986
5.33,533,0.154,-0.03,-0.979,0.1718874,0.11459160000000003,0.0,1.24331886,8.61728832,-15.28078986
5.34,534,0.157,-0.033,-0.977,0.0,0.0,0.057295800000000015,1.24331886,8.61728832,-15.28078986
5.35,535,0.159,-0.038,-0.976,-0.286479,-0.286479,0.1718874,1.2318597,8.623017899999999,-15.28078986
5.36,536,0.159,-0.042,-0.977,-0.572958,-0.4583664000000001,0.22918320000000006,1.22613012,8.61728832,-15.28078986
5.37,537,0.158,-0.042,-0.976,-0.5156622000000001,-0.22918320000000006,0.22918320000000006,1.22040054,8.61728832,-15.27506028
5.38,538,0.157,-0.041,-0.978,-0.4583664000000001,-0.057295800000000015,0.11459160000000003,1.22040054,8.61728832,-15.27506028
5.39,539,0.153,-0.04,-0.983,-0.4010706,0.057295800000000015,0.057295800000000015,1.21467096,8.61728832,-15.27506028
5.3999999999999995,540,0.153,-0.037000000000000005,-0.984,-0.4583664000000001,0.0,0.0,1.1745638999999999,8.58864042,-15.27506028
5.41,541,0.153,-0.037000000000000005,-0.984,-0.4010706,-0.11459160000000003,-0.057295800000000015,1.1688343199999998,8.58864042,-15.27506028
5.42,542,0.152,-0.04,-0.98,-0.286479,-0.22918320000000006,-0.057295800000000015,1.16310474,8.58291084,-15.28078986
5.43,543,0.151,-0.043,-0.974,-0.4583664000000001,-0.286479,0.0,1.1573751600000002,8.58291084,-15.28078986
5.4399999999999995,544,0.152,-0.044,-0.972,-0.6875496,-0.1718874,0.0,1.15164558,8.57718126,-15.27506028
5.45,545,0.155,-0.042,-0.976,-0.6302538000000001,-0.22918320000000006,0.057295800000000015,1.1459160000000002,8.57145168,-15.27506028
5.46,546,0.157,-0.038,-0.983,-0.4583664000000001,-0.286479,0.057295800000000015,1.14018642,8.57145168,-15.27506028
5.47,547,0.157,-0.035,-0.987,-0.286479,0.0,0.057295800000000015,1.14018642,8.57145168,-15.27506028
5.4799999999999995,548,0.156,-0.034,-0.986,-0.11459160000000003,0.0,0.0,1.13445684,8.57145168,-15.27506028
5.49,549,0.153,-0.036000000000000004,-0.984,-0.057295800000000015,-0.1718874,0.0,1.13445684,8.565722099999999,-15.27506028
5.5,550,0.152,-0.038,-0.981,0.0,-0.4583664000000001,0.0,1.1172681,8.54853336,-15.27506028
5.51,551,0.151,-0.038,-0.98,0.0,-0.4583664000000001,0.057295800000000015,1.1172681,8.542803780000002,-15.27506028
5.52,552,0.152,-0.036000000000000004,-0.982,0.22918320000000006,-0.286479,0.0,1.1172681,8.5370742,-15.27506028
5.53,553,0.154,-0.033,-0.983,0.572958,0.11459160000000003,-0.057295800000000015,1.12299768,8.5370742,-15.27506028
5.54,554,0.155,-0.031,-0.983,0.6302538000000001,0.4010706,0.0,1.12872726,8.542803780000002,-15.27506028
5.55,555,0.156,-0.031,-0.979,0.4010706,0.3437748,0.0,1.0886202,8.54853336,-15.28078986
5.56,556,0.156,-0.032,-0.978,0.3437748,0.1718874,0.057295800000000015,1.09434978,8.54853336,-15.28078986
5.57,557,0.157,-0.034,-0.976,0.22918320000000006,-0.11459160000000003,0.11459160000000003,1.10007936,8.54853336,-15.28078986
5.58,558,0.156,-0.036000000000000004,-0.976,0.3437748,-0.286479,0.22918320000000006,1.10007936,8.542803780000002,-15.27506028
5.59,559,0.155,-0.037000000000000005,-0.977,0.3437748,-0.3437748,0.1718874,1.10580894,8.542803780000002,-15.27506028
5.6,560,0.154,-0.037000000000000005,-0.98,0.5156622000000001,0.0,0.1718874,1.10007936,8.53134462,-15.27506028
5.61,561,0.153,-0.036000000000000004,-0.981,0.4010706,0.11459160000000003,0.11459160000000003,1.10580894,8.5370742,-15.27506028
5.62,562,0.153,-0.036000000000000004,-0.982,0.1718874,0.11459160000000003,0.057295800000000015,1.10580894,8.5370742,-15.2693307
5.63,563,0.153,-0.037000000000000005,-0.984,0.11459160000000003,0.0,0.057295800000000015,1.10580894,8.5370742,-15.2693307
5.64,564,0.154,-0.038,-0.987,0.22918320000000006,-0.1718874,-0.057295800000000015,1.11153852,8.5370742,-15.2693307
5.6499999999999995,565,0.154,-0.04,-0.988,0.572958,-0.286479,0.0,1.1172681,8.52561504,-15.2693307
5.66,566,0.153,-0.039,-0.986,0.7448454000000001,-0.286479,-0.057295800000000015,1.12299768,8.519885460000001,-15.27506028
5.67,567,0.154,-0.039,-0.984,0.6875496,0.0,-0.1718874,1.12872726,8.519885460000001,-15.27506028
5.68,568,0.158,-0.039,-0.982,0.4010706,-0.286479,-0.057295800000000015,1.13445684,8.519885460000001,-15.27506028
5.6899999999999995,569,0.161,-0.039,-0.982,0.0,-0.6875496,0.0,1.13445684,8.5084263,-15.27506028
5.7,570,0.159,-0.04,-0.979,-0.1718874,-0.6875496,0.0,1.13445684,8.51415588,-15.28078986
5.71,571,0.156,-0.039,-0.981,-0.057295800000000015,-0.4010706,-0.11459160000000003,1.13445684,8.5084263,-15.28078986
5.72,572,0.154,-0.041,-0.978,0.22918320000000006,-0.286479,-0.057295800000000015,1.13445684,8.5084263,-15.28078986
5.7299999999999995,573,0.153,-0.044,-0.971,-0.1718874,-0.4583664000000001,0.057295800000000015,1.13445684,8.50269672,-15.28078986
5.74,574,0.151,-0.043,-0.977,-0.5156622000000001,-0.572958,0.057295800000000015,1.12872726,8.49696714,-15.28078986
5.75,575,0.153,-0.039,-0.981,-0.3437748,-0.4583664000000001,0.057295800000000015,1.10580894,8.48550798,-15.28078986
5.76,576,0.158,-0.035,-0.982,-0.1718874,-0.1718874,0.0,1.10007936,8.48550798,-15.28078986
5.77,577,0.162,-0.035,-0.989,-0.1718874,-0.057295800000000015,0.0,1.10007936,8.48550798,-15.28078986
5.78,578,0.163,-0.035,-0.991,-0.286479,-0.22918320000000006,0.057295800000000015,1.09434978,8.479778399999999,-15.28078986
5.79,579,0.16,-0.035,-0.984,-0.22918320000000006,-0.6875496,0.22918320000000006,1.09434978,8.47404882,-15.27506028
5.8,580,0.155,-0.035,-0.982,-0.11459160000000003,-0.9740286,0.22918320000000006,1.07716104,8.46258966,-15.27506028
5.81,581,0.152,-0.033,-0.98,0.22918320000000006,-0.8021411999999999,0.0,1.08289062,8.451130500000001,-15.27506028
5.82,582,0.151,-0.032,-0.978,0.3437748,-0.4010706,0.0,1.08289062,8.451130500000001,-15.27506028
5.83,583,0.15,-0.029,-0.977,0.286479,-0.1718874,0.0,1.0886202,8.44540092,-15.27506028
5.84,584,0.151,-0.03,-0.974,0.286479,-0.1718874,0.057295800000000015,1.0886202,8.44540092,-15.27506028
5.85,585,0.153,-0.033,-0.974,0.286479,-0.22918320000000006,0.11459160000000003,1.07716104,8.43967134,-15.27506028
5.86,586,0.153,-0.035,-0.975,0.1718874,-0.1718874,0.11459160000000003,1.07716104,8.43967134,-15.27506028
5.87,587,0.154,-0.038,-0.979,0.22918320000000006,-0.11459160000000003,0.1718874,1.07716104,8.43967134,-15.27506028
5.88,588,0.153,-0.039,-0.983,0.057295800000000015,-0.057295800000000015,0.22918320000000006,1.08289062,8.43394176,-15.27506028
5.89,589,0.152,-0.04,-0.982,0.11459160000000003,0.057295800000000015,0.1718874,1.08289062,8.43967134,-15.2693307
5.8999999999999995,590,0.152,-0.041,-0.981,0.1718874,0.286479,0.1718874,1.09434978,8.42821218,-15.2693307
5.91,591,0.15,-0.042,-0.982,0.0,0.4010706,0.11459160000000003,1.09434978,8.43394176,-15.26360112
5.92,592,0.15,-0.042,-0.981,0.0,0.3437748,0.057295800000000015,1.09434978,8.43967134,-15.26360112
5.93,593,0.153,-0.043,-0.983,-0.057295800000000015,0.1718874,0.057295800000000015,1.09434978,8.43967134,-15.26360112
5.9399999999999995,594,0.157,-0.044,-0.979,0.0,0.0,0.0,1.09434978,8.43967134,-15.26360112
5.95,595,0.158,-0.046,-0.975,-0.11459160000000003,0.0,0.0,1.12299768,8.47404882,-15.26360112
5.96,596,0.159,-0.045,-0.976,-0.4010706,-0.22918320000000006,0.0,1.1172681,8.47404882,-15.25787154
5.97,597,0.159,-0.042,-0.977,-0.4010706,-0.3437748,0.0,1.11153852,8.46831924,-15.26360112
5.9799999999999995,598,0.161,-0.038,-0.981,-0.22918320000000006,-0.286479,0.0,1.11153852,8.46258966,-15.25787154
5.99,599,0.158,-0.036000000000000004,-0.981,0.0,-0.286479,0.11459160000000003,1.11153852,8.46258966,-15.25787154
6.0,600,0.155,-0.037000000000000005,-0.98,-0.11459160000000003,-0.1718874,0.057295800000000015,1.09434978,8.45686008,-15.25787154
6.01,601,0.152,-0.037000000000000005,-0.979,-0.11459160000000003,-0.11459160000000003,0.0,1.09434978,8.45686008,-15.25787154
6.02,602,0.151,-0.038,-0.978,-0.22918320000000006,0.057295800000000015,0.0,1.0886202,8.45686008,-15.25787154
6.03,603,0.152,-0.037000000000000005,-0.979,-0.057295800000000015,0.11459160000000003,0.0,1.0886202,8.45686008,-15.25787154
6.04,604,0.154,-0.036000000000000004,-0.98,0.22918320000000006,0.11459160000000003,0.0,1.09434978,8.46258966,-15.25787154
6.05,605,0.156,-0.035,-0.979,0.3437748,0.11459160000000003,-0.11459160000000003,1.07143146,8.47404882,-15.26360112
6.06,606,0.157,-0.033,-0.978,0.4010706,0.0,-0.057295800000000015,1.07143146,8.47404882,-15.26360112
6.07,607,0.157,-0.034,-0.976,0.4583664000000001,0.0,0.0,1.07716104,8.47404882,-15.26360112
6.08,608,0.157,-0.037000000000000005,-0.975,0.286479,0.0,-0.057295800000000015,1.08289062,8.47404882,-15.2693307
6.09,609,0.156,-0.039,-0.976,0.11459160000000003,-0.11459160000000003,-0.057295800000000015,1.08289062,8.46831924,-15.2693307
6.1,610,0.154,-0.04,-0.977,0.11459160000000003,-0.286479,0.0,1.09434978,8.46258966,-15.26360112
6.11,611,0.154,-0.041,-0.978,0.0,-0.057295800000000015,-0.11459160000000003,1.09434978,8.46258966,-15.2693307
6.12,612,0.154,-0.042,-0.978,-0.3437748,0.1718874,-0.1718874,1.09434978,8.46258966,-15.2693307
6.13,613,0.156,-0.041,-0.979,-0.4583664000000001,0.3437748,-0.11459160000000003,1.0886202,8.46831924,-15.2693307
6.14,614,0.156,-0.042,-0.978,-0.7448454000000001,0.5156622000000001,-0.11459160000000003,1.07716104,8.47404882,-15.2693307
6.15,615,0.156,-0.041,-0.978,-0.8021411999999999,0.4010706,-0.11459160000000003,1.07143146,8.47404882,-15.2693307
6.16,616,0.154,-0.041,-0.976,-1.0886202,0.4010706,-0.11459160000000003,1.0599723,8.479778399999999,-15.27506028
6.17,617,0.154,-0.04,-0.978,-1.2032118,0.6302538000000001,-0.22918320000000006,1.04851314,8.48550798,-15.27506028
6.18,618,0.151,-0.038,-0.979,-1.0313244,0.8021411999999999,-0.286479,1.03705398,8.49696714,-15.28078986
6.1899999999999995,619,0.149,-0.037000000000000005,-0.98,-0.7448454000000001,0.9740286,-0.286479,1.0255948199999998,8.50269672,-15.28078986
6.2,620,0.14800000000000002,-0.037000000000000005,-0.98,-0.7448454000000001,1.3750992,-0.3437748,1.01986524,8.5084263,-15.28078986
6.21,621,0.15,-0.037000000000000005,-0.984,-0.8021411999999999,1.3178034,-0.286479,1.00840608,8.52561504,-15.28651944
6.22,622,0.154,-0.039,-0.983,-1.3750992,0.4583664000000001,-0.11459160000000003,0.9969469199999998,8.53134462,-15.28651944
6.2299999999999995,623,0.155,-0.039,-0.978,-1.8334656000000005,-0.057295800000000015,0.057295800000000015,0.9740286,8.52561504,-15.28651944
6.24,624,0.152,-0.037000000000000005,-0.977,-1.6615782,0.0,0.0,0.95683986,8.52561504,-15.28651944
6.25,625,0.151,-0.035,-0.981,-0.8594370000000001,0.4010706,0.0,0.95111028,8.52561504,-15.28651944
6.26,626,0.15,-0.04,-0.973,-0.9167328,0.572958,0.0,0.93965112,8.53134462,-15.28651944
6.27,627,0.149,-0.039,-0.974,-1.5469866,0.286479,-0.057295800000000015,0.92246238,8.53134462,-15.28651944
6.28,628,0.149,-0.038,-0.977,-1.7188740000000002,0.0,-0.057295800000000015,0.90527364,8.53134462,-15.28651944
6.29,629,0.153,-0.035,-0.978,-1.432395,0.057295800000000015,0.0,0.8880849000000001,8.53134462,-15.28651944
6.3,630,0.157,-0.034,-0.982,-1.0886202,0.6302538000000001,-0.11459160000000003,0.87662574,8.5370742,-15.28651944
6.31,631,0.157,-0.034,-0.99,-1.0886202,0.8021411999999999,-0.11459160000000003,0.86516658,8.54853336,-15.28651944
6.32,632,0.158,-0.035,-0.986,-0.9167328,0.286479,-0.057295800000000015,0.8537074199999999,8.54853336,-15.28651944
6.33,633,0.155,-0.035,-0.983,-0.7448454000000001,-0.057295800000000015,0.0,0.8479778399999999,8.54853336,-15.28651944
6.34,634,0.155,-0.033,-0.98,-0.3437748,-0.3437748,-0.11459160000000003,0.8422482600000001,8.54853336,-15.29224902
6.35,635,0.156,-0.032,-0.975,-0.1718874,-0.3437748,-0.22918320000000006,0.8250595199999999,8.54853336,-15.29224902
6.36,636,0.158,-0.028,-0.973,-0.4583664000000001,-0.22918320000000006,-0.11459160000000003,0.8193299399999999,8.542803780000002,-15.297978599999999
6.37,637,0.158,-0.027000000000000003,-0.972,-0.6302538000000001,-0.4010706,-0.11459160000000003,0.8136003599999999,8.542803780000002,-15.297978599999999
6.38,638,0.157,-0.03,-0.97,-0.5156622000000001,-0.5156622000000001,-0.057295800000000015,0.8078707799999998,8.5370742,-15.297978599999999
6.39,639,0.158,-0.033,-0.975,-0.3437748,-0.4583664000000001,-0.057295800000000015,0.8021412000000001,8.53134462,-15.297978599999999
6.4,640,0.157,-0.036000000000000004,-0.979,-0.22918320000000006,-0.11459160000000003,-0.11459160000000003,0.79641162,8.5370742,-15.303708179999996
6.41,641,0.155,-0.036000000000000004,-0.984,-0.1718874,0.057295800000000015,-0.11459160000000003,0.7906820400000001,8.5370742,-15.303708179999996
6.42,642,0.153,-0.036000000000000004,-0.986,-0.3437748,0.1718874,0.0,0.7906820400000001,8.5370742,-15.303708179999996
6.43,643,0.152,-0.035,-0.98,-0.572958,0.22918320000000006,0.0,0.7849524600000001,8.542803780000002,-15.303708179999996
6.4399999999999995,644,0.151,-0.037000000000000005,-0.98,-0.6302538000000001,0.057295800000000015,0.1718874,0.7734933,8.542803780000002,-15.303708179999996
6.45,645,0.15,-0.038,-0.98,-0.6302538000000001,0.1718874,0.22918320000000006,0.7792228800000001,8.53134462,-15.297978599999999
6.46,646,0.152,-0.036000000000000004,-0.98,-0.6302538000000001,0.286479,0.22918320000000006,0.7734933,8.5370742,-15.29224902
6.47,647,0.154,-0.038,-0.98,-0.4010706,0.4583664000000001,0.22918320000000006,0.76776372,8.5370742,-15.29224902
6.4799999999999995,648,0.153,-0.039,-0.976,-0.286479,0.7448454000000001,0.1718874,0.76203414,8.54853336,-15.28651944
6.49,649,0.151,-0.04,-0.974,-0.572958,1.0313244,0.11459160000000003,0.75630456,8.554262940000001,-15.28651944
6.5,650,0.152,-0.039,-0.973,-0.7448454000000001,0.9167328,0.0,0.76203414,8.565722099999999,-15.28651944
6.51,651,0.156,-0.039,-0.976,-0.8594370000000001,0.8594370000000001,0.0,0.75057498,8.57145168,-15.28651944
6.52,652,0.158,-0.036000000000000004,-0.977,-0.8594370000000001,0.9167328,0.0,0.7448454000000001,8.58291084,-15.28651944
6.53,653,0.159,-0.035,-0.98,-0.7448454000000001,1.0313244,0.0,0.73338624,8.58864042,-15.28651944
6.54,654,0.158,-0.034,-0.982,-0.7448454000000001,1.0886202,0.0,0.72765666,8.60009958,-15.28651944
6.55,655,0.156,-0.033,-0.984,-0.8021411999999999,1.0313244,-0.057295800000000015,0.7161975,8.61155874,-15.28651944
6.56,656,0.155,-0.031,-0.982,-0.8021411999999999,0.6875496,-0.057295800000000015,0.70473834,8.61728832,-15.28651944
6.57,657,0.155,-0.028,-0.98,-0.572958,0.4583664000000001,0.0,0.69900876,8.623017899999999,-15.28651944
6.58,658,0.153,-0.028,-0.975,-0.4583664000000001,0.22918320000000006,0.11459160000000003,0.69327918,8.623017899999999,-15.28078986
6.59,659,0.151,-0.028,-0.972,-0.3437748,0.057295800000000015,0.11459160000000003,0.69327918,8.623017899999999,-15.28078986
6.6,660,0.151,-0.027000000000000003,-0.97,-0.11459160000000003,0.22918320000000006,0.11459160000000003,0.67609044,8.61728832,-15.28078986
6.61,661,0.152,-0.028,-0.97,0.057295800000000015,0.4010706,0.11459160000000003,0.67609044,8.61728832,-15.28078986
6.62,662,0.154,-0.029,-0.971,0.3437748,0.572958,0.057295800000000015,0.67609044,8.623017899999999,-15.28078986
6.63,663,0.155,-0.031,-0.973,0.4010706,0.6875496,0.0,0.68182002,8.634477059999998,-15.28078986
6.64,664,0.157,-0.034,-0.975,0.1718874,0.8594370000000001,0.0,0.6875496,8.640206639999999,-15.28078986
6.65,665,0.162,-0.038,-0.976,0.0,0.8021411999999999,0.0,0.70473834,8.663124960000001,-15.27506028
6.66,666,0.165,-0.039,-0.978,-0.11459160000000003,0.7448454000000001,-0.057295800000000015,0.70473834,8.66885454,-15.27506028
6.67,667,0.16899999999999998,-0.04,-0.979,-0.286479,0.7448454000000001,0.0,0.69900876,8.6803137,-15.27506028
6.68,668,0.168,-0.04,-0.98,-0.1718874,0.7448454000000001,0.0,0.69900876,8.68604328,-15.27506028
6.69,669,0.16699999999999998,-0.039,-0.98,-0.22918320000000006,1.0313244,-0.11459160000000003,0.69327918,8.69750244,-15.27506028
