TimeStamp(s),FrameCounter,AccX,AccY,AccZ,GyrX,GyrY,GyrZ,EulerX,EulerY,EulerZ
0.01,1,-0.017,-1.009,0.02,-0.9167328,0.9740286,-0.11459160000000003,90.14348214,-0.5099326200000001,-22.866753780000003
0.02,2,-0.016,-1.009,0.022,-1.0886202,0.8021411999999999,-0.1718874,90.13202298,-0.5042030399999999,-22.8610242
0.03,3,-0.016,-1.01,0.022,-1.2032118,0.6302538000000001,-0.1718874,90.12056382,-0.5042030399999999,-22.85529462
0.04,4,-0.014,-1.012,0.023,-1.3750992,0.286479,-0.22918320000000006,90.10337508,-0.5042030399999999,-22.84956504
0.05,5,-0.015,-1.012,0.026,-1.5469866,0.11459160000000003,-0.22918320000000006,90.09191592,-0.5042030399999999,-22.84956504
0.060000000000000005,6,-0.016,-1.01,0.026,-1.6615782,0.5156622000000001,-0.3437748,90.07472718,-0.4984734599999999,-22.84383546
0.06999999999999999,7,-0.016,-1.011,0.024,-1.6615782,1.2605076000000002,-0.4010706,90.05753844,-0.49274388,-22.8323763
0.08,8,-0.01,-1.01,0.02,-1.7188740000000002,1.7761698,-0.5156622000000001,90.04034970000002,-0.49274388,-22.81518756
0.09,9,-0.006,-1.009,0.02,-2.0626488000000003,2.0053530000000004,-0.4583664000000001,90.01743138,-0.4870143000000001,-22.792269240000003
0.09999999999999999,10,-0.005,-1.008,0.018000000000000002,-2.0053530000000004,1.9480572,-0.3437748,89.99451306,-0.47555514,-22.7750805
0.11,11,-0.006999999999999999,-1.008,0.018000000000000002,-1.9480572,1.6615782,-0.11459160000000003,89.97732432000002,-0.47555514,-22.75789176
0.12,12,-0.006999999999999999,-1.01,0.019,-2.0626488000000003,1.5469866,-0.11459160000000003,89.95440599999998,-0.47555514,-22.7464326
0.13,13,-0.009000000000000001,-1.01,0.018000000000000002,-2.291832,1.5469866,-0.11459160000000003,89.93148768,-0.47555514,-22.72924386
0.14,14,-0.01,-1.011,0.018000000000000002,-2.291832,1.2605076000000002,-0.22918320000000006,89.90856936,-0.46982556,-22.7177847
0.15000000000000002,15,-0.008,-1.011,0.023,-2.3491278,1.3178034,-0.3437748,89.88565104,-0.46409598,-22.70632554
0.16,16,-0.006999999999999999,-1.009,0.025,-2.4064236,1.3750992,-0.3437748,89.86273272,-0.46409598,-22.6891368
0.17,17,-0.004,-1.008,0.025,-2.3491278,1.8907613999999997,-0.3437748,89.83408482,-0.45836640000000006,-22.67194806
0.18000000000000002,18,0.0,-1.01,0.023,-2.4064236,2.4064236,-0.286479,89.8111665,-0.45836640000000006,-22.64902974
0.19,19,0.0,-1.01,0.022,-2.4637194,2.4064236,-0.11459160000000003,89.78824818,-0.4526368200000001,-22.62611142
0.2,20,-0.002,-1.01,0.022,-2.291832,2.0626488000000003,-0.057295800000000015,89.76532986,-0.44690724,-22.60892268
0.21000000000000002,21,-0.005,-1.009,0.022,-2.3491278,1.7761698,0.0,89.74241154,-0.44690724,-22.59173394
0.22,22,-0.006999999999999999,-1.009,0.023,-2.3491278,1.6042823999999998,0.0,89.71376364,-0.44690724,-22.5745452
0.23,23,-0.006,-1.009,0.021,-2.578311,1.3178034,0.0,89.69084532,-0.44690724,-22.56308604
0.24000000000000002,24,-0.009000000000000001,-1.009,0.017,-2.6356068,1.145916,0.0,89.66219742,-0.4526368200000001,-22.55162688
0.25,25,-0.008,-1.011,0.014,-2.86479,1.0886202,-0.22918320000000006,89.62781994000002,-0.44117766,-22.54016772
0.26,26,-0.009000000000000001,-1.011,0.013,-2.9220857999999996,1.2605076000000002,-0.3437748,89.59917204,-0.44117766,-22.52870856
0.27,27,-0.006,-1.011,0.011,-3.0366774,1.7761698,-0.5156622000000001,89.57052414,-0.43544808,-22.51151982
0.28,28,-0.004,-1.012,0.009000000000000001,-3.151269,2.0626488000000003,-0.5156622000000001,89.53614666000001,-0.4297185000000001,-22.4886015
0.29000000000000004,29,-0.004,-1.013,0.012,-3.3804522000000006,2.5210152000000003,-0.572958,89.50176918,-0.42398892,-22.46568318
0.3,30,-0.005,-1.011,0.013,-3.4377480000000005,2.8074942000000003,-0.6302538000000001,89.46739170000002,-0.41825934,-22.43703528
0.31,31,-0.006999999999999999,-1.012,0.013,-3.4950437999999995,3.0939732,-0.6302538000000001,89.42728464000002,-0.41252976,-22.40838738
0.32,32,-0.008,-1.012,0.011,-3.6096354,3.5523396000000003,-0.6302538000000001,89.39290716000002,-0.40680018,-22.374009899999997
0.33,33,-0.006999999999999999,-1.011,0.01,-3.8388186,4.3544808,-0.5156622000000001,89.3528001,-0.4010706000000001,-22.32817326
0.34,34,-0.006,-1.011,0.011,-4.0680017999999984,4.8128472,-0.3437748,89.30696345999998,-0.39534102,-22.28233662
0.35000000000000003,35,-0.005,-1.01,0.012,-3.9534102,5.6149884000000005,-0.4583664000000001,89.2668564,-0.39534102,-22.2307704
0.36000000000000004,36,-0.003,-1.011,0.011,-4.010706000000001,6.703608600000001,-0.4583664000000001,89.22674934,-0.38961144,-22.16201544
0.37,37,0.001,-1.012,0.009000000000000001,-4.0680017999999984,7.2192707999999985,-0.4583664000000001,89.1809127,-0.38388186,-22.09326048
0.38,38,0.006999999999999999,-1.01,0.011,-3.9534102,6.8182002000000015,-0.4010706,89.14080564,-0.38388186,-22.02450552
0.39,39,0.012,-1.012,0.012,-3.5523396000000003,5.7868758000000025,-0.4010706,89.10069858,-0.37815228,-21.96720972
0.4,40,0.017,-1.013,0.009000000000000001,-3.3231564,5.5576926,-0.4583664000000001,89.06632110000002,-0.36096354,-21.9156435
0.41000000000000003,41,0.024,-1.014,0.003,-3.5523396000000003,5.5003968,-0.6302538000000001,89.03194361999998,-0.35523396,-21.86407728
0.42000000000000004,42,0.033,-1.015,0.005,-3.9534102,4.6409598,-0.6875496,88.99183656,-0.34950438,-21.81824064
0.43,43,0.042,-1.012,0.016,-3.9534102,2.4637194,-0.7448454000000001,88.94599991999998,-0.3437748,-21.79532232
0.44,44,0.041,-1.01,0.017,-4.1252976000000015,-0.5156622000000001,-0.6302538000000001,88.90589286,-0.33804522,-21.8010519
0.45,45,0.042,-1.005,0.021,-4.9847345999999995,-3.2085648,-0.6875496,88.8657858,-0.30939732,-21.84115896
0.46,46,0.036000000000000004,-1.004,0.02,-5.6149884000000005,-3.8961144,-0.9740286,88.80848999999998,-0.30366774,-21.87553644
0.47000000000000003,47,0.027000000000000003,-1.001,0.017,-5.9014674000000005,-2.5210152000000003,-1.0886202,88.74546462,-0.29220857999999994,-21.90418434
0.48000000000000004,48,0.024,-1.004,0.014,-6.589017,-1.6615782,-0.572958,88.68243924,-0.28647900000000004,-21.92137308
0.49,49,0.022,-1.002,0.019,-7.1046792000000005,-1.3750992,-0.057295800000000015,88.60795470000002,-0.28647900000000004,-21.93856182
0.5,50,0.022,-1.006,0.028,-6.5317212,-1.3750992,0.1718874,88.55638848,-0.27501984,-21.95575056
0.51,51,0.02,-1.013,0.027000000000000003,-6.6463128000000005,-1.6042823999999998,0.286479,88.48763352,-0.27501984,-21.9729393
0.52,52,0.019,-1.014,0.023,-6.990087599999999,-1.432395,0.5156622000000001,88.41887856000002,-0.28074942,-21.99012804
0.53,53,0.019,-1.013,0.019,-7.448453999999999,-0.9740286,0.4583664000000001,88.33866443999996,-0.28647900000000004,-21.99585762
0.54,54,0.02,-1.011,0.016,-7.6776372,-0.286479,0.4010706,88.26417990000002,-0.29220857999999994,-22.0015872
0.55,55,0.021,-1.009,0.016,-7.7349330000000025,0.7448454000000001,0.286479,88.19542494,-0.28074942,-22.0015872
0.56,56,0.029,-1.003,0.02,-7.5630456000000015,1.9480572,0.1718874,88.11521081999999,-0.28647900000000004,-21.97866888
0.5700000000000001,57,0.034,-1.003,0.025,-7.0473834,2.5210152000000003,0.1718874,88.04645586000002,-0.28647900000000004,-21.95575056
0.5800000000000001,58,0.039,-1.005,0.022,-7.1046792000000005,2.6929026,0.22918320000000006,87.97197132,-0.29220857999999994,-21.93283224
0.59,59,0.041,-1.006,0.019,-7.3911582,2.6929026,0.4010706,87.89748678,-0.29220857999999994,-21.90418434
0.6,60,0.036000000000000004,-1.003,0.016,-7.5630456000000015,2.578311,0.7448454000000001,87.82873182,-0.28647900000000004,-21.8869956
0.61,61,0.032,-1.002,0.015,-7.5630456000000015,2.5210152000000003,1.2032118,87.74851770000002,-0.29793816,-21.8583477
0.62,62,0.029,-1.001,0.011,-7.448453999999999,2.8074942000000003,1.6615782,87.67403316,-0.31512690000000004,-21.829699800000004
0.63,63,0.032,-0.999,0.011,-7.2192707999999985,3.0366774,2.1199446,87.59954862,-0.33804522,-21.8010519
0.64,64,0.034,-0.994,0.013,-7.2192707999999985,2.4637194,2.5210152000000003,87.52506408,-0.36669312,-21.77813358
0.65,65,0.04,-0.991,0.011,-7.0473834,1.3178034,2.7501984,87.46203870000002,-0.3724227000000001,-21.76667442
0.66,66,0.043,-0.99,0.008,-6.760904399999999,0.1718874,2.6356068,87.39328374,-0.4010706000000001,-21.76667442
0.67,67,0.043,-0.993,0.006999999999999999,-6.703608600000001,-1.6615782,2.6356068,87.33025836,-0.42398892,-21.78386316000001
0.68,68,0.043,-0.995,0.005,-6.6463128000000005,-4.6982556,2.86479,87.26150340000002,-0.45836640000000006,-21.829699800000004
0.6900000000000001,69,0.046,-0.998,0.013,-6.703608600000001,-7.7349330000000025,3.0939732,87.19274844,-0.4870143000000001,-21.90418434
0.7000000000000001,70,0.049,-1.0,0.017,-6.0733548,-10.1413566,3.2658606,87.14691180000001,-0.5099326200000001,-22.007316780000004
0.7100000000000001,71,0.048,-1.001,0.024,-5.72958,-11.917526400000002,3.3231564,87.089616,-0.55003968,-22.12763796
0.72,72,0.039,-1.0,0.02,-4.9274388,-13.521808800000002,3.3804522000000006,87.04377936,-0.5844171599999999,-22.259418300000004
0.73,73,0.023,-0.992,0.011,-4.3544808,-15.985528200000001,3.5523396000000003,86.99794272,-0.62452422,-22.41411696
0.74,74,0.004,-0.982,0.001,-4.5263682,-17.6471064,3.3231564,86.95783566,-0.66463128,-22.59173394
0.75,75,-0.017,-0.974,-0.002,-5.2139178,-18.2773602,2.8074942000000003,86.91199902000002,-0.69900876,-22.76935092
0.76,76,-0.04,-0.96,-0.003,-5.72958,-19.0222056,1.7761698,86.8604328,-0.72192708,-22.95842706
0.77,77,-0.062,-0.945,0.003,-5.7868758000000025,-20.3973048,0.6302538000000001,86.80886658,-0.73338624,-23.15896236
0.78,78,-0.083,-0.936,0.015,-5.042030400000002,-21.772404,-0.4583664000000001,86.76302994,-0.73338624,-23.3766864
0.79,79,-0.096,-0.94,0.025,-4.7555514,-22.345362,-1.3750992,86.71719329999998,-0.72765666,-23.60014002
0.8,80,-0.096,-0.974,0.027000000000000003,-5.9014674000000005,-22.4026578,-2.2345362,86.67135666,-0.72192708,-23.81786406
0.81,81,-0.081,-1.012,0.025,-8.7662574,-22.5172494,-2.7501984,86.58541296,-0.70473834,-24.04704726
0.8200000000000001,82,-0.057,-1.047,0.027000000000000003,-10.5424272,-21.485925,-2.4637194,86.48801010000004,-0.6875496,-24.25904172
0.8300000000000001,83,-0.036000000000000004,-1.078,0.033,-10.7143146,-19.938938399999998,-1.3178034,86.37914808000002,-0.68182002,-24.45957702
0.8400000000000001,84,-0.019,-1.096,0.042,-10.5424272,-18.162768600000003,0.4583664000000001,86.27601564,-0.69327918,-24.637194
0.85,85,-0.006999999999999999,-1.095,0.047,-10.1413566,-17.303331600000003,2.9220857999999996,86.19007194,-0.72765666,-24.8090814
0.86,86,-0.01,-1.083,0.055,-8.880849000000003,-18.3919518,5.72958,86.10412824,-0.7906820400000001,-24.98669838
0.87,87,-0.026,-1.071,0.07,-7.161975,-20.2254174,8.193299399999999,86.03537328,-0.8823553199999999,-25.18723368
0.88,88,-0.054000000000000006,-1.053,0.091,-5.6722842,-21.7151082,10.1986524,85.98380705999998,-0.9912173399999998,-25.393498560000005
0.89,89,-0.066,-1.034,0.102,-4.4117766,-22.9756158,11.2872726,85.94942957999999,-1.1172681,-25.6112226
0.9,90,-0.076,-1.017,0.126,-3.151269,-23.8923486,11.45916,85.9437,-1.24331886,-25.840405800000003
0.91,91,-0.085,-1.012,0.151,-1.8907613999999997,-23.835052800000003,11.3445684,85.93224083999998,-1.36936962,-26.069589
0.92,92,-0.09,-1.023,0.159,-2.0053530000000004,-22.91832,11.3445684,85.92078168,-1.4896908000000002,-26.28731304
0.93,93,-0.1,-1.032,0.156,-3.3231564,-21.3140376,11.172681,85.89213378,-1.61001198,-26.49357792
0.9400000000000001,94,-0.112,-1.034,0.14300000000000002,-4.3544808,-18.907614000000002,10.9434978,85.85775629999998,-1.73033316,-26.6711949
0.9500000000000001,95,-0.117,-1.036,0.119,-5.2712136,-15.985528200000001,10.886202,85.82910840000002,-1.85638392,-26.82016398
0.9600000000000001,96,-0.114,-1.024,0.093,-5.844171599999999,-13.6936962,10.7143146,85.77754218,-1.97097552,-26.95194432000001
0.97,97,-0.118,-1.007,0.083,-6.0733548,-12.7196676,10.4851314,85.72024638,-2.07983754,-27.06653592
0.98,98,-0.131,-0.992,0.092,-5.443101,-11.1153852,10.313244,85.66868016,-2.18869956,-27.17539794
0.99,99,-0.14,-0.984,0.107,-5.2712136,-8.021412000000002,10.0840608,85.62284352,-2.2918320000000003,-27.2441529
1.0,100,-0.145,-0.976,0.102,-6.302537999999998,-4.7555514,9.6256944,85.58846604,-2.41215318,-27.28425996
1.01,101,-0.136,-0.964,0.086,-8.5370742,-2.4637194,8.651665800000002,85.50252234,-2.49809688,-27.301448699999998
1.02,102,-0.121,-0.95,0.066,-10.026765,-0.3437748,7.5630456000000015,85.39938989999997,-2.5783110000000002,-27.301448699999998
1.03,103,-0.105,-0.944,0.057,-10.3705398,1.8334656000000005,6.5317212,85.29625746,-2.6413363800000003,-27.27853038
1.04,104,-0.085,-0.95,0.053,-10.255948199999999,4.010706000000001,5.72958,85.18739544,-2.69863218,-27.23269374
1.05,105,-0.068,-0.956,0.048,-10.6570188,6.703608600000001,5.0993262,85.09572216000002,-2.74446882,-27.163938779999995
1.06,106,-0.057,-0.954,0.035,-10.9434978,7.2765666,4.4117766,84.97540097999997,-2.79030546,-27.08945424
1.07,107,-0.054000000000000006,-0.947,0.03,-10.886202,6.589017,3.8961144,84.86080938,-2.82468294,-27.02069928
1.08,108,-0.054000000000000006,-0.937,0.034,-10.0840608,5.6149884000000005,3.3804522000000006,84.75767694,-2.85333084,-26.96340348
1.09,109,-0.054000000000000006,-0.93,0.044,-8.9954406,4.6982556,2.9220857999999996,84.66027408,-2.88197874,-26.91756684
1.1,110,-0.054000000000000006,-0.927,0.055,-8.5370742,4.1825934,2.1772404,84.60297828,-2.90489706,-26.87745978
1.11,111,-0.055,-0.924,0.056,-8.8235532,3.2658606,0.9740286,84.51130500000002,-2.91062664,-26.843082300000006
1.12,112,-0.063,-0.924,0.057,-9.453807000000001,1.5469866,-0.6302538000000001,84.41390214,-2.90489706,-26.825893560000004
1.1300000000000001,113,-0.076,-0.927,0.064,-10.0840608,-0.286479,-2.3491278,84.31076970000002,-2.88197874,-26.83735272
1.1400000000000001,114,-0.085,-0.93,0.06,-11.2872726,-0.8021411999999999,-4.010706000000001,84.1961781,-2.84187168,-26.84881188
1.1500000000000001,115,-0.091,-0.932,0.05,-11.8602306,-0.7448454000000001,-5.6149884000000005,84.10450482,-2.80176462,-26.86027104
1.1600000000000001,116,-0.097,-0.94,0.048,-11.45916,-0.11459160000000003,-6.703608600000001,83.98418364,-2.73300966,-26.8717302
1.17,117,-0.101,-0.951,0.052000000000000005,-10.599723,0.572958,-7.161975,83.87532162,-2.6642547000000003,-26.8717302
1.18,118,-0.105,-0.962,0.066,-9.740286,1.2605076000000002,-7.2765666,83.77791876,-2.58977016,-26.8717302
1.19,119,-0.111,-0.977,0.081,-9.740286,2.7501984,-7.2765666,83.6805159,-2.51528562,-26.84881188
1.2,120,-0.122,-0.993,0.102,-9.9121734,5.3285094000000015,-7.5630456000000015,83.60603136,-2.45226024,-26.80297524
1.21,121,-0.129,-1.015,0.114,-9.568398599999998,9.3965112,-7.7349330000000025,83.50289891999998,-2.37204612,-26.722761119999994
1.22,122,-0.135,-1.041,0.117,-9.453807000000001,12.4331886,-7.6203414,83.40549606,-2.28610242,-26.60816952
1.23,123,-0.14400000000000002,-1.061,0.116,-9.3392154,14.4385416,-7.5057497999999985,83.30236362,-2.20015872,-26.47638918
1.24,124,-0.145,-1.081,0.116,-9.2819196,15.870936600000002,-7.0473834,83.19923118,-2.11421502,-26.3274201
1.25,125,-0.139,-1.106,0.111,-9.224623800000002,16.329303,-6.6463128000000005,83.11901706,-2.04546006,-26.17272144
1.26,126,-0.135,-1.126,0.098,-8.9954406,16.042824000000003,-6.760904399999999,83.01588462000002,-1.96524594,-26.02375236
1.27,127,-0.119,-1.135,0.085,-8.5370742,15.756345000000001,-7.448453999999999,82.92421134,-1.87930224,-25.87478328000001
1.28,128,-0.098,-1.139,0.08,-6.990087599999999,16.2147114,-8.193299399999999,82.84399721999998,-1.78189938,-25.7258142
1.29,129,-0.08900000000000001,-1.145,0.065,-4.3544808,17.3606274,-8.307891,82.79243100000002,-1.6844965200000002,-25.56538596
1.3,130,-0.08,-1.154,0.083,-0.4010706,19.480572,-7.3911582,82.79816058,-1.59282324,-25.3820394
1.31,131,-0.083,-1.154,0.122,4.4690724,25.7258142,-6.016058999999999,82.83826764,-1.51260912,-25.13566746
1.32,132,-0.102,-1.132,0.21,9.224623800000002,28.819787400000006,-4.8128472,82.91848175999998,-1.432395,-24.86064762
1.33,133,-0.12,-1.11,0.281,13.5791046,29.793816,-4.3544808,83.04453251999998,-1.36364004,-24.56843904
1.34,134,-0.141,-1.108,0.304,16.558486199999994,31.4553942,-5.72958,83.20496076,-1.27769634,-24.264771300000003
1.35,135,-0.168,-1.142,0.328,19.5378678,33.403451399999994,-8.078707799999998,83.40549606,-1.1688343199999998,-23.93818524
1.36,136,-0.052000000000000005,-1.393,0.268,14.7250206,39.591397799999996,-9.8548776,83.54300598,-1.03705398,-23.56003296
1.37,137,0.06,-1.793,-0.301,-7.2765666,48.4722468,-1.145916,83.45706228,-0.98548776,-23.08447782
1.3800000000000001,138,0.104,-1.556,-0.322,9.9121734,14.9542038,11.2872726,83.54873556,-1.08289062,-22.92404958
1.3900000000000001,139,-0.039,-1.301,0.168,30.194886600000004,2.578311,13.0634424,83.85813288,-1.20894138,-22.87821294
1.4000000000000001,140,-0.049,-1.165,0.238,26.069589,18.449247600000003,8.078707799999998,84.12742313999998,-1.27196676,-22.6891368
1.4100000000000001,141,-0.038,-1.045,0.037000000000000005,16.7303736,21.199446,1.9480572,84.29358096,-1.27196676,-22.47714234
1.42,142,-0.05,-0.996,-0.028,13.2926256,22.8037284,-1.2032118,84.41963172,-1.24331886,-22.24795914
1.43,143,-0.032,-1.056,-0.191,7.5630456000000015,30.3094782,1.6042823999999998,84.4826571,-1.23758928,-21.95002098
1.44,144,0.004,-1.013,-0.31,-0.22918320000000006,35.5806918,6.016058999999999,84.47119794,-1.27769634,-21.58905744
1.45,145,0.001,-0.883,-0.321,-1.4896908000000002,37.1849742,9.797581800000001,84.41963172,-1.3464512999999998,-21.21663474
1.46,146,-0.028,-0.77,-0.294,0.0,35.9244666,11.2872726,84.40817256,-1.432395,-20.84994162
1.47,147,-0.084,-0.688,-0.29100000000000004,0.4010706,31.971056400000002,12.605076,84.39671340000002,-1.53552744,-20.52335556
1.48,148,-0.126,-0.6729999999999999,-0.29,0.6875496,27.9603504,13.980175199999998,84.39098382,-1.6558486199999998,-20.23114698
1.49,149,-0.117,-0.738,-0.299,1.2032118,25.6685184,15.527161800000002,84.39671340000002,-1.7933585399999998,-19.96185672
1.5,150,-0.068,-0.846,-0.306,2.4637194,25.0382646,15.9282324,84.38525424,-1.93086846,-19.69829604
1.51,151,0.003,-0.951,-0.275,3.0939732,23.6631654,14.5531332,84.40244298,-2.0626488000000003,-19.4519241
1.52,152,0.063,-1.012,-0.246,3.2085648,21.1421502,11.5737516,84.42536129999998,-2.16005166,-19.22847048
1.53,153,0.094,-1.004,-0.201,3.8961144,16.959556799999998,6.9327918,84.4540092,-2.21734746,-19.056583080000006
1.54,154,0.086,-0.97,-0.17800000000000002,4.7555514,11.917526400000002,3.9534102,84.49984584,-2.24599536,-18.936261899999998
1.55,155,0.059,-0.946,-0.161,5.72958,5.958763200000001,1.9480572,84.52276416000002,-2.22880662,-18.878966100000003
1.56,156,0.021,-0.942,-0.142,6.760904399999999,0.8594370000000001,0.9167328,84.59151912,-2.2345362,-18.86750694
1.57,157,-0.014,-0.952,-0.115,7.0473834,-2.578311,0.6875496,84.66027408,-2.24599536,-18.89042526
1.58,158,-0.031,-0.964,-0.097,6.302537999999998,-5.2712136,0.6302538000000001,84.72902904,-2.25172494,-18.94199148
1.59,159,-0.027000000000000003,-0.962,-0.08800000000000001,5.3858052,-7.3911582,0.1718874,84.78632483999998,-2.25745452,-19.01647602
1.6,160,-0.009000000000000001,-0.952,-0.075,5.2139178,-8.4224826,-1.145916,84.84362064,-2.24026578,-19.10241972
1.61,161,0.009000000000000001,-0.937,-0.055,5.5576926,-9.2819196,-2.86479,84.90664602000003,-2.21734746,-19.194093
1.62,162,0.021,-0.921,-0.041,6.0733548,-9.568398599999998,-4.4117766,84.96967140000002,-2.1772404,-19.29149586
1.6300000000000001,163,0.014,-0.909,-0.029,6.703608600000001,-9.5111028,-5.958763200000001,85.04415594,-2.12567418,-19.3946283
1.6400000000000001,164,-0.008,-0.9,-0.017,7.6203414,-9.6256944,-7.2765666,85.13009964,-2.05691922,-19.492031160000003
1.6500000000000001,165,-0.037000000000000005,-0.901,-0.01,8.078707799999998,-9.3965112,-8.307891,85.22177292,-1.98243468,-19.58943402
1.6600000000000001,166,-0.057,-0.904,-0.006999999999999999,7.906820400000001,-7.6203414,-8.880849000000003,85.30771662,-1.89649098,-19.67537772
1.6700000000000002,167,-0.061,-0.904,-0.006,7.6203414,-4.8128472,-9.224623800000002,85.38793074,-1.8048176999999999,-19.72694394
1.68,168,-0.045,-0.899,-0.003,7.448453999999999,-1.7188740000000002,-9.0527364,85.46241528,-1.7188740000000002,-19.74986226
1.69,169,-0.033,-0.889,0.002,7.5057497999999985,1.0313244,-8.59437,85.53689982,-1.6329303,-19.74413268
1.7,170,-0.024,-0.88,0.006,8.021412000000002,2.3491278,-7.906820400000001,85.62857310000003,-1.5469866,-19.72694394
1.71,171,-0.019,-0.8690000000000001,0.008,8.9381448,3.3231564,-7.5630456000000015,85.72024638,-1.47250206,-19.69829604
1.72,172,-0.016,-0.861,0.015,9.969469199999999,4.1825934,-6.990087599999999,85.81764924000002,-1.39801752,-19.66391856
1.73,173,-0.013,-0.856,0.027000000000000003,10.8289062,4.1252976000000015,-6.1879464,85.92651126,-1.3349921400000002,-19.6238115
1.74,174,-0.017,-0.855,0.039,11.688343199999998,2.9220857999999996,-5.042030400000002,86.04683244,-1.28342592,-19.595163600000006
1.75,175,-0.038,-0.862,0.051,12.0894138,1.145916,-4.0680017999999984,86.18434235999996,-1.24331886,-19.58943402
1.76,176,-0.058,-0.878,0.053,12.4331886,1.0886202,-3.2085648,86.31039312,-1.21467096,-19.57797486
1.77,177,-0.071,-0.898,0.048,12.4331886,3.0939732,-2.6929026,86.43644388,-1.18602306,-19.54359738
1.78,178,-0.077,-0.916,0.043,12.0894138,5.443101,-2.291832,86.55676506,-1.1573751600000002,-19.492031160000003
1.79,179,-0.075,-0.921,0.048,11.745639,7.2765666,-1.6615782,86.67708624000002,-1.14018642,-19.41754662
1.8,180,-0.064,-0.922,0.056,11.8602306,7.448453999999999,-0.8021411999999999,86.81459616,-1.13445684,-19.34306208
1.81,181,-0.048,-0.922,0.052000000000000005,12.261301199999998,6.8182002000000015,0.286479,86.93491734,-1.13445684,-19.27430712
1.82,182,-0.038,-0.928,0.054000000000000006,12.605076,5.5576926,1.6042823999999998,87.0609681,-1.1459160000000002,-19.21701132
1.83,183,-0.033,-0.935,0.069,12.5477802,3.666931200000001,2.3491278,87.19274844,-1.1688343199999998,-19.17690426
1.84,184,-0.026,-0.945,0.08900000000000001,13.6364004,1.7761698,2.6929026,87.33025836,-1.19748222,-19.15971552
1.85,185,-0.012,-0.96,0.114,15.9282324,0.286479,2.86479,87.52506408,-1.21467096,-19.15398594
1.86,186,0.011,-0.983,0.14400000000000002,17.7044022,-1.7761698,2.9220857999999996,87.70841064,-1.24331886,-19.17117468
1.87,187,0.051,-1.015,0.18,19.4232762,-4.3544808,2.578311,87.90321636,-1.27196676,-19.21128174
1.8800000000000001,188,0.102,-1.063,0.201,20.7410796,-5.844171599999999,0.9167328,88.12094040000002,-1.27769634,-19.268577540000006
1.8900000000000001,189,0.149,-1.129,0.2,20.9702628,-6.990087599999999,-2.5210152000000003,88.33293486,-1.24904844,-19.33160292
1.9000000000000001,190,0.17,-1.1909999999999998,0.202,20.6837838,-10.4851314,-6.589017,88.56211806,-1.1688343199999998,-19.44046494
1.9100000000000001,191,0.146,-1.228,0.2,20.798375399999998,-16.959556799999998,-9.167328,88.77411251999996,-1.07716104,-19.60662276
1.9200000000000002,192,0.114,-1.228,0.191,19.1367972,-20.8556712,-8.4224826,88.97464782,-0.9912173399999998,-19.812887640000003
1.93,193,0.086,-1.208,0.18,17.4179232,-18.907614000000002,-5.1566220000000005,89.15799438,-0.93392154,-19.9962342
1.94,194,0.032,-1.22,0.14300000000000002,15.2406828,-19.8243468,-1.432395,89.31842262,-0.9167328000000001,-20.19103992
1.95,195,-0.108,-1.38,-0.018000000000000002,1.0886202,-39.0757356,-0.7448454000000001,89.34134094,-0.90527364,-20.58065136
1.96,196,-0.29600000000000004,-1.595,-0.115,-9.1100322,-44.34694920000001,-11.4018642,89.26112682,-0.7849524600000001,-21.02182902
1.97,197,-0.365,-1.694,-0.08199999999999999,4.1825934,-6.130650599999999,-30.8251404,89.30696345999998,-0.48128472,-21.0848544
1.98,198,-0.277,-1.629,-0.09,8.136003599999999,28.074942,-39.9351726,89.38144799999998,-0.0859437,-20.80983456
1.99,199,-0.097,-1.537,-0.087,15.0114996,21.1421502,-37.5860448,89.53041707999998,0.28074942,-20.597840100000006
2.0,200,0.071,-1.4780000000000002,-0.128,20.8556712,4.5263682,-28.819787400000006,89.73668196000001,0.56722842,-20.55200346
2.01,201,0.273,-1.347,-0.196,20.798375399999998,-2.1199446,-15.4125702,89.94867642,0.72765666,-20.57492178
2.02,202,0.429,-1.249,-0.201,16.902261,-12.834259199999998,-2.3491278,90.12056382,0.75630456,-20.69524296
2.03,203,0.462,-1.114,-0.208,10.4851314,-30.8251404,5.2139178,90.22942584,0.7104679199999999,-20.9989107
2.04,204,0.369,-0.944,-0.195,7.906820400000001,-47.6128098,8.4224826,90.30963996,0.64744254,-21.47446584
2.05,205,0.236,-0.8009999999999999,-0.184,4.583664,-61.5356892,9.6256944,90.34401744,0.5844171599999999,-22.08180132
2.0599999999999996,206,0.16399999999999998,-0.696,-0.197,-1.0886202,-70.07276340000001,8.307891,90.33828786,0.52139178,-22.7750805
2.07,207,0.16699999999999998,-0.639,-0.188,-4.6409598,-75.1147938,4.7555514,90.29245122,0.4984734599999999,-23.5199259
2.0799999999999996,208,0.147,-0.635,-0.153,-7.8495246,-80.44330319999997,-0.057295800000000015,90.21796668,0.52712136,-24.31633752
2.09,209,0.067,-0.6859999999999999,-0.115,-10.7143146,-84.05293859999998,-3.0366774,90.10910466,0.5844171599999999,-25.14712662
2.0999999999999996,210,-0.026,-0.748,-0.123,-12.4904844,-83.82375540000002,-3.2658606,89.97732432000002,0.63598338,-25.97791572
2.11,211,-0.112,-0.815,-0.12,-12.4331886,-81.2454444,-1.8907613999999997,89.85127356000002,0.6703608600000001,-26.780056920000003
2.1199999999999997,212,-0.182,-0.889,-0.105,-10.6570188,-74.9429064,-0.7448454000000001,89.74814112,0.69900876,-27.52490232
2.13,213,-0.228,-0.967,-0.08,-8.307891,-65.603691,-0.22918320000000006,89.66219742,0.7161975,-28.17234486
2.1399999999999997,214,-0.253,-1.021,-0.033,-6.875496000000001,-54.4883058,-0.3437748,89.59344246,0.72765666,-28.71092538000001
2.15,215,-0.26,-1.034,-0.011,-5.9014674000000005,-41.4821592,-0.572958,89.53041707999998,0.7104679199999999,-29.11772556
2.1599999999999997,216,-0.244,-1.015,-0.025,-4.3544808,-28.074942,0.057295800000000015,89.48458044,0.7161975,-29.39274540000001
2.17,217,-0.205,-0.98,-0.039,-2.9220857999999996,-16.329303,1.8907613999999997,89.45593253999998,0.69900876,-29.55890322
2.1799999999999997,218,-0.16699999999999998,-0.94,-0.031,-1.6615782,-9.6829902,4.1825934,89.4387438,0.6589017,-29.6505765
2.19,219,-0.103,-0.914,-0.018000000000000002,-0.9740286,-5.1566220000000005,6.4744254,89.42728464000002,0.59587632,-29.70214272
2.1999999999999997,220,-0.036000000000000004,-0.912,-0.014,0.1718874,-2.8074942000000003,8.8235532,89.42155505999996,0.4984734599999999,-29.73079062
2.21,221,0.02,-0.921,0.002,1.8907613999999997,-3.5523396000000003,11.5737516,89.44447338,0.38388186,-29.765168100000004
2.2199999999999998,222,0.055,-0.934,0.035,2.6356068,-5.958763200000001,13.980175199999998,89.47312128,0.24637194,-29.822463899999995
2.23,223,0.063,-0.943,0.058,2.8074942000000003,-9.1100322,15.4125702,89.50176918,0.09740286,-29.9084076
2.2399999999999998,224,0.042,-0.948,0.06,2.6356068,-12.7196676,16.2147114,89.53041707999998,-0.05729580000000001,-30.03445836
2.25,225,0.006,-0.951,0.042,2.3491278,-16.2147114,15.6990492,89.55906498,-0.20626488,-30.194886600000004
2.26,226,-0.034,-0.951,0.042,2.0053530000000004,-17.5325148,14.495837400000001,89.58771288,-0.34950438,-30.366774
2.27,227,-0.081,-0.949,0.048,1.6042823999999998,-16.959556799999998,12.834259199999998,89.60490161999998,-0.47555514,-30.53293182
2.28,228,-0.131,-0.947,0.055,1.145916,-13.8655836,11.1153852,89.62209035999999,-0.5786875800000001,-30.67044174
2.29,229,-0.16699999999999998,-0.942,0.04,0.572958,-9.568398599999998,9.5111028,89.62781994000002,-0.67609044,-30.76211502
2.3,230,-0.183,-0.936,0.032,0.0,-5.2139178,8.136003599999999,89.6392791,-0.8307891,-30.80222208
2.31,231,-0.177,-0.924,0.038,-0.1718874,-0.3437748,7.0473834,89.63354952,-0.90527364,-30.80222208
2.32,232,-0.161,-0.904,0.039,-1.145916,4.9274388,5.9014674000000005,89.62209035999999,-0.96256944,-30.75638544000001
2.3299999999999996,233,-0.13,-0.888,0.043,-2.0053530000000004,10.026765,4.5263682,89.59917204,-1.00840608,-30.653253000000003
2.34,234,-0.098,-0.892,0.045,-2.86479,13.464512999999998,3.3231564,89.56479456,-1.04851314,-30.52147266
2.3499999999999996,235,-0.061,-0.904,0.044,-3.4950437999999995,15.756345000000001,1.8907613999999997,89.53041707999998,-1.07716104,-30.366774
2.36,236,-0.034,-0.913,0.056,-3.3231564,16.157415599999997,0.286479,89.49031002000002,-1.08289062,-30.20634576
2.3699999999999997,237,-0.015,-0.908,0.085,-2.1772404,16.1001198,-1.7188740000000002,89.46166212,-1.06570188,-30.04591752
2.38,238,-0.013,-0.888,0.115,-0.9740286,16.673077799999998,-4.5263682,89.45020296,-1.0255948199999998,-29.8797597
2.3899999999999997,239,-0.027000000000000003,-0.873,0.128,0.0,17.303331600000003,-7.6776372,89.44447338,-0.95111028,-29.71360188
2.4,240,-0.044,-0.87,0.127,1.5469866,17.4179232,-10.1986524,89.47312128,-0.8594370000000001,-29.5359849
2.4099999999999997,241,-0.069,-0.8809999999999999,0.126,3.724227,17.7044022,-11.745639,89.50749876,-0.7448454000000001,-29.364097500000003
2.42,242,-0.083,-0.904,0.101,4.010706000000001,18.907614000000002,-11.8602306,89.54187624,-0.6302538000000001,-29.17502136
2.4299999999999997,243,-0.086,-0.935,0.073,3.151269,19.480572,-11.0007936,89.57052414,-0.52712136,-28.98021564
2.44,244,-0.077,-0.978,0.058,1.8334656000000005,20.2827132,-9.224623800000002,89.5819833,-0.44117766,-28.77968034
2.4499999999999997,245,-0.053,-1.027,0.061,0.572958,20.2827132,-6.703608600000001,89.59344246,-0.38388186,-28.579145040000004
2.46,246,-0.019,-1.072,0.07,0.22918320000000006,20.05353,-4.010706000000001,89.59344246,-0.34950438,-28.38433932
2.4699999999999998,247,0.005,-1.1,0.06,-0.572958,19.1367972,-2.0053530000000004,89.5819833,-0.33231564,-28.19526318
2.48,248,0.009000000000000001,-1.116,0.065,-0.572958,13.5791046,-0.057295800000000015,89.57625372,-0.33231564,-28.057753260000005
2.4899999999999998,249,0.002,-1.119,0.114,1.9480572,5.5003968,1.4896908000000002,89.59344246,-0.34950438,-28.00618704
2.5,250,-0.005,-1.092,0.18600000000000005,5.7868758000000025,1.5469866,0.9740286,89.73668196000001,-0.36096354,-27.9889983
2.51,251,-0.038,-1.048,0.253,8.250595200000001,2.9220857999999996,-2.4064236,89.81689608,-0.33231564,-27.9603504
2.52,252,-0.086,-1.008,0.295,9.0527364,8.021412000000002,-7.2765666,89.90856936,-0.26356068,-27.88013628
2.53,253,-0.139,-0.998,0.33,11.2872726,15.2406828,-11.1153852,90.02316096,-0.15469866,-27.72543762
2.54,254,-0.132,-1.146,0.397,8.479778399999999,32.142943800000005,-12.605076,90.10337508,-0.04010706,-27.404581140000005
2.55,255,0.071,-1.589,0.015,-13.120738199999998,67.49445240000001,-6.8182002000000015,89.96013558000001,0.00572958,-26.73994986000001
2.56,256,0.135,-1.67,-0.16699999999999998,-14.5531332,45.3209778,18.6784308,89.80543692,-0.18907614,-26.29304262
2.57,257,0.054000000000000006,-1.469,-0.117,-1.2032118,23.6058696,31.340802600000004,89.78824818,-0.5042030399999999,-26.05812984
2.5799999999999996,258,-0.026,-1.4409999999999998,0.064,14.381245800000002,36.03905820000001,37.4714532,89.9257581,-0.8880849000000001,-25.70289588
2.59,259,0.044,-1.5019999999999998,0.087,10.886202,52.3110654,40.10706,90.02316096,-1.30061466,-25.1815041
2.5999999999999996,260,0.098,-1.369,-0.004,-4.1252976000000015,50.3630082,37.7006364,89.96013558000001,-1.6844965200000002,-24.68876022
2.61,261,0.015,-1.215,-0.073,-11.516455800000001,41.825934,31.1689152,89.82262566,-2.005353,-24.27623046
2.6199999999999997,262,-0.087,-1.121,-0.107,-8.5370742,45.4355694,23.6631654,89.71376364,-2.25172494,-23.82932322
2.63,263,-0.175,-1.0,-0.124,-9.167328,49.6754586,16.7303736,89.59344246,-2.42934192,-23.336579340000004
2.6399999999999997,264,-0.213,-0.892,-0.138,-15.6417534,54.8320806,10.1413566,89.40436632,-2.53820394,-22.792269240000003
2.65,265,-0.248,-0.8240000000000001,-0.158,-20.2827132,61.24921020000001,6.760904399999999,89.1522648,-2.6356068,-22.18493376
2.6599999999999997,266,-0.265,-0.816,-0.188,-21.3713334,65.2599162,6.3598338,88.89443370000002,-2.70436176,-21.5432208
2.67,267,-0.244,-0.826,-0.203,-21.9442914,68.2392978,6.0733548,88.63087302,-2.77311672,-20.86713036
2.6799999999999997,268,-0.19,-0.845,-0.19,-20.340009,69.0987348,5.042030400000002,88.3787715,-2.82468294,-20.18531034
2.69,269,-0.118,-0.8640000000000001,-0.168,-18.449247600000003,67.5517482,3.2085648,88.14958829999998,-2.85906042,-19.51494948
2.6999999999999997,270,-0.041,-0.8809999999999999,-0.14300000000000002,-15.985528200000001,64.51507079999999,0.4010706,87.93759384,-2.85906042,-18.878966100000003
2.71,271,0.041,-0.895,-0.11,-13.521808800000002,60.38977320000001,-3.2085648,87.76570644,-2.81895336,-18.28308978
2.7199999999999998,272,0.131,-0.914,-0.087,-12.3758928,53.68616460000001,-6.4744254,87.6052782,-2.7501984,-17.755968420000006
2.73,273,0.221,-0.938,-0.079,-13.0061466,44.6334282,-7.906820400000001,87.44484996,-2.6642547000000003,-17.32052034
2.7399999999999998,274,0.281,-0.948,-0.08900000000000001,-14.5531332,35.0077338,-8.078707799999998,87.27869214,-2.5783110000000002,-16.976745540000003
2.75,275,0.322,-0.935,-0.099,-15.756345000000001,23.6058696,-7.6776372,87.09534558,-2.44080108,-16.7590215
2.76,276,0.339,-0.906,-0.105,-15.870936600000002,10.886202,-7.5630456000000015,86.92345818,-2.36631654,-16.65588906
2.77,277,0.33,-0.871,-0.107,-15.0687954,-1.0886202,-8.250595200000001,86.7744891,-2.28610242,-16.6730778
2.78,278,0.301,-0.8490000000000001,-0.098,-13.349921400000001,-11.8029348,-9.797581800000001,86.64270875999998,-2.18869956,-16.79912856
2.79,279,0.23,-0.8420000000000001,-0.075,-10.4278356,-20.2254174,-11.688343199999998,86.55103548,-2.07983754,-17.00539344
2.8,280,0.153,-0.852,-0.054000000000000006,-7.5057497999999985,-26.2414764,-13.6936962,86.48228051999996,-1.93659804,-17.2746837
2.81,281,0.075,-0.865,-0.028,-5.0993262,-30.194886600000004,-14.7823164,86.44790304,-1.79908812,-17.58408102
2.82,282,-0.029,-0.878,-0.002,-3.4950437999999995,-31.2835068,-15.2406828,86.42498472,-1.6615782,-17.9049375
2.8299999999999996,283,-0.105,-0.889,0.018000000000000002,-3.2658606,-29.7365202,-15.183387000000002,86.40206640000002,-1.5183387000000002,-18.20860524
2.84,284,-0.151,-0.899,0.029,-2.1199446,-24.8090814,-14.381245800000002,86.39060724,-1.38655836,-18.46070676
2.8499999999999996,285,-0.141,-0.921,0.029,-1.432395,-16.7876694,-12.891555,86.39633682,-1.2891555000000001,-18.63259416
2.86,286,-0.131,-0.934,0.03,-0.5156622000000001,-7.448453999999999,-10.8289062,86.39060724,-1.18602306,-18.71280828
2.8699999999999997,287,-0.067,-0.955,0.046,0.286479,0.572958,-8.078707799999998,86.39633682,-1.10580894,-18.71280828
2.88,288,0.003,-0.97,0.059,-0.22918320000000006,5.042030400000002,-4.8128472,86.39060724,-1.05424272,-18.66124206
2.8899999999999997,289,0.068,-0.987,0.054000000000000006,-1.4896908000000002,7.3911582,-1.8334656000000005,86.37341849999999,-1.03705398,-18.5924871
2.9,290,0.117,-1.012,0.057,-1.8907613999999997,6.703608600000001,0.6875496,86.41925513999998,-0.93392154,-18.54665046
2.9099999999999997,291,0.153,-1.058,0.058,-2.1772404,2.7501984,2.86479,86.39060724,-0.96256944,-18.518002560000006
2.92,292,0.173,-1.107,0.049,-2.9793816000000004,-1.9480572,4.2398892,86.36195934,-1.00840608,-18.5351913
2.9299999999999997,293,0.17,-1.133,0.037000000000000005,-3.4950437999999995,-6.016058999999999,5.3858052,86.32758186,-1.0599723,-18.5924871
2.94,294,0.154,-1.137,0.028,-4.1825934,-7.2192707999999985,5.6149884000000005,86.28747480000001,-1.12299768,-18.65551248
2.9499999999999997,295,0.12,-1.111,0.037000000000000005,-4.6409598,-5.6149884000000005,5.0993262,86.27601564,-1.13445684,-18.71853786
2.96,296,0.079,-1.082,0.062,-4.3544808,-2.6929026,4.297185,86.23017899999998,-1.18029348,-18.74718576
2.9699999999999998,297,0.035,-1.058,0.078,-3.9534102,-0.1718874,4.1252976000000015,86.19007194,-1.22040054,-18.74718576
2.98,298,-0.001,-1.047,0.093,-2.8074942000000003,1.8907613999999997,4.8128472,86.16142404,-1.26623718,-18.72426744
2.9899999999999998,299,-0.034,-1.042,0.086,-2.5210152000000003,6.990087599999999,6.2452422,86.13277614,-1.32353298,-18.649782899999998
3.0,300,-0.061,-1.021,0.045,-3.3804522000000006,8.078707799999998,7.906820400000001,86.12704656,-1.41520626,-18.5638392
3.01,301,-0.075,-0.987,0.118,-3.4377480000000005,8.3651868,8.7089616,86.0869395,-1.50114996,-18.4778955
3.02,302,-0.059,-0.934,0.116,-2.1199446,12.5477802,8.59437,86.06402118000004,-1.5813640800000002,-18.34611516
3.03,303,-0.029,-0.861,0.105,3.724227,15.0687954,7.5057497999999985,86.09266908,-1.64438946,-18.191416500000006
3.04,304,-0.003,-0.813,0.109,10.6570188,14.2093584,5.2139178,86.19580152,-1.6902260999999998,-18.048177
3.05,305,0.038,-0.7809999999999999,0.124,13.8082878,12.834259199999998,3.3231564,86.35050018,-1.7074148399999998,-17.92212624
3.06,306,0.079,-0.755,0.133,13.464512999999998,13.2926256,2.6356068,86.48228051999996,-1.73033316,-17.78461632
3.07,307,0.109,-0.7190000000000001,0.134,12.891555,13.464512999999998,2.9793816000000004,86.60833127999999,-1.75325148,-17.647106400000006
3.08,308,0.114,-0.675,0.102,11.917526400000002,9.568398599999998,4.9847345999999995,86.72865246,-1.79908812,-17.549703540000007
3.09,309,0.107,-0.622,0.077,13.8082878,0.3437748,9.453807000000001,86.86616238,-1.8907613999999997,-17.538244380000002
3.0999999999999996,310,0.09,-0.583,0.084,18.6784308,-14.7823164,15.527161800000002,87.07242726,-2.03973048,-17.6757543
3.11,311,0.055,-0.562,0.113,24.923673,-35.7525792,21.1421502,87.34171752,-2.25745452,-18.019529100000003
3.1199999999999997,312,0.03,-0.586,0.209,33.804522,-60.67625219999999,26.069589,87.7198698,-2.5210152000000003,-18.60394626
3.13,313,0.005,-0.6729999999999999,0.25,35.236917,-68.6976642,23.7204612,88.11521081999999,-2.75592798,-19.27430712
3.1399999999999997,314,-0.087,-0.847,0.125,33.8618178,-73.625103,14.4385416,88.50482226,-2.89916748,-19.9962342
3.15,315,-0.182,-1.0759999999999998,0.108,27.1582092,-58.67089920000001,-2.6929026,88.81994916,-2.87624916,-20.5691922
3.1599999999999997,316,-0.168,-1.209,-0.141,10.9434978,-21.0848544,-20.3973048,88.94599991999998,-2.6699842800000004,-20.78118666
3.17,317,-0.101,-1.092,-0.263,8.880849000000003,-17.4179232,-21.9442914,89.04913236,-2.45226024,-20.95880364
3.1799999999999997,318,-0.046,-0.961,-0.18,17.4179232,-32.945085,-15.985528200000001,89.2382085,-2.28610242,-21.2853897
3.19,319,0.05,-0.878,-0.19,13.9228794,-31.5699858,-9.8548776,89.39863674,-2.18296998,-21.59478702
3.1999999999999997,320,0.092,-0.762,-0.187,10.6570188,-25.553926800000006,2.4637194,89.50176918,-2.18869956,-21.84688854
3.21,321,0.113,-0.736,-0.114,20.3973048,-31.4553942,14.9542038,89.72522280000004,-2.32620948,-22.15628586
3.2199999999999998,322,0.097,-0.792,-0.029,25.3247436,-35.809875,24.9809688,90.00024264,-2.56685184,-22.51151982
3.23,323,0.063,-0.856,-0.032,26.69984280000001,-37.7006364,32.2002396,90.2981808,-2.87051958,-22.87821294
3.2399999999999998,324,0.025,-0.913,-0.004,30.8251404,-40.164355799999996,38.1590028,90.63622602,-3.2314831199999987,-23.27928354
3.25,325,-0.045,-0.936,0.07,35.46610020000001,-39.1330314,41.76863820000001,91.03156704,-3.62682414,-23.66889498
3.26,326,-0.141,-0.909,0.11,39.0757356,-36.7839036,42.5707794,91.45555596,-4.03362432,-24.04131768
3.27,327,-0.28600000000000003,-0.8690000000000001,0.211,43.7166954,-33.116972399999995,41.0810886,91.9311111,-4.41750618,-24.37363332
3.28,328,-0.359,-0.8490000000000001,0.254,45.9512316,-23.032911600000002,37.7006364,92.4181254,-4.77274014,-24.61427568
3.29,329,-0.34600000000000003,-0.782,0.242,46.9252602,-15.2979786,34.4920716,92.91086928,-5.0993262,-24.77470392
3.3,330,-0.317,-0.6709999999999999,0.228,47.4409224,-11.9748222,32.257535399999995,93.4208019,-5.42591226,-24.90648426000001
3.31,331,-0.29100000000000004,-0.578,0.192,46.8106686,-8.193299399999999,28.0176462,93.9078162,-5.6952025200000005,-24.99815754
3.32,332,-0.227,-0.461,0.114,41.76863820000001,-3.4377480000000005,22.4026578,94.3375347,-5.90719698,-25.04399418
3.33,333,-0.15,-0.39,0.073,38.4454818,2.0626488000000003,15.527161800000002,94.72714614,-6.06189564,-25.03253502
3.34,334,-0.096,-0.35600000000000004,0.033,31.6845774,9.3392154,8.9954406,95.03654346,-6.1592985,-24.946591320000003
3.3499999999999996,335,-0.048,-0.358,-0.027000000000000003,20.3973048,17.6471064,3.724227,95.21416044,-6.2165943,-24.768974340000003
3.36,336,0.016,-0.3670000000000001,-0.104,-1.5469866,27.788463,0.6875496,95.1683238,-6.25670136,-24.49968408
3.3699999999999997,337,0.06,-0.385,-0.183,-15.0114996,28.4187168,0.3437748,94.97924766,-6.29107884,-24.21893466
3.38,338,0.086,-0.402,-0.229,-25.78311,18.8503182,1.0886202,94.69849824,-6.3254563200000025,-24.035588100000002
3.3899999999999997,339,0.113,-0.401,-0.243,-35.122325399999994,3.151269,2.291832,94.3375347,-6.35410422,-24.01266978
3.4,340,0.132,-0.386,-0.281,-46.2377106,-9.969469199999999,3.0366774,93.85624998,-6.3655633799999976,-24.11580222
3.4099999999999997,341,0.135,-0.358,-0.333,-57.2385042,-20.168121600000006,0.8594370000000001,93.30048072,-6.3598338000000005,-24.3220671
3.42,342,0.092,-0.331,-0.359,-62.22323879999999,-27.8457588,-4.5263682,92.7046044,-6.302537999999998,-24.6085461
3.4299999999999997,343,0.026,-0.332,-0.364,-65.3745078,-28.4187168,-11.9748222,92.0743506,-6.165028080000001,-24.88929552
3.44,344,-0.006999999999999999,-0.383,-0.338,-76.31800559999998,-33.002380800000005,-19.308684600000007,91.34096436,-5.958763200000001,-25.22161116
3.4499999999999997,345,-0.024,-0.487,-0.28,-95.6266902,-45.779344200000004,-25.553926800000006,90.4127724,-5.6952025200000005,-25.679977560000005
3.46,346,-0.066,-0.647,-0.25,-123.5297448,-51.9099948,-32.142943800000005,89.21529018,-5.37434604,-26.2128285
3.4699999999999998,347,-0.173,-0.7829999999999999,-0.292,-151.9484616,-41.8832298,-34.5493674,87.7198698,-5.042030400000002,-26.65400616
3.48,348,-0.396,-0.8640000000000001,-0.408,-174.179232,-17.9335854,-33.6326346,85.9723479,-4.7269035000000015,-26.86600062
3.4899999999999998,349,-0.59,-0.902,-0.435,-193.1441418,9.6256944,-34.7212548,84.00710196,-4.39458786,-26.82016398
3.5,350,-0.6,-0.958,-0.29100000000000004,-215.0311374,29.2781538,-38.10170700000001,81.80121366,-4.022165159999999,-26.596710360000003
3.51,351,-0.4370000000000001,-1.074,-0.361,-243.793629,59.30115299999999,-45.0344988,79.28592804,-3.5236917,-26.11542564
3.52,352,-0.423,-1.225,-0.6629999999999999,-274.733361,88.35012359999997,-45.83664,76.44405636,-2.94500412,-25.37630982
3.53,353,-0.556,-1.37,-0.304,-225.11519819999998,71.67704579999999,-39.4195104,74.12357646,-2.42934192,-24.80335182
3.54,354,-0.35,-2.572,-0.276,-208.270233,59.98870260000001,-32.0283522,71.98071354,-1.98816426,-24.33925584
3.55,355,0.056,-3.052,-0.279,-244.7103618,44.06047020000001,-15.6417534,69.48261666,-1.73606274,-23.99548104
3.56,356,0.28600000000000003,-2.7430000000000003,-0.5870000000000001,-257.8311,31.111619399999995,-3.3804522000000006,66.85273944,-1.6329303,-23.73764994
3.57,357,0.565,-2.318,-0.753,-266.48276580000004,4.1825934,-5.1566220000000005,64.14837768,-1.6042824000000002,-23.73764994
3.58,358,0.841,-2.363,-0.718,-269.74862640000003,-27.5592798,-17.131444199999994,61.42109760000001,-1.6042824000000002,-24.08142474000001
3.59,359,0.933,-2.6260000000000003,-1.018,-283.7860974,-41.825934,-34.4920716,58.56203718,-1.5412570200000002,-24.631464420000004
3.5999999999999996,360,0.585,-2.737,-1.039,-297.1933146,-58.613603399999995,-47.7846972,55.57692599999999,-1.4782316400000002,-25.39922814
3.61,361,0.14800000000000002,-2.853,-1.011,-307.6211502,-33.9764094,-55.1758554,52.47149363999999,-1.26623718,-26.0122932
3.6199999999999997,362,-0.28,-2.647,-0.765,-319.6532682,-12.891555,-42.8572584,49.24001052,-1.05424272,-26.39617506
3.63,363,-0.501,-2.0340000000000003,-0.5329999999999999,-307.0481922,-23.6058696,-7.2192707999999985,46.12884858,-1.19175264,-26.62535826
3.6399999999999997,364,-0.455,-1.598,-0.345,-280.23375780000003,-35.809875,25.1528562,43.29270648,-1.6558486199999998,-26.71130196
3.65,365,-0.349,-1.342,-0.242,-261.268848,-31.627281600000003,44.2323576,40.6513701,-2.21161788,-26.60816952
3.6599999999999997,366,-0.208,-1.212,-0.242,-250.0388712,-21.8869956,48.529542600000006,38.10743658,-2.7215505,-26.37898632000001
3.67,367,-0.156,-1.081,-0.214,-243.793629,-13.178034,41.1383844,35.62652844,-3.0997027800000003,-26.13261438
3.6799999999999997,368,-0.213,-0.974,-0.129,-230.2145244,-1.3178034,30.0229992,33.27740064,-3.3116972399999995,-25.8977016
3.69,369,-0.224,-0.838,-0.14800000000000002,-229.0113126,6.6463128000000005,21.0848544,30.93973200000001,-3.40337052,-25.679977560000005
3.6999999999999997,370,-0.16699999999999998,-0.662,-0.119,-221.90663340000003,10.9434978,11.9748222,28.69373664,-3.40337052,-25.51954932
3.71,371,-0.196,-0.61,-0.109,-208.9004868,11.9748222,8.8235532,26.562332880000003,-3.37472262,-25.3820394
3.7199999999999998,372,-0.215,-0.542,-0.102,-198.1288764,11.1153852,10.7716104,24.53979114,-3.34607472,-25.227340739999995
3.73,373,-0.145,-0.44,-0.095,-188.3312946,11.9748222,11.2872726,22.62038184,-3.3116972399999995,-25.0669125
3.7399999999999998,374,-0.102,-0.37,0.002,-183.4611516,11.8029348,9.0527364,20.74680918,-3.2658606,-24.93513216
3.75,375,-0.053,-0.332,0.011,-168.22046880000005,12.2040054,4.3544808,19.0508535,-3.1913760600000005,-24.843458880000004
3.76,376,-0.043,-0.329,-0.028,-169.76745540000005,9.6829902,-5.6722842,17.326249920000002,-3.1054323600000004,-24.85491804
3.77,377,0.008,-0.321,0.026,-163.80869219999997,8.7089616,-9.3392154,15.66467172,-3.01948866,-24.91221384
3.78,378,0.091,-0.275,0.043,-161.1157896,1.8907613999999997,-11.0007936,14.037471000000002,-2.9965703400000003,-25.00388712
3.79,379,0.131,-0.217,0.013,-159.282324,-5.443101,-11.0007936,12.421729440000002,-3.04240698,-25.11847872
3.8,380,0.117,-0.16399999999999998,-0.023,-157.6780416,-12.261301199999998,-9.3965112,10.84036536,-3.151269,-25.227340739999995
3.81,381,0.035,-0.08199999999999999,-0.032,-154.46947680000005,-16.2147114,-6.130650599999999,9.27619002,-3.31742682,-25.31328444
3.82,382,-0.028,-0.013,0.023,-150.5733624,-13.120738199999998,-0.5156622000000001,7.75212174,-3.4663959,-25.33047318
3.83,383,-0.038,0.061,-0.026,-148.85448839999995,-11.3445684,3.2658606,6.2452422000000025,-3.59817624,-25.30755486
3.84,384,0.134,0.179,-0.2,-144.9010782,-9.969469199999999,0.572958,4.77274014,-3.71276784,-25.30182528000001
3.8499999999999996,385,0.364,0.335,-0.331,-139.17149819999997,-10.6570188,-5.2139178,3.34607472,-3.8101707000000014,-25.3533915
3.86,386,0.395,0.569,-0.485,-134.4159468,-17.6471064,-8.193299399999999,1.98816426,-3.99924684,-25.4393352
3.8699999999999997,387,0.048,0.7509999999999999,-0.585,-125.764281,-24.2361234,-6.5317212,0.72192708,-4.25134836,-25.50809016
3.88,388,-0.434,0.981,-0.6729999999999999,-112.9873176,-15.183387000000002,-7.7922288,-0.41252976,-4.4117766000000005,-25.5825747
3.8899999999999997,389,-0.858,1.163,-0.684,-91.55868840000001,-0.572958,-24.8090814,-1.32353298,-4.42896534,-25.82321706
3.9,390,-0.8440000000000001,1.242,-0.8009999999999999,-65.8328742,22.5745452,-45.550161,-1.9767051,-4.23415962,-26.270124300000006
3.9099999999999997,391,-0.629,1.4069999999999998,-1.254,-22.173474600000002,53.571573,-54.029939399999996,-2.17151082,-3.724227,-26.80870482000001
3.92,392,-0.4370000000000001,1.288,-1.412,34.262888399999994,71.1613836,-43.48751220000001,-1.8048176999999999,-3.03094782,-27.249882480000004
3.9299999999999997,393,-0.326,0.955,-1.334,68.75496,62.3378304,-18.5638392,-1.10580894,-2.41215318,-27.43895862
3.94,394,-0.197,0.578,-1.223,89.09496899999998,44.690724,5.3285094000000015,-0.21199446,-1.9595163600000003,-27.3873924
3.9499999999999997,395,-0.119,0.236,-1.02,96.6580146,37.3568616,21.6578124,0.7448454000000001,-1.5870936600000003,-27.163938779999995
3.96,396,-0.046,-0.002,-0.917,88.7511942,35.5806918,30.194886600000004,1.6329303,-1.2318597,-26.85454146
3.9699999999999998,397,-0.084,-0.015,-0.882,79.18279559999998,30.8251404,31.79916900000001,2.42934192,-0.92819196,-26.527955400000003
3.98,398,-0.092,0.133,-0.779,71.1040878,39.7059894,28.7051958,3.1398098400000003,-0.5443101,-26.21855808
3.9899999999999998,399,-0.003,0.317,-0.648,66.463128,61.1919144,26.5279554,3.80444112,0.04583664,-25.90343118
4.0,400,0.094,0.402,-0.5489999999999999,59.8168152,80.78707800000002,28.1322378,4.3831287,0.8307891,-25.553926800000006
4.01,401,0.171,0.455,-0.45,47.8992888,96.3715356,31.971056400000002,4.86441342,1.75898106,-25.13566746
4.02,402,0.189,0.561,-0.6809999999999999,40.04976420000001,102.0438198,35.4088044,5.27694318,2.73300966,-24.67157148
4.03,403,0.16399999999999998,0.542,-0.606,28.934379,79.4119788,40.90920120000001,5.59207008,3.47785506,-24.16736844
4.04,404,0.092,0.5920000000000001,-0.615,10.9434978,60.2751816,45.0344988,5.72958,4.022165159999999,-23.65170624000001
4.05,405,-0.051,0.546,-0.674,8.7089616,61.7648724,40.7946096,5.80406454,4.57793442,-23.17042152
4.06,406,-0.188,0.43,-0.7809999999999999,-5.5576926,91.3295052,29.9657034,5.76968706,5.443101,-22.75216218
4.07,407,-0.256,0.337,-1.3030000000000002,-26.069589,116.023995,18.9649098,5.52331512,6.554639519999999,-22.41984654
4.08,408,-0.215,0.231,-2.255,-42.5707794,110.40900659999998,11.516455800000001,5.11078536,7.62607098,-22.16774502
4.09,409,0.004,0.499,-3.842,-57.1812084,63.4264506,-1.0886202,4.53209778,8.23913604,-22.10471964000001
4.1,410,0.6759999999999999,0.622,-3.996,-30.4240698,24.8663772,-21.6005166,4.1883229800000015,8.49696714,-22.2880662
4.109999999999999,411,1.18,0.391,-3.995,-73.052145,42.2270046,-5.042030400000002,3.44347758,8.909496899999997,-22.29379578
4.12,412,1.172,1.0490000000000002,-3.202,-84.05293859999998,57.00932099999999,-4.4117766,2.58404058,9.46526616,-22.2880662
4.13,413,1.058,1.071,-2.463,-78.781725,30.93973200000001,-16.272007199999994,1.75325148,9.7689339,-22.42557612
4.14,414,0.812,1.28,-2.59,-80.1568242,8.307891,-36.6120162,0.87662574,9.84914802,-22.78653966
4.1499999999999995,415,0.625,0.7140000000000001,-2.0980000000000003,-49.388979600000006,17.8762896,-54.43101,0.28074942,10.026765,-23.32512018
4.16,416,0.636,-0.048,-1.477,-26.2414764,19.938938399999998,-45.3782736,-0.06302537999999999,10.2273003,-23.77202742
4.17,417,0.649,-0.249,-1.026,-31.913760600000003,13.750992000000002,-26.69984280000001,-0.44117766,10.35908064,-24.035588100000002
4.18,418,0.632,0.0,-0.857,-31.79916900000001,6.990087599999999,-29.8511118,-0.8193299399999999,10.42210602,-24.33352626
4.1899999999999995,419,0.6629999999999999,0.28800000000000003,-0.769,-20.7410796,2.7501984,-40.5654264,-1.10007936,10.43929476,-24.74032644
4.2,420,0.6409999999999999,0.386,-0.615,-8.880849000000003,-2.4064236,-38.61736920000001,-1.3349921400000002,10.49659056,-25.15858578000001
4.21,421,0.594,0.411,-0.522,-2.9793816000000004,-4.6409598,-29.220858000000003,-1.4209358399999998,10.44502434,-25.45079436
4.22,422,0.523,0.404,-0.466,-2.4064236,-4.0680017999999984,-19.1367972,-1.4782316400000002,10.3991877,-25.64560008
4.2299999999999995,423,0.465,0.369,-0.471,-1.2032118,-1.0886202,-11.8029348,-1.51260912,10.38199896,-25.76592126
4.24,424,0.38,0.243,-0.487,-0.4010706,2.1772404,-5.1566220000000005,-1.52979786,10.40491728,-25.81748748
4.25,425,0.268,0.147,-0.515,-1.8907613999999997,3.2658606,1.2032118,-1.55844576,10.45075392,-25.80602832
4.26,426,0.141,0.101,-0.5670000000000001,-2.1772404,5.6722842,6.016058999999999,-1.56990492,10.50804972,-25.74873252
4.27,427,0.041,0.071,-0.621,-0.3437748,12.7196676,7.161975,-1.56417534,10.63410048,-25.67424798
4.28,428,-0.01,0.058,-0.684,1.9480572,20.912967,5.6722842,-1.53552744,10.84609494,-25.61695218
4.29,429,-0.013,0.037000000000000005,-0.789,2.8074942000000003,23.777757,4.1252976000000015,-1.50114996,11.08100772,-25.57684512
4.3,430,0.037000000000000005,0.043,-0.945,5.042030400000002,23.6631654,5.0993262,-1.45531332,11.2872726,-25.51954932
4.31,431,0.16399999999999998,0.083,-1.096,6.589017,19.2513888,7.333862400000001,-1.3750992,11.47634874,-25.44506478
4.32,432,0.246,0.1,-1.21,8.3651868,3.5523396000000003,9.0527364,-1.27196676,11.5164558,-25.3533915
4.33,433,0.271,0.065,-1.243,8.7089616,-10.0840608,9.6829902,-1.16310474,11.41905294,-25.25598864
4.34,434,0.235,0.01,-1.183,8.651665800000002,-15.6417534,9.167328,-1.05424272,11.27008386,-25.16431536
4.35,435,0.166,-0.048,-1.15,8.193299399999999,-18.8503182,7.9641161999999985,-0.93965112,11.06954856,-25.08410124000001
4.36,436,0.132,-0.102,-1.099,5.0993262,-21.829699800000004,6.2452422,-0.87662574,10.85182452,-25.02107586
4.37,437,0.13,-0.14,-1.04,0.4010706,-21.829699800000004,4.3544808,-0.8594370000000001,10.63983006,-24.98096880000001
4.38,438,0.14,-0.157,-1.01,-2.4064236,-21.2567418,1.9480572,-0.87662574,10.4278356,-24.96378006
4.39,439,0.175,-0.16,-0.986,-4.2398892,-18.7930224,-1.5469866,-0.92246238,10.23875946,-24.98096880000001
4.3999999999999995,440,0.242,-0.136,-0.983,-5.5576926,-12.6623718,-4.7555514,-0.9453806999999999,10.1413566,-25.02680544
4.41,441,0.301,-0.087,-0.984,-6.6463128000000005,-8.651665800000002,-7.0473834,-1.0255948199999998,10.0554129,-25.10128998
4.42,442,0.332,-0.034,-0.973,-7.7922288,-5.2139178,-8.136003599999999,-1.1172681,10.00384668,-25.1815041
4.43,443,0.336,0.009000000000000001,-0.966,-10.6570188,-3.151269,-8.193299399999999,-1.24331886,9.9694692,-25.26171822
4.4399999999999995,444,0.29100000000000004,0.028,-0.971,-14.381245800000002,-2.4064236,-7.6776372,-1.39801752,9.9408213,-25.34193234
4.45,445,0.256,0.041,-0.978,-15.469866,5.3285094000000015,-7.333862400000001,-1.5813640800000002,10.00384668,-25.41641688
4.46,446,0.172,0.018000000000000002,-0.999,-14.610429000000002,10.255948199999999,-6.302537999999998,-1.74179232,10.10124954,-25.47944226
4.47,447,0.061,0.0,-0.993,-15.527161800000002,1.432395,-2.1199446,-1.90222056,10.1127087,-25.50236058
4.4799999999999995,448,0.004,0.009000000000000001,-0.906,-12.9488508,-8.651665800000002,5.3285094000000015,-2.02254174,10.026765,-25.44506478
4.49,449,-0.017,0.047,-0.83,-7.7922288,-13.6364004,11.745639,-2.07983754,9.89498466,-25.3247436
4.5,450,-0.026,0.093,-0.8290000000000001,-1.7188740000000002,-20.8556712,13.6936962,-2.0912967,9.6543423,-25.1815041
4.51,451,-0.019,0.117,-0.863,3.2658606,-26.0122932,10.3705398,-2.0340008999999997,9.40224078,-25.07264208
4.52,452,0.016,0.1,-0.905,8.021412000000002,-26.642547,4.010706000000001,-1.94232762,9.138680099999998,-25.03253502
4.53,453,0.053,0.049,-0.949,10.4278356,-25.1528562,-2.1772404,-1.83919518,8.89230816,-25.055453340000003
4.54,454,0.095,-0.009000000000000001,-0.975,11.0007936,-22.8037284,-5.5576926,-1.73033316,8.663124960000001,-25.11274914
4.55,455,0.16699999999999998,-0.06,-0.995,11.2872726,-20.2254174,-4.9847345999999995,-1.6042824000000002,8.47404882,-25.15858578000001
4.56,456,0.223,-0.078,-1.03,10.8289062,-16.673077799999998,-2.3491278,-1.49542038,8.307891,-25.18723368
4.57,457,0.254,-0.071,-1.062,8.193299399999999,-15.6417534,-0.8021411999999999,-1.40947668,8.15319234,-25.19296326000001
4.58,458,0.257,-0.05,-1.07,4.1825934,-16.558486199999994,-1.0886202,-1.36364004,7.987034519999999,-25.20442242
4.59,459,0.254,-0.04,-1.051,0.8594370000000001,-16.272007199999994,-2.4064236,-1.3579104599999998,7.82660628,-25.23307032
4.6,460,0.254,-0.036000000000000004,-1.032,-1.6042823999999998,-13.6936962,-4.1825934,-1.36364004,7.72920342,-25.27890696
4.61,461,0.254,-0.037000000000000005,-1.032,-4.0680017999999984,-10.4278356,-5.5576926,-1.41520626,7.62607098,-25.33620276
4.62,462,0.242,-0.034,-1.023,-6.302537999999998,-9.6256944,-6.4744254,-1.48396122,7.5286681200000025,-25.39922814
4.63,463,0.21600000000000005,-0.017,-1.001,-8.4224826,-10.5424272,-6.417129599999999,-1.5756344999999998,7.4198061,-25.46225352
4.64,464,0.193,0.014,-0.98,-9.1100322,-10.6570188,-5.7868758000000025,-1.6787669399999998,7.31094408,-25.51954932
4.6499999999999995,465,0.171,0.041,-0.972,-8.880849000000003,-11.172681,-5.6149884000000005,-1.78762896,7.20781164,-25.57684512
4.66,466,0.152,0.058,-0.976,-8.7089616,-12.318597,-5.7868758000000025,-1.87930224,7.0874904600000015,-25.63414092
4.67,467,0.136,0.062,-0.981,-8.7662574,-12.891555,-5.9014674000000005,-1.9767051,6.955710119999999,-25.69143672
4.68,468,0.121,0.06,-0.982,-8.9954406,-12.7196676,-5.958763200000001,-2.06837838,6.82392978,-25.74873252
4.6899999999999995,469,0.115,0.051,-0.985,-9.797581800000001,-11.172681,-5.9014674000000005,-2.1772404,6.7093381800000005,-25.80602832
4.7,470,0.111,0.063,-0.979,-10.0840608,-9.969469199999999,-5.2139178,-2.30329116,6.60620574,-25.85759454
4.71,471,0.104,0.08900000000000001,-0.957,-8.136003599999999,-9.3392154,-4.1252976000000015,-2.38923486,6.5088028799999975,-25.8977016
4.72,472,0.098,0.117,-0.926,-5.0993262,-9.5111028,-2.7501984,-2.44080108,6.417129600000001,-25.926349500000004
4.7299999999999995,473,0.08800000000000001,0.136,-0.903,-2.291832,-10.0840608,-1.4896908000000002,-2.46944898,6.31399716,-25.93780866
4.74,474,0.081,0.142,-0.901,1.145916,-10.3705398,-0.4583664000000001,-2.45226024,6.210864720000001,-25.94353824
4.75,475,0.067,0.127,-0.914,3.8388186,-9.6829902,0.22918320000000006,-2.46944898,6.09054354,-25.93780866
4.76,476,0.059,0.106,-0.942,5.2712136,-8.4224826,0.6302538000000001,-2.41215318,6.01032942,-25.93207908
4.77,477,0.049,0.08199999999999999,-0.982,5.844171599999999,-6.990087599999999,0.6875496,-2.3491277999999998,5.94157446,-25.926349500000004
4.78,478,0.064,0.051,-1.04,5.5003968,-5.042030400000002,0.4583664000000001,-2.2918320000000003,5.89000824,-25.92061992
4.79,479,0.08800000000000001,0.031,-1.073,2.9220857999999996,-4.5263682,0.057295800000000015,-2.2631841,5.849901179999999,-25.92061992
4.8,480,0.111,0.032,-1.061,0.4583664000000001,-6.302537999999998,-0.4010706,-2.26891368,5.7868758,-25.926349500000004
4.81,481,0.13,0.042,-1.021,0.22918320000000006,-7.5057497999999985,-0.9740286,-2.26891368,5.71239126,-25.93207908
4.82,482,0.138,0.062,-0.994,0.057295800000000015,-8.9954406,-2.1199446,-2.26891368,5.62071798,-25.954997400000003
4.83,483,0.13,0.059,-0.984,0.22918320000000006,-12.2040054,-3.2658606,-2.2631841,5.5003968,-25.9836453
4.84,484,0.121,0.045,-0.983,0.6302538000000001,-14.152062599999999,-3.724227,-2.25745452,5.3571573,-26.01802278000001
4.85,485,0.112,0.028,-0.986,0.4583664000000001,-14.896907999999998,-4.297185,-2.25745452,5.2139178,-26.06385942
4.86,486,0.106,0.02,-0.98,0.1718874,-13.6936962,-5.042030400000002,-2.25745452,5.07640788,-26.109696060000005
4.87,487,0.107,0.019,-0.977,0.11459160000000003,-10.255948199999999,-5.6149884000000005,-2.2631841,4.97327544,-26.166991860000003
4.88,488,0.114,0.028,-0.97,0.0,-6.016058999999999,-5.9014674000000005,-2.26891368,4.91025006,-26.22428766
4.89,489,0.123,0.033,-0.959,-0.6302538000000001,-4.1252976000000015,-5.844171599999999,-2.28037284,4.8701430000000006,-26.28158346
4.8999999999999995,490,0.125,0.03,-0.944,-0.572958,-3.2658606,-5.443101,-2.29756158,4.8701430000000006,-26.34460884
4.91,491,0.121,0.024,-0.947,-0.1718874,-2.6356068,-4.7555514,-2.30329116,4.8414950999999995,-26.39044548
4.92,492,0.115,0.024,-0.956,0.572958,-1.7761698,-4.1825934,-2.29756158,4.82430636,-26.43055254
4.93,493,0.106,0.019,-0.959,2.0053530000000004,0.0,-4.2398892,-2.28037284,4.81857678,-26.47638918
4.9399999999999995,494,0.1,0.014,-0.968,2.6356068,1.8907613999999997,-4.1825934,-2.2631841,4.8414950999999995,-26.51649624
4.95,495,0.102,0.008,-0.972,2.9793816000000004,2.86479,-3.9534102,-2.22307704,4.87587258,-26.5566033
4.96,496,0.105,0.001,-0.974,3.4377480000000005,2.6356068,-3.4950437999999995,-2.19442914,4.90452048,-26.59098078
4.97,497,0.103,-0.003,-0.972,3.8388186,2.1772404,-2.9220857999999996,-2.15432208,4.9274388,-26.62535826
4.9799999999999995,498,0.094,-0.003,-0.972,4.3544808,2.291832,-2.3491278,-2.11421502,4.95035712,-26.64827658
4.99,499,0.084,-0.001,-0.978,4.8128472,1.7188740000000002,-1.5469866,-2.06837838,4.96754586,-26.66546532
5.0,500,0.075,-0.001,-0.984,4.6409598,0.286479,-0.9740286,-1.99962342,4.93316838,-26.66546532
5.01,501,0.068,0.001,-0.99,4.2398892,-0.7448454000000001,-0.3437748,-1.95378678,4.9274388,-26.6711949
5.02,502,0.061,0.005,-1.0,3.8388186,-1.3178034,0.11459160000000003,-1.9194093000000003,4.91597964,-26.6711949
5.03,503,0.054000000000000006,0.009000000000000001,-1.009,3.2658606,-1.2032118,0.6302538000000001,-1.88503182,4.90452048,-26.66546532
5.04,504,0.049,0.017,-1.013,2.3491278,-0.8021411999999999,0.8594370000000001,-1.85638392,4.893061319999998,-26.65400616
5.05,505,0.046,0.023,-1.012,1.5469866,-0.22918320000000006,1.0886202,-1.87930224,4.7555514,-26.63108784
5.06,506,0.045,0.026,-1.009,0.9167328,0.286479,1.3178034,-1.86784308,4.76128098,-26.61962868
5.07,507,0.043,0.028,-1.006,0.22918320000000006,0.6875496,1.4896908000000002,-1.8621135,4.76701056,-26.60243994
5.08,508,0.045,0.029,-1.004,-0.1718874,1.0886202,1.6615782,-1.8621135,4.77846972,-26.5852512
5.09,509,0.053,0.028,-1.0,-0.4010706,1.7188740000000002,1.7761698,-1.86784308,4.79565846,-26.56806246
5.1,510,0.065,0.031,-0.998,-0.6875496,2.291832,1.7761698,-1.90222056,4.784199299999999,-26.54514414
5.11,511,0.079,0.033,-0.993,-0.8021411999999999,2.6356068,1.8907613999999997,-1.90795014,4.812847199999998,-26.527955400000003
5.12,512,0.09,0.039,-0.987,-0.8594370000000001,2.3491278,1.8334656000000005,-1.9194093000000003,4.83576552,-26.510766659999994
5.13,513,0.1,0.044,-0.98,-0.8021411999999999,2.0626488000000003,1.6615782,-1.92513888,4.858683839999999,-26.49357792
5.14,514,0.107,0.045,-0.973,-0.6302538000000001,1.8907613999999997,1.432395,-1.93086846,4.87587258,-26.47638918
5.1499999999999995,515,0.111,0.049,-0.972,0.0,1.8907613999999997,1.2605076000000002,-2.01681216,4.94462754,-26.48211876
5.16,516,0.115,0.052000000000000005,-0.972,0.4583664000000001,2.2345362,1.2032118,-2.01108258,4.96754586,-26.46493002
5.17,517,0.117,0.055,-0.974,0.9740286,2.6356068,1.0886202,-2.005353,4.99046418,-26.45347086
5.18,518,0.121,0.056,-0.976,1.5469866,3.151269,1.0886202,-1.98816426,5.02484166,-26.447741279999995
5.1899999999999995,519,0.126,0.055,-0.979,2.2345362,3.3804522000000006,0.9740286,-1.96524594,5.05921914,-26.43628212
5.2,520,0.133,0.051,-0.983,2.6356068,3.6096354,0.9167328,-1.9767051,5.13943326,-26.43628212
5.21,521,0.139,0.046,-0.986,2.9220857999999996,3.5523396000000003,0.6875496,-1.94232762,5.17381074,-26.43055254
5.22,522,0.14400000000000002,0.042,-0.993,3.0939732,2.9793816000000004,0.4583664000000001,-1.91367972,5.2024586400000015,-26.42482296
5.2299999999999995,523,0.14800000000000002,0.036000000000000004,-0.998,3.2085648,2.3491278,0.22918320000000006,-1.87930224,5.231106540000001,-26.41909338
5.24,524,0.149,0.027000000000000003,-1.0,3.0939732,1.7761698,0.1718874,-1.85065434,5.24829528,-26.41909338
5.25,525,0.14800000000000002,0.019,-1.002,2.8074942000000003,1.2605076000000002,0.1718874,-1.8334656000000003,5.3456981400000005,-26.43055254
5.26,526,0.14800000000000002,0.014,-1.003,2.4637194,0.8594370000000001,0.0,-1.81054728,5.35142772,-26.43055254
5.27,527,0.147,0.011,-0.998,2.0053530000000004,0.1718874,-0.1718874,-1.78762896,5.3571573,-26.43055254
5.28,528,0.146,0.01,-0.992,1.432395,-0.4583664000000001,-0.22918320000000006,-1.7761698,5.35142772,-26.43628212
5.29,529,0.141,0.011,-0.986,0.8021411999999999,-0.572958,-0.286479,-1.76471064,5.3456981400000005,-26.43628212
5.3,530,0.135,0.012,-0.983,0.4010706,-0.7448454000000001,-0.4583664000000001,-1.78762896,5.48893764,-26.46493002
5.31,531,0.132,0.015,-0.98,0.1718874,-0.9740286,-0.5156622000000001,-1.78189938,5.47747848,-26.4706596
5.32,532,0.128,0.016,-0.981,0.22918320000000006,-1.3750992,-0.5156622000000001,-1.78189938,5.466019319999999,-26.47638918
5.33,533,0.123,0.018000000000000002,-0.984,0.286479,-1.7761698,-0.6875496,-1.7761698,5.44883058,-26.48211876
5.34,534,0.119,0.018000000000000002,-0.986,0.22918320000000006,-2.1772404,-0.7448454000000001,-1.7761698,5.42591226,-26.48784834
5.35,535,0.113,0.016,-0.986,0.22918320000000006,-2.5210152000000003,-0.6875496,-1.78762896,5.414453099999999,-26.4993075
5.36,536,0.105,0.016,-0.989,0.4583664000000001,-2.7501984,-0.5156622000000001,-1.78762896,5.385805199999999,-26.50503708
5.37,537,0.099,0.019,-0.99,0.572958,-2.6929026,-0.5156622000000001,-1.78189938,5.3628868800000005,-26.510766659999994
5.38,538,0.094,0.022,-0.989,0.8021411999999999,-2.2345362,-0.4583664000000001,-1.77044022,5.339968560000001,-26.51649624
5.39,539,0.093,0.022,-0.986,0.6302538000000001,-1.6042823999999998,-0.3437748,-1.76471064,5.32277982,-26.51649624
5.3999999999999995,540,0.093,0.023,-0.986,0.286479,-1.6042823999999998,-0.22918320000000006,-1.81054728,5.2826727600000005,-26.52222582
5.41,541,0.093,0.023,-0.984,0.1718874,-1.8907613999999997,-0.1718874,-1.8048176999999999,5.2654840200000015,-26.527955400000003
5.42,542,0.08900000000000001,0.026,-0.983,0.3437748,-1.8334656000000005,-0.1718874,-1.8048176999999999,5.2425657,-26.527955400000003
5.43,543,0.08800000000000001,0.026,-0.981,0.6302538000000001,-1.145916,-0.057295800000000015,-1.7933585399999998,5.231106540000001,-26.527955400000003
5.4399999999999995,544,0.08800000000000001,0.023,-0.977,0.6875496,-0.7448454000000001,0.11459160000000003,-1.78762896,5.22537696,-26.527955400000003
5.45,545,0.08900000000000001,0.019,-0.975,0.4010706,-0.6302538000000001,0.286479,-1.82773602,5.1852699,-26.52222582
5.46,546,0.093,0.019,-0.977,0.4010706,-0.6302538000000001,0.6875496,-1.82200644,5.17954032,-26.51649624
5.47,547,0.097,0.021,-0.981,0.3437748,-0.572958,0.6875496,-1.81627686,5.17381074,-26.510766659999994
5.4799999999999995,548,0.101,0.025,-0.983,0.4583664000000001,-0.22918320000000006,0.6875496,-1.81054728,5.17381074,-26.50503708
5.49,549,0.104,0.027000000000000003,-0.988,0.572958,0.22918320000000006,0.6875496,-1.8048176999999999,5.17381074,-26.49357792
5.5,550,0.104,0.026,-0.993,0.8021411999999999,0.22918320000000006,0.7448454000000001,-1.84492476,5.19099948,-26.49357792
5.51,551,0.103,0.023,-0.996,0.8594370000000001,0.11459160000000003,0.6875496,-1.83919518,5.19672906,-26.48784834
5.52,552,0.102,0.022,-0.995,0.9167328,0.0,0.572958,-1.82773602,5.19672906,-26.48211876
5.53,553,0.101,0.021,-0.992,0.8594370000000001,0.057295800000000015,0.6302538000000001,-1.81627686,5.19672906,-26.47638918
5.54,554,0.101,0.022,-0.987,0.9167328,0.0,0.6302538000000001,-1.8048176999999999,5.19672906,-26.46493002
5.55,555,0.099,0.025,-0.985,0.9167328,0.0,0.572958,-1.8621135,5.2024586400000015,-26.4706596
5.56,556,0.102,0.027000000000000003,-0.982,0.9740286,0.0,0.4583664000000001,-1.85065434,5.20818822,-26.46493002
5.57,557,0.107,0.027000000000000003,-0.983,0.9167328,0.0,0.4010706,-1.83919518,5.20818822,-26.45920044
5.58,558,0.112,0.027000000000000003,-0.983,0.8594370000000001,-0.1718874,0.4010706,-1.82773602,5.2024586400000015,-26.45347086
5.59,559,0.117,0.026,-0.984,0.9167328,-0.057295800000000015,0.4010706,-1.81627686,5.2024586400000015,-26.45347086
5.6,560,0.122,0.024,-0.987,1.145916,-0.057295800000000015,0.4010706,-1.8621135,5.29413192,-26.45920044
5.61,561,0.124,0.023,-0.985,1.0313244,0.0,0.4010706,-1.85065434,5.29413192,-26.45920044
5.62,562,0.125,0.019,-0.984,0.8021411999999999,-0.22918320000000006,0.4010706,-1.83919518,5.29413192,-26.45347086
5.63,563,0.123,0.018000000000000002,-0.984,0.7448454000000001,-0.5156622000000001,0.3437748,-1.8334656000000003,5.28840234,-26.447741279999995
5.64,564,0.12,0.016,-0.982,0.7448454000000001,-0.8594370000000001,0.286479,-1.82200644,5.27694318,-26.447741279999995
5.6499999999999995,565,0.118,0.018000000000000002,-0.982,0.9167328,-0.8594370000000001,0.22918320000000006,-1.8334656000000003,5.32277982,-26.45347086
5.66,566,0.117,0.017,-0.984,0.7448454000000001,-0.8594370000000001,0.057295800000000015,-1.82773602,5.31705024,-26.45347086
5.67,567,0.114,0.017,-0.986,0.8021411999999999,-1.0886202,0.0,-1.81627686,5.30559108,-26.45347086
5.68,568,0.113,0.017,-0.987,0.8021411999999999,-1.2032118,0.0,-1.81054728,5.29413192,-26.45347086
5.6899999999999995,569,0.111,0.016,-0.986,0.7448454000000001,-1.2032118,0.0,-1.8048176999999999,5.27694318,-26.45347086
5.7,570,0.109,0.014,-0.985,0.7448454000000001,-1.145916,0.0,-1.81054728,5.2998615,-26.45347086
5.71,571,0.107,0.012,-0.983,0.6302538000000001,-1.0886202,0.0,-1.79908812,5.28840234,-26.45347086
5.72,572,0.107,0.013,-0.983,0.5156622000000001,-0.8594370000000001,0.0,-1.7933585399999998,5.2826727600000005,-26.45920044
5.7299999999999995,573,0.11,0.015,-0.985,0.5156622000000001,-0.8021411999999999,0.057295800000000015,-1.78762896,5.2712136,-26.45347086
5.74,574,0.11,0.016,-0.986,0.572958,-0.9740286,0.057295800000000015,-1.78189938,5.2654840200000015,-26.45347086
5.75,575,0.108,0.017,-0.987,0.572958,-1.0313244,0.057295800000000015,-1.8048176999999999,5.27694318,-26.45920044
5.76,576,0.104,0.017,-0.987,0.7448454000000001,-1.0886202,0.0,-1.79908812,5.2712136,-26.45920044
5.77,577,0.103,0.015,-0.986,0.7448454000000001,-1.0313244,0.0,-1.7933585399999998,5.25975444,-26.45920044
5.78,578,0.102,0.015,-0.985,0.6302538000000001,-0.9167328,0.0,-1.78189938,5.24829528,-26.45920044
5.79,579,0.102,0.017,-0.986,0.6875496,-0.9167328,0.1718874,-1.7761698,5.2425657,-26.45920044
5.8,580,0.102,0.02,-0.985,0.6875496,-0.8594370000000001,0.22918320000000006,-1.81054728,5.2425657,-26.45920044
5.81,581,0.102,0.022,-0.985,0.6875496,-0.8021411999999999,0.22918320000000006,-1.79908812,5.231106540000001,-26.45920044
5.82,582,0.1,0.02,-0.986,0.8021411999999999,-0.8021411999999999,0.22918320000000006,-1.7933585399999998,5.22537696,-26.45347086
5.83,583,0.101,0.02,-0.986,0.6875496,-0.7448454000000001,0.286479,-1.78762896,5.21964738,-26.45347086
5.84,584,0.104,0.02,-0.984,0.6302538000000001,-0.6302538000000001,0.3437748,-1.7761698,5.20818822,-26.447741279999995
5.85,585,0.102,0.022,-0.985,0.5156622000000001,-0.572958,0.572958,-1.79908812,5.20818822,-26.447741279999995
5.86,586,0.1,0.017,-0.984,0.7448454000000001,-0.4583664000000001,0.5156622000000001,-1.7933585399999998,5.20818822,-26.4420117
5.87,587,0.1,0.014,-0.982,0.5156622000000001,-0.5156622000000001,0.4010706,-1.78762896,5.2024586400000015,-26.43628212
5.88,588,0.104,0.015,-0.982,0.286479,-0.4010706,0.286479,-1.78189938,5.19672906,-26.43055254
5.89,589,0.105,0.019,-0.986,0.3437748,-0.22918320000000006,0.22918320000000006,-1.7761698,5.19672906,-26.43055254
5.8999999999999995,590,0.108,0.021,-0.988,0.572958,-0.286479,0.1718874,-1.82773602,5.2425657,-26.43628212
5.91,591,0.11,0.019,-0.99,0.6302538000000001,-0.22918320000000006,0.1718874,-1.81627686,5.23683612,-26.43628212
5.92,592,0.109,0.016,-0.99,0.7448454000000001,-0.22918320000000006,0.3437748,-1.81054728,5.23683612,-26.43055254
5.93,593,0.106,0.015,-0.985,0.572958,-0.3437748,0.22918320000000006,-1.8048176999999999,5.231106540000001,-26.43055254
5.9399999999999995,594,0.105,0.015,-0.983,0.4010706,-0.4010706,0.1718874,-1.79908812,5.231106540000001,-26.42482296
5.95,595,0.107,0.014,-0.983,0.0,-0.11459160000000003,0.0,-1.85065434,5.311320660000002,-26.4420117
5.96,596,0.107,0.016,-0.983,-0.4010706,0.0,-0.057295800000000015,-1.85638392,5.311320660000002,-26.4420117
5.97,597,0.107,0.017,-0.983,-0.286479,0.0,-0.1718874,-1.85638392,5.311320660000002,-26.4420117
5.9799999999999995,598,0.107,0.02,-0.983,0.0,0.4010706,-0.286479,-1.85638392,5.31705024,-26.447741279999995
5.99,599,0.11,0.019,-0.982,0.1718874,0.7448454000000001,-0.3437748,-1.85638392,5.32277982,-26.447741279999995
6.0,600,0.117,0.015,-0.979,0.22918320000000006,0.9167328,-0.22918320000000006,-1.8621135,5.42018268,-26.45920044
6.01,601,0.121,0.009000000000000001,-0.978,-0.057295800000000015,0.7448454000000001,0.0,-1.8621135,5.42591226,-26.45920044
6.02,602,0.124,0.006999999999999999,-0.981,-0.3437748,0.1718874,0.0,-1.86784308,5.4316418399999975,-26.45920044
6.03,603,0.123,0.008,-0.984,-0.5156622000000001,-0.11459160000000003,0.0,-1.86784308,5.42591226,-26.45920044
6.04,604,0.118,0.012,-0.988,-0.286479,-0.4583664000000001,-0.057295800000000015,-1.87357266,5.42018268,-26.46493002
6.05,605,0.112,0.014,-0.989,0.057295800000000015,-0.6875496,-0.11459160000000003,-1.87930224,5.443101,-26.46493002
6.06,606,0.103,0.012,-0.995,0.3437748,-0.8594370000000001,-0.286479,-1.87930224,5.4316418399999975,-26.4706596
6.07,607,0.099,0.013,-0.996,0.5156622000000001,-0.8594370000000001,-0.3437748,-1.87357266,5.42591226,-26.47638918
6.08,608,0.097,0.014,-0.996,0.3437748,-0.7448454000000001,-0.3437748,-1.86784308,5.42018268,-26.47638918
6.09,609,0.097,0.015,-0.992,0.286479,-0.5156622000000001,-0.22918320000000006,-1.86784308,5.414453099999999,-26.48211876
6.1,610,0.098,0.017,-0.988,0.22918320000000006,-0.4583664000000001,-0.1718874,-1.89649098,5.39153478,-26.48784834
6.11,611,0.101,0.019,-0.986,0.286479,-0.4010706,-0.11459160000000003,-1.89649098,5.385805199999999,-26.48784834
6.12,612,0.102,0.019,-0.983,0.286479,-0.572958,-0.057295800000000015,-1.8907613999999997,5.38007562,-26.48784834
6.13,613,0.105,0.016,-0.981,0.1718874,-0.572958,0.0,-1.8907613999999997,5.37434604,-26.48784834
6.14,614,0.106,0.016,-0.981,0.0,-0.572958,0.11459160000000003,-1.8907613999999997,5.36861646,-26.48784834
6.15,615,0.104,0.014,-0.982,0.0,-0.4010706,0.1718874,-1.90222056,5.385805199999999,-26.48784834
6.16,616,0.1,0.014,-0.982,-0.1718874,-0.286479,0.0,-1.90795014,5.38007562,-26.48784834
6.17,617,0.098,0.015,-0.982,-0.057295800000000015,-0.1718874,-0.057295800000000015,-1.90795014,5.38007562,-26.48784834
6.18,618,0.098,0.015,-0.986,0.0,-0.057295800000000015,-0.057295800000000015,-1.90795014,5.38007562,-26.48784834
6.1899999999999995,619,0.098,0.017,-0.986,0.11459160000000003,-0.057295800000000015,-0.1718874,-1.90222056,5.37434604,-26.49357792
6.2,620,0.097,0.014,-0.986,0.22918320000000006,-0.22918320000000006,-0.11459160000000003,-1.91367972,5.31705024,-26.48784834
6.21,621,0.098,0.013,-0.986,0.11459160000000003,0.0,-0.11459160000000003,-1.91367972,5.31705024,-26.48784834
6.22,622,0.097,0.011,-0.985,-0.1718874,0.1718874,-0.057295800000000015,-1.91367972,5.31705024,-26.49357792
6.2299999999999995,623,0.098,0.011,-0.985,-0.3437748,0.286479,-0.057295800000000015,-1.9194093000000003,5.32277982,-26.49357792
6.24,624,0.1,0.011,-0.983,-0.286479,0.1718874,-0.057295800000000015,-1.9194093000000003,5.32277982,-26.49357792
6.25,625,0.1,0.008,-0.98,-0.22918320000000006,0.11459160000000003,-0.11459160000000003,-1.90222056,5.3285094000000015,-26.49357792
6.26,626,0.098,0.006999999999999999,-0.979,-0.286479,0.11459160000000003,-0.1718874,-1.90795014,5.33423898,-26.49357792
6.27,627,0.097,0.006,-0.978,-0.5156622000000001,0.057295800000000015,-0.1718874,-1.91367972,5.33423898,-26.4993075
6.28,628,0.098,0.009000000000000001,-0.978,-0.6302538000000001,0.1718874,-0.22918320000000006,-1.9194093000000003,5.33423898,-26.4993075
6.29,629,0.102,0.012,-0.98,-0.4010706,0.4010706,-0.1718874,-1.92513888,5.339968560000001,-26.4993075
6.3,630,0.106,0.014,-0.981,-0.057295800000000015,0.286479,-0.11459160000000003,-1.93086846,5.38007562,-26.50503708
6.31,631,0.107,0.012,-0.98,-0.057295800000000015,0.286479,-0.057295800000000015,-1.93659804,5.385805199999999,-26.510766659999994
6.32,632,0.109,0.01,-0.981,-0.11459160000000003,0.11459160000000003,-0.11459160000000003,-1.93659804,5.385805199999999,-26.510766659999994
6.33,633,0.109,0.009000000000000001,-0.982,-0.22918320000000006,0.11459160000000003,0.0,-1.93659804,5.385805199999999,-26.510766659999994
6.34,634,0.107,0.009000000000000001,-0.983,-0.286479,0.0,0.0,-1.94232762,5.385805199999999,-26.510766659999994
6.35,635,0.107,0.009000000000000001,-0.982,-0.286479,-0.057295800000000015,0.0,-1.92513888,5.42591226,-26.510766659999994
6.36,636,0.105,0.01,-0.984,-0.3437748,-0.11459160000000003,0.0,-1.93086846,5.42591226,-26.510766659999994
6.37,637,0.104,0.01,-0.985,-0.3437748,-0.1718874,-0.057295800000000015,-1.93086846,5.42018268,-26.510766659999994
6.38,638,0.104,0.01,-0.985,-0.4583664000000001,-0.22918320000000006,-0.1718874,-1.93659804,5.42018268,-26.510766659999994
6.39,639,0.104,0.01,-0.986,-0.5156622000000001,-0.22918320000000006,-0.22918320000000006,-1.94232762,5.42018268,-26.51649624
6.4,640,0.104,0.01,-0.986,-0.6302538000000001,-0.3437748,-0.22918320000000006,-1.9480572000000005,5.42018268,-26.51649624
6.41,641,0.104,0.011,-0.988,-0.6302538000000001,-0.5156622000000001,-0.286479,-1.95378678,5.414453099999999,-26.52222582
6.42,642,0.104,0.013,-0.987,-0.572958,-0.6302538000000001,-0.22918320000000006,-1.9595163600000003,5.40872352,-26.52222582
6.43,643,0.102,0.015,-0.987,-0.5156622000000001,-0.4583664000000001,-0.286479,-1.96524594,5.40299394,-26.527955400000003
6.4399999999999995,644,0.102,0.015,-0.987,-0.572958,-0.286479,-0.286479,-1.97097552,5.397264359999999,-26.527955400000003
6.45,645,0.101,0.015,-0.985,-0.5156622000000001,-0.1718874,-0.4010706,-1.98243468,5.39153478,-26.533684980000004
6.46,646,0.099,0.015,-0.985,-0.5156622000000001,-0.11459160000000003,-0.5156622000000001,-1.98816426,5.39153478,-26.53941456
6.47,647,0.098,0.014,-0.984,-0.3437748,-0.11459160000000003,-0.5156622000000001,-1.99389384,5.385805199999999,-26.54514414
6.4799999999999995,648,0.099,0.015,-0.983,-0.1718874,0.0,-0.572958,-1.99389384,5.385805199999999,-26.55087372000001
6.49,649,0.1,0.015,-0.983,-0.1718874,0.1718874,-0.5156622000000001,-1.99962342,5.39153478,-26.5566033
6.5,650,0.101,0.014,-0.984,-0.057295800000000015,0.286479,-0.4010706,-1.99389384,5.397264359999999,-26.562332880000003
6.51,651,0.101,0.013,-0.987,0.0,0.057295800000000015,-0.286479,-1.99389384,5.397264359999999,-26.562332880000003
6.52,652,0.1,0.014,-0.985,0.057295800000000015,0.057295800000000015,-0.22918320000000006,-1.99389384,5.397264359999999,-26.56806246
6.53,653,0.1,0.013,-0.985,0.0,0.3437748,-0.11459160000000003,-1.99389384,5.397264359999999,-26.56806246
6.54,654,0.1,0.012,-0.985,-0.057295800000000015,0.286479,-0.1718874,-1.99389384,5.40299394,-26.56806246
6.55,655,0.099,0.01,-0.985,-0.3437748,-0.057295800000000015,-0.057295800000000015,-1.98243468,5.385805199999999,-26.56806246
6.56,656,0.1,0.009000000000000001,-0.986,-0.4583664000000001,-0.11459160000000003,-0.11459160000000003,-1.98816426,5.385805199999999,-26.56806246
6.57,657,0.099,0.008,-0.986,-0.5156622000000001,0.057295800000000015,-0.11459160000000003,-1.98816426,5.385805199999999,-26.56806246
6.58,658,0.099,0.009000000000000001,-0.985,-0.3437748,0.22918320000000006,-0.057295800000000015,-1.99389384,5.39153478,-26.57379204
6.59,659,0.1,0.006,-0.981,-0.4583664000000001,0.3437748,-0.057295800000000015,-1.99962342,5.39153478,-26.57379204
6.6,660,0.102,0.004,-0.98,-0.8021411999999999,0.3437748,-0.057295800000000015,-1.98816426,5.40299394,-26.57379204
6.61,661,0.104,0.004,-0.982,-0.9167328,0.057295800000000015,0.0,-1.99962342,5.40299394,-26.57379204
6.62,662,0.106,0.008,-0.987,-0.8021411999999999,-0.22918320000000006,-0.057295800000000015,-2.005353,5.40299394,-26.57379204
6.63,663,0.107,0.012,-0.988,-0.5156622000000001,-0.057295800000000015,0.0,-2.01108258,5.40299394,-26.57379204
6.64,664,0.105,0.011,-0.991,-0.286479,-0.22918320000000006,-0.057295800000000015,-2.01681216,5.397264359999999,-26.57379204
6.65,665,0.105,0.01,-0.993,-0.22918320000000006,-0.286479,0.0,-1.99389384,5.40872352,-26.57379204
6.66,666,0.104,0.009000000000000001,-0.993,-0.1718874,-0.11459160000000003,0.0,-1.99962342,5.40872352,-26.57379204
6.67,667,0.104,0.01,-0.991,-0.3437748,0.0,0.1718874,-1.99962342,5.40872352,-26.56806246
6.68,668,0.103,0.011,-0.987,-0.4583664000000001,-0.057295800000000015,0.22918320000000006,-2.005353,5.40872352,-26.56806246
6.6899999999999995,669,0.101,0.016,-0.986,-0.5156622000000001,-0.11459160000000003,0.22918320000000006,-2.01108258,5.40872352,-26.562332880000003
6.7,670,0.098,0.019,-0.984,-0.4010706,-0.4010706,0.11459160000000003,-2.0340008999999997,5.385805199999999,-26.562332880000003
6.71,671,0.096,0.02,-0.983,-0.1718874,-0.4010706,0.0,-2.03973048,5.38007562,-26.562332880000003
6.72,672,0.095,0.02,-0.985,0.0,-0.4010706,0.0,-2.03973048,5.38007562,-26.562332880000003
6.7299999999999995,673,0.094,0.019,-0.985,0.1718874,-0.11459160000000003,0.057295800000000015,-2.0340008999999997,5.37434604,-26.562332880000003
6.74,674,0.094,0.02,-0.986,0.1718874,0.057295800000000015,0.057295800000000015,-2.0340008999999997,5.37434604,-26.562332880000003
6.75,675,0.095,0.018000000000000002,-0.988,0.286479,0.057295800000000015,0.057295800000000015,-2.05118964,5.3456981400000005,-26.562332880000003
6.76,676,0.095,0.016,-0.989,0.286479,0.057295800000000015,0.0,-2.04546006,5.3456981400000005,-26.562332880000003
6.77,677,0.096,0.016,-0.988,0.286479,0.1718874,0.0,-2.04546006,5.3456981400000005,-26.562332880000003
6.78,678,0.097,0.015,-0.99,0.286479,0.4010706,0.0,-2.03973048,5.35142772,-26.562332880000003
6.79,679,0.098,0.014,-0.988,0.4010706,0.286479,0.11459160000000003,-2.0340008999999997,5.3571573,-26.562332880000003
6.8,680,0.098,0.011,-0.987,0.3437748,0.057295800000000015,0.1718874,-2.01108258,5.339968560000001,-26.5566033
6.81,681,0.098,0.009000000000000001,-0.986,0.11459160000000003,0.11459160000000003,0.22918320000000006,-2.01108258,5.339968560000001,-26.5566033
6.82,682,0.097,0.009000000000000001,-0.987,-0.057295800000000015,0.11459160000000003,0.286479,-2.01108258,5.3456981400000005,-26.55087372000001
6.83,683,0.098,0.012,-0.988,-0.057295800000000015,0.0,0.22918320000000006,-2.01108258,5.3456981400000005,-26.54514414
6.84,684,0.098,0.012,-0.988,0.0,0.11459160000000003,0.11459160000000003,-2.01108258,5.3456981400000005,-26.54514414
6.85,685,0.099,0.011,-0.989,0.11459160000000003,0.1718874,0.1718874,-1.98243468,5.3285094000000015,-26.53941456
6.86,686,0.098,0.008,-0.987,0.1718874,0.1718874,0.1718874,-1.9767051,5.3285094000000015,-26.53941456
6.87,687,0.096,0.006999999999999999,-0.986,0.0,0.11459160000000003,0.11459160000000003,-1.9767051,5.33423898,-26.533684980000004
6.88,688,0.097,0.009000000000000001,-0.984,-0.057295800000000015,0.11459160000000003,0.1718874,-1.9767051,5.33423898,-26.533684980000004
6.89,689,0.097,0.012,-0.984,-0.11459160000000003,0.1718874,0.057295800000000015,-1.98243468,5.33423898,-26.533684980000004
6.9,690,0.097,0.013,-0.985,-0.1718874,0.3437748,0.11459160000000003,-1.98816426,5.32277982,-26.533684980000004
6.91,691,0.097,0.015,-0.986,0.0,0.3437748,0.11459160000000003,-1.98816426,5.3285094000000015,-26.527955400000003
6.92,692,0.097,0.013,-0.986,0.1718874,0.3437748,0.057295800000000015,-1.98243468,5.33423898,-26.527955400000003
6.93,693,0.099,0.012,-0.986,0.22918320000000006,0.5156622000000001,0.0,-1.98243468,5.339968560000001,-26.527955400000003
6.9399999999999995,694,0.1,0.011,-0.986,0.286479,0.4583664000000001,0.0,-1.9767051,5.3456981400000005,-26.527955400000003
6.95,695,0.1,0.011,-0.986,0.3437748,0.3437748,0.11459160000000003,-1.96524594,5.3456981400000005,-26.527955400000003
6.96,696,0.099,0.011,-0.987,0.3437748,0.22918320000000006,0.1718874,-1.96524594,5.35142772,-26.527955400000003
6.97,697,0.099,0.012,-0.986,0.4010706,0.11459160000000003,0.22918320000000006,-1.9595163600000003,5.35142772,-26.52222582
6.9799999999999995,698,0.099,0.013,-0.984,0.286479,0.4010706,0.1718874,-1.95378678,5.3571573,-26.52222582
6.99,699,0.099,0.014,-0.986,0.11459160000000003,0.5156622000000001,0.1718874,-1.95378678,5.3628868800000005,-26.51649624
7.0,700,0.097,0.014,-0.988,0.22918320000000006,0.4583664000000001,0.286479,-1.9595163600000003,5.3571573,-26.51649624
7.01,701,0.097,0.016,-0.987,0.22918320000000006,0.4010706,0.1718874,-1.95378678,5.3571573,-26.51649624
7.02,702,0.098,0.016,-0.987,0.1718874,0.5156622000000001,0.11459160000000003,-1.95378678,5.3628868800000005,-26.510766659999994
7.03,703,0.099,0.017,-0.987,0.1718874,0.4010706,0.1718874,-1.9480572000000005,5.36861646,-26.510766659999994
7.04,704,0.1,0.014,-0.988,0.057295800000000015,0.11459160000000003,0.11459160000000003,-1.9480572000000005,5.36861646,-26.510766659999994
7.05,705,0.101,0.013,-0.988,0.0,0.057295800000000015,0.057295800000000015,-1.94232762,5.3571573,-26.50503708
7.06,706,0.099,0.012,-0.986,0.0,0.0,0.057295800000000015,-1.94232762,5.3571573,-26.50503708
7.07,707,0.097,0.013,-0.986,-0.11459160000000003,0.0,0.0,-1.94232762,5.3571573,-26.50503708
7.08,708,0.095,0.013,-0.987,-0.057295800000000015,0.0,-0.11459160000000003,-1.94232762,5.3571573,-26.50503708
7.09,709,0.094,0.014,-0.987,0.057295800000000015,-0.057295800000000015,-0.057295800000000015,-1.94232762,5.3571573,-26.510766659999994
7.1,710,0.096,0.013,-0.989,0.11459160000000003,0.0,-0.11459160000000003,-1.94232762,5.32277982,-26.50503708
7.11,711,0.097,0.013,-0.988,0.0,0.4583664000000001,-0.057295800000000015,-1.94232762,5.3285094000000015,-26.510766659999994
7.12,712,0.1,0.012,-0.991,0.057295800000000015,0.4583664000000001,0.0,-1.94232762,5.33423898,-26.510766659999994
7.13,713,0.1,0.013,-0.99,0.11459160000000003,0.3437748,0.0,-1.94232762,5.33423898,-26.510766659999994
7.14,714,0.102,0.012,-0.99,0.1718874,0.0,0.0,-1.93659804,5.33423898,-26.510766659999994
7.15,715,0.102,0.013,-0.988,0.11459160000000003,-0.057295800000000015,0.0,-1.92513888,5.35142772,-26.510766659999994
7.16,716,0.1,0.012,-0.988,0.22918320000000006,-0.1718874,0.057295800000000015,-1.92513888,5.3456981400000005,-26.510766659999994
7.17,717,0.099,0.013,-0.986,0.11459160000000003,-0.5156622000000001,0.0,-1.92513888,5.3456981400000005,-26.510766659999994
7.18,718,0.097,0.013,-0.987,0.0,-0.572958,0.0,-1.92513888,5.339968560000001,-26.510766659999994
7.1899999999999995,719,0.095,0.014,-0.987,0.0,-0.3437748,0.0,-1.92513888,5.33423898,-26.510766659999994
7.2,720,0.095,0.013,-0.986,-0.057295800000000015,0.0,-0.11459160000000003,-1.93086846,5.30559108,-26.510766659999994
7.21,721,0.097,0.01,-0.984,-0.22918320000000006,0.11459160000000003,-0.057295800000000015,-1.93086846,5.30559108,-26.510766659999994
7.22,722,0.1,0.008,-0.979,-0.5156622000000001,0.11459160000000003,0.0,-1.93659804,5.30559108,-26.510766659999994
7.2299999999999995,723,0.102,0.006,-0.981,-0.572958,0.0,-0.057295800000000015,-1.94232762,5.30559108,-26.510766659999994
7.24,724,0.104,0.009000000000000001,-0.983,-0.5156622000000001,-0.22918320000000006,0.0,-1.9480572000000005,5.30559108,-26.510766659999994
7.25,725,0.102,0.013,-0.984,-0.4010706,-0.572958,0.0,-1.95378678,5.2998615,-26.510766659999994
7.26,726,0.098,0.014,-0.989,-0.3437748,-0.4010706,-0.057295800000000015,-1.9595163600000003,5.2998615,-26.510766659999994
7.27,727,0.097,0.013,-0.991,-0.1718874,-0.1718874,0.0,-1.9595163600000003,5.29413192,-26.510766659999994
7.28,728,0.098,0.012,-0.991,-0.11459160000000003,0.0,0.0,-1.96524594,5.29413192,-26.510766659999994
