TimeStamp(s),FrameCounter,AccX,AccY,AccZ,GyrX,GyrY,GyrZ,EulerX,EulerY,EulerZ
0.01,1,-0.026,-1.003,-0.025,-4.297185,2.6356068,1.6615782,89.85127356000002,-0.36096354,-63.93065363999999
0.02,2,-0.033,-1.001,-0.043,-5.5003968,3.8961144,2.1772404,89.79397776,-0.38388186,-63.89054658
0.03,3,-0.034,-1.003,-0.046,-5.042030400000002,4.6409598,2.7501984,89.74241154,-0.41252976,-63.84470994000001
0.04,4,-0.033,-1.012,-0.051,-4.583664,5.0993262,3.4377480000000005,89.69084532,-0.4526368200000001,-63.79314372
0.05,5,-0.031,-1.015,-0.059,-4.8701430000000006,5.2139178,4.1825934,89.62781994000002,-0.4984734599999999,-63.74730708
0.060000000000000005,6,-0.028,-1.012,-0.067,-5.443101,4.6982556,4.6982556,89.57052414,-0.5443101,-63.70147044
0.06999999999999999,7,-0.024,-1.004,-0.075,-5.958763200000001,3.5523396000000003,4.8701430000000006,89.50749876,-0.59587632,-63.66709296000001
0.08,8,-0.023,-1.001,-0.077,-6.2452422,2.1772404,4.8701430000000006,89.44447338,-0.64744254,-63.64417464
0.09,9,-0.026,-0.999,-0.073,-6.6463128000000005,1.3750992,4.4690724,89.37571842,-0.69327918,-63.6269859
0.09999999999999999,10,-0.031,-0.995,-0.067,-7.3911582,0.572958,3.8388186,89.27831556,-0.73338624,-63.6269859
0.11,11,-0.039,-0.991,-0.063,-7.906820400000001,-1.2605076000000002,3.0939732,89.19810143999999,-0.76776372,-63.63844506
0.12,12,-0.05,-0.987,-0.057,-8.250595200000001,-3.4950437999999995,2.4637194,89.11788732,-0.7906820400000001,-63.67282253999999
0.13,13,-0.063,-0.986,-0.054000000000000006,-8.8235532,-5.3858052,1.8334656000000005,89.02621404,-0.8078707799999998,-63.73011834
0.14,14,-0.073,-0.987,-0.052000000000000005,-9.6829902,-6.589017,0.9740286,88.93454076,-0.8193299399999999,-63.79314372
0.15000000000000002,15,-0.079,-0.986,-0.051,-10.1413566,-6.703608600000001,0.1718874,88.81994916,-0.83651868,-63.86762826
0.16,16,-0.079,-0.985,-0.051,-10.7143146,-5.7868758000000025,-0.4583664000000001,88.71108714,-0.8307891,-63.92492406
0.17,17,-0.079,-0.983,-0.044,-10.8289062,-4.9274388,-0.7448454000000001,88.60222512,-0.8250595199999999,-63.97649028000001
0.18000000000000002,18,-0.077,-0.988,-0.035,-10.599723,-4.7555514,-0.572958,88.49909268,-0.8193299399999999,-64.02232692
0.19,19,-0.069,-0.999,-0.029,-10.6570188,-5.9014674000000005,-0.4010706,88.39023066,-0.8136003599999999,-64.0853523
0.2,20,-0.066,-1.021,-0.017,-11.0580894,-6.5317212,-0.1718874,88.28136864,-0.8250595199999999,-64.15410726
0.21000000000000002,21,-0.071,-1.044,-0.013,-11.8602306,-6.760904399999999,0.286479,88.16104745999998,-0.8307891,-64.22286222
0.22,22,-0.073,-1.065,-0.018000000000000002,-13.2353298,-6.6463128000000005,1.0313244,88.02926712000001,-0.8422482600000001,-64.28588760000001
0.23,23,-0.07,-1.079,-0.028,-14.381245800000002,-6.5317212,2.2345362,87.88029803999999,-0.86516658,-64.35464255999999
0.24000000000000002,24,-0.064,-1.081,-0.042,-14.896907999999998,-6.589017,3.5523396000000003,87.73132896,-0.89954406,-64.41766794
0.25,25,-0.055,-1.0759999999999998,-0.048,-14.8396122,-7.5057497999999985,5.2139178,87.58235988,-0.95683986,-64.49215248
0.26,26,-0.045,-1.065,-0.044,-15.2979786,-8.479778399999999,6.5317212,87.42766122,-1.0255948199999998,-64.57809618
0.27,27,-0.033,-1.052,-0.049,-15.985528200000001,-9.3965112,7.8495246,87.26723297999996,-1.11153852,-64.66976946000001
0.28,28,-0.029,-1.037,-0.06,-15.985528200000001,-10.5424272,8.651665800000002,87.11253432000002,-1.19748222,-64.7729019
0.29000000000000004,29,-0.029,-1.029,-0.065,-15.0114996,-12.891555,9.3965112,86.96356524000002,-1.29488508,-64.89895265999999
0.3,30,-0.03,-1.03,-0.064,-14.610429000000002,-14.610429000000002,10.255948199999999,86.82032574,-1.4037471,-65.03646258
0.31,31,-0.034,-1.028,-0.057,-14.2093584,-15.126091199999998,11.3445684,86.67708624000002,-1.52406828,-65.18543166
0.32,32,-0.038,-1.023,-0.055,-13.8082878,-15.469866,12.4331886,86.5453059,-1.65011904,-65.32867116
0.33,33,-0.047,-1.012,-0.057,-13.9228794,-15.5844576,13.120738199999998,86.41352556000002,-1.78762896,-65.47764024
0.34,34,-0.059,-0.998,-0.057,-14.32395,-15.3552744,13.407217200000002,86.27028606,-1.92513888,-65.62660932
0.35000000000000003,35,-0.069,-0.99,-0.05,-14.495837400000001,-14.5531332,13.9228794,86.13277614,-2.07410796,-65.76411924
0.36000000000000004,36,-0.076,-0.983,-0.039,-13.9228794,-13.2926256,14.4385416,85.99526621999998,-2.22880662,-65.88444042
0.37,37,-0.07400000000000001,-0.974,-0.04,-13.464512999999998,-13.464512999999998,14.667724800000002,85.86921545999998,-2.3777757,-66.01049118
0.38,38,-0.063,-0.964,-0.048,-13.464512999999998,-14.2093584,14.4385416,85.73743512,-2.52674478,-66.14227152
0.39,39,-0.043,-0.958,-0.058,-13.8655836,-15.6417534,13.521808800000002,85.60565478000002,-2.6699842800000004,-66.29124060000001
0.4,40,-0.028,-0.959,-0.057,-14.381245800000002,-17.18874,12.318597,85.46814486,-2.80176462,-66.45166884
0.41000000000000003,41,-0.021,-0.958,-0.067,-14.2093584,-18.3919518,11.0007936,85.33636451999998,-2.9220858,-66.62355624
0.42000000000000004,42,-0.031,-0.956,-0.058,-14.152062599999999,-19.595163600000006,9.3965112,85.20458418000003,-3.02521824,-66.81263238
0.43,43,-0.049,-0.953,-0.036000000000000004,-13.980175199999998,-20.511896399999998,7.6776372,85.07853342,-3.11689152,-67.01316768000001
0.44,44,-0.064,-0.949,-0.024,-14.381245800000002,-20.168121600000006,6.1879464,84.94675308000002,-3.1913760600000005,-67.2079734
0.45,45,-0.076,-0.951,-0.033,-15.183387000000002,-19.480572,4.8701430000000006,84.80351358,-3.25440144,-67.40277911999999
0.46,46,-0.084,-0.952,-0.047,-15.469866,-19.0795014,3.666931200000001,84.66027408,-3.3059676599999994,-67.58612568
0.47000000000000003,47,-0.086,-0.956,-0.063,-15.3552744,-18.8503182,2.6929026,84.51703458,-3.34607472,-67.77520182
0.48000000000000004,48,-0.084,-0.958,-0.064,-14.266654199999998,-19.1367972,1.8907613999999997,84.38525424,-3.3804522000000006,-67.96427796
0.49,49,-0.08,-0.956,-0.053,-13.5791046,-18.9649098,0.9167328,84.26493306,-3.40337052,-68.14762452
0.5,50,-0.073,-0.944,-0.054000000000000006,-13.2353298,-18.6784308,-0.4010706,84.14461188,-3.4148296799999995,-68.33670065999999
0.51,51,-0.065,-0.94,-0.055,-12.1467096,-17.9335854,-2.0626488000000003,84.03574986,-3.4091001000000003,-68.52004722
0.52,52,-0.066,-0.938,-0.048,-11.5737516,-17.131444199999994,-3.151269,83.92688783999998,-3.3919113599999995,-68.69193462000001
0.53,53,-0.07200000000000001,-0.938,-0.047,-11.229976800000001,-16.8449652,-4.0680017999999984,83.82948498,-3.36326346,-68.86382202
0.54,54,-0.08,-0.944,-0.047,-11.3445684,-16.615782,-4.9847345999999995,83.72635254,-3.32888598,-69.03570942
0.55,55,-0.08800000000000001,-0.955,-0.046,-11.3445684,-16.1001198,-5.443101,83.62322009999998,-3.2945085,-69.20186724
0.56,56,-0.096,-0.963,-0.039,-11.172681,-15.6417534,-5.5576926,83.52008766,-3.25440144,-69.36229548
0.5700000000000001,57,-0.104,-0.971,-0.03,-11.0007936,-14.9542038,-5.5576926,83.4226848,-3.2085648000000004,-69.51699414
0.5800000000000001,58,-0.12,-0.977,-0.013,-10.5424272,-14.667724800000002,-5.7868758000000025,83.32528194,-3.16845774,-69.6716928
0.59,59,-0.14300000000000002,-0.987,0.01,-9.568398599999998,-13.2926256,-6.875496000000001,83.23933824000002,-3.11116194,-69.80920272
0.6,60,-0.158,-0.996,0.014,-9.740286,-11.0580894,-8.136003599999999,83.15912412,-3.05386614,-69.93525348
0.61,61,-0.16699999999999998,-1.003,0.012,-9.8548776,-8.078707799999998,-9.6829902,83.06745083999998,-2.96792244,-70.02692676
0.62,62,-0.16899999999999998,-1.013,0.008,-8.307891,-5.2712136,-10.8289062,82.98723672,-2.87051958,-70.09568172
0.63,63,-0.174,-1.029,0.015,-7.0473834,-2.7501984,-11.688343199999998,82.91275218,-2.75592798,-70.13578878
0.64,64,-0.17800000000000002,-1.037,0.014,-6.4744254,0.22918320000000006,-12.1467096,82.84972680000001,-2.6356068,-70.15297752000001
0.65,65,-0.17800000000000002,-1.045,0.006,-5.5003968,3.2085648,-12.0894138,82.80961973999997,-2.53820394,-70.14151836
0.66,66,-0.166,-1.0490000000000002,0.013,-4.0680017999999984,5.7868758000000025,-11.688343199999998,82.76378309999998,-2.41788276,-70.09568172
0.67,67,-0.146,-1.053,0.027000000000000003,-2.6356068,10.599723,-11.4018642,82.7351352,-2.2918320000000003,-70.00973802
0.68,68,-0.125,-1.053,0.02,-2.0626488000000003,14.152062599999999,-11.1153852,82.7064873,-2.17151082,-69.88368726
0.6900000000000001,69,-0.109,-1.045,0.014,-0.3437748,15.756345000000001,-10.7716104,82.69502814,-2.04546006,-69.74044776000001
0.7000000000000001,70,-0.103,-1.046,0.032,1.8334656000000005,16.615782,-10.6570188,82.72367604,-1.93659804,-69.59147868
0.7100000000000001,71,-0.106,-1.052,0.036000000000000004,3.6096354,17.8189938,-11.0007936,82.75232394,-1.81054728,-69.43105044
0.72,72,-0.114,-1.057,0.038,5.9014674000000005,19.3659804,-11.6310474,82.80389016000002,-1.67303736,-69.25343346
0.73,73,-0.113,-1.056,0.045,9.3392154,21.8869956,-12.3758928,82.88983386,-1.52979786,-69.05289816
0.74,74,-0.098,-1.039,0.098,13.2926256,25.0382646,-13.0634424,83.01588462000002,-1.3750992,-68.81798538
0.75,75,-0.09,-1.011,0.145,19.767051,29.67922440000001,-13.8082878,83.2221495,-1.21467096,-68.54296554
0.76,76,-0.094,-0.994,0.172,25.0955604,31.51269000000001,-14.32395,83.46279186000002,-1.04278356,-68.24502738
0.77,77,-0.116,-0.988,0.213,28.819787400000006,32.8877892,-15.0114996,83.74927086,-0.86516658,-67.93563006
0.78,78,-0.145,-0.979,0.256,30.8824362,36.2682414,-17.0741484,84.05293859999998,-0.66463128,-67.59185526
0.79,79,-0.174,-0.959,0.284,32.2002396,43.6021038,-20.8556712,84.3680655,-0.42398892,-67.17932549999999
0.8,80,-0.201,-0.94,0.3,33.002380800000005,52.998615,-25.496631,84.70611072,-0.14323950000000002,-66.67512246
0.81,81,-0.133,-1.177,0.069,19.8243468,64.62966239999999,-28.1322378,84.90091644,0.1718874,-66.06205739999999
0.8200000000000001,82,0.269,-1.789,-0.986,-38.0444112,89.49603959999997,-15.9282324,84.50557542,0.38388186,-65.19689082
0.8300000000000001,83,0.313,-1.723,-0.475,57.1812084,33.1742682,15.126091199999998,85.08426299999998,0.25783110000000004,-64.84738644000001
0.8400000000000001,84,0.14300000000000002,-1.3259999999999998,0.292,49.6754586,13.2926256,18.334656,85.58846604,0.09167328,-64.69841736
0.85,85,0.08900000000000001,-1.17,0.111,17.0741484,25.0382646,12.3758928,85.75462386000002,-0.01145916,-64.44058626
0.86,86,0.122,-1.211,-0.368,-3.3804522000000006,29.0489706,9.2819196,85.7145168,-0.0859437,-64.14837768
0.87,87,0.247,-1.121,-0.568,-12.4331886,27.9603504,4.9847345999999995,85.58273646,-0.12605075999999998,-63.86762826
0.88,88,0.354,-0.97,-0.495,-10.7143146,30.5959572,3.724227,85.46814486,-0.14896908,-63.56396052
0.89,89,0.28,-0.815,-0.443,-11.6310474,24.5798982,5.5003968,85.34782368,-0.19480572,-63.317588580000006
0.9,90,0.037000000000000005,-0.696,-0.37,-12.4904844,12.834259199999998,8.9954406,85.19312502,-0.27501984,-63.18580824000001
0.91,91,-0.14800000000000002,-0.672,-0.348,-10.599723,-2.0053530000000004,12.891555,85.08426299999998,-0.40680018,-63.1972674
0.92,92,-0.26,-0.695,-0.329,-6.302537999999998,-8.078707799999998,13.9228794,85.02123762,-0.55003968,-63.26602236
0.93,93,-0.33,-0.7809999999999999,-0.307,-0.7448454000000001,-8.3651868,12.891555,85.01550804,-0.68182002,-63.33477732
0.9400000000000001,94,-0.344,-0.894,-0.287,3.2085648,-4.4690724,10.3705398,85.04988552,-0.7906820400000001,-63.37488438000001
0.9500000000000001,95,-0.31,-0.995,-0.266,6.2452422,0.9167328,6.3598338,85.07853342,-0.91100322,-63.3691548
0.9600000000000001,96,-0.257,-1.046,-0.217,9.797581800000001,4.7555514,0.7448454000000001,85.17593628,-0.9167328000000001,-63.32331816
0.97,97,-0.172,-1.063,-0.165,11.1153852,6.8182002000000015,-4.9274388,85.2847983,-0.8594370000000001,-63.26029278
0.98,98,-0.062,-1.063,-0.141,8.9954406,8.021412000000002,-9.3965112,85.37647158,-0.76203414,-63.18580824000001
0.99,99,0.025,-1.052,-0.153,4.5263682,6.8182002000000015,-11.5737516,85.41657864,-0.64171296,-63.12851244000001
1.0,100,0.083,-1.027,-0.173,0.8594370000000001,3.9534102,-12.605076,85.39938989999997,-0.4870143000000001,-63.08840538
1.01,101,0.113,-1.001,-0.183,-1.7761698,0.3437748,-13.178034,85.37647158,-0.35523396,-63.09413496000001
1.02,102,0.138,-0.969,-0.19,-3.3804522000000006,-3.4950437999999995,-13.5791046,85.3420941,-0.22345362,-63.1399716
1.03,103,0.141,-0.929,-0.19,-2.6356068,-7.0473834,-14.495837400000001,85.31917578,-0.0859437,-63.22018572
1.04,104,0.128,-0.901,-0.17600000000000002,-0.6302538000000001,-11.0580894,-16.042824000000003,85.3134462,0.06302537999999999,-63.34623648
1.05,105,0.08900000000000001,-0.8859999999999999,-0.155,1.3750992,-14.610429000000002,-18.162768600000003,85.31917578,0.24637194,-63.50093514
1.06,106,0.045,-0.88,-0.134,3.666931200000001,-17.303331600000003,-20.168121600000006,85.35928284,0.43544808,-63.69001128
1.07,107,-0.021,-0.878,-0.11,4.7555514,-19.194093,-22.1161788,85.40511948000002,0.64171296,-63.89627615999999
1.08,108,-0.07,-0.884,-0.097,4.2398892,-17.6471064,-22.631841,85.45095612,0.8594370000000001,-64.0853523
1.09,109,-0.105,-0.887,-0.076,3.5523396000000003,-13.8082878,-22.459953600000002,85.48533359999998,1.07716104,-64.24005095999999
1.1,110,-0.101,-0.908,-0.053,2.291832,-10.0840608,-22.1161788,85.50825191999998,1.27196676,-64.36037214000001
1.11,111,-0.073,-0.937,-0.033,0.4010706,-7.7349330000000025,-21.9442914,85.50825191999998,1.4896908000000002,-64.45204542
1.12,112,-0.021,-0.967,-0.025,-2.1772404,-6.130650599999999,-21.8869956,85.48533359999998,1.70168526,-64.52652996
1.1300000000000001,113,0.023,-0.994,-0.029,-4.8701430000000006,-4.1252976000000015,-21.5432208,85.43376737999998,1.91367972,-64.58955533999999
1.1400000000000001,114,0.07200000000000001,-0.998,-0.051,-8.021412000000002,-0.057295800000000015,-19.938938399999998,85.34782368,2.10848544,-64.60674408
1.1500000000000001,115,0.08199999999999999,-0.988,-0.076,-11.8602306,1.7188740000000002,-16.272007199999994,85.2275025,2.28037284,-64.60101449999999
1.1600000000000001,116,0.086,-0.966,-0.097,-14.0947668,2.2345362,-12.7769634,85.08426299999998,2.4064236,-64.58955533999999
1.17,117,0.073,-0.953,-0.085,-14.7250206,3.4377480000000005,-10.7143146,84.93529392,2.51528562,-64.56663702
1.18,118,0.053,-0.944,-0.07200000000000001,-15.6417534,3.9534102,-9.1100322,84.77486567999998,2.6069589,-64.53798911999999
1.19,119,0.034,-0.933,-0.061,-16.7876694,3.5523396000000003,-8.021412000000002,84.60297828,2.68717302,-64.50934122
1.2,120,0.013,-0.915,-0.055,-18.048177,2.6356068,-6.9327918,84.42536129999998,2.7501984,-64.49215248
1.21,121,-0.004,-0.903,-0.07,-19.1367972,1.6042823999999998,-5.3858052,84.23055558,2.80176462,-64.48642290000001
1.22,122,-0.023,-0.889,-0.087,-19.5378678,1.3178034,-3.5523396000000003,84.03002028,2.8361421,-64.47496373999999
1.23,123,-0.036000000000000004,-0.882,-0.08,-19.0222056,1.6042823999999998,-1.3178034,83.83521456,2.84760126,-64.46350457999999
1.24,124,-0.037000000000000005,-0.875,-0.064,-18.1054728,1.7188740000000002,0.6875496,83.65186800000002,2.84187168,-64.44631584
1.25,125,-0.024,-0.8690000000000001,-0.04,-16.673077799999998,1.0886202,2.6356068,83.49143975999998,2.80176462,-64.43485668000001
1.26,126,-0.012,-0.87,-0.023,-15.183387000000002,0.8594370000000001,4.583664,83.3367411,2.75592798,-64.42339752000001
1.27,127,0.004,-0.8759999999999999,-0.026,-14.667724800000002,1.6615782,6.0733548,83.18777202,2.69863218,-64.4004792
1.28,128,0.023,-0.887,-0.036000000000000004,-15.9282324,2.578311,6.875496000000001,83.02734378,2.62987722,-64.3718313
1.29,129,0.039,-0.895,-0.044,-17.131444199999994,2.6929026,7.2765666,82.85545637999998,2.5611222600000003,-64.33745382
1.3,130,0.055,-0.903,-0.048,-17.246035799999998,1.8907613999999997,6.990087599999999,82.68929856,2.49809688,-64.30880592
1.31,131,0.06,-0.907,-0.041,-16.042824000000003,-1.0313244,5.7868758000000025,82.52887032,2.4350715000000003,-64.3145355
1.32,132,0.047,-0.905,-0.029,-13.0634424,-3.666931200000001,4.3544808,82.39136040000002,2.38923486,-64.34891298
1.33,133,0.022,-0.911,-0.006999999999999999,-8.193299399999999,-5.5003968,2.7501984,82.31114628,2.35485738,-64.4004792
1.34,134,-0.006,-0.937,0.022,-4.9847345999999995,-7.7922288,1.0886202,82.25385048,2.33193906,-64.47496373999999
1.35,135,-0.025,-0.971,0.042,-3.0366774,-10.1413566,-0.572958,82.27103922,2.30902074,-64.57809618
1.36,136,-0.034,-1.007,0.065,-0.572958,-11.5737516,-2.2345362,82.26530964,2.3147503200000004,-64.69841736
1.37,137,-0.032,-1.043,0.081,1.8907613999999997,-12.4331886,-3.6096354,82.28249838,2.3376686399999995,-64.82446811999999
1.3800000000000001,138,-0.009000000000000001,-1.091,0.087,4.010706000000001,-13.0061466,-4.7555514,82.31687586000002,2.37204612,-64.95624846
1.3900000000000001,139,0.025,-1.13,0.08199999999999999,6.016058999999999,-15.126091199999998,-5.844171599999999,82.37417166,2.41788276,-65.11094712
1.4000000000000001,140,0.061,-1.182,0.08800000000000001,7.6203414,-19.8243468,-6.8182002000000015,82.46011536,2.4637194,-65.31721200000001
1.4100000000000001,141,0.084,-1.237,0.099,8.3651868,-26.356068,-7.6776372,82.5345999,2.51528562,-65.58650226
1.42,142,0.097,-1.287,0.115,10.9434978,-30.252182399999995,-7.9641161999999985,82.63773234,2.5611222600000003,-65.89017
1.43,143,0.104,-1.355,0.061,12.032117999999999,-31.51269000000001,-8.479778399999999,82.75232394,2.61841806,-66.21102648
1.44,144,0.08800000000000001,-1.421,-0.065,12.2040054,-31.627281600000003,-9.3392154,82.86691554,2.68144344,-66.53188295999999
1.45,145,0.025,-1.4680000000000002,-0.151,15.2406828,-33.518043,-10.6570188,83.00442546000002,2.75592798,-66.87565776
1.46,146,-0.08199999999999999,-1.506,-0.098,19.480572,-35.3515086,-11.745639,83.19350159999998,2.84187168,-67.2366213
1.47,147,-0.141,-1.499,-0.087,16.042824000000003,-31.1689152,-11.229976800000001,83.34247067999998,2.92781538,-67.55174819999999
1.48,148,-0.139,-1.449,-0.111,12.0894138,-27.215505,-8.9954406,83.45706228,2.99084076,-67.83249762
1.49,149,-0.057,-1.362,-0.14300000000000002,11.0580894,-24.8663772,-4.9274388,83.56019472,3.01948866,-68.07886956
1.5,150,0.084,-1.2819999999999998,-0.188,10.8289062,-24.4653066,0.6302538000000001,83.65186800000002,2.9965703400000003,-68.31951192
1.51,151,0.197,-1.209,-0.245,9.1100322,-25.6112226,7.161975,83.73781170000002,2.91062664,-68.56015427999999
1.52,152,0.223,-1.117,-0.28,7.7922288,-27.444688199999998,11.3445684,83.80656666,2.77311672,-68.82371496
1.53,153,0.197,-1.008,-0.376,6.5317212,-28.934379,12.261301199999998,83.86959204,2.62987722,-69.09300522
1.54,154,0.154,-0.88,-0.488,4.3544808,-31.2835068,10.3705398,83.90396952,2.50382646,-69.39094338
1.55,155,0.111,-0.754,-0.505,2.4637194,-32.6013102,6.5317212,83.86959204,2.42361234,-69.70607028
1.56,156,0.121,-0.67,-0.477,2.0626488000000003,-29.5646328,3.9534102,83.8810512,2.36058696,-69.99254927999999
1.57,157,0.155,-0.65,-0.469,1.8907613999999997,-28.5333084,2.9220857999999996,83.89251035999997,2.30902074,-70.27329870000001
1.58,158,0.16899999999999998,-0.716,-0.499,2.1199446,-31.741873200000004,3.3804522000000006,83.9096991,2.25172494,-70.58269602
1.59,159,0.132,-0.8440000000000001,-0.539,3.8388186,-36.669312,3.7815227999999994,83.938347,2.18869956,-70.93792998
1.6,160,0.063,-0.998,-0.59,4.3544808,-40.8519054,2.2345362,83.94407658,2.13140376,-71.33900058
1.61,161,-0.011,-1.154,-0.591,4.583664,-42.5134836,-1.6042823999999998,83.97845406,2.1199446,-71.7629895
1.62,162,-0.07200000000000001,-1.288,-0.586,3.151269,-41.023792799999995,-7.1046792000000005,84.00137237999998,2.15432208,-72.16978968
1.6300000000000001,163,-0.08800000000000001,-1.297,-0.536,1.6615782,-35.3515086,-10.8289062,84.01283154000002,2.2345362,-72.53075322000002
1.6400000000000001,164,-0.069,-1.229,-0.481,3.6096354,-30.1375908,-10.255948199999999,84.04147944,2.3147503200000004,-72.84015054
1.6500000000000001,165,-0.009000000000000001,-1.143,-0.403,7.2765666,-26.69984280000001,-6.302537999999998,84.08731608000002,2.35485738,-73.10944079999999
1.6600000000000001,166,0.055,-1.103,-0.302,11.8029348,-25.78311,-0.5156622000000001,84.1961781,2.34339822,-73.36154232
1.6700000000000002,167,0.083,-1.099,-0.224,14.32395,-25.2674478,5.042030400000002,84.3394176,2.28037284,-73.60791426
1.68,168,0.102,-1.095,-0.17,14.8396122,-24.2934192,9.224623800000002,84.4826571,2.17151082,-73.83709746000002
1.69,169,0.081,-1.08,-0.145,14.2093584,-23.5485738,11.8602306,84.62016702,2.03973048,-74.0548215
1.7,170,0.04,-1.06,-0.132,13.464512999999998,-23.0902074,12.834259199999998,84.75194736,1.89649098,-74.27254554
1.71,171,-0.019,-1.041,-0.13,12.0894138,-22.058883,12.6623718,84.87226854000002,1.75898106,-74.47881042
1.72,172,-0.065,-1.018,-0.132,11.745639,-20.626488,11.6310474,84.98686014,1.6329303,-74.66788656
1.73,173,-0.092,-0.983,-0.125,12.4904844,-18.7930224,10.5424272,85.1129109,1.5183387000000002,-74.84550354000002
1.74,174,-0.113,-0.94,-0.1,12.7769634,-16.501190400000002,9.3392154,85.23896166,1.41520626,-75.0002022
1.75,175,-0.107,-0.885,-0.091,11.8029348,-13.8082878,7.9641161999999985,85.35355326,1.31207382,-75.13198254
1.76,176,-0.096,-0.8320000000000001,-0.103,11.0007936,-11.172681,5.958763200000001,85.46241528,1.24904844,-75.23511498
1.77,177,-0.094,-0.7909999999999999,-0.106,10.1413566,-8.9954406,3.666931200000001,85.56554772,1.20894138,-75.32105868
1.78,178,-0.1,-0.7709999999999999,-0.111,9.2819196,-6.6463128000000005,1.5469866,85.66295058,1.19175264,-75.38408405999998
1.79,179,-0.101,-0.738,-0.11,8.250595200000001,-3.4377480000000005,2.1772404,85.7431647,1.1688343199999998,-75.41846154
1.8,180,-0.094,-0.732,-0.11,7.333862400000001,-0.4010706,2.86479,85.81191966,1.12872726,-75.42419112
1.81,181,-0.097,-0.727,-0.08800000000000001,5.3858052,2.6356068,3.4950437999999995,85.86348588000001,1.09434978,-75.39554322000002
1.82,182,-0.101,-0.721,-0.084,1.9480572,5.7868758000000025,3.9534102,85.8864042,1.05424272,-75.33251784000002
1.83,183,-0.102,-0.721,-0.091,0.9167328,9.0527364,4.4117766,85.89786336,1.01413566,-75.24084456
1.84,184,-0.08,-0.726,-0.103,0.22918320000000006,10.7716104,5.1566220000000005,85.89786336,0.96829902,-75.13198254
1.85,185,-0.043,-0.725,-0.097,1.3750992,12.1467096,5.72958,85.90932252,0.9167328000000001,-75.00593178
1.86,186,0.013,-0.723,-0.077,3.0366774,12.834259199999998,5.7868758000000025,85.93797042,0.86516658,-74.87415144
1.87,187,0.055,-0.728,-0.046,4.583664,11.8602306,5.042030400000002,85.98380705999998,0.8193299399999999,-74.75383026
1.8800000000000001,188,0.08,-0.725,-0.005,4.9274388,9.8548776,4.2398892,86.03537328,0.7792228800000001,-74.65069782
1.8900000000000001,189,0.091,-0.736,0.024,3.4950437999999995,7.3911582,3.3231564,86.06975076,0.75057498,-74.57621328
1.9000000000000001,190,0.085,-0.762,0.03,1.0886202,5.6149884000000005,2.291832,86.09266908,0.7448454000000001,-74.51891748
1.9100000000000001,191,0.056,-0.818,-0.001,-3.3231564,5.6149884000000005,0.9740286,86.05829159999998,0.73338624,-74.46162168000002
1.9200000000000002,192,0.011,-0.88,-0.054000000000000006,-8.651665800000002,7.6776372,-0.1718874,85.9723479,0.7391158200000001,-74.38713714000002
1.93,193,-0.029,-0.939,-0.101,-11.745639,10.026765,-1.0313244,85.85202672,0.75630456,-74.28973427999998
1.94,194,-0.058,-0.986,-0.124,-12.318597,11.9748222,-0.8021411999999999,85.72597596,0.76776372,-74.1694131
1.95,195,-0.071,-0.989,-0.1,-9.3965112,13.8082878,-0.11459160000000003,85.62284352,0.75057498,-74.03763276000002
1.96,196,-0.071,-0.967,-0.055,-4.1252976000000015,14.5531332,0.8594370000000001,85.58273646,0.75057498,-73.89439326
1.97,197,-0.069,-0.95,-0.008,-0.7448454000000001,15.183387000000002,1.4896908000000002,85.57127729999998,0.7391158200000001,-73.74542418
1.98,198,-0.067,-0.95,0.026,0.0,16.673077799999998,1.6042823999999998,85.57700688,0.73338624,-73.57926636
1.99,199,-0.059,-0.958,0.048,0.0,18.1054728,1.8907613999999997,85.57700688,0.72192708,-73.3959198
2.0,200,-0.056,-0.966,0.068,0.8594370000000001,18.7930224,2.9793816000000004,85.61138436,0.6875496,-73.21257324000003
2.01,201,-0.065,-0.958,0.112,4.583664,17.303331600000003,4.9847345999999995,85.65722099999998,0.64744254,-73.03495626
2.02,202,-0.076,-0.956,0.17600000000000002,11.172681,15.0114996,7.6203414,85.77181259999998,0.5786875800000001,-72.88025760000002
2.03,203,-0.086,-0.959,0.24,15.126091199999998,13.9228794,9.224623800000002,85.92651126,0.49274388,-72.7370181
2.04,204,-0.095,-0.972,0.28800000000000003,17.761698000000006,15.469866,9.8548776,86.10412824,0.40680018,-72.57658986
2.05,205,-0.122,-1.008,0.305,21.027558600000006,17.246035799999998,9.8548776,86.35050018,0.29793816,-72.39897288
2.0599999999999996,206,-0.173,-1.052,0.313,25.0955604,19.1367972,8.9954406,86.60833127999999,0.21772404,-72.20416716
2.07,207,-0.213,-1.116,0.34600000000000003,29.9657034,23.3193906,6.016058999999999,86.90626943999996,0.16615782,-71.9635248
2.0799999999999996,208,-0.217,-1.236,0.318,28.304125199999998,32.257535399999995,2.4064236,87.19274844,0.15469866,-71.64266832
2.09,209,-0.15,-1.378,0.229,20.3973048,42.2270046,0.22918320000000006,87.39328374,0.16042824,-71.21867940000001
2.0999999999999996,210,0.004,-1.557,0.07200000000000001,9.797581800000001,49.6754586,2.7501984,87.49068659999998,0.14323950000000002,-70.72593552
2.11,211,0.124,-1.686,-0.14400000000000002,-0.1718874,51.7381074,10.886202,87.48495702,0.04583664,-70.21027332
2.1199999999999997,212,0.163,-1.639,-0.293,-7.6776372,48.1857678,19.2513888,87.39901332,-0.13750992,-69.72898860000001
2.13,213,0.147,-1.457,-0.345,-1.7188740000000002,36.03905820000001,21.8869956,87.37609499999998,-0.3437748,-69.36229548
2.1399999999999997,214,0.049,-1.284,-0.35600000000000004,13.407217200000002,21.485925,16.558486199999994,87.50787534,-0.5042030399999999,-69.13884186
2.15,215,-0.06,-1.214,-0.36,21.772404,11.8029348,6.589017,87.70268106,-0.5729580000000001,-69.01852068
2.1599999999999997,216,-0.129,-1.193,-0.387,21.3140376,10.3705398,-3.7815227999999994,87.92040510000002,-0.53285094,-68.91538824
2.17,217,-0.161,-1.181,-0.406,19.7097552,13.407217200000002,-10.3705398,88.11521081999999,-0.42398892,-68.7836079
2.1799999999999997,218,-0.155,-1.145,-0.412,19.5378678,20.798375399999998,-11.2872726,88.31001654,-0.30939732,-68.57734302
2.19,219,-0.121,-1.048,-0.376,21.3713334,32.0283522,-7.7349330000000025,88.52201099999998,-0.23491278,-68.26221611999999
2.1999999999999997,220,-0.106,-0.925,-0.307,23.0902074,39.0184398,-4.1825934,88.72827588,-0.20053530000000008,-67.87833426
2.21,221,-0.07400000000000001,-0.807,-0.221,22.91832,45.83664,-1.0313244,88.9517295,-0.19480572,-67.41996786
2.2199999999999998,222,-0.055,-0.7390000000000001,-0.23,21.485925,52.597544400000004,2.0053530000000004,89.15799438,-0.21772404,-66.89857608
2.23,223,-0.046,-0.68,-0.259,17.0741484,59.186561399999995,5.72958,89.3241522,-0.28074942,-66.30842934
2.2399999999999998,224,-0.049,-0.653,-0.257,16.7876694,60.5616606,9.6829902,89.48458044,-0.38961144,-65.70682344000001
2.25,225,-0.035,-0.685,-0.236,15.756345000000001,59.8168152,12.2040054,89.61636078000002,-0.52139178,-65.1166767
2.26,226,0.024,-0.747,-0.227,13.464512999999998,58.44171600000001,12.834259199999998,89.73668196000001,-0.6589017,-64.53798911999999
2.27,227,0.124,-0.825,-0.265,9.453807000000001,56.66554620000001,11.6310474,89.82262566,-0.7849524600000001,-63.97649028000001
2.28,228,0.202,-0.895,-0.317,6.589017,52.8840234,10.0840608,89.87419188,-0.89954406,-63.44936892
2.29,229,0.253,-0.949,-0.349,5.2139178,45.72204840000001,8.5370742,89.91429894,-0.9969469199999998,-62.9967321
2.3,230,0.28,-0.967,-0.342,3.5523396000000003,37.0130868,6.1879464,89.89138061999998,-1.0255948199999998,-62.6243094
2.31,231,0.278,-0.964,-0.336,0.8021411999999999,26.7571386,3.666931200000001,89.89138061999998,-1.07143146,-62.36074872
2.32,232,0.269,-0.943,-0.331,-1.5469866,16.386598799999998,0.6302538000000001,89.8684623,-1.08289062,-62.1945909
2.3299999999999996,233,0.265,-0.922,-0.295,-0.8021411999999999,6.875496000000001,-2.4637194,89.86273272,-1.0599723,-62.13156552
2.34,234,0.258,-0.91,-0.257,2.1199446,-2.1772404,-5.7868758000000025,89.88565104,-1.0026765,-62.14875426
2.3499999999999996,235,0.218,-0.923,-0.222,6.703608600000001,-12.3758928,-9.6829902,89.91429894,-0.8594370000000001,-62.26334586
2.36,236,0.16899999999999998,-0.94,-0.193,10.1413566,-17.18874,-12.318597,90.02316096,-0.72765666,-62.43523326
2.3699999999999997,237,0.083,-0.961,-0.171,13.750992000000002,-18.6784308,-14.266654199999998,90.16640046,-0.5844171599999999,-62.61285024
2.38,238,-0.014,-0.984,-0.124,16.902261,-17.8762896,-15.870936600000002,90.33828786,-0.41825934,-62.79046722
2.3899999999999997,239,-0.084,-1.008,-0.068,18.162768600000003,-16.7876694,-16.959556799999998,90.527364,-0.24064236,-62.95089546000001
2.4,240,-0.122,-1.033,-0.028,17.3606274,-13.8655836,-17.4179232,90.69925140000001,-0.07448454,-63.08840538
2.4099999999999997,241,-0.11,-1.035,0.006,14.495837400000001,-9.568398599999998,-16.8449652,90.84822048,0.09167328,-63.18007865999999
2.42,242,-0.056,-1.042,0.027000000000000003,12.032117999999999,-6.5317212,-15.6990492,90.97427124,0.24637194,-63.23737446
2.4299999999999997,243,0.0,-1.064,0.034,8.5370742,-4.6982556,-14.8396122,91.06021494,0.4010706000000001,-63.2832111
2.44,244,0.044,-1.088,0.027000000000000003,3.9534102,-4.9847345999999995,-14.495837400000001,91.100322,0.5443101,-63.32904774000001
2.4499999999999997,245,0.064,-1.099,-0.006,-0.8021411999999999,-4.8701430000000006,-14.5531332,91.07740368,0.70473834,-63.3691548
2.46,246,0.067,-1.104,-0.047,-2.9220857999999996,-3.2085648,-13.980175199999998,91.04875578,0.8479778399999999,-63.3978027
2.4699999999999998,247,0.063,-1.091,-0.069,-3.666931200000001,-1.3750992,-13.8655836,91.00864872,0.98548776,-63.40926186
2.48,248,0.055,-1.074,-0.062,-3.4377480000000005,-1.3178034,-13.750992000000002,90.97427124,1.12299768,-63.42072102000001
2.4899999999999998,249,0.067,-1.05,-0.05,-4.3544808,-3.8961144,-13.2353298,90.92843459999999,1.25477802,-63.46082808
2.5,250,0.095,-1.028,-0.042,-6.6463128000000005,-7.8495246,-13.0634424,90.84249090000002,1.4037471,-63.53531262
2.51,251,0.093,-1.011,-0.039,-9.224623800000002,-13.0634424,-11.9748222,90.75081762,1.52979786,-63.66136338
2.52,252,0.08,-0.998,-0.048,-10.313244,-16.042824000000003,-10.7143146,90.6419556,1.6386598799999998,-63.82179162
2.53,253,0.058,-0.987,-0.048,-9.1100322,-17.4179232,-9.3965112,90.54455274,1.74179232,-63.99367902
2.54,254,0.05,-0.979,-0.037000000000000005,-7.333862400000001,-17.9908812,-8.5370742,90.4700682,1.8334656000000003,-64.171296
2.55,255,0.025,-0.969,-0.024,-6.4744254,-18.3919518,-8.193299399999999,90.38985408,1.91367972,-64.35464255999999
2.56,256,0.009000000000000001,-0.951,-0.009000000000000001,-5.9014674000000005,-18.048177,-7.161975,90.3268287,1.99389384,-64.53225954
2.57,257,-0.011,-0.926,0.009000000000000001,-5.2139178,-17.5325148,-5.844171599999999,90.2695329,2.05691922,-64.70414694
2.5799999999999996,258,-0.027000000000000003,-0.907,0.026,-4.6409598,-15.527161800000002,-3.8961144,90.21796668,2.10275586,-64.85884560000001
2.59,259,-0.035,-0.895,0.036000000000000004,-4.3544808,-12.891555,-2.2345362,90.16640046,2.12567418,-64.98489636000001
2.5999999999999996,260,-0.027000000000000003,-0.879,0.025,-4.8701430000000006,-10.4278356,-0.8021411999999999,90.11483424,2.1199446,-65.09375838000001
2.61,261,-0.008,-0.867,0.01,-4.8128472,-7.2192707999999985,0.22918320000000006,90.06326802,2.1199446,-65.16824292
2.6199999999999997,262,0.018000000000000002,-0.857,-0.001,-4.6409598,-4.4690724,1.3178034,90.01743138,2.10848544,-65.20834998000001
2.63,263,0.043,-0.845,-0.006,-4.4117766,-3.0939732,2.4064236,89.97159474,2.08556712,-65.24272746
2.6399999999999997,264,0.057,-0.8290000000000001,0.012,-3.5523396000000003,-3.0366774,3.7815227999999994,89.93148768,2.04546006,-65.27137536000001
2.65,265,0.081,-0.809,0.053,-2.0626488000000003,-4.4690724,5.6149884000000005,89.9257581,2.005353,-65.31721200000001
2.6599999999999997,266,0.1,-0.7909999999999999,0.098,-0.5156622000000001,-7.6776372,7.7349330000000025,89.92002852,1.93086846,-65.39169654
2.67,267,0.109,-0.789,0.13,1.5469866,-11.9748222,9.3965112,89.93148768,1.84492476,-65.51201771999999
2.6799999999999997,268,0.123,-0.8059999999999999,0.138,3.7815227999999994,-16.4438946,10.0840608,89.96586515999998,1.7475218999999995,-65.67244595999999
2.69,269,0.127,-0.848,0.128,5.6149884000000005,-21.3713334,9.8548776,90.02316096,1.6558486199999998,-65.88444042
2.6999999999999997,270,0.119,-0.907,0.125,5.5576926,-26.298772200000002,8.880849000000003,90.09191592,1.59282324,-66.14227152
2.71,271,0.103,-0.976,0.14300000000000002,4.0680017999999984,-31.2835068,7.2765666,90.1262934,1.52406828,-66.45166884
2.7199999999999998,272,0.081,-1.027,0.19,2.0626488000000003,-35.3515086,5.3858052,90.14348214,1.48396122,-66.80117322
2.73,273,0.067,-1.092,0.257,0.7448454000000001,-38.1590028,3.6096354,90.14921172,1.4610428999999998,-67.17932549999999
2.7399999999999998,274,0.044,-1.145,0.279,-2.9793816000000004,-38.7892566,2.6356068,90.11483424,1.44385416,-67.56320736
2.75,275,0.03,-1.172,0.264,-6.9327918,-35.2942128,3.9534102,90.05753844,1.41520626,-67.91271173999999
2.76,276,0.019,-1.2,0.239,-9.167328,-31.2835068,5.2139178,89.96013558000001,1.36936962,-68.22210906000001
2.77,277,0.002,-1.229,0.203,-10.4278356,-29.9657034,6.1879464,89.85127356000002,1.3178034,-68.52004722
2.78,278,-0.029,-1.258,0.179,-9.3965112,-30.4240698,7.161975,89.75387070000002,1.24904844,-68.82371496
2.79,279,-0.065,-1.2990000000000002,0.17,-7.0473834,-30.7678446,7.6203414,89.67938615999998,1.18029348,-69.1273827
2.8,280,-0.096,-1.364,0.13699999999999998,-5.3858052,-26.5279554,6.2452422,89.62781994000002,1.1172681,-69.39094338
2.81,281,-0.11,-1.422,0.053,-3.0939732,-14.8396122,1.8907613999999997,89.59344246,1.10580894,-69.53991246000001
2.82,282,-0.113,-1.452,-0.108,7.906820400000001,-3.3231564,-4.6982556,89.67365658,1.15164558,-69.56856035999999
2.8299999999999996,283,-0.115,-1.481,-0.17,18.334656,-3.0939732,-6.8182002000000015,89.86273272,1.22040054,-69.59720826
2.84,284,-0.097,-1.4580000000000002,-0.196,10.1413566,-7.0473834,-3.2658606,89.96586515999998,1.25477802,-69.66596322000001
2.8499999999999996,285,-0.045,-1.382,-0.269,5.443101,-6.5317212,4.6982556,90.00597222,1.20894138,-69.73471817999999
2.86,286,-0.033,-1.354,-0.304,8.880849000000003,-0.9740286,13.2353298,90.0976455,1.07716104,-69.74044776000001
2.8699999999999997,287,-0.069,-1.329,-0.389,13.8655836,-0.572958,17.761698000000006,90.23515542,0.90527364,-69.74617734
2.88,288,-0.046,-1.249,-0.309,16.1001198,0.5156622000000001,18.048177,90.40131324,0.72765666,-69.74044776000001
2.8899999999999997,289,0.056,-1.146,-0.355,15.9282324,4.010706000000001,15.985528200000001,90.56174148,0.56722842,-69.7003407
2.9,290,0.184,-1.067,-0.414,16.272007199999994,2.7501984,12.3758928,90.65914434,0.47555514,-69.66596322000001
2.9099999999999997,291,0.259,-0.988,-0.386,15.6417534,-2.0053530000000004,10.1986524,90.81957258,0.37815228,-69.68888154
2.92,292,0.265,-0.908,-0.38,13.2353298,-8.9954406,8.880849000000003,90.9570825,0.29793816,-69.77482524000001
2.9299999999999997,293,0.231,-0.843,-0.362,11.0007936,-17.7044022,7.3911582,91.0716741,0.22918320000000003,-69.95244222
2.94,294,0.184,-0.805,-0.337,8.7089616,-22.631841,5.042030400000002,91.1576178,0.18907614,-70.17589584
2.9499999999999997,295,0.134,-0.7909999999999999,-0.305,7.2192707999999985,-23.5485738,2.1199446,91.18053612,0.20053530000000008,-70.40507904
2.96,296,0.076,-0.8059999999999999,-0.274,6.589017,-22.4026578,-1.2605076000000002,91.24929108,0.22918320000000003,-70.62280308000003
2.9699999999999998,297,0.008,-0.84,-0.26,6.1879464,-20.6837838,-4.6982556,91.31231646,0.28647900000000004,-70.82906796
2.98,298,-0.06,-0.8909999999999999,-0.235,6.5317212,-17.18874,-7.9641161999999985,91.38107142,0.3724227000000001,-70.99522578
2.9899999999999998,299,-0.114,-0.939,-0.234,6.417129599999999,-11.688343199999998,-9.740286,91.44982638,0.47555514,-71.1040878
3.0,300,-0.132,-0.984,-0.219,6.703608600000001,-6.016058999999999,-10.313244,91.43836722,0.53858052,-71.16711318
3.01,301,-0.131,-1.006,-0.193,6.703608600000001,0.4583664000000001,-9.6256944,91.50712218,0.63598338,-71.1613836
3.02,302,-0.119,-1.007,-0.17600000000000002,7.2192707999999985,6.8182002000000015,-7.2765666,91.58160672,0.70473834,-71.09262864
3.03,303,-0.1,-1.005,-0.156,8.5370742,11.6310474,-4.010706000000001,91.66755042,0.7391158200000001,-70.97230746
3.04,304,-0.093,-1.0,-0.138,9.2819196,16.042824000000003,-1.4896908000000002,91.7592237,0.7448454000000001,-70.81187922000002
3.05,305,-0.071,-0.992,-0.126,9.740286,20.3973048,0.22918320000000006,91.82224908,0.7161975,-70.61134392
3.06,306,-0.046,-0.983,-0.104,10.886202,24.4080108,1.9480572,91.93684068,0.68182002,-70.37070156
3.07,307,-0.013,-0.976,-0.07,11.917526400000002,28.7051958,3.0939732,92.05716186,0.63598338,-70.08422256
3.08,308,0.013,-0.958,-0.048,13.0634424,30.194886600000004,3.8961144,92.1889422,0.5786875800000001,-69.7862844
3.09,309,0.02,-0.956,-0.045,13.6364004,29.0489706,3.8961144,92.32645212,0.52139178,-69.4998054
3.0999999999999996,310,0.015,-0.97,-0.022,13.8655836,28.2468294,3.0366774,92.45250288,0.47555514,-69.22478556000002
3.11,311,0.006999999999999999,-0.985,-0.035,11.8602306,30.3094782,2.2345362,92.56709448,0.4297185000000001,-68.92111781999999
3.1199999999999997,312,0.028,-0.99,-0.052000000000000005,12.318597,30.5959572,2.2345362,92.69314524,0.38388186,-68.62317966
3.13,313,0.047,-0.978,-0.045,14.32395,28.4187168,3.4950437999999995,92.83638474,0.33231564,-68.34243024000001
3.1399999999999997,314,0.056,-0.962,-0.019,15.3552744,24.2934192,4.8701430000000006,92.99108340000001,0.26356068,-68.10178787999999
3.15,315,0.051,-0.941,-0.012,14.7823164,19.0795014,5.2712136,93.12286374,0.20626488,-67.91271173999999
3.1599999999999997,316,0.045,-0.912,-0.033,14.381245800000002,15.126091199999998,4.6409598,93.26610324,0.14896908,-67.76374266
3.17,317,0.044,-0.889,-0.035,14.9542038,11.3445684,3.7815227999999994,93.41507232,0.10313244,-67.65488064
3.1799999999999997,318,0.025,-0.8809999999999999,-0.019,15.5844576,7.448453999999999,3.5523396000000003,93.57550056,0.06302537999999999,-67.58039609999999
3.19,319,0.002,-0.892,-0.001,16.329303,4.7555514,4.583664,93.74165838,0.01718874,-67.53455946
3.1999999999999997,320,-0.021,-0.905,0.009000000000000001,16.673077799999998,3.2085648,5.3285094000000015,93.89062746,-0.04010706,-67.50591156
3.21,321,-0.031,-0.902,0.019,16.2147114,3.7815227999999994,5.0993262,94.05678528,-0.09167328,-67.47153408
3.2199999999999998,322,-0.034,-0.8859999999999999,0.021,15.5844576,5.443101,3.5523396000000003,94.21721352,-0.13178034,-67.41423827999999
3.23,323,-0.033,-0.867,0.025,15.126091199999998,7.5630456000000015,1.6042823999999998,94.36618259999999,-0.15469866,-67.33975374
3.2399999999999998,324,-0.029,-0.85,0.028,15.126091199999998,9.1100322,-0.286479,94.52088126,-0.16042824,-67.24808046000001
3.25,325,-0.032,-0.831,0.031,15.2979786,10.4851314,-2.3491278,94.66412076,-0.15469866,-67.14494801999999
3.26,326,-0.037000000000000005,-0.8079999999999999,0.03,15.4125702,12.032117999999999,-4.5263682,94.81881942,-0.12032118,-67.01889725999999
3.27,327,-0.047,-0.782,0.026,16.2147114,13.2353298,-6.760904399999999,94.98497724,-0.06875496,-66.88138734
3.28,328,-0.056,-0.768,0.014,17.18874,14.8396122,-9.2819196,95.15686464,0.0,-66.72668868000001
3.29,329,-0.048,-0.748,-0.002,18.621135,17.4179232,-11.8602306,95.3402112,0.10313244,-66.53761254
3.3,330,-0.032,-0.7190000000000001,-0.022,21.772404,18.048177,-13.407217200000002,95.55220566,0.21199446,-66.3485364
3.31,331,-0.024,-0.6759999999999999,0.005,28.4760126,13.750992000000002,-14.2093584,95.83868466,0.33804522,-66.19383774
3.32,332,-0.025,-0.649,0.071,35.9817624,10.5424272,-14.2093584,96.20537778,0.46409598,-66.06778698000001
3.33,333,-0.047,-0.635,0.146,39.820581,10.3705398,-13.464512999999998,96.60644838,0.59014674,-65.94746579999999
3.34,334,-0.085,-0.635,0.179,41.3675676,12.834259199999998,-12.3758928,97.0304373,0.69327918,-65.8042263
3.3499999999999996,335,-0.125,-0.657,0.16699999999999998,40.680018,16.7303736,-11.9748222,97.44296706000002,0.7792228800000001,-65.62087973999999
3.36,336,-0.154,-0.6990000000000001,0.124,38.2162986,21.3713334,-11.4018642,97.8325785,0.8594370000000001,-65.39169654
3.3699999999999997,337,-0.14,-0.73,0.08199999999999999,35.2942128,31.3980984,-11.0007936,98.19354204,0.9167328000000001,-65.06511048
3.38,338,-0.09,-0.7140000000000001,0.08199999999999999,38.0444112,42.7426668,-9.797581800000001,98.5774239,0.93965112,-64.6296624
3.3899999999999997,339,0.013,-0.682,0.091,43.0864416,49.7900502,-8.9954406,99.01860156,0.9453806999999999,-64.12545936000001
3.4,340,0.119,-0.624,0.103,46.2377106,53.68616460000001,-9.6256944,99.48842712,0.95111028,-63.58114926
3.4099999999999997,341,0.199,-0.616,0.061,44.4615408,54.14453099999999,-10.9434978,99.94106394,0.95683986,-63.03110958
3.42,342,0.247,-0.624,-0.005,35.9244666,53.39968560000001,-11.4018642,100.30775706,0.96256944,-62.48679948
3.4299999999999997,343,0.297,-0.6629999999999999,-0.073,28.6479,52.597544400000004,-10.5424272,100.59996564,0.95683986,-61.95967812
3.44,344,0.382,-0.7829999999999999,-0.16699999999999998,21.0848544,59.58763199999999,-8.193299399999999,100.81768968,0.9167328000000001,-61.36380180000001
3.4499999999999997,345,0.491,-0.885,-0.312,6.5317212,63.6556338,-3.4950437999999995,100.83487842,0.86516658,-60.733548
3.46,346,0.526,-0.925,-0.404,-5.6722842,58.3271244,4.6409598,100.77758262,0.69327918,-60.18350832
3.4699999999999998,347,0.479,-0.918,-0.454,-12.9488508,49.388979600000006,17.7044022,100.6400727,0.41825934,-59.73660108
3.48,348,0.38,-0.903,-0.507,-16.386598799999998,33.3461556,30.93973200000001,100.47391488,0.04583664,-59.47876998
3.4899999999999998,349,0.272,-0.901,-0.614,-21.0848544,6.302537999999998,42.62807520000001,100.25619084000002,-0.38388186,-59.49595872
3.5,350,0.201,-0.908,-0.6579999999999999,-19.5378678,-22.8037284,50.76407879999999,100.02127806,-0.8193299399999999,-59.80535604000001
3.51,351,0.23,-0.969,-0.585,-11.8602306,-45.83664,52.712136,99.91814562,-1.24904844,-60.34393656
3.52,352,0.327,-1.121,-0.487,-2.6929026,-65.317212,47.269034999999995,99.91814562,-1.5813640800000002,-61.06013406
3.53,353,0.387,-1.33,-0.37,7.8495246,-83.4799806,35.0077338,100.03273722,-1.75898106,-61.93103021999999
3.54,354,0.358,-1.41,-0.28300000000000003,21.485925,-100.3822416,17.7044022,100.29629789999998,-1.7246035799999997,-62.93370672
3.55,355,0.187,-1.232,-0.086,41.1383844,-113.732163,0.6302538000000001,100.7546643,-1.4896908000000002,-64.02805649999999
3.56,356,-0.014,-0.951,0.161,59.014674,-111.72681,-7.5057497999999985,101.39064768,-1.1688343199999998,-65.08229922000001
3.57,357,-0.17,-0.782,0.29100000000000004,73.052145,-94.3088868,-11.2872726,102.16414098,-0.8422482600000001,-65.95892496
3.58,358,-0.222,-0.69,0.397,77.92228800000002,-71.1040878,-13.2926256,102.97201176000002,-0.53858052,-66.60063792000001
3.59,359,-0.262,-0.636,0.475,84.4540092,-53.1705024,-12.261301199999998,103.83717834,-0.27501984,-67.06473390000001
3.5999999999999996,360,-0.289,-0.7140000000000001,0.4370000000000001,89.03767320000001,-40.393539,-7.448453999999999,104.75964072,-0.10886202,-67.42569744
3.61,361,-0.358,-0.833,0.337,88.98037740000002,-29.9657034,2.4637194,105.66491436,-0.04583664,-67.70071728
3.6199999999999997,362,-0.435,-0.945,0.285,90.1835892,-20.3973048,15.4125702,106.58737674,-0.12605075999999998,-67.92417090000001
3.63,363,-0.4370000000000001,-1.014,0.256,88.35012359999997,-11.229976800000001,24.064235999999998,107.4869208,-0.31512690000000004,-68.09032872
3.6399999999999997,364,-0.339,-1.021,0.212,85.3134462,-5.2712136,26.69984280000001,108.35208738,-0.5443101,-68.21064989999999
3.65,365,-0.128,-1.015,0.009000000000000001,76.4325972,8.880849000000003,24.2361234,109.10266236,-0.8021412000000001,-68.19346116
3.6599999999999997,366,0.0,-0.8590000000000001,-0.018000000000000002,73.1667366,10.026765,19.194093,109.84750776,-1.01413566,-68.15908368000001
3.67,367,0.065,-0.713,-0.029,81.7611066,-2.8074942000000003,14.0947668,110.67829686,-1.13445684,-68.22210906000001
3.6799999999999997,368,0.108,-0.584,-0.016,88.9230816,-9.224623800000002,9.0527364,111.58357050000002,-1.18029348,-68.3252415
3.69,369,0.138,-0.519,-0.08,87.6052782,-15.2979786,4.5263682,112.47738498,-1.1573751600000002,-68.46848100000001
3.6999999999999997,370,0.173,-0.4370000000000001,-0.025,88.63660259999996,-18.3919518,2.291832,113.37119946,-1.0886202,-68.62890924
3.71,371,0.165,-0.429,0.054000000000000006,96.829902,-22.9756158,2.0053530000000004,114.3624168,-1.00840608,-68.82944454
3.7199999999999998,372,0.08,-0.472,0.139,101.8719324,-29.392745399999995,2.2345362,115.40520036,-0.89381448,-69.08727564
3.73,373,-0.03,-0.56,0.195,105.25238459999998,-29.335449600000004,3.2085648,116.4823614,-0.7849524600000001,-69.34510673999999
3.7399999999999998,374,-0.114,-0.662,0.175,102.6167778,-20.626488,4.6409598,117.53087454,-0.72765666,-69.5284533
3.75,375,-0.16699999999999998,-0.7140000000000001,0.18,97.5174516,-12.834259199999998,6.302537999999998,118.51063272000002,-0.73338624,-69.66023364
3.76,376,-0.181,-0.721,0.232,96.7726062,-8.880849000000003,8.078707799999998,119.49612048000002,-0.75630456,-69.7576365
3.77,377,-0.14800000000000002,-0.691,0.224,95.111028,-8.7089616,8.4224826,120.4644195,-0.7792228800000001,-69.86076894
3.78,378,-0.094,-0.652,0.21,89.4387438,-10.7143146,6.302537999999998,121.37542272,-0.7792228800000001,-69.96963095999999
3.79,379,-0.034,-0.613,0.17600000000000002,83.0216142,-10.5424272,3.3231564,122.21767098,-0.7448454000000001,-70.06130424
3.8,380,0.031,-0.5920000000000001,0.126,76.31800559999998,-7.8495246,0.057295800000000015,122.97970512,-0.69900876,-70.11860004
3.81,381,0.095,-0.5710000000000001,0.099,70.1300592,-7.161975,-2.4064236,123.69590262,-0.63598338,-70.15297752000001
3.82,382,0.138,-0.546,0.057,66.86419860000001,-10.0840608,-3.8961144,124.37199306,-0.55003968,-70.20454373999999
3.83,383,0.142,-0.507,0.031,67.26526919999999,-16.272007199999994,-4.297185,125.05954266,-0.41825934,-70.29621702
3.84,384,0.119,-0.461,0.08199999999999999,71.33327100000002,-21.4286292,-4.1825934,125.78719932,-0.25783110000000004,-70.43372694
3.8499999999999996,385,0.115,-0.444,0.061,72.82296179999999,-21.199446,-4.4690724,126.51485598,-0.08021412,-70.5597777
3.86,386,0.133,-0.4370000000000001,0.004,68.41118519999999,-20.340009,-5.0993262,127.21386474,0.07448454,-70.68009888
3.8699999999999997,387,0.14800000000000002,-0.431,-0.002,67.5517482,-25.0955604,-4.8701430000000006,127.90141434,0.26929026,-70.82906796
3.88,388,0.123,-0.419,0.045,73.96887779999999,-36.6120162,-4.1825934,128.65198932,0.53858052,-71.07543989999998
3.8899999999999997,389,0.069,-0.393,0.094,82.79243100000002,-47.7846972,-3.666931200000001,129.49996716,0.87089616,-71.39629638
3.9,390,0.026,-0.358,0.119,87.0323202,-51.68081160000001,-4.1825934,130.37086332,1.24331886,-71.74007118
3.9099999999999997,391,0.01,-0.31,0.14300000000000002,88.12094040000002,-49.5035712,-5.5576926,131.26467780000002,1.6157415599999996,-72.05519808
3.92,392,0.022,-0.261,0.16699999999999998,91.8451674,-45.8939358,-7.8495246,132.19859934000002,1.98243468,-72.31875876000002
3.9299999999999997,393,0.031,-0.234,0.241,96.9444936,-44.7480198,-10.1986524,133.17835752000002,2.36058696,-72.55367154000002
3.94,394,0.046,-0.23,0.28300000000000003,103.6481022,-42.34159620000001,-11.5737516,134.22687066,2.74446882,-72.75420684000002
3.9499999999999997,395,0.058,-0.232,0.277,109.0339074,-38.67466500000001,-10.4278356,135.33267959999998,3.0939732,-72.93182382
3.96,396,0.036000000000000004,-0.217,0.281,113.6748672,-36.4974246,-8.021412000000002,136.4785956,3.4091001000000003,-73.09798164
3.9699999999999998,397,-0.004,-0.224,0.266,118.0866438,-32.7159018,-6.875496000000001,137.67034824,3.6955791,-73.24695072
3.98,398,-0.012,-0.246,0.205,120.66495479999999,-25.78311,-5.5576926,138.89647836,3.9247623,-73.35581274
3.9899999999999998,399,-0.005,-0.252,0.165,119.17526399999998,-19.5378678,-4.1252976000000015,140.09969016,4.0966497,-73.43029728
4.0,400,0.016,-0.236,0.175,120.0919968,-16.329303,-2.4637194,141.31436112,4.23415962,-73.49332266
4.01,401,0.014,-0.235,0.307,121.1233212,-20.454600600000006,-0.8594370000000001,142.54049124,4.40031744,-73.59072552
4.02,402,0.01,-0.264,0.3720000000000001,121.0660254,-23.7204612,0.9167328,143.76089178,4.57793442,-73.71677628
4.03,403,0.003,-0.304,0.304,115.16455800000001,-19.308684600000007,4.1252976000000015,144.92399652,4.70971476,-73.84282704
4.04,404,-0.008,-0.274,0.231,107.0285544,-18.907614000000002,7.5057497999999985,146.00115756,4.81857678,-73.99179612
4.05,405,0.0,-0.208,0.226,98.7779592,-27.9603504,5.844171599999999,146.98664532,5.0133825000000005,-74.17514268
4.06,406,-0.005,-0.184,0.373,86.40206640000002,-43.544808,-1.8907613999999997,147.8518119,5.39153478,-74.3699484
4.07,407,-0.003,-0.155,0.5329999999999999,69.2706222,-56.9520252,-12.891555,148.54509108,5.94157446,-74.53610622
4.08,408,-0.039,-0.196,0.672,54.43101,-62.3951262,-23.14750320000001,149.09513076,6.5947465800000025,-74.63923866
4.09,409,-0.122,-0.377,0.908,40.5654264,-57.467687399999996,-31.3980984,149.51339009999995,7.2479187,-74.63923866
4.1,410,0.014,-0.731,0.775,24.4653066,-42.34159620000001,-27.2728008,149.73684372,7.746392160000001,-74.61059076000002
4.109999999999999,411,0.195,-0.838,0.7040000000000001,13.5791046,-59.53033620000001,-23.777757,149.86862406,8.382375540000002,-74.68507530000002
4.12,412,0.293,-1.136,1.524,42.05511720000001,-76.4325972,-2.4637194,150.2582355,9.05846598,-75.02312051999998
4.13,413,1.358,-0.648,3.737,956.266902,-125.191323,18.334656,159.8839299,10.0554129,-75.55597146
4.14,414,-1.009,-1.371,2.66,-174.465711,127.8269298,38.3308902,158.1077601,8.74333908,-75.51013481999998
4.1499999999999995,415,1.158,-1.023,2.6260000000000003,-20.340009,129.8322828,-7.2192707999999985,157.95306144,7.56877518,-74.98874304
4.16,416,0.121,-1.599,3.999,114.4770084,41.1383844,4.3544808,159.12762534,7.161975,-74.87988102
4.17,417,0.29600000000000004,-2.22,3.999,104.0491728,34.60666320000001,12.4904844,160.18186806,6.7895523,-74.87415144
4.18,418,0.422,-2.1590000000000003,3.999,80.90166959999998,-2.0626488000000003,11.5737516,160.98973884,6.76663398,-74.97728388
4.1899999999999995,419,0.489,-1.69,3.924,70.5884256,-39.7059894,0.0,161.70020676,7.1333271000000025,-75.08614589999998
4.2,420,0.353,-1.334,3.5210000000000004,79.81304940000003,-39.19032720000001,-8.7089616,162.50807754,7.5286681200000025,-75.10333464
4.21,421,0.225,-0.925,2.992,95.3402112,-26.9863218,-13.2353298,163.48783572,7.8151471200000024,-75.03457968000002
4.22,422,0.1,-0.489,2.357,98.548776,-25.3820394,-16.157415599999997,164.50770096,8.09016696,-74.93144724
4.2299999999999995,423,0.163,-0.308,1.937,97.4601558,-23.14750320000001,-16.501190400000002,165.51610704,8.34799806,-74.81685564
4.24,424,0.229,-0.364,1.471,95.7985776,-29.4500412,-15.2406828,166.50732438,8.65739538,-74.71945278000003
4.25,425,0.133,-0.364,1.053,113.159205,-30.7105488,-12.834259199999998,167.66469954000004,8.97252228,-74.64496824
4.26,426,0.051,-0.339,0.902,139.45797720000002,-27.903054600000004,-11.8602306,169.09709454,9.2532717,-74.55902454
4.27,427,0.136,-0.298,0.906,153.55274400000005,-23.7204612,-12.6623718,170.67272903999995,9.49391406,-74.4558921
4.28,428,0.136,-0.165,0.821,154.69866000000005,-14.266654199999998,-13.6936962,172.27128186,9.63715356,-74.32411176
4.29,429,0.086,-0.081,0.716,149.255559,-9.167328,-15.5844576,173.81253887999995,9.72882684,-74.15795394
4.3,430,0.061,-0.127,0.7070000000000001,144.6145992,-12.032117999999999,-19.938938399999998,175.31368884,9.84914802,-73.95741863999999
4.31,431,0.105,-0.081,0.778,139.45797720000002,-20.05353,-26.642547,176.77473174000005,10.04968332,-73.6823988
4.32,432,0.106,-0.08,0.7390000000000001,139.6871604,-23.777757,-30.4240698,178.25296338,10.2845961,-73.3672719
4.33,433,0.28,-0.159,0.551,154.81325159999997,-33.231564,-37.4714532,179.89735284,10.599723,-72.97193088
4.34,434,-0.067,-0.836,0.769,146.6199522,-33.74722620000001,-74.02617359999998,-178.45922825999997,10.90339074,-72.19843758
4.35,435,-0.07200000000000001,-0.979,0.736,110.580894,-17.0741484,-56.2644756,-177.26747562,11.02371192,-71.61975
4.36,436,-0.154,-1.118,0.7,68.6976642,3.8961144,-26.929026,-176.51690064,10.96068654,-71.34473016
4.37,437,0.07,-0.342,0.568,47.3263308,11.172681,-20.626488,-176.00123844,10.83463578,-71.14419486
4.38,438,0.135,0.127,0.462,31.2835068,10.7716104,-28.1895336,-175.63454532,10.70285544,-70.86917502
4.39,439,0.073,-0.035,0.495,11.9748222,12.261301199999998,-28.361421000000004,-175.46265792,10.55961594,-70.59415518
4.3999999999999995,440,0.21,0.532,0.28,10.1413566,2.8074942000000003,-36.32553720000001,-175.16471976,10.53669762,-70.20454373999999
4.41,441,0.182,0.585,0.359,26.8717302,-10.313244,-38.5027776,-174.81521537999996,10.599723,-69.80347314
4.42,442,0.191,0.435,0.412,30.366774000000003,-23.6631654,-46.2377106,-174.41414478,10.78306956,-69.30499968000001
4.43,443,0.254,0.091,0.485,17.8189938,-16.902261,-42.05511720000001,-174.14485452,10.90339074,-68.85809244000001
4.4399999999999995,444,0.294,-0.123,0.603,12.834259199999998,-7.5630456000000015,-28.5906042,-173.96150796,10.9434978,-68.56015427999999
4.45,445,0.322,0.645,0.642,34.60666320000001,1.3178034,-8.651665800000002,-173.57189652,10.932038639999998,-68.46848100000001
4.46,446,0.14,0.075,0.852,28.8770832,8.307891,-2.86479,-173.27395836,10.84609494,-68.44556268
4.47,447,0.133,0.163,1.014,-12.5477802,23.3193906,-0.11459160000000003,-173.41146827999995,10.61691174,-68.47994016
4.4799999999999995,448,0.192,0.482,1.003,7.2765666,24.8663772,3.666931200000001,-173.35417248000005,10.37626938,-68.5544247
4.49,449,0.231,0.159,1.134,-8.479778399999999,23.5485738,3.0939732,-173.45157534,10.15281576,-68.61745008
4.5,450,0.185,0.256,1.22,-15.2406828,18.048177,1.0313244,-173.60627399999996,9.9694692,-68.65755714000001
4.51,451,0.213,0.275,1.237,-26.69984280000001,16.615782,-0.6302538000000001,-173.88129383999996,9.80904096,-68.67474588
4.52,452,0.215,0.293,1.278,-27.3873924,14.7823164,-1.0886202,-174.16777284,9.66580146,-68.68620503999999
4.53,453,0.249,0.28300000000000003,1.298,-27.1582092,13.8655836,-1.3750992,-174.44279268,9.53402112,-68.68620503999999
4.54,454,0.201,0.293,1.317,-25.553926800000006,11.688343199999998,-1.432395,-174.70635336,9.41942952,-68.69193462000001
4.55,455,0.155,0.316,1.329,-23.032911600000002,10.7143146,-1.2605076000000002,-174.92980698,9.3105675,-68.69193462000001
4.56,456,0.14,0.254,1.344,-20.3973048,11.6310474,-0.3437748,-175.14180144000005,9.20170548,-68.70339378
4.57,457,0.147,0.142,1.364,-20.454600600000006,12.834259199999998,0.3437748,-175.3537959,9.07565472,-68.72058252
4.58,458,0.131,0.048,1.338,-22.2880662,14.037471,0.8594370000000001,-175.5829791,8.94387438,-68.74923042
4.59,459,0.135,-0.028,1.253,-20.8556712,14.495837400000001,1.3750992,-175.80643272,8.80063488,-68.77787832
4.6,460,0.161,-0.063,1.164,-17.0168526,13.750992000000002,2.0626488000000003,-176.0126976,8.66885454,-68.81798538
4.61,461,0.155,-0.077,1.09,-12.032117999999999,13.178034,2.4637194,-176.14447794,8.542803780000002,-68.85809244000001
4.62,462,0.135,-0.053,1.029,-7.6203414,12.6623718,2.6929026,-176.23042163999997,8.422482599999999,-68.8981995
4.63,463,0.12,-0.017,0.988,-4.1825934,11.45916,2.86479,-176.27625827999995,8.307891,-68.93257698
4.64,464,0.119,0.013,0.964,-2.0053530000000004,10.0840608,3.3804522000000006,-176.30490618000005,8.21621772,-68.97841362
4.6499999999999995,465,0.109,-0.035,0.951,-0.7448454000000001,9.453807000000001,3.9534102,-176.38512029999995,8.11308528,-69.03570942
4.66,466,0.123,-0.015,0.964,0.6302538000000001,8.250595200000001,3.8388186,-176.38512029999995,8.03287116,-69.08154606000001
4.67,467,0.12,-0.04,0.954,-0.22918320000000006,7.6203414,3.9534102,-176.39657946,7.9583866200000015,-69.13311228
4.68,468,0.108,-0.041,0.922,-2.4637194,7.2765666,4.010706000000001,-176.43095694,7.889631660000001,-69.17894892
4.6899999999999995,469,0.136,-0.031,0.917,-4.4690724,6.9327918,3.8961144,-176.48252316,7.82660628,-69.22478556000002
4.7,470,0.114,0.004,0.914,-5.6149884000000005,6.990087599999999,3.8961144,-176.56846686,7.75785132,-69.2706222
4.71,471,0.108,0.006999999999999999,0.902,-8.021412000000002,6.6463128000000005,3.8388186,-176.65441056,7.6948259399999985,-69.31645884000001
4.72,472,0.11,0.013,0.882,-10.4278356,6.3598338,3.5523396000000003,-176.76900216,7.63753014,-69.36229548
4.7299999999999995,473,0.119,0.011,0.8809999999999999,-12.6623718,6.130650599999999,3.2085648,-176.90651208000003,7.58023434,-69.39667296
4.74,474,0.107,-0.015,0.901,-16.1001198,5.72958,2.86479,-177.0726699,7.52293854,-69.43105044
4.75,475,0.095,0.006,0.923,-17.475219,6.2452422,2.0626488000000003,-177.26747562,7.459913160000001,-69.45969834
4.76,476,0.116,0.01,0.969,-17.475219,6.3598338,1.7761698,-177.45082218,7.4026173600000025,-69.48834624
4.77,477,0.093,-0.029,1.025,-17.761698000000006,6.5317212,2.2345362,-177.63416874,7.33959198,-69.51699414
4.78,478,0.128,-0.051,1.031,-17.8762896,5.6149884000000005,3.5523396000000003,-177.82324488,7.288025760000001,-69.5571012
4.79,479,0.193,-0.046,0.98,-16.7876694,1.3750992,4.1252976000000015,-177.99513227999995,7.2765666,-69.59720826
4.8,480,0.18,-0.005,0.954,-14.8396122,-1.145916,3.9534102,-178.16701968,7.31094408,-69.63731532
4.81,481,0.101,-0.019,0.993,-13.0061466,-0.286479,3.3804522000000006,-178.3045296,7.3166736599999975,-69.6716928
4.82,482,0.08,-0.025,1.046,-9.740286,5.72958,2.6356068,-178.40766204000005,7.265107439999999,-69.70607028
4.83,483,0.117,-0.039,1.073,-7.7349330000000025,10.4851314,1.9480572,-178.49360574,7.161975,-69.72898860000001
4.84,484,0.134,-0.045,1.103,-5.72958,14.8396122,1.4896908000000002,-178.55663112,7.01300592,-69.75190692
4.85,485,0.118,-0.05,1.099,-4.3544808,17.8762896,2.0626488000000003,-178.63111566,6.8411185199999975,-69.7862844
4.86,486,0.107,-0.054000000000000006,1.074,-3.3231564,17.9908812,2.6929026,-178.67122272,6.66350154,-69.82639146
4.87,487,0.122,-0.035,1.032,-3.2658606,18.907614000000002,2.6356068,-178.71132977999997,6.474425399999999,-69.86076894
4.88,488,0.124,-0.032,1.027,-3.4950437999999995,21.1421502,2.578311,-178.75716642,6.26816052,-69.89514642
4.89,489,0.106,-0.033,1.024,-4.010706000000001,23.032911600000002,2.4064236,-178.80300306,6.0447069,-69.93525348
4.8999999999999995,490,0.095,-0.034,0.994,-4.6409598,24.2934192,1.9480572,-178.87175802000004,5.80406454,-69.96390138000001
4.91,491,0.095,-0.043,0.977,-4.0680017999999984,26.1841806,1.4896908000000002,-178.92332424,5.54623344,-69.99254927999999
4.92,492,0.084,-0.045,0.978,-3.7815227999999994,28.2468294,1.2032118,-178.96916088,5.2654840200000015,-70.02119718
4.93,493,0.08900000000000001,-0.037000000000000005,0.997,-3.7815227999999994,28.361421000000004,0.9740286,-179.00926794,4.9847346,-70.0441155
4.9399999999999995,494,0.073,-0.042,0.989,-4.6409598,27.6165756,0.6875496,-179.06656374,4.71544434,-70.06130424
4.95,495,0.059,-0.06,0.967,-5.3858052,25.210152,0.7448454000000001,-179.14677786,4.46334282,-70.08422256
4.96,496,0.065,-0.044,0.953,-3.8388186,23.9496444,0.5156622000000001,-179.1926145,4.22843004,-70.1014113
4.97,497,0.07,-0.034,0.957,-2.8074942000000003,23.6058696,0.11459160000000003,-179.22699198,3.99351726,-70.11287046
4.9799999999999995,498,0.057,-0.041,0.972,-2.2345362,20.626488,-0.3437748,-179.2499103,3.78725238,-70.11287046
4.99,499,0.045,0.037000000000000005,0.974,-0.9167328,17.589810600000003,-0.4583664000000001,-179.26136946,3.61536498,-70.11860004
5.0,500,0.025,0.485,0.939,3.0939732,15.527161800000002,2.0626488000000003,-179.01499752,3.45493674,-70.13578878
5.01,501,0.064,-0.01,0.893,-7.6203414,12.032117999999999,2.6929026,-179.09521164,3.34034514,-70.16443668000001
5.02,502,0.067,-0.509,1.004,-15.756345000000001,6.2452422,-0.286479,-179.25563988000005,3.27731976,-70.17016626
5.03,503,-0.037000000000000005,-0.454,1.082,-6.4744254,4.0680017999999984,-1.4896908000000002,-179.32439484,3.2372127,-70.15297752000001
5.04,504,-0.073,-0.329,1.086,2.0626488000000003,14.381245800000002,-3.7815227999999994,-179.30147652,3.0939732,-70.12432962
5.05,505,0.13,0.092,1.031,10.1413566,18.2773602,-3.9534102,-179.16969618000005,2.94500412,-70.08422256
5.06,506,0.081,0.063,1.006,11.6310474,15.870936600000002,-2.8074942000000003,-179.05510458,2.78457588,-70.06130424
5.07,507,-0.02,0.002,1.008,8.3651868,11.4018642,-0.5156622000000001,-178.96916088,2.6699842800000004,-70.06130424
5.08,508,0.049,0.038,1.036,7.2192707999999985,5.844171599999999,0.0,-178.90040592,2.61268848,-70.06130424
5.09,509,0.08199999999999999,0.004,1.053,6.4744254,2.2345362,-0.4010706,-178.83165096,2.58977016,-70.06130424
5.1,510,0.036000000000000004,-0.026,1.072,5.958763200000001,0.057295800000000015,-0.4583664000000001,-178.80300306,2.5611222600000003,-70.06130424
5.11,511,-0.003,0.016,1.054,6.990087599999999,0.4583664000000001,-0.1718874,-178.7342481,2.55539268,-70.05557466
5.12,512,0.008,-0.027000000000000003,1.032,7.0473834,0.6875496,-0.8594370000000001,-178.65976356,2.54393352,-70.04984508
5.13,513,0.045,-0.053,1.019,7.448453999999999,-0.6875496,-1.2032118,-178.58527902,2.55539268,-70.03265634
5.14,514,0.045,-0.062,1.024,8.651665800000002,-3.2658606,-1.2032118,-178.49933532,2.58404058,-70.02119718
5.1499999999999995,515,0.012,-0.013,1.032,9.3965112,-2.9793816000000004,-0.9740286,-178.41912119999995,2.58404058,-70.00973802
5.16,516,0.019,-0.002,1.026,8.7662574,-1.7761698,-0.8021411999999999,-178.33317749999995,2.6012293200000003,-69.99827886
5.17,517,0.036000000000000004,-0.045,1.021,7.3911582,-0.6875496,-0.8594370000000001,-178.25296338,2.6069589,-69.99254927999999
5.18,518,0.024,-0.059,1.016,6.302537999999998,0.057295800000000015,-0.8594370000000001,-178.18993799999996,2.6069589,-69.98109012
5.1899999999999995,519,0.023,-0.036000000000000004,1.008,5.9014674000000005,0.4010706,-0.7448454000000001,-178.13264220000005,2.6012293200000003,-69.97536054
5.2,520,0.035,-0.002,0.994,5.1566220000000005,0.9167328,-0.5156622000000001,-178.12118304,2.58404058,-69.96963095999999
5.21,521,0.037000000000000005,0.013,0.97,3.7815227999999994,1.432395,-0.22918320000000006,-178.08107597999995,2.56685184,-69.96963095999999
5.22,522,0.022,-0.037000000000000005,0.964,0.8021411999999999,1.2605076000000002,-0.286479,-178.07534640000003,2.55539268,-69.96390138000001
5.2299999999999995,523,0.019,-0.034,0.977,-0.286479,0.6875496,-0.3437748,-178.07534640000003,2.5496631,-69.96390138000001
5.24,524,0.024,0.002,0.981,-0.572958,0.11459160000000003,-0.057295800000000015,-178.08107597999995,2.54393352,-69.96390138000001
5.25,525,0.021,-0.006999999999999999,0.983,-1.145916,-0.22918320000000006,0.0,-178.29307044,2.48090814,-69.97536054
5.26,526,0.025,-0.024,0.992,-1.0886202,-1.3178034,0.11459160000000003,-178.3045296,2.4923673,-69.98109012
5.27,527,0.031,-0.023,1.006,-0.8021411999999999,-2.7501984,0.11459160000000003,-178.31598876,2.5210152000000003,-69.98109012
5.28,528,0.032,-0.022,1.022,-0.9167328,-4.297185,0.22918320000000006,-178.32171834000005,2.5611222600000003,-69.98109012
5.29,529,0.032,-0.024,1.037,-0.572958,-5.2712136,0.3437748,-178.32744792,2.61268848,-69.98109012
5.3,530,0.035,-0.022,1.042,0.0,-5.6149884000000005,0.572958,-178.40766204000005,2.65852512,-69.9868197
5.31,531,0.035,-0.024,1.041,0.0,-5.6722842,0.6302538000000001,-178.40193246,2.71582092,-69.9868197
5.32,532,0.036000000000000004,-0.025,1.04,0.11459160000000003,-5.5003968,0.6302538000000001,-178.40193246,2.77311672,-69.99254927999999
5.33,533,0.04,-0.028,1.037,0.1718874,-5.3285094000000015,0.6875496,-178.40193246,2.82468294,-69.99827886
5.34,534,0.037000000000000005,-0.026,1.031,0.11459160000000003,-5.0993262,0.6875496,-178.39620287999998,2.87624916,-69.99827886
5.35,535,0.039,-0.023,1.022,0.0,-4.8701430000000006,0.6302538000000001,-178.48787615999996,2.91062664,-70.00973802
5.36,536,0.041,-0.022,1.016,0.0,-4.8701430000000006,0.6302538000000001,-178.48787615999996,2.9564632800000004,-70.0154676
5.37,537,0.043,-0.024,1.01,0.11459160000000003,-5.042030400000002,0.6302538000000001,-178.48787615999996,3.0080295,-70.0154676
5.38,538,0.041,-0.028,1.01,0.1718874,-5.2712136,0.5156622000000001,-178.48214658,3.05959572,-70.02119718
5.39,539,0.04,-0.029,1.009,0.1718874,-5.2139178,0.4583664000000001,-178.48214658,3.11116194,-70.02119718
5.3999999999999995,540,0.042,-0.025,1.005,0.0,-4.9274388,0.4010706,-178.57381986,3.151269,-70.03265634
5.41,541,0.044,-0.024,1.001,-0.057295800000000015,-4.6409598,0.3437748,-178.57381986,3.19710564,-70.03265634
5.42,542,0.047,-0.021,0.999,-0.11459160000000003,-4.5263682,0.22918320000000006,-178.57381986,3.24294228,-70.03265634
5.43,543,0.047,-0.019,1.002,-0.286479,-4.4690724,0.22918320000000006,-178.57381986,3.28304934,-70.03265634
5.4399999999999995,544,0.047,-0.02,1.008,-0.5156622000000001,-4.583664,0.286479,-178.57954944,3.32888598,-70.03265634
5.45,545,0.049,-0.02,1.013,-0.5156622000000001,-4.6409598,0.286479,-178.66549314,3.36326346,-70.03838592
5.46,546,0.05,-0.019,1.016,-0.5156622000000001,-4.7555514,0.22918320000000006,-178.67122272,3.4148296799999995,-70.03838592
5.47,547,0.052000000000000005,-0.017,1.02,-0.22918320000000006,-4.9847345999999995,0.286479,-178.67122272,3.46066632,-70.03838592
5.4799999999999995,548,0.051,-0.017,1.022,0.0,-4.8701430000000006,0.22918320000000006,-178.67122272,3.5122325400000003,-70.03838592
5.49,549,0.051,-0.019,1.024,0.057295800000000015,-4.8701430000000006,0.22918320000000006,-178.67122272,3.5580691799999995,-70.03838592
5.5,550,0.051,-0.019,1.027,0.286479,-4.8128472,0.1718874,-178.73997768,3.59244666,-70.0441155
5.51,551,0.052000000000000005,-0.018000000000000002,1.027,0.286479,-4.583664,0.11459160000000003,-178.73997768,3.6382833,-70.0441155
5.52,552,0.053,-0.021,1.029,0.4010706,-4.297185,0.057295800000000015,-178.7342481,3.67839036,-70.0441155
5.53,553,0.054000000000000006,-0.019,1.028,0.4010706,-3.8388186,0.11459160000000003,-178.72851852,3.71849742,-70.0441155
5.54,554,0.056,-0.02,1.026,0.5156622000000001,-3.3231564,0.0,-178.72278894000004,3.74714532,-70.03838592
5.55,555,0.056,-0.02,1.025,0.5156622000000001,-2.6929026,0.0,-178.83738054,3.752874900000001,-70.04984508
5.56,556,0.058,-0.021,1.024,0.572958,-2.0626488000000003,0.0,-178.82592138,3.77579322,-70.04984508
5.57,557,0.057,-0.02,1.022,0.572958,-1.432395,0.0,-178.8201918,3.78725238,-70.0441155
5.58,558,0.057,-0.018000000000000002,1.022,0.4010706,-0.9740286,0.0,-178.8201918,3.79871154,-70.0441155
5.59,559,0.058,-0.018000000000000002,1.019,0.1718874,-0.4010706,0.0,-178.81446222,3.80444112,-70.0441155
5.6,560,0.055,-0.019,1.014,0.057295800000000015,0.0,0.057295800000000015,-179.89162326,3.5122325400000003,-70.14151836
5.61,561,0.057,-0.019,1.007,0.0,0.22918320000000006,0.11459160000000003,-179.89162326,3.50650296,-70.14151836
5.62,562,0.057,-0.019,1.006,-0.1718874,0.3437748,0.11459160000000003,-179.89735284,3.50650296,-70.14151836
5.63,563,0.057,-0.017,1.009,-0.286479,0.5156622000000001,0.1718874,-179.89735284,3.50077338,-70.14724794
5.64,564,0.055,-0.02,1.013,-0.1718874,0.4583664000000001,0.11459160000000003,-179.90308242,3.4950437999999995,-70.14724794
5.6499999999999995,565,0.056,-0.021,1.015,-0.11459160000000003,0.4010706,0.1718874,179.85724578,3.4663959,-70.16443668000001
5.66,566,0.055,-0.023,1.018,0.0,0.4583664000000001,0.1718874,179.85724578,3.4663959,-70.16443668000001
5.67,567,0.056,-0.022,1.018,0.057295800000000015,0.5156622000000001,0.1718874,179.85724578,3.46066632,-70.16443668000001
5.68,568,0.056,-0.023,1.022,0.1718874,0.4583664000000001,0.11459160000000003,179.85724578,3.45493674,-70.17016626
5.6899999999999995,569,0.057,-0.024,1.025,0.4010706,0.5156622000000001,0.11459160000000003,179.86297536,3.4492071599999994,-70.17016626
5.7,570,0.056,-0.023,1.025,0.572958,0.5156622000000001,0.11459160000000003,179.75411334,3.43201842,-70.17589584
5.71,571,0.055,-0.022,1.023,0.6302538000000001,0.6302538000000001,0.057295800000000015,179.75984291999995,3.42628884,-70.18162542
5.72,572,0.054000000000000006,-0.022,1.023,0.572958,0.7448454000000001,0.11459160000000003,179.76557250000005,3.42055926,-70.18162542
5.7299999999999995,573,0.054000000000000006,-0.021,1.021,0.4010706,0.8021411999999999,0.057295800000000015,179.77130208,3.4091001000000003,-70.18162542
5.74,574,0.054000000000000006,-0.019,1.02,0.0,0.8594370000000001,0.0,179.77130208,3.40337052,-70.18162542
5.75,575,0.053,-0.018000000000000002,1.016,-0.1718874,0.9167328,0.11459160000000003,179.68535838,3.3804522000000006,-70.18735500000001
5.76,576,0.052000000000000005,-0.019,1.014,-0.11459160000000003,1.145916,0.0,179.68535838,3.3689930400000003,-70.18735500000001
5.77,577,0.053,-0.019,1.009,0.0,1.5469866,0.057295800000000015,179.68535838,3.3518043,-70.19308457999999
5.78,578,0.054000000000000006,-0.018000000000000002,1.006,0.1718874,1.8907613999999997,0.11459160000000003,179.68535838,3.33461556,-70.19308457999999
5.79,579,0.053,-0.019,1.008,0.1718874,2.0626488000000003,0.057295800000000015,179.69108795999998,3.3116972399999995,-70.19308457999999
5.8,580,0.051,-0.018000000000000002,1.011,0.1718874,2.0053530000000004,0.0,179.63379216,3.27731976,-70.19881416000001
5.81,581,0.051,-0.018000000000000002,1.017,0.057295800000000015,1.5469866,0.0,179.63952174000005,3.26013102,-70.19881416000001
5.82,582,0.05,-0.02,1.022,0.0,1.3750992,0.057295800000000015,179.63379216,3.2486718599999995,-70.19881416000001
5.83,583,0.05,-0.019,1.023,0.1718874,1.3750992,0.0,179.63952174000005,3.2372127,-70.20454373999999
5.84,584,0.048,-0.019,1.022,0.11459160000000003,1.432395,0.057295800000000015,179.63952174000005,3.22002396,-70.20454373999999
5.85,585,0.051,-0.019,1.02,0.1718874,1.3750992,0.0,179.57649636,3.19710564,-70.20454373999999
5.86,586,0.051,-0.019,1.02,0.286479,1.145916,0.0,179.57649636,3.18564648,-70.21027332
5.87,587,0.05,-0.019,1.018,0.22918320000000006,0.8594370000000001,0.057295800000000015,179.58222594,3.1741873200000006,-70.21027332
5.88,588,0.049,-0.018000000000000002,1.016,0.1718874,0.6302538000000001,0.0,179.58222594,3.16845774,-70.21027332
5.89,589,0.049,-0.018000000000000002,1.012,0.1718874,0.3437748,0.0,179.58222594,3.16845774,-70.21027332
5.8999999999999995,590,0.049,-0.018000000000000002,1.013,0.1718874,0.11459160000000003,0.057295800000000015,179.28428778,3.0653253000000005,-70.23319164
5.91,591,0.048,-0.018000000000000002,1.012,0.1718874,-0.057295800000000015,0.057295800000000015,179.28428778,3.0653253000000005,-70.23319164
5.92,592,0.048,-0.019,1.013,0.1718874,-0.286479,0.0,179.28428778,3.0653253000000005,-70.23892122
5.93,593,0.048,-0.017,1.015,0.22918320000000006,-0.4010706,0.0,179.29001736,3.07105488,-70.23892122
5.9399999999999995,594,0.049,-0.018000000000000002,1.013,0.11459160000000003,-0.572958,0.057295800000000015,179.29001736,3.07678446,-70.23892122
5.95,595,0.049,-0.017,1.013,0.11459160000000003,-0.6875496,0.11459160000000003,179.24418071999997,3.0653253000000005,-70.24465079999999
5.96,596,0.05,-0.018000000000000002,1.015,0.11459160000000003,-0.6875496,0.11459160000000003,179.24418071999997,3.07105488,-70.24465079999999
5.97,597,0.05,-0.019,1.016,0.057295800000000015,-0.8021411999999999,0.11459160000000003,179.2499103,3.0825140400000004,-70.24465079999999
5.9799999999999995,598,0.05,-0.019,1.017,0.057295800000000015,-0.8594370000000001,0.11459160000000003,179.2499103,3.08824362,-70.24465079999999
5.99,599,0.051,-0.02,1.016,0.0,-0.9740286,0.057295800000000015,179.2499103,3.0997027800000003,-70.24465079999999
6.0,600,0.05,-0.019,1.017,0.0,-0.9167328,0.057295800000000015,179.20407366,3.1054323600000004,-70.25038038
6.01,601,0.05,-0.018000000000000002,1.017,0.0,-1.0313244,0.057295800000000015,179.20407366,3.11689152,-70.25038038
6.02,602,0.051,-0.019,1.016,0.057295800000000015,-0.9740286,0.11459160000000003,179.20980324,3.12835068,-70.25038038
6.03,603,0.051,-0.018000000000000002,1.015,0.1718874,-1.0313244,0.057295800000000015,179.20980324,3.13408026,-70.25038038
6.04,604,0.052000000000000005,-0.018000000000000002,1.017,0.1718874,-1.0313244,0.11459160000000003,179.20980324,3.14553942,-70.25610996
6.05,605,0.05,-0.018000000000000002,1.018,0.057295800000000015,-1.0886202,0.057295800000000015,179.18115533999998,3.14553942,-70.25610996
6.06,606,0.052000000000000005,-0.018000000000000002,1.018,0.057295800000000015,-1.145916,0.057295800000000015,179.18115533999998,3.15699858,-70.25610996
6.07,607,0.052000000000000005,-0.018000000000000002,1.018,0.1718874,-1.0886202,0.1718874,179.18115533999998,3.16845774,-70.26183954
6.08,608,0.053,-0.018000000000000002,1.018,0.1718874,-1.0886202,0.057295800000000015,179.18115533999998,3.1799169000000003,-70.26183954
6.09,609,0.052000000000000005,-0.018000000000000002,1.017,0.1718874,-0.9740286,0.11459160000000003,179.18688492,3.1913760600000005,-70.26183954
6.1,610,0.053,-0.017,1.016,0.057295800000000015,-0.9167328,0.057295800000000015,179.14104828,3.19710564,-70.26756911999999
6.11,611,0.052000000000000005,-0.017,1.016,0.1718874,-0.8594370000000001,0.0,179.14677786,3.2085648000000004,-70.26756911999999
6.12,612,0.053,-0.017,1.018,0.11459160000000003,-0.7448454000000001,0.0,179.14677786,3.214294380000001,-70.26756911999999
6.13,613,0.053,-0.017,1.019,0.286479,-0.6875496,0.057295800000000015,179.14677786,3.22002396,-70.26756911999999
6.14,614,0.054000000000000006,-0.018000000000000002,1.018,0.286479,-0.572958,0.057295800000000015,179.15250744,3.2257535399999995,-70.26756911999999
6.15,615,0.053,-0.016,1.018,0.22918320000000006,-0.286479,0.057295800000000015,179.11240038,3.22002396,-70.27329870000001
6.16,616,0.053,-0.016,1.018,0.286479,-0.1718874,0.11459160000000003,179.11240038,3.22002396,-70.27329870000001
6.17,617,0.055,-0.016,1.018,0.22918320000000006,-0.057295800000000015,0.0,179.11812996,3.2257535399999995,-70.27329870000001
6.18,618,0.053,-0.015,1.018,0.1718874,0.0,0.0,179.11812996,3.2257535399999995,-70.27329870000001
6.1899999999999995,619,0.054000000000000006,-0.016,1.017,0.1718874,0.057295800000000015,0.11459160000000003,179.11812996,3.22002396,-70.27329870000001
6.2,620,0.053,-0.016,1.018,0.1718874,0.11459160000000003,0.0,179.07229332000003,3.2085648000000004,-70.27902828
6.21,621,0.053,-0.016,1.019,0.11459160000000003,0.3437748,0.0,179.07229332000003,3.20283522,-70.27902828
6.22,622,0.053,-0.017,1.02,0.22918320000000006,0.4010706,0.0,179.0780229,3.20283522,-70.27902828
6.2299999999999995,623,0.053,-0.016,1.02,0.22918320000000006,0.572958,0.0,179.0780229,3.19710564,-70.27902828
6.24,624,0.052000000000000005,-0.017,1.017,0.22918320000000006,0.572958,0.0,179.08375248,3.18564648,-70.27902828
6.25,625,0.052000000000000005,-0.016,1.017,0.3437748,0.572958,0.0,179.06083415999996,3.1741873200000006,-70.28475786
6.26,626,0.053,-0.017,1.017,0.1718874,0.6302538000000001,0.057295800000000015,179.06083415999996,3.16845774,-70.28475786
6.27,627,0.053,-0.016,1.015,0.286479,0.6302538000000001,0.057295800000000015,179.06656374,3.1627281600000003,-70.28475786
6.28,628,0.051,-0.016,1.016,0.3437748,0.5156622000000001,0.0,179.07229332000003,3.15699858,-70.28475786
6.29,629,0.051,-0.016,1.018,0.3437748,0.4010706,0.11459160000000003,179.07229332000003,3.151269,-70.28475786
6.3,630,0.051,-0.015,1.016,0.057295800000000015,0.3437748,0.0,179.03791584,3.12835068,-70.29048744
6.31,631,0.051,-0.015,1.015,0.057295800000000015,0.11459160000000003,0.057295800000000015,179.03791584,3.1226211000000004,-70.29048744
6.32,632,0.052000000000000005,-0.014,1.015,0.11459160000000003,0.11459160000000003,0.11459160000000003,179.03791584,3.1226211000000004,-70.29621702
6.33,633,0.052000000000000005,-0.015,1.013,0.286479,0.11459160000000003,0.057295800000000015,179.04364542,3.1226211000000004,-70.29621702
6.34,634,0.051,-0.017,1.013,0.5156622000000001,0.286479,0.11459160000000003,179.049375,3.11689152,-70.29621702
6.35,635,0.05,-0.017,1.016,0.5156622000000001,0.286479,0.057295800000000015,179.02645668,3.1054323600000004,-70.3019466
6.36,636,0.05,-0.017,1.02,0.1718874,0.1718874,0.057295800000000015,179.02645668,3.1054323600000004,-70.3019466
6.37,637,0.051,-0.017,1.023,0.0,-0.3437748,0.1718874,179.02645668,3.1054323600000004,-70.3019466
6.38,638,0.051,-0.017,1.024,0.0,-0.572958,0.11459160000000003,179.02645668,3.11116194,-70.3019466
6.39,639,0.05,-0.018000000000000002,1.022,-0.11459160000000003,-0.1718874,0.11459160000000003,179.02645668,3.11689152,-70.30767618000002
6.4,640,0.051,-0.017,1.017,-0.057295800000000015,-0.11459160000000003,0.1718874,178.96916088,3.11116194,-70.30767618000002
6.41,641,0.051,-0.015,1.014,0.0,-0.1718874,0.057295800000000015,178.96916088,3.11116194,-70.31340576
6.42,642,0.049,-0.014,1.015,0.11459160000000003,-0.11459160000000003,0.057295800000000015,178.97489045999995,3.11116194,-70.31340576
6.43,643,0.049,-0.014,1.014,0.11459160000000003,-0.1718874,0.11459160000000003,178.97489045999995,3.11116194,-70.31340576
6.4399999999999995,644,0.05,-0.013,1.012,0.11459160000000003,-0.22918320000000006,0.11459160000000003,178.97489045999995,3.11689152,-70.31340576
6.45,645,0.051,-0.013,1.012,0.057295800000000015,-0.4010706,0.11459160000000003,178.96916088,3.11689152,-70.31340576
6.46,646,0.051,-0.015,1.013,0.11459160000000003,-0.4583664000000001,0.11459160000000003,178.96916088,3.1226211000000004,-70.31913534
6.47,647,0.051,-0.014,1.015,0.057295800000000015,-0.4010706,0.057295800000000015,178.96916088,3.12835068,-70.31913534
6.4799999999999995,648,0.051,-0.015,1.017,0.057295800000000015,-0.4010706,0.11459160000000003,178.96916088,3.12835068,-70.31913534
6.49,649,0.05,-0.015,1.019,0.057295800000000015,-0.4583664000000001,0.11459160000000003,178.97489045999995,3.13408026,-70.31913534
6.5,650,0.051,-0.015,1.02,0.0,-0.4583664000000001,0.11459160000000003,178.95770172,3.13408026,-70.32486492
6.51,651,0.052000000000000005,-0.014,1.021,0.057295800000000015,-0.5156622000000001,0.057295800000000015,178.95770172,3.1398098400000003,-70.32486492
6.52,652,0.052000000000000005,-0.014,1.021,0.057295800000000015,-0.4583664000000001,0.057295800000000015,178.95770172,3.1398098400000003,-70.32486492
6.53,653,0.052000000000000005,-0.014,1.02,-0.057295800000000015,-0.4010706,-0.057295800000000015,178.95770172,3.14553942,-70.32486492
6.54,654,0.053,-0.015,1.019,-0.057295800000000015,-0.4583664000000001,-0.057295800000000015,178.95770172,3.151269,-70.32486492
6.55,655,0.052000000000000005,-0.014,1.019,0.0,-0.4583664000000001,0.0,178.94624256,3.15699858,-70.32486492
6.56,656,0.053,-0.014,1.019,-0.1718874,-0.4583664000000001,0.0,178.94624256,3.1627281600000003,-70.32486492
6.57,657,0.052000000000000005,-0.013,1.017,-0.22918320000000006,-0.4583664000000001,0.0,178.94051298000005,3.16845774,-70.32486492
6.58,658,0.052000000000000005,-0.014,1.014,-0.11459160000000003,-0.4010706,0.0,178.94051298000005,3.1741873200000006,-70.32486492
6.59,659,0.053,-0.015,1.013,0.0,-0.11459160000000003,0.0,178.94051298000005,3.1741873200000006,-70.32486492
6.6,660,0.052000000000000005,-0.014,1.014,0.0,-0.1718874,0.0,178.92332424,3.1627281600000003,-70.32486492
6.61,661,0.052000000000000005,-0.015,1.016,-0.11459160000000003,-0.11459160000000003,0.0,178.92332424,3.1627281600000003,-70.32486492
6.62,662,0.052000000000000005,-0.015,1.017,-0.22918320000000006,-0.11459160000000003,0.0,178.91759466000005,3.1627281600000003,-70.32486492
6.63,663,0.052000000000000005,-0.015,1.018,-0.22918320000000006,0.057295800000000015,0.0,178.91759466000005,3.1627281600000003,-70.32486492
6.64,664,0.053,-0.014,1.018,-0.22918320000000006,0.22918320000000006,0.0,178.91186507999996,3.1627281600000003,-70.32486492
6.65,665,0.053,-0.015,1.018,-0.1718874,0.3437748,-0.057295800000000015,178.90040592,3.15699858,-70.32486492
6.66,666,0.052000000000000005,-0.015,1.019,-0.1718874,0.4010706,0.0,178.90040592,3.15699858,-70.32486492
6.67,667,0.051,-0.014,1.02,-0.1718874,0.4583664000000001,0.0,178.89467634,3.151269,-70.32486492
6.68,668,0.052000000000000005,-0.014,1.018,-0.11459160000000003,0.4010706,0.0,178.89467634,3.14553942,-70.32486492
6.6899999999999995,669,0.052000000000000005,-0.015,1.019,-0.11459160000000003,0.4010706,0.0,178.89467634,3.1398098400000003,-70.32486492
6.7,670,0.051,-0.014,1.017,-0.11459160000000003,0.3437748,0.0,178.88894676,3.12835068,-70.32486492
6.71,671,0.052000000000000005,-0.013,1.017,-0.11459160000000003,0.3437748,0.0,178.88894676,3.12835068,-70.32486492
6.72,672,0.051,-0.013,1.015,-0.11459160000000003,0.22918320000000006,0.0,178.88321718,3.1226211000000004,-70.32486492
6.7299999999999995,673,0.05,-0.014,1.018,-0.11459160000000003,0.286479,0.0,178.88321718,3.1226211000000004,-70.32486492
6.74,674,0.051,-0.013,1.017,-0.057295800000000015,0.1718874,0.0,178.88321718,3.11689152,-70.32486492
6.75,675,0.051,-0.013,1.019,-0.1718874,0.22918320000000006,0.0,178.88321718,3.11116194,-70.32486492
6.76,676,0.05,-0.014,1.018,-0.11459160000000003,0.11459160000000003,0.0,178.88321718,3.1054323600000004,-70.32486492
6.77,677,0.05,-0.013,1.018,-0.1718874,0.1718874,0.0,178.88321718,3.1054323600000004,-70.32486492
6.78,678,0.051,-0.014,1.016,-0.11459160000000003,0.286479,0.0,178.88321718,3.0997027800000003,-70.32486492
6.79,679,0.051,-0.015,1.017,0.0,0.1718874,0.0,178.88321718,3.0997027800000003,-70.32486492
6.8,680,0.051,-0.014,1.018,0.0,0.1718874,0.0,178.8774876,3.0825140400000004,-70.33059449999999
6.81,681,0.05,-0.013,1.018,0.0,0.057295800000000015,0.0,178.8774876,3.0825140400000004,-70.33059449999999
6.82,682,0.051,-0.014,1.018,-0.11459160000000003,0.0,0.0,178.87175802000004,3.0825140400000004,-70.33059449999999
6.83,683,0.05,-0.014,1.018,-0.11459160000000003,0.057295800000000015,0.0,178.87175802000004,3.0825140400000004,-70.33059449999999
6.84,684,0.052000000000000005,-0.015,1.017,-0.057295800000000015,0.0,0.0,178.87175802000004,3.0825140400000004,-70.33059449999999
6.85,685,0.051,-0.015,1.016,0.0,-0.11459160000000003,0.057295800000000015,178.85456928000005,3.07105488,-70.33059449999999
6.86,686,0.051,-0.014,1.018,0.0,-0.057295800000000015,0.0,178.85456928000005,3.07105488,-70.33059449999999
6.87,687,0.051,-0.013,1.018,-0.1718874,0.0,0.0,178.84883969999996,3.07105488,-70.33059449999999
6.88,688,0.051,-0.013,1.017,-0.3437748,-0.286479,0.0,178.84883969999996,3.07105488,-70.33059449999999
6.89,689,0.05,-0.013,1.017,-0.22918320000000006,-0.3437748,0.057295800000000015,178.84311011999995,3.07678446,-70.33059449999999
6.9,690,0.05,-0.012,1.016,-0.22918320000000006,-0.1718874,0.0,178.84311011999995,3.05959572,-70.33632408
6.91,691,0.053,-0.014,1.013,-0.057295800000000015,-0.11459160000000003,0.0,178.83738054,3.0653253000000005,-70.33632408
6.92,692,0.052000000000000005,-0.014,1.015,0.057295800000000015,0.0,0.0,178.84311011999995,3.0653253000000005,-70.33632408
6.93,693,0.052000000000000005,-0.015,1.021,-0.057295800000000015,-0.057295800000000015,-0.057295800000000015,178.83738054,3.0653253000000005,-70.33059449999999
6.9399999999999995,694,0.052000000000000005,-0.016,1.024,-0.286479,-0.4010706,0.0,178.83738054,3.07105488,-70.33059449999999
6.95,695,0.051,-0.015,1.024,-0.4583664000000001,-0.5156622000000001,0.0,178.83165096,3.07105488,-70.33059449999999
6.96,696,0.053,-0.015,1.022,-0.286479,-0.22918320000000006,0.0,178.82592138,3.07678446,-70.33059449999999
6.97,697,0.053,-0.016,1.017,-0.1718874,0.057295800000000015,-0.057295800000000015,178.82592138,3.07678446,-70.33059449999999
6.9799999999999995,698,0.051,-0.014,1.013,-0.057295800000000015,0.057295800000000015,-0.057295800000000015,178.82592138,3.07105488,-70.33059449999999
6.99,699,0.051,-0.014,1.015,0.0,0.057295800000000015,0.0,178.82592138,3.07105488,-70.33059449999999
7.0,700,0.05,-0.013,1.015,0.11459160000000003,0.0,0.0,178.85456928000005,3.05959572,-70.33059449999999
7.01,701,0.05,-0.012,1.013,0.0,0.057295800000000015,-0.057295800000000015,178.85456928000005,3.05959572,-70.33059449999999
7.02,702,0.051,-0.013,1.014,0.057295800000000015,0.0,0.0,178.85456928000005,3.05959572,-70.33059449999999
7.03,703,0.051,-0.012,1.015,0.0,0.0,0.0,178.85456928000005,3.05959572,-70.33059449999999
7.04,704,0.052000000000000005,-0.012,1.018,-0.057295800000000015,0.057295800000000015,0.0,178.85456928000005,3.05959572,-70.33059449999999
7.05,705,0.05,-0.014,1.018,-0.11459160000000003,0.0,0.0,178.85456928000005,3.04813656,-70.33059449999999
7.06,706,0.051,-0.013,1.021,-0.1718874,0.057295800000000015,0.0,178.84883969999996,3.04813656,-70.33059449999999
7.07,707,0.052000000000000005,-0.013,1.021,-0.1718874,0.057295800000000015,0.0,178.84883969999996,3.04813656,-70.33059449999999
7.08,708,0.051,-0.013,1.021,0.0,0.0,0.0,178.84883969999996,3.04813656,-70.33059449999999
7.09,709,0.052000000000000005,-0.013,1.021,0.0,0.0,0.0,178.84883969999996,3.04813656,-70.33059449999999
7.1,710,0.052000000000000005,-0.014,1.019,0.0,0.057295800000000015,0.0,178.85456928000005,3.04240698,-70.33059449999999
7.11,711,0.052000000000000005,-0.014,1.017,0.0,0.0,0.0,178.85456928000005,3.04240698,-70.33059449999999
7.12,712,0.05,-0.014,1.017,0.057295800000000015,0.0,0.0,178.85456928000005,3.04240698,-70.33059449999999
7.13,713,0.051,-0.015,1.017,0.0,0.0,0.0,178.85456928000005,3.04240698,-70.33059449999999
7.14,714,0.051,-0.014,1.016,0.0,0.057295800000000015,0.057295800000000015,178.85456928000005,3.0366774000000003,-70.33059449999999
7.15,715,0.051,-0.014,1.016,0.057295800000000015,0.057295800000000015,0.0,178.85456928000005,3.03094782,-70.33059449999999
7.16,716,0.051,-0.013,1.014,0.057295800000000015,0.057295800000000015,0.0,178.86029886,3.03094782,-70.33059449999999
7.17,717,0.051,-0.014,1.013,0.11459160000000003,0.1718874,0.0,178.86029886,3.02521824,-70.33059449999999
7.18,718,0.051,-0.014,1.015,0.057295800000000015,0.11459160000000003,0.0,178.86029886,3.02521824,-70.33059449999999
7.1899999999999995,719,0.051,-0.015,1.016,0.0,0.0,0.0,178.86029886,3.02521824,-70.33059449999999
7.2,720,0.051,-0.015,1.018,0.0,-0.057295800000000015,0.0,178.84311011999995,3.02521824,-70.33059449999999
7.21,721,0.051,-0.014,1.019,0.0,0.0,0.0,178.84311011999995,3.02521824,-70.33632408
7.22,722,0.051,-0.014,1.019,0.0,0.0,0.0,178.84311011999995,3.02521824,-70.33632408
7.2299999999999995,723,0.051,-0.015,1.018,0.0,0.0,0.0,178.84311011999995,3.02521824,-70.33632408
7.24,724,0.051,-0.014,1.018,0.0,0.0,0.0,178.84311011999995,3.02521824,-70.33632408
7.25,725,0.051,-0.013,1.018,0.057295800000000015,0.0,0.0,178.84311011999995,3.01948866,-70.33632408
7.26,726,0.051,-0.014,1.018,0.0,0.057295800000000015,0.0,178.84311011999995,3.01948866,-70.33632408
7.27,727,0.051,-0.013,1.016,0.0,0.0,0.057295800000000015,178.84311011999995,3.01948866,-70.33632408
7.28,728,0.05,-0.014,1.016,0.0,0.0,0.0,178.84311011999995,3.01948866,-70.33632408
7.29,729,0.051,-0.014,1.015,0.11459160000000003,-0.057295800000000015,0.0,178.84311011999995,3.01948866,-70.33632408
7.3,730,0.051,-0.013,1.015,0.1718874,0.0,0.0,178.84883969999996,3.03094782,-70.33632408
7.31,731,0.052000000000000005,-0.013,1.017,0.11459160000000003,0.0,0.0,178.84883969999996,3.03094782,-70.33632408
7.32,732,0.052000000000000005,-0.014,1.016,0.057295800000000015,0.0,0.0,178.85456928000005,3.03094782,-70.33632408
7.33,733,0.05,-0.013,1.018,0.0,0.0,0.0,178.85456928000005,3.03094782,-70.33632408
7.34,734,0.051,-0.013,1.018,0.0,-0.057295800000000015,0.0,178.85456928000005,3.03094782,-70.33632408
7.35,735,0.051,-0.013,1.018,0.0,-0.057295800000000015,0.0,178.85456928000005,3.02521824,-70.33632408
7.36,736,0.051,-0.014,1.019,0.0,0.0,0.0,178.85456928000005,3.02521824,-70.33632408
7.37,737,0.051,-0.014,1.018,0.11459160000000003,0.0,0.0,178.85456928000005,3.02521824,-70.33059449999999
7.38,738,0.052000000000000005,-0.014,1.018,0.057295800000000015,0.11459160000000003,0.0,178.85456928000005,3.02521824,-70.33059449999999
7.39,739,0.051,-0.015,1.018,0.11459160000000003,0.057295800000000015,0.0,178.86029886,3.02521824,-70.33059449999999
7.4,740,0.051,-0.014,1.018,0.057295800000000015,0.0,0.0,178.86029886,3.02521824,-70.33059449999999
7.41,741,0.05,-0.014,1.017,0.0,0.0,0.0,178.86029886,3.02521824,-70.33059449999999
7.42,742,0.05,-0.013,1.018,0.057295800000000015,0.0,0.0,178.86029886,3.02521824,-70.33059449999999
7.43,743,0.051,-0.014,1.017,0.057295800000000015,0.057295800000000015,0.0,178.86029886,3.02521824,-70.33059449999999
7.4399999999999995,744,0.051,-0.014,1.015,0.1718874,0.057295800000000015,0.0,178.86602843999995,3.02521824,-70.33059449999999
7.45,745,0.05,-0.015,1.017,0.11459160000000003,0.0,-0.057295800000000015,178.85456928000005,3.0137590800000003,-70.33059449999999
7.46,746,0.05,-0.014,1.019,0.0,0.057295800000000015,0.0,178.85456928000005,3.0137590800000003,-70.33059449999999
7.47,747,0.051,-0.013,1.019,-0.1718874,0.0,0.0,178.84883969999996,3.0137590800000003,-70.33059449999999
7.4799999999999995,748,0.051,-0.012,1.018,-0.22918320000000006,-0.11459160000000003,0.057295800000000015,178.84883969999996,3.0137590800000003,-70.33059449999999
7.49,749,0.051,-0.012,1.017,-0.11459160000000003,-0.057295800000000015,0.057295800000000015,178.84883969999996,3.0137590800000003,-70.33059449999999
7.5,750,0.051,-0.013,1.014,0.11459160000000003,0.057295800000000015,0.0,178.84883969999996,3.01948866,-70.33632408
