TimeStamp(s),FrameCounter,AccX,AccY,AccZ,GyrX,GyrY,GyrZ,EulerX,EulerY,EulerZ
0.01,1,-0.033,-1.009,-0.042,0.6875496,1.6615782,0.1718874,87.00940188,-1.77044022,-24.768974340000003
0.02,2,-0.031,-1.009,-0.042,0.8021411999999999,1.5469866,0.1718874,87.01513145999998,-1.77044022,-24.7517856
0.03,3,-0.031,-1.007,-0.04,0.8021411999999999,1.4896908000000002,0.1718874,87.02086104,-1.77044022,-24.734596860000003
0.04,4,-0.03,-1.005,-0.04,0.6302538000000001,1.432395,0.1718874,87.02659062000002,-1.7761698,-24.71740812
0.05,5,-0.033,-1.004,-0.043,0.6302538000000001,1.3750992,0.1718874,87.03232019999999,-1.7761698,-24.70594896
0.060000000000000005,6,-0.035,-1.004,-0.044,0.6875496,1.0886202,0.286479,86.99794272,-1.78189938,-24.694489800000003
0.06999999999999999,7,-0.035,-1.003,-0.04,0.7448454000000001,0.8594370000000001,0.286479,87.0036723,-1.78189938,-24.68876022
0.08,8,-0.036000000000000004,-1.002,-0.038,0.8594370000000001,0.7448454000000001,0.286479,87.01513145999998,-1.78762896,-24.67730106
0.09,9,-0.036000000000000004,-1.003,-0.037000000000000005,0.9740286,0.572958,0.11459160000000004,87.02086104,-1.78762896,-24.67157148
0.09999999999999999,10,-0.034,-1.005,-0.038,0.9740286,0.4583664000000001,0.11459160000000004,87.03232019999999,-1.78762896,-24.6658419
0.11,11,-0.034,-1.006,-0.036000000000000004,0.9740286,0.4583664000000001,0.11459160000000004,86.99794272,-1.7761698,-24.660112320000003
0.12,12,-0.033,-1.006,-0.035,0.9740286,0.4010706,0.057295800000000015,87.00940188,-1.7761698,-24.65438274
0.13,13,-0.033,-1.008,-0.034,0.8021411999999999,0.286479,0.0,87.01513145999998,-1.7761698,-24.64865316
0.14,14,-0.033,-1.007,-0.036000000000000004,0.7448454000000001,0.0,-0.057295800000000015,87.02659062000002,-1.7761698,-24.64865316
0.15000000000000002,15,-0.032,-1.007,-0.037000000000000005,0.8021411999999999,-0.4010706,-0.057295800000000015,87.03232019999999,-1.7761698,-24.65438274
0.16,16,-0.031,-1.008,-0.036000000000000004,0.8594370000000001,-0.572958,-0.057295800000000015,87.02086104,-1.76471064,-24.65438274
0.17,17,-0.031,-1.006,-0.034,0.8021411999999999,-0.7448454000000001,-0.11459160000000004,87.02659062000002,-1.76471064,-24.6658419
0.18000000000000002,18,-0.033,-1.006,-0.034,0.6302538000000001,-0.8594370000000001,-0.11459160000000004,87.03804978000002,-1.75898106,-24.67157148
0.19,19,-0.035,-1.005,-0.035,0.6875496,-0.8021411999999999,-0.11459160000000004,87.04377936,-1.75898106,-24.68303064
0.2,20,-0.036000000000000004,-1.006,-0.036000000000000004,0.8021411999999999,-0.6302538000000001,-0.1718874,87.05523852,-1.75898106,-24.68876022
0.21000000000000002,21,-0.036000000000000004,-1.006,-0.037000000000000005,0.9167328,-0.5156622000000001,-0.2291832000000001,87.02659062000002,-1.76471064,-24.694489800000003
0.22,22,-0.035,-1.007,-0.038,1.145916,-0.4583664000000001,-0.286479,87.03804978000002,-1.75898106,-24.70021938
0.23,23,-0.033,-1.006,-0.037000000000000005,1.3750992,-0.7448454000000001,-0.1718874,87.05523852,-1.75898106,-24.70594896
0.24000000000000002,24,-0.032,-1.004,-0.036000000000000004,1.3178034,-0.9740286,-0.057295800000000015,87.06669767999998,-1.75898106,-24.71740812
0.25,25,-0.031,-1.002,-0.036000000000000004,1.3750992,-1.145916,-0.11459160000000004,87.08388642,-1.75898106,-24.72886728
0.26,26,-0.031,-1.002,-0.035,1.3750992,-1.432395,-0.11459160000000004,87.08388642,-1.75325148,-24.74032644
0.27,27,-0.031,-1.003,-0.033,1.3750992,-1.432395,-0.1718874,87.10107516000002,-1.7475218999999995,-24.75751518
0.28,28,-0.032,-1.006,-0.035,1.3750992,-1.5469866,-0.3437748,87.11253432000002,-1.7475218999999995,-24.768974340000003
0.29000000000000004,29,-0.035,-1.007,-0.034,1.432395,-1.6615782,-0.2291832000000001,87.12972306,-1.74179232,-24.78616308
0.3,30,-0.036000000000000004,-1.007,-0.033,1.4896908000000002,-1.6042823999999998,-0.286479,87.14691180000001,-1.74179232,-24.80335182
0.31,31,-0.038,-1.007,-0.033,1.5469866,-1.7761698,-0.2291832000000001,87.15264138,-1.7475218999999995,-24.82054056
0.32,32,-0.038,-1.006,-0.031,1.4896908000000002,-1.8907613999999997,-0.2291832000000001,87.16410053999998,-1.74179232,-24.843458880000004
0.33,33,-0.038,-1.006,-0.031,1.5469866,-1.5469866,-0.1718874,87.18128928,-1.74179232,-24.86064762
0.34,34,-0.038,-1.007,-0.033,1.5469866,-1.3178034,-0.286479,87.19847802,-1.73606274,-24.87210678000001
0.35000000000000003,35,-0.039,-1.006,-0.034,1.432395,-1.3178034,-0.4010706,87.21566676,-1.73606274,-24.88356594
0.36000000000000004,36,-0.039,-1.006,-0.033,1.2032118,-1.3178034,-0.4010706,87.20993718,-1.74179232,-24.90075468
0.37,37,-0.038,-1.007,-0.036000000000000004,0.9167328,-1.2605076000000002,-0.4010706,87.22139634,-1.73606274,-24.91221384
0.38,38,-0.036000000000000004,-1.007,-0.037000000000000005,0.9167328,-1.145916,-0.2291832000000001,87.2328555,-1.73033316,-24.923673
0.39,39,-0.038,-1.008,-0.037000000000000005,0.8021411999999999,-1.0886202,-0.11459160000000004,87.23858508000002,-1.73033316,-24.93513216
0.4,40,-0.038,-1.008,-0.038,0.572958,-0.9167328,-0.057295800000000015,87.24431466,-1.73033316,-24.946591320000003
0.41000000000000003,41,-0.04,-1.009,-0.04,0.7448454000000001,-0.6875496,0.0,87.20993718,-1.75898106,-24.95805048
0.42000000000000004,42,-0.043,-1.01,-0.037000000000000005,0.8021411999999999,-0.4010706,-0.057295800000000015,87.21566676,-1.75325148,-24.96378006
0.43,43,-0.045,-1.008,-0.035,0.7448454000000001,-0.057295800000000015,-0.057295800000000015,87.22139634,-1.75325148,-24.96378006
0.44,44,-0.042,-1.005,-0.035,0.5156622000000001,0.057295800000000015,-0.1718874,87.22712592,-1.75325148,-24.96378006
0.45,45,-0.036000000000000004,-1.005,-0.036000000000000004,0.4010706,-0.2291832000000001,-0.286479,87.2328555,-1.7475218999999995,-24.96378006
0.46,46,-0.033,-1.003,-0.04,0.4010706,-0.7448454000000001,-0.286479,87.18701886,-1.73606274,-24.96950964
0.47000000000000003,47,-0.03,-1.003,-0.037000000000000005,0.572958,-1.2605076000000002,-0.2291832000000001,87.19274844,-1.73606274,-24.98096880000001
0.48000000000000004,48,-0.03,-1.004,-0.034,0.6875496,-1.3750992,-0.11459160000000004,87.20420759999998,-1.73033316,-24.99242796
0.49,49,-0.035,-1.005,-0.032,0.6875496,-1.0313244,0.0,87.20993718,-1.73033316,-25.00388712
0.5,50,-0.037000000000000005,-1.005,-0.031,0.5156622000000001,-0.5156622000000001,0.0,87.21566676,-1.73033316,-25.0096167
0.51,51,-0.039,-1.004,-0.032,0.4010706,0.0,0.057295800000000015,87.18128928,-1.77044022,-25.01534628
0.52,52,-0.04,-1.005,-0.03,0.4010706,0.1718874,0.11459160000000004,87.18128928,-1.77044022,-25.01534628
0.53,53,-0.038,-1.005,-0.032,0.4010706,0.057295800000000015,0.1718874,87.18701886,-1.77044022,-25.01534628
0.54,54,-0.035,-1.005,-0.033,0.4583664000000001,-0.11459160000000004,0.11459160000000004,87.19274844,-1.77044022,-25.01534628
0.55,55,-0.034,-1.006,-0.033,0.2291832000000001,-0.5156622000000001,0.1718874,87.19274844,-1.7761698,-25.02107586
0.56,56,-0.037000000000000005,-1.006,-0.038,0.0,-1.0886202,0.286479,87.14691180000001,-1.78189938,-25.03253502
0.5700000000000001,57,-0.036000000000000004,-1.007,-0.04,0.1718874,-1.2032118,0.286479,87.14691180000001,-1.78762896,-25.04399418
0.5800000000000001,58,-0.035,-1.009,-0.04,0.4583664000000001,-1.0313244,0.1718874,87.15264138,-1.78762896,-25.055453340000003
0.59,59,-0.037000000000000005,-1.009,-0.038,0.4010706,-1.0886202,0.11459160000000004,87.15837096,-1.7933585399999998,-25.0669125
0.6,60,-0.04,-1.007,-0.038,0.4010706,-1.0313244,0.057295800000000015,87.16410053999998,-1.7933585399999998,-25.07837166
0.61,61,-0.042,-1.005,-0.037000000000000005,0.4010706,-1.0313244,0.1718874,87.13545264000004,-1.81627686,-25.08983082
0.62,62,-0.041,-1.004,-0.036000000000000004,0.2291832000000001,-1.0886202,0.1718874,87.14118221999998,-1.81627686,-25.10128998
0.63,63,-0.04,-1.006,-0.036000000000000004,0.0,-0.7448454000000001,0.1718874,87.14118221999998,-1.82200644,-25.11274914
0.64,64,-0.041,-1.006,-0.038,-0.1718874,-0.4583664000000001,0.11459160000000004,87.13545264000004,-1.82200644,-25.11274914
0.65,65,-0.039,-1.006,-0.041,-0.4010706,-0.5156622000000001,0.11459160000000004,87.13545264000004,-1.82200644,-25.11847872
0.66,66,-0.037000000000000005,-1.006,-0.043,-0.4010706,-0.7448454000000001,0.0,87.07815683999998,-1.82773602,-25.12993788
0.67,67,-0.037000000000000005,-1.006,-0.039,-0.2291832000000001,-1.4896908000000002,-0.057295800000000015,87.07815683999998,-1.82773602,-25.14139704
0.68,68,-0.039,-1.007,-0.035,0.0,-1.7188740000000002,-0.057295800000000015,87.07815683999998,-1.82773602,-25.15858578000001
0.6900000000000001,69,-0.039,-1.007,-0.034,0.0,-1.7761698,-0.057295800000000015,87.07815683999998,-1.82773602,-25.17577452
0.7000000000000001,70,-0.038,-1.006,-0.034,0.0,-1.6042823999999998,-0.057295800000000015,87.07815683999998,-1.82773602,-25.19296326000001
0.7100000000000001,71,-0.039,-1.005,-0.031,0.0,-1.432395,0.0,87.06669767999998,-1.8334656000000005,-25.210152
0.72,72,-0.039,-1.006,-0.032,-0.11459160000000004,-1.2605076000000002,-0.057295800000000015,87.06669767999998,-1.8334656000000005,-25.22161116
0.73,73,-0.039,-1.008,-0.031,-0.4583664000000001,-0.9740286,-0.057295800000000015,87.0609681,-1.8334656000000005,-25.23307032
0.74,74,-0.037000000000000005,-1.006,-0.031,-0.6875496,-0.8021411999999999,-0.057295800000000015,87.05523852,-1.8334656000000005,-25.24452948
0.75,75,-0.036000000000000004,-1.008,-0.033,-0.8021411999999999,-0.5156622000000001,-0.11459160000000004,87.04950894,-1.8334656000000005,-25.25025906
0.76,76,-0.035,-1.008,-0.033,-0.8021411999999999,-0.4010706,-0.057295800000000015,87.02086104,-1.82200644,-25.25025906
0.77,77,-0.035,-1.008,-0.035,-0.8021411999999999,-0.5156622000000001,0.0,87.01513145999998,-1.82200644,-25.25598864
0.78,78,-0.035,-1.007,-0.036000000000000004,-0.9167328,-0.6302538000000001,-0.057295800000000015,87.0036723,-1.82200644,-25.26171822
0.79,79,-0.033,-1.004,-0.035,-0.8021411999999999,-0.7448454000000001,0.0,86.99794272,-1.82200644,-25.2674478
0.8,80,-0.031,-1.004,-0.035,-1.0313244,-0.6302538000000001,0.0,86.98648356,-1.82200644,-25.27317738
0.81,81,-0.032,-1.005,-0.033,-1.2032118,-0.9167328,-0.11459160000000004,86.96356524000002,-1.81054728,-25.28463654
0.8200000000000001,82,-0.034,-1.006,-0.034,-1.5469866,-0.9740286,-0.057295800000000015,86.94637650000001,-1.81054728,-25.29036612
0.8300000000000001,83,-0.034,-1.007,-0.036000000000000004,-1.6615782,-1.145916,-0.11459160000000004,86.92918776,-1.81054728,-25.30182528000001
0.8400000000000001,84,-0.033,-1.008,-0.037000000000000005,-1.6042823999999998,-1.0886202,-0.286479,86.91772859999998,-1.81054728,-25.31328444
0.85,85,-0.034,-1.009,-0.036000000000000004,-1.5469866,-0.8594370000000001,-0.2291832000000001,86.90053986000002,-1.8048176999999999,-25.3247436
0.86,86,-0.035,-1.01,-0.033,-1.6042823999999998,-0.6875496,-0.2291832000000001,86.88335112,-1.79908812,-25.33047318
0.87,87,-0.037000000000000005,-1.009,-0.025,-1.7761698,0.0,-0.2291832000000001,86.86616238,-1.79908812,-25.33047318
0.88,88,-0.037000000000000005,-1.011,-0.019,-1.8907613999999997,0.572958,-0.1718874,86.84324405999998,-1.79908812,-25.3247436
0.89,89,-0.036000000000000004,-1.01,-0.021,-2.578311,1.0886202,-0.057295800000000015,86.82032574,-1.7933585399999998,-25.31328444
0.9,90,-0.034,-1.005,-0.035,-3.2658606,1.6615782,0.057295800000000015,86.78594826,-1.79908812,-25.2960957
0.91,91,-0.036000000000000004,-1.002,-0.045,-2.9793816000000004,1.2605076000000002,0.4010706,86.74011162,-1.8048176999999999,-25.28463654
0.92,92,-0.038,-1.002,-0.04,-3.0939732,0.5156622000000001,0.8021411999999999,86.71146372000004,-1.81054728,-25.27890696
0.93,93,-0.039,-1.002,-0.036000000000000004,-2.9793816000000004,0.11459160000000004,1.0886202,86.67708624000002,-1.82200644,-25.27890696
0.9400000000000001,94,-0.039,-1.006,-0.04,-2.3491278,0.286479,1.2032118,86.65416791999998,-1.8334656000000005,-25.27317738
0.9500000000000001,95,-0.04,-1.009,-0.046,-1.8334656000000005,0.6875496,1.3750992,86.63697918,-1.85065434,-25.2674478
0.9600000000000001,96,-0.038,-1.01,-0.048,-1.7188740000000002,0.9740286,0.9740286,86.60260170000002,-1.85638392,-25.25598864
0.97,97,-0.033,-1.008,-0.054000000000000006,-1.4896908000000002,1.3178034,0.572958,86.58541296,-1.8621135,-25.24452948
0.98,98,-0.035,-1.01,-0.058,-1.3750992,1.432395,0.2291832000000001,86.56822422,-1.86784308,-25.227340739999995
0.99,99,-0.038,-1.013,-0.059,-1.432395,1.0886202,0.0,86.55676506,-1.86784308,-25.21588158
1.0,100,-0.04,-1.013,-0.063,-1.6042823999999998,0.6875496,-0.057295800000000015,86.53957632,-1.86784308,-25.210152
1.01,101,-0.037000000000000005,-1.009,-0.061,-1.2605076000000002,0.5156622000000001,-0.2291832000000001,86.46509178,-1.8621135,-25.20442242
1.02,102,-0.034,-1.005,-0.061,-0.9167328,0.2291832000000001,-0.3437748,86.45363262000002,-1.8621135,-25.20442242
1.03,103,-0.029,-0.998,-0.057,-0.5156622000000001,-0.9167328,-0.1718874,86.45363262000002,-1.85638392,-25.210152
1.04,104,-0.027000000000000003,-0.992,-0.054000000000000006,-0.1718874,-1.8907613999999997,0.0,86.44790304,-1.85638392,-25.23307032
1.05,105,-0.029,-0.993,-0.052000000000000005,0.0,-2.5210152000000003,0.2291832000000001,86.45363262000002,-1.8621135,-25.25598864
1.06,106,-0.033,-1.001,-0.046,0.0,-2.9793816000000004,0.3437748,86.44217346,-1.8621135,-25.28463654
1.07,107,-0.038,-1.011,-0.047,0.0,-3.0366774,0.4583664000000001,86.44217346,-1.86784308,-25.31328444
1.08,108,-0.042,-1.017,-0.049,0.572958,-2.9220857999999996,0.3437748,86.45363262000002,-1.87357266,-25.34193234
1.09,109,-0.043,-1.019,-0.053,1.0886202,-2.6356068,0.2291832000000001,86.46509178,-1.87930224,-25.37058024
1.1,110,-0.041,-1.012,-0.054000000000000006,1.3750992,-2.4637194,0.057295800000000015,86.47655094000002,-1.87930224,-25.393498560000005
1.11,111,-0.037000000000000005,-1.001,-0.053,1.3750992,-2.2345362,0.0,86.47082136,-1.87930224,-25.41641688
1.12,112,-0.035,-0.995,-0.055,0.9167328,-2.0626488000000003,0.0,86.48228051999996,-1.87930224,-25.43360562
1.1300000000000001,113,-0.038,-0.992,-0.057,0.5156622000000001,-1.8907613999999997,0.0,86.48801010000004,-1.87930224,-25.45652394
1.1400000000000001,114,-0.044,-0.992,-0.06,0.2291832000000001,-1.8334656000000005,-0.11459160000000004,86.49373968,-1.87930224,-25.47371268
1.1500000000000001,115,-0.049,-0.994,-0.06,0.0,-1.6042823999999998,-0.1718874,86.49373968,-1.87930224,-25.49090142
1.1600000000000001,116,-0.053,-0.995,-0.063,-0.11459160000000004,-1.2032118,-0.11459160000000004,86.39633682,-1.94232762,-25.51381974
1.17,117,-0.054000000000000006,-0.995,-0.062,-0.11459160000000004,-0.6875496,-0.057295800000000015,86.39633682,-1.94232762,-25.51954932
1.18,118,-0.052000000000000005,-0.996,-0.061,0.0,0.0,-0.057295800000000015,86.39633682,-1.94232762,-25.51954932
1.19,119,-0.049,-0.999,-0.061,0.0,0.9740286,-0.1718874,86.39633682,-1.93659804,-25.51381974
1.2,120,-0.048,-1.002,-0.059,0.1718874,1.2605076000000002,-0.11459160000000004,86.39633682,-1.93659804,-25.50236058
1.21,121,-0.045,-1.006,-0.057,0.286479,1.145916,0.0,86.34477059999998,-1.95378678,-25.49090142
1.22,122,-0.045,-1.006,-0.055,0.1718874,1.145916,-0.057295800000000015,86.34477059999998,-1.95378678,-25.47944226
1.23,123,-0.043,-1.007,-0.053,0.0,0.9167328,-0.11459160000000004,86.34477059999998,-1.95378678,-25.4679831
1.24,124,-0.041,-1.007,-0.053,-0.1718874,0.9167328,-0.4010706,86.33904102,-1.9480572000000005,-25.46225352
1.25,125,-0.039,-1.005,-0.054000000000000006,-0.3437748,1.0313244,-0.572958,86.33904102,-1.94232762,-25.45079436
1.26,126,-0.037000000000000005,-1.004,-0.056,-0.5156622000000001,1.0313244,-0.5156622000000001,86.29320437999998,-1.93659804,-25.4393352
1.27,127,-0.035,-1.003,-0.054000000000000006,-0.9740286,0.8594370000000001,-0.2291832000000001,86.28747480000001,-1.93086846,-25.43360562
1.28,128,-0.037000000000000005,-1.004,-0.052000000000000005,-1.2605076000000002,0.572958,0.0,86.27028606,-1.93086846,-25.42787604
1.29,129,-0.038,-1.006,-0.053,-1.3178034,0.5156622000000001,0.057295800000000015,86.2588269,-1.93086846,-25.42214646
1.3,130,-0.039,-1.007,-0.053,-1.432395,0.4010706,0.057295800000000015,86.24163816000002,-1.93086846,-25.41641688
1.31,131,-0.038,-1.006,-0.055,-1.432395,0.4010706,-0.057295800000000015,86.2015311,-1.93086846,-25.41068730000001
1.32,132,-0.036000000000000004,-1.002,-0.052000000000000005,-1.6615782,0.286479,-0.3437748,86.18434235999996,-1.92513888,-25.40495772
1.33,133,-0.033,-0.997,-0.052000000000000005,-1.7761698,-0.057295800000000015,-0.5156622000000001,86.16715362,-1.9194093000000003,-25.41068730000001
1.34,134,-0.025,-0.99,-0.048,-1.6615782,-0.8594370000000001,-0.7448454000000001,86.14996488,-1.91367972,-25.41641688
1.35,135,-0.017,-0.991,-0.044,-1.8334656000000005,-2.0626488000000003,-1.2605076000000002,86.13277614,-1.90222056,-25.4393352
1.36,136,-0.017,-0.997,-0.042,-2.0626488000000003,-1.8907613999999997,-2.0626488000000003,86.11558740000002,-1.86784308,-25.45652394
1.37,137,-0.017,-1.006,-0.046,-1.5469866,-1.145916,-2.9220857999999996,86.09839866,-1.83919518,-25.4679831
1.3800000000000001,138,-0.017,-1.007,-0.038,-0.8594370000000001,-0.6302538000000001,-3.6096354,86.0869395,-1.8048176999999999,-25.47944226
1.3900000000000001,139,-0.016,-1.004,-0.018000000000000002,0.057295800000000015,-0.057295800000000015,-3.6669312000000014,86.09266908,-1.76471064,-25.47944226
1.4000000000000001,140,-0.005,-0.996,-0.011,1.2605076000000002,0.5156622000000001,-2.6929026,86.10412824,-1.73606274,-25.47944226
1.4100000000000001,141,0.018000000000000002,-0.994,-0.003,2.0626488000000003,0.8021411999999999,-1.3750992,86.17288319999999,-1.65011904,-25.45079436
1.42,142,0.05,-1.003,-0.014,2.2345362,1.0886202,-0.1718874,86.19580152,-1.64438946,-25.4393352
1.43,143,0.068,-1.012,-0.034,2.578311,0.6875496,0.3437748,86.22444942,-1.65011904,-25.43360562
1.44,144,0.055,-1.019,-0.042,3.6096354,-1.7188740000000002,0.572958,86.2588269,-1.6558486199999998,-25.45079436
1.45,145,0.024,-1.013,-0.027000000000000003,4.4117766,-5.1566220000000005,1.0313244,86.30466354,-1.6673077799999998,-25.496631
1.46,146,-0.004,-1.0,-0.006,3.8961144,-7.3911582,1.2605076000000002,86.36768892,-1.67303736,-25.57111554
1.47,147,-0.011,-0.988,0.01,2.7501984,-8.307891,0.8594370000000001,86.40206640000002,-1.6844965200000002,-25.65132966
1.48,148,-0.004,-0.993,0.021,2.6356068,-8.136003599999999,-0.1718874,86.43071429999998,-1.6844965200000002,-25.73154378
1.49,149,0.01,-1.012,0.017,2.2345362,-7.2765666,-1.7761698,86.45363262000002,-1.6673077799999998,-25.80602832
1.5,150,0.028,-1.015,0.004,1.3750992,-5.72958,-2.8074942000000003,86.47082136,-1.64438946,-25.86332412
1.51,151,0.031,-1.006,0.004,0.9740286,-4.8128472,-2.6356068,86.51092842,-1.5756344999999998,-25.90343118
1.52,152,0.024,-1.007,-0.001,-0.8021411999999999,-4.4117766,-1.3750992,86.50519884,-1.56417534,-25.94353824
1.53,153,0.008,-1.015,-0.024,-3.4950437999999995,-4.4690724,0.4583664000000001,86.47082136,-1.56990492,-25.98937488
1.54,154,-0.009000000000000001,-1.027,-0.06,-6.8182002000000015,-5.7868758000000025,2.578311,86.40779597999996,-1.59855282,-26.04667068
1.55,155,-0.018000000000000002,-1.023,-0.083,-11.0007936,-8.5370742,4.4117766,86.29893396,-1.64438946,-26.13261438
1.56,156,-0.021,-1.0,-0.101,-16.8449652,-12.834259199999998,5.958763200000001,86.12131698,-1.71314442,-26.25293556
1.57,157,-0.015,-0.948,-0.135,-23.2620948,-19.6524594,5.9014674000000005,85.89786336,-1.78189938,-26.447741279999995
1.58,158,-0.026,-0.87,-0.191,-27.903054600000004,-28.991674800000002,2.9793816000000004,85.62284352,-1.82200644,-26.73422028
1.59,159,-0.048,-0.818,-0.18600000000000005,-33.9191136,-43.1437374,-4.1252976000000015,85.30198704,-1.81054728,-27.16966836
1.6,160,-0.063,-0.833,-0.157,-36.955791,-52.7694318,-11.1153852,84.94675308000002,-1.73033316,-27.7025193
1.61,161,-0.077,-0.916,-0.108,-36.7266078,-58.9573782,-17.0741484,84.59724870000002,-1.6042824000000002,-28.304125200000005
1.62,162,-0.087,-1.021,-0.051,-34.2055926,-60.5616606,-20.7410796,84.27639222,-1.44385416,-28.92864942
1.6300000000000001,163,-0.105,-1.11,0.014,-27.788463,-58.67089920000001,-22.1161788,84.01283154000002,-1.27196676,-29.53025532
1.6400000000000001,164,-0.136,-1.188,0.061,-19.480572,-52.3110654,-21.0848544,83.83521456,-1.10580894,-30.06883584
1.6500000000000001,165,-0.177,-1.237,0.121,-12.2040054,-44.5761324,-17.131444199999994,83.72635254,-0.9740286,-30.52720224
1.6600000000000001,166,-0.212,-1.26,0.155,-9.3965112,-36.955791,-10.8289062,83.65186800000002,-0.90527364,-30.905354520000003
1.6700000000000002,167,-0.228,-1.238,0.154,-12.0894138,-27.043617600000005,-3.0939732,83.53727640000002,-0.89954406,-31.18037436
1.68,168,-0.217,-1.197,0.113,-17.9335854,-20.511896399999998,2.0626488000000003,83.35965941999999,-0.93965112,-31.380909660000004
1.69,169,-0.194,-1.151,0.063,-22.631841,-14.381245800000002,5.6722842,83.1362058,-1.00840608,-31.51841958
1.7,170,-0.153,-1.111,0.016,-26.4706596,-9.0527364,7.5057497999999985,82.86691554,-1.09434978,-31.60436328
1.71,171,-0.098,-1.065,-0.029,-29.8511118,-5.3858052,7.906820400000001,82.57470696,-1.18602306,-31.65019992
1.72,172,-0.052000000000000005,-1.021,-0.062,-33.4607472,-3.8961144,7.333862400000001,82.23666174,-1.26623718,-31.6845774
1.73,173,-0.021,-0.978,-0.071,-36.4401288,-4.7555514,6.703608600000001,81.86996862,-1.34072172,-31.72468446
1.74,174,-0.013,-0.929,-0.036000000000000004,-37.2995658,-6.9327918,6.2452422,81.49181634,-1.41520626,-31.78770984
1.75,175,-0.033,-0.889,-0.017,-32.6013102,-7.906820400000001,6.2452422,81.16523028,-1.4896908000000002,-31.86219438
1.76,176,-0.068,-0.867,0.0,-26.069589,-7.3911582,6.5317212,80.91885834,-1.56990492,-31.93094934
1.77,177,-0.109,-0.8690000000000001,0.036000000000000004,-20.798375399999998,-5.6722842,7.0473834,80.70686388,-1.65011904,-31.97678598
1.78,178,-0.149,-0.879,0.076,-17.7044022,-2.0626488000000003,7.1046792000000005,80.5292469,-1.7246035799999997,-31.988245140000004
1.79,179,-0.177,-0.898,0.099,-14.7823164,2.86479,6.1879464,80.38027782,-1.78189938,-31.94813808
1.8,180,-0.208,-0.911,0.106,-11.8602306,9.1100322,4.7555514,80.25422705999998,-1.82200644,-31.85073522
1.81,181,-0.224,-0.914,0.117,-7.906820400000001,15.6417534,3.4377480000000005,80.21412000000002,-1.87357266,-31.70749572
1.82,182,-0.239,-0.917,0.153,-3.7815227999999994,21.3140376,2.1772404,80.16828336,-1.8621135,-31.49550126
1.83,183,-0.242,-0.928,0.171,-1.5469866,28.304125199999998,1.0886202,80.13963546,-1.8334656000000005,-31.21475184
1.84,184,-0.241,-0.947,0.161,-1.8334656000000005,32.830493399999995,0.572958,80.10525798,-1.7933585399999998,-30.89389536
1.85,185,-0.221,-0.962,0.14300000000000002,-3.2658606,36.32553720000001,0.1718874,80.05369175999998,-1.74179232,-30.5386614
1.86,186,-0.188,-0.978,0.116,-4.3544808,38.8465524,-0.11459160000000004,80.02504386000003,-1.70168526,-30.166238699999997
1.87,187,-0.14800000000000002,-0.969,0.076,-5.3858052,39.6486936,-0.8594370000000001,79.9562889,-1.6386598799999998,-29.77662726
1.8800000000000001,188,-0.112,-0.956,0.051,-5.042030400000002,39.19032720000001,-2.1199446,79.88753394,-1.55844576,-29.398474980000003
1.8900000000000001,189,-0.09,-0.951,0.038,-4.1252976000000015,37.7006364,-3.2658606,79.83023813999998,-1.47250206,-29.03751144
1.9000000000000001,190,-0.076,-0.943,0.031,-2.9220857999999996,35.5806918,-3.9534102,79.7844015,-1.38082878,-28.69373664
1.9100000000000001,191,-0.075,-0.928,0.026,-1.7761698,31.2835068,-4.6982556,79.7844015,-1.29488508,-28.40152806
1.9200000000000002,192,-0.078,-0.924,0.032,-1.0313244,27.444688199999998,-5.1566220000000005,79.76148318,-1.2032117999999998,-28.14369696
1.93,193,-0.081,-0.934,0.032,-0.9740286,23.835052800000003,-4.9274388,79.74429444,-1.12299768,-27.92024334000001
1.94,194,-0.085,-0.952,0.016,-0.9740286,19.7097552,-3.8961144,79.72710570000002,-1.05424272,-27.7311672
1.95,195,-0.093,-0.969,0.01,-0.1718874,15.6417534,-2.5210152000000003,79.72137612,-1.00840608,-27.58219812
1.96,196,-0.101,-0.988,0.01,1.2605076000000002,12.4904844,-0.9167328,79.80159024000002,-1.01413566,-27.473336100000004
1.97,197,-0.117,-0.996,0.011,2.9220857999999996,10.1413566,0.5156622000000001,79.83023813999998,-1.00840608,-27.37020366
1.98,198,-0.157,-0.993,0.028,5.9014674000000005,7.906820400000001,2.3491278,79.88753394,-1.01413566,-27.28998954
1.99,199,-0.199,-0.99,0.028,10.026765,6.417129599999999,5.443101,79.99066638000002,-1.0599723,-27.215505
2.0,200,-0.219,-0.991,0.041,12.318597,6.875496000000001,8.9954406,80.11098756,-1.14018642,-27.13529088
2.01,201,-0.214,-1.028,0.041,13.178034,8.880849000000003,13.6936962,80.2714158,-1.28342592,-27.02642886
2.02,202,-0.185,-1.087,0.024,10.1986524,9.3392154,19.8243468,80.36881866,-1.4610428999999998,-26.9003781
2.03,203,-0.124,-1.169,-0.021,6.016058999999999,6.5317212,27.6738714,80.42611446000002,-1.7246035799999997,-26.79151608
2.04,204,-0.045,-1.265,-0.059,3.8961144,1.432395,35.4088044,80.46622152,-2.06837838,-26.722761119999994
2.05,205,-0.013,-1.352,-0.103,3.0366774,-5.2139178,40.10706,80.49486942,-2.46944898,-26.70557238
2.0599999999999996,206,-0.07,-1.402,-0.188,4.6982556,-9.6256944,39.877876799999996,80.54643564,-2.87624916,-26.73994986000001
2.07,207,-0.173,-1.389,-0.256,7.2192707999999985,-6.016058999999999,32.945085,80.62092018,-3.20283522,-26.745679440000004
2.0799999999999996,208,-0.264,-1.358,-0.233,8.136003599999999,-0.9167328,22.9756158,80.70686388,-3.43201842,-26.71703154
2.09,209,-0.342,-1.349,-0.203,3.4377480000000005,2.8074942000000003,12.6623718,80.73551178,-3.5523396000000003,-26.66546532
2.0999999999999996,210,-0.354,-1.342,-0.206,0.286479,7.7922288,5.2139178,80.73551178,-3.59244666,-26.57952162
2.11,211,-0.29,-1.338,-0.202,6.0733548,11.9748222,1.5469866,80.78707800000002,-3.59817624,-26.46493002
2.1199999999999997,212,-0.2,-1.321,-0.237,10.886202,16.386598799999998,2.1772404,80.88448086000002,-3.59817624,-26.298772200000002
2.13,213,-0.107,-1.225,-0.245,7.8495246,20.340009,5.2139178,80.94750624,-3.62109456,-26.08677774
2.1399999999999997,214,0.013,-1.063,-0.233,3.8961144,22.459953600000002,8.250595200000001,80.97042456,-3.67266078,-25.85186496
2.15,215,0.08900000000000001,-0.957,-0.234,-2.9220857999999996,17.589810600000003,12.6623718,80.92458792,-3.77579322,-25.66278882000001
2.1599999999999997,216,0.14400000000000002,-0.8809999999999999,-0.24,-12.7196676,9.224623800000002,15.126091199999998,80.76988926,-3.87892566,-25.54246764
2.17,217,0.22,-0.852,-0.259,-17.0741484,1.3750992,13.6364004,80.59227228,-4.010706,-25.50809016
2.1799999999999997,218,0.3,-0.8759999999999999,-0.261,-15.0114996,-6.6463128000000005,8.250595200000001,80.44330319999997,-4.102379279999999,-25.55965638
2.19,219,0.308,-0.923,-0.257,-10.6570188,-18.907614000000002,0.11459160000000004,80.35162992,-4.131027179999999,-25.74873252
2.1999999999999997,220,0.25,-0.942,-0.238,-5.443101,-32.257535399999995,-8.250595200000001,80.32298202,-4.0966497,-26.07531858
2.21,221,0.177,-0.961,-0.209,1.3178034,-42.34159620000001,-14.8396122,80.36881866,-3.98778768,-26.51649624
2.2199999999999998,222,0.071,-0.978,-0.16899999999999998,7.5057497999999985,-47.7846972,-20.626488,80.48913983999998,-3.85027776,-27.0149697
2.23,223,-0.002,-0.99,-0.13699999999999998,14.7823164,-44.5761324,-26.69984280000001,80.67248640000003,-3.64974246,-27.496254420000003
2.2399999999999998,224,-0.07400000000000001,-0.974,-0.08199999999999999,18.3919518,-39.6486936,-29.335449600000004,80.89021044,-3.4091001000000003,-27.92597292
2.25,225,-0.132,-0.919,-0.012,16.329303,-35.46610020000001,-28.7051958,81.08501616,-3.1741873200000006,-28.32131394
2.26,226,-0.14800000000000002,-0.86,0.013,11.6310474,-30.93973200000001,-25.84040580000001,81.23971482,-2.96219286,-28.66508874
2.27,227,-0.138,-0.802,0.006,7.6776372,-26.069589,-22.345362,81.3313881,-2.7788463,-28.95156774
2.28,228,-0.091,-0.7609999999999999,-0.009000000000000001,4.8701430000000006,-20.3973048,-19.8243468,81.39441348,-2.6069589,-29.18075094000001
2.29,229,-0.03,-0.7340000000000001,-0.032,1.9480572,-14.9542038,-18.3919518,81.42306138000002,-2.44080108,-29.35263834
2.3,230,0.034,-0.718,-0.064,1.2605076000000002,-11.516455800000001,-17.18874,81.4459797,-2.28610242,-29.49587784
2.31,231,0.087,-0.722,-0.076,0.6302538000000001,-11.172681,-15.6990492,81.45743886,-2.13140376,-29.621928600000004
2.32,232,0.125,-0.725,-0.094,-1.3750992,-13.464512999999998,-14.266654199999998,81.45170928,-2.005353,-29.77662726
2.3299999999999996,233,0.153,-0.731,-0.099,-2.6929026,-17.8762896,-12.318597,81.43452054,-1.90795014,-29.97143298
2.34,234,0.153,-0.7340000000000001,-0.08900000000000001,-2.4064236,-22.91832,-10.4851314,81.4173318,-1.8334656000000005,-30.212075339999995
2.3499999999999996,235,0.141,-0.755,-0.068,-2.0626488000000003,-27.2728008,-8.7089616,81.41160221999998,-1.7761698,-30.49282476
2.36,236,0.121,-0.7909999999999999,-0.043,-1.3178034,-30.4813656,-6.589017,81.4173318,-1.73033316,-30.7964925
2.3699999999999997,237,0.096,-0.8370000000000001,-0.022,-0.9740286,-32.658606,-3.7815227999999994,81.42306138000002,-1.73606274,-31.123078560000003
2.38,238,0.068,-0.879,-0.01,0.6875496,-33.231564,-0.8594370000000001,81.4459797,-1.76471064,-31.44966462
2.3899999999999997,239,0.047,-0.894,0.009000000000000001,3.2658606,-32.2002396,2.6356068,81.49181634,-1.82773602,-31.76479152
2.4,240,0.029,-0.8959999999999999,0.039,6.5317212,-30.4813656,4.4117766,81.57203046,-1.90795014,-32.057000099999996
2.4099999999999997,241,0.008,-0.902,0.073,9.167328,-27.8457588,4.3544808,81.70954037999998,-1.9767051,-32.32629036
2.42,242,-0.013,-0.913,0.094,11.229976800000001,-24.923673,3.151269,81.83559113999998,-2.03973048,-32.56120314
2.4299999999999997,243,-0.035,-0.943,0.099,13.0634424,-21.8869956,1.9480572,81.97883064,-2.07983754,-32.7731976
2.44,244,-0.04,-0.98,0.091,14.7823164,-18.5638392,1.2032118,82.13352929999998,-2.10848544,-32.95654416
2.4499999999999997,245,-0.041,-1.01,0.065,16.7303736,-15.126091199999998,1.432395,82.31114628,-2.13713334,-33.09978366
2.46,246,-0.03,-1.011,0.044,19.767051,-11.8029348,2.6356068,82.54605906,-2.17151082,-33.21437526
2.4699999999999998,247,-0.001,-0.999,0.071,24.350715,-9.9121734,5.6722842,82.79816058,-2.2345362,-33.30031896000001
2.48,248,0.044,-1.015,0.135,25.2674478,-10.1413566,8.9381448,83.06172126,-2.33193906,-33.38626266
2.4899999999999998,249,0.105,-1.082,0.225,20.6837838,-12.4331886,11.917526400000002,83.27944529999998,-2.45798982,-33.49512468
2.5,250,0.16,-1.2009999999999998,0.226,12.318597,-17.9335854,13.6936962,83.41122564,-2.6069589,-33.65555292
2.51,251,0.126,-1.3230000000000002,0.127,4.1825934,-26.8717302,14.152062599999999,83.4799806,-2.76165756,-33.901924859999994
2.52,252,0.133,-1.36,0.08,9.2819196,-33.518043,13.0061466,83.5945722,-2.91635622,-34.217051760000004
2.53,253,0.108,-1.342,0.133,18.7930224,-31.2835068,7.6776372,83.80656666,-3.01948866,-34.51498992
2.54,254,0.016,-1.3019999999999998,0.2,22.91832,-23.4339822,0.5156622000000001,84.05293859999998,-3.04240698,-34.74417312
2.55,255,-0.033,-1.232,0.279,26.2414764,-19.8243468,-1.8334656000000005,84.33368802,-3.0366774000000003,-34.93897884
2.56,256,-0.055,-1.223,0.343,29.220858000000003,-18.449247600000003,-2.7501984,84.66600365999999,-3.0137590800000003,-35.122325399999994
2.57,257,-0.044,-1.27,0.28600000000000003,30.7678446,-12.4904844,-5.2139178,84.98686014,-2.96792244,-35.24837616
2.5799999999999996,258,-0.07200000000000001,-1.357,0.13699999999999998,34.5493674,-1.4896908000000002,-11.516455800000001,85.33636451999998,-2.85333084,-35.27129448
2.59,259,-0.147,-1.457,-0.039,35.236917,8.8235532,-18.048177,85.69159848,-2.6642547000000003,-35.19108036
2.5999999999999996,260,-0.243,-1.4780000000000002,-0.251,30.4813656,11.9748222,-22.0015872,85.99526621999998,-2.44080108,-35.08794792
2.61,261,-0.35600000000000004,-1.415,-0.466,23.6058696,8.021412000000002,-26.1841806,86.21871984,-2.18296998,-35.01919296
2.6199999999999997,262,-0.496,-1.261,-0.606,18.6784308,1.2605076000000002,-35.695283399999994,86.40779597999996,-1.82773602,-35.03065212
2.63,263,-0.525,-1.068,-0.598,13.6936962,0.8594370000000001,-47.1544434,86.5453059,-1.3579104599999998,-35.04784086
2.6399999999999997,264,-0.398,-0.8640000000000001,-0.624,9.167328,7.333862400000001,-53.1705024,86.63697918,-0.8250595199999999,-35.00200422
2.65,265,-0.195,-0.7140000000000001,-0.541,12.9488508,15.527161800000002,-54.14453099999999,86.76302994,-0.28074942,-34.87595346
2.6599999999999997,266,0.038,-0.649,-0.382,12.318597,24.2934192,-48.6441342,86.86616238,0.21199446,-34.658229420000005
2.67,267,0.249,-0.6629999999999999,-0.232,6.703608600000001,33.002380800000005,-38.0444112,86.92918776,0.59587632,-34.3488321
2.6799999999999997,268,0.365,-0.755,-0.16,-0.6875496,36.03905820000001,-24.4080108,86.92345818,0.8479778399999999,-34.0050573
2.69,269,0.381,-0.938,-0.168,-6.1879464,34.3201842,-10.1986524,86.8604328,0.95683986,-33.67274166
2.6999999999999997,270,0.332,-1.17,-0.171,-4.4117766,31.971056400000002,5.042030400000002,86.81459616,0.9167328000000001,-33.35188518
2.71,271,0.226,-1.2919999999999998,-0.152,3.8388186,30.252182399999995,15.4125702,86.84897364,0.7792228800000001,-33.04248786
2.7199999999999998,272,0.08800000000000001,-1.294,-0.123,12.0894138,26.41336380000001,18.7357266,86.97502440000002,0.6016058999999999,-32.7731976
2.73,273,-0.056,-1.238,-0.093,17.475219,22.058883,16.673077799999998,87.15264138,0.44117766,-32.544014399999995
2.7399999999999998,274,-0.171,-1.19,-0.054000000000000006,18.907614000000002,18.5638392,11.0580894,87.34171752,0.33804522,-32.35493826
2.75,275,-0.244,-1.146,-0.011,12.5477802,15.6990492,4.2398892,87.46776828,0.29793816,-32.19451002
2.76,276,-0.239,-1.065,-0.009000000000000001,3.6096354,14.8396122,-1.2032118,87.50787534,0.24637194,-32.057000099999996
2.77,277,-0.172,-0.993,-0.021,0.6302538000000001,17.5325148,-3.4950437999999995,87.51360492,0.28074942,-31.8851127
2.78,278,-0.085,-0.934,-0.023,0.4583664000000001,21.3713334,-2.86479,87.51360492,0.31512690000000004,-31.67884782
2.79,279,-0.03,-0.903,-0.03,0.286479,26.298772200000002,0.2291832000000001,87.51360492,0.31512690000000004,-31.41528714
2.8,280,-0.01,-0.8809999999999999,-0.037000000000000005,-0.1718874,30.252182399999995,4.297185,87.51360492,0.27501984,-31.11734898000001
2.81,281,-0.014,-0.862,-0.042,-0.8021411999999999,34.262888399999994,9.1100322,87.49641618000004,0.18907614,-30.773574180000004
2.82,282,-0.04,-0.836,-0.045,-1.8907613999999997,37.4714532,14.2093584,87.47349786,0.05156622,-30.395421899999995
2.8299999999999996,283,-0.068,-0.813,-0.044,-2.291832,40.2216516,18.162768600000003,87.44484996,-0.11459160000000004,-29.994351300000005
2.84,284,-0.106,-0.789,-0.042,-2.1199446,43.20103320000001,19.8243468,87.41620206,-0.30366774,-29.55890322
2.8499999999999996,285,-0.141,-0.7609999999999999,-0.037000000000000005,-0.9740286,46.2377106,18.7357266,87.39901332,-0.48128472,-29.08907766
2.86,286,-0.16699999999999998,-0.731,-0.018000000000000002,0.7448454000000001,49.4462754,14.5531332,87.39328374,-0.6302538000000001,-28.59633378
2.8699999999999997,287,-0.175,-0.7170000000000001,0.013,2.8074942000000003,53.11320660000001,8.4224826,87.41047248,-0.70473834,-28.069212420000003
2.88,288,-0.165,-0.7170000000000001,0.038,3.2085648,55.80610920000001,2.5210152000000003,87.42766122,-0.72192708,-27.51917274
2.8899999999999997,289,-0.132,-0.7290000000000001,0.051,2.578311,57.467687399999996,-2.5210152000000003,87.43912037999998,-0.6875496,-26.95194432000001
2.9,290,-0.096,-0.743,0.047,0.8594370000000001,57.1812084,-6.5317212,87.4333908,-0.61306506,-26.384715900000003
2.9099999999999997,291,-0.061,-0.762,0.043,-0.8021411999999999,55.92070079999999,-9.167328,87.41620206,-0.5156622000000001,-25.84040580000001
2.92,292,-0.034,-0.78,0.035,-3.5523396000000003,55.00396800000001,-10.5424272,87.37036542000001,-0.4010706000000001,-25.30182528000001
2.9299999999999997,293,-0.013,-0.789,0.026,-5.844171599999999,54.43101,-10.886202,87.30161045999998,-0.28074942,-24.768974340000003
2.94,294,-0.011,-0.797,0.02,-8.078707799999998,53.68616460000001,-9.6256944,87.20993718,-0.17761697999999998,-24.24185298
2.9499999999999997,295,-0.031,-0.789,0.04,-9.568398599999998,51.3943326,-7.1046792000000005,87.10107516000002,-0.09740286,-23.73764994
2.96,296,-0.066,-0.8009999999999999,0.122,-6.4744254,51.56622,-5.3285094000000015,87.04950894,-0.04010706,-23.233446899999997
2.9699999999999998,297,-0.08900000000000001,-0.867,0.15,-7.7349330000000025,56.8374336,-4.1252976000000015,86.95783566,0.00572958,-22.67194806
2.98,298,-0.078,-0.956,0.057,-10.3705398,62.5670136,-2.7501984,86.84897364,0.05156622,-22.058883
2.9899999999999998,299,-0.091,-1.063,-0.027000000000000003,-5.3858052,63.311859,-0.4010706,86.78594826,0.07448454,-21.43435878
3.0,300,-0.079,-1.177,-0.046,1.145916,52.7694318,4.4117766,86.79167784,0.04583664,-20.90723742
3.01,301,-0.004,-1.278,0.002,1.2605076000000002,35.6379876,11.2872726,86.80313699999998,-0.05156622,-20.54627388
3.02,302,0.095,-1.331,0.1,0.3437748,17.761698000000006,18.621135,86.80313699999998,-0.2291832000000001,-20.36292732
3.03,303,0.14,-1.287,0.228,9.6256944,2.7501984,21.5432208,86.90053986000002,-0.44117766,-20.32282026
3.04,304,0.109,-1.209,0.29600000000000004,21.0848544,-0.8594370000000001,18.334656,87.1182639,-0.62452422,-20.32282026
3.05,305,0.053,-1.217,0.287,21.3140376,-0.572958,11.745639,87.33598794000002,-0.7391158200000001,-20.31709068
3.06,306,-0.017,-1.231,0.209,17.246035799999998,0.4010706,5.5576926,87.52506408,-0.79641162,-20.3113611
3.07,307,-0.066,-1.251,0.046,15.9282324,4.1252976000000015,3.4377480000000005,87.69122189999999,-0.8250595199999999,-20.26552446
3.08,308,-0.044,-1.301,-0.145,19.938938399999998,11.8029348,9.453807000000001,87.88602762000002,-0.9167328000000001,-20.14520328
3.09,309,0.057,-1.403,-0.273,20.9702628,18.2773602,23.14750320000001,88.09802207999998,-1.1459160000000002,-19.95612714
3.0999999999999996,310,0.22,-1.5490000000000002,-0.315,14.896907999999998,15.126091199999998,45.3782736,88.24126158,-1.59282324,-19.78996932
3.11,311,0.355,-1.514,-0.407,-5.042030400000002,12.1467096,68.2965936,88.17823620000001,-2.2631841,-19.64672982
3.1199999999999997,312,0.375,-1.266,-0.503,-16.2147114,21.2567418,80.7297822,88.00061922,-3.0653253000000005,-19.41754662
3.13,313,0.224,-0.972,-0.551,-18.7930224,25.55392680000001,81.47462759999998,87.78862475999998,-3.873196080000002,-19.136797199999997
3.1399999999999997,314,-0.014,-0.782,-0.494,-12.834259199999998,12.6623718,74.198061,87.65111484,-4.612311900000001,-18.98782812
3.15,315,-0.21,-0.782,-0.408,-5.7868758000000025,3.2658606,58.2698286,87.58808946,-5.19099948,-18.93053232
3.1599999999999997,316,-0.336,-0.879,-0.342,-6.760904399999999,-0.7448454000000001,38.7319608,87.46776828,-5.62071798,-18.92480274
3.17,317,-0.448,-0.977,-0.278,-10.1413566,-5.5576926,17.9908812,87.37036542000001,-5.79833496,-18.97636896
3.1799999999999997,318,-0.482,-1.044,-0.204,-4.1825934,-8.4224826,-2.4064236,87.34171752,-5.77541664,-19.06231266
3.19,319,-0.397,-1.054,-0.14,4.6982556,-10.4278356,-15.6990492,87.39901332,-5.62071798,-19.17117468
3.1999999999999997,320,-0.25,-1.054,-0.071,12.605076,-6.9327918,-22.5745452,87.53652324,-5.397264359999999,-19.2513888
3.21,321,-0.075,-1.0759999999999998,-0.033,17.303331600000003,-1.0886202,-24.694489800000003,87.71414021999998,-5.13943326,-19.26284796
3.2199999999999998,322,0.081,-1.108,-0.025,16.272007199999994,1.3750992,-22.91832,87.87456846,-4.91025006,-19.25711838
3.23,323,0.206,-1.091,-0.028,12.261301199999998,0.2291832000000001,-17.8762896,88.00061922,-4.73263308,-19.25711838
3.2399999999999998,324,0.258,-1.024,-0.031,7.161975,-3.5523396000000003,-10.886202,88.07510376,-4.62377106,-19.29722544
3.25,325,0.245,-0.936,-0.037000000000000005,3.7815227999999994,-9.1100322,-4.8128472,88.12666998,-4.57793442,-19.38889872
3.26,326,0.17,-0.86,-0.03,2.9220857999999996,-14.610429000000002,-1.432395,88.16104745999998,-4.51490904,-19.52640864
3.27,327,0.096,-0.823,-0.019,3.4377480000000005,-20.511896399999998,-1.7188740000000002,88.21834326000004,-4.4977203,-19.73267352
3.28,328,0.039,-0.8109999999999999,-0.011,2.86479,-24.5798982,-4.2398892,88.26990948,-4.45761324,-19.97331588
3.29,329,-0.006,-0.8009999999999999,-0.016,0.286479,-28.762491600000004,-7.7349330000000025,88.29855738,-4.37739912,-20.26552446
3.3,330,-0.017,-0.784,-0.021,-1.6615782,-33.1742682,-11.2872726,88.31001654,-4.2685371,-20.597840100000006
3.31,331,-0.012,-0.767,-0.025,-3.2085648,-37.757932200000006,-14.266654199999998,88.30428696,-4.11956802,-20.9702628
3.32,332,-0.002,-0.762,-0.016,-4.1252976000000015,-42.62807520000001,-15.6990492,88.29855738,-3.9648693599999993,-21.3999813
3.33,333,0.018000000000000002,-0.7709999999999999,-0.004,-5.2139178,-47.0971476,-14.5531332,88.28709822,-3.82162986,-21.86980686
3.34,334,0.055,-0.7959999999999999,0.02,-5.1566220000000005,-51.33703679999999,-10.255948199999999,88.26990948,-3.724227,-22.38546906
3.3499999999999996,335,0.085,-0.804,0.053,-5.6722842,-55.11855960000001,-5.2139178,88.25845032,-3.67266078,-22.92977916
3.36,336,0.099,-0.8,0.08900000000000001,-6.3025379999999975,-57.06661679999999,-1.5469866,88.24699116,-3.6382833,-23.49700758
3.3699999999999997,337,0.098,-0.8059999999999999,0.1,-7.2765666,-57.35309579999999,0.7448454000000001,88.21834326000004,-3.64974246,-24.064236
3.38,338,0.07,-0.82,0.117,-6.760904399999999,-56.72284200000001,1.6042823999999998,88.19542494,-3.6669312000000014,-24.62573484
3.3899999999999997,339,0.031,-0.838,0.111,-7.2192707999999985,-55.06126379999999,1.5469866,88.16104745999998,-3.68984952,-25.17577452
3.4,340,-0.025,-0.861,0.086,-7.906820400000001,-52.6548402,1.9480572,88.12094040000002,-3.71276784,-25.69716630000001
3.4099999999999997,341,-0.07200000000000001,-0.87,0.042,-7.7922288,-48.8733174,2.8074942000000003,88.08656292,-3.74714532,-26.1841806
3.42,342,-0.108,-0.858,-0.001,-5.7868758000000025,-43.20103320000001,4.1252976000000015,88.05791502,-3.78725238,-26.60816952
3.4299999999999997,343,-0.118,-0.8220000000000001,0.006,-1.7761698,-36.5547204,4.4690724,88.06937418,-3.8388186000000006,-26.96913306
3.44,344,-0.118,-0.8009999999999999,0.093,3.5523396000000003,-34.60666320000001,3.9534102,88.13239956,-3.87892566,-27.31290786000001
3.4499999999999997,345,-0.14,-0.8420000000000001,0.174,4.6409598,-35.5806918,3.4950437999999995,88.21261368,-3.91330314,-27.66241224
3.46,346,-0.141,-0.925,0.201,3.3231564,-37.1849742,3.8388186,88.31001654,-3.9648693599999993,-28.03483494
3.4699999999999998,347,-0.087,-1.025,0.16899999999999998,4.4690724,-34.60666320000001,2.291832,88.38450107999998,-3.98778768,-28.37860974
3.48,348,-0.013,-1.133,0.166,8.479778399999999,-28.5906042,-1.9480572,88.4933631,-3.9648693599999993,-28.65935916
3.4899999999999998,349,-0.021,-1.217,0.182,12.605076,-20.3973048,-7.161975,88.63660259999996,-3.89038482,-28.86562404
3.5,350,-0.123,-1.233,0.196,17.0741484,-10.255948199999999,-10.4851314,88.81994916,-3.78725238,-28.9630269
3.51,351,-0.18600000000000005,-1.193,0.218,20.2827132,-1.5469866,-8.880849000000003,89.05486194,-3.71276784,-28.98594522
3.52,352,-0.192,-1.18,0.198,20.5691922,0.9740286,-4.8701430000000006,89.26112682,-3.66120162,-28.974486060000004
3.53,353,-0.189,-1.252,0.09,14.4385416,-1.432395,0.0,89.4100959,-3.66120162,-28.98594522
3.54,354,-0.221,-1.358,-0.064,7.2192707999999985,-3.4950437999999995,2.0053530000000004,89.48458044,-3.67839036,-29.0203227
3.55,355,-0.273,-1.46,-0.33,6.1879464,-1.6615782,-5.7868758000000025,89.54760582,-3.62109456,-29.03751144
3.56,356,-0.406,-1.507,-0.5770000000000001,7.6776372,-3.2658606,-25.3820394,89.62209035999999,-3.3689930400000003,-29.07188892
3.57,357,-0.563,-1.517,-0.623,14.2093584,4.583664,-53.571573,89.75960028,-2.84187168,-29.02605228
3.58,358,-0.655,-1.366,-0.696,22.345362,11.0580894,-81.5892192,89.98305390000002,-2.02827132,-28.91146068
3.59,359,-0.444,-0.894,-0.718,31.5699858,10.4851314,-90.24088499999999,90.2981808,-1.13445684,-28.79686908
3.5999999999999996,360,0.019,-0.696,-0.3720000000000001,42.91455420000001,20.2827132,-75.8596392,90.72216972,-0.38388186,-28.58487462
3.61,361,0.349,-0.746,-0.022,31.22621100000001,26.0122932,-53.39968560000001,91.03729662,0.16615782,-28.30985478
3.6199999999999997,362,0.507,-0.937,0.013,3.724227,25.4393352,-29.4500412,91.0716741,0.44690724,-28.05202368
3.63,363,0.542,-1.234,-0.114,-15.6417534,21.4286292,-7.1046792000000005,90.91124586,0.5099326200000001,-27.84002922
3.6399999999999997,364,0.468,-1.494,-0.19,-14.0947668,18.5065434,8.3651868,90.76800636,0.41825934,-27.66241224
3.65,365,0.304,-1.5490000000000002,-0.13699999999999998,1.6615782,15.2406828,14.32395,90.78519509999998,0.26929026,-27.51344316
3.6599999999999997,366,0.069,-1.411,-0.067,15.0687954,8.5370742,13.407217200000002,90.93416418,0.13178034,-27.42749946
3.67,367,-0.118,-1.225,-0.005,17.3606274,1.6042823999999998,8.479778399999999,91.10605158,0.05156622,-27.41031072
3.6799999999999997,368,-0.196,-1.119,0.049,8.9954406,-0.8021411999999999,3.8388186,91.19772486,0.01145916,-27.4160403
3.69,369,-0.22,-1.033,0.032,-1.7188740000000002,0.9167328,0.8594370000000001,91.18053612,0.00572958,-27.41031072
3.6999999999999997,370,-0.219,-0.974,-0.016,-7.2765666,5.2712136,0.1718874,91.10605158,0.0,-27.3587445
3.71,371,-0.213,-0.929,-0.041,-9.1100322,9.797581800000001,0.4010706,90.9857304,-0.07448454,-27.2728008
3.7199999999999998,372,-0.202,-0.878,-0.048,-8.078707799999998,14.667724800000002,0.6302538000000001,90.8997867,-0.09167328,-27.1295613
3.73,373,-0.18600000000000005,-0.828,-0.036000000000000004,-5.3858052,21.0848544,1.3750992,90.84249090000002,-0.11459160000000004,-26.92329642
3.7399999999999998,374,-0.175,-0.78,-0.014,-3.0366774,29.392745399999995,3.4377480000000005,90.80811342,-0.16042824,-26.63108784
3.75,375,-0.159,-0.7440000000000001,0.017,-1.7188740000000002,41.3102718,7.3911582,90.77946552,-0.25210152,-26.22428766
3.76,376,-0.151,-0.72,0.025,-1.8907613999999997,51.3943326,10.6570188,90.75081762,-0.38961144,-25.72008462
3.77,377,-0.141,-0.715,0.031,-2.86479,61.4210976,12.4904844,90.71071056,-0.53858052,-25.11847872
3.78,378,-0.139,-0.726,0.035,-4.7555514,70.473834,12.032117999999999,90.64768518,-0.6875496,-24.41946996
3.79,379,-0.151,-0.732,0.042,-5.3858052,77.1201468,9.1100322,90.57320064,-0.8078707799999998,-23.6631654
3.8,380,-0.162,-0.7390000000000001,0.041,-4.5263682,80.67248640000003,4.297185,90.50444568,-0.8823553199999999,-22.866753780000003
3.81,381,-0.166,-0.748,0.032,-4.1825934,81.932994,-1.0313244,90.43569072,-0.91100322,-22.058883
3.82,382,-0.156,-0.754,0.033,-3.5523396000000003,82.7351352,-5.844171599999999,90.37266534,-0.8823553199999999,-21.23955306
3.83,383,-0.097,-0.774,0.036000000000000004,-2.4064236,84.1675302,-10.0840608,90.3268287,-0.8136003599999999,-20.40876396
3.84,384,-0.03,-0.792,0.031,-0.057295800000000015,83.53727640000002,-10.5424272,90.30391038,-0.73338624,-19.58370444
3.8499999999999996,385,0.032,-0.797,0.017,3.8388186,80.8443738,-9.0527364,90.32109912,-0.6703608600000001,-18.78156324
3.86,386,0.061,-0.7929999999999999,0.041,8.9954406,77.46392159999998,-6.1879464,90.39558366,-0.62452422,-18.01379952
3.8699999999999997,387,0.047,-0.7859999999999999,0.078,14.037471,72.5937786,-2.291832,90.52163442,-0.6302538000000001,-17.29760202
3.88,388,-0.009000000000000001,-0.778,0.131,17.5325148,66.2912406,2.0626488000000003,90.68206266,-0.67609044,-16.638700319999998
3.8899999999999997,389,-0.076,-0.7859999999999999,0.239,18.9649098,61.7075766,5.1566220000000005,90.85967964,-0.75057498,-16.02563526
3.9,390,-0.124,-0.82,0.338,15.3552744,62.3378304,5.7868758000000025,90.99718956,-0.8307891,-15.4125702
3.9099999999999997,391,-0.126,-0.917,0.262,5.3285094000000015,68.41118519999999,4.9847345999999995,91.05448536,-0.92246238,-14.73647976
3.92,392,-0.101,-1.024,0.161,6.703608600000001,67.7809314,6.1879464,91.100322,-1.01413566,-14.066118900000001
3.9299999999999997,393,-0.044,-1.132,0.07400000000000001,10.7716104,56.8947294,9.568398599999998,91.19199528,-1.13445684,-13.504620060000002
3.94,394,0.044,-1.218,0.03,11.0007936,35.6379876,15.870936600000002,91.29512772,-1.31207382,-13.15511568
3.9499999999999997,395,0.131,-1.278,0.077,13.2926256,10.599723,23.6631654,91.42690806,-1.5527161800000002,-13.05771282
3.96,396,0.196,-1.267,0.17600000000000002,19.4232762,-9.3965112,29.4500412,91.63317294,-1.82200644,-13.15511568
3.9699999999999998,397,0.188,-1.2009999999999998,0.232,23.7204612,-16.157415599999997,28.5906042,91.88527446,-2.0912967,-13.321273499999998
3.98,398,0.113,-1.152,0.22,23.7204612,-14.152062599999999,23.376686399999997,92.1316464,-2.3147503200000004,-13.47024258
3.9899999999999998,399,0.006,-1.142,0.145,14.667724800000002,-7.7922288,18.7930224,92.28634506,-2.49809688,-13.550456700000002
4.0,400,-0.018000000000000002,-1.137,-0.002,5.0993262,4.297185,18.9649098,92.33791128,-2.68717302,-13.51607922
4.01,401,0.016,-1.134,-0.195,0.4010706,19.194093,24.7517856,92.29780422000002,-2.93354496,-13.33273266
4.02,402,0.107,-1.198,-0.325,3.7815227999999994,35.8671708,37.9871154,92.31499296,-3.33461556,-12.994687439999998
4.03,403,0.252,-1.375,-0.3720000000000001,0.4583664000000001,40.33624320000001,60.50436480000001,92.29207464,-3.9648693599999993,-12.62226474
4.04,404,0.327,-1.474,-0.426,-23.032911600000002,32.0283522,87.37609499999998,92.03424354,-4.85295426,-12.34151532
4.05,405,0.257,-1.225,-0.589,-39.534102,29.0489706,101.0124954,91.60452504,-5.87854908,-12.09514338
4.06,406,0.066,-0.991,-0.474,-17.589810600000003,23.8923486,93.7359288,91.37534184,-6.812470620000001,-11.88314892
4.07,407,-0.112,-1.054,-0.222,-5.3285094000000015,12.891555,75.2293854,91.30658688,-7.56877518,-11.774286900000002
4.08,408,-0.214,-1.167,-0.237,-8.479778399999999,6.1879464,52.48295279999999,91.2149136,-8.09016696,-11.72845026
4.09,409,-0.313,-1.268,-0.25,-9.1100322,-0.8594370000000001,29.1062664,91.1289699,-8.382375540000002,-11.745639
4.1,410,-0.381,-1.289,-0.21600000000000005,1.8907613999999997,-2.6929026,8.193299399999999,91.15188822,-8.46258966,-11.774286900000002
4.109999999999999,411,-0.379,-1.255,-0.14,17.0168526,-1.5469866,-7.161975,91.31231646,-8.40529386,-11.78574606
4.12,412,-0.338,-1.211,-0.039,24.8663772,2.6929026,-18.449247600000003,91.55868840000001,-8.2219473,-11.75136858
4.13,413,-0.233,-1.188,0.02,24.4653066,10.4278356,-26.1841806,91.79360118,-7.9641161999999985,-11.63677698
4.14,414,-0.103,-1.163,0.02,16.959556799999998,17.5325148,-29.8511118,91.93684068,-7.677637200000001,-11.44770084
4.1499999999999995,415,0.029,-1.119,0.006,7.448453999999999,22.2307704,-29.0489706,91.97694774,-7.4026173600000025,-11.21278806
4.16,416,0.126,-1.045,-0.024,1.4896908000000002,23.491278,-25.6112226,91.94257026,-7.11040878,-10.96068654
4.17,417,0.171,-0.961,-0.065,-1.8907613999999997,22.631841,-20.8556712,91.89100404,-6.92133264,-10.73150334
4.18,418,0.17800000000000002,-0.88,-0.09,-3.380452200000001,19.7097552,-16.2147114,91.82797866,-6.76663398,-10.52523846
4.1899999999999995,419,0.163,-0.816,-0.094,-3.3231564,14.266654199999998,-12.4331886,91.77641244,-6.65204238,-10.38199896
4.2,420,0.129,-0.7709999999999999,-0.083,-2.6356068,7.0473834,-9.797581800000001,91.73630538,-6.560369099999999,-10.30751442
4.21,421,0.084,-0.742,-0.067,-2.0626488000000003,-1.7761698,-8.4224826,91.70192790000002,-6.4457775,-10.31897358
4.22,422,0.048,-0.723,-0.047,-2.9793816000000004,-11.516455800000001,-8.3651868,91.68473916,-6.3598338000000005,-10.43356518
4.2299999999999995,423,0.028,-0.7140000000000001,-0.024,-5.844171599999999,-22.058883,-8.307891,91.65036168,-6.26243094,-10.65128922
4.24,424,0.037000000000000005,-0.725,-0.008,-8.5370742,-29.507337,-8.021412000000002,91.59879546,-6.165028080000001,-10.93776822
4.25,425,0.06,-0.755,-0.005,-10.8289062,-35.8671708,-6.589017,91.5300405,-6.08481396,-11.29873176
4.26,426,0.081,-0.778,0.003,-11.0007936,-41.19568020000001,-3.9534102,91.46128554,-5.99887026,-11.699802359999998
4.27,427,0.105,-0.7879999999999999,0.019,-8.9381448,-44.6334282,-0.9740286,91.42690806,-5.97022236,-12.1467096
4.28,428,0.112,-0.794,0.044,-7.2765666,-45.779344200000004,1.6615782,91.40398974,-5.96449278,-12.605076
4.29,429,0.091,-0.7959999999999999,0.061,-7.7922288,-45.3782736,4.4117766,91.38107142,-5.98168152,-13.05771282
4.3,430,0.053,-0.787,0.078,-7.0473834,-44.0031744,8.250595200000001,91.3581531,-6.0447069,-13.4931609
4.31,431,0.005,-0.7859999999999999,0.08,-5.5576926,-41.4821592,11.688343199999998,91.3581531,-6.130650600000001,-13.911420239999998
4.32,432,-0.034,-0.787,0.063,-3.7815227999999994,-38.3308902,14.9542038,91.36388268,-6.25670136,-14.2953021
4.33,433,-0.063,-0.778,0.038,-1.2605076000000002,-34.60666320000001,18.2773602,91.39253058,-6.4228591800000014,-14.64480648
4.34,434,-0.091,-0.755,0.041,3.7815227999999994,-32.7159018,21.5432208,91.47847428,-6.617664899999999,-14.97712212
4.35,435,-0.114,-0.725,0.095,10.8289062,-32.4294228,24.1215318,91.62744336,-6.8411185199999975,-15.303708179999996
4.36,436,-0.102,-0.725,0.199,17.589810600000003,-32.0283522,25.1528562,91.8738153,-7.0703017200000025,-15.63029424
4.37,437,-0.097,-0.813,0.241,16.673077799999998,-30.7105488,24.1215318,92.08580976,-7.288025760000001,-15.94542114
4.38,438,-0.139,-0.947,0.208,13.9228794,-32.6013102,21.3713334,92.2748859,-7.477101899999999,-16.27773678
4.39,439,-0.117,-1.069,0.125,18.334656,-25.3247436,15.813640800000002,92.49833952,-7.620341400000001,-16.5298383
4.3999999999999995,440,-0.097,-1.154,0.08800000000000001,23.5485738,-10.5424272,6.990087599999999,92.75044104,-7.677637200000001,-16.638700319999998
4.41,441,-0.134,-1.207,0.08800000000000001,27.7311672,3.6096354,-1.432395,93.02546088,-7.66617804,-16.598593259999998
4.42,442,-0.217,-1.205,0.126,33.804522,15.0687954,-6.5317212,93.34631736,-7.60888224,-16.438165020000003
4.43,443,-0.301,-1.159,0.233,42.91455420000001,24.9809688,-6.703608600000001,93.74738796,-7.5630456000000015,-16.18033392
4.4399999999999995,444,-0.322,-1.091,0.34600000000000003,51.2224452,33.002380800000005,-1.2605076000000002,94.21721352,-7.574504760000001,-15.84801828
4.45,445,-0.242,-1.067,0.411,53.8007562,38.61736920000001,7.3911582,94.70995740000001,-7.68336678,-15.46413642
4.46,446,-0.11,-1.133,0.414,48.0711762,39.534102,15.6990492,95.15113506,-7.878172500000002,-15.08025456
4.47,447,-0.019,-1.273,0.316,34.1482968,36.2109456,16.4438946,95.44907322,-8.0787078,-14.73075018
4.4799999999999995,448,-0.036000000000000004,-1.3769999999999998,0.132,18.621135,32.8877892,8.250595200000001,95.58658314,-8.19902898,-14.409893700000001
4.49,449,-0.12,-1.426,-0.118,4.4690724,32.830493399999995,-8.8235532,95.58085356,-8.15319234,-14.07757806
4.5,450,-0.222,-1.421,-0.313,-0.572958,30.252182399999995,-32.6013102,95.52355776,-7.866713339999999,-13.74526242
4.51,451,-0.305,-1.351,-0.394,3.4377480000000005,23.4339822,-61.9940556,95.49490986,-7.288025760000001,-13.447324259999998
4.52,452,-0.335,-1.205,-0.475,8.136003599999999,17.246035799999998,-88.80849,95.54647608,-6.43431834,-13.18949316
4.53,453,-0.225,-0.933,-0.4970000000000001,10.8289062,15.985528200000001,-99.981171,95.6266902,-5.466019319999999,-12.93166206
4.54,454,0.0,-0.782,-0.334,8.880849000000003,20.1108258,-90.1835892,95.683986,-4.59512316,-12.63945348
4.55,455,0.155,-0.893,-0.14800000000000002,-1.2032118,20.168121600000006,-67.7809314,95.64960852,-3.9534102,-12.370163219999998
4.56,456,0.195,-1.101,-0.128,-18.8503182,24.0069402,-44.690724,95.41469573999998,-3.5236917,-12.0894138
4.57,457,0.17600000000000002,-1.275,-0.173,-23.7204612,36.669312,-24.2934192,95.14540548,-3.32888598,-11.71126152
4.58,458,0.097,-1.375,-0.212,-11.3445684,47.8992888,-8.5370742,94.9964364,-3.30023808,-11.23570638
4.59,459,-0.006,-1.349,-0.18,6.703608600000001,56.2644756,-1.432395,95.0250843,-3.34607472,-10.679937120000002
4.6,460,-0.09,-1.251,-0.1,22.8037284,62.051351399999994,-1.145916,95.21416044,-3.4091001000000003,-10.06114248
4.61,461,-0.132,-1.169,-0.03,30.194886600000004,66.23394479999999,-2.7501984,95.46053238,-3.46066632,-9.407970359999998
4.62,462,-0.16699999999999998,-1.135,0.02,28.1322378,68.46848100000001,-3.5523396000000003,95.69544516,-3.50650296,-8.72615034
4.63,463,-0.215,-1.144,0.037000000000000005,17.6471064,68.52577679999999,-2.3491278,95.8272255,-3.56952834,-8.0500599
4.64,464,-0.238,-1.121,0.03,3.4377480000000005,69.38521379999999,-0.9167328,95.81003676,-3.64974246,-7.3625102999999985
4.6499999999999995,465,-0.226,-1.067,0.018000000000000002,-7.8495246,72.65107440000001,-0.2291832000000001,95.67252684,-3.74141574,-6.65204238
4.66,466,-0.189,-0.997,0.006999999999999999,-13.9228794,77.75040059999998,-0.1718874,95.46053238,-3.84454818,-5.89000824
4.67,467,-0.146,-0.935,0.002,-15.0114996,83.7091638,0.5156622000000001,95.24280834,-3.9534102,-5.0706783
4.68,468,-0.111,-0.8959999999999999,0.006,-13.9228794,91.0430262,2.4064236,95.0250843,-4.0794609600000005,-4.17686382
4.6899999999999995,469,-0.086,-0.872,0.006999999999999999,-11.2872726,99.121734,5.9014674000000005,94.824549,-4.25134836,-3.2085648000000004
4.7,470,-0.08,-0.862,0.008,-7.8495246,107.4869208,11.172681,94.6526616,-4.48053156,-2.16005166
4.71,471,-0.093,-0.858,0.009000000000000001,-4.5263682,116.8261362,14.896907999999998,94.49223336,-4.7555514,-1.01986524
4.72,472,-0.11,-0.848,0.016,-2.578311,123.9881112,16.2147114,94.34899386,-5.042030400000002,0.18334656
4.7299999999999995,473,-0.126,-0.8440000000000001,0.036000000000000004,-0.9740286,130.0041702,15.183387000000002,94.20575436,-5.32277982,1.45531332
4.74,474,-0.13699999999999998,-0.846,0.06,-1.432395,134.3013552,11.8029348,94.04532612,-5.574881339999999,2.7788463
4.75,475,-0.13699999999999998,-0.85,0.076,-2.6356068,136.93696200000002,6.4744254,93.86770914,-5.76968706,4.1252976000000015
4.76,476,-0.123,-0.846,0.068,-3.3231564,137.6818074,0.3437748,93.67863300000002,-5.9014674000000005,5.48893764
4.77,477,-0.08900000000000001,-0.84,0.06,-3.0366774,138.0255822,-5.2712136,93.48382728,-5.97595194,6.858307260000001
4.78,478,-0.05,-0.84,0.052000000000000005,-1.9480572,136.02022920000002,-9.8548776,93.3062103,-5.9931406800000016,8.210488139999999
4.79,479,-0.01,-0.833,0.058,0.6875496,133.78569299999998,-11.9748222,93.15724122,-5.9874111,9.5397507
4.8,480,0.011,-0.8290000000000001,0.085,4.9847345999999995,133.4419182,-12.7196676,93.0483792,-5.96449278,10.86901326
4.81,481,0.014,-0.83,0.12,9.9121734,133.6711014,-12.5477802,92.99681298,-5.94157446,12.2040054
4.82,482,0.005,-0.84,0.157,14.381245800000002,134.3013552,-11.5737516,92.99108340000001,-5.930115299999999,13.54472712
4.83,483,-0.004,-0.8540000000000001,0.184,17.9908812,133.9575804,-8.9954406,93.01400172,-5.9473040400000015,14.879719259999998
4.84,484,-0.031,-0.875,0.218,21.7151082,133.2700308,-4.4117766,93.08275668,-6.00459984,16.20325224
4.85,485,-0.059,-0.899,0.292,24.8663772,133.6711014,1.2605076000000002,93.17442996,-6.12492102,17.52678522
4.86,486,-0.064,-0.934,0.34600000000000003,25.2674478,136.077525,7.7922288,93.28329198,-6.31399716,18.87323652
4.87,487,-0.017,-1.01,0.28300000000000003,18.5638392,138.082878,13.349921400000001,93.30048072,-6.560369099999999,20.23687656
4.88,488,0.056,-1.078,0.161,15.870936600000002,126.16535159999998,19.308684600000007,93.30048072,-6.858307260000001,21.48019542
4.89,489,0.116,-1.14,0.126,18.9649098,105.25238459999998,23.032911600000002,93.35204694,-7.1734341599999984,22.51151982
4.8999999999999995,490,0.161,-1.162,0.091,18.7930224,83.0216142,25.0382646,93.43226106,-7.4885610599999985,23.32512018
4.91,491,0.16899999999999998,-1.118,0.096,21.8869956,63.59833800000001,26.1268848,93.56404139999998,-7.780769640000001,23.94391482
4.92,492,0.125,-1.045,0.153,28.7051958,51.33703679999999,25.84040580000001,93.78176544,-8.0787078,24.44238828
4.93,493,0.051,-1.058,0.166,28.361421000000004,48.414951,24.064235999999998,93.9937599,-8.3651868,24.90648426000001
4.9399999999999995,494,-0.065,-1.106,0.118,15.469866,50.6494872,20.8556712,94.07397402,-8.61728832,25.39922814
4.95,495,-0.209,-1.148,-0.052000000000000005,-2.0626488000000003,55.06126379999999,15.813640800000002,93.965112,-8.82928278,25.93780866
4.96,496,-0.227,-1.19,-0.179,-18.2773602,69.38521379999999,11.172681,93.64425552,-9.00689976,26.61962868
4.97,497,-0.17,-1.193,-0.292,-31.340802600000004,90.1835892,12.261301199999998,93.17442996,-9.20743506,27.50771358
4.9799999999999995,498,-0.023,-1.162,-0.426,-38.4454818,115.56562859999998,21.4286292,92.58428322,-9.5111028,28.64217042
4.99,499,0.157,-1.111,-0.506,-36.8411994,141.4060344,34.4347758,91.95402942,-9.95228046,30.04018794000001
5.0,500,0.224,-0.996,-0.422,-25.84040580000001,159.1677324,45.206386200000004,91.39253058,-10.49086098,31.62155202000001
5.01,501,0.15,-0.956,-0.241,-5.844171599999999,164.0378754,50.5348956,90.99718956,-11.06381898,33.260211899999995
5.02,502,0.062,-1.093,-0.135,-1.7188740000000002,151.03172880000002,49.7900502,90.66487392,-11.61958824,34.772821019999995
5.03,503,0.0,-1.314,-0.225,-18.048177,122.6703078,45.3209778,90.2122371,-12.11233212,35.99895114
5.04,504,-0.013,-1.4169999999999998,-0.264,-19.194093,97.9185222,38.3308902,89.79397776,-12.52486188,36.99016848
5.05,505,0.03,-1.443,-0.173,-4.297185,82.79243100000002,26.5279554,89.55333540000002,-12.8056113,37.82668716
5.06,506,0.047,-1.392,-0.097,12.2040054,78.4379502,11.8029348,89.48458044,-12.920202899999998,38.62882836
5.07,507,0.021,-1.3019999999999998,-0.043,19.4232762,82.21947300000002,-3.8388186,89.48458044,-12.89728458,39.45961746
5.08,508,-0.016,-1.249,0.022,17.761698000000006,91.7878716,-17.5325148,89.45020296,-12.73685634,40.393539
5.09,509,-0.009000000000000001,-1.22,0.05,11.0580894,105.8253426,-25.0955604,89.31269304,-12.507673139999998,41.46497046
5.1,510,-0.009000000000000001,-1.1909999999999998,0.048,4.7555514,119.5190388,-25.1528562,89.08350984,-12.27276036,42.67391184
5.11,511,0.008,-1.148,0.039,-1.0886202,130.46253660000002,-18.8503182,88.7798421,-12.08368422,43.99171524000001
5.12,512,0.041,-1.088,0.016,-4.9274388,134.53053839999998,-10.255948199999999,88.43033772,-11.98628136,45.34389612
5.13,513,0.048,-1.033,-0.009000000000000001,-6.130650599999999,134.4159468,-1.6615782,88.0636446,-11.96336304,46.70180658
5.14,514,0.04,-0.978,-0.025,-5.844171599999999,132.2960022,5.5003968,87.70841064,-12.00919968,48.0425283
5.1499999999999995,515,0.051,-0.93,-0.029,-3.724227,129.20202899999998,10.3705398,87.38182458,-12.09514338,49.35460212
5.16,516,0.076,-0.887,-0.018000000000000002,-1.7188740000000002,126.8529012,12.5477802,87.07815683999998,-12.1753575,50.63802804
5.17,517,0.111,-0.8390000000000001,0.002,-0.2291832000000001,123.6443364,13.178034,86.79167784,-12.27276036,51.89853564
5.18,518,0.14,-0.7959999999999999,0.016,0.572958,118.4304186,13.2926256,86.52238758000001,-12.370163219999998,53.10174744000001
5.1899999999999995,519,0.151,-0.748,0.031,1.8334656000000005,110.867373,13.521808800000002,86.28747480000001,-12.4618365,54.23620428
5.2,520,0.14800000000000002,-0.7170000000000001,0.05,2.6929026,102.9605526,13.750992000000002,86.06975076,-12.55923936,55.28471741999999
5.21,521,0.139,-0.706,0.065,2.6929026,96.0277608,13.8655836,85.88067462000002,-12.6337239,56.264475600000004
5.22,522,0.115,-0.718,0.084,2.0626488000000003,91.55868840000001,14.266654199999998,85.6858689,-12.73112676,57.20412672
5.2299999999999995,523,0.103,-0.733,0.1,1.4896908000000002,88.98037740000002,15.126091199999998,85.48533359999998,-12.839988780000002,58.11512994000001
5.24,524,0.084,-0.759,0.116,1.6042823999999998,87.66257399999998,16.615782,85.29052787999998,-12.96030996,59.02040358000001
5.25,525,0.07400000000000001,-0.77,0.115,1.6042823999999998,87.26150340000002,19.0222056,85.09572216000002,-13.09781988,59.91994764
5.26,526,0.07400000000000001,-0.765,0.105,2.4637194,87.77716559999998,22.0015872,84.91237559999998,-13.24105938,60.82522128
5.27,527,0.08199999999999999,-0.7609999999999999,0.08900000000000001,3.9534102,89.7252228,24.7517856,84.72902904,-13.43013552,61.75914282
5.28,528,0.09,-0.768,0.076,5.0993262,92.6473086,26.1268848,84.5399529,-13.63067082,62.72171225999999
5.29,529,0.09,-0.784,0.069,5.7868758000000025,95.85587340000001,26.8717302,84.35087675999998,-13.83120612,63.72438876
5.3,530,0.086,-0.8079999999999999,0.052000000000000005,5.5003968,97.0017894,27.7311672,84.15034145999998,-14.03174142,64.73852442
5.31,531,0.073,-0.833,0.024,4.010706000000001,96.6580146,28.762491600000004,83.938347,-14.22081756,65.74693049999999
5.32,532,0.06,-0.8590000000000001,0.006,2.0053530000000004,95.5120986,29.392745399999995,83.69770464000001,-14.438541599999999,66.749607
5.33,533,0.056,-0.892,-0.009000000000000001,-0.2291832000000001,93.2775624,29.9657034,83.43414396,-14.656265639999996,67.73509476
5.34,534,0.08,-0.935,-0.013,-2.5210152000000003,89.3241522,30.4240698,83.15912412,-14.879719259999998,68.68047546
5.35,535,0.119,-1.013,-0.016,-4.4117766,81.8756982,32.142943800000005,82.8783747,-15.12036162,69.55137162
5.36,536,0.12,-1.107,-0.031,-7.1046792000000005,71.33327100000002,35.3515086,82.59762528,-15.37246314,70.32486492
5.37,537,0.045,-1.14,-0.027000000000000003,-3.6096354,57.7541664,40.393539,82.37990124000002,-15.71050836,70.96657788
5.38,538,0.015,-1.147,0.037000000000000005,9.9121734,48.9306132,43.1437374,82.32260544,-16.08293106,71.52807672
5.39,539,-0.018000000000000002,-1.168,0.085,22.459953600000002,48.414951,40.04976420000001,82.39136040000002,-16.426705860000002,72.07811640000001
5.3999999999999995,540,-0.062,-1.217,0.091,24.7517856,51.4516284,33.4607472,82.47157452,-16.701725699999994,72.65107440000001
5.41,541,-0.105,-1.273,0.015,25.55392680000001,50.133825,26.929026,82.57470696,-16.89653142,73.20684365999998
5.42,542,-0.149,-1.341,-0.022,28.6479,45.0344988,18.1054728,82.71794646,-17.02831176,73.69385796
5.43,543,-0.214,-1.4340000000000002,-0.114,31.79916900000001,50.47759979999999,1.7761698,82.8783747,-16.99393428,74.22097932
5.4399999999999995,544,-0.292,-1.4580000000000002,-0.183,36.2682414,60.332477399999995,-17.4179232,83.06172126,-16.764751080000003,74.82258522
5.45,545,-0.312,-1.36,-0.277,43.1437374,68.75496,-35.9244666,83.30236362,-16.34076216,75.49294608
5.46,546,-0.226,-1.167,-0.38,47.4982182,68.9268474,-44.8626114,83.57165388,-15.83082954,76.15184778
5.47,547,-0.128,-0.942,-0.376,44.117766,63.7129296,-43.0864416,83.84667372,-15.34954482,76.76491284
5.4799999999999995,548,-0.078,-0.7559999999999999,-0.29600000000000004,31.3980984,61.87946400000001,-37.81522800000001,84.00137237999998,-14.9255559,77.36078916
5.49,549,-0.036000000000000004,-0.649,-0.214,15.0687954,67.83822719999999,-32.544014399999995,83.97845406,-14.54740362,78.01969086
5.5,550,-0.033,-0.653,-0.21,-0.7448454000000001,80.7297822,-26.356068,83.76073002,-14.22654714,78.8103729
5.51,551,-0.057,-0.792,-0.16899999999999998,-13.178034,99.408213,-18.334656,83.37111858,-13.951527300000002,79.80159024000002
5.52,552,-0.081,-1.026,-0.158,-19.4232762,118.5450102,-7.5630456000000015,82.87264512,-13.76818074,80.98761329999998
5.53,553,-0.124,-1.257,-0.204,-17.9908812,135.3899754,4.1825934,82.34552376,-13.67650746,82.3627125
5.54,554,-0.18600000000000005,-1.391,-0.21600000000000005,-6.8182002000000015,149.1982632,14.9542038,81.89288694,-13.6650483,83.89251035999997
5.55,555,-0.243,-1.371,-0.16399999999999998,12.318597,161.1157896,22.2307704,81.60640794,-13.699425780000002,85.55408856
5.56,556,-0.264,-1.266,-0.116,30.0229992,172.9760202,25.84040580000001,81.46316844,-13.73953284,87.34171752
5.57,557,-0.264,-1.168,-0.085,39.534102,183.0027852,27.7311672,81.3886839,-13.79109906,89.2382085
5.58,558,-0.253,-1.138,-0.052000000000000005,41.252976,191.4252678,28.7051958,81.30846978000002,-13.836935700000002,91.22064318
5.59,559,-0.225,-1.13,-0.014,38.90384820000001,197.4986226,28.8770832,81.18814859999998,-13.871313179999998,93.26037366
5.6,560,-0.191,-1.111,-0.003,34.8931422,199.389384,29.335449600000004,81.02199078,-13.90569066,95.32875204
5.61,561,-0.158,-1.086,0.009000000000000001,31.1689152,200.0196378,29.7365202,80.82145548,-13.93433856,97.39713042
5.62,562,-0.123,-1.068,0.023,28.1895336,200.821779,30.194886600000004,80.58081312,-13.96298646,99.47696796
5.63,563,-0.08,-1.054,0.034,26.356068,201.7385118,30.8824362,80.31725244,-13.985904779999998,101.56253508
5.64,564,-0.055,-1.052,0.053,26.69984280000001,203.113611,31.79916900000001,80.04796218,-14.008823099999995,103.67102052
5.6499999999999995,565,-0.054000000000000006,-1.039,0.058,27.3300966,205.0616682,33.1742682,79.7844015,-14.03174142,105.79669469999999
5.66,566,-0.07200000000000001,-1.013,0.05,27.1582092,206.2075842,34.66395900000001,79.52084082,-14.04893016,107.93955762
5.67,567,-0.102,-0.99,0.049,26.2414764,206.3221758,35.52339600000001,79.24009140000003,-14.07757806,110.08242054
5.68,568,-0.122,-0.987,0.054000000000000006,25.78311,205.2335556,35.236917,78.95361240000003,-14.08903722,112.21955388
5.6899999999999995,569,-0.121,-0.987,0.067,24.8663772,204.0303438,33.116972399999995,78.6671334,-14.07184848,114.3337689
5.7,570,-0.103,-0.982,0.066,24.8663772,201.2801454,29.1635622,78.38638397999998,-14.01455268,116.41933602
5.71,571,-0.073,-0.975,0.068,25.0382646,196.00893180000003,24.064235999999998,78.14001204,-13.894231499999998,118.4304186
5.72,572,-0.037000000000000005,-0.969,0.075,24.064235999999998,189.0188442,19.767051,77.89936967999998,-13.750992000000002,120.36701664
5.7299999999999995,573,0.013,-0.963,0.08199999999999999,21.6578124,180.9974322,16.7303736,77.65872732,-13.5791046,122.21767098
5.74,574,0.064,-0.96,0.069,17.3606274,171.65821680000005,15.126091199999998,77.40089622,-13.40148762,123.96519288
5.75,575,0.111,-0.947,0.044,12.7769634,161.00119800000004,14.381245800000002,77.13160596,-13.2353298,125.60385276
5.76,576,0.157,-0.925,0.024,9.8548776,149.31285480000003,13.750992000000002,76.87950443999998,-13.051983240000002,127.11646188
5.77,577,0.192,-0.904,0.022,8.307891,136.65048299999998,12.7196676,76.63886208,-12.903014159999998,128.50302024
5.78,578,0.218,-0.8740000000000001,0.028,7.448453999999999,123.8735196,10.8289062,76.41540846000002,-12.75404508,129.75779826
5.79,579,0.213,-0.84,0.043,8.193299399999999,111.49762679999999,8.307891,76.23779148,-12.59934642,130.88652552000002
5.8,580,0.182,-0.8190000000000001,0.059,9.6256944,100.3822416,5.5003968,76.10601113999998,-12.44464776,131.88920202
5.81,581,0.114,-0.8240000000000001,0.07,9.969469199999999,91.67328,3.0939732,76.02579702,-12.24984204,132.80020524000003
5.82,582,0.027000000000000003,-0.857,0.044,8.7662574,83.93834700000002,1.7188740000000002,75.92839416000002,-12.0894138,133.63099434
5.83,583,-0.091,-0.8859999999999999,-0.041,8.7089616,74.7137232,2.578311,75.84818004,-11.95190388,134.37583974
5.84,584,-0.175,-0.885,-0.029,11.4018642,68.6403684,3.8961144,75.81380256,-11.84304186,135.06338934
5.85,585,-0.21,-0.878,0.041,15.126091199999998,68.1247062,3.9534102,75.81953214,-11.73417984,135.75093894000003
5.86,586,-0.218,-0.8959999999999999,0.04,15.126091199999998,69.15603060000001,3.151269,75.85390962,-11.613858660000002,136.43275896
5.87,587,-0.19,-0.906,0.011,13.8082878,70.35924240000001,0.7448454000000001,75.84245046,-11.470619159999998,137.13176772000003
5.88,588,-0.14300000000000002,-0.942,0.031,17.8189938,71.9635248,-2.2345362,75.87682794,-11.29300218,137.83650605999998
5.89,589,-0.08900000000000001,-1.014,0.05,21.3140376,67.322565,-3.6096354,75.95704206,-11.109655620000002,138.48967818
5.8999999999999995,590,-0.05,-1.051,0.094,23.14750320000001,58.38442020000001,-3.4950437999999995,76.07736324,-10.94922738,139.06263618
5.91,591,0.0,-1.075,0.136,23.4339822,51.10785360000001,-2.3491278,76.2607098,-10.78879914,139.54965048000003
5.92,592,0.028,-1.0759999999999998,0.123,23.6058696,48.2430636,-1.0886202,76.40394930000002,-10.679937120000002,140.02520562
5.93,593,0.067,-1.124,0.07,21.4286292,51.5089242,-1.0313244,76.5185409,-10.55961594,140.52940866
5.9399999999999995,594,0.136,-1.26,-0.102,12.261301199999998,54.25912260000001,1.3750992,76.54145922000002,-10.46221308,141.06798917999996
5.95,595,0.224,-1.393,-0.284,14.266654199999998,51.0505578,8.307891,76.58156627999998,-10.43929476,141.58938096
5.96,596,0.27,-1.472,-0.33,30.366774000000003,42.1697088,17.9908812,76.80501989999998,-10.50804972,142.04774736000005
5.97,597,0.208,-1.365,-0.278,35.9817624,32.085648000000006,26.2414764,77.09722848,-10.69712586,142.42589964
5.9799999999999995,598,0.025,-1.088,-0.276,41.252976,34.7785506,27.501984000000004,77.43527370000002,-10.89193158,142.8384294
5.99,599,-0.189,-0.866,-0.264,46.00852740000001,42.05511720000001,22.5172494,77.8076964,-11.0294415,143.30825496
6.0,600,-0.343,-0.813,-0.198,39.9924684,46.1804148,18.334656,78.11136413999998,-11.12111478,143.80672841999996
6.01,601,-0.429,-0.833,-0.184,20.340009,49.3316838,16.501190400000002,78.20303742,-11.22424722,144.33384977999995
6.02,602,-0.42,-0.889,-0.226,5.958763200000001,55.9779966,13.6936962,78.14574162,-11.26435428,144.91826694
6.03,603,-0.35200000000000004,-0.981,-0.252,0.3437748,59.874111,8.59437,78.01969086,-11.24143596,145.53133200000005
6.04,604,-0.236,-1.068,-0.221,-0.8594370000000001,59.64492779999999,1.3750992,77.88791051999998,-11.1440331,146.12720832
6.05,605,-0.085,-1.129,-0.184,-0.572958,58.613603399999995,-6.3025379999999975,77.76758934,-10.97787528,146.69443674
6.06,606,0.037000000000000005,-1.164,-0.163,0.9740286,56.0352924,-12.318597,77.67591605999998,-10.72577376,147.21582852
6.07,607,0.13699999999999998,-1.169,-0.14800000000000002,2.5210152000000003,53.1705024,-15.4125702,77.60143152,-10.47367224,147.7085724
6.08,608,0.201,-1.158,-0.14800000000000002,3.3231564,49.847346,-15.5844576,77.5498653,-10.2273003,148.1669388
6.09,609,0.227,-1.143,-0.158,3.0939732,45.779344200000004,-14.266654199999998,77.49829908000002,-10.00384668,148.59092772000002
6.1,610,0.2,-1.129,-0.175,4.6982556,43.544808,-14.0947668,77.46965118,-9.78612264,148.98626874
6.11,611,0.122,-1.119,-0.14800000000000002,10.0840608,41.9978214,-15.2979786,77.51548782,-9.52256196,149.36442101999995
6.12,612,-0.001,-1.106,-0.096,14.5531332,40.04976420000001,-16.673077799999998,77.60143152,-9.28764918,149.72538456
6.13,613,-0.123,-1.077,-0.026,18.2200644,38.8465524,-16.329303,77.7217527,-9.0527364,150.07488894
6.14,614,-0.18600000000000005,-1.044,0.017,19.2513888,39.1330314,-13.750992000000002,77.85926262000002,-8.84647152,150.4301229
6.15,615,-0.189,-1.008,0.03,17.9908812,41.6540466,-11.172681,77.97385421999998,-8.663124960000001,150.81973434
6.16,616,-0.14300000000000002,-0.973,0.029,15.527161800000002,45.3782736,-10.0840608,78.09417540000003,-8.47404882,151.23799368
6.17,617,-0.071,-0.953,0.024,13.0634424,48.987909,-11.0007936,78.15720078000003,-8.2792431,151.70208966
6.18,618,0.006999999999999999,-0.943,0.016,8.9954406,50.993262,-12.5477802,78.16865994000003,-8.067248639999999,152.1776448
6.1899999999999995,619,0.08800000000000001,-0.934,-0.006999999999999999,4.7555514,50.76407879999999,-13.6364004,78.14574162,-7.84379502,152.64747036
6.2,620,0.156,-0.923,-0.03,1.5469866,48.9306132,-13.178034,78.09417540000003,-7.63180056,153.10010718
6.21,621,0.198,-0.9,-0.046,-1.432395,45.6074568,-11.1153852,78.04260918,-7.37969904,153.51263694
6.22,622,0.211,-0.8690000000000001,-0.046,-3.8388186,40.2216516,-7.9641161999999985,77.9509359,-7.2307299600000015,153.89078922000004
6.2299999999999995,623,0.214,-0.836,-0.041,-6.3025379999999975,34.2055926,-4.8701430000000006,77.83634430000002,-7.12186794,154.21737528
6.24,624,0.204,-0.8140000000000001,-0.032,-8.479778399999999,28.1895336,-2.5210152000000003,77.71602312,-7.0473833999999975,154.48666554000005
6.25,625,0.192,-0.804,-0.022,-9.8548776,21.772404,-1.0886202,77.58424278,-6.99581718,154.69866000000005
6.26,626,0.17800000000000002,-0.8079999999999999,-0.014,-11.0007936,15.3552744,-0.2291832000000001,77.49829908000002,-6.8812255800000015,154.83044034
6.27,627,0.158,-0.809,-0.01,-10.7143146,9.3392154,-0.057295800000000015,77.3779779,-6.86403684,154.91638404
6.28,628,0.139,-0.8029999999999999,-0.009000000000000001,-9.1100322,3.4377480000000005,0.0,77.28057504,-6.858307260000001,154.95076152
6.29,629,0.112,-0.79,-0.012,-5.7868758000000025,-2.3491278,0.057295800000000015,77.22327924,-6.86403684,154.92784319999996
6.3,630,0.08800000000000001,-0.778,-0.02,-1.9480572,-8.193299399999999,0.4583664000000001,77.21754966,-6.886955159999999,154.84762908
6.31,631,0.064,-0.768,-0.03,1.5469866,-14.2093584,1.145916,77.28057504,-6.886955159999999,154.70438958
6.32,632,0.033,-0.754,0.002,5.844171599999999,-20.340009,2.0053530000000004,77.36651874,-6.94425096,154.50958386
6.33,633,0.0,-0.7509999999999999,0.095,12.5477802,-24.7517856,2.86479,77.52694698,-7.018735500000001,154.27467108
6.34,634,-0.026,-0.769,0.187,15.985528200000001,-25.8977016,3.3231564,77.7217527,-7.098949620000001,154.02829914
6.35,635,-0.042,-0.855,0.228,14.4385416,-23.6058696,2.8074942000000003,77.89936967999998,-7.167704579999999,153.80484552
6.36,636,-0.06,-0.983,0.242,11.6310474,-20.5691922,1.4896908000000002,78.18584868,-7.1906228999999975,153.58712148
6.37,637,-0.073,-1.161,0.233,10.886202,-15.985528200000001,-1.3750992,78.31762902,-7.20781164,153.43242282
6.38,638,-0.095,-1.259,0.221,10.1986524,-6.130650599999999,-5.6722842,78.43222062,-7.161975,153.35793827999996
6.39,639,-0.126,-1.281,0.21600000000000005,11.5737516,6.0733548,-9.568398599999998,78.54108264,-7.05311298,153.40377492
6.4,640,-0.132,-1.235,0.215,17.5325148,13.980175199999998,-10.7143146,78.70151088,-6.9270622200000025,153.51836652
6.41,641,-0.098,-1.196,0.224,20.454600600000006,16.7303736,-8.880849000000003,78.94788281999998,-6.8010114600000025,153.66160602
6.42,642,-0.045,-1.2,0.193,18.334656,16.673077799999998,-6.417129599999999,79.11404064,-6.7093381800000005,153.81630468
6.43,643,-0.03,-1.276,0.059,14.5531332,14.896907999999998,-6.016058999999999,79.24582097999998,-6.623394479999999,153.95381460000004
6.4399999999999995,644,-0.071,-1.411,-0.193,11.917526400000002,13.349921400000001,-11.5737516,79.34895342,-6.49161414,154.06267662
6.45,645,-0.182,-1.518,-0.48,10.8289062,14.8396122,-24.1788276,79.44635628,-6.22805346,154.16580906
6.46,646,-0.325,-1.551,-0.56,17.8762896,19.0222056,-44.5761324,79.60678451999998,-5.76395748,154.28040066
6.47,647,-0.425,-1.525,-0.625,24.0069402,26.4706596,-66.463128,79.83596772,-5.07640788,154.42364016000005
6.4799999999999995,648,-0.398,-1.251,-0.691,23.4339822,28.304125199999998,-72.30729960000002,80.05369175999998,-4.325832900000001,154.57833882
6.49,649,-0.215,-0.971,-0.544,26.4706596,23.0902074,-63.88481700000001,80.31152286,-3.66120162,154.70438958
6.5,650,0.025,-0.8490000000000001,-0.348,18.1054728,17.9335854,-49.560867,80.48341026,-3.151269,154.80179244
6.51,651,0.245,-0.7979999999999999,-0.228,-0.6302538000000001,19.194093,-34.7212548,80.44903278000002,-2.71582092,154.92211362
6.52,652,0.3670000000000001,-0.828,-0.202,-14.7823164,19.938938399999998,-19.9962342,80.28860454,-2.4923673,155.08254186
6.53,653,0.411,-0.975,-0.182,-20.798375399999998,18.7357266,-7.448453999999999,80.06515092,-2.39496444,155.25442926
6.54,654,0.385,-1.161,-0.168,-20.2827132,16.2147114,5.3285094000000015,79.85315646,-2.42934192,155.42058708
6.55,655,0.294,-1.263,-0.117,-12.318597,16.329303,11.9748222,79.71564654,-2.5210152000000003,155.59820406
6.56,656,0.14300000000000002,-1.276,-0.08900000000000001,-4.010706000000001,16.042824000000003,15.2406828,79.68126906,-2.62987722,155.78155062000005
6.57,657,-0.01,-1.251,-0.092,0.8594370000000001,15.0114996,16.4438946,79.68126906,-2.76738714,155.95343802
6.58,658,-0.131,-1.178,-0.102,3.151269,14.152062599999999,15.5844576,79.6984578,-2.89916748,156.11959584000004
6.59,659,-0.193,-1.108,-0.095,3.5523396000000003,12.7196676,14.266654199999998,79.72710570000002,-3.01948866,156.2742945
6.6,660,-0.212,-1.046,-0.092,-0.9167328,12.4904844,13.120738199999998,79.70991696000002,-3.12835068,156.41753400000005
6.61,661,-0.189,-0.984,-0.093,-3.8388186,13.2353298,12.0894138,79.68126906,-3.27159018,156.57223266
6.62,662,-0.14800000000000002,-0.935,-0.095,-7.9641161999999985,14.495837400000001,12.0894138,79.58959578,-3.3689930400000003,156.73839048
6.63,663,-0.106,-0.873,-0.097,-9.969469199999999,15.813640800000002,13.349921400000001,79.47500418000001,-3.47785506,156.91600746
6.64,664,-0.085,-0.812,-0.105,-10.026765,17.761698000000006,14.8396122,79.36041258,-3.59817624,157.11654276
6.65,665,-0.07200000000000001,-0.773,-0.113,-9.224623800000002,21.6005166,16.4438946,79.24582097999998,-3.724227,157.35718512
6.66,666,-0.08,-0.752,-0.126,-8.59437,27.043617600000005,18.1054728,79.13695895999999,-3.8674665,157.65512328
6.67,667,-0.096,-0.736,-0.133,-8.5370742,32.7731976,19.194093,79.02236736,-4.00497642,158.01035724
6.68,668,-0.112,-0.722,-0.133,-7.161975,38.1590028,19.194093,78.91350534,-4.131027179999999,158.41715742000005
6.6899999999999995,669,-0.126,-0.706,-0.124,-4.8128472,42.398892,17.589810600000003,78.82756164,-4.22843004,158.86406466
6.7,670,-0.138,-0.698,-0.114,-1.7188740000000002,45.83664,13.521808800000002,78.77026584,-4.28572584,159.33961979999995
6.71,671,-0.133,-0.713,-0.105,-0.057295800000000015,46.2377106,9.740286,78.73015878,-4.320103319999999,159.80944535999996
6.72,672,-0.121,-0.736,-0.097,0.6302538000000001,44.404245,6.0733548,78.6957813,-4.30291458,160.25635259999999
6.7299999999999995,673,-0.102,-0.782,-0.087,1.6042823999999998,40.2789474,2.4637194,78.67859256,-4.25707794,160.65742319999995
6.74,674,-0.08900000000000001,-0.8190000000000001,-0.092,2.4064236,35.6379876,-0.4010706,78.67286298,-4.19405256,161.001198
6.75,675,-0.071,-0.8420000000000001,-0.09,3.724227,31.971056400000002,-2.8074942000000003,78.68432214,-4.11383844,161.31059532
6.76,676,-0.046,-0.87,-0.093,4.1825934,30.5386614,-4.9847345999999995,78.71869962000002,-4.00497642,161.59707432
6.77,677,-0.028,-0.8740000000000001,-0.096,7.5057497999999985,29.2781538,-7.161975,78.77026584,-3.89038482,161.87209416
6.78,678,-0.024,-0.8690000000000001,-0.077,15.126091199999998,27.444688199999998,-9.3965112,78.90204618,-3.74714532,162.12419568
6.79,679,-0.039,-0.865,-0.056,19.5378678,24.923673,-10.026765,79.08539274,-3.6096353999999997,162.35337887999995
6.8,680,-0.078,-0.857,-0.018000000000000002,22.8037284,21.0848544,-8.8235532,79.2973872,-3.48358464,162.54245501999995
6.81,681,-0.12,-0.847,0.093,26.814434400000003,17.589810600000003,-6.9327918,79.61824368,-3.4091001000000003,162.70288326
6.82,682,-0.173,-0.892,0.202,26.069589,18.449247600000003,-5.3858052,79.8703452,-3.3231564,162.88050024
6.83,683,-0.154,-1.001,0.13,13.8082878,24.064235999999998,-3.8388186,79.99639596,-3.2486718599999995,163.10968344
6.84,684,-0.106,-1.095,0.045,4.9847345999999995,29.335449600000004,-2.3491278,80.02504386000003,-3.18564648,163.39616244
6.85,685,-0.079,-1.213,-0.053,4.583664,26.69984280000001,-0.3437748,80.05369175999998,-3.1398098400000003,163.65399354
6.86,686,-0.043,-1.284,-0.054000000000000006,7.161975,11.0007936,5.3858052,80.13963546,-3.16845774,163.76858513999997
6.87,687,0.006999999999999999,-1.289,0.0,11.516455800000001,-3.151269,11.9748222,80.25995664,-3.28877892,163.76285556
6.88,688,0.033,-1.23,0.094,17.8762896,-9.453807000000001,15.6990492,80.44330319999997,-3.45493674,163.6941006
6.89,689,-0.012,-1.115,0.193,25.7258142,-8.078707799999998,13.464512999999998,80.71259346,-3.59817624,163.63680480000005
6.9,690,-0.092,-1.0490000000000002,0.251,30.4813656,-3.8388186,6.990087599999999,81.02199078,-3.6669312000000014,163.61388648
6.91,691,-0.14300000000000002,-1.04,0.258,26.7571386,4.8701430000000006,-1.3178034,81.3886839,-3.6669312000000014,163.65972312
6.92,692,-0.145,-1.0490000000000002,0.133,23.0902074,17.761698000000006,-6.760904399999999,81.60640794,-3.5809875,163.82588094
6.93,693,-0.112,-1.085,-0.025,31.8564648,32.486718599999996,-3.9534102,81.91007568,-3.50077338,164.14673742
6.9399999999999995,694,-0.069,-1.214,-0.021,37.4714532,39.3049188,8.651665800000002,82.25958005999998,-3.54088044,164.54780802
6.95,695,0.005,-1.366,-0.14,24.8090814,35.8671708,26.4706596,82.48303368,-3.75860448,164.93741946
6.96,696,0.124,-1.493,-0.28800000000000003,15.5844576,33.6899304,46.29500640000001,82.60335486,-4.17113424,165.3270309
6.97,697,0.282,-1.45,-0.389,5.5003968,39.19032720000001,62.68160520000001,82.62054359999998,-4.749821819999998,165.79685646
6.9799999999999995,698,0.274,-1.218,-0.462,-4.9847345999999995,45.550161,67.83822719999999,82.51741116,-5.37434604,166.32970740000005
6.99,699,0.163,-1.028,-0.476,-10.4278356,45.0917946,66.80690279999999,82.35125334,-5.9874111,166.86255834000005
7.0,700,0.001,-0.934,-0.484,-9.3965112,34.4920716,61.1919144,82.20801384,-6.554639519999999,167.28081768
7.01,701,-0.136,-0.931,-0.438,-9.167328,17.4179232,49.1597964,82.03612644,-7.0244650800000015,167.52718962
7.02,702,-0.215,-0.993,-0.3670000000000001,-6.417129599999999,0.8594370000000001,28.991674800000002,81.96164189999998,-7.31094408,167.57302626
7.03,703,-0.256,-1.044,-0.303,-1.2032118,-6.1879464,11.0007936,81.95591232000002,-7.42553568,167.52718962
7.04,704,-0.241,-1.0490000000000002,-0.232,7.6776372,-8.7089616,-6.417129599999999,82.04758559999998,-7.36823988,167.42978676
7.05,705,-0.182,-1.06,-0.166,14.610429000000002,-11.2872726,-19.595163600000006,82.219473,-7.1906228999999975,167.29800642
7.06,706,-0.101,-1.069,-0.123,16.2147114,-12.891555,-26.642547,82.40281956,-6.9270622200000025,167.1318486
7.07,707,0.0,-1.092,-0.101,16.4438946,-10.1413566,-29.2781538,82.58616612,-6.6463128,166.99433868
7.08,708,0.067,-1.105,-0.073,15.3552744,-7.5057497999999985,-28.762491600000004,82.75805352,-6.3655633799999976,166.88547666
7.09,709,0.106,-1.072,-0.033,13.120738199999998,-6.589017,-25.496631,82.90129302,-6.11919144,166.79380338
7.1,710,0.115,-1.013,-0.029,8.9954406,-7.1046792000000005,-20.1108258,83.00442546000002,-5.930115299999999,166.69640052
7.11,711,0.101,-0.955,-0.039,6.5317212,-9.9121734,-15.527161800000002,83.10182832,-5.71239126,166.57034976
7.12,712,0.087,-0.912,-0.033,4.1825934,-14.8396122,-11.229976800000001,83.16485370000002,-5.6149884000000005,166.40992152
7.13,713,0.08800000000000001,-0.885,-0.031,0.5156622000000001,-21.027558600000006,-8.193299399999999,83.19350159999998,-5.5519630200000005,166.19219748
7.14,714,0.095,-0.872,-0.038,-2.5210152000000003,-27.6165756,-7.333862400000001,83.19350159999998,-5.50612638,165.90571848
7.15,715,0.104,-0.856,-0.05,-5.6722842,-34.4920716,-8.136003599999999,83.17631286,-5.45456016,165.55621409999995
7.16,716,0.104,-0.8420000000000001,-0.053,-7.2192707999999985,-42.34159620000001,-9.453807000000001,83.15339454,-5.36861646,165.12076602
7.17,717,0.091,-0.8270000000000001,-0.041,-8.307891,-49.4462754,-10.8289062,83.12474663999998,-5.30559108,164.61656298
7.18,718,0.06,-0.8079999999999999,-0.008,-7.5057497999999985,-56.608250399999996,-11.8029348,83.1075579,-5.2425657,164.04360498
7.1899999999999995,719,0.036000000000000004,-0.789,0.014,-7.6203414,-58.72819499999999,-11.5737516,83.09036916,-5.1852699,163.44772866
7.2,720,0.024,-0.7759999999999999,0.031,-6.990087599999999,-58.2698286,-10.5424272,83.07891,-5.13370368,162.85758192
7.21,721,0.014,-0.7759999999999999,0.044,-7.333862400000001,-56.436363,-8.59437,83.07891,-5.08786704,162.28462392
7.22,722,0.015,-0.782,0.068,-8.136003599999999,-54.25912260000001,-5.958763200000001,83.05599168,-5.08213746,161.74031382
7.2299999999999995,723,0.015,-0.7959999999999999,0.08199999999999999,-9.8548776,-51.279741,-3.0939732,83.00442546000002,-5.0993262,161.23038119999995
7.24,724,0.001,-0.818,0.08800000000000001,-9.969469199999999,-47.2117392,-0.6875496,82.95285924,-5.13370368,160.76055564
7.25,725,-0.01,-0.8440000000000001,0.08199999999999999,-9.740286,-43.4302164,1.7188740000000002,82.89556344,-5.19672906,160.33656672
7.26,726,-0.022,-0.86,0.061,-8.307891,-37.24227,3.9534102,82.88410428,-5.25975444,159.96414402
7.27,727,-0.032,-0.846,0.017,-5.958763200000001,-30.8824362,5.443101,82.85545637999998,-5.339968560000001,159.66620586000005
7.28,728,-0.031,-0.815,-0.019,-2.6929026,-24.350715,6.589017,82.84972680000001,-5.4316418399999975,159.43129308
7.29,729,-0.017,-0.7859999999999999,0.004,2.9220857999999996,-20.05353,7.5057497999999985,82.90129302,-5.52331512,159.24221694
7.3,730,-0.009000000000000001,-0.7809999999999999,0.1,7.6776372,-19.3659804,8.9381448,83.00442546000002,-5.63217714,159.06459996
7.31,731,-0.049,-0.8420000000000001,0.154,3.8961144,-23.491278,10.7143146,83.1362058,-5.75249832,158.83541676
7.32,732,-0.095,-0.919,0.129,-3.0939732,-29.335449600000004,13.5791046,83.1362058,-5.9129265600000025,158.56039692
7.33,733,-0.052000000000000005,-1.005,0.058,-5.72958,-30.7678446,13.464512999999998,83.11328748,-6.079084379999999,158.27391791999997
7.34,734,0.006999999999999999,-1.082,0.068,-2.2345362,-21.027558600000006,6.760904399999999,83.11328748,-6.165028080000001,158.07338262
7.35,735,-0.025,-1.131,0.08800000000000001,2.8074942000000003,-10.026765,0.0,83.15339454,-6.17075766,157.97025018000005
7.36,736,-0.152,-1.149,0.101,9.224623800000002,0.5156622000000001,-5.2139178,83.31382278,-6.13638018,157.97025018000005
7.37,737,-0.228,-1.125,0.157,14.9542038,6.4744254,-6.2452422,83.45706228,-6.067625219999999,158.02754598
7.38,738,-0.257,-1.084,0.198,19.194093,9.2819196,-4.4690724,83.64613842,-6.0160589999999985,158.11921926
7.39,739,-0.269,-1.1,0.16699999999999998,19.938938399999998,10.4278356,-1.8907613999999997,83.83521456,-5.9874111,158.2223517
7.4,740,-0.278,-1.189,0.051,16.615782,10.7143146,-1.2032118,83.98991322,-5.96449278,158.33121372
7.41,741,-0.28800000000000003,-1.29,-0.218,19.7097552,14.610429000000002,-7.161975,84.16180062,-5.89000824,158.46872364
7.42,742,-0.374,-1.394,-0.425,26.9863218,15.3552744,-25.2674478,84.41963172,-5.62644756,158.60050398
7.43,743,-0.468,-1.494,-0.458,28.304125199999998,22.6891368,-50.1911208,84.68892198,-5.11651494,158.78385054
7.4399999999999995,744,-0.5870000000000001,-1.52,-0.5329999999999999,26.298772200000002,34.091001,-77.80769640000003,84.92383476,-4.320103319999999,159.05887037999997
7.45,745,-0.51,-1.177,-0.613,25.6685184,35.0650296,-89.26685640000002,85.16447712,-3.4148296799999995,159.33389022
7.46,746,-0.123,-0.882,-0.452,35.0077338,40.33624320000001,-83.65186800000002,85.46814486,-2.55539268,159.66620586000005
7.47,747,0.275,-0.8420000000000001,-0.17600000000000002,28.7051958,39.877876799999996,-67.43715660000001,85.7431647,-1.8621135,160.01571024
7.4799999999999995,748,0.486,-0.925,-0.095,10.313244,36.096354,-45.6074568,85.82910840000002,-1.39801752,160.34229630000004
7.49,749,0.526,-1.156,-0.13,-0.572958,33.1742682,-19.480572,85.81191966,-1.18602306,160.65742319999995
7.5,750,0.409,-1.396,-0.16899999999999998,-4.5263682,26.8717302,4.297185,85.76035343999997,-1.22040054,160.92671346
7.51,751,0.273,-1.462,-0.133,0.3437748,21.9442914,15.6990492,85.75462386000002,-1.35218088,161.15016708000005
7.52,752,0.118,-1.378,-0.058,9.6829902,15.5844576,19.595163600000006,85.84629714,-1.53552744,161.32205448
7.53,753,-0.031,-1.263,-0.005,15.0114996,10.9434978,18.3919518,85.99526621999998,-1.71314442,161.44237565999995
7.54,754,-0.128,-1.156,0.029,14.4385416,8.307891,14.5531332,86.13850572,-1.85065434,161.53404894
7.55,755,-0.166,-1.083,0.036000000000000004,10.4278356,6.760904399999999,9.6829902,86.24163816000002,-1.9480572000000005,161.60853348
7.56,756,-0.17,-1.019,0.027000000000000003,6.0733548,7.2765666,5.1566220000000005,86.34477059999998,-2.08556712,161.70020676
7.57,757,-0.158,-0.955,0.004,4.297185,9.453807000000001,2.578311,86.38487766,-2.10848544,161.79760962
7.58,758,-0.14300000000000002,-0.905,-0.009000000000000001,4.3544808,13.464512999999998,1.3750992,86.41925513999998,-2.11421502,161.92938996
7.59,759,-0.131,-0.862,-0.017,5.1566220000000005,17.8189938,1.7188740000000002,86.46509178,-2.12567418,162.10700694
7.6,760,-0.127,-0.828,-0.022,6.3598338,23.7204612,3.2658606,86.51665799999998,-2.1485925000000003,162.3476493
7.61,761,-0.13,-0.802,-0.023,5.7868758000000025,30.194886600000004,6.0733548,86.56249464,-2.22307704,162.65131704
7.62,762,-0.139,-0.78,-0.014,4.297185,36.4974246,9.5111028,86.58541296,-2.30329116,163.01801016000005
7.63,763,-0.14800000000000002,-0.755,-0.011,2.9220857999999996,42.7999626,12.7196676,86.59114253999998,-2.41788276,163.44772866
7.64,764,-0.147,-0.7340000000000001,-0.006,0.8594370000000001,48.3003594,14.2093584,86.5739538,-2.54393352,163.93474296
7.65,765,-0.149,-0.7170000000000001,0.008,-0.572958,53.39968560000001,13.2926256,86.53957632,-2.65852512,164.47332348
7.66,766,-0.13699999999999998,-0.721,0.025,-2.86479,58.78549079999999,9.8548776,86.48228051999996,-2.7501984,165.06347022
7.67,767,-0.125,-0.741,0.037000000000000005,-4.9847345999999995,61.30650600000001,5.3285094000000015,86.39060724,-2.78457588,165.67080570000005
7.68,768,-0.113,-0.767,0.041,-8.3651868,62.16594300000001,0.6875496,86.27028606,-2.76738714,166.28387076
7.6899999999999995,769,-0.08800000000000001,-0.795,0.04,-11.6310474,60.67625219999999,-3.380452200000001,86.11558740000002,-2.71009134,166.87974708000004
7.7,770,-0.054000000000000006,-0.8,0.028,-14.381245800000002,57.7541664,-5.9014674000000005,85.93224083999998,-2.62987722,167.44697549999995
7.71,771,-0.005,-0.813,0.011,-14.152062599999999,53.9726436,-7.1046792000000005,85.76608302,-2.53247436,167.97409686
7.72,772,0.03,-0.818,-0.011,-9.453807000000001,47.9565846,-6.875496000000001,85.64576184,-2.44080108,168.44392242
7.7299999999999995,773,0.047,-0.8140000000000001,-0.032,-3.0366774,41.9405256,-5.844171599999999,85.58846604,-2.36058696,168.85072259999995
7.74,774,0.022,-0.8009999999999999,-0.018000000000000002,4.583664,33.9191136,-4.0680017999999984,85.61711394,-2.30329116,169.18303824
7.75,775,-0.032,-0.809,0.043,10.9434978,28.762491600000004,-2.1772404,85.7145168,-2.26891368,169.46951724000004
7.76,776,-0.08900000000000001,-0.8370000000000001,0.16699999999999998,14.896907999999998,28.361421000000004,-0.8021411999999999,85.9150521,-2.2631841,169.75026666
7.77,777,-0.122,-0.922,0.242,12.3758928,35.2942128,-0.8021411999999999,86.02391412,-2.24026578,170.09977104
7.78,778,-0.119,-1.032,0.165,1.6615782,43.77399120000001,-0.572958,86.01818454000002,-2.21734746,170.52948954
7.79,779,-0.115,-1.109,0.097,-1.7761698,44.2896534,0.9167328,85.97807748,-2.2058883,170.97066719999995
7.8,780,-0.076,-1.1740000000000002,0.046,0.3437748,34.1482968,3.2085648,85.96088874,-2.22307704,171.30871242
7.81,781,-0.006,-1.227,0.04,2.7501984,19.595163600000006,7.448453999999999,86.0009958,-2.28037284,171.50351814
7.82,782,0.063,-1.231,0.115,10.4851314,0.7448454000000001,13.8082878,86.10412824,-2.41215318,171.52643646
7.83,783,0.07400000000000001,-1.177,0.208,19.8816426,-8.078707799999998,16.272007199999994,86.31039312,-2.5783110000000002,171.4576815
7.84,784,0.014,-1.121,0.245,25.6685184,-10.4851314,13.0634424,86.57968338,-2.71009134,171.36600822
7.85,785,-0.057,-1.108,0.272,23.0902074,-6.990087599999999,6.589017,86.81459616,-2.77311672,171.30298284
7.86,786,-0.14300000000000002,-1.104,0.222,14.8396122,-2.0053530000000004,1.3178034,87.08388642,-2.84187168,171.28579409999998
7.87,787,-0.171,-1.114,0.095,9.797581800000001,8.136003599999999,0.9740286,87.18128928,-2.85333084,171.36600822
7.88,788,-0.122,-1.1740000000000002,-0.034,14.381245800000002,21.772404,6.589017,87.31306962,-2.91062664,171.58373225999995
7.89,789,0.008,-1.359,-0.16699999999999998,16.4438946,28.934379,20.6837838,87.46203870000002,-3.11116194,171.88167042
7.9,790,0.161,-1.575,-0.258,10.255948199999999,21.485925,46.352302200000004,87.54798240000002,-3.56379876,172.11658319999995
7.91,791,0.35100000000000003,-1.586,-0.329,-7.333862400000001,21.3713334,66.9214944,87.45057954,-4.21697088,172.35149598
7.92,792,0.422,-1.291,-0.416,-18.621135,32.257535399999995,76.03152659999998,87.22712592,-4.96181628,172.70100036
7.93,793,0.28600000000000003,-0.959,-0.43,-23.7204612,35.4088044,75.68775179999999,86.94637650000001,-5.71239126,173.0906118
7.94,794,0.044,-0.763,-0.421,-20.454600600000006,30.366774000000003,70.5311298,86.70000456,-6.39994086,173.42292744000005
7.95,795,-0.14400000000000002,-0.713,-0.376,-17.7044022,16.673077799999998,58.9000824,86.49946926,-6.98435802,173.62346274
7.96,796,-0.266,-0.789,-0.307,-15.813640800000002,5.1566220000000005,40.164355799999996,86.26455648,-7.431265259999999,173.71513602
7.97,797,-0.391,-0.986,-0.255,-13.750992000000002,-4.4690724,20.168121600000006,86.12704656,-7.63180056,173.68075854
7.9799999999999995,798,-0.421,-1.096,-0.202,-5.6722842,-11.9748222,0.4010706,86.0869395,-7.64325972,173.56043736
7.99,799,-0.35,-1.153,-0.105,7.2192707999999985,-15.0114996,-13.0634424,86.18434235999996,-7.51720896,173.4057387
8.0,800,-0.237,-1.178,-0.003,15.469866,-12.605076,-21.6578124,86.36195934,-7.305214500000001,173.26822878000004
8.01,801,-0.113,-1.216,0.053,17.0741484,-4.9847345999999995,-25.210152,86.55676506,-7.0416538200000005,173.19947382
8.02,802,0.021,-1.233,0.051,12.032117999999999,2.578311,-24.1788276,86.67708624000002,-6.8010114600000025,173.21093298
8.03,803,0.14300000000000002,-1.205,0.021,4.8128472,5.9014674000000005,-19.8816426,86.71719329999998,-6.60047616,173.26249919999995
8.04,804,0.191,-1.123,-0.018000000000000002,-0.4583664000000001,5.0993262,-14.266654199999998,86.71146372000004,-6.45723666,173.30260626
8.05,805,0.157,-1.008,-0.048,-0.9740286,1.0313244,-9.6256944,86.70000456,-6.3655633799999976,173.30833583999996
8.06,806,0.1,-0.932,-0.054000000000000006,1.3178034,-5.72958,-6.875496000000001,86.70573413999998,-6.19367598,173.2338513
8.07,807,0.05,-0.877,-0.055,4.583664,-12.032117999999999,-7.5630456000000015,86.76302994,-6.11919144,173.11353012
8.08,808,0.018000000000000002,-0.852,-0.048,6.3598338,-18.7930224,-10.026765,86.85470322,-6.02178858,172.9187244
8.09,809,0.002,-0.833,-0.044,6.130650599999999,-25.6685184,-13.349921400000001,86.94637650000001,-5.895737819999999,172.65516372
8.1,810,0.003,-0.8190000000000001,-0.031,4.6409598,-31.5699858,-16.4438946,87.03232019999999,-5.74103916,172.33430724
8.11,811,0.008,-0.8079999999999999,-0.015,3.0366774,-36.03905820000001,-18.9649098,87.10107516000002,-5.54623344,171.96761411999995
8.12,812,0.014,-0.813,0.001,0.7448454000000001,-39.877876799999996,-19.8816426,87.15264138,-5.3571573,171.56081394
8.13,813,0.039,-0.8420000000000001,0.025,-1.9480572,-43.544808,-17.9335854,87.18128928,-5.1852699,171.11963628
8.14,814,0.06,-0.87,0.041,-4.6982556,-46.4668938,-13.120738199999998,87.18128928,-5.06494872,170.64981071999995
8.15,815,0.075,-0.89,0.065,-5.9014674000000005,-48.0711762,-7.906820400000001,87.16983012,-5.001923339999999,170.168526
8.16,816,0.077,-0.887,0.08800000000000001,-6.8182002000000015,-48.5868384,-3.151269,87.17555970000002,-4.94462754,169.67578212
8.17,817,0.063,-0.871,0.108,-5.958763200000001,-47.8992888,-0.11459160000000004,87.15837096,-4.9560867,169.20022698
8.18,818,0.037000000000000005,-0.851,0.131,-3.2085648,-45.6647526,1.145916,87.17555970000002,-4.97900502,168.74759016000004
8.19,819,0.0,-0.841,0.138,-1.7188740000000002,-42.91455420000001,1.4896908000000002,87.19847802,-5.001923339999999,168.32360124
8.2,820,-0.042,-0.835,0.128,-0.6875496,-40.4508348,2.0053530000000004,87.2328555,-5.03057124,167.92253064
8.209999999999999,821,-0.077,-0.83,0.122,-2.0053530000000004,-38.8465524,3.8961144,87.28442172,-5.08213746,167.53291919999995
8.22,822,-0.084,-0.818,0.08900000000000001,-3.4950437999999995,-35.4088044,6.8182002000000015,87.28442172,-5.1566220000000005,167.18341482
8.23,823,-0.069,-0.797,0.04,-4.6982556,-30.0229992,9.568398599999998,87.26723297999996,-5.25402486,166.89120624
8.24,824,-0.046,-0.754,0.03,-2.8074942000000003,-26.1268848,11.229976800000001,87.26723297999996,-5.37434604,166.63910472
8.25,825,-0.016,-0.742,0.099,1.6615782,-25.84040580000001,11.6310474,87.30734004,-5.4946672199999975,166.38700319999995
8.26,826,-0.036000000000000004,-0.79,0.16399999999999998,0.6302538000000001,-27.6738714,10.599723,87.39901332,-5.59779966,166.10625378
8.27,827,-0.08800000000000001,-0.862,0.187,-2.4064236,-30.8824362,10.4278356,87.41047248,-5.70666168,165.80831562
8.28,828,-0.108,-0.968,0.115,-4.5263682,-29.67922440000001,9.0527364,87.39901332,-5.80406454,165.51610704
8.29,829,-0.092,-1.069,0.061,-2.2345362,-21.1421502,4.4690724,87.39901332,-5.85563076,165.30411257999995
8.3,830,-0.123,-1.128,0.092,3.151269,-9.797581800000001,-2.6356068,87.44484996,-5.8269828599999975,165.20670972
8.31,831,-0.223,-1.177,0.127,8.479778399999999,1.3178034,-7.5630456000000015,87.56517113999998,-5.781146219999999,165.21816887999995
8.32,832,-0.28800000000000003,-1.165,0.185,13.2926256,11.9748222,-8.3651868,87.68549232000002,-5.6952025200000005,165.33849006
8.33,833,-0.29100000000000004,-1.138,0.21,17.0741484,19.595163600000006,-4.7555514,87.84019098,-5.6436363,165.53329577999997
8.34,834,-0.263,-1.17,0.193,18.162768600000003,25.2674478,0.0,87.99488964000004,-5.63790672,165.78539730000003
8.35,835,-0.229,-1.251,0.108,17.0168526,30.5959572,1.8334656000000005,88.13239956,-5.65509546,166.08906503999995
8.36,836,-0.243,-1.382,-0.037000000000000005,14.381245800000002,35.4088044,-3.4950437999999995,88.23553199999998,-5.62071798,166.444299
8.37,837,-0.29100000000000004,-1.5119999999999998,-0.263,7.906820400000001,38.5027776,-18.5065434,88.26990948,-5.43737142,166.82245128
8.38,838,-0.335,-1.507,-0.401,13.9228794,44.5761324,-47.269034999999995,88.36731234,-4.96754586,167.25789936
8.39,839,-0.428,-1.362,-0.481,30.3094782,45.4928652,-74.1407652,88.63087302,-4.22843004,167.69334744
8.4,840,-0.309,-0.957,-0.614,44.1750618,31.8564648,-83.5945722,89.05486194,-3.39764094,167.99701518
8.41,841,0.01,-0.6559999999999999,-0.401,58.78549079999999,20.2254174,-76.54718879999999,89.61636078000002,-2.61841806,168.19755048000005
8.42,842,0.355,-0.6409999999999999,-0.016,46.753372799999994,19.480572,-60.10329419999999,90.08045676,-2.02254174,168.39808578
8.43,843,0.514,-0.738,0.035,12.2040054,15.0687954,-39.9924684,90.19504836000002,-1.6272007199999998,168.54705486
8.44,844,0.512,-0.916,-0.054000000000000006,-16.042824000000003,7.5057497999999985,-22.5745452,90.02889053999998,-1.40947668,168.62153940000005
8.45,845,0.388,-1.271,-0.12,-26.9863218,5.9014674000000005,-9.224623800000002,89.75387070000002,-1.3178034,168.6788352
8.459999999999999,846,0.199,-1.5490000000000002,-0.14,-20.3973048,5.443101,-1.4896908000000002,89.53614666000001,-1.30061466,168.73040142
8.47,847,-0.028,-1.545,-0.064,-5.1566220000000005,3.3231564,0.2291832000000001,89.48458044,-1.30634424,168.76477889999995
8.48,848,-0.193,-1.355,-0.037000000000000005,7.333862400000001,3.6096354,-1.0886202,89.55906498,-1.29488508,168.79915638
8.49,849,-0.245,-1.169,-0.041,9.6829902,7.3911582,-3.724227,89.65073826,-1.2605076000000002,168.87364092
8.5,850,-0.225,-1.075,-0.018000000000000002,6.3025379999999975,12.605076,-5.1566220000000005,89.71376364,-1.20894138,168.99969168
8.51,851,-0.189,-1.064,-0.043,0.2291832000000001,17.7044022,-4.4117766,89.67365658,-1.23758928,169.18876782
8.52,852,-0.16699999999999998,-1.064,-0.07200000000000001,-4.4117766,21.829699800000004,-2.2345362,89.62209035999999,-1.22040054,169.40076228
8.53,853,-0.152,-1.037,-0.076,-7.3911582,26.1841806,0.0,89.53614666000001,-1.22613012,169.65859338
8.54,854,-0.133,-0.983,-0.06,-8.479778399999999,32.4294228,2.4064236,89.4387438,-1.25477802,169.97944986
8.55,855,-0.114,-0.942,-0.041,-8.193299399999999,38.3308902,5.3858052,89.34707052,-1.3178034,170.35760213999995
8.56,856,-0.103,-0.914,-0.023,-7.333862400000001,45.1490904,9.2819196,89.24966766,-1.432395,170.81023896000005
8.57,857,-0.101,-0.908,-0.011,-6.2452422,52.54024860000001,12.834259199999998,89.16372396,-1.56417534,171.33163073999995
8.58,858,-0.117,-0.905,-0.003,-5.9014674000000005,60.332477399999995,15.126091199999998,89.07778026000004,-1.7246035799999997,171.92750706
8.59,859,-0.141,-0.909,0.009000000000000001,-6.1879464,67.5517482,15.3552744,88.98610698,-1.88503182,172.59786792
8.6,860,-0.165,-0.913,0.028,-6.0733548,73.625103,12.891555,88.88870412,-2.02254174,173.32552458
8.61,861,-0.185,-0.918,0.045,-4.297185,77.80769640000003,7.0473834,88.81421958,-2.1199446,174.09901788
8.62,862,-0.18,-0.908,0.062,-4.4117766,81.7611066,-0.572958,88.72827588,-2.1199446,174.90688866
8.63,863,-0.149,-0.88,0.069,-5.5576926,83.9956428,-7.1046792000000005,88.63087302,-2.05118964,175.73767776
8.64,864,-0.122,-0.856,0.073,-7.3911582,85.3134462,-11.8029348,88.51628142,-1.94232762,176.57992602
8.65,865,-0.083,-0.843,0.055,-8.7089616,84.8550798,-14.152062599999999,88.38450107999998,-1.79908812,177.41071512
8.66,866,-0.039,-0.812,0.019,-7.3911582,83.07891,-15.0114996,88.27563906,-1.65011904,178.23004506
8.67,867,-0.002,-0.775,0.004,-1.432395,81.07355700000002,-15.756345000000001,88.22980242,-1.4896908000000002,179.02645668
8.68,868,0.0,-0.7390000000000001,0.024,5.844171599999999,82.33406459999998,-16.673077799999998,88.25845032,-1.32353298,179.84005704
8.69,869,-0.022,-0.682,0.05,13.349921400000001,86.1728832,-16.4438946,88.36158276,-1.1573751600000002,-179.3072061
8.7,870,-0.046,-0.636,0.08199999999999999,22.631841,89.26685640000002,-14.32395,88.56211806,-1.01413566,-178.42485078
8.71,871,-0.063,-0.621,0.152,29.621928600000004,89.49603959999996,-9.9121734,88.85432664,-0.92246238,-177.54249546
8.72,872,-0.06,-0.659,0.274,33.9191136,90.9857304,-4.6982556,89.17518312,-0.8823553199999999,-176.63722182
8.73,873,-0.029,-0.773,0.337,28.991674800000002,95.5120986,-0.8021411999999999,89.4387438,-0.8880849000000001,-175.69184112
8.74,874,0.041,-0.953,0.234,13.9228794,95.397507,2.6929026,89.55333540000002,-0.92819196,-174.74646042
8.75,875,0.092,-1.114,0.138,8.307891,81.07355700000002,6.9327918,89.61636078000002,-1.01413566,-173.94431922
8.76,876,0.141,-1.241,0.048,7.3911582,59.7595194,11.8029348,89.66792699999998,-1.12872726,-173.35417248000005
8.77,877,0.19,-1.2990000000000002,0.0,6.2452422,35.6379876,18.449247600000003,89.71949322,-1.3178034,-172.99893852
8.78,878,0.17800000000000002,-1.238,0.038,10.6570188,12.6623718,22.1161788,89.82835524000002,-1.5412570200000002,-172.87288776
8.79,879,0.097,-1.163,0.1,18.334656,8.7662574,20.626488,90.0117018,-1.7475218999999995,-172.78121448
8.8,880,-0.008,-1.156,0.14,15.756345000000001,14.5531332,17.0741484,90.16067088,-1.9194093000000003,-172.63797498
8.81,881,-0.095,-1.223,0.08199999999999999,-0.4010706,24.9809688,13.6936962,90.14921172,-2.06837838,-172.39160304
8.82,882,-0.119,-1.297,-0.07200000000000001,-21.772404,37.52874900000001,15.126091199999998,89.90856936,-2.2345362,-172.01918034
8.83,883,0.0,-1.398,-0.207,-22.345362,47.3263308,27.6165756,89.65646783999998,-2.5210152000000003,-171.55508436
8.84,884,0.235,-1.561,-0.362,-22.5172494,60.9627312,44.690724,89.38717758,-2.9793816000000004,-170.95347846
8.85,885,0.298,-1.435,-0.474,-24.5798982,86.40206640000002,52.0245864,89.07778026000004,-3.50650296,-170.09404146000003
8.86,886,0.015,-1.02,-0.451,1.0313244,109.6068654,49.7327544,88.97464782,-4.01643558,-168.9939621
8.87,887,-0.145,-0.7829999999999999,-0.262,26.069589,120.4357716,46.5241896,89.13507606,-4.48626114,-167.79075029999996
8.88,888,-0.21600000000000005,-0.7490000000000001,-0.019,12.7196676,106.91396280000001,41.252976,89.16372396,-4.91025006,-166.72504842
8.89,889,-0.204,-0.835,-0.003,-12.7196676,85.1415588,34.262888399999994,88.94599991999998,-5.25975444,-165.87707058
8.9,890,-0.155,-1.022,-0.135,-22.5172494,69.7862844,28.4760126,88.64233218000004,-5.5519630200000005,-165.18379140000005
8.91,891,-0.084,-1.269,-0.139,-12.7769634,62.853492599999996,20.912967,88.43606729999998,-5.7582279000000005,-164.5535376
8.92,892,-0.018000000000000002,-1.404,-0.061,1.8334656000000005,65.317212,10.7143146,88.3787715,-5.861360339999999,-163.90036548
8.93,893,0.015,-1.291,0.013,10.255948199999999,70.9894962,-0.6875496,88.40168982,-5.85563076,-163.19562714
8.94,894,0.019,-1.115,0.043,9.797581800000001,80.90166959999998,-11.9748222,88.40741940000002,-5.735309579999999,-162.39348594
8.95,895,0.041,-1.031,0.067,9.6829902,91.2149136,-20.454600600000006,88.40741940000002,-5.5290447,-161.4882123
8.96,896,0.065,-1.022,0.067,7.0473834,99.5801004,-24.7517856,88.3787715,-5.2654840200000015,-160.50845411999995
8.97,897,0.096,-1.031,0.032,1.8334656000000005,103.5335106,-23.6631654,88.2928278,-5.03057124,-159.48858888
8.98,898,0.132,-1.033,-0.01,-1.9480572,104.1637644,-17.8189938,88.16677704,-4.85295426,-158.45726448
8.99,899,0.145,-1.016,-0.033,-4.010706000000001,103.0178484,-9.3965112,88.02926712000001,-4.749821819999998,-157.44312882
9.0,900,0.134,-0.982,-0.04,-4.9274388,101.2416786,-1.2605076000000002,87.88029803999999,-4.73263308,-156.44045232
9.01,901,0.112,-0.924,-0.042,-5.6722842,99.5801004,5.6722842,87.72559937999998,-4.7555514,-155.44923498
9.02,902,0.115,-0.882,-0.047,-6.2452422,97.5747474,9.740286,87.56517113999998,-4.8414950999999995,-154.48093595999995
9.03,903,0.126,-0.8590000000000001,-0.054000000000000006,-6.6463128000000005,94.9391406,11.229976800000001,87.4047429,-4.93889796,-153.53555526
9.04,904,0.147,-0.847,-0.047,-6.703608600000001,91.386801,11.8602306,87.25004424,-5.03630082,-152.62455204
9.05,905,0.165,-0.85,-0.035,-6.016058999999999,86.80313699999998,12.318597,87.09534558,-5.14516284,-151.75365588
9.06,906,0.152,-0.863,-0.014,-6.2452422,81.9902898,13.120738199999998,86.95210608,-5.22537696,-150.94005552000004
9.07,907,0.122,-0.87,-0.001,-6.1879464,79.29738719999997,13.8655836,86.80313699999998,-5.339968560000001,-150.14937347999995
9.08,908,0.077,-0.865,0.006,-5.958763200000001,79.29738719999997,14.7823164,86.6598975,-5.466019319999999,-149.35296186
9.09,909,0.024,-0.8440000000000001,0.018000000000000002,-5.2712136,81.9902898,15.5844576,86.51665799999998,-5.59207008,-148.52790234
9.1,910,-0.009000000000000001,-0.826,0.025,-3.8388186,88.23553199999998,16.157415599999997,86.37914808000002,-5.72385042,-147.64554701999995
9.11,911,-0.02,-0.8240000000000001,0.03,-3.7815227999999994,94.3088868,16.959556799999998,86.23590858,-5.849901179999999,-146.70016632
9.12,912,-0.008,-0.821,0.014,-4.7555514,100.2103542,18.048177,86.06975076,-5.9931406800000016,-145.69176024
9.13,913,0.017,-0.8190000000000001,-0.003,-4.010706000000001,105.19508880000001,19.4232762,85.90359294,-6.14210976,-144.63751752000005
9.14,914,0.045,-0.823,-0.024,-1.7761698,109.148499,20.9702628,85.75462386000002,-6.3025379999999975,-143.53743816
9.15,915,0.069,-0.8320000000000001,-0.03,1.2605076000000002,111.9559932,22.6891368,85.62857310000003,-6.474425399999999,-142.40871090000005
9.16,916,0.079,-0.8340000000000001,-0.031,5.443101,113.96134620000001,24.637194,85.53689982,-6.6463128,-141.25706531999995
9.17,917,0.06,-0.84,-0.006,10.313244,113.96134620000001,26.5279554,85.49106318,-6.8468481,-140.10541974
9.18,918,0.016,-0.841,0.029,13.8082878,112.81543020000001,27.903054600000004,85.47960402,-7.06457214,-138.95950374
9.19,919,-0.029,-0.841,0.055,17.4179232,114.4197126,27.788463,85.49679276,-7.282296179999999,-137.796399
9.2,920,-0.077,-0.8640000000000001,0.069,20.7410796,117.8574606,27.3300966,85.53689982,-7.49429064,-136.60464636
9.21,921,-0.122,-0.905,0.095,22.173474600000002,120.32118,27.043617600000005,85.5999252,-7.70055552,-135.38424582
9.22,922,-0.165,-0.965,0.126,22.345362,121.180617,28.361421000000004,85.64576184,-7.92400914,-134.15238612000002
9.23,923,-0.214,-1.028,0.142,20.1108258,119.97740520000002,32.2002396,85.66295058,-8.18184024,-132.93198558
9.24,924,-0.241,-1.0590000000000002,0.142,17.761698000000006,117.8001648,37.2995658,85.65149142,-8.49123756,-131.72304419999998
9.25,925,-0.237,-1.114,0.099,14.037471,113.3883882,41.6540466,85.60565478000002,-8.852201099999998,-130.55993945999998
9.26,926,-0.211,-1.109,0.066,14.0947668,105.08049720000001,44.8626114,85.57127729999998,-9.24181254,-129.47704884
9.27,927,-0.055,-1.08,0.035,19.1367972,92.5900128,44.8053156,85.5999252,-9.63715356,-128.5144794
9.28,928,0.124,-1.114,-0.024,18.3919518,74.771019,37.3568616,85.64576184,-9.9694692,-127.73525652
9.29,929,0.21600000000000005,-1.209,-0.12,18.5065434,61.9367598,20.3973048,85.7145168,-10.1413566,-127.09927314
9.3,930,0.174,-1.394,-0.233,20.7410796,62.6243094,-4.9847345999999995,85.80619008000002,-10.06114248,-126.46901934
9.31,931,0.024,-1.477,-0.406,23.376686399999997,72.4218912,-33.518043,85.89786336,-9.68871978,-125.76428100000001
9.32,932,-0.101,-1.3119999999999998,-0.5,37.7006364,76.20341400000002,-52.19647379999999,86.14996488,-9.138680099999998,-125.03089476
9.33,933,-0.04,-1.01,-0.363,47.7846972,74.2553568,-54.20182679999999,86.51092842,-8.57145168,-124.31469726
9.34,934,0.046,-0.868,-0.17800000000000002,33.231564,69.6716928,-44.919907200000004,86.7458412,-8.10162612,-123.63860682
9.35,935,0.053,-0.907,-0.109,5.5003968,63.9994086,-32.31483119999999,86.70573413999998,-7.763580899999999,-123.01981218
9.36,936,0.0,-1.087,-0.128,-17.0741484,64.62966239999999,-19.938938399999998,86.43071429999998,-7.5286681200000025,-122.38382879999999
9.37,937,-0.08,-1.3119999999999998,-0.172,-25.4393352,71.33327100000002,-9.1100322,86.06975076,-7.41407652,-121.68482004
9.38,938,-0.16,-1.4380000000000002,-0.182,-22.1161788,79.4119788,-1.0886202,85.73170554,-7.37396946,-120.89413799999998
9.39,939,-0.194,-1.379,-0.158,-9.6829902,87.26150340000002,2.7501984,85.50825191999998,-7.3567807200000015,-120.02324184
9.4,940,-0.194,-1.231,-0.079,6.589017,95.5693944,2.291832,85.44522654,-7.333862399999999,-119.07213156
9.41,941,-0.147,-1.127,0.028,18.3919518,106.6274838,-0.8594370000000001,85.49106318,-7.265107439999999,-118.01215926
9.42,942,-0.09,-1.105,0.081,23.2620948,117.169911,-1.2032118,85.56554772,-7.19635248,-116.84332494
9.43,943,-0.07200000000000001,-1.124,0.096,22.9756158,119.5763346,2.1199446,85.63430267999998,-7.15624542,-115.6515723
9.44,944,-0.08199999999999999,-1.121,0.094,20.454600600000006,119.8628136,6.5317212,85.67440974,-7.161975,-114.4483605
9.45,945,-0.111,-1.086,0.075,16.7303736,121.2952086,9.969469199999999,85.68013932,-7.20208206,-113.23368954
9.46,946,-0.14400000000000002,-1.034,0.059,13.120738199999998,125.191323,11.229976800000001,85.64576184,-7.25364828,-111.97891152
9.47,947,-0.17,-0.989,0.054000000000000006,10.5424272,130.7490156,11.229976800000001,85.57127729999998,-7.305214500000001,-110.67256728
9.48,948,-0.177,-0.949,0.053,8.4224826,137.3953284,11.8602306,85.46241528,-7.35105114,-109.2917385
9.49,949,-0.172,-0.92,0.039,7.5057497999999985,143.81245800000005,13.521808800000002,85.33636451999998,-7.408346939999999,-107.84788434
9.5,950,-0.162,-0.898,0.023,6.760904399999999,151.03172880000002,15.9282324,85.18739544,-7.48283148,-106.32954564
9.51,951,-0.154,-0.885,0.012,6.990087599999999,156.47482979999995,16.8449652,85.03842636,-7.5630456000000015,-104.75964072
9.52,952,-0.153,-0.871,0.015,6.8182002000000015,162.20440980000004,16.673077799999998,84.86653895999999,-7.63180056,-103.13244
9.53,953,-0.158,-0.858,0.032,6.589017,168.62153940000005,15.6417534,84.68892198,-7.68336678,-101.43648432
9.54,954,-0.16399999999999998,-0.861,0.055,7.6776372,174.63759840000003,13.9228794,84.50557542,-7.7062851,-99.68896242
9.55,955,-0.168,-0.889,0.079,6.703608600000001,180.9401364,12.605076,84.31076970000002,-7.7062851,-97.87268556
9.56,956,-0.163,-0.931,0.08199999999999999,4.583664,187.1280828,12.032117999999999,84.09304566,-7.6890963600000015,-96.00484248
9.57,957,-0.14300000000000002,-0.966,0.07,3.151269,191.3106762,11.9748222,83.84094414,-7.66044846,-94.08543318
9.58,958,-0.112,-0.978,0.052000000000000005,2.86479,193.946283,10.599723,83.58884262000002,-7.60888224,-92.14883514
9.59,959,-0.087,-0.968,0.038,4.1825934,193.8889872,8.193299399999999,83.34820026,-7.52293854,-90.2122371
9.6,960,-0.061,-0.951,0.053,6.3598338,191.71174680000001,5.2712136,83.14193537999998,-7.408346939999999,-88.30428696
9.61,961,-0.037000000000000005,-0.94,0.081,7.333862400000001,188.8469568,2.6356068,82.9643184,-7.2479187,-86.42498472
9.62,962,-0.012,-0.935,0.102,6.703608600000001,185.6956878,0.572958,82.77524226,-7.076031300000001,-84.58578954
9.63,963,0.017,-0.942,0.103,5.2139178,182.2579398,-1.145916,82.58616612,-6.886955159999999,-82.78097184
9.64,964,0.039,-0.961,0.085,4.1825934,178.3618254,-2.6356068,82.39708998,-6.6749607000000015,-81.0162612
9.65,965,0.057,-0.987,0.039,3.151269,175.09596480000005,-4.1825934,82.20801384,-6.451507079999999,-79.28592804
9.66,966,0.06,-0.992,-0.016,1.2605076000000002,170.455005,-6.990087599999999,82.0189377,-6.18221682,-77.61289067999998
9.67,967,0.039,-0.969,-0.046,1.7761698,166.38700319999995,-9.740286,81.84132072,-5.9014674000000005,-75.98568996
9.68,968,-0.017,-0.943,-0.067,5.042030400000002,162.720072,-11.6310474,81.71526996,-5.603529239999999,-74.39286672
9.69,969,-0.113,-0.961,-0.097,6.016058999999999,156.5321256,-10.5424272,81.60640794,-5.31705024,-72.86306886
9.7,970,-0.136,-0.964,-0.07,1.8907613999999997,153.78192719999996,-8.307891,81.46889802,-5.05348956,-71.3619189
9.71,971,-0.101,-0.943,-0.081,3.0939732,161.97522659999996,-8.8235532,81.34857683999998,-4.76701056,-69.77482524000001
9.72,972,-0.096,-0.913,-0.095,4.297185,168.9653142,-10.886202,81.23398524000002,-4.45761324,-68.13043578
9.73,973,-0.12,-0.901,-0.083,3.2085648,172.9760202,-11.229976800000001,81.11939364,-4.131027179999999,-66.44593926
9.74,974,-0.07200000000000001,-0.925,-0.071,2.6929026,178.76289599999996,-8.8235532,80.99907246000002,-3.81590028,-64.70414694
9.75,975,0.005,-0.967,-0.097,2.3491278,185.1800256,-5.2712136,80.88448086000002,-3.5236917,-62.89359966000001
9.76,976,0.1,-1.033,-0.159,-3.3231564,185.5810962,-1.3178034,80.71832304,-3.25440144,-61.07159322
9.77,977,0.183,-1.078,-0.17800000000000002,-11.8029348,179.5650372,1.8907613999999997,80.47768067999998,-3.0366774000000003,-59.30688258
9.78,978,0.265,-1.116,-0.141,-18.449247600000003,167.9339898,6.417129599999999,80.17974252,-2.86479,-57.65103395999999
9.79,979,0.311,-1.151,-0.135,-22.5745452,154.52677260000004,12.7196676,79.85315646,-2.77311672,-56.1212361
9.8,980,0.264,-1.121,-0.161,-23.204799,143.0103168,18.449247600000003,79.53229998,-2.73873924,-54.68884110000001
9.81,981,0.182,-1.055,-0.134,-18.8503182,136.2494124,21.1421502,79.26300972,-2.7215505,-53.31947147999999
9.82,982,0.098,-1.047,-0.135,-11.1153852,127.9988172,20.168121600000006,79.06820400000002,-2.71582092,-52.03604556000001
9.83,983,0.024,-1.086,-0.14300000000000002,-3.5523396000000003,121.2952086,16.042824000000003,78.95934198,-2.67571386,-50.82137460000001
9.84,984,-0.054000000000000006,-1.11,-0.14400000000000002,3.151269,118.37312279999999,11.172681,78.9249645,-2.59549974,-49.6468107
9.85,985,-0.121,-1.102,-0.142,7.333862400000001,118.37312279999999,8.250595200000001,78.93069408,-2.48090814,-48.47224680000001
9.86,986,-0.141,-1.055,-0.113,10.4278356,118.5450102,7.3911582,78.97653072,-2.36631654,-47.30341248000001
9.87,987,-0.125,-1.0,-0.073,13.2353298,117.97205220000001,7.8495246,79.05101526000001,-2.25172494,-46.13457816
9.88,988,-0.062,-0.964,-0.025,14.381245800000002,119.00337659999998,9.0527364,79.13695895999999,-2.1485925000000003,-44.95428468
9.89,989,0.034,-0.951,0.011,13.120738199999998,121.9254624,10.3705398,79.20571392,-2.05691922,-43.745343299999995
9.9,990,0.141,-0.955,0.019,9.2819196,125.0194356,10.7143146,79.24009140000003,-1.9595163600000003,-42.50202444
9.91,991,0.217,-0.963,-0.001,6.2452422,124.6756608,10.1986524,79.26300972,-1.83919518,-41.26443516
9.92,992,0.269,-0.971,-0.025,4.6982556,121.5243918,9.740286,79.25728014,-1.74179232,-40.05549378
9.93,993,0.289,-0.991,-0.05,5.6722842,115.85210759999998,10.1986524,79.26873930000002,-1.6558486199999998,-38.90957778
9.94,994,0.28300000000000003,-1.015,-0.065,7.2765666,108.7474284,11.5737516,79.2973872,-1.59855282,-37.82095758
9.95,995,0.255,-1.02,-0.063,9.453807000000001,101.8719324,13.349921400000001,79.34895342,-1.56990492,-36.80109234
9.96,996,0.217,-1.012,-0.051,12.0894138,96.4288314,14.5531332,79.44635628,-1.53552744,-35.83279331999999
9.97,997,0.184,-0.999,-0.049,13.521808800000002,92.4181254,14.5531332,79.54948872,-1.53552744,-34.89887178
9.98,998,0.168,-0.987,-0.049,13.6364004,88.17823620000001,13.980175199999998,79.65262116,-1.53552744,-34.01078688
9.99,999,0.168,-0.972,-0.064,13.178034,84.2821218,13.750992000000002,79.75002402,-1.5412570200000002,-33.16280904
10.0,1000,0.171,-0.963,-0.059,13.0634424,78.781725,13.980175199999998,79.85315646,-1.56417534,-32.36639742
10.01,1001,0.18,-0.964,-0.049,13.120738199999998,73.625103,14.2093584,79.96774806,-1.55844576,-31.62155202000001
10.02,1002,0.199,-0.975,-0.055,13.464512999999998,71.44786260000002,13.521808800000002,80.07661008,-1.5870936600000003,-30.89389536
10.03,1003,0.207,-0.987,-0.07200000000000001,13.6936962,71.2759752,12.032117999999999,80.18547209999998,-1.6042824000000002,-30.17769786
10.04,1004,0.183,-0.989,-0.07200000000000001,14.667724800000002,71.21867940000001,10.5424272,80.30579328,-1.6042824000000002,-29.46150036
10.05,1005,0.139,-0.988,-0.064,14.7823164,71.21867940000001,9.6829902,80.42611446000002,-1.6042824000000002,-28.74530286
10.06,1006,0.12,-0.972,-0.048,12.6623718,70.7030172,11.2872726,80.54070606,-1.59282324,-28.02910536
