TimeStamp(s),FrameCounter,AccX,AccY,AccZ,GyrX,GyrY,GyrZ,EulerX,EulerY,EulerZ
0.01,1,-0.038,-1.002,-0.081,0.11459160000000004,0.0,0.1718874,84.06439776,-2.16005166,-61.46693424
0.02,2,-0.038,-1.003,-0.08,0.1718874,0.11459160000000004,0.2291832000000001,84.06439776,-2.16005166,-61.46120466
0.03,3,-0.038,-1.003,-0.08199999999999999,0.2291832000000001,0.057295800000000015,0.286479,84.07012734,-2.1657812400000003,-61.46120466
0.04,4,-0.038,-1.002,-0.08199999999999999,0.1718874,0.1718874,0.2291832000000001,84.07012734,-2.1657812400000003,-61.46120466
0.05,5,-0.039,-1.002,-0.08,0.3437748,0.11459160000000004,0.286479,84.07585692,-2.1657812400000003,-61.45547508000001
0.060000000000000005,6,-0.038,-1.001,-0.081,0.286479,-0.057295800000000015,0.286479,84.07585692,-2.1657812400000003,-61.45547508000001
0.06999999999999999,7,-0.039,-1.0,-0.08199999999999999,0.1718874,-0.40107059999999994,0.3437748,84.0815865,-2.17151082,-61.46120466
0.08,8,-0.04,-1.002,-0.08,0.11459160000000004,-0.6302538000000001,0.4583664000000001,84.0815865,-2.1772404,-61.46693424
0.09,9,-0.04,-1.002,-0.081,0.0,-0.6302538000000001,0.3437748,84.0815865,-2.1772404,-61.47266382
0.09999999999999999,10,-0.04,-1.002,-0.081,0.0,-0.4583664000000001,0.286479,84.0815865,-2.1772404,-61.4783934
0.11,11,-0.040999999999999995,-1.002,-0.081,-0.057295800000000015,-0.40107059999999994,0.2291832000000001,84.0815865,-2.18296998,-61.48412298
0.12,12,-0.042,-1.003,-0.081,-0.2291832000000001,-0.2291832000000001,0.2291832000000001,84.07585692,-2.18296998,-61.48412298
0.13,13,-0.040999999999999995,-1.001,-0.083,-0.1718874,-0.1718874,0.40107059999999994,84.07585692,-2.18869956,-61.48412298
0.14,14,-0.04,-1.002,-0.084,-0.286479,0.057295800000000015,0.3437748,84.07585692,-2.19442914,-61.48412298
0.15000000000000002,15,-0.040999999999999995,-1.003,-0.083,-0.11459160000000004,0.11459160000000004,0.286479,84.06439776,-2.19442914,-61.48412298
0.16,16,-0.042,-1.004,-0.084,-0.286479,0.286479,0.286479,84.06439776,-2.19442914,-61.4783934
0.17,17,-0.04,-1.005,-0.083,-0.40107059999999994,0.1718874,0.3437748,84.05866818,-2.20015872,-61.4783934
0.18000000000000002,18,-0.038,-1.005,-0.083,-0.40107059999999994,0.0,0.572958,84.05293859999998,-2.2058883,-61.4783934
0.19,19,-0.04,-1.005,-0.079,-0.572958,0.0,0.572958,84.04720902,-2.21161788,-61.4783934
0.2,20,-0.04,-1.006,-0.077,-0.8021411999999999,0.0,0.5156622000000001,84.04147944,-2.21161788,-61.47266382
0.21000000000000002,21,-0.038,-1.004,-0.08199999999999999,-0.7448454000000001,0.3437748,0.4583664000000001,84.03574986,-2.21734746,-61.47266382
0.22,22,-0.036000000000000004,-1.005,-0.085,-0.5156622000000001,0.40107059999999994,0.1718874,84.03002028,-2.21734746,-61.46693424
0.23,23,-0.035,-1.006,-0.08199999999999999,-0.6302538000000001,0.11459160000000004,0.057295800000000015,84.0242907,-2.21734746,-61.46693424
0.24000000000000002,24,-0.037000000000000005,-1.004,-0.081,-0.6302538000000001,-0.1718874,0.2291832000000001,84.01283154000002,-2.21734746,-61.46693424
0.25,25,-0.039,-1.003,-0.08,-0.6302538000000001,-0.2291832000000001,0.3437748,84.01283154000002,-2.21734746,-61.46693424
0.26,26,-0.04,-1.001,-0.08,-0.6875496,0.0,0.286479,84.00137237999998,-2.21734746,-61.46693424
0.27,27,-0.040999999999999995,-1.0,-0.081,-0.572958,0.0,0.2291832000000001,83.9956428,-2.22307704,-61.46693424
0.28,28,-0.042,-1.002,-0.081,-0.5156622000000001,-0.057295800000000015,0.1718874,83.98991322,-2.22307704,-61.46693424
0.29000000000000004,29,-0.042,-1.001,-0.079,-0.6302538000000001,0.0,0.2291832000000001,83.98418364,-2.22880662,-61.46693424
0.3,30,-0.042,-1.0,-0.079,-0.572958,0.2291832000000001,0.2291832000000001,83.98418364,-2.22880662,-61.46120466
0.31,31,-0.042,-0.9990000000000001,-0.078,-0.4583664000000001,0.2291832000000001,0.286479,83.98418364,-2.22880662,-61.46120466
0.32,32,-0.042,-0.996,-0.08,-0.11459160000000004,0.286479,0.2291832000000001,83.97845406,-2.2345362,-61.45547508000001
0.33,33,-0.040999999999999995,-0.997,-0.08199999999999999,0.0,0.5156622000000001,0.2291832000000001,83.97845406,-2.2345362,-61.44974549999999
0.34,34,-0.040999999999999995,-0.996,-0.083,0.11459160000000004,0.6875496,0.2291832000000001,83.98418364,-2.2345362,-61.44401592000001
0.35000000000000003,35,-0.04,-0.997,-0.084,0.1718874,0.6875496,0.11459160000000004,83.97272448,-2.22880662,-61.43828634000001
0.36000000000000004,36,-0.04,-0.998,-0.084,0.286479,0.572958,0.11459160000000004,83.97845406,-2.22880662,-61.43255676
0.37,37,-0.04,-1.0,-0.084,0.2291832000000001,0.5156622000000001,0.1718874,83.97845406,-2.2345362,-61.42682718
0.38,38,-0.042,-1.001,-0.083,0.286479,0.4583664000000001,0.2291832000000001,83.98418364,-2.2345362,-61.42109760000001
0.39,39,-0.040999999999999995,-1.002,-0.08199999999999999,0.1718874,0.4583664000000001,0.11459160000000004,83.98418364,-2.2345362,-61.41536802
0.4,40,-0.040999999999999995,-1.003,-0.084,0.1718874,0.40107059999999994,0.1718874,83.97845406,-2.22880662,-61.40963844
0.41000000000000003,41,-0.040999999999999995,-1.003,-0.086,0.1718874,0.5156622000000001,0.1718874,83.97845406,-2.2345362,-61.40390886
0.42000000000000004,42,-0.042,-1.004,-0.086,0.11459160000000004,0.4583664000000001,0.057295800000000015,83.97845406,-2.2345362,-61.39817928
0.43,43,-0.042,-1.005,-0.083,0.11459160000000004,0.40107059999999994,0.057295800000000015,83.98418364,-2.2345362,-61.39817928
0.44,44,-0.040999999999999995,-1.006,-0.084,0.11459160000000004,0.286479,0.0,83.98418364,-2.2345362,-61.3924497
0.45,45,-0.044000000000000004,-1.006,-0.085,0.0,0.40107059999999994,0.0,83.97272448,-2.2345362,-61.3924497
0.46,46,-0.043,-1.006,-0.085,-0.11459160000000004,0.286479,0.057295800000000015,83.97272448,-2.2345362,-61.38672012000001
0.47000000000000003,47,-0.043,-1.005,-0.085,-0.2291832000000001,0.1718874,0.11459160000000004,83.9669949,-2.2345362,-61.38672012000001
0.48000000000000004,48,-0.045,-1.003,-0.08199999999999999,-0.286479,0.2291832000000001,0.11459160000000004,83.9669949,-2.24026578,-61.38099053999999
0.49,49,-0.044000000000000004,-1.002,-0.081,-0.3437748,0.40107059999999994,0.0,83.96126532,-2.24026578,-61.38099053999999
0.5,50,-0.043,-1.002,-0.08199999999999999,-0.40107059999999994,0.572958,0.0,83.95553574,-2.24026578,-61.37526096000001
0.51,51,-0.042,-1.004,-0.085,-0.5156622000000001,0.6302538000000001,0.0,83.94980616,-2.24026578,-61.36380180000001
0.52,52,-0.042,-1.002,-0.08199999999999999,-0.5156622000000001,0.40107059999999994,0.0,83.94407658,-2.24026578,-61.36380180000001
0.53,53,-0.040999999999999995,-1.0,-0.084,-0.40107059999999994,0.057295800000000015,-0.057295800000000015,83.938347,-2.24026578,-61.36380180000001
0.54,54,-0.043,-0.9990000000000001,-0.084,-0.3437748,0.0,0.0,83.93261742,-2.24026578,-61.36380180000001
0.55,55,-0.043,-1.0,-0.084,-0.3437748,0.0,0.0,83.93261742,-2.2345362,-61.36380180000001
0.56,56,-0.044000000000000004,-0.9990000000000001,-0.08199999999999999,-0.3437748,0.0,-0.057295800000000015,83.92688783999998,-2.2345362,-61.36380180000001
0.5700000000000001,57,-0.044000000000000004,-0.9990000000000001,-0.081,-0.1718874,-0.057295800000000015,-0.057295800000000015,83.92688783999998,-2.2345362,-61.36380180000001
0.5800000000000001,58,-0.044000000000000004,-0.9990000000000001,-0.08199999999999999,0.0,-0.057295800000000015,-0.057295800000000015,83.92688783999998,-2.2345362,-61.36380180000001
0.59,59,-0.043,-1.0,-0.081,0.0,0.0,0.0,83.92688783999998,-2.2345362,-61.36380180000001
0.6,60,-0.045,-1.0,-0.083,0.057295800000000015,-0.11459160000000004,0.0,83.92688783999998,-2.25172494,-61.36953138
0.61,61,-0.046,-1.001,-0.081,0.057295800000000015,-0.057295800000000015,0.0,83.92688783999998,-2.25172494,-61.36953138
0.62,62,-0.045,-0.9990000000000001,-0.081,0.11459160000000004,-0.11459160000000004,0.0,83.93261742,-2.25172494,-61.36953138
0.63,63,-0.045,-1.0,-0.083,0.286479,-0.057295800000000015,0.0,83.93261742,-2.25172494,-61.36953138
0.64,64,-0.045,-1.001,-0.08199999999999999,0.3437748,-0.11459160000000004,0.0,83.938347,-2.25172494,-61.37526096000001
0.65,65,-0.046,-1.001,-0.079,0.3437748,0.0,0.0,83.94980616,-2.25745452,-61.37526096000001
0.66,66,-0.046,-0.9990000000000001,-0.08199999999999999,0.572958,0.0,-0.057295800000000015,83.95553574,-2.25745452,-61.37526096000001
0.67,67,-0.046,-1.001,-0.083,0.572958,0.11459160000000004,-0.11459160000000004,83.96126532,-2.25745452,-61.36953138
0.68,68,-0.045,-1.001,-0.08199999999999999,0.572958,-0.057295800000000015,-0.1718874,83.9669949,-2.25745452,-61.37526096000001
0.6900000000000001,69,-0.046,-1.003,-0.083,0.6302538000000001,-0.2291832000000001,-0.1718874,83.97272448,-2.25172494,-61.37526096000001
0.7000000000000001,70,-0.045,-1.003,-0.083,0.572958,-0.3437748,-0.11459160000000004,83.97272448,-2.25745452,-61.38099053999999
0.7100000000000001,71,-0.044000000000000004,-1.002,-0.085,0.6302538000000001,-0.286479,-0.11459160000000004,83.97845406,-2.25172494,-61.38099053999999
0.72,72,-0.045,-1.002,-0.084,0.5156622000000001,-0.1718874,-0.2291832000000001,83.98418364,-2.25172494,-61.38672012000001
0.73,73,-0.044000000000000004,-1.002,-0.083,0.3437748,-0.2291832000000001,-0.1718874,83.98991322,-2.25172494,-61.38672012000001
0.74,74,-0.045,-1.001,-0.086,0.286479,-0.40107059999999994,-0.2291832000000001,83.9956428,-2.24599536,-61.3924497
0.75,75,-0.046,-1.0,-0.086,0.3437748,-0.3437748,-0.286479,83.98991322,-2.25172494,-61.39817928
0.76,76,-0.047,-1.0,-0.086,0.286479,-0.2291832000000001,-0.286479,83.98991322,-2.24599536,-61.40390886
0.77,77,-0.048,-1.001,-0.085,0.2291832000000001,-0.1718874,-0.3437748,83.9956428,-2.24599536,-61.40390886
0.78,78,-0.047,-0.9990000000000001,-0.087,0.2291832000000001,0.0,-0.40107059999999994,83.9956428,-2.24026578,-61.40390886
0.79,79,-0.047,-1.0,-0.08800000000000001,0.2291832000000001,0.057295800000000015,-0.40107059999999994,84.00137237999998,-2.2345362,-61.40390886
0.8,80,-0.047,-1.001,-0.087,0.1718874,-0.11459160000000004,-0.3437748,83.98418364,-2.24026578,-61.40963844
0.81,81,-0.047,-1.002,-0.087,0.11459160000000004,-0.2291832000000001,-0.286479,83.98418364,-2.2345362,-61.40963844
0.8200000000000001,82,-0.048,-1.001,-0.08900000000000001,0.2291832000000001,0.0,-0.2291832000000001,83.98991322,-2.2345362,-61.40963844
0.8300000000000001,83,-0.047,-1.001,-0.08800000000000001,0.1718874,0.057295800000000015,-0.1718874,83.98991322,-2.2345362,-61.40963844
0.8400000000000001,84,-0.046,-0.9990000000000001,-0.087,0.057295800000000015,0.0,-0.057295800000000015,83.98991322,-2.22880662,-61.40963844
0.85,85,-0.045,-0.9990000000000001,-0.085,0.11459160000000004,-0.1718874,-0.11459160000000004,83.98418364,-2.24026578,-61.41536802
0.86,86,-0.045,-1.001,-0.08199999999999999,-0.11459160000000004,-0.3437748,-0.057295800000000015,83.98418364,-2.24026578,-61.42109760000001
0.87,87,-0.046,-1.0,-0.086,-0.1718874,-0.1718874,0.0,83.97845406,-2.24026578,-61.42109760000001
0.88,88,-0.045,-1.001,-0.08900000000000001,-0.11459160000000004,0.0,-0.11459160000000004,83.97845406,-2.24026578,-61.42109760000001
0.89,89,-0.043,-1.002,-0.08800000000000001,-0.1718874,0.11459160000000004,-0.2291832000000001,83.97845406,-2.2345362,-61.42109760000001
0.9,90,-0.042,-1.002,-0.084,-0.286479,-0.2291832000000001,-0.057295800000000015,83.97272448,-2.2345362,-61.42109760000001
0.91,91,-0.043,-1.0,-0.084,-0.2291832000000001,-0.40107059999999994,0.0,83.9669949,-2.2345362,-61.42682718
0.92,92,-0.044000000000000004,-1.0,-0.085,-0.1718874,-0.40107059999999994,0.0,83.9669949,-2.2345362,-61.43255676
0.93,93,-0.045,-1.0,-0.083,-0.11459160000000004,-0.286479,0.0,83.9669949,-2.2345362,-61.43255676
0.9400000000000001,94,-0.045,-1.001,-0.083,-0.1718874,-0.286479,0.0,83.96126532,-2.2345362,-61.43828634000001
0.9500000000000001,95,-0.045,-1.004,-0.08199999999999999,-0.3437748,-0.4583664000000001,0.0,83.96126532,-2.2345362,-61.44401592000001
0.9600000000000001,96,-0.045,-1.001,-0.081,-0.286479,-0.572958,0.057295800000000015,83.96126532,-2.2345362,-61.44974549999999
0.97,97,-0.046,-1.001,-0.08199999999999999,-0.1718874,-0.572958,0.057295800000000015,83.95553574,-2.2345362,-61.45547508000001
0.98,98,-0.046,-1.0,-0.08199999999999999,-0.1718874,-0.4583664000000001,0.11459160000000004,83.95553574,-2.24026578,-61.46120466
0.99,99,-0.046,-1.001,-0.081,-0.057295800000000015,-0.5156622000000001,0.1718874,83.95553574,-2.24026578,-61.46120466
1.0,100,-0.046,-0.9990000000000001,-0.083,0.0,-0.4583664000000001,0.1718874,83.94980616,-2.25172494,-61.46693424
1.01,101,-0.045,-0.9990000000000001,-0.083,0.0,-0.286479,0.2291832000000001,83.94980616,-2.25745452,-61.47266382
1.02,102,-0.044000000000000004,-0.9990000000000001,-0.083,0.057295800000000015,-0.4583664000000001,0.1718874,83.94980616,-2.25745452,-61.4783934
1.03,103,-0.045,-1.0,-0.08199999999999999,0.0,-0.4583664000000001,0.2291832000000001,83.94980616,-2.2631841,-61.48412298
1.04,104,-0.046,-1.0,-0.08199999999999999,0.1718874,-0.286479,0.2291832000000001,83.95553574,-2.2631841,-61.48412298
1.05,105,-0.047,-1.0,-0.084,0.286479,-0.2291832000000001,0.1718874,83.94980616,-2.28037284,-61.48985256
1.06,106,-0.046,-1.0,-0.085,0.286479,0.0,0.2291832000000001,83.94980616,-2.28037284,-61.48985256
1.07,107,-0.045,-1.0,-0.087,0.2291832000000001,-0.1718874,0.2291832000000001,83.95553574,-2.28610242,-61.48985256
1.08,108,-0.045,-1.001,-0.084,0.286479,-0.4583664000000001,0.286479,83.95553574,-2.28610242,-61.49558214
1.09,109,-0.046,-1.002,-0.083,0.1718874,-0.4583664000000001,0.286479,83.96126532,-2.2918320000000003,-61.50131172
1.1,110,-0.045,-1.002,-0.084,0.1718874,-0.286479,0.286479,83.95553574,-2.29756158,-61.50131172
1.11,111,-0.045,-1.003,-0.085,0.057295800000000015,-0.3437748,0.1718874,83.95553574,-2.29756158,-61.50704129999999
1.12,112,-0.046,-1.003,-0.085,0.0,-0.286479,0.1718874,83.95553574,-2.30329116,-61.50704129999999
1.1300000000000001,113,-0.045,-1.003,-0.084,-0.057295800000000015,-0.2291832000000001,0.1718874,83.95553574,-2.30329116,-61.51277088000001
1.1400000000000001,114,-0.046,-1.003,-0.084,-0.11459160000000004,-0.1718874,0.057295800000000015,83.95553574,-2.30329116,-61.51277088000001
1.1500000000000001,115,-0.046,-1.002,-0.085,-0.1718874,-0.2291832000000001,0.057295800000000015,83.938347,-2.3147503200000004,-61.51850046
1.1600000000000001,116,-0.047,-1.003,-0.085,-0.286479,-0.3437748,0.0,83.938347,-2.3147503200000004,-61.52423004
1.17,117,-0.047,-1.006,-0.08199999999999999,-0.40107059999999994,-0.572958,-0.057295800000000015,83.93261742,-2.3147503200000004,-61.52995962
1.18,118,-0.046,-1.004,-0.083,-0.572958,-0.6875496,0.0,83.92688783999998,-2.3147503200000004,-61.5356892
1.19,119,-0.047,-1.004,-0.084,-0.6302538000000001,-0.572958,0.0,83.92115826,-2.3147503200000004,-61.54141878
1.2,120,-0.046,-1.005,-0.084,-0.7448454000000001,-0.572958,0.0,83.9096991,-2.3204799,-61.54714836000001
1.21,121,-0.047,-1.003,-0.084,-0.6875496,-0.4583664000000001,0.0,83.89823994000002,-2.3204799,-61.55287794
1.22,122,-0.048,-1.001,-0.083,-0.6875496,-0.2291832000000001,0.057295800000000015,83.89251035999997,-2.3204799,-61.55287794
1.23,123,-0.049,-1.001,-0.08199999999999999,-0.8021411999999999,0.0,0.057295800000000015,83.88678078000002,-2.3204799,-61.55287794
1.24,124,-0.05,-1.0,-0.084,-0.572958,0.11459160000000004,0.11459160000000004,83.8810512,-2.3204799,-61.55287794
1.25,125,-0.05,-1.001,-0.083,-0.4583664000000001,0.4583664000000001,0.2291832000000001,83.8810512,-2.3376686399999995,-61.54714836000001
1.26,126,-0.05,-1.0,-0.079,-0.5156622000000001,0.572958,0.286479,83.86959204,-2.3376686399999995,-61.54141878
1.27,127,-0.049,-0.9990000000000001,-0.08,-0.40107059999999994,0.6302538000000001,0.40107059999999994,83.86959204,-2.34339822,-61.5356892
1.28,128,-0.049,-1.0,-0.08199999999999999,-0.2291832000000001,0.9167328000000001,0.5156622000000001,83.86386246,-2.3491278,-61.52423004
1.29,129,-0.049,-1.002,-0.08,-0.057295800000000015,1.2032118,0.572958,83.86386246,-2.3491278,-61.51277088000001
1.3,130,-0.049,-1.002,-0.08,0.0,1.2032118,0.6875496,83.86386246,-2.36058696,-61.50131172
1.31,131,-0.047,-1.001,-0.08199999999999999,0.0,1.2032118,0.7448454000000001,83.86386246,-2.36631654,-61.48412298
1.32,132,-0.046,-1.001,-0.083,0.1718874,1.2032118,0.8021411999999999,83.86386246,-2.37204612,-61.47266382
1.33,133,-0.046,-1.0,-0.083,0.1718874,1.3178034,0.7448454000000001,83.86959204,-2.38350528,-61.46120466
1.34,134,-0.047,-1.002,-0.08,0.3437748,1.3178034,0.7448454000000001,83.86959204,-2.38923486,-61.44401592000001
1.35,135,-0.047,-1.001,-0.08199999999999999,0.4583664000000001,1.4896908000000002,0.6875496,83.87532162,-2.39496444,-61.43255676
1.36,136,-0.047,-1.002,-0.08199999999999999,0.572958,1.6042823999999998,0.7448454000000001,83.8810512,-2.40069402,-61.41536802
1.37,137,-0.045,-1.004,-0.083,0.5156622000000001,1.5469866,0.8021411999999999,83.88678078000002,-2.4064236,-61.39817928
1.3800000000000001,138,-0.044000000000000004,-1.003,-0.083,0.5156622000000001,1.4896908000000002,0.9167328000000001,83.88678078000002,-2.41788276,-61.38099053999999
1.3900000000000001,139,-0.043,-1.002,-0.085,0.572958,1.4896908000000002,0.9740286,83.89251035999997,-2.42361234,-61.36380180000001
1.4000000000000001,140,-0.044000000000000004,-1.002,-0.087,0.6302538000000001,1.432395,0.9740286,83.89823994000002,-2.42934192,-61.34661306
1.4100000000000001,141,-0.046,-1.003,-0.085,0.40107059999999994,1.3178034,0.9167328000000001,83.90396952,-2.44080108,-61.3351539
1.42,142,-0.047,-1.002,-0.085,0.286479,1.2032118,0.8594370000000001,83.90396952,-2.44653066,-61.32369473999999
1.43,143,-0.049,-1.004,-0.083,0.1718874,1.145916,0.9167328000000001,83.90396952,-2.45798982,-61.31223558000001
1.44,144,-0.049,-1.006,-0.083,0.0,1.3178034,1.0313244000000001,83.90396952,-2.4637194,-61.29504684
1.45,145,-0.047,-1.003,-0.084,-0.3437748,1.3178034,1.0313244000000001,83.89823994000002,-2.47517856,-61.2778581
1.46,146,-0.048,-1.0,-0.087,-0.4583664000000001,1.5469866,0.9167328000000001,83.89251035999997,-2.48090814,-61.26639894
1.47,147,-0.049,-0.998,-0.086,-0.6302538000000001,1.8907614,0.7448454000000001,83.88678078000002,-2.48663772,-61.24348062
1.48,148,-0.048,-0.9990000000000001,-0.087,-0.6875496,2.0626488000000003,0.5156622000000001,83.8810512,-2.4923672999999997,-61.22629188
1.49,149,-0.049,-1.001,-0.09,-0.7448454000000001,1.8334656000000005,0.5156622000000001,83.86959204,-2.49809688,-61.20337356
1.5,150,-0.05,-1.0,-0.09,-0.8594370000000001,1.7188740000000002,0.40107059999999994,83.85240329999998,-2.50382646,-61.18618482000001
1.51,151,-0.053,-1.001,-0.09300000000000001,-0.8021411999999999,1.7761698000000001,0.286479,83.84667372,-2.50382646,-61.16899608
1.52,152,-0.053,-1.0,-0.08900000000000001,-0.8594370000000001,1.5469866,0.2291832000000001,83.83521456,-2.50382646,-61.15180734000001
1.53,153,-0.053,-1.001,-0.08900000000000001,-1.0313244000000001,1.145916,0.11459160000000004,83.82375540000002,-2.50382646,-61.14034818
1.54,154,-0.054000000000000006,-1.001,-0.086,-1.2605076000000002,0.6875496,0.057295800000000015,83.81229624,-2.50382646,-61.1346186
1.55,155,-0.055,-1.0,-0.08199999999999999,-1.4896908000000002,0.2291832000000001,0.0,83.80083708,-2.51528562,-61.1346186
1.56,156,-0.055,-1.0,-0.085,-1.5469866,0.11459160000000004,-0.057295800000000015,83.78364833999998,-2.51528562,-61.1346186
1.57,157,-0.055,-1.003,-0.091,-1.4896908000000002,0.40107059999999994,-0.3437748,83.76645959999998,-2.51528562,-61.12888902000001
1.58,158,-0.055999999999999994,-1.0070000000000001,-0.087,-1.6042823999999998,0.4583664000000001,-0.4583664000000001,83.75500044,-2.50955604,-61.12315944
1.59,159,-0.057999999999999996,-1.008,-0.084,-1.6615782,0.286479,-0.286479,83.73781170000002,-2.50382646,-61.12315944
1.6,160,-0.059000000000000004,-1.006,-0.081,-1.6615782,0.40107059999999994,-0.1718874,83.72635254,-2.51528562,-61.11742986
1.61,161,-0.06,-1.004,-0.083,-1.432395,0.40107059999999994,-0.11459160000000004,83.7091638,-2.51528562,-61.11742986
1.62,162,-0.061,-1.003,-0.083,-1.432395,0.6302538000000001,-0.1718874,83.69770464000001,-2.50955604,-61.11170028
1.6300000000000001,163,-0.062,-1.002,-0.083,-1.3750992,0.6875496,-0.1718874,83.6805159,-2.50955604,-61.10024112
1.6400000000000001,164,-0.063,-1.001,-0.085,-1.145916,0.7448454000000001,-0.057295800000000015,83.66905674,-2.50955604,-61.09451154
1.6500000000000001,165,-0.063,-0.9990000000000001,-0.086,-0.9167328000000001,0.6302538000000001,-0.1718874,83.66332716000002,-2.52674478,-61.08878196000001
1.6600000000000001,166,-0.062,-0.996,-0.085,-0.7448454000000001,0.4583664000000001,-0.2291832000000001,83.65186800000002,-2.52674478,-61.08305237999999
1.6700000000000002,167,-0.061,-0.996,-0.086,-0.4583664000000001,0.1718874,-0.286479,83.65186800000002,-2.5210152000000003,-61.08305237999999
1.68,168,-0.059000000000000004,-0.9940000000000001,-0.087,-0.1718874,-0.11459160000000004,-0.286479,83.64613842,-2.51528562,-61.08878196000001
1.69,169,-0.059000000000000004,-0.9940000000000001,-0.08800000000000001,-0.057295800000000015,-0.1718874,-0.286479,83.64613842,-2.51528562,-61.08878196000001
1.7,170,-0.057999999999999996,-0.995,-0.08900000000000001,0.0,-0.11459160000000004,-0.3437748,83.62894968,-2.55539268,-61.09451154
1.71,171,-0.055999999999999994,-0.996,-0.091,0.1718874,0.0,-0.5156622000000001,83.62894968,-2.5496631,-61.09451154
1.72,172,-0.055,-0.997,-0.092,0.057295800000000015,0.0,-0.6302538000000001,83.62894968,-2.54393352,-61.09451154
1.73,173,-0.055999999999999994,-0.998,-0.092,0.1718874,0.0,-0.6875496,83.63467926,-2.53247436,-61.09451154
1.74,174,-0.057,-0.9990000000000001,-0.091,0.11459160000000004,0.0,-0.7448454000000001,83.63467926,-2.52674478,-61.09451154
1.75,175,-0.059000000000000004,-0.998,-0.091,0.0,0.0,-0.7448454000000001,83.62322009999998,-2.5496631,-61.10024112
1.76,176,-0.06,-0.997,-0.091,-0.057295800000000015,0.0,-0.6875496,83.62322009999998,-2.54393352,-61.10024112
1.77,177,-0.062,-0.997,-0.092,0.0,0.2291832000000001,-0.6875496,83.62322009999998,-2.53820394,-61.10024112
1.78,178,-0.06,-0.998,-0.095,-0.057295800000000015,0.3437748,-0.8021411999999999,83.62322009999998,-2.52674478,-61.09451154
1.79,179,-0.059000000000000004,-1.0,-0.095,-0.057295800000000015,0.40107059999999994,-0.8021411999999999,83.62322009999998,-2.5210152000000003,-61.09451154
1.8,180,-0.059000000000000004,-1.002,-0.094,-0.11459160000000004,0.5156622000000001,-0.7448454000000001,83.61176094,-2.52674478,-61.08878196000001
1.81,181,-0.057,-1.002,-0.095,-0.3437748,0.5156622000000001,-0.7448454000000001,83.60603136,-2.5210152000000003,-61.08305237999999
1.82,182,-0.055,-1.004,-0.09300000000000001,-0.4583664000000001,0.4583664000000001,-0.6875496,83.60030178,-2.51528562,-61.08305237999999
1.83,183,-0.055,-1.005,-0.09300000000000001,-0.572958,0.3437748,-0.6875496,83.5945722,-2.50382646,-61.07732280000001
1.84,184,-0.052000000000000005,-1.006,-0.095,-0.6875496,0.4583664000000001,-0.6875496,83.58884262000002,-2.49809688,-61.07732280000001
1.85,185,-0.051,-1.005,-0.094,-0.6875496,0.40107059999999994,-0.6875496,83.57738346,-2.4923672999999997,-61.07159322
1.86,186,-0.052000000000000005,-1.005,-0.094,-0.7448454000000001,0.1718874,-0.6302538000000001,83.5659243,-2.48663772,-61.07159322
1.87,187,-0.053,-1.004,-0.09300000000000001,-0.9167328000000001,0.1718874,-0.7448454000000001,83.56019472,-2.48090814,-61.07159322
1.8800000000000001,188,-0.053,-1.002,-0.092,-0.9740286,0.286479,-0.6875496,83.54873556,-2.47517856,-61.06586364
1.8900000000000001,189,-0.052000000000000005,-0.9990000000000001,-0.092,-0.9167328000000001,0.4583664000000001,-0.6875496,83.53727640000002,-2.4637194,-61.06013406
1.9000000000000001,190,-0.05,-1.0,-0.094,-0.8021411999999999,0.6875496,-0.6875496,83.52581724,-2.4637194,-61.05440448
1.9100000000000001,191,-0.049,-0.9990000000000001,-0.094,-0.9740286,0.9167328000000001,-0.6302538000000001,83.51435808,-2.45798982,-61.0486749
1.9200000000000002,192,-0.047,-0.997,-0.08900000000000001,-0.9167328000000001,0.8594370000000001,-0.572958,83.50289891999998,-2.44653066,-61.04294532
1.93,193,-0.047,-0.9940000000000001,-0.08800000000000001,-0.8594370000000001,0.6875496,-0.5156622000000001,83.49143975999998,-2.44080108,-61.03148616
1.94,194,-0.047,-0.9940000000000001,-0.08800000000000001,-0.5156622000000001,0.8021411999999999,-0.4583664000000001,83.48571018,-2.4350715000000003,-61.02575657999999
1.95,195,-0.047,-0.996,-0.092,-0.1718874,0.8594370000000001,-0.3437748,83.4799806,-2.4350715000000003,-61.020027000000006
1.96,196,-0.046,-0.9990000000000001,-0.094,-0.11459160000000004,0.9167328000000001,-0.40107059999999994,83.4799806,-2.42934192,-61.00856784
1.97,197,-0.045,-1.0,-0.092,0.0,1.0313244000000001,-0.40107059999999994,83.4799806,-2.42361234,-60.99710868000001
1.98,198,-0.044000000000000004,-1.001,-0.09300000000000001,0.2291832000000001,0.9740286,-0.40107059999999994,83.4799806,-2.41788276,-60.9913791
1.99,199,-0.044000000000000004,-0.998,-0.091,0.3437748,0.8594370000000001,-0.40107059999999994,83.48571018,-2.41215318,-60.97991994
2.0,200,-0.045,-0.997,-0.08800000000000001,0.40107059999999994,0.6875496,-0.3437748,83.49143975999998,-2.41215318,-60.97419036
2.01,201,-0.046,-0.996,-0.08900000000000001,0.5156622000000001,0.4583664000000001,-0.2291832000000001,83.49716934,-2.4064236,-60.96846078
2.02,202,-0.047,-0.997,-0.091,0.6875496,0.2291832000000001,-0.2291832000000001,83.50289891999998,-2.4064236,-60.96846078
2.03,203,-0.048,-0.996,-0.092,0.8594370000000001,0.2291832000000001,-0.2291832000000001,83.51435808,-2.40069402,-60.96846078
2.04,204,-0.048,-0.9990000000000001,-0.09300000000000001,0.7448454000000001,0.11459160000000004,-0.2291832000000001,83.52008766,-2.40069402,-60.96273120000001
2.05,205,-0.048,-0.9990000000000001,-0.09,0.6875496,0.0,-0.2291832000000001,83.52008766,-2.40069402,-60.96846078
2.0599999999999996,206,-0.046,-1.001,-0.091,0.572958,-0.2291832000000001,-0.2291832000000001,83.52581724,-2.40069402,-60.96846078
2.07,207,-0.049,-0.9990000000000001,-0.091,0.572958,-0.5156622000000001,-0.1718874,83.53154682,-2.39496444,-60.97419036
2.0799999999999996,208,-0.049,-0.9990000000000001,-0.091,0.40107059999999994,-0.40107059999999994,-0.11459160000000004,83.53727640000002,-2.39496444,-60.97991994
2.09,209,-0.049,-0.998,-0.09300000000000001,0.40107059999999994,-0.286479,-0.057295800000000015,83.54300598,-2.39496444,-60.97991994
2.0999999999999996,210,-0.048,-1.0,-0.096,0.40107059999999994,-0.1718874,-0.057295800000000015,83.52008766,-2.4064236,-60.98564952
2.11,211,-0.047,-1.002,-0.09699999999999999,0.1718874,-0.2291832000000001,-0.057295800000000015,83.52581724,-2.4064236,-60.98564952
2.1199999999999997,212,-0.048,-1.004,-0.095,0.0,-0.40107059999999994,-0.057295800000000015,83.52581724,-2.4064236,-60.9913791
2.13,213,-0.05,-1.003,-0.094,-0.057295800000000015,-0.572958,0.0,83.52008766,-2.4064236,-60.99710868000001
2.1399999999999997,214,-0.05,-1.002,-0.095,-0.286479,-0.6302538000000001,0.057295800000000015,83.52008766,-2.4064236,-61.00283826
2.15,215,-0.053,-1.002,-0.096,-0.11459160000000004,-0.9167328000000001,0.1718874,83.5086285,-2.42361234,-61.01429741999999
2.1599999999999997,216,-0.053,-1.002,-0.096,-0.3437748,-0.9740286,0.286479,83.5086285,-2.42934192,-61.02575657999999
2.17,217,-0.052000000000000005,-1.004,-0.09699999999999999,-0.5156622000000001,-0.8594370000000001,0.40107059999999994,83.50289891999998,-2.4350715000000003,-61.03148616
2.1799999999999997,218,-0.055,-1.002,-0.09699999999999999,-0.5156622000000001,-1.0886202,0.40107059999999994,83.49716934,-2.44080108,-61.04294532
2.19,219,-0.059000000000000004,-1.002,-0.095,-0.4583664000000001,-1.0313244000000001,0.572958,83.49143975999998,-2.44653066,-61.05440448
2.1999999999999997,220,-0.061,-1.001,-0.096,-0.4583664000000001,-1.2605076000000002,0.6875496,83.4799806,-2.46944898,-61.06586364
2.21,221,-0.057,-1.001,-0.095,-0.8021411999999999,-1.432395,1.0886202,83.47425102000003,-2.48090814,-61.07732280000001
2.2199999999999998,222,-0.055,-1.001,-0.095,-1.0313244000000001,-1.432395,1.5469866,83.46279186000002,-2.49809688,-61.08878196000001
2.23,223,-0.055,-0.9990000000000001,-0.09,-1.145916,-1.145916,1.7761698000000001,83.45133270000002,-2.51528562,-61.10024112
2.2399999999999998,224,-0.055999999999999994,-0.9990000000000001,-0.09,-1.2605076000000002,-0.8594370000000001,1.9480572,83.43987354000002,-2.53820394,-61.10597070000001
2.25,225,-0.057,-1.004,-0.091,-1.2605076000000002,-0.8594370000000001,2.1772404,83.42841438,-2.5611222600000003,-61.11170028
2.26,226,-0.055999999999999994,-1.011,-0.09300000000000001,-1.6042823999999998,-1.0313244000000001,2.4064236,83.41122564,-2.58977016,-61.12315944
2.27,227,-0.053,-1.016,-0.09,-1.9480572,-1.2032118,2.5210152000000003,83.3940369,-2.61268848,-61.1346186
2.28,228,-0.055,-1.013,-0.086,-1.9480572,-1.432395,2.86479,83.37684816,-2.64706596,-61.14034818
2.29,229,-0.055999999999999994,-1.0070000000000001,-0.08800000000000001,-1.8907614,-1.2605076000000002,3.1512689999999997,83.35392984,-2.67571386,-61.15180734000001
2.3,230,-0.057,-1.0070000000000001,-0.091,-2.0053530000000004,-1.0886202,3.380452200000001,83.3367411,-2.71582092,-61.15753692
2.31,231,-0.059000000000000004,-1.005,-0.087,-1.7761698000000001,-1.145916,3.4950437999999995,83.31955236,-2.7501984,-61.16899608
2.32,232,-0.061,-1.003,-0.086,-1.6042823999999998,-1.145916,3.6096353999999997,83.30236362,-2.79030546,-61.17472566
2.3299999999999996,233,-0.06,-1.003,-0.08800000000000001,-1.6042823999999998,-1.2605076000000002,3.8388186,83.28517488,-2.83041252,-61.18618482000001
2.34,234,-0.06,-1.0,-0.087,-1.7761698000000001,-1.2605076000000002,4.1252976000000015,83.26798613999998,-2.87051958,-61.1919144
2.3499999999999996,235,-0.061,-0.997,-0.087,-1.6615782,-1.0313244000000001,4.3544808,83.25652698,-2.91635622,-61.19764398
2.36,236,-0.06,-0.996,-0.09,-1.6042823999999998,-0.9167328000000001,4.583664,83.23933824000002,-2.96219286,-61.20337356
2.3699999999999997,237,-0.059000000000000004,-0.997,-0.09,-1.6042823999999998,-0.8021411999999999,4.7555514,83.2221495,-3.0137590800000003,-61.20337356
2.38,238,-0.059000000000000004,-0.997,-0.091,-1.4896908000000002,-0.3437748,4.8701430000000006,83.20496076,-3.05959572,-61.20337356
2.3899999999999997,239,-0.059000000000000004,-0.9940000000000001,-0.091,-1.3178034,-0.286479,5.042030400000002,83.19350159999998,-3.11116194,-61.20337356
2.4,240,-0.06,-0.992,-0.09,-0.8021411999999999,-0.11459160000000004,5.1566220000000005,83.18777202,-3.1627281600000003,-61.19764398
2.4099999999999997,241,-0.061,-0.996,-0.091,-0.7448454000000001,0.11459160000000004,5.3285094000000015,83.18204244,-3.214294380000001,-61.18618482000001
2.42,242,-0.062,-1.0,-0.08900000000000001,-0.9167328000000001,0.5156622000000001,5.5576926,83.17058328,-3.27159018,-61.17472566
2.4299999999999997,243,-0.061,-0.9990000000000001,-0.09300000000000001,-0.6875496,0.6302538000000001,5.9014674000000005,83.15912412,-3.32888598,-61.16326650000001
2.44,244,-0.06,-1.0,-0.094,-0.6302538000000001,0.6875496,6.1879464,83.15339454,-3.3919113599999995,-61.14607776
2.4499999999999997,245,-0.057999999999999996,-0.9990000000000001,-0.094,-0.8021411999999999,0.6875496,6.5317212,83.14193537999998,-3.4492071599999994,-61.1346186
2.46,246,-0.057,-1.0,-0.095,-0.8594370000000001,0.5156622000000001,6.7609043999999985,83.1362058,-3.51796212,-61.12315944
2.4699999999999998,247,-0.057999999999999996,-1.002,-0.09699999999999999,-0.9740286,0.6302538000000001,6.990087599999999,83.12474663999998,-3.58671708,-61.10597070000001
2.48,248,-0.059000000000000004,-1.002,-0.094,-1.145916,0.7448454000000001,6.990087599999999,83.11328748,-3.65547204,-61.08878196000001
2.4899999999999998,249,-0.061,-1.001,-0.094,-0.9740286,0.6302538000000001,7.1046792000000005,83.10182832,-3.7242269999999995,-61.07732280000001
2.5,250,-0.063,-1.002,-0.09300000000000001,-0.6302538000000001,0.6875496,7.2765666,83.09609874,-3.79298196,-61.06013406
2.51,251,-0.064,-1.003,-0.09699999999999999,-0.6875496,0.6875496,7.448453999999999,83.08463958,-3.8674665,-61.04294532
2.52,252,-0.064,-1.005,-0.099,-0.9167328000000001,0.6875496,7.6203414,83.07318042,-3.94195104,-61.02575657999999
2.53,253,-0.066,-1.0070000000000001,-0.098,-1.0313244000000001,0.6875496,7.906820400000001,83.06172126,-4.022165159999999,-61.01429741999999
2.54,254,-0.069,-1.006,-0.099,-1.2032118,0.9167328000000001,8.250595200000001,83.0502621,-4.102379279999999,-60.9913791
2.55,255,-0.07,-1.006,-0.10099999999999999,-1.6042823999999998,0.7448454000000001,8.479778399999999,83.03307336,-4.1825934,-60.97419036
2.56,256,-0.071,-1.005,-0.098,-1.9480572,0.6875496,8.7662574,83.01015504,-4.2685371,-60.95700161999999
2.57,257,-0.07400000000000001,-1.001,-0.098,-1.7761698000000001,0.9167328000000001,9.0527364,82.98723672,-4.3544808,-60.93981288
2.5799999999999996,258,-0.076,-1.001,-0.1,-1.5469866,1.3178034,9.167328,82.97004798,-4.44615408,-60.91689456
2.59,259,-0.078,-1.002,-0.1,-1.4896908000000002,1.6042823999999998,9.5111028,82.95285924,-4.53782736,-60.88824666000001
2.5999999999999996,260,-0.08,-1.002,-0.10300000000000001,-1.4896908000000002,1.8334656000000005,9.740286,82.9356705,-4.63523022,-60.85959876
2.61,261,-0.081,-1.002,-0.10400000000000001,-1.6042823999999998,1.9480572,10.084060800000001,82.91848175999998,-4.73263308,-60.82522128
2.6199999999999997,262,-0.081,-1.003,-0.105,-1.6615782,2.1199446,10.657018800000001,82.89556344,-4.83576552,-60.79084379999999
2.63,263,-0.081,-1.002,-0.106,-2.0053530000000004,1.9480572,11.0007936,82.87264512,-4.93889796,-60.75646632
2.6399999999999997,264,-0.083,-1.004,-0.10800000000000001,-2.3491277999999998,1.7761698000000001,11.45916,82.84399721999998,-5.05348956,-60.72781842000001
2.65,265,-0.085,-1.003,-0.107,-2.4637194,1.8334656000000005,11.9748222,82.81534932000002,-5.16808116,-60.69344094
2.6599999999999997,266,-0.086,-1.002,-0.10400000000000001,-2.4064236,2.1199446,12.4331886,82.78670142,-5.28840234,-60.65906345999999
2.67,267,-0.087,-1.0,-0.102,-2.5783110000000002,2.2345362,12.605075999999999,82.75805352,-5.4144530999999985,-60.6189564
2.6799999999999997,268,-0.08900000000000001,-1.0,-0.109,-2.7501984,2.291832,12.7196676,82.72367604,-5.53477428,-60.58457892
2.69,269,-0.092,-1.003,-0.111,-3.0939732,1.8907614,12.9488508,82.68929856,-5.66082504,-60.55020144
2.6999999999999997,270,-0.094,-1.003,-0.099,-3.0939732,2.5783110000000002,13.464512999999998,82.65492108,-5.79260538,-60.50436480000001
2.71,271,-0.092,-1.002,-0.10300000000000001,-3.0366774,3.6096353999999997,13.5791046,82.62054359999998,-5.91865614,-60.45279858
2.7199999999999998,272,-0.09300000000000001,-1.003,-0.106,-3.1512689999999997,4.2398892,13.5791046,82.58043654000002,-6.05043648,-60.39550278
2.73,273,-0.096,-1.004,-0.10300000000000001,-3.0939732,5.2139178,13.8082878,82.54032948,-6.18221682,-60.32674782
2.7399999999999998,274,-0.09699999999999999,-1.006,-0.106,-3.0366774,5.9014674000000005,14.0947668,82.50022242,-6.31399716,-60.24653370000001
2.75,275,-0.099,-1.0070000000000001,-0.105,-3.4377480000000005,6.3598338,14.209358400000001,82.45438578,-6.4457775,-60.16631957999999
2.76,276,-0.10099999999999999,-1.005,-0.107,-3.7242269999999995,6.6463128000000005,14.32395,82.40854913999998,-6.58328742,-60.08037588000001
2.77,277,-0.10300000000000001,-1.004,-0.111,-4.2398892,6.589017,14.381245800000002,82.35698292000002,-6.7150677599999975,-60.00016175999999
2.78,278,-0.11199999999999999,-1.0,-0.11,-4.8701430000000006,6.3598338,14.32395,82.29395754,-6.85257768,-59.91994764
2.79,279,-0.11699999999999999,-1.0,-0.106,-5.1566220000000005,6.417129599999999,14.266654199999998,82.23093216,-6.98435802,-59.83400394
2.8,280,-0.122,-1.0,-0.10099999999999999,-5.5003968,6.417129599999999,14.266654199999998,82.16790678,-7.12186794,-59.75378982
2.81,281,-0.127,-0.9990000000000001,-0.1,-5.958763200000001,6.5317212,14.32395,82.09342224,-7.25364828,-59.66784612
2.82,282,-0.124,-1.0,-0.10300000000000001,-6.3598338,6.589017,14.381245800000002,82.0189377,-7.3911582,-59.58763199999999
2.8299999999999996,283,-0.126,-1.002,-0.107,-6.990087599999999,5.9014674000000005,14.4958374,81.93872358,-7.528668120000002,-59.50741787999999
2.84,284,-0.13,-0.9990000000000001,-0.107,-7.448453999999999,5.3285094000000015,14.5531332,81.85277988,-7.66617804,-59.43293334
2.8499999999999996,285,-0.13,-0.998,-0.10800000000000001,-7.8495246,5.3285094000000015,14.438541599999999,81.76110659999998,-7.79795838,-59.36417838
2.86,286,-0.133,-0.9990000000000001,-0.107,-8.078707799999998,5.2139178,14.381245800000002,81.66943332,-7.935468299999997,-59.28969384000001
2.8699999999999997,287,-0.138,-0.9990000000000001,-0.11199999999999999,-8.250595200000001,4.8128472,14.381245800000002,81.57776004,-8.07297822,-59.22093888000001
2.88,288,-0.14300000000000002,-1.002,-0.11599999999999999,-8.7662574,4.1252976000000015,14.4958374,81.48035718,-8.210488139999999,-59.16364308
2.8899999999999997,289,-0.147,-1.004,-0.11599999999999999,-9.2819196,3.3231564,14.8396122,81.37722474,-8.353727639999999,-59.10634728
2.9,290,-0.153,-1.002,-0.11199999999999999,-9.9694692,3.1512689999999997,15.2406828,81.26836272,-8.50269672,-59.05478106
2.9099999999999997,291,-0.154,-0.9990000000000001,-0.111,-10.599723,3.3231564,15.6417534,81.15377112,-8.651665800000002,-58.99748526000001
2.92,292,-0.156,-1.0,-0.114,-11.1153852,3.2658606,15.870936600000002,81.02772036,-8.80636446,-58.94591904
2.9299999999999997,293,-0.155,-1.0,-0.11800000000000001,-11.5737516,2.8074942000000003,16.042824000000003,80.90166959999998,-8.96106312,-58.89435282
2.94,294,-0.156,-1.0,-0.11900000000000001,-12.318597,2.3491277999999998,16.272007199999994,80.76988926,-9.12149136,-58.842786600000004
2.9499999999999997,295,-0.156,-1.001,-0.11699999999999999,-12.891555,2.291832,16.558486199999994,80.63237934,-9.27619002,-58.796949960000006
2.96,296,-0.155,-0.9990000000000001,-0.11900000000000001,-13.2353298,2.291832,16.7876694,80.49486942,-9.44234784,-58.74538374
2.9699999999999998,297,-0.16,-1.0,-0.121,-13.8082878,1.7188740000000002,16.959556799999998,80.34590034,-9.60850566,-58.699547100000004
2.98,298,-0.16899999999999998,-0.997,-0.122,-14.381245800000002,1.3178034,17.131444199999994,80.19120168,-9.77466348,-58.65944003999999
2.9899999999999998,299,-0.172,-0.998,-0.124,-14.896907999999998,1.4896908000000002,17.131444199999994,80.03650302,-9.9408213,-58.61933298
3.0,300,-0.17600000000000002,-0.9940000000000001,-0.125,-15.469866,1.432395,17.131444199999994,79.8703452,-10.10697912,-58.57922592
3.01,301,-0.184,-0.987,-0.124,-15.813640800000002,1.6042823999999998,17.0168526,79.70418738,-10.27313694,-58.53338928
3.02,302,-0.18100000000000002,-0.982,-0.124,-15.928232399999999,2.7501984,16.673077799999998,79.53229998,-10.43356518,-58.47609348
3.03,303,-0.17800000000000002,-0.982,-0.134,-16.1001198,3.2658606,16.386598799999998,79.354683,-10.59399342,-58.4130681
3.04,304,-0.183,-0.985,-0.142,-16.615782,2.4637194,16.4438946,79.17706602000001,-10.74869208,-58.36150188000001
3.05,305,-0.193,-0.983,-0.141,-17.761698000000006,1.4896908000000002,16.673077799999998,78.99371946,-10.914849900000002,-58.31566524000001
3.06,306,-0.2,-0.978,-0.136,-18.6784308,1.2032118,16.7303736,78.79318416,-11.07527814,-58.27555818
3.07,307,-0.205,-0.97,-0.129,-19.308684600000007,1.7188740000000002,16.615782,78.58691927999998,-11.23570638,-58.22399196
3.08,308,-0.207,-0.966,-0.131,-19.652459399999998,2.6356068,16.2147114,78.37492482,-11.39040504,-58.16669616
3.09,309,-0.213,-0.965,-0.133,-20.340009,2.86479,15.870936600000002,78.15720078000003,-11.545103700000002,-58.10940036
3.0999999999999996,310,-0.213,-0.965,-0.14300000000000002,-21.371333399999997,3.380452200000001,15.3552744,77.93374716000002,-11.688343199999998,-58.04637498
3.11,311,-0.214,-0.968,-0.152,-22.4026578,3.2658606,14.9542038,77.6931048,-11.831582699999998,-57.983349600000004
3.1199999999999997,312,-0.218,-0.97,-0.159,-23.0902074,2.9220858,14.896907999999998,77.44673286,-11.9748222,-57.92605379999999
3.13,313,-0.218,-0.973,-0.17,-24.1215318,2.4637194,14.7250206,77.18890176,-12.11233212,-57.86875799999999
3.1399999999999997,314,-0.22,-0.977,-0.16699999999999998,-24.637194,2.2345362,14.610429000000002,76.92534108,-12.25557162,-57.81719178
3.15,315,-0.226,-0.973,-0.154,-25.4393352,2.0626488000000003,14.32395,76.66178040000001,-12.39308154,-57.76562556
3.1599999999999997,316,-0.231,-0.968,-0.162,-26.1841806,2.8074942000000003,13.980175199999998,76.38676056,-12.52486188,-57.70832975999999
3.17,317,-0.23800000000000002,-0.966,-0.165,-26.1841806,3.8961144,13.8082878,76.10028156,-12.65091264,-57.63957480000001
3.1799999999999997,318,-0.237,-0.9640000000000001,-0.157,-26.5279554,5.72958,13.464512999999998,75.81380256,-12.77123382,-57.5536311
3.19,319,-0.23,-0.9640000000000001,-0.16699999999999998,-26.9863218,6.990087599999999,13.120738199999998,75.51586440000001,-12.88582542,-57.45049866
3.1999999999999997,320,-0.231,-0.963,-0.174,-27.4446882,6.589017,13.178034,75.21792624,-13.00041702,-57.35882538
3.21,321,-0.233,-0.9620000000000001,-0.17800000000000002,-27.788463,6.1879464,13.2353298,74.91425849999997,-13.120738199999998,-57.267152100000004
3.2199999999999998,322,-0.239,-0.965,-0.18100000000000002,-28.418716800000002,6.1879464,13.5791046,74.60486118,-13.24105938,-57.16974924
3.23,323,-0.24600000000000002,-0.968,-0.19,-28.934378999999996,6.2452422,13.8082878,74.28973427999998,-13.361380559999995,-57.07234638
3.2399999999999998,324,-0.262,-0.971,-0.188,-29.163562199999998,6.589017,13.9228794,73.96887779999999,-13.48170174,-56.96921394
3.25,325,-0.267,-0.971,-0.19699999999999998,-29.0489706,8.250595200000001,13.6936962,73.64802132,-13.596293340000004,-56.85462234000001
3.26,326,-0.276,-0.9690000000000001,-0.204,-28.762491600000004,8.9954406,13.5791046,73.32716484,-13.70515536,-56.72857157999999
3.27,327,-0.28600000000000003,-0.963,-0.205,-29.4500412,9.224623800000002,13.521808800000002,72.9948492,-13.81401738,-56.60252082
3.28,328,-0.289,-0.9520000000000001,-0.204,-29.736520199999998,9.8548776,13.521808800000002,72.66253356,-13.91714982,-56.465010899999996
3.29,329,-0.28800000000000003,-0.9420000000000001,-0.20800000000000002,-28.9916748,11.172680999999999,13.407217200000002,72.33021792000002,-14.020282259999998,-56.3217714
3.3,330,-0.289,-0.94,-0.221,-28.877083199999998,11.917526400000002,13.2353298,71.99790228,-14.11768512,-56.16707274
3.31,331,-0.293,-0.938,-0.221,-29.392745399999995,12.318597,13.407217200000002,71.65985706000002,-14.215087979999998,-56.00664450000001
3.32,332,-0.292,-0.934,-0.221,-29.793815999999996,13.2353298,13.9228794,71.31608226,-14.31249084,-55.83475709999999
3.33,333,-0.284,-0.9359999999999999,-0.23,-29.9084076,13.464512999999998,15.011499599999999,70.96657788,-14.41562328,-55.65141053999999
3.34,334,-0.28,-0.937,-0.23600000000000002,-30.137590799999998,13.178034,16.329303,70.61134392,-14.53021488,-55.47379356
3.3499999999999996,335,-0.27399999999999997,-0.938,-0.247,-30.65325300000001,12.776963400000001,17.4179232,70.25610996,-14.66199522,-55.29044700000001
3.36,336,-0.271,-0.9359999999999999,-0.255,-31.22621100000001,12.4331886,18.6784308,69.89514642,-14.799505140000004,-55.10710044
3.3699999999999997,337,-0.272,-0.935,-0.259,-31.741873200000004,12.318597,20.168121600000006,69.52272372,-14.954203799999998,-54.92375388000001
3.38,338,-0.275,-0.93,-0.262,-32.257535399999995,11.8602306,21.600516600000002,69.14457143999999,-15.12036162,-54.72894816
3.3899999999999997,339,-0.27899999999999997,-0.9229999999999999,-0.267,-32.830493399999995,11.688343199999998,22.91832,68.75496000000001,-15.2979786,-54.53414244
3.4,340,-0.28,-0.9129999999999999,-0.275,-33.5753388,12.5477802,23.892348600000002,68.36534856,-15.48132516,-54.32787755999999
3.4099999999999997,341,-0.28300000000000003,-0.912,-0.28600000000000003,-33.6899304,13.3499214,24.809081399999997,67.95854838,-15.6704013,-54.11015352
3.42,342,-0.28800000000000003,-0.9079999999999999,-0.29100000000000004,-33.8618178,13.750992000000002,25.7258142,67.55174819999999,-15.859477439999996,-53.88097032
3.4299999999999997,343,-0.293,-0.905,-0.28800000000000003,-33.74722620000001,13.8082878,26.356068,67.14494801999999,-16.060012739999998,-53.64605754
3.44,344,-0.293,-0.9,-0.29100000000000004,-33.518043,13.750992000000002,26.642546999999997,66.73814784,-16.254818460000006,-53.40541518
3.4499999999999997,345,-0.294,-0.895,-0.299,-33.403451399999994,14.037471,26.814434400000003,66.33134765999999,-16.45535376,-53.16477282
3.46,346,-0.297,-0.8909999999999999,-0.313,-32.8877892,15.126091199999998,26.69984280000001,65.92454748,-16.6444299,-52.9126713
3.4699999999999998,347,-0.305,-0.89,-0.325,-32.2002396,16.501190400000002,26.642546999999997,65.51774730000001,-16.82777646,-52.64338104000001
3.48,348,-0.317,-0.894,-0.33299999999999996,-31.5699858,18.3919518,26.814434400000003,65.11094712,-16.999663860000002,-52.35690204
3.4899999999999998,349,-0.321,-0.897,-0.34,-31.054323600000004,20.1108258,26.814434400000003,64.70414694,-17.16582168,-52.05323430000001
3.5,350,-0.316,-0.89,-0.349,-31.340802600000004,20.912967000000002,26.929026,64.29161718,-17.331979500000006,-51.7381074
3.51,351,-0.318,-0.877,-0.349,-30.8251404,21.0848544,27.6165756,63.87908742,-17.498137319999998,-51.41152134
3.52,352,-0.315,-0.87,-0.35100000000000003,-30.137590799999998,21.7151082,28.2468294,63.47228723999999,-17.66429514,-51.0792057
3.53,353,-0.305,-0.8690000000000001,-0.355,-29.392745399999995,22.0015872,28.361421000000004,63.06548706,-17.824723380000005,-50.74116048
3.54,354,-0.301,-0.8640000000000001,-0.35700000000000004,-28.418716800000002,23.0902074,28.2468294,62.67014604000001,-17.97942204,-50.39738568
3.55,355,-0.29600000000000004,-0.872,-0.376,-27.100913399999996,23.7204612,28.0176462,62.28626418,-18.12839112,-50.04215172
3.56,356,-0.28800000000000003,-0.871,-0.375,-26.2987722,23.663165399999997,27.903054600000004,61.90238232,-18.27163062,-49.68691776000001
3.57,357,-0.289,-0.863,-0.377,-24.1215318,22.0015872,28.1895336,61.54714836000001,-18.42632928,-49.34314296
3.58,358,-0.29,-0.862,-0.382,-20.5691922,21.199446,28.3041252,61.23202146,-18.58102794,-49.00509774
3.59,359,-0.29100000000000004,-0.861,-0.39799999999999996,-19.652459399999998,21.485925,27.6738714,60.91689456,-18.72426744,-48.66705252
3.5999999999999996,360,-0.292,-0.845,-0.401,-19.767051000000002,21.314037600000002,27.043617600000005,60.61322682,-18.86177736,-48.33473688
3.61,361,-0.28600000000000003,-0.821,-0.396,-18.506543399999998,20.168121600000006,26.8717302,60.31528866,-19.00501686,-48.00815082
3.6199999999999997,362,-0.27399999999999997,-0.8,-0.386,-15.9855282,19.652459399999998,26.642546999999997,60.04599840000001,-19.14252678,-47.69302392
3.63,363,-0.261,-0.7809999999999999,-0.375,-12.834259199999998,19.9389384,26.4706596,59.80535604000001,-19.280036700000004,-47.37216744000001
3.6399999999999997,364,-0.24600000000000002,-0.76,-0.365,-9.568398599999998,19.480572,26.4706596,59.60482074,-19.41754662,-47.05131096
3.65,365,-0.244,-0.752,-0.359,-7.0473834,18.506543399999998,26.4706596,59.42720376,-19.55505654,-46.74191363999999
3.6599999999999997,366,-0.235,-0.746,-0.35200000000000004,-4.4690724,17.8762896,26.2987722,59.27823468,-19.69256646,-46.43824590000001
3.67,367,-0.23199999999999998,-0.743,-0.34,-1.2032118,16.902261,26.0122932,59.16364308,-19.83580596,-46.14030774
3.6799999999999997,368,-0.22,-0.7390000000000001,-0.319,1.7188740000000002,14.9542038,25.668518399999996,59.08915854000001,-19.97904546,-45.86528790000001
3.69,369,-0.20600000000000002,-0.737,-0.317,3.6096353999999997,11.688343199999998,25.210151999999997,59.03759232,-20.139473700000003,-45.62464554
3.6999999999999997,370,-0.20800000000000002,-0.7390000000000001,-0.29600000000000004,5.958763200000001,7.5630456000000015,24.809081399999997,59.0433219,-20.30563152,-45.41838066
3.71,371,-0.20600000000000002,-0.7390000000000001,-0.27399999999999997,7.7922288,2.86479,24.350715,59.06624022,-20.49470766,-45.263682
3.7199999999999998,372,-0.198,-0.731,-0.262,7.8495246,-1.8334656000000005,23.835052800000003,59.10634728,-20.70670212,-45.1490904
3.73,373,-0.20199999999999999,-0.715,-0.248,7.448453999999999,-5.7868758000000025,23.319390600000002,59.15791349999999,-20.93588532,-45.07460586000001
3.7399999999999998,374,-0.233,-0.706,-0.23600000000000002,6.3025379999999975,-7.734933000000002,22.91832,59.20375014,-21.16506852,-45.02303963999999
3.75,375,-0.253,-0.705,-0.23,5.5003968,-8.250595200000001,23.3766864,59.25531636000001,-21.40571088,-44.977203
3.76,376,-0.247,-0.7,-0.22399999999999998,5.0993262,-8.8235532,24.522602399999997,59.28969384000001,-21.6578124,-44.92563678000001
3.77,377,-0.21899999999999997,-0.679,-0.213,4.5263682,-9.2819196,25.382039399999996,59.31834174,-21.915643499999998,-44.87407056
3.78,378,-0.165,-0.649,-0.198,4.297185,-9.0527364,24.9809688,59.34698964,-22.173474600000002,-44.82250434
3.79,379,-0.067,-0.633,-0.17800000000000002,6.2452422,-9.0527364,24.1215318,59.39282628,-22.42557612,-44.7766677
3.8,380,0.017,-0.633,-0.196,5.9014674000000005,-14.037471,24.4080108,59.46731082,-22.68340722,-44.7766677
3.81,381,0.063,-0.634,-0.205,7.3911582,-22.0015872,26.41336380000001,59.57044326000001,-23.00999328,-44.83969308
3.82,382,0.077,-0.636,-0.198,9.7975818,-32.945085,29.220858000000003,59.7308715,-23.41679346,-44.98866216
3.83,383,0.048,-0.617,-0.17800000000000002,11.2299768,-38.8465524,30.882436199999997,59.93140680000001,-23.869430280000003,-45.18919746
3.84,384,0.016,-0.586,-0.168,12.2040054,-42.1697088,30.7105488,60.16059,-24.32779668,-45.42411024
3.8499999999999996,385,-0.015,-0.547,-0.166,13.0061466,-44.117765999999996,29.392745399999995,60.41269152,-24.7804335,-45.68767092
3.86,386,-0.037000000000000005,-0.518,-0.166,15.3552744,-46.0658232,27.960350399999996,60.69917052,-25.23307032,-45.98560908
3.8699999999999997,387,-0.04,-0.506,-0.182,17.4179232,-48.987909,26.7571386,61.02575657999999,-25.68570714,-46.31792471999999
3.88,388,-0.043,-0.493,-0.203,18.8503182,-53.22779820000001,25.4393352,61.3924497,-26.14407354,-46.70180658
3.8899999999999997,389,-0.055,-0.488,-0.214,20.5118964,-58.38442020000001,23.892348600000002,61.810709040000006,-26.613899100000005,-47.14871382
3.9,390,-0.068,-0.49,-0.23399999999999999,22.0015872,-63.08267579999999,21.886995600000002,62.27480502,-27.072265500000004,-47.65864644
3.9099999999999997,391,-0.057,-0.486,-0.254,22.86102420000001,-65.8328742,19.8816426,62.7675489,-27.5306319,-48.2144157
3.92,392,-0.028999999999999998,-0.48100000000000004,-0.268,24.4653066,-68.2392978,17.7044022,63.30612942000001,-27.97180956,-48.81029202000001
3.9299999999999997,393,-0.003,-0.48100000000000004,-0.268,27.501984000000004,-71.9635248,16.157415599999997,63.90200574000001,-28.41298722,-49.46346414
3.94,394,0.015,-0.48700000000000004,-0.244,31.856464799999998,-75.4012728,14.9542038,64.5723666,-28.848435300000002,-50.1624729
3.9499999999999997,395,0.03,-0.474,-0.22399999999999998,34.4920716,-76.4325972,12.891555,65.28283452000001,-29.24950590000001,-50.89012956
3.96,396,0.027000000000000003,-0.45799999999999996,-0.251,36.669312,-75.8596392,9.8548776,66.03340949999999,-29.627658180000005,-51.63497496
3.9699999999999998,397,-0.022000000000000002,-0.535,-0.275,39.5913978,-74.3699484,3.380452200000001,66.82409154000001,-29.92559634,-52.40273868000001
3.98,398,-0.11,-0.711,-0.305,42.398892,-75.45856859999998,-6.1879464,67.67779895999999,-30.13186122,-53.22779820000001
3.9899999999999998,399,-0.19699999999999998,-0.8540000000000001,-0.361,38.38818600000001,-74.48454,-13.464512999999998,68.50858806,-30.25791198,-54.08150562
4.0,400,-0.26899999999999996,-0.9109999999999999,-0.478,28.074942,-64.17129600000001,-17.475219,69.17894892,-30.298019040000003,-54.83781018
4.01,401,-0.304,-0.9440000000000001,-0.5820000000000001,15.928232399999999,-52.8840234,-17.9908812,69.6716928,-30.298019040000003,-55.47952314000001
4.02,402,-0.311,-0.973,-0.63,3.5523396000000003,-44.690723999999996,-15.469866,69.9868197,-30.29228946,-56.02956282
4.03,403,-0.309,-0.978,-0.654,-7.734933000000002,-41.76863820000001,-9.5111028,70.16443668000001,-30.33239652,-56.5223067
4.04,404,-0.285,-0.91,-0.586,-19.480572,-39.47680620000001,0.8594370000000001,70.18735500000001,-30.46417686,-56.9520252
4.05,405,-0.19699999999999998,-0.815,-0.556,-27.7311672,-41.5967508,16.386598799999998,70.09568172,-30.73346712,-57.33017748
4.06,406,-0.049,-0.79,-0.584,-34.60666320000001,-41.883229799999995,28.6479,69.9295239,-31.134537720000004,-57.67968186
4.07,407,0.126,-0.813,-0.626,-41.3102718,-44.9199072,35.5806918,69.7003407,-31.61582244,-58.03491582
4.08,408,0.23600000000000002,-0.8290000000000001,-0.5489999999999999,-46.1804148,-52.2537696,42.1697088,69.45396876,-32.177321279999994,-58.44744558
4.09,409,0.251,-0.8690000000000001,-0.525,-48.5868384,-66.11935319999999,52.712136,69.25343346,-32.8877892,-58.96883736
4.1,410,0.204,-0.934,-0.562,-49.04520479999999,-84.7404882,65.7182826,69.13311228,-33.76441494,-59.63919822
4.109999999999999,411,0.127,-0.9940000000000001,-0.408,-48.0138804,-99.694692,78.5525418,69.11019395999999,-34.82438724000001,-60.43560984
4.12,412,0.071,-0.9,-0.3720000000000001,-47.6128098,-114.13323359999998,93.0483792,69.17321934,-36.0677061,-61.34661306
4.13,413,-0.095,-0.777,-0.344,-45.3209778,-125.3632104,107.6015124,69.32791800000001,-37.47718278000001,-62.34355998
4.14,414,-0.366,-0.706,-0.32899999999999996,-39.6486936,-127.94152140000001,117.8001648,69.56283078,-38.9897919,-63.35196606000001
4.1499999999999995,415,-0.698,-0.6990000000000001,-0.34700000000000003,-35.695283399999994,-130.8636072,125.82157679999999,69.88368726,-40.58834472,-64.38902004
4.16,416,-1.115,-0.7390000000000001,-0.363,-34.7212548,-128.5144794,134.53053839999998,70.22173248,-42.24419334,-65.39742612
4.17,417,-1.511,-0.736,-0.3670000000000001,-34.950438,-123.0713784,145.0729656,70.51967064,-43.98598566,-66.32561808
4.18,418,-1.79,-0.69,-0.342,-34.0337052,-115.6802202,158.2509996,70.76604258,-45.81945126,-67.13921844000001
4.1899999999999995,419,-1.9069999999999998,-0.603,-0.271,-30.137590799999998,-107.08585020000001,175.09596480000005,70.94938914,-47.79042678,-67.79239056
4.2,420,-1.912,-0.5720000000000001,-0.221,-25.2674478,-102.4448904,191.654451,71.11554696,-49.89891222,-68.33097108000001
4.21,421,-1.827,-0.544,-0.16,-18.907614,-97.689339,203.05631519999997,71.28743435999998,-52.09907094,-68.77214874
4.22,422,-1.712,-0.521,-0.126,-12.834259199999998,-92.7619002,207.697275,71.47078092000002,-54.32214798,-69.15030102
4.2299999999999995,423,-1.5319999999999998,-0.45899999999999996,-0.098,-9.8548776,-88.9230816,206.26488,71.6770458,-56.5223067,-69.50553498000001
4.24,424,-1.44,-0.37,-0.035,-5.0993262,-88.17823620000001,200.99366640000002,71.98644312,-58.67089920000001,-69.91233516
4.25,425,-1.348,-0.23,-0.061,-0.286479,-86.91772859999998,193.7743956,72.41616162,-60.75073674,-70.39361987999997
4.26,426,-1.494,-0.298,-0.064,9.9121734,-87.94905299999998,182.3725314,73.09798164,-62.71598268,-71.03533284
4.27,427,-1.594,-0.188,-0.10300000000000001,11.172680999999999,-75.2293854,184.205997,73.625103,-64.65831030000001,-71.48224008000003
4.28,428,-1.704,0.0,-0.065,10.5424272,-53.9726436,194.0608746,73.69385796,-66.64647456,-71.43067386
4.29,429,-1.64,0.146,0.064,16.7876694,-56.5509546,202.0249908,73.83709746000002,-68.71485294,-71.38483722
4.3,430,-1.661,0.165,0.069,15.068795399999999,-43.029145799999995,200.9363706,73.60791426,-70.73739468,-70.97230746
4.31,431,-1.7,0.171,-0.023,12.834259199999998,-27.501984000000004,198.07158059999998,72.83442096,-72.69691104,-70.00973802
4.32,432,-1.6569999999999998,0.204,0.011000000000000001,18.1054728,-20.454600600000006,194.80572,71.68850496,-74.59340202,-68.62317966
4.33,433,-1.608,0.20800000000000002,0.071,24.0069402,-17.6471064,188.84695680000002,70.22746206,-76.41540846000002,-66.85846902
4.34,434,-1.5659999999999998,0.213,0.07400000000000001,28.074942,-17.3606274,182.487123,68.41691478,-78.16865994000003,-64.69841736
4.35,435,-1.588,0.239,0.068,34.1482968,-13.8082878,177.4450926,65.90735873999999,-79.84169729999998,-61.78779072
4.36,436,-1.506,0.302,0.064,38.10170700000001,-8.9954406,170.2258218,62.33210082,-81.40014306,-57.76562556
4.37,437,-1.374,0.317,0.06,41.0810886,-9.9694692,156.70401299999997,57.79427346,-82.79243100000002,-52.75797264000001
4.38,438,-1.262,0.309,0.063,40.90920120000001,-17.131444199999994,143.4113874,52.38554994,-84.05293859999998,-46.89088271999999
4.39,439,-1.17,0.255,0.071,37.586044799999996,-25.8977016,132.41059380000002,45.7220484,-85.20458418000003,-39.80912184
4.3999999999999995,440,-1.13,0.19399999999999998,0.076,32.4867186,-35.3515086,122.49842040000001,36.99016848,-86.27601564,-30.71627838
4.41,441,-1.062,0.226,0.094,26.69984280000001,-42.91455420000001,114.01864199999999,24.08715432,-87.21566676,-17.51532606
4.42,442,-1.053,0.275,0.113,19.079501399999998,-46.0658232,107.8879914,2.4064236,-87.91467551999996,4.3831287
4.43,443,-1.1179999999999999,0.265,0.135,15.4125702,-46.5814854,99.80928359999999,-28.58487462,-88.14958829999998,35.55777348
4.4399999999999995,444,-1.119,0.327,0.153,13.178034,-48.987909,91.27220940000001,-57.2385042,-87.8917572,64.3718313
4.45,445,-1.091,0.33299999999999996,0.113,13.3499214,-53.0559108,82.5632478,-76.56437754,-87.34171752,83.86386246
4.46,446,-1.14,0.381,0.06,13.120738199999998,-57.1812084,73.6823988,-88.96318865999999,-86.69427498,96.41737224
4.47,447,-1.015,0.4370000000000001,0.021,14.381245800000002,-57.9833496,64.4004792,-97.31118672,-86.04110286,104.9372577
4.4799999999999995,448,-0.95,0.419,0.004,19.0222056,-57.9833496,55.7488134,-103.36162319999998,-85.41084906,111.20541822
4.49,449,-0.9990000000000001,0.39399999999999996,-0.03,24.350715,-57.2958,49.61816279999999,-107.96247594,-84.79778400000002,116.0812908
4.5,450,-0.856,0.455,-0.051,26.4706596,-56.149884,47.3836266,-111.4116831,-84.17325978,119.82843612000002
4.51,451,-0.9179999999999999,0.345,-0.077,30.7678446,-49.2170922,39.820581,-113.90977998,-83.63467926,122.65884864
4.52,452,-0.828,0.4370000000000001,-0.023,29.8511118,-50.3630082,37.013086799999996,-116.17869366,-83.1075579,125.26007796
4.53,453,-0.878,0.397,-0.039,30.93973200000001,-44.34694920000001,29.793815999999996,-117.94340430000001,-82.66065066,127.35710424
4.54,454,-0.853,0.395,0.001,32.0283522,-46.925260200000004,23.777757,-119.85135444,-82.24239132,129.61455876
4.55,455,-0.8590000000000001,0.375,0.005,31.455394199999997,-47.326330799999994,17.0168526,-121.73065668,-81.85850946000002,131.84336538
4.56,456,-0.868,0.369,0.008,32.257535399999995,-46.1804148,9.740286,-123.70736178,-81.54911214,134.18103402
4.57,457,-0.872,0.35700000000000004,0.032,33.8618178,-43.602103799999995,2.6356068,-125.63823024,-81.29128104,136.49005476
4.58,458,-0.904,0.345,0.073,35.46610020000001,-41.5967508,-4.4690724,-127.60920575999998,-81.09647532,138.85064172
4.59,459,-0.9159999999999999,0.325,0.115,35.17962120000001,-37.6433406,-11.917526400000002,-129.59164044,-80.97042456,141.22841742
4.6,460,-0.9329999999999999,0.284,0.14300000000000002,34.8358464,-33.804522,-18.7357266,-131.58553428,-80.89594002,143.6119227
4.61,461,-0.965,0.243,0.156,33.0596766,-31.111619399999995,-25.152856200000002,-133.74558594,-80.88448086000002,146.13866748
4.62,462,-0.9890000000000001,0.195,0.175,29.335449600000004,-28.7051958,-30.194886600000004,-136.0488771,-80.90739918,148.77427428
4.63,463,-1.006,0.17300000000000001,0.17800000000000002,26.4706596,-26.69984280000001,-33.403451399999994,-138.44957112000003,-80.94750624,151.48436562
4.64,464,-1.0270000000000001,0.156,0.175,24.1788276,-24.694489800000003,-35.0077338,-140.89610178,-80.99334288,154.2116457
4.6499999999999995,465,-1.051,0.141,0.192,20.05353,-24.809081399999997,-36.2109456,-143.4686832,-81.02772036,157.02486947999995
4.66,466,-1.057,0.11599999999999999,0.187,17.3606274,-23.319390600000002,-37.013086799999996,-146.06991252,-81.05636826,159.84382284
4.67,467,-1.0590000000000002,0.10300000000000001,0.19699999999999998,15.527161800000002,-23.9496444,-36.7266078,-148.71124890000004,-81.06209784,162.67423535999995
4.68,468,-1.04,0.09699999999999999,0.205,11.802934800000001,-23.3766864,-36.6120162,-151.35831486,-81.04490909999998,165.47599998
4.6899999999999995,469,-1.024,0.095,0.215,9.9121734,-25.152856200000002,-36.38283300000001,-154.04548788,-80.99907246000002,168.30641250000005
4.7,470,-1.021,0.068,0.223,7.6203414,-27.960350399999996,-36.669312,-156.83006376,-80.89594002,171.20557997999995
4.71,471,-1.05,0.065,0.253,3.3231564,-28.6479,-35.809875,-159.53442552,-80.76988926,173.98442628
4.72,472,-1.034,0.049,0.264,0.9167328000000001,-26.69984280000001,-35.4088044,-162.12419568,-80.63810892000002,176.62003308
4.7299999999999995,473,-1.074,0.052000000000000005,0.271,-3.6669312000000014,-22.4026578,-34.8931422,-164.57645592,-80.5292469,179.07229332000003
4.74,474,-1.0959999999999999,0.061,0.27899999999999997,-5.3285094000000015,-22.7464326,-33.403451399999994,-166.90839498,-80.39746656,-178.60819734
4.75,475,-1.112,0.055,0.29,-7.161975,-23.7204612,-31.913760600000003,-169.12001286,-80.22557916000002,-176.44241609999997
4.76,476,-1.1179999999999999,0.076,0.313,-10.3705398,-22.9756158,-31.627281600000003,-171.25714620000005,-80.05369175999998,-174.37403772
4.77,477,-1.133,0.102,0.34299999999999997,-12.7196676,-22.2880662,-32.257535399999995,-173.37709080000005,-79.88180436,-172.35149598
4.78,478,-1.15,0.11199999999999999,0.359,-12.2040054,-21.4286292,-32.7731976,-175.4397396,-79.6984578,-170.37479088
4.79,479,-1.159,0.125,0.369,-10.4851314,-21.5432208,-31.627281600000003,-177.35914889999995,-79.50938166,-168.5355957
4.8,480,-1.135,0.11,0.371,-7.5057497999999985,-22.7464326,-30.366774000000003,-179.0780229,-79.28019846,-166.85682876
4.81,481,-1.105,0.087,0.364,-4.1825934,-23.204798999999998,-28.361421000000004,179.36450190000005,-79.05101526000001,-165.32130132
4.82,482,-1.044,0.044000000000000004,0.35100000000000003,-0.9740286,-19.9389384,-26.69984280000001,177.99513227999995,-78.85047996,-163.92901338
4.83,483,-0.987,0.012,0.33799999999999997,1.7188740000000002,-15.011499599999999,-25.668518399999996,176.74035426,-78.69005172,-162.63412830000001
4.84,484,-0.981,-0.009000000000000001,0.326,2.9793816000000004,-11.2299768,-24.809081399999997,175.57151994,-78.56400096,-161.40799818
4.85,485,-0.992,-0.027000000000000003,0.315,3.380452200000001,-3.7242269999999995,-22.9756158,174.4943589,-78.48378684000002,-160.27354134
4.86,486,-1.016,-0.021,0.31,3.8388186,4.2398892,-20.7983754,173.50314156,-78.50670516,-159.2250282
4.87,487,-1.047,-0.016,0.294,4.7555514,11.2872726,-19.308684600000007,172.55776086,-78.59837844,-158.21089253999997
4.88,488,-1.058,-0.004,0.27699999999999997,5.6722842,16.7303736,-17.589810600000003,171.65248721999995,-78.73588836,-157.23113436
4.89,489,-1.072,0.017,0.259,6.9327918,18.793022399999998,-15.9855282,170.80450937999996,-78.90204618,-156.29721282
4.8999999999999995,490,-1.065,0.028999999999999998,0.243,8.8235532,19.4232762,-14.8396122,170.04247524,-79.06247442,-155.43204624
4.91,491,-1.037,0.026000000000000002,0.22699999999999998,11.1153852,19.7097552,-13.750992000000002,169.29190026,-79.23436182,-154.55542050000003
4.92,492,-0.998,0.012,0.187,12.6623718,17.9908812,-13.0634424,168.58143234,-79.38906048,-153.70171308000005
4.93,493,-0.956,0.013999999999999999,0.16399999999999998,12.032118,14.209358400000001,-12.261301199999998,167.91680105999995,-79.50365208,-152.90530146
4.9399999999999995,494,-0.955,0.009000000000000001,0.17300000000000001,10.599723,12.2040054,-12.4904844,167.23498104,-79.59532535999998,-152.10888984
4.95,495,-0.953,0.001,0.17600000000000002,9.682990199999999,13.980175199999998,-13.5791046,166.49013564,-79.70418738,-151.24945284
4.96,496,-0.948,-0.011000000000000001,0.182,9.1100322,18.449247600000003,-14.266654199999998,165.59632116,-79.84742688,-150.24677634
4.97,497,-0.972,-0.01,0.201,8.9954406,19.8243468,-14.266654199999998,164.65094046,-80.00212554,-149.1982632
4.9799999999999995,498,-0.992,-0.01,0.21600000000000005,9.8548776,19.9962342,-13.8655836,163.70555976,-80.1568242,-148.1382909
4.99,499,-1.006,-0.011000000000000001,0.226,10.5424272,23.3766864,-13.8082878,162.67996494000005,-80.34590034,-146.99810448
5.0,500,-1.02,0.005,0.243,11.2299768,25.382039399999996,-14.438541599999999,161.60853348,-80.53497648,-145.79489268
5.01,501,-1.013,0.006999999999999999,0.23199999999999998,12.2040054,28.0176462,-15.4125702,160.33656672,-80.75270051999998,-144.385416
5.02,502,-0.997,-0.006,0.203,11.0580894,30.252182399999995,-16.386598799999998,158.88698298000003,-80.98188372,-142.80405192
5.03,503,-0.9990000000000001,-0.008,0.20199999999999999,10.7716104,28.81978740000001,-17.18874,157.33999638,-81.18241902,-141.13101456
5.04,504,-0.987,-0.016,0.188,11.1153852,26.929026,-18.048177,155.71852524000005,-81.360036,-139.38349266
5.05,505,-0.9470000000000001,-0.028999999999999998,0.163,8.9381448,25.7258142,-18.9649098,154.02256956000005,-81.51473466,-137.57867496
5.06,506,-0.9570000000000001,-0.022000000000000002,0.16899999999999998,6.703608600000001,22.7464326,-19.079501399999998,152.29223639999995,-81.63505583999998,-135.76239809999998
5.07,507,-0.9740000000000001,-0.027000000000000003,0.18600000000000005,6.130650599999999,19.9389384,-19.308684600000007,150.57909198,-81.72099954000002,-133.96903956
5.08,508,-0.9740000000000001,-0.040999999999999995,0.16699999999999998,4.5263682,20.6837838,-20.340009,148.72843763999995,-81.79548408,-132.06108942
5.09,509,-0.9890000000000001,-0.059000000000000004,0.145,0.1718874,22.1161788,-20.7410796,146.7345438,-81.8756982,-130.04427726
5.1,510,-0.997,-0.079,0.12,-2.6356068,20.1108258,-20.05353,144.77502744,-81.93299400000002,-128.09622006
5.11,511,-0.9940000000000001,-0.095,0.096,-6.589017,18.048177,-19.079501399999998,142.91291394,-81.96737148,-126.28567278
5.12,512,-0.978,-0.105,0.07200000000000001,-11.1153852,17.303331600000003,-17.761698000000006,141.09663708,-81.99601937999998,-124.56679878
5.13,513,-0.9640000000000001,-0.10800000000000001,0.055999999999999994,-14.667724800000002,17.0741484,-16.272007199999994,139.32046728,-82.02466728,-122.93386848
5.14,514,-0.9470000000000001,-0.107,0.048,-17.18874,17.18874,-14.896907999999998,137.58440454,-82.05904475999998,-121.3525044
5.1499999999999995,515,-0.9309999999999999,-0.11,0.040999999999999995,-18.8503182,17.131444199999994,-13.0634424,135.85407138,-82.09915182,-119.8055178
5.16,516,-0.919,-0.10800000000000001,0.04,-19.767051000000002,15.297978599999999,-11.5737516,134.3300031,-82.12779972,-118.47052566
5.17,517,-0.924,-0.109,0.035,-19.5378678,8.307891,-9.3392154,133.26430122,-82.12207014,-117.5996295
5.18,518,-0.9590000000000001,-0.095,0.057999999999999996,-18.907614,-1.4896908000000002,-6.990087599999999,132.82312356,-82.05904475999998,-117.34752798000002
5.1899999999999995,519,-0.996,-0.073,0.092,-17.589810600000003,-8.4224826,-5.3285094000000015,132.83458272,-81.96164189999998,-117.53660412
5.2,520,-1.021,-0.052000000000000005,0.121,-16.615782,-9.9121734,-4.6982555999999995,133.02938844,-81.86423904,-117.90329724
5.21,521,-1.047,-0.035,0.11900000000000001,-16.2147114,-7.6776372,-4.8701430000000006,133.02938844,-81.77256575999998,-118.06372548000002
5.22,522,-1.025,-0.057999999999999996,0.059000000000000004,-15.9855282,0.11459160000000004,-6.0733548,132.58821078,-81.73245870000002,-117.78297605999998
5.2299999999999995,523,-0.9159999999999999,-0.191,-0.111,-26.356068,12.1467096,-7.7922288,131.38499898,-81.75537702,-116.84332494
5.24,524,-0.858,-0.239,-0.069,-48.414951,8.193299399999999,-6.1879464,130.24481256,-81.76110659999998,-116.18442324
5.25,525,-0.8490000000000001,-0.159,0.062,-40.4508348,-16.042824000000003,-1.7188740000000002,130.5771282,-81.64078542,-116.93499821999998
5.26,526,-0.815,-0.14400000000000002,0.073,-26.642546999999997,-20.05353,1.6042823999999998,131.39072856,-81.51473466,-118.029348
5.27,527,-0.82,-0.078,0.06,-28.877083199999998,-14.4958374,2.7501984,131.94649782,-81.44025012,-118.888785
5.28,528,-0.925,0.013999999999999999,0.096,-27.501984000000004,-6.875496000000001,1.3750992,132.08973731999998,-81.40014306,-119.31277392
5.29,529,-1.047,0.066,0.15,-17.0168526,3.1512689999999997,-0.6302538000000001,131.75169209999999,-81.4173318,-119.14661609999999
5.3,530,-1.085,0.033,0.13,-12.605075999999999,12.891555,-2.4064236,130.99538754,-81.5032755,-118.51063272000002
5.31,531,-1.041,-0.040999999999999995,0.076,-15.4125702,15.2406828,-3.8961144,129.92395607999998,-81.57776004,-117.58817034
5.32,532,-0.981,-0.1,0.043,-19.079501399999998,12.4331886,-5.0993262,128.89836126,-81.6178671,-116.75165166
5.33,533,-0.94,-0.102,0.035,-21.027558600000006,2.7501984,-5.6722842,128.31967368,-81.5892192,-116.38495854
5.34,534,-0.9329999999999999,-0.08800000000000001,0.053,-19.308684600000007,-5.2139178,-5.5003968,128.18216376,-81.51473466,-116.44225434
5.35,535,-0.946,-0.073,0.084,-16.157415599999997,-10.1986524,-5.3858052,128.36551032,-81.41160221999998,-116.79175872
5.36,536,-0.973,-0.063,0.11800000000000001,-12.891555,-12.776963400000001,-5.5576926,128.6577189,-81.29128104,-117.21574764
5.37,537,-1.015,-0.053,0.153,-10.4851314,-12.891555,-5.844171599999999,128.95565706,-81.1595007,-117.62254782
5.38,538,-1.036,-0.05,0.171,-8.9381448,-9.9121734,-6.130650599999999,129.10462614,-81.05063868,-117.86319018000002
5.39,539,-1.037,-0.066,0.16899999999999998,-8.7089616,-5.72958,-6.1879464,129.04733034,-80.96469498,-117.89756766
5.3999999999999995,540,-1.023,-0.099,0.146,-10.026765,-2.3491277999999998,-5.5576926,128.92700915999998,-80.90739918,-117.87464934
5.41,541,-1.003,-0.12,0.111,-14.209358400000001,0.0,-4.583664,128.61761184,-80.86729212,-117.70849152
5.42,542,-0.981,-0.122,0.087,-17.303331600000003,-0.1718874,-3.8388186,128.3139441,-80.83864422,-117.58244075999998
5.43,543,-0.958,-0.11800000000000001,0.078,-19.308684600000007,-0.5156622000000001,-3.4377480000000005,128.02746509999997,-80.80999632,-117.49076748
5.4399999999999995,544,-0.935,-0.113,0.079,-19.9389384,-0.7448454000000001,-3.380452200000001,127.75244526000002,-80.77561884,-117.41628294
5.45,545,-0.9179999999999999,-0.106,0.081,-19.480572,-1.5469866,-3.4377480000000005,127.50607332,-80.74697094,-117.3704463
5.46,546,-0.914,-0.096,0.085,-17.8762896,-3.0366774,-3.2085647999999996,127.36283382,-80.70113429999998,-117.41055336
5.47,547,-0.9229999999999999,-0.086,0.08900000000000001,-15.527161800000002,-5.0993262,-2.8074942000000003,127.35710424,-80.64383849999999,-117.55952244
5.4799999999999995,548,-0.94,-0.08,0.095,-12.776963400000001,-7.3911582,-2.1199446,127.50607332,-80.58081312,-117.84027186
5.49,549,-0.963,-0.075,0.098,-8.250595200000001,-10.4278356,-0.8594370000000001,127.87849602,-80.51205816,-118.29863826
5.5,550,-0.982,-0.07,0.1,-5.1566220000000005,-11.8602306,0.0,128.44572444,-80.46049194,-118.92889206
5.51,551,-1.002,-0.065,0.10300000000000001,-2.0626488000000003,-12.261301199999998,0.4583664000000001,128.99576412,-80.3860074,-119.50185006
5.52,552,-1.012,-0.063,0.11199999999999999,0.6875496,-11.5164558,0.5156622000000001,129.52861506,-80.31152286,-120.04043058
5.53,553,-1.014,-0.067,0.126,3.5523396000000003,-9.5111028,0.1718874,129.98698146,-80.25422705999998,-120.4644195
5.54,554,-1.01,-0.07400000000000001,0.139,5.9014674000000005,-6.5317212,-0.40107059999999994,130.30783793999998,-80.20839042,-120.72798018
5.55,555,-1.008,-0.078,0.151,7.7922288,-3.6096353999999997,-0.7448454000000001,130.6917198,-80.18547209999998,-121.03164792
5.56,556,-1.006,-0.084,0.161,9.224623800000002,-1.3178034,-0.8021411999999999,130.80631139999997,-80.16828336,-121.04883665999998
5.57,557,-1.01,-0.087,0.16699999999999998,10.3705398,1.0313244000000001,-0.7448454000000001,130.82922972,-80.17401294,-120.96862254
5.58,558,-1.013,-0.08800000000000001,0.172,10.943497800000001,2.2345362,-0.572958,130.81204098,-80.18547209999998,-120.8368422
5.59,559,-1.018,-0.08800000000000001,0.171,11.401864199999999,3.0939732,-0.286479,130.7776635,-80.20266084,-120.68214354
5.6,560,-1.02,-0.086,0.166,11.45916,3.380452200000001,-0.11459160000000004,130.8922551,-80.22557916000002,-120.67641396000002
5.61,561,-1.02,-0.081,0.16699999999999998,11.2299768,3.4950437999999995,0.0,130.84641846,-80.24849748,-120.51598572
5.62,562,-1.014,-0.079,0.166,10.886202,3.2085647999999996,-0.057295800000000015,130.80631139999997,-80.2714158,-120.36128706000002
5.63,563,-1.0090000000000001,-0.073,0.16399999999999998,10.313244000000001,2.8074942000000003,-0.3437748,130.76620434,-80.28860454,-120.21804756
5.64,564,-1.004,-0.071,0.161,9.9694692,2.4637194,-0.9167328000000001,130.71463812,-80.29433412,-120.06334889999998
5.6499999999999995,565,-1.0,-0.071,0.159,9.396511199999999,2.6356068,-1.3178034,130.82922972,-80.31152286,-120.07480806
5.66,566,-0.998,-0.077,0.156,8.7089616,2.86479,-1.6615782,130.72036770000003,-80.31725244,-119.88000234
5.67,567,-0.996,-0.086,0.154,7.906820400000001,2.6929026,-1.7188740000000002,130.61150568,-80.32298202,-119.68519662
5.68,568,-0.9940000000000001,-0.09300000000000001,0.14800000000000002,7.5630456000000015,1.9480572,-1.5469866,130.53702114,-80.32871159999998,-119.53049795999998
5.6899999999999995,569,-0.99,-0.098,0.146,7.2765666,1.3750992,-1.145916,130.50264366000002,-80.32871159999998,-119.42163594000002
5.7,570,-0.988,-0.102,0.14300000000000002,6.990087599999999,1.6042823999999998,-0.6302538000000001,130.61150568,-80.33444118,-119.45601342
5.71,571,-0.9890000000000001,-0.10400000000000001,0.136,6.9327918,2.1199446,0.0,130.58285777999998,-80.34590034,-119.35861056000002
5.72,572,-0.992,-0.106,0.131,6.9327918,2.4637194,0.7448454000000001,130.57139862000002,-80.36881866,-119.27266686
5.7299999999999995,573,-0.9940000000000001,-0.10800000000000001,0.125,6.8182002000000015,3.0939732,1.6042823999999998,130.55993945999998,-80.40319614,-119.19245274
5.74,574,-0.993,-0.106,0.12300000000000001,6.3025379999999975,3.380452200000001,2.2345362,130.55420988,-80.44330319999997,-119.12369778
5.75,575,-0.9940000000000001,-0.10300000000000001,0.121,5.9014674000000005,3.3231564,2.9220858,130.64015358,-80.500599,-119.14661609999999
5.76,576,-0.993,-0.096,0.121,5.6722842,3.3231564,3.5523396000000003,130.68599022,-80.54643564,-119.13515694
5.77,577,-0.992,-0.091,0.121,5.3285094000000015,3.380452200000001,3.9534102,130.74328602,-80.59800186,-119.14088652
5.78,578,-0.99,-0.086,0.12,4.8701430000000006,3.4377480000000005,4.1825934,130.80058182,-80.65529766,-119.14661609999999
5.79,579,-0.99,-0.08199999999999999,0.12,4.5263682,3.4377480000000005,4.2398892,130.85787762,-80.71259346,-119.15807526
5.8,580,-0.991,-0.078,0.11800000000000001,4.297185,3.0366774,4.2398892,131.04695376,-80.78134842,-119.30704434
5.81,581,-0.993,-0.075,0.11699999999999999,3.8388186,2.4637194,4.2398892,131.14435662,-80.82718506,-119.36434014
5.82,582,-0.9940000000000001,-0.07200000000000001,0.11599999999999999,3.4950437999999995,1.8334656000000005,4.0680017999999984,131.25894822,-80.87302170000002,-119.44455426000002
5.83,583,-0.9940000000000001,-0.071,0.11800000000000001,3.380452200000001,1.2605076000000002,3.8961144,131.39645814,-80.90739918,-119.5476867
5.84,584,-0.992,-0.069,0.11800000000000001,3.380452200000001,0.7448454000000001,3.7242269999999995,131.54542722,-80.94177666,-119.66227830000001
5.85,585,-0.991,-0.069,0.121,3.380452200000001,0.40107059999999994,3.5523396000000003,131.93503866,-80.99907246000002,-120.01751226
5.86,586,-0.988,-0.065,0.12,3.1512689999999997,0.1718874,3.2658606,132.0954669,-81.02772036,-120.1492926
5.87,587,-0.9890000000000001,-0.062,0.122,3.2085647999999996,-0.11459160000000004,2.8074942000000003,132.25589513999998,-81.04490909999998,-120.27534336
5.88,588,-0.9890000000000001,-0.059000000000000004,0.124,3.2658606,-0.3437748,2.2345362,132.39913464,-81.06209784,-120.38993496
5.89,589,-0.991,-0.057,0.124,3.3231564,-0.3437748,1.6615782,132.51945582000002,-81.07355700000002,-120.47587866
5.8999999999999995,590,-0.99,-0.057999999999999996,0.125,3.3231564,-0.057295800000000015,1.0886202,133.09241382,-81.13658238,-121.01445918
5.91,591,-0.991,-0.059000000000000004,0.126,3.1512689999999997,0.057295800000000015,0.4583664000000001,133.13825046,-81.13658238,-121.02591834
5.92,592,-0.993,-0.059000000000000004,0.127,3.0366774,-0.057295800000000015,-0.057295800000000015,133.16689836,-81.13658238,-121.02018876
5.93,593,-0.993,-0.06,0.129,2.86479,-0.1718874,-0.572958,133.17262793999998,-81.1308528,-121.00300002
5.9399999999999995,594,-0.9940000000000001,-0.063,0.131,2.7501984,-0.2291832000000001,-1.0313244000000001,133.16689836,-81.11939364,-120.96289296
5.95,595,-0.993,-0.065,0.133,2.5210152000000003,-0.286479,-1.4896908000000002,133.58515770000002,-81.14231196,-121.3525044
5.96,596,-0.9940000000000001,-0.065,0.133,2.3491277999999998,-0.1718874,-1.8334656000000005,133.53359147999998,-81.12512322,-121.27801986
5.97,597,-0.992,-0.067,0.134,2.2345362,-0.1718874,-2.1199446,133.47056609999998,-81.10793448000003,-121.18634658
5.9799999999999995,598,-0.993,-0.07,0.135,2.0626488000000003,-0.3437748,-2.2345362,133.40754072,-81.09074574,-121.10040288
5.99,599,-0.995,-0.07200000000000001,0.135,1.9480572,-0.40107059999999994,-2.3491277999999998,133.34451534,-81.06782741999999,-121.01445918
6.0,600,-0.995,-0.073,0.13699999999999998,1.8334656000000005,-0.4583664000000001,-2.1772404,133.68256056,-81.06782741999999,-121.33531566
6.01,601,-0.995,-0.076,0.139,1.6615782,-0.40107059999999994,-2.1772404,133.61953518,-81.05063868,-121.25510154
6.02,602,-0.996,-0.078,0.141,1.3750992,-0.057295800000000015,-2.0053530000000004,133.55078022,-81.03344994,-121.16915784
6.03,603,-0.996,-0.077,0.139,1.2032118,0.1718874,-1.8334656000000005,133.47629568,-81.02199078,-121.07748456000002
6.04,604,-0.995,-0.077,0.139,0.8594370000000001,0.1718874,-1.7761698000000001,133.39608156,-81.01053162,-120.99154086
6.05,605,-0.9940000000000001,-0.076,0.136,0.4583664000000001,0.11459160000000004,-1.6615782,134.04925368000002,-81.04490909999998,-121.63325382
6.06,606,-0.992,-0.075,0.133,0.286479,0.0,-1.5469866,133.98049872,-81.03344994,-121.55876928
6.07,607,-0.993,-0.076,0.129,0.0,-0.2291832000000001,-1.432395,133.9289325,-81.02199078,-121.50720306
6.08,608,-0.995,-0.077,0.127,-0.286479,-0.5156622000000001,-1.2032118,133.90028460000002,-81.01053162,-121.47855516
6.09,609,-0.9940000000000001,-0.078,0.125,-0.8594370000000001,-0.9740286,-0.9167328000000001,133.88882543999998,-80.99907246000002,-121.47855516
6.1,610,-0.995,-0.079,0.124,-1.3178034,-1.432395,-0.7448454000000001,134.20968192,-81.01053162,-121.80514122
6.11,611,-0.992,-0.079,0.12300000000000001,-1.8334656000000005,-1.7761698000000001,-0.6302538000000001,134.2440594,-80.99334288,-121.85670744
6.12,612,-0.991,-0.079,0.124,-2.3491277999999998,-1.8907614,-0.4583664000000001,134.27843688000002,-80.97615413999998,-121.9254624
6.13,613,-0.99,-0.079,0.122,-2.9220858,-1.9480572,-0.4583664000000001,134.31854394,-80.95896540000003,-121.99421736000002
6.14,614,-0.9890000000000001,-0.079,0.12300000000000001,-3.2085647999999996,-2.0053530000000004,-0.286479,134.36438058000002,-80.94177666,-122.06870190000001
6.15,615,-0.988,-0.08,0.12300000000000001,-3.4950437999999995,-1.8334656000000005,-0.286479,134.59356378,-80.94750624,-122.33226258
6.16,616,-0.987,-0.079,0.122,-3.6096353999999997,-1.7188740000000002,-0.1718874,134.62794126,-80.93604708,-122.40674712
6.17,617,-0.9890000000000001,-0.08,0.12300000000000001,-3.6669312000000014,-1.7761698000000001,-0.11459160000000004,134.66231874,-80.92458792,-122.48123166
6.18,618,-0.9890000000000001,-0.079,0.125,-3.6096353999999997,-1.9480572,0.0,134.71388496,-80.90739918,-122.57290494000002
6.1899999999999995,619,-0.9890000000000001,-0.078,0.126,-3.6096353999999997,-2.1772404,0.057295800000000015,134.77691034,-80.89021044,-122.6703078
6.2,620,-0.9890000000000001,-0.078,0.13,-3.380452200000001,-2.3491277999999998,0.057295800000000015,135.07484849999997,-80.89594002,-123.00262344
6.21,621,-0.9890000000000001,-0.077,0.133,-3.0366774,-2.291832,0.1718874,135.15506262,-80.87875127999997,-123.11721504
6.22,622,-0.988,-0.077,0.134,-2.6356068,-2.0626488000000003,0.286479,135.23527674000002,-80.86729212,-123.22034748000002
6.2299999999999995,623,-0.99,-0.078,0.136,-2.291832,-1.8334656000000005,0.3437748,135.30403169999997,-80.85583296,-123.31775034
6.24,624,-0.992,-0.077,0.13699999999999998,-1.8334656000000005,-1.7188740000000002,0.40107059999999994,135.38424582,-80.85010338000002,-123.4151532
6.25,625,-0.9940000000000001,-0.077,0.14,-1.5469866,-1.6615782,0.5156622000000001,135.89990802,-80.86156254,-123.94227456000002
6.26,626,-0.996,-0.07400000000000001,0.14400000000000002,-1.145916,-1.5469866,0.5156622000000001,135.98012214,-80.85583296,-124.03967742
6.27,627,-0.998,-0.071,0.14800000000000002,-0.7448454000000001,-1.6042823999999998,0.6302538000000001,136.07179542,-80.8443738,-124.13708028
6.28,628,-0.995,-0.07,0.14800000000000002,-0.3437748,-1.4896908000000002,0.6875496,136.16346869999998,-80.83864422,-124.22875356
6.29,629,-0.9940000000000001,-0.067,0.15,0.0,-1.0313244000000001,0.572958,136.23222366,-80.83864422,-124.3032381
6.3,630,-0.9940000000000001,-0.068,0.152,0.3437748,-0.40107059999999994,0.3437748,138.14590338,-80.87302170000002,-126.19399950000002
6.31,631,-0.997,-0.069,0.154,0.5156622000000001,0.0,0.2291832000000001,138.16309212000002,-80.87875127999997,-126.20545866
6.32,632,-0.997,-0.069,0.153,0.6875496,-0.11459160000000004,0.1718874,138.18028085999998,-80.87875127999997,-126.21691782
6.33,633,-0.996,-0.07,0.151,0.8594370000000001,-0.40107059999999994,0.057295800000000015,138.20892876,-80.87302170000002,-126.23410656
6.34,634,-0.9940000000000001,-0.067,0.15,0.9167328000000001,-0.3437748,-0.057295800000000015,138.22611750000002,-80.87302170000002,-126.24556572
6.35,635,-0.996,-0.066,0.14800000000000002,1.2032118,0.0,-0.3437748,138.98242206,-80.90739918,-126.97895196
6.36,636,-0.997,-0.065,0.145,1.5469866,0.3437748,-0.572958,138.95377416,-80.90739918,-126.93311532
6.37,637,-0.996,-0.066,0.14300000000000002,1.9480572,0.6875496,-0.8594370000000001,138.90220793999998,-80.90739918,-126.86436036
6.38,638,-0.997,-0.07,0.14,2.1772404,0.8594370000000001,-0.9740286,138.84491214,-80.90739918,-126.77841666
6.39,639,-0.995,-0.07,0.141,2.1199446,0.8021411999999999,-1.0886202,138.77615717999998,-80.90739918,-126.69247296
6.4,640,-0.9940000000000001,-0.071,0.141,2.1199446,0.8594370000000001,-1.145916,139.00534037999998,-80.91885834,-126.89300826
6.41,641,-0.995,-0.069,0.142,2.1772404,0.9740286,-1.2032118,138.93085584,-80.91885834,-126.7956054
6.42,642,-0.995,-0.071,0.141,2.291832,0.9740286,-1.2605076000000002,138.85637130000003,-80.91885834,-126.69247296
6.43,643,-0.995,-0.071,0.14,2.3491277999999998,1.0313244000000001,-1.3178034,138.77042759999998,-80.91885834,-126.58361094
6.4399999999999995,644,-0.9940000000000001,-0.07200000000000001,0.138,2.3491277999999998,1.2032118,-1.3178034,138.67875432,-80.91885834,-126.46901934
6.45,645,-0.9940000000000001,-0.075,0.138,2.4637194,1.0886202,-1.3750992,138.81626424,-80.93604708,-126.57215178
6.46,646,-0.993,-0.075,0.136,2.4637194,1.0313244000000001,-1.3750992,138.73032054,-80.9303175,-126.46328976
6.47,647,-0.993,-0.076,0.136,2.3491277999999998,0.8021411999999999,-1.3178034,138.65583600000002,-80.9303175,-126.36015731999998
6.4799999999999995,648,-0.992,-0.075,0.13699999999999998,2.2345362,0.7448454000000001,-1.2605076000000002,138.58708104,-80.9303175,-126.26848404
6.49,649,-0.993,-0.075,0.13699999999999998,2.1199446,0.8021411999999999,-1.2605076000000002,138.5125965,-80.92458792,-126.17108118000002
6.5,650,-0.992,-0.076,0.138,1.9480572,1.0313244000000001,-1.145916,138.70167264,-80.94177666,-126.34296858
6.51,651,-0.991,-0.075,0.138,1.8334656000000005,1.2032118,-1.145916,138.62145851999998,-80.94177666,-126.23410656
6.52,652,-0.99,-0.077,0.13699999999999998,1.7761698000000001,1.3178034,-1.0886202,138.52978524,-80.94750624,-126.13097412
6.53,653,-0.99,-0.076,0.13699999999999998,1.5469866,1.4896908000000002,-1.0313244000000001,138.43811196,-80.95323582,-126.01638252
6.54,654,-0.991,-0.076,0.13699999999999998,1.4896908000000002,1.7761698000000001,-0.9740286,138.32924994,-80.95896540000003,-125.89606134
6.55,655,-0.991,-0.078,0.134,1.3178034,2.0626488000000003,-0.9167328000000001,138.44384154,-80.98188372,-125.98773462
6.56,656,-0.992,-0.077,0.135,1.0886202,2.2345362,-0.8594370000000001,138.32352036,-80.99334288,-125.85595428000002
6.57,657,-0.993,-0.077,0.135,0.8594370000000001,2.0626488000000003,-0.8021411999999999,138.20892876,-81.00480204,-125.72990352
6.58,658,-0.993,-0.079,0.135,0.6302538000000001,1.7188740000000002,-0.6875496,138.10579632,-81.0162612,-125.62677107999998
6.59,659,-0.991,-0.079,0.135,0.286479,1.432395,-0.6302538000000001,138.0255822,-81.02199078,-125.5350978
6.6,660,-0.9890000000000001,-0.079,0.134,0.057295800000000015,1.145916,-0.4583664000000001,138.51832608,-81.06782741999999,-126.0221121
6.61,661,-0.986,-0.079,0.133,-0.1718874,0.9740286,-0.3437748,138.4553007,-81.06782741999999,-125.9648163
6.62,662,-0.986,-0.078,0.131,-0.2291832000000001,0.9167328000000001,-0.3437748,138.39800490000002,-81.07355700000002,-125.9075205
6.63,663,-0.985,-0.078,0.131,-0.3437748,0.9740286,-0.286479,138.3407091,-81.07928658,-125.85022469999998
6.64,664,-0.985,-0.078,0.131,-0.40107059999999994,1.145916,-0.286479,138.27195414,-81.08501616,-125.78719932
6.65,665,-0.987,-0.078,0.131,-0.6302538000000001,1.0886202,-0.286479,138.55843313999998,-81.11939364,-126.07940790000002
6.66,666,-0.9890000000000001,-0.078,0.13,-0.8594370000000001,1.0313244000000001,-0.2291832000000001,138.49540776,-81.1308528,-126.0221121
6.67,667,-0.991,-0.077,0.131,-0.9740286,0.8021411999999999,-0.11459160000000004,138.44384154,-81.13658238,-125.97627545999998
6.68,668,-0.992,-0.077,0.132,-1.145916,0.572958,0.0,138.40946406,-81.13658238,-125.95335714
6.6899999999999995,669,-0.993,-0.076,0.134,-1.2605076000000002,0.286479,0.0,138.38081616,-81.14231196,-125.94189798
6.7,670,-0.992,-0.075,0.135,-1.2605076000000002,0.11459160000000004,0.0,138.9996108,-81.17095986,-126.5664222
6.71,671,-0.991,-0.07400000000000001,0.134,-1.2032118,0.0,0.0,138.98815164,-81.17095986,-126.57215178
6.72,672,-0.991,-0.075,0.134,-1.145916,-0.057295800000000015,0.0,138.98242206,-81.17095986,-126.57215178
6.7299999999999995,673,-0.99,-0.07400000000000001,0.133,-0.9740286,0.0,0.0,138.9709629,-81.17095986,-126.57215178
6.74,674,-0.991,-0.073,0.133,-0.7448454000000001,0.057295800000000015,0.0,138.95950374,-81.17095986,-126.57215178
6.75,675,-0.992,-0.07200000000000001,0.135,-0.7448454000000001,0.2291832000000001,-0.057295800000000015,139.88196612000002,-81.21679650000002,-127.49461416
6.76,676,-0.99,-0.073,0.136,-0.6875496,0.2291832000000001,-0.1718874,139.85331821999998,-81.21679650000002,-127.47169584
6.77,677,-0.991,-0.07200000000000001,0.13699999999999998,-0.6302538000000001,0.40107059999999994,-0.286479,139.81894074,-81.21679650000002,-127.44304794
6.78,678,-0.992,-0.073,0.136,-0.4583664000000001,0.2291832000000001,-0.3437748,139.78456325999997,-81.21679650000002,-127.41440004
6.79,679,-0.992,-0.07400000000000001,0.134,-0.3437748,0.0,-0.286479,139.76737452,-81.21679650000002,-127.3972113
6.8,680,-0.991,-0.07400000000000001,0.135,-0.2291832000000001,-0.1718874,-0.3437748,140.56378614,-81.25117398,-128.18789334000002
6.81,681,-0.991,-0.07400000000000001,0.135,-0.11459160000000004,-0.4583664000000001,-0.3437748,140.56378614,-81.2454444,-128.19362292
6.82,682,-0.99,-0.073,0.136,0.0,-0.572958,-0.40107059999999994,140.56951572,-81.23971482,-128.19362292
6.83,683,-0.99,-0.073,0.13699999999999998,0.057295800000000015,-0.40107059999999994,-0.40107059999999994,140.56378614,-81.23398524000002,-128.18789334000002
6.84,684,-0.99,-0.07400000000000001,0.14,0.11459160000000004,-0.3437748,-0.572958,140.55232698,-81.22825566,-128.17643418
6.85,685,-0.992,-0.07400000000000001,0.138,0.2291832000000001,-0.1718874,-0.5156622000000001,141.23414699999995,-81.25117398,-128.84679504000002
6.86,686,-0.992,-0.07400000000000001,0.139,0.3437748,-0.057295800000000015,-0.5156622000000001,141.21122868,-81.2454444,-128.82387672
6.87,687,-0.992,-0.075,0.138,0.5156622000000001,-0.11459160000000004,-0.6302538000000001,141.18831036,-81.2454444,-128.79522881999998
6.88,688,-0.992,-0.07400000000000001,0.138,0.572958,0.0,-0.6302538000000001,141.15966246,-81.23971482,-128.76085134
6.89,689,-0.993,-0.075,0.13699999999999998,0.8021411999999999,0.11459160000000004,-0.572958,141.13674414,-81.23398524000002,-128.72647386
6.9,690,-0.993,-0.076,0.138,0.8594370000000001,0.2291832000000001,-0.572958,141.49197809999995,-81.2454444,-129.07024866
6.91,691,-0.9940000000000001,-0.076,0.13699999999999998,0.8594370000000001,0.3437748,-0.572958,141.45760062,-81.23971482,-129.02441202
6.92,692,-0.9940000000000001,-0.076,0.14,0.8021411999999999,0.3437748,-0.572958,141.42322314,-81.23971482,-128.97857538
6.93,693,-0.995,-0.076,0.14,0.8594370000000001,0.286479,-0.4583664000000001,141.39457524,-81.23971482,-128.9441979
6.9399999999999995,694,-0.996,-0.075,0.139,0.8594370000000001,0.3437748,-0.4583664000000001,141.36019776,-81.23971482,-128.90409084
6.95,695,-0.995,-0.076,0.138,0.8594370000000001,0.286479,-0.3437748,141.79564584,-81.25690356,-129.32235018
6.96,696,-0.9940000000000001,-0.075,0.138,0.8594370000000001,0.0,-0.3437748,141.78418668,-81.25690356,-129.30516144
6.97,697,-0.992,-0.075,0.139,0.6875496,-0.057295800000000015,-0.3437748,141.77845710000003,-81.25117398,-129.28797269999998
6.9799999999999995,698,-0.99,-0.075,0.138,0.572958,0.0,-0.40107059999999994,141.75553878,-81.25117398,-129.2593248
6.99,699,-0.9890000000000001,-0.077,0.139,0.5156622000000001,0.286479,-0.4583664000000001,141.72689087999996,-81.25117398,-129.22494732
7.0,700,-0.992,-0.078,0.14,0.2291832000000001,0.40107059999999994,-0.3437748,142.40871090000005,-81.2454444,-129.90103776
7.01,701,-0.991,-0.078,0.139,0.11459160000000004,-0.11459160000000004,-0.2291832000000001,142.40298132,-81.2454444,-129.8895786
7.02,702,-0.99,-0.079,0.14,-0.11459160000000004,-0.5156622000000001,-0.1718874,142.40871090000005,-81.23971482,-129.90103776
7.03,703,-0.99,-0.076,0.141,-0.1718874,-0.40107059999999994,-0.286479,142.41444048,-81.23398524000002,-129.90103776
7.04,704,-0.992,-0.073,0.14,0.0,-0.1718874,-0.286479,142.40298132,-81.23398524000002,-129.89530818
7.05,705,-0.993,-0.073,0.13699999999999998,0.2291832000000001,0.40107059999999994,-0.2291832000000001,142.94729142,-81.26263314,-130.42815911999998
7.06,706,-0.993,-0.07200000000000001,0.13699999999999998,0.5156622000000001,0.572958,-0.286479,142.91291394,-81.26836272,-130.39378164
7.07,707,-0.991,-0.075,0.136,0.5156622000000001,0.6302538000000001,-0.3437748,142.87853646000005,-81.26836272,-130.34794499999998
7.08,708,-0.992,-0.07400000000000001,0.136,0.3437748,0.5156622000000001,-0.286479,142.84415898,-81.27409229999998,-130.30783793999998
7.09,709,-0.992,-0.075,0.13699999999999998,0.2291832000000001,0.11459160000000004,-0.286479,142.82697024,-81.27409229999998,-130.29064920000002
7.1,710,-0.993,-0.073,0.14,0.286479,0.0,-0.286479,143.6119227,-81.28555146,-131.0641425
7.11,711,-0.9940000000000001,-0.07400000000000001,0.14,0.286479,0.0,-0.286479,143.60046354,-81.28555146,-131.04695376
7.12,712,-0.992,-0.07400000000000001,0.14,0.3437748,0.0,-0.286479,143.58327479999997,-81.27982188,-131.02976502
7.13,713,-0.993,-0.073,0.139,0.4583664000000001,0.057295800000000015,-0.40107059999999994,143.56608606,-81.27982188,-131.00684669999998
7.14,714,-0.993,-0.07400000000000001,0.14,0.40107059999999994,0.1718874,-0.40107059999999994,143.53743816,-81.27982188,-130.97246922000002
7.15,715,-0.992,-0.073,0.14,0.40107059999999994,0.2291832000000001,-0.40107059999999994,143.93850876,-81.28555146,-131.36781023999998
7.16,716,-0.992,-0.073,0.141,0.40107059999999994,0.2291832000000001,-0.4583664000000001,143.90986086,-81.28555146,-131.33343276
7.17,717,-0.993,-0.07400000000000001,0.14,0.11459160000000004,0.286479,-0.5156622000000001,143.86975379999996,-81.28555146,-131.28759612000002
7.18,718,-0.993,-0.07400000000000001,0.141,0.057295800000000015,0.286479,-0.5156622000000001,143.82964674,-81.27982188,-131.24748906
7.1899999999999995,719,-0.992,-0.075,0.14,-0.2291832000000001,0.1718874,-0.286479,143.80099883999995,-81.27982188,-131.22457074
7.2,720,-0.993,-0.075,0.14,-0.4583664000000001,0.1718874,-0.286479,144.12758490000004,-81.28555146,-131.5511568
7.21,721,-0.991,-0.076,0.139,-0.40107059999999994,0.1718874,-0.2291832000000001,144.10466658,-81.28555146,-131.53396806
7.22,722,-0.992,-0.075,0.139,-0.286479,0.0,-0.286479,144.08174825999996,-81.28555146,-131.51677932
7.2299999999999995,723,-0.992,-0.075,0.138,-0.1718874,0.1718874,-0.2291832000000001,144.05882994,-81.28555146,-131.49386099999998
7.24,724,-0.992,-0.076,0.13699999999999998,-0.11459160000000004,0.286479,-0.2291832000000001,144.03591162,-81.28555146,-131.4652131
7.25,725,-0.992,-0.076,0.138,-0.1718874,0.40107059999999994,-0.2291832000000001,144.43698222,-81.28555146,-131.8662837
7.26,726,-0.991,-0.077,0.138,-0.1718874,0.5156622000000001,-0.286479,144.39687516,-81.29128104,-131.83190622
7.27,727,-0.991,-0.078,0.138,-0.1718874,0.40107059999999994,-0.1718874,144.36822726,-81.29128104,-131.80325832
7.28,728,-0.99,-0.077,0.136,-0.11459160000000004,0.3437748,-0.057295800000000015,144.35103852,-81.29701062000002,-131.78606958
7.29,729,-0.99,-0.078,0.135,0.0,0.2291832000000001,0.0,144.34530894000005,-81.29701062000002,-131.78034
7.3,730,-0.99,-0.078,0.13699999999999998,0.3437748,0.057295800000000015,0.057295800000000015,144.73492038,-81.30846978000002,-132.15849228
7.31,731,-0.992,-0.079,0.135,0.40107059999999994,0.057295800000000015,0.1718874,144.74637954,-81.30846978000002,-132.16995144
7.32,732,-0.993,-0.079,0.138,0.4583664000000001,0.057295800000000015,0.3437748,144.76356828,-81.31419936,-132.18714018
7.33,733,-0.996,-0.08,0.138,0.2291832000000001,0.286479,0.40107059999999994,144.78075701999995,-81.31992894,-132.19859934000002
7.34,734,-0.997,-0.077,0.139,0.0,0.5156622000000001,0.4583664000000001,144.7864866,-81.32565852,-132.20432892000002
7.35,735,-0.998,-0.077,0.14,-0.057295800000000015,0.6875496,0.572958,144.9870219,-81.33711767999998,-132.40486422
7.36,736,-0.998,-0.075,0.141,-0.2291832000000001,0.6302538000000001,0.6302538000000001,144.99848106,-81.34284726,-132.41632338
7.37,737,-0.997,-0.073,0.141,-0.1718874,0.3437748,0.7448454000000001,145.02712896,-81.35430642,-132.44497128
7.38,738,-0.996,-0.07200000000000001,0.141,-0.11459160000000004,0.11459160000000004,0.8021411999999999,145.06150644000004,-81.35430642,-132.48507834
7.39,739,-0.992,-0.071,0.138,0.057295800000000015,-0.2291832000000001,0.6302538000000001,145.10734308000005,-81.360036,-132.53091498
7.4,740,-0.9890000000000001,-0.071,0.138,0.2291832000000001,-0.6302538000000001,0.4583664000000001,145.40528124,-81.360036,-132.82312356
7.41,741,-0.988,-0.071,0.135,0.3437748,-0.8594370000000001,0.286479,145.45684746,-81.35430642,-132.87468977999998
7.42,742,-0.985,-0.07200000000000001,0.135,0.4583664000000001,-0.6302538000000001,0.2291832000000001,145.49695451999997,-81.35430642,-132.90906726
7.43,743,-0.986,-0.07200000000000001,0.135,0.40107059999999994,-0.3437748,0.057295800000000015,145.51987284,-81.34857683999998,-132.926256
7.4399999999999995,744,-0.987,-0.07200000000000001,0.136,0.40107059999999994,-0.1718874,0.0,145.53133200000005,-81.34857683999998,-132.93198558
7.45,745,-0.9890000000000001,-0.07400000000000001,0.13699999999999998,0.40107059999999994,-0.11459160000000004,-0.057295800000000015,145.95532092000005,-81.360036,-133.34451534
7.46,746,-0.99,-0.07400000000000001,0.138,0.40107059999999994,-0.11459160000000004,-0.11459160000000004,145.95532092000005,-81.360036,-133.34451534
7.47,747,-0.991,-0.073,0.139,0.4583664000000001,-0.11459160000000004,-0.11459160000000004,145.95532092000005,-81.35430642,-133.33878576
7.4799999999999995,748,-0.993,-0.07200000000000001,0.138,0.40107059999999994,-0.057295800000000015,-0.1718874,145.95532092000005,-81.35430642,-133.33305618
7.49,749,-0.993,-0.073,0.139,0.5156622000000001,-0.286479,-0.2291832000000001,145.95532092000005,-81.34857683999998,-133.3273266
7.5,750,-0.993,-0.07400000000000001,0.139,0.4583664000000001,-0.40107059999999994,-0.2291832000000001,146.15585622,-81.34284726,-133.52213232
7.51,751,-0.991,-0.075,0.139,0.40107059999999994,-0.5156622000000001,-0.3437748,146.1615858,-81.33711767999998,-133.52213232
7.52,752,-0.991,-0.07400000000000001,0.14,0.5156622000000001,-0.6302538000000001,-0.286479,146.16731538,-81.3313881,-133.5278619
7.53,753,-0.991,-0.075,0.141,0.40107059999999994,-0.5156622000000001,-0.286479,146.17304496,-81.32565852,-133.5278619
7.54,754,-0.99,-0.076,0.141,0.3437748,-0.286479,-0.3437748,146.17304496,-81.31992894,-133.51640274000002
7.55,755,-0.991,-0.077,0.142,0.3437748,-0.2291832000000001,-0.2291832000000001,146.47671269999995,-81.30274019999997,-133.82007048
7.56,756,-0.992,-0.076,0.14,0.286479,-0.057295800000000015,-0.2291832000000001,146.47098312,-81.30274019999997,-133.80861132
7.57,757,-0.993,-0.077,0.141,0.3437748,-0.11459160000000004,-0.1718874,146.46525354,-81.30274019999997,-133.80288174
7.58,758,-0.992,-0.076,0.141,0.1718874,-0.11459160000000004,-0.057295800000000015,146.46525354,-81.29701062000002,-133.79715216
7.59,759,-0.991,-0.076,0.14,0.2291832000000001,-0.286479,0.0,146.48244228,-81.29701062000002,-133.80861132
7.6,760,-0.991,-0.076,0.139,0.057295800000000015,-0.1718874,0.0,146.83194666,-81.29128104,-134.15811570000002
7.61,761,-0.992,-0.075,0.141,0.0,-0.057295800000000015,0.0,146.83767624,-81.29128104,-134.16384528
7.62,762,-0.991,-0.075,0.141,0.057295800000000015,-0.057295800000000015,0.057295800000000015,146.8491354,-81.29128104,-134.16957486
7.63,763,-0.991,-0.075,0.141,0.11459160000000004,0.057295800000000015,0.11459160000000004,146.85486498,-81.29128104,-134.17530444
7.64,764,-0.991,-0.075,0.14,0.11459160000000004,0.0,0.11459160000000004,146.86059456,-81.29128104,-134.18103402
7.65,765,-0.99,-0.07400000000000001,0.14,0.3437748,-0.057295800000000015,0.1718874,147.12988481999997,-81.28555146,-134.44459469999998
7.66,766,-0.991,-0.075,0.14,0.3437748,0.0,0.1718874,147.14707356,-81.28555146,-134.45605386
7.67,767,-0.991,-0.075,0.14,0.40107059999999994,0.057295800000000015,0.2291832000000001,147.15853272,-81.29128104,-134.46751302
7.68,768,-0.992,-0.075,0.142,0.3437748,0.1718874,0.286479,147.17572146,-81.29128104,-134.47897218
7.6899999999999995,769,-0.993,-0.075,0.142,0.1718874,0.1718874,0.3437748,147.1929102,-81.29701062000002,-134.49616092000002
7.7,770,-0.9940000000000001,-0.07400000000000001,0.142,0.0,0.3437748,0.286479,147.4507413,-81.29701062000002,-134.75399202
7.71,771,-0.995,-0.075,0.141,0.0,0.5156622000000001,0.3437748,147.45647088,-81.30274019999997,-134.75399202
7.72,772,-0.995,-0.073,0.14,0.11459160000000004,0.40107059999999994,0.40107059999999994,147.46220046,-81.30846978000002,-134.75972159999998
7.7299999999999995,773,-0.9940000000000001,-0.07200000000000001,0.142,0.0,0.1718874,0.3437748,147.4793892,-81.30846978000002,-134.77691034
7.74,774,-0.992,-0.071,0.142,-0.057295800000000015,0.0,0.286479,147.49084836,-81.31419936,-134.79409908
7.75,775,-0.991,-0.071,0.142,0.11459160000000004,0.0,0.1718874,147.83462316,-81.31992894,-135.13214430000002
7.76,776,-0.991,-0.073,0.142,0.286479,0.286479,0.057295800000000015,147.83462316,-81.31992894,-135.12641472
7.77,777,-0.992,-0.076,0.145,0.057295800000000015,0.572958,0.11459160000000004,147.823164,-81.32565852,-135.11495556
7.78,778,-0.993,-0.077,0.145,-0.286479,0.2291832000000001,0.2291832000000001,147.823164,-81.3313881,-135.12068514
7.79,779,-0.991,-0.077,0.146,-0.6875496,-0.2291832000000001,0.40107059999999994,147.84608232,-81.3313881,-135.14933304000002
7.8,780,-0.992,-0.073,0.145,-0.8021411999999999,-0.2291832000000001,0.4583664000000001,148.04661761999995,-81.32565852,-135.35559791999998
7.81,781,-0.992,-0.071,0.14300000000000002,-0.4583664000000001,0.2291832000000001,0.40107059999999994,148.05807678000005,-81.3313881,-135.37278666
7.82,782,-0.9940000000000001,-0.071,0.139,-0.1718874,0.8594370000000001,0.286479,148.04661761999995,-81.33711767999998,-135.3613275
7.83,783,-0.9940000000000001,-0.07,0.13699999999999998,0.057295800000000015,1.3178034,0.2291832000000001,148.01796972,-81.35430642,-135.33267959999998
7.84,784,-0.991,-0.071,0.138,0.2291832000000001,1.145916,0.2291832000000001,147.9950514,-81.36576558,-135.30976128
7.85,785,-0.9890000000000001,-0.07200000000000001,0.138,0.0,0.8594370000000001,0.2291832000000001,148.09818384,-81.37722474,-135.40716414
7.86,786,-0.99,-0.071,0.14,-0.11459160000000004,0.5156622000000001,0.2291832000000001,148.09245426,-81.38295432,-135.40143456
7.87,787,-0.991,-0.071,0.141,-0.286479,0.286479,0.1718874,148.08672468,-81.38295432,-135.40143456
