TimeStamp(s),FrameCounter,AccX,AccY,AccZ,GyrX,GyrY,GyrZ,EulerX,EulerY,EulerZ
0.01,1,-0.036000000000000004,-1.009,0.075,0.0,-0.4010706,-0.286479,92.11445766,-3.80444112,-44.55321408
0.020000000000000004,2,-0.027000000000000003,-1.006,0.085,0.4583664000000001,-0.11459160000000004,-0.5156622000000001,92.12018724,-3.80444112,-44.55321408
0.030000000000000006,3,-0.026,-1.004,0.085,0.5156622000000001,-0.11459160000000004,-0.572958,92.12591682,-3.79298196,-44.55321408
0.04000000000000001,4,-0.026,-1.003,0.086,0.5156622000000001,-0.057295800000000015,-0.572958,92.1316464,-3.78725238,-44.55894366
0.05000000000000001,5,-0.027000000000000003,-1.003,0.08800000000000001,0.6302538000000001,-0.057295800000000015,-0.5156622000000001,92.34364086,-3.50077338,-44.83969308
0.06000000000000001,6,-0.027000000000000003,-1.005,0.086,0.5156622000000001,0.057295800000000015,-0.4010706,92.34937044,-3.50077338,-44.83969308
0.07,7,-0.027000000000000003,-1.006,0.085,0.4010706,0.11459160000000004,-0.286479,92.35510002,-3.4950437999999995,-44.83969308
0.08,8,-0.026,-1.008,0.085,0.3437748,-0.11459160000000004,-0.1718874,92.35510002,-3.4950437999999995,-44.83969308
0.09000000000000001,9,-0.025,-1.008,0.084,0.2291832000000001,-0.2291832000000001,-0.1718874,92.36082960000002,-3.48931422,-44.83969308
0.10000000000000002,10,-0.025,-1.008,0.084,0.11459160000000004,-0.286479,-0.11459160000000004,92.57282406,-3.07105488,-45.1777383
0.11000000000000001,11,-0.026,-1.007,0.084,0.11459160000000004,-0.4010706,-0.11459160000000004,92.57282406,-3.07105488,-45.1777383
0.12000000000000001,12,-0.026,-1.006,0.085,0.1718874,-0.4583664000000001,-0.2291832000000001,92.57855364,-3.0653253000000005,-45.18346788
0.13000000000000003,13,-0.027000000000000003,-1.005,0.085,0.2291832000000001,-0.572958,-0.286479,92.57855364,-3.0653253000000005,-45.18919746
0.14000000000000004,14,-0.029,-1.005,0.084,0.286479,-0.6302538000000001,-0.286479,92.58428322,-3.05959572,-45.19492704
0.15000000000000002,15,-0.029,-1.004,0.086,0.2291832000000001,-0.5156622000000001,-0.4583664000000001,92.7046044,-2.88197874,-45.36681444
0.16000000000000003,16,-0.03,-1.004,0.087,0.057295800000000015,-0.4010706,-0.4583664000000001,92.71033398,-2.87624916,-45.37254402
0.17000000000000004,17,-0.03,-1.004,0.087,0.057295800000000015,-0.4583664000000001,-0.5156622000000001,92.71033398,-2.87051958,-45.37254402
0.18000000000000005,18,-0.029,-1.005,0.086,0.0,-0.4010706,-0.4583664000000001,92.71033398,-2.86479,-45.3782736
0.19000000000000006,19,-0.028,-1.008,0.08800000000000001,0.0,-0.1718874,-0.4010706,92.71033398,-2.85906042,-45.3782736
0.20000000000000004,20,-0.026,-1.008,0.08800000000000001,0.0,0.0,-0.4583664000000001,92.91659886,-2.5496631,-45.65902302
0.21000000000000005,21,-0.023,-1.006,0.09,0.0,0.0,-0.4010706,92.91659886,-2.54393352,-45.65902302
0.22000000000000006,22,-0.023,-1.006,0.08800000000000001,0.2291832000000001,-0.1718874,-0.3437748,92.92232844,-2.53820394,-45.65902302
0.23000000000000004,23,-0.022,-1.006,0.08800000000000001,0.1718874,-0.4010706,-0.4010706,92.92232844,-2.53247436,-45.6647526
0.24000000000000005,24,-0.025,-1.007,0.08900000000000001,0.11459160000000004,-0.572958,-0.4010706,92.92805802,-2.53247436,-45.67048218
0.25000000000000006,25,-0.027000000000000003,-1.008,0.08800000000000001,0.11459160000000004,-0.6875496,-0.5156622000000001,92.99681298,-2.42361234,-45.76788504
0.26000000000000006,26,-0.029,-1.008,0.086,0.286479,-0.572958,-0.5156622000000001,92.99681298,-2.41788276,-45.77361462
0.2700000000000001,27,-0.029,-1.006,0.086,0.286479,-0.4010706,-0.6302538000000001,93.00254256,-2.41215318,-45.77361462
0.2800000000000001,28,-0.029,-1.004,0.085,0.3437748,-0.1718874,-0.6875496,93.00827214,-2.4064236,-45.779344200000004
0.29000000000000004,29,-0.027000000000000003,-1.003,0.084,0.572958,0.0,-0.6302538000000001,93.01400172,-2.40069402,-45.779344200000004
0.30000000000000004,30,-0.027000000000000003,-1.003,0.083,0.6302538000000001,0.2291832000000001,-0.6302538000000001,93.05983836,-2.3147503200000004,-45.83664
0.31000000000000005,31,-0.026,-1.003,0.085,0.6302538000000001,0.2291832000000001,-0.6302538000000001,93.06556794,-2.30902074,-45.83664
0.32000000000000006,32,-0.026,-1.004,0.08900000000000001,0.286479,0.0,-0.572958,93.07129752,-2.30329116,-45.83664
0.33000000000000007,33,-0.025,-1.006,0.09,-0.057295800000000015,-0.1718874,-0.4583664000000001,93.07129752,-2.29756158,-45.83664
0.3400000000000001,34,-0.025,-1.009,0.09,-0.4583664000000001,-0.286479,-0.5156622000000001,93.06556794,-2.2918320000000003,-45.83664
0.3500000000000001,35,-0.024,-1.012,0.08800000000000001,-0.6875496,0.1718874,-0.6302538000000001,93.09421584,-2.21161788,-45.893935799999994
0.3600000000000001,36,-0.024,-1.016,0.08900000000000001,-0.4010706,0.057295800000000015,-0.6875496,93.08848626,-2.2058883,-45.88820622
0.3700000000000001,37,-0.024,-1.015,0.092,-0.057295800000000015,-0.4583664000000001,-0.7448454000000001,93.08848626,-2.20015872,-45.893935799999994
0.38000000000000006,38,-0.024,-1.01,0.095,-0.057295800000000015,-0.6302538000000001,-0.6302538000000001,93.08848626,-2.18869956,-45.89966538
0.39000000000000007,39,-0.023,-1.003,0.095,-0.11459160000000004,-0.8594370000000001,-0.6302538000000001,93.08848626,-2.18296998,-45.91112454
0.4000000000000001,40,-0.025,-1.001,0.096,-0.1718874,-0.9167328,-0.572958,93.15724122,-2.12567418,-45.98560908
0.4100000000000001,41,-0.031,-1.003,0.095,-0.1718874,-0.5156622000000001,-0.572958,93.15724122,-2.1199446,-45.99133866
0.4200000000000001,42,-0.035,-1.006,0.091,-0.2291832000000001,0.2291832000000001,-0.2291832000000001,93.15151164,-2.1199446,-45.98560908
0.4300000000000001,43,-0.033,-1.007,0.08800000000000001,-0.3437748,0.5156622000000001,-0.1718874,93.14578206000002,-2.11421502,-45.9798795
0.4400000000000001,44,-0.03,-1.005,0.086,-0.4010706,0.7448454000000001,-0.11459160000000004,93.14578206000002,-2.11421502,-45.97414992
0.45000000000000007,45,-0.028,-1.002,0.086,-0.286479,0.8021411999999999,0.0,93.1916187,-2.02827132,-46.03144572000001
0.4600000000000001,46,-0.026,-0.999,0.084,-0.1718874,0.6875496,0.0,93.18588912,-2.0340008999999997,-46.02571614
0.4700000000000001,47,-0.027000000000000003,-0.998,0.084,-0.3437748,0.3437748,-0.057295800000000015,93.18588912,-2.0340008999999997,-46.01998656
0.4800000000000001,48,-0.026,-1.0,0.083,-0.4583664000000001,0.2291832000000001,-0.1718874,93.18015954,-2.02827132,-46.01998656
0.4900000000000001,49,-0.027000000000000003,-1.001,0.086,-0.5156622000000001,0.286479,-0.3437748,93.17442996,-2.02827132,-46.014256980000006
0.5000000000000001,50,-0.026,-1.003,0.086,-0.286479,0.572958,-0.4583664000000001,93.20880744,-1.96524594,-46.06009362
0.5100000000000001,51,-0.025,-1.004,0.08800000000000001,-0.11459160000000004,0.7448454000000001,-0.4010706,93.20880744,-1.9595163600000003,-46.05436404
0.5200000000000001,52,-0.025,-1.003,0.08900000000000001,0.057295800000000015,0.572958,-0.2291832000000001,93.20880744,-1.9595163600000003,-46.04863446
0.5300000000000001,53,-0.027000000000000003,-1.002,0.091,0.057295800000000015,0.7448454000000001,-0.1718874,93.20880744,-1.95378678,-46.0371753
0.5400000000000001,54,-0.028,-1.002,0.091,0.11459160000000004,1.0313244,-0.057295800000000015,93.20880744,-1.95378678,-46.03144572000001
0.5500000000000002,55,-0.03,-1.0,0.092,0.0,1.3750992,0.0,93.25464408,-1.93086846,-46.05436404
0.5600000000000002,56,-0.03,-1.003,0.093,0.0,1.6615782,0.057295800000000015,93.25464408,-1.93086846,-46.0371753
0.5700000000000001,57,-0.028,-1.001,0.092,0.0,1.6615782,0.11459160000000004,93.25464408,-1.93659804,-46.01998656
0.5800000000000001,58,-0.029,-1.002,0.095,-0.1718874,1.7188740000000002,0.057295800000000015,93.24891449999998,-1.93659804,-46.00279782
0.5900000000000001,59,-0.03,-1.001,0.098,-0.057295800000000015,1.6615782,0.057295800000000015,93.24891449999998,-1.93659804,-45.98560908
0.6000000000000001,60,-0.031,-1.003,0.1,0.0,1.5469866,0.0,93.31766946,-1.91367972,-46.01998656
0.6100000000000001,61,-0.031,-1.002,0.099,0.057295800000000015,1.3750992,0.0,93.31766946,-1.91367972,-46.00279782
0.6200000000000001,62,-0.028,-0.999,0.1,0.4010706,1.3178034,0.0,93.32339904,-1.9194093000000003,-45.99133866
0.6300000000000001,63,-0.025,-0.993,0.097,0.572958,0.9167328,-0.057295800000000015,93.32912862,-1.9194093000000003,-45.9798795
0.6400000000000001,64,-0.023,-0.989,0.097,0.8594370000000001,0.286479,-0.2291832000000001,93.3348582,-1.91367972,-45.9798795
0.6500000000000001,65,-0.022,-0.986,0.099,1.0886202,0.057295800000000015,-0.286479,93.40361316,-1.86784308,-46.02571614
0.6600000000000001,66,-0.02,-0.983,0.098,1.0313244,0.2291832000000001,-0.4583664000000001,93.41507232,-1.8621135,-46.02571614
0.6700000000000002,67,-0.02,-0.988,0.09,0.4583664000000001,0.11459160000000004,-0.6875496,93.4208019,-1.85638392,-46.01998656
0.6800000000000002,68,-0.02,-0.999,0.085,-0.057295800000000015,-0.11459160000000004,-0.9167328,93.4208019,-1.84492476,-46.02571614
0.6900000000000002,69,-0.022,-1.014,0.079,-0.3437748,-0.572958,-0.8594370000000001,93.41507232,-1.8334656000000005,-46.03144572000001
0.7000000000000002,70,-0.026,-1.03,0.076,-0.3437748,-1.145916,-0.8594370000000001,93.39788358,-1.81054728,-46.04290488
0.7100000000000002,71,-0.032,-1.038,0.078,0.057295800000000015,-1.3750992,-0.7448454000000001,93.39788358,-1.79908812,-46.05436404
0.7200000000000002,72,-0.039,-1.037,0.08,0.9167328,-0.8594370000000001,-0.9167328,93.40934274,-1.7933585399999998,-46.06009362
0.7300000000000002,73,-0.046,-1.026,0.087,2.0626488000000003,0.3437748,-1.0313244,93.43226106,-1.78189938,-46.05436404
0.7400000000000001,74,-0.047,-1.011,0.09,2.6356068,2.578311,-1.145916,93.45517938,-1.77044022,-46.03144572000001
0.7500000000000001,75,-0.049,-1.004,0.091,2.2345362,4.0680017999999984,-1.3178034,93.48382728,-1.77044022,-45.98560908
0.7600000000000001,76,-0.048,-1.005,0.092,1.0313244,5.5576926,-1.4896908000000002,93.49528644,-1.75898106,-45.93404286
0.7700000000000001,77,-0.043,-1.013,0.09,-0.9740286,7.1046792000000005,-1.8907613999999997,93.4780977,-1.7475218999999995,-45.85955832
0.7800000000000001,78,-0.036000000000000004,-1.02,0.07400000000000001,-3.6096354,8.078707799999998,-2.3491278,93.43799064,-1.73033316,-45.779344200000004
0.7900000000000001,79,-0.029,-1.024,0.055,-6.8182002000000015,8.3651868,-2.7501984,93.36923568,-1.71314442,-45.6934005
0.8000000000000002,80,-0.017,-1.021,0.034,-10.026765,7.9641161999999985,-2.9793816000000004,93.24891449999998,-1.6844965200000002,-45.61318638
0.8100000000000002,81,-0.006,-1.011,0.012,-13.120738199999998,7.161975,-3.0939732,93.11140458,-1.6615782,-45.53870184
0.8200000000000002,82,0.004,-0.998,-0.006,-16.386598799999998,5.6149884000000005,-3.151269,92.94524676,-1.6329303,-45.48713562
0.8300000000000002,83,0.008,-0.978,-0.028,-19.308684600000007,3.8388186,-3.151269,92.74471146,-1.61001198,-45.44702856
0.8400000000000002,84,0.006999999999999999,-0.952,-0.043,-22.1161788,1.3750992,-3.2085648,92.52125784,-1.5813640800000002,-45.4355694
0.8500000000000002,85,0.005,-0.917,-0.045,-24.694489800000003,-0.7448454000000001,-3.6669312000000014,92.25196758,-1.53552744,-45.4355694
0.8600000000000002,86,0.009000000000000001,-0.875,-0.036000000000000004,-27.043617600000005,-1.3178034,-4.8701430000000006,91.97694774,-1.4896908000000002,-45.45275814
0.8700000000000002,87,0.013,-0.8340000000000001,-0.031,-29.9657034,-0.4010706,-6.5317212,91.67328,-1.42666542,-45.45848772
0.8800000000000002,88,0.01,-0.797,-0.029,-33.6326346,0.1718874,-8.078707799999998,91.33523478,-1.35218088,-45.45848772
0.8900000000000001,89,0.002,-0.7559999999999999,-0.032,-36.898495200000006,0.3437748,-8.307891,90.9570825,-1.27196676,-45.45848772
0.9000000000000001,90,0.002,-0.723,-0.025,-40.680018,2.4064236,-6.8182002000000015,90.53882316,-1.2032117999999998,-45.4355694
0.9100000000000001,91,0.016,-0.684,-0.015,-44.690724,7.3911582,-4.6982556,90.08618634,-1.16310474,-45.36681444
0.9200000000000002,92,0.043,-0.6409999999999999,-0.015,-48.6441342,13.2353298,-2.5210152000000003,89.58771288,-1.1459160000000002,-45.24076368
0.9300000000000002,93,0.06,-0.608,-0.012,-53.456981400000004,16.7876694,-0.4583664000000001,89.03767320000001,-1.1459160000000002,-45.08033544
0.9400000000000002,94,0.067,-0.585,-0.003,-59.93140680000001,16.042824000000003,1.9480572,88.42460814,-1.1745638999999999,-44.92563678000001
0.9500000000000002,95,0.057,-0.562,0.011,-66.5777196,9.224623800000002,5.3285094000000015,87.74851770000002,-1.2318597,-44.84542266
0.9600000000000002,96,0.048,-0.534,0.013,-71.04679200000002,0.4583664000000001,8.8235532,87.02659062000002,-1.32353298,-44.84542266
0.9700000000000002,97,0.054000000000000006,-0.506,-0.004,-73.3959198,-5.5576926,11.172681,86.28174521999998,-1.44385416,-44.90271846
0.9800000000000002,98,0.053,-0.512,-0.049,-74.02617359999998,-10.5424272,11.172681,85.53689982,-1.56417534,-45.0058509
0.9900000000000002,99,0.045,-0.537,-0.085,-75.2293854,-13.6364004,8.59437,84.77486567999998,-1.6615782,-45.14336082
1.0000000000000002,100,0.016,-0.578,-0.081,-75.68775179999999,-15.813640800000002,5.042030400000002,84.01283154000002,-1.73033316,-45.29805948
1.0100000000000002,101,0.002,-0.6629999999999999,-0.032,-74.31265259999998,-16.042824000000003,0.6302538000000001,83.26798613999998,-1.75898106,-45.464217299999994
1.0200000000000002,102,-0.005,-0.797,0.021,-75.00020219999998,-15.527161800000002,-2.3491278,82.51168158,-1.75325148,-45.63037512
1.0300000000000002,103,-0.017,-0.934,0.011,-76.6617804,-15.6990492,-3.4950437999999995,81.74391786,-1.7475218999999995,-45.79653294000001
1.0400000000000003,104,-0.036000000000000004,-1.036,-0.039,-72.93755340000001,-15.2979786,-3.4377480000000005,81.01053162,-1.73606274,-45.96269076
1.0500000000000003,105,-0.054000000000000006,-1.089,-0.065,-60.7908438,-15.0687954,-2.9220857999999996,80.40319614,-1.73606274,-46.123119
1.0600000000000003,106,-0.079,-1.124,-0.064,-42.05511720000001,-15.813640800000002,-1.8334656000000005,79.9849368,-1.74179232,-46.28354724
1.0700000000000003,107,-0.098,-1.151,-0.058,-33.6326346,-15.870936600000002,-1.4896908000000002,79.64689158,-1.75325148,-46.44397548
1.0800000000000003,108,-0.093,-1.172,-0.07,-28.5333084,-12.3758928,-3.3231564,79.36614216000002,-1.7475218999999995,-46.57575582
1.0900000000000003,109,-0.062,-1.237,-0.111,-23.14750320000001,-7.3911582,-6.1879464,79.13122938000002,-1.6959556799999995,-46.66169952
1.1000000000000003,110,-0.022,-1.364,-0.13699999999999998,-20.1108258,-4.0680017999999984,-7.3911582,78.93642365999997,-1.6329303,-46.71899532
1.1100000000000003,111,0.018000000000000002,-1.4980000000000002,-0.126,-17.131444199999994,-2.9220857999999996,-5.9014674000000005,78.76453626,-1.5813640800000002,-46.75910238
1.1200000000000003,112,0.039,-1.6130000000000002,-0.127,-11.688343199999998,-2.4064236,-2.6929026,78.64421508000002,-1.55844576,-46.78775028
1.1300000000000001,113,0.022,-1.69,-0.12,-6.016058999999999,-2.0626488000000003,0.8594370000000001,78.58118970000002,-1.5756344999999998,-46.8106686
1.1400000000000001,114,-0.022,-1.7180000000000002,-0.141,1.0313244,-3.5523396000000003,2.86479,78.59837844,-1.61001198,-46.83931650000001
1.1500000000000001,115,-0.067,-1.763,-0.157,5.443101,-6.5317212,3.380452200000001,78.65567424,-1.65011904,-46.8966123
1.1600000000000001,116,-0.099,-1.829,-0.118,9.969469199999999,-11.229976800000001,2.9793816000000004,78.76453626,-1.6959556799999995,-46.99974474
1.1700000000000002,117,-0.095,-1.918,-0.115,13.980175199999998,-13.521808800000002,2.86479,78.90777576,-1.7475218999999995,-47.1257955
1.1800000000000002,118,-0.052000000000000005,-2.005,-0.106,17.5325148,-14.0947668,3.3231564,79.09112232,-1.79908812,-47.25184625999999
1.1900000000000002,119,0.0,-2.081,-0.081,21.199446,-13.0634424,4.4690724,79.31457594,-1.8621135,-47.37216744000001
1.2000000000000002,120,0.029,-2.123,-0.109,22.91832,-10.313244,5.3285094000000015,79.55521829999998,-1.93086846,-47.46384072
1.2100000000000002,121,0.027000000000000003,-2.14,-0.134,25.6685184,-6.875496000000001,5.72958,79.81877897999998,-1.99389384,-47.51540694
1.2200000000000002,122,-0.003,-2.154,-0.154,29.220858000000003,-3.2085648,5.5003968,80.11671714,-2.05118964,-47.53832526000001
1.2300000000000002,123,-0.043,-2.15,-0.159,31.054323600000004,-1.5469866,4.6982556,80.43184404,-2.09702628,-47.53832526000001
1.2400000000000002,124,-0.08800000000000001,-2.145,-0.16,33.6326346,-1.2032118,4.1252976000000015,80.76988926,-2.13140376,-47.54405484
1.2500000000000002,125,-0.139,-2.129,-0.156,35.46610020000001,-1.9480572,4.4690724,81.1308528,-2.1772404,-47.54978442
1.2600000000000002,126,-0.181,-2.106,-0.141,36.669312,-3.2085648,5.5003968,81.50900508000002,-2.2345362,-47.57270274
1.2700000000000002,127,-0.199,-2.084,-0.109,37.5860448,-3.6096354,6.6463128000000005,81.88715736,-2.29756158,-47.59562106
1.2800000000000002,128,-0.204,-2.047,-0.1,37.8725238,-3.0366774,7.333862400000001,82.2767688,-2.37204612,-47.6128098
1.2900000000000003,129,-0.19,-1.962,-0.119,37.8725238,-0.9740286,7.5630456000000015,82.66065066,-2.44080108,-47.60708021999999
1.3000000000000003,130,-0.161,-1.85,-0.16699999999999998,38.38818600000001,2.1199446,7.6776372,83.0502621,-2.51528562,-47.57270274
1.3100000000000003,131,-0.125,-1.72,-0.22,39.247623,4.8128472,7.7922288,83.44560312,-2.58404058,-47.50967736
1.3200000000000003,132,-0.086,-1.565,-0.26,41.4821592,7.7922288,8.193299399999999,83.85813288,-2.65279554,-47.42373366
1.3300000000000003,133,-0.036000000000000004,-1.388,-0.306,48.3003594,11.745639,9.167328,84.34514718,-2.73300966,-47.29195332
1.3400000000000003,134,0.02,-1.197,-0.337,56.149884,15.527161800000002,9.3392154,84.90091644,-2.8074942000000003,-47.1257955
1.3500000000000003,135,0.073,-1.007,-0.334,63.25456320000001,18.162768600000003,8.8235532,85.5139815,-2.87051958,-46.91953062
1.3600000000000003,136,0.08800000000000001,-0.809,-0.338,68.41118519999999,19.0222056,8.250595200000001,86.19580152,-2.93927454,-46.71899532
1.3700000000000003,137,0.08,-0.603,-0.305,71.33327100000002,17.0741484,8.479778399999999,86.90626943999996,-3.0137590800000003,-46.53564876
1.3800000000000003,138,0.042,-0.396,-0.237,70.30194660000001,14.5531332,11.172681,87.61100778,-3.11116194,-46.3809501
1.3900000000000003,139,-0.028,-0.189,-0.21,68.98414319999999,13.9228794,15.2979786,88.30428696,-3.26013102,-46.231981020000006
1.4000000000000004,140,-0.095,0.009000000000000001,-0.221,65.4890994,13.349921400000001,18.2200644,88.94027034,-3.44347758,-46.05436404
1.4100000000000004,141,-0.14300000000000002,0.181,-0.221,58.72819499999999,15.0114996,19.1367972,89.5246875,-3.63255372,-45.89966538
1.4200000000000004,142,-0.16,0.292,-0.165,48.414951,20.798375399999998,18.162768600000003,90.00024264,-3.810170700000002,-45.68767092
1.4300000000000004,143,-0.126,0.34,-0.07,37.6433406,29.8511118,15.6990492,90.36120618,-3.97632852,-45.38973276
1.4400000000000004,144,-0.084,0.308,-0.012,29.67922440000001,35.0650296,12.605076,90.63049644,-4.10810886,-45.04022838
1.4500000000000004,145,-0.067,0.17800000000000002,0.006999999999999999,24.064235999999998,37.1849742,10.1986524,90.84822048,-4.23415962,-44.63915778
1.4600000000000002,146,-0.076,0.055,0.038,16.2147114,37.7006364,9.3392154,90.98000082,-4.34302164,-44.26673508
1.4700000000000002,147,-0.09,-0.024,0.027000000000000003,9.568398599999998,36.2109456,8.479778399999999,91.0430262,-4.4404245000000016,-43.90577154
1.4800000000000002,148,-0.111,-0.099,0.014,3.7815227999999994,35.9244666,8.136003599999999,91.04875578,-4.53782736,-43.55053758
1.4900000000000002,149,-0.149,-0.13699999999999998,0.02,0.057295800000000015,35.809875,7.8495246,91.0143783,-4.629500640000002,-43.20103320000001
1.5000000000000002,150,-0.182,-0.128,0.062,-0.6302538000000001,38.90384820000001,6.9327918,90.98000082,-4.73263308,-42.80569218
1.5100000000000002,151,-0.183,-0.107,0.097,2.0626488000000003,47.1544434,6.3598338,90.95135292,-4.81857678,-42.34159620000001
1.5200000000000002,152,-0.145,-0.048,0.111,3.4377480000000005,56.3217714,5.6149884000000005,90.93416418,-4.898790900000002,-41.78009736
1.5300000000000002,153,-0.095,0.009000000000000001,0.096,5.042030400000002,62.96808420000001,3.9534102,90.92270502,-4.96181628,-41.15557314
1.5400000000000003,154,0.002,0.023,0.099,8.9954406,66.86419860000001,3.9534102,90.94562334,-5.03057124,-40.49667144
1.5500000000000003,155,0.05,0.016,0.09,11.516455800000001,67.3798608,5.2712136,91.00864872,-5.10505578,-39.820581
1.5600000000000003,156,0.09,0.017,0.063,11.8029348,64.457775,5.5003968,91.06021494,-5.19099948,-39.17886804
1.5700000000000003,157,0.127,0.034,0.059,11.4018642,58.8427866,4.8128472,91.11751074,-5.2654840200000015,-38.59445088
1.5800000000000003,158,0.157,0.05,0.058,11.229976800000001,54.029939399999996,3.151269,91.17480654,-5.31705024,-38.05587036
1.5900000000000003,159,0.179,0.053,0.035,11.229976800000001,49.7327544,1.8907613999999997,91.23210234,-5.3628868800000005,-37.56312648
1.6000000000000003,160,0.18,0.045,0.03,13.0061466,46.065823200000004,1.8907613999999997,91.31804604,-5.39153478,-37.09330092
1.6100000000000003,161,0.16,0.016,0.016,16.615782,44.690724,3.4377480000000005,91.43836722,-5.443101,-36.64639368
1.6200000000000003,162,0.141,-0.006,-0.016,19.3659804,44.117766,6.016058999999999,91.5873363,-5.5290447,-36.2109456
1.6300000000000003,163,0.109,-0.02,-0.061,21.199446,41.4248634,8.078707799999998,91.7592237,-5.62644756,-35.79841584000001
1.6400000000000003,164,0.026,-0.059,-0.07400000000000001,19.6524594,34.7785506,9.224623800000002,91.91965194,-5.74103916,-35.45464104
1.6500000000000004,165,-0.01,-0.151,-0.02,7.6203414,44.117766,8.4224826,91.94257026,-5.849901179999999,-35.01346338
1.6600000000000004,166,0.026,-0.244,-0.16399999999999998,-9.453807000000001,54.08723520000001,5.2139178,91.78214202,-5.93584488,-34.48061244
1.6700000000000004,167,-0.047,-0.436,-0.125,-21.3713334,41.1383844,-0.2291832000000001,91.51858134,-5.958763200000001,-34.07381226
1.6800000000000004,168,-0.103,-0.726,-0.14300000000000002,-41.76863820000001,46.8106686,-8.3651868,91.0430262,-5.9014674000000005,-33.61544586
1.6900000000000004,169,-0.095,-1.161,-0.293,-71.79163740000001,63.59833800000001,-21.485925,90.240885,-5.71812084,-32.98519206
1.7000000000000004,170,-0.018000000000000002,-1.926,-0.607,-116.6542488,87.26150340000002,-35.2942128,88.95745908,-5.39153478,-32.13721422
1.7100000000000004,171,-0.032,-3.3310000000000004,-0.459,-155.558097,77.0055552,-43.258329,87.30161045999998,-4.97327544,-31.40382798
1.7200000000000004,172,-0.083,-3.409,0.512,-51.56622,41.9405256,-19.9962342,86.74011162,-4.76701056,-31.00275738
1.7300000000000004,173,0.07400000000000001,-2.915,0.494,-4.010706000000001,27.1582092,-4.8128472,86.67135666,-4.71544434,-30.73346712
1.7400000000000004,174,0.054000000000000006,-2.097,-0.021,-16.272007199999994,11.2872726,-4.4690724,86.49946926,-4.66387812,-30.624605100000004
1.7500000000000004,175,0.026,-1.905,-0.197,10.886202,4.3544808,-12.3758928,86.60260170000002,-4.53782736,-30.59022762
1.7600000000000005,176,-0.114,-2.3040000000000003,-0.256,16.615782,-2.1199446,-26.4706596,86.7744891,-4.27426668,-30.624605100000004
1.7700000000000002,177,-0.268,-2.8110000000000004,-0.199,1.9480572,-7.3911582,-41.19568020000001,86.80313699999998,-3.8674665,-30.71627838
1.7800000000000002,178,-0.277,-2.752,-0.029,-3.8961144,-17.3606274,-38.7892566,86.7744891,-3.48931422,-30.9110841
1.7900000000000003,179,-0.08900000000000001,-2.3080000000000003,0.11,3.5523396000000003,-27.6165756,-21.3713334,86.83178489999996,-3.28304934,-31.197563100000004
1.8000000000000003,180,0.118,-1.956,0.172,19.2513888,-36.096354,-1.5469866,87.05523852,-3.27159018,-31.55279706
1.8100000000000003,181,0.196,-1.6880000000000002,0.2,27.9603504,-39.877876799999996,13.349921400000001,87.36463583999998,-3.4148296799999995,-31.93667892
1.8200000000000003,182,0.154,-1.509,0.221,32.7159018,-37.7006364,22.5172494,87.72559937999998,-3.6382833,-32.29764246
1.8300000000000003,183,0.057,-1.411,0.248,34.66395900000001,-34.7212548,25.210152,88.10375166,-3.89038482,-32.6299581
1.8400000000000003,184,-0.019,-1.31,0.245,35.52339600000001,-33.3461556,20.2254174,88.4933631,-4.09092012,-32.95081458
1.8500000000000003,185,-0.05,-1.187,0.213,36.2109456,-32.830493399999995,7.2765666,88.90016328,-4.1539455,-33.27740064
1.8600000000000003,186,-0.047,-1.069,0.16699999999999998,36.898495200000006,-32.7731976,-3.6096354,89.30696345999998,-4.10810886,-33.59825712
1.8700000000000003,187,-0.052000000000000005,-0.971,0.112,37.1276784,-33.804522,-8.9954406,89.70803406,-4.010706,-33.93057276
1.8800000000000003,188,-0.071,-0.9,0.042,36.1536498,-35.9244666,-9.740286,90.10910466,-3.90184398,-34.28580672
1.8900000000000003,189,-0.128,-0.848,-0.024,31.971056400000002,-37.5860448,-6.990087599999999,90.45860904,-3.81590028,-34.652499840000004
1.9000000000000004,190,-0.181,-0.8079999999999999,-0.077,24.064235999999998,-37.2995658,-2.578311,90.72216972,-3.79298196,-35.0077338
1.9100000000000004,191,-0.225,-0.763,-0.124,15.0687954,-34.7212548,2.8074942000000003,90.8997867,-3.80444112,-35.34577901999999
1.9200000000000004,192,-0.251,-0.6970000000000001,-0.163,6.8182002000000015,-29.2781538,8.7089616,90.99145998,-3.87892566,-35.63798759999999
1.9300000000000004,193,-0.238,-0.64,-0.174,0.4010706,-21.829699800000004,13.6364004,91.0143783,-4.00497642,-35.85571164
1.9400000000000004,194,-0.2,-0.5760000000000001,-0.154,-4.8128472,-14.7823164,16.272007199999994,90.98000082,-4.15967508,-36.01041030000001
1.9500000000000004,195,-0.152,-0.527,-0.131,-8.250595200000001,-11.516455800000001,15.0114996,90.89405712,-4.31437374,-36.11354274
1.9600000000000004,196,-0.098,-0.508,-0.108,-10.8289062,-11.172681,11.6310474,90.79665426,-4.42323576,-36.22813434
1.9700000000000004,197,-0.047,-0.524,-0.086,-12.605076,-12.9488508,7.3911582,90.67633308,-4.49199072,-36.35991468
1.9800000000000004,198,-0.025,-0.561,-0.076,-13.6364004,-16.386598799999998,2.9793816000000004,90.5560119,-4.5206386200000015,-36.5260725
1.9900000000000004,199,-0.025,-0.607,-0.066,-13.521808800000002,-20.511896399999998,-1.2605076000000002,90.43569072,-4.4977203,-36.73233738
2.0000000000000004,200,-0.054000000000000006,-0.659,-0.054000000000000006,-13.2353298,-23.777757,-5.2712136,90.31536954,-4.4404245000000016,-36.96152058
2.0100000000000002,201,-0.098,-0.6940000000000001,-0.047,-13.2926256,-24.923673,-8.9954406,90.20077794,-4.34302164,-37.2136221
2.02,202,-0.14300000000000002,-0.723,-0.034,-13.9228794,-22.91832,-12.6623718,90.08045676,-4.211241299999998,-37.4428053
2.0300000000000002,203,-0.166,-0.7509999999999999,-0.019,-15.3552744,-17.8762896,-15.0114996,89.94294684,-4.06227222,-37.62042228
2.04,204,-0.177,-0.778,-0.011,-17.7044022,-12.032117999999999,-16.8449652,89.77105944,-3.89038482,-37.74074346
2.0500000000000003,205,-0.181,-0.81,-0.005,-19.8243468,-6.9327918,-17.761698000000006,89.57052414,-3.7299565800000014,-37.80376884
2.06,206,-0.184,-0.857,-0.006,-21.829699800000004,-2.3491278,-18.2773602,89.3528001,-3.5523396000000003,-37.83241674
2.0700000000000003,207,-0.19,-0.933,-0.008,-25.0382646,3.380452200000001,-18.6784308,89.09496899999998,-3.3689930400000003,-37.80376884
2.08,208,-0.196,-1.058,-0.029,-29.793816,11.0007936,-19.2513888,88.78557168,-3.1799169000000003,-37.7006364
2.0900000000000003,209,-0.187,-1.197,-0.065,-37.24227,20.626488,-19.8243468,88.39023066,-2.98511118,-37.50583068
2.1,210,-0.156,-1.368,-0.107,-43.0864416,26.929026,-19.480572,87.93759384,-2.79603504,-37.24799958000001
2.1100000000000003,211,-0.098,-1.5019999999999998,-0.095,-40.393539,24.923673,-16.615782,87.50787534,-2.6356068,-37.00735722
2.12,212,0.019,-1.579,-0.065,-28.361421000000004,18.162768600000003,-9.8548776,87.20993718,-2.53247436,-36.83546982
2.1300000000000003,213,0.191,-1.56,-0.032,-13.8082878,8.7089616,-0.6875496,87.06669767999998,-2.52674478,-36.755255700000006
2.14,214,0.316,-1.4480000000000002,0.011,-3.2085648,-1.8907613999999997,6.130650599999999,87.03232019999999,-2.58977016,-36.76671485999999
2.1500000000000004,215,0.298,-1.304,0.041,2.4637194,-13.120738199999998,9.3965112,87.07815683999998,-2.65852512,-36.90422478
2.16,216,0.157,-1.163,0.07400000000000001,7.3911582,-21.8869956,9.797581800000001,87.16410053999998,-2.76165756,-37.11621924
2.1700000000000004,217,-0.005,-1.094,0.093,12.261301199999998,-23.835052800000003,7.9641161999999985,87.30161045999998,-2.84187168,-37.34540244
2.18,218,-0.142,-1.05,0.093,11.745639,-19.308684600000007,4.1825934,87.4333908,-2.88770832,-37.53447858
2.1900000000000004,219,-0.223,-1.004,0.087,9.1100322,-14.0947668,-0.11459160000000004,87.53652324,-2.88770832,-37.67198850000001
2.2,220,-0.247,-0.955,0.08,7.3911582,-8.193299399999999,-3.6096354,87.65684442,-2.9220858,-37.74074346
2.2100000000000004,221,-0.25,-0.901,0.04,6.5317212,-2.5210152000000003,-5.6149884000000005,87.72559937999998,-2.87051958,-37.76939136
2.22,222,-0.226,-0.8590000000000001,0.008,3.6669312000000014,1.7188740000000002,-5.72958,87.75997686000002,-2.81322378,-37.75220262000001
2.2300000000000004,223,-0.17800000000000002,-0.8370000000000001,-0.022,0.057295800000000015,4.297185,-4.583664,87.75997686000002,-2.76738714,-37.71209556
2.24,224,-0.095,-0.8440000000000001,-0.052000000000000005,-3.4950437999999995,4.4690724,-2.8074942000000003,87.7198698,-2.73873924,-37.67198850000001
2.25,225,-0.022,-0.863,-0.07,-5.72958,3.0366774,-0.4583664000000001,87.6339261,-2.71582092,-37.63188144
2.2600000000000002,226,0.018000000000000002,-0.8859999999999999,-0.085,-6.760904399999999,-0.286479,0.7448454000000001,87.56517113999998,-2.7215505,-37.63761102
2.27,227,0.03,-0.916,-0.092,-8.307891,-5.6722842,0.8594370000000001,87.48495702,-2.73300966,-37.68917724000001
2.2800000000000002,228,0.031,-0.929,-0.09,-8.5370742,-11.45916,0.0,87.4047429,-2.73873924,-37.80949842
2.29,229,0.017,-0.937,-0.077,-6.875496000000001,-16.329303,-1.3750992,87.34171752,-2.72728008,-37.96992666
2.3000000000000003,230,0.0,-0.948,-0.073,-4.6982556,-20.7410796,-2.86479,87.29588088,-2.6929026,-38.17619154000001
2.31,231,-0.021,-0.963,-0.073,-2.86479,-24.1788276,-3.6669312000000014,87.27869214,-2.65852512,-38.4168339
2.3200000000000003,232,-0.044,-0.977,-0.066,-1.3178034,-26.1841806,-3.2658606,87.28442172,-2.6356068,-38.67466500000001
2.33,233,-0.066,-0.993,-0.055,0.9167328,-27.3873924,-1.6615782,87.30734004,-2.62414764,-38.94968484
2.3400000000000003,234,-0.085,-1.015,-0.044,3.8961144,-28.5333084,0.3437748,87.36463583999998,-2.62987722,-39.23043426
2.35,235,-0.094,-1.033,-0.036000000000000004,5.9014674000000005,-28.991674800000002,2.1772404,87.43912037999998,-2.6642547000000003,-39.51118368
2.3600000000000003,236,-0.095,-1.041,-0.026,7.6203414,-28.1895336,3.2085648,87.53079366,-2.69863218,-39.78620352
2.37,237,-0.085,-1.044,-0.01,9.9121734,-26.2414764,3.380452200000001,87.65111484,-2.73873924,-40.04403462
2.3800000000000003,238,-0.07400000000000001,-1.041,0.004,11.917526400000002,-24.2361234,2.8074942000000003,87.78862475999998,-2.76738714,-40.28467698
2.39,239,-0.057,-1.033,0.024,13.178034,-22.058883,1.8907613999999997,87.93186426,-2.79030546,-40.50240102
2.4000000000000004,240,-0.034,-1.016,0.041,14.7250206,-20.340009,1.2032118,88.10948124000002,-2.79603504,-40.7086659
2.41,241,-0.019,-0.997,0.048,16.157415599999997,-19.6524594,0.6875496,88.28136864,-2.80176462,-40.89774204
2.4200000000000004,242,-0.015,-0.984,0.048,16.1001198,-19.7097552,0.5156622000000001,88.45898561999998,-2.8074942000000003,-41.09254776
2.43,243,-0.021,-0.977,0.047,15.126091199999998,-19.308684600000007,0.4583664000000001,88.62514344,-2.8074942000000003,-41.2816239
2.4400000000000004,244,-0.034,-0.979,0.05,14.037471,-18.621135,0.286479,88.7798421,-2.8074942000000003,-41.46497046
2.45,245,-0.047,-0.99,0.048,13.6936962,-18.048177,0.5156622000000001,88.94027034,-2.81322378,-41.64831702
2.4600000000000004,246,-0.061,-1.004,0.044,13.2926256,-17.303331600000003,0.8594370000000001,89.08350984,-2.81895336,-41.81447484
2.47,247,-0.071,-1.004,0.043,12.834259199999998,-15.870936600000002,1.3178034,89.22674934,-2.83041252,-41.9691735
2.4800000000000004,248,-0.08,-0.995,0.04,12.9488508,-14.5531332,2.0626488000000003,89.36998884,-2.84760126,-42.112413
2.49,249,-0.083,-0.985,0.041,13.178034,-12.891555,3.0366774,89.50749876,-2.87051958,-42.23846376
2.5000000000000004,250,-0.078,-0.976,0.043,13.0634424,-11.1153852,3.6096354,89.65646783999998,-2.91062664,-42.34732578
2.5100000000000002,251,-0.067,-0.972,0.047,13.178034,-9.453807000000001,3.724227,89.79970734,-2.94500412,-42.44472864
2.5200000000000005,252,-0.055,-0.974,0.051,13.120738199999998,-8.136003599999999,3.4377480000000005,89.93721726,-2.9793816000000004,-42.51921318
2.5300000000000002,253,-0.041,-0.98,0.052000000000000005,12.834259199999998,-6.990087599999999,2.8074942000000003,90.06899759999996,-3.00229992,-42.58796814
2.5400000000000005,254,-0.026,-0.985,0.054000000000000006,12.4331886,-5.7868758000000025,1.9480572,90.20077794,-3.01948866,-42.64526393999999
2.5500000000000003,255,-0.014,-0.992,0.055,11.8602306,-4.5263682,1.2032118,90.33828786,-3.0080295,-42.70255974000001
2.5600000000000005,256,-0.006,-1.002,0.054000000000000006,11.172681,-3.5523396000000003,0.6875496,90.45287946,-3.0137590800000003,-42.73693722
2.5700000000000003,257,-0.008,-1.01,0.051,10.5424272,-2.86479,0.3437748,90.56174148,-3.0137590800000003,-42.75985554
2.58,258,-0.016,-1.02,0.046,9.797581800000001,-2.2345362,0.2291832000000001,90.66487392,-3.0137590800000003,-42.78277386
2.5900000000000003,259,-0.028,-1.027,0.044,9.2819196,-1.6042823999999998,0.057295800000000015,90.7565472,-3.0137590800000003,-42.7999626
2.6,260,-0.042,-1.033,0.045,8.9381448,-0.6302538000000001,-0.11459160000000004,90.85967964,-3.00229992,-42.81142176
2.6100000000000003,261,-0.059,-1.038,0.046,8.5370742,0.6875496,-0.286479,90.94562334,-3.00229992,-42.7999626
2.62,262,-0.07,-1.039,0.045,7.9641161999999985,2.0626488000000003,-0.572958,91.02583746,-2.9965703400000003,-42.77704428
2.6300000000000003,263,-0.079,-1.038,0.042,7.2765666,3.151269,-0.7448454000000001,91.09459242,-2.99084076,-42.74839638
2.64,264,-0.087,-1.031,0.043,6.589017,4.1825934,-0.7448454000000001,91.1576178,-2.9793816000000004,-42.70255974000001
2.6500000000000004,265,-0.08800000000000001,-1.025,0.044,5.6722842,6.3598338,-0.5156622000000001,91.2149136,-2.9965703400000003,-42.63380478
2.66,266,-0.083,-1.026,0.047,4.9274388,8.4224826,-0.3437748,91.25502066,-2.9965703400000003,-42.54786108
2.6700000000000004,267,-0.07,-1.029,0.053,4.4117766,10.7143146,-0.4010706,91.29512772,-2.9965703400000003,-42.44472864
2.68,268,-0.059,-1.03,0.054000000000000006,4.1252976000000015,12.605076,-0.5156622000000001,91.3295052,-2.9965703400000003,-42.31867788
2.6900000000000004,269,-0.05,-1.028,0.054000000000000006,3.724227,13.6936962,-0.6302538000000001,91.3581531,-2.9965703400000003,-42.18116796
2.7,270,-0.043,-1.02,0.054000000000000006,3.380452200000001,14.7823164,-0.6875496,91.386801,-2.99084076,-42.03792846
2.7100000000000004,271,-0.039,-1.013,0.05,2.86479,15.6417534,-0.6875496,91.40398974,-2.99084076,-41.883229799999995
2.72,272,-0.033,-1.004,0.043,2.4637194,16.1001198,-0.6875496,91.42117848,-2.99084076,-41.72280156
2.7300000000000004,273,-0.03,-0.996,0.038,2.0626488000000003,16.157415599999997,-0.6875496,91.43263764,-2.99084076,-41.56237331999999
2.74,274,-0.031,-0.994,0.039,1.6042823999999998,15.756345000000001,-0.6302538000000001,91.43836722,-2.9965703400000003,-41.40767466000001
2.7500000000000004,275,-0.03,-0.996,0.043,0.9740286,15.2979786,-0.6875496,91.43836722,-2.98511118,-41.25870558
2.7600000000000002,276,-0.03,-1.002,0.048,0.572958,14.7250206,-0.8594370000000001,91.43263764,-2.9793816000000004,-41.1097365
2.7700000000000005,277,-0.025,-1.008,0.057,0.7448454000000001,14.32395,-1.0313244,91.43263764,-2.9793816000000004,-40.966497
2.7800000000000002,278,-0.016,-1.014,0.064,1.2605076000000002,13.9228794,-1.3178034,91.43263764,-2.9736520200000003,-40.82898708000001
2.7900000000000005,279,-0.008,-1.019,0.071,1.6615782,13.120738199999998,-1.6042823999999998,91.4440968,-2.96219286,-40.69720674
2.8000000000000003,280,-0.001,-1.017,0.086,2.2345362,12.0894138,-1.8334656000000005,91.47847428,-2.9220858,-40.5940743
2.8100000000000005,281,0.0,-1.01,0.091,2.6356068,10.7143146,-1.8907613999999997,91.49566302,-2.91062664,-40.48521228
2.8200000000000003,282,-0.006999999999999999,-1.007,0.096,2.5210152000000003,9.568398599999998,-1.9480572,91.51858134,-2.8934379,-40.393539
2.8300000000000005,283,-0.021,-1.003,0.1,2.1772404,8.7662574,-1.9480572,91.53577008,-2.87624916,-40.30186572
2.8400000000000003,284,-0.036000000000000004,-1.007,0.1,1.7188740000000002,8.880849000000003,-2.1199446,91.54722924,-2.85906042,-40.21592202
2.8500000000000005,285,-0.044,-1.012,0.099,1.3750992,9.453807000000001,-2.2345362,91.58160672,-2.84187168,-40.12997832
2.8600000000000003,286,-0.049,-1.016,0.097,1.0313244,10.1986524,-2.291832,91.5873363,-2.81895336,-40.03257546
2.8700000000000006,287,-0.051,-1.019,0.092,0.8021411999999999,11.0580894,-2.291832,91.5873363,-2.8074942000000003,-39.91798386
2.8800000000000003,288,-0.045,-1.019,0.085,0.5156622000000001,11.745639,-2.1772404,91.5873363,-2.79030546,-39.80339226
2.8900000000000006,289,-0.039,-1.016,0.081,0.4583664000000001,12.4331886,-1.8907613999999997,91.5873363,-2.7788463,-39.6773415
2.9000000000000004,290,-0.035,-1.012,0.08,0.5156622000000001,12.6623718,-1.6615782,91.59879546,-2.75592798,-39.5627499
2.91,291,-0.03,-1.008,0.078,0.7448454000000001,12.6623718,-1.432395,91.59879546,-2.7501984,-39.43669914
2.9200000000000004,292,-0.026,-1.008,0.077,0.6875496,12.318597,-1.2605076000000002,91.59879546,-2.74446882,-39.31064838
2.93,293,-0.023,-1.007,0.075,0.5156622000000001,12.1467096,-1.145916,91.59879546,-2.73873924,-39.19032720000001
2.9400000000000004,294,-0.018000000000000002,-1.006,0.073,0.572958,12.261301199999998,-0.9740286,91.59306588,-2.73300966,-39.07000602
2.95,295,-0.013,-1.006,0.07400000000000001,0.7448454000000001,12.1467096,-0.8021411999999999,91.61025462,-2.71009134,-38.961144
2.9600000000000004,296,-0.014,-1.002,0.075,1.0886202,11.8602306,-0.5156622000000001,91.6159842,-2.71009134,-38.8465524
2.97,297,-0.018000000000000002,-1.001,0.073,1.0886202,10.9434978,-0.286479,91.62171378,-2.71582092,-38.73769038
2.9800000000000004,298,-0.024,-1.002,0.073,0.9740286,9.797581800000001,-0.057295800000000015,91.62744336,-2.71582092,-38.64028752
2.99,299,-0.027000000000000003,-1.005,0.07400000000000001,0.9167328,9.3392154,0.0,91.62744336,-2.7215505,-38.54861424
3.0000000000000004,300,-0.028,-1.01,0.076,0.8594370000000001,9.3392154,0.0,91.65036168,-2.71009134,-38.46840012
3.0100000000000002,301,-0.025,-1.013,0.073,0.9167328,9.167328,-0.057295800000000015,91.65609126,-2.71582092,-38.37672684
3.0200000000000005,302,-0.019,-1.013,0.071,0.9167328,8.7662574,-0.057295800000000015,91.66182084,-2.71582092,-38.29078314
3.0300000000000002,303,-0.013,-1.009,0.067,0.8594370000000001,8.193299399999999,0.057295800000000015,91.66182084,-2.7215505,-38.20483944
3.0400000000000005,304,-0.009000000000000001,-1.005,0.066,0.8594370000000001,7.161975,0.1718874,91.66755042,-2.72728008,-38.13608448
3.0500000000000003,305,-0.009000000000000001,-1.002,0.064,0.8021411999999999,5.844171599999999,0.2291832000000001,91.69046874,-2.68144344,-38.09597742
3.0600000000000005,306,-0.012,-1.001,0.063,0.6302538000000001,5.0993262,0.1718874,91.69046874,-2.68717302,-38.0444112
3.0700000000000003,307,-0.015,-1.005,0.063,0.8594370000000001,4.583664,0.11459160000000004,91.69619832,-2.6929026,-37.99857456
3.0800000000000005,308,-0.019,-1.005,0.063,0.9740286,3.9534102,-0.11459160000000004,91.70765748,-2.6929026,-37.9584675
3.0900000000000003,309,-0.024,-1.007,0.066,1.3178034,3.5523396000000003,-0.2291832000000001,91.71911664,-2.6929026,-37.92409002
3.1000000000000005,310,-0.026,-1.007,0.069,1.5469866,3.151269,-0.3437748,91.7592237,-2.64706596,-37.91263086
3.1100000000000003,311,-0.025,-1.005,0.071,1.7188740000000002,2.7501984,-0.4010706,91.77641244,-2.64706596,-37.88398296
3.1200000000000006,312,-0.025,-1.005,0.07200000000000001,1.8907613999999997,2.3491278,-0.4010706,91.79360118,-2.6413363800000003,-37.86106464
3.1300000000000003,313,-0.022,-1.005,0.07200000000000001,1.8334656000000005,2.0626488000000003,-0.572958,91.81078992,-2.6413363800000003,-37.84387589999999
3.1400000000000006,314,-0.019,-1.006,0.071,1.8907613999999997,1.8907613999999997,-0.6875496,91.82797866,-2.62987722,-37.82095758
3.1500000000000004,315,-0.018000000000000002,-1.008,0.07,1.7188740000000002,1.4896908000000002,-0.7448454000000001,91.88527446,-2.55539268,-37.83814632
3.1600000000000006,316,-0.019,-1.011,0.071,1.6615782,1.0886202,-0.6875496,91.89673362,-2.5496631,-37.82668716
3.1700000000000004,317,-0.022,-1.01,0.069,1.5469866,0.7448454000000001,-0.5156622000000001,91.91392236,-2.54393352,-37.81522800000001
3.1800000000000006,318,-0.028,-1.012,0.065,1.0313244,0.2291832000000001,-0.4010706,91.92538152,-2.54393352,-37.81522800000001
3.1900000000000004,319,-0.035,-1.014,0.068,0.11459160000000004,-0.1718874,-0.3437748,91.92538152,-2.53820394,-37.81522800000001
3.2000000000000006,320,-0.038,-1.017,0.07400000000000001,-0.6302538000000001,-0.6302538000000001,-0.5156622000000001,91.97121816,-2.50382646,-37.84387589999999
3.2100000000000004,321,-0.037000000000000005,-1.017,0.075,-1.0886202,-1.3750992,-0.572958,91.959759,-2.49809688,-37.86106464
3.22,322,-0.032,-1.015,0.075,-1.5469866,-2.1199446,-0.6302538000000001,91.94257026,-2.48663772,-37.87825338
3.2300000000000004,323,-0.028,-1.014,0.073,-1.8334656000000005,-2.6929026,-0.6302538000000001,91.92538152,-2.48090814,-37.90690128
3.24,324,-0.025,-1.013,0.071,-1.9480572,-2.6929026,-0.6302538000000001,91.90819278,-2.47517856,-37.93554918
3.2500000000000004,325,-0.022,-1.017,0.07,-1.6615782,-2.291832,-0.6302538000000001,91.91965194,-2.42361234,-37.97565624
3.2600000000000002,326,-0.025,-1.026,0.07200000000000001,-1.432395,-2.3491278,-0.6875496,91.9024632,-2.41788276,-37.99857456
3.2700000000000005,327,-0.029,-1.031,0.076,-1.3750992,-2.7501984,-0.8021411999999999,91.89100404,-2.4064236,-38.02722246
3.2800000000000002,328,-0.038,-1.024,0.077,-1.3750992,-3.2658606,-0.6875496,91.87954488,-2.40069402,-38.06159994
3.2900000000000005,329,-0.042,-1.012,0.077,-1.2032118,-3.2085648,-0.3437748,91.86808572,-2.39496444,-38.09024784
3.3000000000000003,330,-0.047,-1.003,0.07400000000000001,-0.9740286,-2.86479,-0.057295800000000015,91.89673362,-2.39496444,-38.1303549
3.3100000000000005,331,-0.053,-1.0,0.073,-0.9167328,-2.2345362,0.057295800000000015,91.88527446,-2.39496444,-38.15327322
3.3200000000000003,332,-0.054000000000000006,-1.002,0.069,-0.9740286,-1.9480572,0.11459160000000004,91.87954488,-2.39496444,-38.17046196
3.3300000000000005,333,-0.052000000000000005,-1.006,0.066,-1.3178034,-1.432395,0.2291832000000001,91.86808572,-2.40069402,-38.187650700000006
3.3400000000000003,334,-0.044,-1.006,0.065,-1.3750992,-1.2605076000000002,0.286479,91.85089698,-2.40069402,-38.19910986
3.3500000000000005,335,-0.038,-1.001,0.064,-1.3750992,-1.145916,0.2291832000000001,91.86808572,-2.37204612,-38.22775776
3.3600000000000003,336,-0.031,-0.993,0.063,-1.0886202,-1.145916,0.11459160000000004,91.85662656,-2.37204612,-38.23921692
3.3700000000000006,337,-0.027000000000000003,-0.99,0.062,-0.9740286,-1.2032118,0.0,91.84516740000001,-2.37204612,-38.25067608
3.3800000000000003,338,-0.028,-0.991,0.061,-1.0313244,-1.432395,0.0,91.83370824,-2.37204612,-38.26786482
3.3900000000000006,339,-0.029,-0.995,0.065,-0.9740286,-1.7761698,-0.057295800000000015,91.82797866,-2.37204612,-38.28505356
3.4000000000000004,340,-0.033,-0.999,0.067,-0.7448454000000001,-1.9480572,0.0,91.86235614,-2.3376686399999995,-38.32516062000001
3.4100000000000006,341,-0.037000000000000005,-1.004,0.065,-0.286479,-1.7761698,0.057295800000000015,91.85662656,-2.3376686399999995,-38.34234936
3.4200000000000004,342,-0.04,-1.008,0.065,0.0,-1.5469866,0.11459160000000004,91.85662656,-2.3376686399999995,-38.3595381
3.4300000000000006,343,-0.044,-1.007,0.066,0.4010706,-1.3178034,0.2291832000000001,91.86235614,-2.3376686399999995,-38.37672684
3.4400000000000004,344,-0.048,-1.007,0.069,0.8021411999999999,-1.2605076000000002,0.2291832000000001,91.8738153,-2.34339822,-38.38818600000001
3.4500000000000006,345,-0.048,-1.006,0.071,0.8021411999999999,-1.0886202,0.11459160000000004,91.95402942,-2.3491277999999998,-38.4168339
3.4600000000000004,346,-0.048,-1.009,0.07200000000000001,0.6302538000000001,-0.7448454000000001,-0.11459160000000004,91.959759,-2.3491277999999998,-38.42256348
3.47,347,-0.05,-1.011,0.07400000000000001,0.3437748,-0.057295800000000015,-0.4010706,91.96548857999998,-2.34339822,-38.42256348
