TimeStamp(s),FrameCounter,AccX,AccY,AccZ,GyrX,GyrY,GyrZ,EulerX,EulerY,EulerZ
0.01,1,-0.056,-1.003,0.076,0.1718874,1.5469866,-1.2032118,94.32607554,-1.59282324,-50.993262
0.02,2,-0.051,-1.006,0.073,0.572958,2.5210152000000003,-1.0886202,94.33180511999998,-1.5813640800000002,-50.9646141
0.03,3,-0.048,-1.007,0.073,0.6875496,3.3231564,-0.7448454000000001,94.3375347,-1.5756344999999998,-50.93023662
0.04,4,-0.047,-1.006,0.07200000000000001,0.8021411999999999,3.3231564,-0.572958,94.28596848,-1.61001198,-50.89585913999999
0.05,5,-0.047,-1.005,0.073,0.8021411999999999,3.6096354,-0.4010706,94.29169806,-1.61001198,-50.86148166
0.060000000000000005,6,-0.049,-1.005,0.07400000000000001,0.9740286,3.7815227999999994,-0.2291832000000001,94.29742764,-1.61001198,-50.82137460000001
0.06999999999999999,7,-0.051,-1.005,0.076,1.0886202,4.1252976000000015,-0.3437748,94.3088868,-1.61001198,-50.78126754
0.08,8,-0.051,-1.007,0.076,1.145916,4.583664,-0.5156622000000001,94.32034596,-1.61001198,-50.7354309
0.09,9,-0.051,-1.007,0.076,1.2032118,4.6982556,-0.572958,94.29169806,-1.6386598799999998,-50.68959425999999
0.09999999999999999,10,-0.046,-1.007,0.075,1.0313244,4.8128472,-0.8021411999999999,94.29742764,-1.6329303,-50.63802804
0.11,11,-0.04,-1.008,0.076,0.9740286,5.042030400000002,-0.8021411999999999,94.3088868,-1.6329303,-50.58646182
0.12,12,-0.037000000000000005,-1.007,0.075,0.9167328,5.042030400000002,-0.7448454000000001,94.31461638,-1.6272007199999998,-50.5348956
0.13,13,-0.035,-1.005,0.07400000000000001,0.8594370000000001,4.8701430000000006,-0.8021411999999999,94.32034596,-1.6272007199999998,-50.48905896
0.14,14,-0.035,-1.002,0.075,0.6875496,4.6982556,-0.7448454000000001,94.2802389,-1.6272007199999998,-50.43749274
0.15000000000000002,15,-0.035,-0.999,0.07400000000000001,0.572958,4.4690724,-0.8021411999999999,94.28596848,-1.62147114,-50.3916561
0.16,16,-0.037000000000000005,-0.998,0.075,0.4583664000000001,4.2398892,-0.7448454000000001,94.28596848,-1.62147114,-50.35154904
0.17,17,-0.039,-1.0,0.076,0.2291832000000001,4.1825934,-0.8021411999999999,94.29169806,-1.6157415599999996,-50.3057124
0.18000000000000002,18,-0.041,-1.003,0.076,0.11459160000000004,3.9534102,-0.7448454000000001,94.28596848,-1.61001198,-50.26560533999999
0.19,19,-0.041,-1.007,0.076,0.0,3.8961144,-0.6875496,94.23440226,-1.6272007199999998,-50.22549828
0.2,20,-0.039,-1.008,0.075,0.0,3.8961144,-0.6302538000000001,94.23440226,-1.62147114,-50.18539122
0.21000000000000002,21,-0.036000000000000004,-1.008,0.077,0.1718874,3.8388186,-0.6302538000000001,94.23440226,-1.62147114,-50.15101374
0.22,22,-0.033,-1.006,0.077,0.3437748,3.7815227999999994,-0.7448454000000001,94.23440226,-1.6157415599999996,-50.11090668000001
0.23,23,-0.032,-1.005,0.077,0.4583664000000001,3.4950437999999995,-0.8594370000000001,94.24013184,-1.61001198,-50.0765292
0.24000000000000002,24,-0.032,-1.004,0.078,0.572958,3.151269,-0.9167328,94.1942952,-1.6042824000000002,-50.03642214
0.25,25,-0.032,-1.003,0.078,0.4583664000000001,2.8074942000000003,-0.9740286,94.20002478,-1.59855282,-50.01350382
0.26,26,-0.031,-1.004,0.079,0.572958,2.291832,-0.8594370000000001,94.20575436,-1.59282324,-49.98485592
0.27,27,-0.033,-1.004,0.083,0.4583664000000001,1.8334656000000005,-0.8021411999999999,94.21148394,-1.5813640800000002,-49.96766718
0.28,28,-0.034,-1.004,0.083,0.4010706,1.7188740000000002,-0.7448454000000001,94.21148394,-1.5756344999999998,-49.95047844
0.29000000000000004,29,-0.034,-1.001,0.083,0.286479,1.8334656000000005,-0.6875496,94.17137688,-1.5813640800000002,-49.92756012
0.3,30,-0.033,-0.999,0.081,-0.057295800000000015,2.1199446,-0.7448454000000001,94.17137688,-1.5756344999999998,-49.90464180000001
0.31,31,-0.03,-0.999,0.081,-0.11459160000000004,2.4064236,-0.6302538000000001,94.1656473,-1.56990492,-49.88172348
0.32,32,-0.028,-0.999,0.081,0.0,2.2345362,-0.6302538000000001,94.1656473,-1.56417534,-49.85880516
0.33,33,-0.027000000000000003,-1.002,0.08,0.1718874,1.6615782,-0.572958,94.1656473,-1.56417534,-49.84161642
0.34,34,-0.027000000000000003,-1.004,0.081,0.2291832000000001,0.6875496,-0.4010706,94.01667822,-1.49542038,-49.81869810000001
0.35000000000000003,35,-0.027000000000000003,-1.004,0.084,0.0,-0.4010706,-0.1718874,94.01667822,-1.4896908000000002,-49.82442768
0.36000000000000004,36,-0.026,-1.003,0.084,-0.1718874,-0.8021411999999999,0.0,94.01667822,-1.4896908000000002,-49.83015725999999
0.37,37,-0.024,-1.004,0.084,-0.286479,-0.4583664000000001,0.057295800000000015,94.01094864,-1.4896908000000002,-49.83588684
0.38,38,-0.024,-1.009,0.087,-0.286479,-0.3437748,0.0,94.01094864,-1.4896908000000002,-49.84161642
0.39,39,-0.025,-1.01,0.08900000000000001,-0.057295800000000015,-0.9167328,-0.11459160000000004,93.98803032,-1.45531332,-49.847346
0.4,40,-0.027000000000000003,-1.007,0.08800000000000001,0.0,-1.7761698,-0.11459160000000004,93.98803032,-1.44958374,-49.86453474
0.41000000000000003,41,-0.03,-1.002,0.09,-0.11459160000000004,-2.4637194,-0.057295800000000015,93.98803032,-1.44958374,-49.88745306
0.42000000000000004,42,-0.029,-0.994,0.092,-0.4010706,-2.6356068,-0.11459160000000004,93.98230074,-1.44385416,-49.91610096
0.43,43,-0.031,-0.986,0.095,-0.4010706,-2.6929026,-0.057295800000000015,93.97657116,-1.44385416,-49.93901928
0.44,44,-0.032,-0.982,0.095,-0.5156622000000001,-2.578311,0.0,93.98803032,-1.44958374,-49.96766718
0.45,45,-0.035,-0.981,0.094,-0.572958,-2.6929026,0.057295800000000015,93.98230074,-1.44958374,-49.99631508
0.46,46,-0.035,-0.982,0.093,-0.6875496,-2.6356068,0.11459160000000004,93.97657116,-1.44385416,-50.01923340000001
0.47000000000000003,47,-0.035,-0.983,0.093,-1.0313244,-2.4064236,0.1718874,93.965112,-1.44385416,-50.04788129999999
0.48000000000000004,48,-0.035,-0.983,0.096,-1.3178034,-2.4064236,0.3437748,93.95365284,-1.44958374,-50.07079962
0.49,49,-0.032,-0.983,0.099,-1.2605076000000002,-2.4637194,0.7448454000000001,93.95365284,-1.45531332,-50.09944752
0.5,50,-0.029,-0.983,0.098,-1.2032118,-2.8074942000000003,1.2032118,93.94219368,-1.4610428999999998,-50.12809542000001
0.51,51,-0.029,-0.984,0.095,-1.432395,-3.380452200000001,1.4896908000000002,93.93073452,-1.47250206,-50.1624729
0.52,52,-0.03,-0.991,0.094,-1.5469866,-4.0680017999999984,1.6615782,93.91927536,-1.4896908000000002,-50.20257996
0.53,53,-0.033,-0.999,0.093,-1.6042823999999998,-4.4117766,1.7761698,93.90208662,-1.50114996,-50.24841660000001
0.54,54,-0.039,-1.006,0.096,-1.0313244,-4.7555514,1.8907613999999997,93.9078162,-1.52406828,-50.29998282
0.55,55,-0.044,-1.008,0.103,-0.2291832000000001,-5.1566220000000005,1.9480572,93.9078162,-1.5412570200000002,-50.35154904
0.56,56,-0.049,-1.005,0.111,0.8021411999999999,-5.5576926,2.0053530000000004,93.91354578,-1.55844576,-50.40884484
0.5700000000000001,57,-0.051,-0.997,0.118,2.1199446,-6.016058999999999,2.0053530000000004,93.94219368,-1.56990492,-50.46614064
0.5800000000000001,58,-0.054000000000000006,-0.991,0.127,3.380452200000001,-5.958763200000001,1.6615782,93.97657116,-1.5813640800000002,-50.52916602000001
0.59,59,-0.059,-0.989,0.132,4.1825934,-5.72958,1.145916,94.05678528,-1.61001198,-50.58646182
0.6,60,-0.062,-0.992,0.134,4.5263682,-5.443101,0.572958,94.10262192,-1.61001198,-50.64375762
0.61,61,-0.063,-0.998,0.133,4.4690724,-4.9274388,0.2291832000000001,94.15418814,-1.6042824000000002,-50.68959425999999
0.62,62,-0.06,-1.005,0.134,4.2398892,-4.2398892,0.1718874,94.20002478,-1.6042824000000002,-50.72970132
0.63,63,-0.056,-1.01,0.138,4.2398892,-3.6669312000000014,0.3437748,94.24013184,-1.6042824000000002,-50.76980838000001
0.64,64,-0.051,-1.008,0.145,4.297185,-3.2658606,0.6302538000000001,94.34326428,-1.62147114,-50.80418586
0.65,65,-0.047,-1.003,0.157,4.7555514,-2.9220857999999996,1.145916,94.38910092,-1.6329303,-50.83283376
0.66,66,-0.049,-0.997,0.16699999999999998,5.6149884000000005,-2.5210152000000003,1.6615782,94.44639672,-1.64438946,-50.86148166
0.67,67,-0.049,-0.996,0.177,6.703608600000001,-1.8907613999999997,2.0626488000000003,94.51515168,-1.6615782,-50.8786704
0.68,68,-0.05,-0.993,0.182,7.6203414,-1.3178034,2.4064236,94.5953658,-1.6844965200000002,-50.89012956
0.6900000000000001,69,-0.046,-0.995,0.179,7.8495246,-0.9167328,2.6929026,94.73287572,-1.7188740000000002,-50.90731829999999
0.7000000000000001,70,-0.043,-0.996,0.16899999999999998,6.9327918,-1.3750992,2.86479,94.80736026,-1.7475218999999995,-50.92450704
0.7100000000000001,71,-0.046,-0.998,0.157,5.042030400000002,-2.6929026,2.7501984,94.85892648,-1.77044022,-50.95315494000001
0.72,72,-0.05,-1.0,0.154,2.86479,-4.583664,2.4637194,94.88757438,-1.78762896,-50.99899158
0.73,73,-0.057,-1.003,0.156,1.3178034,-6.0733548,2.4064236,94.90476312,-1.8048176999999999,-51.06201696000001
0.74,74,-0.063,-1.002,0.161,0.3437748,-7.2192707999999985,2.3491278,94.96205892,-1.84492476,-51.1365015
0.75,75,-0.07,-1.004,0.17,-0.6302538000000001,-7.1046792000000005,2.578311,94.96205892,-1.8621135,-51.21098604
0.76,76,-0.076,-1.009,0.171,-1.432395,-6.4744254,3.2658606,94.94487018,-1.8907613999999997,-51.279741
0.77,77,-0.081,-1.015,0.17600000000000002,-3.0939732,-5.443101,4.0680017999999984,94.91622228,-1.92513888,-51.33703680000001
0.78,78,-0.08800000000000001,-1.019,0.188,-5.3285094000000015,-3.724227,4.9847345999999995,94.86465606,-1.97097552,-51.37714386
0.79,79,-0.08800000000000001,-1.018,0.183,-7.333862400000001,-1.6615782,6.2452422,94.83027858,-2.05691922,-51.40579176
0.8,80,-0.081,-1.012,0.166,-9.0527364,-0.9740286,7.2192707999999985,94.7386053,-2.12567418,-51.4229805
0.81,81,-0.085,-1.004,0.159,-11.172681,-1.5469866,7.6203414,94.6240137,-2.20015872,-51.44589881999999
0.8200000000000001,82,-0.09,-0.997,0.147,-14.0947668,-2.8074942000000003,7.5057497999999985,94.48650378,-2.2746432600000004,-51.48027629999999
0.8300000000000001,83,-0.093,-0.986,0.131,-17.0168526,-5.5576926,6.9327918,94.31461638,-2.3376686399999995,-51.54330168
0.8400000000000001,84,-0.098,-0.971,0.135,-19.0795014,-8.5370742,5.958763200000001,94.13699940000001,-2.4064236,-51.63497496
0.85,85,-0.109,-0.972,0.147,-20.3973048,-10.313244,5.1566220000000005,93.9364641,-2.44653066,-51.74383698000001
0.86,86,-0.116,-0.982,0.153,-21.2567418,-10.7716104,4.6982556,93.72446964,-2.48663772,-51.85842858
0.87,87,-0.121,-0.99,0.154,-20.8556712,-11.0007936,4.4690724,93.52393434,-2.5210152000000003,-51.973020180000006
0.88,88,-0.125,-0.996,0.153,-19.595163600000006,-11.4018642,4.3544808,93.32912862,-2.55539268,-52.08761178
0.89,89,-0.123,-1.0,0.15,-17.589810600000003,-11.745639,4.2398892,93.18015954,-2.61268848,-52.21366254
0.9,90,-0.123,-1.004,0.154,-16.157415599999997,-11.9748222,3.8961144,93.0197313,-2.6413363800000003,-52.333983720000006
0.91,91,-0.127,-1.003,0.165,-15.0114996,-12.4904844,3.151269,92.8764918,-2.6642547000000003,-52.46003448
0.92,92,-0.139,-1.005,0.175,-14.896907999999998,-12.834259199999998,2.291832,92.73325229999999,-2.67571386,-52.59181482
0.93,93,-0.14400000000000002,-1.003,0.181,-15.813640800000002,-12.6623718,0.9740286,92.57855364,-2.68144344,-52.71786558
0.9400000000000001,94,-0.14300000000000002,-0.997,0.179,-17.246035799999998,-12.318597,-0.4583664000000001,92.44104372,-2.6929026,-52.84391634000001
0.9500000000000001,95,-0.142,-0.984,0.16699999999999998,-18.449247600000003,-12.261301199999998,-2.0053530000000004,92.26342674,-2.6699842800000004,-52.9699671
0.9600000000000001,96,-0.14,-0.977,0.149,-19.7097552,-11.917526400000002,-3.151269,92.06862102,-2.62987722,-53.09028828
0.97,97,-0.13699999999999998,-0.967,0.117,-20.798375399999998,-11.516455800000001,-4.010706000000001,91.86808572,-2.58404058,-53.20487988
0.98,98,-0.135,-0.962,0.086,-21.6005166,-10.255948199999999,-4.8128472,91.65036168,-2.53247436,-53.30801232
0.99,99,-0.129,-0.959,0.061,-21.199446,-8.651665800000002,-5.5003968,91.4440968,-2.4923673,-53.39395602000001
1.0,100,-0.119,-0.957,0.043,-20.7410796,-7.3911582,-6.016058999999999,91.23783192,-2.42934192,-53.46844056
1.01,101,-0.106,-0.957,0.034,-20.8556712,-5.958763200000001,-6.0733548,91.02583746,-2.37204612,-53.52573636000001
1.02,102,-0.093,-0.96,0.038,-21.027558600000006,-4.4690724,-6.417129599999999,90.81957258,-2.30329116,-53.571573
1.03,103,-0.079,-0.964,0.051,-21.199446,-1.8334656000000005,-7.1046792000000005,90.60184854,-2.2345362,-53.59449132
1.04,104,-0.07,-0.97,0.068,-22.6891368,2.4064236,-8.193299399999999,90.37839492,-2.1657812400000003,-53.571573
1.05,105,-0.062,-0.97,0.058,-26.1268848,9.568398599999998,-9.2819196,90.10910466,-2.07410796,-53.47989972000001
1.06,106,-0.045,-0.949,0.022,-30.194886600000004,22.9756158,-10.1986524,89.79397776,-1.98243468,-53.25644610000001
1.07,107,-0.017,-0.903,-0.023,-34.5493674,37.757932200000006,-10.026765,89.42155505999996,-1.8907613999999997,-52.8840234
1.08,108,-0.003,-0.8590000000000001,-0.05,-38.5027776,45.3782736,-7.1046792000000005,89.01475488,-1.8334656000000005,-52.44284574000001
1.09,109,-0.003,-0.833,-0.049,-39.9924684,45.9512316,-1.145916,88.57930680000004,-1.82200644,-51.99020892
1.1,110,-0.021,-0.851,-0.013,-40.164355799999996,42.05511720000001,6.760904399999999,88.15531788,-1.89649098,-51.57767916
1.11,111,-0.064,-0.902,0.053,-41.76863820000001,37.41415739999999,15.3552744,87.71414021999998,-2.05118964,-51.21098604
1.12,112,-0.109,-0.971,0.116,-41.9405256,33.3461556,22.345362,87.27296256,-2.26891368,-50.87294082
1.1300000000000001,113,-0.158,-1.0590000000000002,0.188,-40.33624320000001,25.78311,26.1841806,86.84897364,-2.52674478,-50.60938014
1.1400000000000001,114,-0.182,-1.119,0.225,-33.804522,16.4438946,25.1528562,86.52238758000001,-2.78457588,-50.43749274
1.1500000000000001,115,-0.175,-1.181,0.262,-27.444688199999998,12.834259199999998,19.595163600000006,86.23590858,-2.9793816000000004,-50.3057124
1.1600000000000001,116,-0.142,-1.24,0.28800000000000003,-25.0382646,15.0687954,12.261301199999998,85.96661832,-3.0939732,-50.15101374
1.17,117,-0.101,-1.275,0.279,-25.6112226,19.0795014,5.042030400000002,85.69732806,-3.1398098400000003,-49.96193760000001
1.18,118,-0.062,-1.259,0.237,-27.8457588,21.2567418,-0.9167328,85.39938989999997,-3.1226211000000004,-49.75567271999999
1.19,119,-0.027000000000000003,-1.216,0.177,-30.7678446,19.5378678,-5.2712136,85.09572216000002,-3.05959572,-49.57232616
1.2,120,-0.008,-1.158,0.13,-31.3980984,16.2147114,-8.7089616,84.7691361,-2.96219286,-49.4176275
1.21,121,0.013,-1.106,0.099,-30.3094782,13.9228794,-11.0580894,84.4540092,-2.84760126,-49.29730632
1.22,122,0.036000000000000004,-1.064,0.106,-29.335449600000004,7.8495246,-13.521808800000002,84.15034145999998,-2.71009134,-49.23428094000001
1.23,123,0.05,-1.027,0.119,-29.2781538,-0.057295800000000015,-15.813640800000002,83.85240329999998,-2.55539268,-49.25146968
1.24,124,0.067,-0.999,0.118,-29.1062664,-7.6203414,-18.8503182,83.5945722,-2.36058696,-49.35460212
1.25,125,0.08199999999999999,-0.979,0.1,-28.5906042,-13.0634424,-22.4026578,83.31382278,-2.15432208,-49.50930078
1.26,126,0.096,-0.962,0.07200000000000001,-28.1895336,-14.896907999999998,-26.356068,83.03307336,-1.90795014,-49.69264734
1.27,127,0.113,-0.95,0.051,-27.788463,-17.303331600000003,-30.3094782,82.75805352,-1.6329303,-49.89891222
1.28,128,0.125,-0.947,0.026,-27.444688199999998,-21.829699800000004,-32.830493399999995,82.48876326,-1.32926256,-50.1624729
1.29,129,0.132,-0.947,0.014,-26.5279554,-24.9809688,-33.8618178,82.24239132,-1.00840608,-50.45468147999999
1.3,130,0.119,-0.95,0.032,-23.204799,-29.0489706,-33.231564,82.01320812,-0.7161975,-50.78699712000001
1.31,131,0.107,-0.958,0.062,-19.8243468,-34.2055926,-32.945085,81.81840240000002,-0.4297185000000001,-51.1651494
1.32,132,0.085,-0.981,0.124,-19.194093,-38.67466500000001,-32.8877892,81.63505583999998,-0.15469866,-51.59486790000001
1.33,133,0.092,-0.999,0.188,-17.3606274,-42.4561878,-31.741873200000004,81.46316844,0.10313244,-52.05896388
1.34,134,0.122,-1.026,0.233,-12.0894138,-48.5868384,-30.65325300000001,81.37722474,0.35523396,-52.58608524
1.35,135,0.129,-1.07,0.269,-6.417129599999999,-51.9099948,-28.8770832,81.31419936,0.5729580000000001,-53.13612492
1.36,136,0.122,-1.112,0.294,0.2291832000000001,-50.1911208,-26.41336380000001,81.31992894,0.7734933,-53.66897586
1.37,137,0.076,-1.166,0.314,6.990087599999999,-44.977203,-23.835052800000003,81.3886839,0.95111028,-54.14453099999999
1.3800000000000001,138,0.009000000000000001,-1.2,0.311,15.985528200000001,-31.913760600000003,-20.7410796,81.54911214,1.12299768,-54.48257622
1.3900000000000001,139,-0.063,-1.196,0.32,23.14750320000001,-20.511896399999998,-16.329303,81.82413198,1.24904844,-54.70602984
1.4000000000000001,140,-0.125,-1.159,0.321,28.304125199999998,-9.6256944,-10.3705398,82.11061098,1.3464512999999998,-54.81489186
1.4100000000000001,141,-0.129,-1.057,0.282,35.122325399999994,-1.432395,-1.3750992,82.46584494,1.3579104599999998,-54.82635102
1.42,142,-0.102,-0.982,0.15,50.76407879999999,5.5576926,6.990087599999999,82.98150714,1.30061466,-54.75759606
1.43,143,-0.154,-0.976,0.014,69.61439700000001,9.969469199999999,6.1879464,83.69197505999998,1.25477802,-54.64300446000001
1.44,144,-0.151,-0.93,-0.117,75.63045600000002,0.9167328,0.0,84.44827962000002,1.24331886,-54.62581572000001
1.45,145,-0.08900000000000001,-0.731,-0.254,63.88481700000001,-19.194093,1.7188740000000002,85.09572216000002,1.22040054,-54.80916228000001
1.46,146,-0.091,-0.58,-0.425,45.9512316,-28.81978740000001,8.136003599999999,85.55981814,1.12872726,-55.08418212
1.47,147,-0.095,-0.546,-0.491,38.10170700000001,-9.6829902,7.906820400000001,85.9437,1.04851314,-55.17012582
1.48,148,-0.08900000000000001,-0.499,-0.411,30.3094782,12.4904844,0.6302538000000001,86.25309732000002,1.05424272,-55.04407506
1.49,149,-0.128,-0.448,-0.3,21.485925,22.459953600000002,-10.1413566,86.44790304,1.1459160000000002,-54.82062144
1.5,150,-0.187,-0.452,-0.142,11.2872726,24.0069402,-19.194093,86.56822422,1.3464512999999998,-54.59716782
1.51,151,-0.253,-0.556,-0.065,-3.724227,28.991674800000002,-25.0382646,86.52811716,1.6042824000000002,-54.32214798
1.52,152,-0.28,-0.732,-0.033,-22.5172494,35.809875,-30.366774000000003,86.30466354,1.91367972,-53.98983234
1.53,153,-0.274,-0.968,0.037000000000000005,-35.8671708,43.4302164,-35.809875,85.94942957999999,2.28037284,-53.58876174
1.54,154,-0.204,-1.3530000000000002,0.096,-45.3209778,49.4462754,-36.38283300000001,85.50825191999998,2.65852512,-53.13039533999999
1.55,155,-0.052000000000000005,-1.696,0.171,-52.2537696,49.7900502,-28.7051958,84.99258972,2.96219286,-52.66629936
1.56,156,0.253,-1.783,0.344,-46.8679644,53.9153478,-16.042824000000003,84.5399529,3.151269,-52.15063716
1.57,157,0.495,-1.72,0.439,-28.7051958,60.16059,-1.7761698,84.27066264,3.2085648000000004,-51.56049042000001
1.58,158,0.622,-1.6469999999999998,0.4370000000000001,-15.2406828,55.06126379999999,10.0840608,84.13888229999998,3.14553942,-51.01045074
1.59,159,0.5329999999999999,-1.602,0.469,-9.453807000000001,45.206386200000004,17.303331600000003,84.07012734,3.0137590800000003,-50.54635476
1.6,160,0.34700000000000003,-1.6569999999999998,0.4920000000000001,-9.3965112,34.8358464,20.340009,83.98991322,2.84187168,-50.17966163999999
1.61,161,0.194,-1.794,0.508,-12.261301199999998,21.7151082,20.340009,83.87532162,2.65279554,-49.94474886
1.62,162,0.112,-1.915,0.504,-17.8189938,2.9220857999999996,19.8816426,83.69770464000001,2.45798982,-49.89891222
1.6300000000000001,163,0.1,-1.923,0.452,-18.7930224,-10.1413566,22.6891368,83.50289891999998,2.22307704,-49.97912634000001
1.6400000000000001,164,0.113,-1.844,0.379,-14.266654199999998,-22.345362,28.361421000000004,83.35965941999999,1.92513888,-50.16820248000001
1.6500000000000001,165,0.151,-1.727,0.292,-7.1046792000000005,-35.3515086,34.7785506,83.28517488,1.5469866,-50.47759979999999
1.6600000000000001,166,0.16699999999999998,-1.582,0.208,4.4690724,-49.5035712,39.47680620000001,83.32528194,1.1172681,-50.91877746
1.6700000000000002,167,0.099,-1.411,0.09,18.3919518,-64.22859179999999,42.62807520000001,83.51435808,0.64171296,-51.50319462
1.68,168,-0.027000000000000003,-1.214,-0.003,31.6845774,-77.6931048,44.4615408,83.84094414,0.14323950000000002,-52.21939212000001
1.69,169,-0.198,-1.002,-0.07200000000000001,44.117766,-85.8864042,44.51883660000001,84.30504012,-0.36669312,-53.01580374
1.7,170,-0.35200000000000004,-0.82,-0.022,63.02538000000001,-83.76645959999998,42.28430039999999,84.96394182,-0.8307891,-53.8007562
1.71,171,-0.417,-0.6970000000000001,0.059,70.18735500000001,-75.63045600000002,37.3568616,85.70305764,-1.23758928,-54.51122412
1.72,172,-0.35200000000000004,-0.632,0.055,67.609044,-65.2026204,28.304125199999998,86.41352556000002,-1.53552744,-55.12428918000001
1.73,173,-0.28300000000000003,-0.5479999999999999,-0.006999999999999999,61.87946400000001,-56.2644756,15.6990492,87.0609681,-1.70168526,-55.66859928
1.74,174,-0.224,-0.475,-0.046,57.6968706,-52.48295279999999,2.86479,87.66830358,-1.75325148,-56.1785319
1.75,175,-0.158,-0.395,-0.13699999999999998,53.1705024,-48.70143,-5.844171599999999,88.22407283999998,-1.6959556799999995,-56.65408704
1.76,176,-0.08,-0.309,-0.272,46.9252602,-37.7006364,-10.1413566,88.71681672,-1.5870936600000003,-57.02650974
1.77,177,0.0,-0.166,-0.31,42.4561878,-22.631841,-13.750992000000002,89.15799438,-1.44385416,-57.24996336
1.78,178,0.05,-0.009000000000000001,-0.16699999999999998,40.680018,-6.6463128000000005,-17.9908812,89.57625372,-1.2605076000000002,-57.31298874
1.79,179,0.045,0.127,-0.038,36.32553720000001,0.6302538000000001,-20.05353,89.94294684,-1.0599723,-57.2958
1.8,180,0.011,0.219,0.003,30.7678446,10.5424272,-18.8503182,90.25234416,-0.87089616,-57.18693798
1.81,181,-0.016,0.207,-0.067,18.8503182,26.356068,-14.5531332,90.43569072,-0.73338624,-56.92337730000001
1.82,182,-0.053,0.08900000000000001,-0.229,0.4583664000000001,39.0757356,-8.3651868,90.42996114,-0.66463128,-56.53376586
1.83,183,-0.09,-0.154,-0.469,-18.2200644,36.6120162,-1.0313244,90.23515542,-0.66463128,-56.1785319
1.84,184,-0.097,-0.485,-0.645,-29.9657034,18.7357266,9.969469199999999,89.80543692,-0.7849524600000001,-55.98372618000001
1.85,185,0.028,-1.038,-0.652,-33.0596766,-6.4744254,28.361421000000004,89.46739170000002,-1.07143146,-56.05248114
1.86,186,0.35600000000000004,-1.92,-0.395,-53.68616460000001,-25.2674478,51.68081160000001,88.93454076,-1.5870936600000003,-56.29885308
1.87,187,0.495,-2.326,0.179,-58.5563076,-13.980175199999998,60.2751816,88.35012359999996,-2.18869956,-56.43063342000001
1.8800000000000001,188,0.209,-1.713,0.371,-48.4722468,-24.5226024,51.0505578,87.86883888,-2.69863218,-56.66554620000001
1.8900000000000001,189,-0.231,-1.053,0.211,-29.4500412,-33.804522,35.5806918,87.62246694,-3.0997027800000003,-56.99213225999999
1.9000000000000001,190,-0.448,-0.904,0.234,3.3231564,-43.65939960000001,13.6936962,87.68549232000002,-3.2372127,-57.42185076000001
1.9100000000000001,191,-0.504,-1.08,0.172,-2.0626488000000003,-44.117766,0.6302538000000001,87.69122189999999,-3.2486718599999995,-57.85729884
1.9200000000000002,192,-0.514,-1.571,0.228,-17.8762896,-39.877876799999996,1.8907613999999997,87.54225282,-3.27731976,-58.25263986
1.93,193,-0.333,-1.887,0.493,-16.157415599999997,-29.9657034,8.307891,87.39901332,-3.36326346,-58.55057802
1.94,194,-0.076,-1.997,0.485,2.86479,-7.0473834,9.5111028,87.4333908,-3.46066632,-58.61933298
1.95,195,0.002,-1.963,0.404,-5.443101,6.875496000000001,5.6149884000000005,87.37609499999998,-3.51796212,-58.54484844
1.96,196,-0.086,-1.833,0.443,-12.6623718,16.501190400000002,1.5469866,87.2328555,-3.52942128,-58.38442020000001
1.97,197,-0.214,-1.712,0.457,-7.9641161999999985,24.0069402,-2.0626488000000003,87.13545264000004,-3.50650296,-58.14950742
1.98,198,-0.304,-1.5930000000000002,0.445,1.145916,30.9970278,-7.8495246,87.12399348,-3.42055926,-57.84583968000001
1.99,199,-0.362,-1.499,0.4,12.4331886,39.47680620000001,-15.870936600000002,87.2328555,-3.26013102,-57.46195782
2.0,200,-0.404,-1.3969999999999998,0.343,20.454600600000006,54.54560160000001,-24.9809688,87.4047429,-2.9965703400000003,-56.92910687999999
2.01,201,-0.387,-1.23,0.204,31.6845774,68.41118519999999,-30.7105488,87.68549232000002,-2.68144344,-56.25874602
2.02,202,-0.292,-1.084,0.049,51.1651494,80.44330319999997,-29.7365202,88.15531788,-2.37204612,-55.46806398
2.03,203,-0.11,-0.916,-0.056,69.900876,77.062851,-24.694489800000003,88.82567874,-2.12567418,-54.70602984
2.04,204,0.113,-0.779,-0.057,87.26150340000002,54.14453099999999,-19.2513888,89.67938615999998,-1.91367972,-54.15599016
2.05,205,0.343,-0.736,0.013,92.9337876,24.7517856,-12.4331886,90.6133077,-1.7933585399999998,-53.90388864000001
2.0599999999999996,206,0.5870000000000001,-0.746,0.031,85.54262940000002,-3.8961144,-4.4117766,91.48420386,-1.73606274,-53.93253654
2.07,207,0.871,-0.775,0.07,62.96808420000001,-32.142943800000005,3.724227,92.13737598,-1.75325148,-54.24193386
2.0799999999999996,208,1.116,-0.727,0.099,39.47680620000001,-51.6235158,14.0947668,92.56136490000002,-1.85638392,-54.75186647999999
2.09,209,1.127,-0.579,-0.01,40.737313799999995,-54.14453099999999,27.9603504,92.99108340000001,-2.02827132,-55.29044700000001
2.0999999999999996,210,0.908,-0.489,-0.146,53.858052,-50.706783,37.52874900000001,93.56404139999998,-2.35485738,-55.80610920000001
2.11,211,0.545,-0.405,-0.241,55.2331512,-55.4623344,39.6486936,94.15991772,-2.68717302,-56.37333762000001
2.1199999999999997,212,0.189,-0.353,-0.3,46.29500640000001,-60.67625219999999,39.19032720000001,94.66985034,-3.0137590800000003,-56.99786184000001
2.13,213,-0.142,-0.214,-0.299,40.2216516,-63.48374640000001,37.52874900000001,95.12248716,-3.3059676599999994,-57.65103395999999
2.1399999999999997,214,-0.359,-0.011,-0.206,39.877876799999996,-62.5097178,31.971056400000002,95.56366482,-3.5809875,-58.28701734
2.15,215,-0.463,0.193,-0.094,41.4248634,-58.0979412,23.376686399999997,96.03349038,-3.73568616,-58.87716408
2.1599999999999997,216,-0.447,0.334,-0.055,41.76863820000001,-53.11320660000001,13.521808800000002,96.49758636,-3.79298196,-59.41001502
2.17,217,-0.329,0.318,-0.07,36.096354,-51.33703679999999,5.3285094000000015,96.90438654,-3.77006364,-59.91421806000001
2.1799999999999997,218,-0.275,0.177,-0.16899999999999998,18.1054728,-66.463128,-2.0626488000000003,97.13929932,-3.64974246,-60.5616606
2.19,219,-0.35600000000000004,-0.09,-0.29100000000000004,-11.688343199999998,-94.4234784,-10.9434978,97.0590852,-3.42628884,-61.46693424
2.1999999999999997,220,-0.373,-0.486,-0.489,-45.206386200000004,-103.705398,-28.81978740000001,96.66947376,-2.9965703400000003,-62.452422
2.21,221,-0.29600000000000004,-1.011,-0.696,-66.23394479999999,-56.8374336,-59.0719698,96.0277608,-2.3376686399999995,-62.95089546000001
2.2199999999999998,222,-0.628,-2.392,-1.101,-137.96828639999998,61.134618599999996,-121.86816659999998,94.60109538,-1.21467096,-62.25188670000001
2.23,223,-1.083,-2.922,-0.28,-135.67645439999998,53.11320660000001,-155.9018718,93.20307786,0.26356068,-61.63882163999999
2.2399999999999998,224,-0.919,-2.512,0.54,-50.0192334,18.449247600000003,-98.4341844,92.69887482,1.22040054,-61.40963844
2.25,225,0.253,-1.828,0.1,-43.3729206,18.907614000000002,-48.8160216,92.25769716,1.6844965200000002,-61.20337356
2.26,226,0.79,-1.225,0.34600000000000003,29.0489706,73.96887779999999,7.9641161999999985,92.56709448,1.55844576,-60.4757169
2.27,227,0.937,-0.892,0.38,45.4355694,104.9659056,41.023792799999995,93.03692004,1.07716104,-59.45585166000001
2.28,228,0.7140000000000001,-1.399,0.517,53.68616460000001,102.845961,36.7266078,93.58123014,0.6302538000000001,-58.45890474
2.29,229,0.314,-1.791,0.621,42.2270046,82.9643184,16.501190400000002,94.01094864,0.38961144,-57.65103395999999
2.3,230,-0.022,-1.881,0.659,28.304125199999998,34.2055926,1.145916,94.29742764,0.34950438,-57.30725916
2.31,231,-0.135,-1.999,0.629,15.813640800000002,-6.3025379999999975,-5.5576926,94.45785588,0.41252976,-57.36455496
2.32,232,-0.062,-1.917,0.578,7.161975,-18.7930224,-3.6669312000000014,94.53234042,0.46982556,-57.54790152
2.3299999999999996,233,0.062,-1.6269999999999998,0.5429999999999999,8.7089616,-14.037471,5.2139178,94.6240137,0.4297185000000001,-57.68541144
2.34,234,0.102,-1.4780000000000002,0.524,20.168121600000006,-6.703608600000001,15.183387000000002,94.84173774,0.29220857999999994,-57.76562556
2.3499999999999996,235,0.052000000000000005,-1.38,0.498,28.5333084,-7.8495246,25.6112226,95.13394632,0.05156622,-57.86302842
2.36,236,-0.018000000000000002,-1.305,0.426,30.0229992,-16.157415599999997,33.804522,95.44334364,-0.25783110000000004,-58.04637498
2.3699999999999997,237,-0.078,-1.257,0.326,28.0176462,-26.9863218,38.10170700000001,95.72982263999998,-0.59587632,-58.35004272
2.38,238,-0.13,-1.178,0.194,22.058883,-34.8358464,37.0703826,95.96473541999998,-0.9167328000000001,-58.72819500000001
2.3899999999999997,239,-0.18,-1.023,0.046,23.8923486,-37.3568616,32.658606,96.20537778,-1.20894138,-59.12353602
2.4,240,-0.237,-0.856,-0.075,35.52339600000001,-33.6326346,27.444688199999998,96.57780048,-1.432395,-59.47876998
2.4099999999999997,241,-0.341,-0.69,-0.14400000000000002,55.5196302,-17.6471064,20.6837838,97.15075848,-1.61001198,-59.66784612
2.42,242,-0.415,-0.5710000000000001,-0.16699999999999998,77.40662579999999,15.2406828,12.1467096,97.92998136,-1.7475218999999995,-59.53033620000001
2.4299999999999997,243,-0.422,-0.4970000000000001,-0.197,78.95361240000003,41.4821592,3.0366774,98.71493382,-1.84492476,-59.11780644
2.44,244,-0.35700000000000004,-0.458,-0.237,68.41118519999999,56.9520252,-7.161975,99.35664678,-1.89649098,-58.53911886000001
2.4499999999999997,245,-0.305,-0.358,-0.308,52.998615,58.38442020000001,-13.349921400000001,99.8665794,-1.87930224,-57.94324253999999
2.46,246,-0.243,-0.263,-0.378,40.5081306,52.3683612,-16.558486199999994,100.25046126,-1.81627686,-57.40466202
2.4699999999999998,247,-0.157,-0.182,-0.384,36.7266078,52.712136,-16.673077799999998,100.59996564,-1.75898106,-56.86035191999999
2.48,248,-0.084,-0.084,-0.333,34.4920716,58.38442020000001,-15.2406828,100.9265517,-1.73606274,-56.25874602
2.4899999999999998,249,0.014,0.045,-0.217,30.8824362,64.28588760000001,-13.407217200000002,101.19011238,-1.73606274,-55.6055739
2.5,250,0.14800000000000002,0.098,-0.087,19.4232762,72.479187,-11.688343199999998,101.35627020000001,-1.78189938,-54.88364682
2.51,251,0.27,0.034,-0.106,-3.4377480000000005,76.48989300000002,-8.021412000000002,101.28751524,-1.86784308,-54.12734226
2.52,252,0.328,-0.215,-0.241,-33.231564,66.5777196,-1.3178034,100.92082212,-2.005353,-53.48562930000001
2.53,253,0.35600000000000004,-0.615,-0.488,-63.59833800000001,38.27359439999999,10.1413566,100.25619084000002,-2.18869956,-53.1418545
2.54,254,0.416,-1.137,-0.8029999999999999,-92.532717,-8.078707799999998,28.5906042,99.30508056,-2.44653066,-53.27936442
2.55,255,0.531,-1.555,-0.456,-107.2577376,-24.2934192,48.529542600000006,98.23937868,-2.88770832,-53.60595048
2.56,256,0.489,-1.838,0.21600000000000005,-76.4325972,-3.8961144,65.4890994,97.47161496,-3.52942128,-53.7434604
2.57,257,-0.112,-1.958,0.459,-67.26526919999999,-5.6149884000000005,61.7648724,96.8012541,-4.13675676,-53.886699899999996
2.5799999999999996,258,-0.611,-1.439,0.458,-67.26526919999999,-11.516455800000001,40.90920120000001,96.13089324,-4.5263682,-54.05285772
2.59,259,-0.871,-1.236,0.534,-19.595163600000006,-23.491278,21.2567418,95.96473541999998,-4.7269035000000015,-54.31068882
2.5999999999999996,260,-0.8909999999999999,-1.465,0.397,21.199446,-21.6578124,11.172681,96.19964819999998,-4.80711762,-54.53414244
2.61,261,-0.599,-1.911,0.522,33.5753388,-8.8235532,12.7196676,96.55488216,-4.921709219999999,-54.631545300000006
2.6199999999999997,262,-0.086,-2.081,0.755,37.9298196,22.058883,17.0741484,96.9158457,-5.11651494,-54.43101
2.63,263,0.224,-2.002,0.727,38.0444112,56.0925882,20.2254174,97.24816134,-5.397264359999999,-53.90388864000001
2.6399999999999997,264,0.202,-1.779,0.627,20.8556712,77.062851,21.027558600000006,97.38567126,-5.71812084,-53.1705024
2.65,265,0.043,-1.496,0.5529999999999999,7.6203414,83.4799806,16.7303736,97.36848252,-6.01032942,-52.37409078
2.6599999999999997,266,-0.08,-1.345,0.515,11.172681,81.07355700000002,9.6256944,97.38567126,-6.2337830400000005,-51.58913832
2.67,267,-0.152,-1.27,0.518,21.8869956,77.23473840000003,2.0626488000000003,97.5174516,-6.37129296,-50.827104180000006
2.6799999999999997,268,-0.187,-1.25,0.494,28.1322378,78.32335859999998,-6.3598338,97.70652774,-6.428588760000001,-50.04788129999999
2.69,269,-0.14800000000000002,-1.237,0.422,27.9603504,86.11558740000002,-13.407217200000002,97.8898743,-6.43431834,-49.18271471999999
2.6999999999999997,270,-0.056,-1.214,0.29,28.762491600000004,90.41277240000001,-16.615782,98.06749128,-6.417129600000001,-48.26598192
2.71,271,0.055,-1.163,0.093,35.9244666,83.76645959999998,-14.667724800000002,98.32532238000002,-6.411400019999999,-47.41800408
2.7199999999999998,272,0.221,-1.071,-0.093,50.76407879999999,63.1972674,-7.6776372,98.76077046,-6.4400479200000005,-46.78202069999999
2.73,273,0.458,-0.911,-0.161,67.1506776,34.66395900000001,2.4637194,99.40248342,-6.525991620000001,-46.43824590000001
2.7399999999999998,274,0.593,-0.782,-0.079,76.0888224,9.568398599999998,11.4018642,100.14159924,-6.566098679999999,-46.34657262
2.75,275,0.6629999999999999,-0.585,0.054000000000000006,69.32791800000001,3.8961144,13.750992000000002,100.840608,-6.7036086,-46.3236543
2.76,276,0.633,-0.35600000000000004,0.094,69.900876,3.9534102,13.750992000000002,101.54534634,-6.8411185199999975,-46.30646556000001
2.77,277,0.526,-0.252,-0.001,73.96887779999999,4.9847345999999995,12.834259199999998,102.29592132,-6.972898860000001,-46.27208808
2.78,278,0.384,-0.255,-0.138,68.2392978,5.443101,12.261301199999998,102.98347092,-7.1046792000000005,-46.2377106
2.79,279,0.209,-0.252,-0.26,53.8007562,2.2345362,11.45916,103.49340354,-7.20208206,-46.22625144
2.8,280,0.02,-0.208,-0.324,44.7480198,-6.6463128000000005,10.6570188,103.95749951999998,-7.282296179999999,-46.31219514
2.81,281,-0.154,-0.126,-0.245,44.919907200000004,-17.6471064,8.479778399999999,104.43878424000002,-7.3166736599999975,-46.495541700000004
2.82,282,-0.187,-0.032,-0.132,43.831287,-21.7151082,4.2398892,104.91433938,-7.29375534,-46.70753616
2.8299999999999996,283,-0.119,0.062,-0.078,34.950438,-18.162768600000003,0.1718874,105.29249166,-7.242189120000001,-46.879423560000006
2.84,284,-0.028,0.091,-0.058,21.485925,-21.199446,-2.3491278,105.53313402,-7.161975,-47.068499700000004
2.8499999999999996,285,-0.051,-0.049,-0.052000000000000005,-1.8907613999999997,-36.2109456,-3.8388186,105.55605234,-7.018735500000001,-47.40081534
2.86,286,-0.156,-0.401,-0.217,-43.7166954,-54.7747848,-8.9954406,105.18362964,-6.77809314,-47.90501838
2.8699999999999997,287,-0.161,-0.8029999999999999,-0.54,-87.94905299999998,-44.1750618,-23.3193906,104.3356518,-6.43431834,-48.27744108
2.88,288,0.004,-1.345,-0.748,-99.2936214,17.4179232,-59.8168152,103.29286824,-5.90719698,-47.97950292
2.8899999999999997,289,-0.49,-3.2030000000000003,-1.163,-161.23038119999995,99.4655088,-129.1447332,101.5281576,-4.90452048,-46.76483196
2.9,290,-1.245,-2.9410000000000003,0.374,-82.62054359999998,63.311859,-109.0912032,100.61715438,-3.9820580999999997,-45.9512316
2.9099999999999997,291,-0.547,-2.244,0.454,-45.3209778,55.6915176,-64.62966239999999,100.10149218,-3.4663959,-45.29805948
2.92,292,0.209,-1.492,0.292,34.8358464,67.5517482,-31.971056400000002,100.40515992,-3.28877892,-44.58186198
2.9299999999999997,293,0.5329999999999999,-0.938,0.37,76.60448459999998,85.084263,-2.4637194,101.12135742,-3.44347758,-43.745343299999995
2.94,294,0.539,-1.025,0.378,49.1025006,75.9742308,3.4950437999999995,101.57399424000002,-3.61536498,-43.01195706
2.9499999999999997,295,0.237,-1.5419999999999998,0.569,18.8503182,69.21332640000001,-16.8449652,101.71150416,-3.6096353999999997,-42.30721872
2.96,296,-0.046,-1.847,0.6629999999999999,-10.255948199999999,58.613603399999995,-39.247623,101.55680550000001,-3.35753388,-41.66550576
2.9699999999999998,297,-0.098,-1.874,0.562,-12.261301199999998,45.779344200000004,-44.5761324,101.39637726,-3.03094782,-41.13265482
2.98,298,-0.001,-1.754,0.448,-0.4583664000000001,45.1490904,-36.7839036,101.36199978,-2.77311672,-40.6227222
2.9899999999999998,299,0.115,-1.544,0.408,2.6929026,57.2385042,-28.8770832,101.35054062,-2.61268848,-40.01538672
3.0,300,0.145,-1.361,0.339,2.0053530000000004,67.66633979999999,-22.7464326,101.33335188,-2.53820394,-39.31637796
3.01,301,0.071,-1.21,0.244,0.9167328,71.67704579999999,-17.6471064,101.2989744,-2.52674478,-38.5887213
3.02,302,-0.039,-1.067,0.18,1.2032118,73.911582,-14.0947668,101.2703265,-2.5496631,-37.84960548
3.03,303,-0.139,-0.942,0.123,6.417129599999999,77.1201468,-12.318597,101.29324482,-2.6012293200000003,-37.08184176
3.04,304,-0.179,-0.828,-0.011,15.2406828,86.45936219999999,-12.834259199999998,101.36772936,-2.68144344,-36.21667518
3.05,305,-0.194,-0.7140000000000001,-0.146,26.69984280000001,101.8146366,-15.469866,101.57972382,-2.75592798,-35.20253952
3.06,306,-0.227,-0.62,-0.185,41.596750799999995,126.1080558,-21.0848544,101.91776904,-2.8361421,-33.93630234
3.07,307,-0.299,-0.552,-0.09,48.0711762,143.35409159999998,-25.84040580000001,102.31883964,-2.91635622,-32.49817776
3.08,308,-0.35700000000000004,-0.454,-0.012,44.6334282,155.1570264,-28.0176462,102.66834402,-3.0137590800000003,-30.93973200000001
3.09,309,-0.375,-0.329,-0.013,38.7892566,159.9125778,-25.496631,102.94909344,-3.18564648,-29.34690876
3.0999999999999996,310,-0.424,-0.242,-0.067,34.262888399999994,163.3503258,-20.9702628,103.17827664,-3.3919113599999995,-27.7311672
3.11,311,-0.433,-0.204,-0.113,26.2414764,165.4702704,-16.386598799999998,103.32724572,-3.64974246,-26.103966480000004
3.1199999999999997,312,-0.33,-0.177,-0.093,15.0114996,163.80869219999997,-13.178034,103.35016404,-3.93622146,-24.50541366
3.13,313,-0.187,-0.115,-0.053,7.6203414,163.46491740000005,-11.2872726,103.29286824,-4.24561878,-22.91259042
3.1399999999999997,314,-0.057,-0.05,0.02,5.2139178,168.8507226,-11.745639,103.20119496,-4.56647526,-21.26247138
3.15,315,0.005,0.019,0.071,1.145916,176.9867262,-14.495837400000001,103.0464963,-4.8701430000000006,-19.53213822
3.1599999999999997,316,0.122,0.043,0.155,-12.9488508,191.2533804,-16.272007199999994,102.72563982,-5.19099948,-17.66429514
3.17,317,0.44,-0.07,0.215,-40.737313799999995,219.8439846,-16.1001198,102.08392686,-5.56342218,-15.51570264
3.1799999999999997,318,0.8390000000000001,-0.438,-0.059,-86.23017899999998,261.7845102,-14.7823164,100.91509254,-6.01032942,-12.96030996
3.19,319,1.098,-1.06,-0.917,-115.2218538,252.2734074,0.2291832000000001,99.4368609,-6.525991620000001,-10.51950888
3.1999999999999997,320,1.144,-2.353,-1.525,-161.97522659999996,82.62054359999998,41.76863820000001,97.70079816,-7.09322004,-9.79185222
3.21,321,1.308,-2.765,0.042,-187.8729282,24.2934192,73.6823988,95.77565928,-7.866713339999999,-9.66580146
3.2199999999999998,322,0.129,-1.535,0.813,-21.9442914,7.9641161999999985,54.3737142,95.54647608,-8.41675302,-9.64288314
3.23,323,-0.657,-1.639,0.469,10.313244,-3.3231564,43.65939960000001,95.66679726,-8.84074194,-9.71736768
3.2399999999999998,324,-0.747,-1.3530000000000002,0.625,5.6722842,24.8663772,13.0061466,95.69544516,-9.01262934,-9.48818448
3.25,325,-0.618,-1.525,0.653,49.7327544,63.08267579999999,-3.0366774,96.09651576,-9.05846598,-8.852201099999998
3.26,326,-0.115,-2.012,0.716,53.285094,86.68854540000002,1.2032118,96.4861272,-9.19024632,-7.987034519999999
3.27,327,0.343,-2.217,0.815,23.491278,114.53430420000001,13.407217200000002,96.52623426,-9.47672532,-6.86403684
3.28,328,0.513,-2.2430000000000003,0.76,6.3598338,150.00040439999995,28.991674800000002,96.32569896,-9.9694692,-5.40872352
3.29,329,0.508,-2.147,0.585,-8.5370742,168.27776459999995,38.961144,95.93035794,-10.57680468,-3.77579322
3.3,330,0.365,-1.771,0.43,-14.32395,171.314442,36.669312,95.44334364,-11.15549226,-2.10275586
3.31,331,0.173,-1.565,0.371,2.578311,161.91793080000005,29.8511118,95.13394632,-11.64250656,-0.5099326200000001
3.32,332,0.001,-1.423,0.393,18.3919518,148.96908,22.9756158,95.00216598,-12.03784758,0.95683986
3.33,333,-0.08900000000000001,-1.293,0.453,28.2468294,140.2601184,17.8189938,94.97351808,-12.370163219999998,2.35485738
3.34,334,-0.086,-1.183,0.4920000000000001,34.0337052,138.59854019999997,14.610429000000002,95.01935472,-12.6623718,3.73568616
3.3499999999999996,335,-0.042,-1.078,0.528,38.5027776,142.5519504,13.120738199999998,95.07092094,-12.9488508,5.16808116
3.36,336,0.028,-0.956,0.585,51.10785360000001,152.63601119999996,12.9488508,95.2256196,-13.25251854,6.69787902
3.3699999999999997,337,0.16699999999999998,-0.911,0.54,72.93755340000001,166.6161864,15.9282324,95.55220566,-13.60202292,8.37091638
3.38,338,0.397,-0.905,0.379,80.67248640000003,172.63224540000004,19.2513888,95.93608752,-14.008823099999995,10.10697912
3.3899999999999997,339,0.569,-0.831,0.213,67.895523,159.85528200000005,18.907614000000002,96.21683694,-14.364057060000002,11.71126152
3.4,340,0.55,-0.74,0.256,55.6342218,145.4740362,17.8189938,96.39445392000002,-14.73075018,13.16657484
3.4099999999999997,341,0.515,-0.7040000000000001,0.321,49.61816279999999,138.42665280000003,20.05353,96.52050468,-15.12036162,14.5531332
3.42,342,0.486,-0.684,0.313,48.3576552,128.34259200000002,24.1788276,96.6580146,-15.53289138,15.83082954
3.4299999999999997,343,0.434,-0.6509999999999999,0.302,47.2117392,119.5763346,25.55392680000001,96.8012541,-15.956880300000002,17.02258218
3.44,344,0.361,-0.598,0.166,41.7113424,118.6596018,23.835052800000003,96.88146822,-16.323573420000002,18.20860524
3.4499999999999997,345,0.264,-0.506,0.006,32.8877892,117.8574606,18.1054728,96.8585499,-16.6730778,19.3946283
3.46,346,0.149,-0.4270000000000001,-0.104,27.3873924,116.310474,11.8029348,96.78406536,-16.95382722,20.5691922
3.4699999999999998,347,0.07,-0.3720000000000001,-0.223,26.9863218,116.76884040000002,8.078707799999998,96.69239208,-17.20019916,21.75521526
3.48,348,0.03,-0.281,-0.269,29.220858000000003,116.0812908,3.724227,96.61790754,-17.40073446,22.946967899999997
3.4899999999999998,349,0.015,-0.217,-0.29,30.194886600000004,115.5083328,-1.6042823999999998,96.52050468,-17.538244380000002,24.1501797
3.5,350,0.017,-0.16399999999999998,-0.306,24.1788276,117.57098159999998,-6.2452422,96.38299476,-17.64137682,25.36485066
3.51,351,0.012,-0.145,-0.28600000000000003,12.2040054,124.331886,-9.0527364,96.10224534,-17.715861359999995,26.65400616
3.52,352,-0.004,-0.229,-0.292,-4.2398892,135.218088,-8.880849000000003,95.60950146,-17.80180506,28.057753260000005
3.53,353,-0.025,-0.417,-0.304,-26.814434400000003,146.10429,-5.3285094000000015,94.85892648,-17.92212624,29.5646328
3.54,354,-0.035,-0.688,-0.385,-59.30115299999999,153.6673356,-1.432395,93.71301048,-18.05963616,31.15745604
3.55,355,-0.032,-1.073,-0.518,-98.4341844,160.19905680000005,0.11459160000000004,92.18321262,-18.191416500000006,32.80757508
3.56,356,-0.051,-1.872,-0.76,-158.88125340000005,177.330501,-4.9274388,89.97159474,-18.24298272,34.62958152
3.57,357,-0.156,-2.463,-0.595,-169.0799058,186.784308,-21.027558600000006,87.6339261,-18.05390658,36.54899082
3.58,358,-0.485,-2.327,-0.238,-76.1461182,173.20520340000004,-29.0489706,86.29320437999998,-17.72732052,38.32516062000001
3.59,359,-0.718,-1.916,-0.021,-36.2109456,170.0539344,-26.356068,85.37647158,-17.39500488,40.06122336
3.5999999999999996,360,-0.5489999999999999,-1.491,0.036000000000000004,-7.333862400000001,175.7835144,-21.829699800000004,84.74621778000002,-17.07987798,41.8545819
3.61,361,-0.181,-1.17,0.24,39.591397799999996,180.0234036,-19.6524594,84.58578954,-16.764751080000003,43.69950666
3.6199999999999997,362,0.08,-1.196,0.338,43.258329,190.6231266,-24.350715,84.44827962000002,-16.392328380000002,45.64183428
3.63,363,0.18,-1.4880000000000002,0.331,18.162768600000003,199.6185672,-30.080295,84.04147944,-15.951150719999998,47.66437602000001
3.6399999999999997,364,0.127,-1.7819999999999998,0.32299999999999995,-1.2605076000000002,204.2022312,-30.7105488,83.44560312,-15.47559558,49.71556566
3.65,365,0.085,-1.998,0.369,1.6042823999999998,202.254174,-22.1161788,82.90129302,-15.074524979999998,51.75529614
3.6599999999999997,366,0.106,-2.048,0.404,10.8289062,199.44667980000003,-8.9381448,82.46584494,-14.78804598,53.77783787999999
3.67,367,0.196,-1.901,0.35200000000000004,10.3705398,201.9103992,2.4637194,82.0189377,-14.59896984,55.83475709999999
3.6799999999999997,368,0.267,-1.672,0.294,9.969469199999999,202.3687656,12.032117999999999,81.57203046,-14.484378240000002,57.90313548
3.69,369,0.235,-1.514,0.253,16.2147114,197.956989,23.032911600000002,81.21106692,-14.46145992,59.94286595999999
3.6999999999999997,370,0.185,-1.423,0.197,22.058883,192.39929640000003,32.31483119999999,80.91312875999998,-14.53021488,61.94821896
3.71,371,0.129,-1.307,0.13699999999999998,21.5432208,185.4665046,38.3308902,80.61519059999998,-14.66199522,63.88481700000001
3.7199999999999998,372,0.053,-1.197,0.103,22.2307704,179.4504456,39.7632852,80.34017076,-14.80523472,65.7755784
3.73,373,0.017,-1.112,0.151,25.0955604,180.5390658,40.04976420000001,80.08233966,-14.937015060000002,67.67206938000001
3.7399999999999998,374,0.026,-1.033,0.116,30.4240698,183.060081,38.27359439999999,79.88180436,-15.028688340000002,69.59147868
3.75,375,0.041,-0.976,0.062,33.5753388,173.60627399999996,32.085648000000006,79.72710570000002,-15.08598414,71.41348512
3.76,376,0.036000000000000004,-0.916,0.107,35.809875,162.20440980000004,22.5745452,79.62970284,-15.05733624,73.09798164
3.77,377,0.038,-0.865,0.154,43.1437374,144.958374,6.3025379999999975,79.66980989999998,-14.896907999999998,74.58194286
3.78,378,0.023,-0.782,0.221,57.86875799999999,127.48315500000001,-11.8602306,79.91045226,-14.58751068,75.85390962
3.79,379,-0.003,-0.73,0.13699999999999998,68.52577679999999,125.6496894,-29.5646328,80.3000637,-14.10049638,77.07431016000002
3.8,380,-0.042,-0.639,0.039,61.8221682,135.9056376,-44.2896534,80.59800186,-13.47597216,78.38065440000003
3.81,381,0.004,-0.516,0.062,44.4615408,145.1875572,-53.8007562,80.71259346,-12.7483155,79.75575359999998
3.82,382,0.058,-0.325,0.05,26.298772200000002,151.547391,-54.54560160000001,80.65529766,-12.00919968,81.18814859999998
3.83,383,0.035,-0.191,-0.044,20.7410796,163.6941006,-49.847346,80.5292469,-11.29873176,82.74659436
3.84,384,-0.087,-0.07400000000000001,-0.048,21.7151082,170.168526,-42.7426668,80.40892572,-10.66274838,84.37952466
3.8499999999999996,385,-0.256,0.023,-0.043,26.69984280000001,171.4863294,-33.9764094,80.3573595,-10.09551996,86.02964370000002
3.86,386,-0.405,0.07,-0.052000000000000005,30.0229992,179.049375,-27.444688199999998,80.34590034,-9.57412818,87.76570644
3.8699999999999997,387,-0.408,0.058,-0.063,24.7517856,190.1647602,-21.7151082,80.2714158,-9.09284346,89.62209035999999
3.88,388,-0.32299999999999995,0.035,-0.064,13.521808800000002,195.2640864,-17.3606274,80.08806924,-8.64593622,91.52431092
3.8899999999999997,389,-0.13699999999999998,-0.04,-0.058,3.2658606,200.4207084,-13.407217200000002,79.79586065999997,-8.22767688,93.48382728
3.9,390,0.095,-0.194,-0.102,-3.4950437999999995,204.546006,-7.9641161999999985,79.45208586,-7.84379502,95.48918028
3.9099999999999997,391,0.271,-0.426,-0.214,-7.6776372,193.7743956,-1.2605076000000002,79.09112232,-7.52293854,97.39713042
3.92,392,0.305,-0.789,-0.264,-14.7823164,171.027963,8.078707799999998,78.70151088,-7.328132819999999,99.0930861
3.9299999999999997,393,0.339,-1.238,-0.059,-26.298772200000002,151.547391,23.7204612,78.22022616,-7.305214500000001,100.62288396
3.94,394,0.435,-1.885,0.162,-48.987909,143.29679579999996,40.737313799999995,77.51548782,-7.4427244199999985,102.10684518
3.9499999999999997,395,0.39,-2.08,0.29600000000000004,-57.4103916,136.7650746,51.56622,76.72480578,-7.68336678,103.55069934
3.96,396,0.26,-1.628,0.184,-35.4088044,126.2799432,51.9099948,76.16903651999998,-7.929738719999999,104.90288022
3.9699999999999998,397,0.06,-1.423,0.091,4.8128472,111.49762679999999,43.48751220000001,76.03725618000001,-8.11308528,106.09463286
3.98,398,-0.054000000000000006,-1.511,0.091,18.1054728,98.0904096,36.955791,76.0601745,-8.25632478,107.143146
3.9899999999999998,399,-0.029,-1.68,0.14800000000000002,17.8762896,87.49068659999998,33.6899304,76.10601113999998,-8.393834700000001,108.07706754
4.0,400,0.162,-1.743,0.249,19.8816426,88.80849,30.4813656,76.15757735999998,-8.49696714,109.01671866
4.01,401,0.292,-1.7480000000000002,0.306,20.168121600000006,91.67328,26.298772200000002,76.20341400000002,-8.55999252,109.9792881
4.02,402,0.335,-1.828,0.359,9.8548776,93.2775624,22.7464326,76.15184778,-8.58291084,110.94758712
4.03,403,0.338,-1.899,0.421,-1.7188740000000002,93.392154,20.626488,75.9742308,-8.58291084,111.90442698
4.04,404,0.314,-1.911,0.455,-5.3285094000000015,91.1576178,15.756345000000001,75.77942508000002,-8.5370742,112.83261894
4.05,405,0.251,-1.897,0.438,-5.0993262,88.2928278,7.9641161999999985,75.59034894,-8.41675302,113.71497426
4.06,406,0.17600000000000002,-1.86,0.438,-1.7761698,84.7404882,-0.4583664000000001,75.43565028,-8.22767688,114.54003378
4.07,407,0.08199999999999999,-1.781,0.444,3.724227,81.47462759999998,-7.7922288,75.35543616,-7.96984578,115.31352708
4.08,408,0.006,-1.6569999999999998,0.405,12.4904844,80.21412,-11.4018642,75.37262489999998,-7.677637200000001,116.06410206
4.09,409,0.009000000000000001,-1.534,0.354,24.923673,82.33406459999998,-10.1986524,75.53305314,-7.3911582,116.83759536
4.1,410,0.06,-1.392,0.29100000000000004,36.096354,83.7091638,-3.0939732,75.78515466,-7.1734341599999984,117.64546614
4.109999999999999,411,0.162,-1.28,0.189,45.6074568,83.36538900000002,5.844171599999999,76.13465904,-7.0473833999999975,118.47625524
4.12,412,0.274,-1.168,0.116,50.993262,78.89631659999998,13.8082878,76.54145922000002,-7.01300592,119.28412602
4.13,413,0.316,-1.046,0.1,48.987909,71.33327100000002,18.2200644,76.94252982,-7.0416538200000005,120.02324184
4.14,414,0.35700000000000004,-0.918,0.054000000000000006,41.1383844,55.9779966,20.454600600000006,77.30349336,-7.06457214,120.61911816
4.1499999999999995,415,0.369,-0.765,-0.016,38.1590028,30.5959572,20.454600600000006,77.64153858,-7.20208206,120.96289296
4.16,416,0.366,-0.607,0.059,44.8053156,6.4744254,20.168121600000006,78.08271624,-7.385428619999999,121.07748456000002
4.17,417,0.361,-0.514,0.112,52.6548402,-2.86479,21.7151082,78.61556718,-7.5916935,121.0946733
4.18,418,0.335,-0.444,0.08800000000000001,52.82672760000001,1.2032118,23.6631654,79.14268854000002,-7.820876699999999,121.15769868
4.1899999999999995,419,0.302,-0.381,0.018000000000000002,46.123119,9.453807000000001,23.6058696,79.59532535999998,-7.9927641,121.2952086
4.2,420,0.261,-0.312,-0.078,38.10170700000001,13.5791046,21.829699800000004,79.9562889,-8.18184024,121.47282558
4.21,421,0.147,-0.274,-0.128,34.0337052,9.3965112,20.05353,80.28287496,-8.35945722,121.60460592
4.22,422,0.046,-0.235,-0.131,30.366774000000003,5.3285094000000015,17.475219,80.57508354000002,-8.519885460000001,121.69054962
4.2299999999999995,423,0.008,-0.198,-0.198,20.454600600000006,9.2819196,11.745639,80.76988926,-8.623017899999999,121.80514122
4.24,424,0.008,-0.171,-0.342,5.5003968,14.7823164,4.8701430000000006,80.74697094,-8.64593622,121.96556945999998
4.25,425,-0.063,-0.188,-0.423,-8.651665800000002,15.5844576,-0.8594370000000001,80.63237934,-8.61728832,122.12026812
4.26,426,-0.211,-0.312,-0.5479999999999999,-23.491278,16.902261,-7.9641161999999985,80.36881866,-8.519885460000001,122.26923719999999
4.27,427,-0.317,-0.487,-0.618,-32.8877892,26.2414764,-16.7303736,79.99639596,-8.319350159999999,122.49842040000001
4.28,428,-0.378,-0.6920000000000001,-0.598,-34.37748,36.5547204,-28.6479,79.60105494000003,-7.9927641,122.80781772
4.29,429,-0.4320000000000001,-0.975,-0.408,-30.93973200000001,39.47680620000001,-41.9978214,79.22863224,-7.545856859999999,123.11721504
4.3,430,-0.426,-1.2819999999999998,-0.203,-35.8671708,39.7632852,-52.48295279999999,78.82183205999998,-6.972898860000001,123.40369404
4.31,431,-0.41,-1.597,-0.045,-43.831287,41.825934,-53.9153478,78.33481775999998,-6.3770225400000005,123.70736178
4.32,432,-0.136,-1.957,-0.057,-45.0917946,54.25912260000001,-43.258329,77.82488514,-5.86708992,124.14853944
4.33,433,0.203,-1.931,0.009000000000000001,-28.6479,78.5525418,-22.8037284,77.45246244,-5.5003968,124.85900736
4.34,434,0.614,-1.801,0.019,-6.4744254,104.851314,-8.3651868,77.28057504,-5.2139178,125.86168386
4.35,435,0.757,-1.681,0.028,4.6409598,107.429625,1.2605076000000002,77.21754966,-5.01911208,126.91592658
4.36,436,0.6890000000000001,-1.6,0.115,13.178034,96.8871978,8.136003599999999,77.25765672,-4.91025006,127.87849602
4.37,437,0.453,-1.601,0.161,16.902261,74.9429064,13.2353298,77.35505958,-4.893061319999998,128.63480058
4.38,438,0.292,-1.653,0.21600000000000005,13.2353298,45.8939358,15.6417534,77.44100327999998,-4.9560867,129.11608529999998
4.39,439,0.192,-1.704,0.233,6.417129599999999,19.595163600000006,16.1001198,77.49829908000002,-5.0706783,129.3452685
4.3999999999999995,440,0.145,-1.683,0.249,4.1252976000000015,2.6929026,16.272007199999994,77.53267656,-5.21964738,129.4025643
4.41,441,0.125,-1.588,0.26,5.1566220000000005,-3.724227,18.162768600000003,77.58997236,-5.40299394,129.40829388
4.42,442,0.111,-1.436,0.213,7.7922288,-7.5630456000000015,22.5172494,77.67018648,-5.63790672,129.37964598
4.43,443,0.116,-1.268,0.133,14.7823164,-12.605076,27.043617600000005,77.83061472,-5.91865614,129.31662060000002
4.4399999999999995,444,0.122,-1.121,0.003,23.9496444,-18.7357266,29.7365202,78.11136413999998,-6.205135139999999,129.19629942
4.45,445,0.08900000000000001,-1.001,-0.114,33.002380800000005,-24.694489800000003,30.4813656,78.47232768,-6.543180359999999,129.01868244
4.46,446,-0.001,-0.915,-0.173,41.4821592,-25.0955604,29.507337,78.91923492,-6.86403684,128.8296063
4.47,447,-0.172,-0.84,-0.17800000000000002,50.133825,-19.4232762,26.5852512,79.44635628,-7.15051584,128.69209638
4.4799999999999995,448,-0.381,-0.7759999999999999,-0.102,55.06126379999999,-3.8388186,20.5691922,80.00212554,-7.3567807200000015,128.69782596
4.49,449,-0.526,-0.72,-0.008,53.11320660000001,19.595163600000006,10.313244,80.53497648,-7.500020219999999,128.91555
4.5,450,-0.59,-0.63,0.094,47.4982182,41.023792799999995,-3.151269,80.95896540000003,-7.408346939999999,129.32235018
4.51,451,-0.5720000000000001,-0.528,0.175,40.5654264,55.06126379999999,-17.3606274,81.29701062000002,-7.161975,129.84374196
4.52,452,-0.496,-0.442,0.18600000000000005,38.0444112,63.6556338,-29.793816,81.60067836,-6.7895523,130.4338887
4.53,453,-0.416,-0.34600000000000003,0.126,39.9351726,70.30194660000001,-36.2109456,81.92153484,-6.348374640000001,131.08133124
4.54,454,-0.306,-0.293,0.086,44.977203,73.96887779999999,-38.38818600000001,82.3054167,-5.9129265600000025,131.76888084
4.55,455,-0.155,-0.253,0.017,48.1857678,70.6457214,-37.81522800000001,82.71794646,-5.46028974,132.42205296
4.56,456,0.002,-0.227,-0.034,47.3836266,62.9107884,-33.231564,83.1362058,-5.0706783,133.0121997
4.57,457,0.13,-0.19,-0.052000000000000005,39.7632852,59.7595194,-24.637194,83.48571018,-4.77274014,133.57942812
4.58,458,0.236,-0.104,-0.056,31.340802600000004,64.4004792,-14.896907999999998,83.74354128,-4.56647526,134.20395234
4.59,459,0.279,0.01,-0.036000000000000004,28.4760126,70.9894962,-7.5630456000000015,83.96126532,-4.40031744,134.89723152
4.6,460,0.261,0.107,-0.001,29.7365202,75.343977,-3.151269,84.1961781,-4.30864416,135.64207692
4.61,461,0.225,0.14,-0.035,28.4760126,83.82375540000002,-0.6875496,84.41390214,-4.2398892,136.4785956
4.62,462,0.274,0.055,-0.253,14.266654199999998,104.2210602,4.583664,84.47119794,-4.21697088,137.50992000000002
4.63,463,0.35600000000000004,-0.151,-0.589,-13.521808800000002,123.1286742,16.558486199999994,84.22482600000002,-4.297185000000002,138.74177969999997
4.64,464,0.326,-0.584,-0.963,-43.48751220000001,96.0850566,38.0444112,83.65759758,-4.58939358,139.73299704
4.6499999999999995,465,0.472,-1.367,-0.932,-76.1461182,11.516455800000001,66.2912406,82.87264512,-5.23683612,139.91061402
4.66,466,0.8140000000000001,-2.1630000000000003,-0.237,-97.116381,-26.0122932,87.49068659999998,81.90434609999998,-6.13638018,139.76164494
4.67,467,0.8,-1.776,0.382,-45.0344988,7.5057497999999985,69.32791800000001,81.42879096,-6.812470620000001,139.92780276000002
4.68,468,0.258,-1.625,0.28800000000000003,-28.81978740000001,-0.8594370000000001,51.7954032,81.1308528,-7.328132819999999,139.99082814000002
4.6899999999999995,469,-0.448,-1.54,-0.087,-49.5035712,-17.6471064,30.3094782,80.64956808000002,-7.66617804,139.8590478
4.7,470,-0.845,-1.335,-0.114,-31.340802600000004,-39.47680620000001,-0.6302538000000001,80.39173698,-7.717744259999999,139.46370678
4.71,471,-1.019,-1.51,-0.006,11.8602306,-64.62966239999999,-13.2353298,80.60946102,-7.6719076200000025,138.80480508
4.72,472,-0.86,-1.84,0.324,52.19647379999999,-70.35924240000001,-12.1467096,81.23971482,-7.63753014,138.10006674000002
4.7299999999999995,473,-0.371,-2.051,0.5720000000000001,63.9994086,-34.37748,-10.026765,81.93872358,-7.574504760000001,137.75056236
4.74,474,0.013,-2.172,0.617,40.4508348,14.381245800000002,-8.651665800000002,82.33979418,-7.46564274,137.88234269999998
4.75,475,0.119,-2.129,0.638,5.3858052,46.352302200000004,-3.8961144,82.32833502,-7.37969904,138.3407091
4.76,476,0.035,-2.027,0.63,-10.1413566,58.9000824,-4.1825934,82.14498846000002,-7.2765666,138.91939668
4.77,477,-0.086,-1.932,0.557,-11.2872726,56.436363,-9.3965112,81.95018274,-7.12186794,139.46370678
4.78,478,-0.153,-1.826,0.532,-1.8334656000000005,50.82137460000001,-18.7357266,81.86423904,-6.8812255800000015,139.93926191999998
4.79,479,-0.222,-1.714,0.494,13.2353298,49.388979600000006,-31.6845774,81.95591232000002,-6.51453246,140.38616915999998
4.8,480,-0.301,-1.547,0.407,30.4813656,54.14453099999999,-41.6540466,82.20228426,-6.0447069,140.86745388
4.81,481,-0.303,-1.376,0.318,45.263682,60.7908438,-43.20103320000001,82.59762528,-5.5519630200000005,141.41749356
4.82,482,-0.195,-1.2009999999999998,0.159,50.8786704,70.18735500000001,-37.9298196,83.04453251999998,-5.10505578,142.07066568
4.83,483,0.012,-1.056,-0.014,53.858052,78.6671334,-28.934379,83.51435808,-4.74409224,142.82124066
4.84,484,0.276,-0.936,-0.211,58.2698286,77.80769640000003,-20.626488,84.01856111999999,-4.42896534,143.57181564
4.85,485,0.5660000000000001,-0.823,-0.305,66.463128,61.020027,-14.4385416,84.64308534,-4.2398892,144.16769196
4.86,486,0.8190000000000001,-0.747,-0.269,71.1613836,28.4187168,-7.7349330000000025,85.33636451999998,-4.13675676,144.45417096
4.87,487,0.923,-0.643,-0.13699999999999998,67.49445240000001,0.0,0.9740286,86.02391412,-4.14248634,144.45990054
4.88,488,0.778,-0.485,-0.01,55.748813399999996,-15.2406828,13.464512999999998,86.60260170000002,-4.27426668,144.32239062000005
4.89,489,0.518,-0.359,-0.01,45.4928652,-13.0634424,26.069589,87.06669767999998,-4.48053156,144.20779901999995
4.8999999999999995,490,0.28800000000000003,-0.259,-0.14800000000000002,40.2789474,-2.0626488000000003,32.31483119999999,87.47922744,-4.80138804,144.20779901999995
4.91,491,0.125,-0.223,-0.319,34.0337052,1.432395,31.8564648,87.82300224,-5.11078536,144.23644692
4.92,492,0.014,-0.207,-0.444,23.835052800000003,-6.589017,29.1062664,88.06937418,-5.397264359999999,144.18488069999995
4.93,493,-0.1,-0.136,-0.4370000000000001,18.3919518,-22.5172494,26.41336380000001,88.28136864,-5.66082504,143.97288624
4.9399999999999995,494,-0.17800000000000002,-0.009000000000000001,-0.301,23.8923486,-38.5027776,22.345362,88.53919973999999,-5.90719698,143.60046354
4.95,495,-0.184,0.093,-0.211,29.7365202,-55.86340500000001,15.985528200000001,88.90589286,-6.06189564,143.05042386
4.96,496,-0.14400000000000002,0.093,-0.229,21.9442914,-74.5418358,7.9641161999999985,89.21529018,-6.130650600000001,142.31703762
4.97,497,-0.045,-0.08900000000000001,-0.451,-14.610429000000002,-77.2920342,-8.7089616,89.15799438,-6.0332477399999975,141.54354432
4.9799999999999995,498,0.056,-0.381,-0.732,-53.1705024,-61.5356892,-28.991674800000002,88.68816882,-5.74103916,140.91902009999995
4.99,499,-0.035,-0.7609999999999999,-0.848,-59.1292656,-16.959556799999998,-56.2071798,88.05791502,-5.19099948,140.73567354
5.0,500,-0.328,-1.399,-0.79,-61.7648724,38.3308902,-92.4181254,87.39901332,-4.27426668,141.07371876
5.01,501,-0.61,-1.5590000000000002,-0.17800000000000002,-43.3156248,1.6042823999999998,-96.829902,86.95783566,-3.31742682,141.03934128
5.02,502,-0.489,-1.61,0.188,-24.5226024,-32.2002396,-71.04679200000002,86.72865246,-2.62414764,140.68410732
5.03,503,-0.055,-1.664,0.128,-47.269034999999995,-26.4706596,-51.4516284,86.26455648,-2.12567418,140.38616915999998
5.04,504,0.304,-1.2990000000000002,0.08199999999999999,-46.065823200000004,-1.7188740000000002,-26.5279554,85.81764924000002,-1.82200644,140.34606209999998
5.05,505,0.674,-1.182,0.174,1.0313244,44.2896534,-8.7662574,85.80619008000002,-1.71314442,140.77578060000005
5.06,506,0.741,-1.476,0.165,17.0741484,55.9779966,-14.32395,85.96088874,-1.5469866,141.32009069999995
5.07,507,0.539,-1.727,0.258,27.2728008,54.602897399999996,-24.0069402,86.21299026,-1.28342592,141.84721206
5.08,508,0.141,-1.838,0.313,36.1536498,34.950438,-27.215505,86.56822422,-0.9969469199999998,142.18525728
5.09,509,-0.08800000000000001,-1.85,0.34,30.7678446,1.7761698,-26.7571386,86.88908070000002,-0.73338624,142.19098686
5.1,510,-0.125,-1.805,0.362,20.1108258,-19.8243468,-25.3820394,87.09534558,-0.48128472,141.98472198
5.11,511,-0.112,-1.781,0.332,12.032117999999999,-29.392745399999995,-18.907614000000002,87.22712592,-0.30366774,141.68678382000004
5.12,512,-0.098,-1.763,0.35,4.4690724,-33.002380800000005,-8.651665800000002,87.27296256,-0.22345362,141.35446818
5.13,513,-0.07400000000000001,-1.6969999999999998,0.384,0.11459160000000004,-35.46610020000001,7.0473834,87.28442172,-0.29793816,141.01069338
5.14,514,-0.037000000000000005,-1.594,0.403,3.8388186,-36.955791,17.4179232,87.3474471,-0.47555514,140.64972984
5.1499999999999995,515,0.013,-1.481,0.388,9.167328,-37.9871154,22.459953600000002,87.44484996,-0.70473834,140.28876630000002
5.16,516,0.066,-1.356,0.324,13.0061466,-40.2789474,24.4080108,87.59381904,-0.95683986,139.89915486
5.17,517,0.091,-1.227,0.229,20.2254174,-43.544808,25.0382646,87.81154308,-1.20894138,139.48089552000002
5.18,518,0.079,-1.137,0.175,29.392745399999995,-44.7480198,23.777757,88.12666998,-1.44385416,139.05117702
5.1899999999999995,519,0.044,-1.056,0.139,37.0703826,-43.6021038,21.3140376,88.53919973999999,-1.64438946,138.6271881
5.2,520,-0.024,-0.945,0.084,46.123119,-42.398892,18.449247600000003,89.02621404,-1.82200644,138.21465834
5.21,521,-0.14300000000000002,-0.812,0.023,67.322565,-42.5707794,14.495837400000001,89.72522280000004,-1.95378678,137.80212858
5.22,522,-0.301,-0.684,-0.045,89.03767320000001,-40.10706,11.45916,90.64768518,-2.04546006,137.41824672
5.2299999999999995,523,-0.445,-0.5760000000000001,-0.083,99.9238752,-29.9657034,9.453807000000001,91.67900958,-2.1199446,137.13176772000003
5.24,524,-0.54,-0.461,-0.055,94.13699940000001,-15.5844576,7.5057497999999985,92.63011986,-2.25172494,136.98852821999998
5.25,525,-0.573,-0.307,-0.063,78.2660628,-1.145916,4.6409598,93.42653148,-2.2918320000000003,136.98279864
5.26,526,-0.4970000000000001,-0.18600000000000005,-0.127,61.7075766,9.453807000000001,0.9740286,94.04532612,-2.30329116,137.08593108
5.27,527,-0.41,-0.06,-0.239,51.2224452,18.2200644,-1.145916,94.55525874,-2.30902074,137.26927763999998
5.28,528,-0.266,-0.017,-0.311,44.977203,25.55392680000001,-4.010706000000001,95.00216598,-2.2918320000000003,137.53283832
5.29,529,-0.129,-0.022,-0.321,33.6899304,35.3515086,-9.969469199999999,95.2829154,-2.24599536,137.89953144
5.3,530,-0.034,0.0,-0.29,29.5646328,42.34159620000001,-14.7250206,95.55793524,-2.1485925000000003,138.32924994
5.31,531,0.004,0.049,-0.241,28.4187168,43.9458786,-15.5844576,95.8272255,-2.04546006,138.78188676
5.32,532,0.011,0.109,-0.189,25.3247436,40.680018,-11.917526400000002,96.06213828,-1.98243468,139.19441652
5.33,533,-0.031,0.175,-0.112,22.2880662,36.7839036,-8.136003599999999,96.26840316,-1.9480572000000005,139.56683922000002
5.34,534,-0.087,0.17,0.006999999999999999,18.907614000000002,36.2682414,-8.250595200000001,96.4574793,-1.93086846,139.93926191999998
5.35,535,0.0,0.041,0.059,6.417129599999999,56.8374336,-10.7716104,96.49185678,-1.90222056,140.50649034
5.36,536,0.393,-0.333,-0.103,-24.1215318,104.1637644,-11.172681,96.19964819999998,-1.93659804,141.53781474
5.37,537,0.787,-0.941,-0.8170000000000001,-98.0331138,165.58486200000004,14.32395,95.12248716,-2.2918320000000003,143.13636756
5.38,538,0.88,-2.839,-2.23,-212.280939,-28.361421000000004,84.7404882,92.99681298,-3.12835068,142.76967444
5.39,539,1.262,-3.309,-0.6920000000000001,-233.76686400000003,-96.4288314,134.072172,90.70498098,-4.41750618,141.7498092
5.3999999999999995,540,0.973,-2.041,0.812,4.4117766,-19.8243468,75.45856859999998,90.77373594,-5.1566220000000005,141.53781474
5.41,541,-0.131,-1.672,0.117,-40.2789474,-44.404245,50.1911208,90.4127724,-5.6436363,141.08517792
5.42,542,-0.672,-1.1,0.032,17.0741484,-22.91832,1.9480572,90.6133077,-5.65509546,140.86172430000005
5.43,543,-1.05,-0.8370000000000001,0.0,52.48295279999999,-11.0007936,-34.37748,91.15188822,-5.2998615,140.76432144
5.4399999999999995,544,-1.111,-1.507,0.058,51.6235158,-12.3758928,-41.023792799999995,91.69046874,-4.893061319999998,140.66118899999998
5.45,545,-0.608,-2.017,0.244,17.8189938,-2.4064236,-20.454600600000006,91.8738153,-4.68679644,140.64400026
5.46,546,-0.046,-2.114,0.479,8.136003599999999,28.5906042,-0.286479,91.92538152,-4.703985179999999,140.93047926000003
5.47,547,0.359,-2.072,0.446,4.010706000000001,66.5204238,12.891555,91.9024632,-4.8701430000000006,141.58365138
5.4799999999999995,548,0.451,-1.923,0.207,-17.475219,85.54262940000002,21.199446,91.6446321,-5.13370368,142.42017005999998
5.49,549,0.305,-1.757,0.042,-23.4339822,84.56860079999998,24.2361234,91.31804604,-5.40872352,143.25095916
5.5,550,0.184,-1.5630000000000002,0.022,-10.5424272,68.182002,20.511896399999998,91.13469948,-5.64936588,143.92132002
5.51,551,0.133,-1.368,0.12,12.032117999999999,48.987909,12.5477802,91.20345444,-5.79833496,144.40833432
5.52,552,0.087,-1.268,0.241,26.8717302,36.4974246,4.2398892,91.43263764,-5.85563076,144.76929786
5.53,553,-0.019,-1.257,0.276,23.9496444,28.762491600000004,0.1718874,91.6446321,-5.872819499999999,145.06150644000004
5.54,554,-0.115,-1.234,0.272,20.168121600000006,29.1635622,-0.572958,91.84516740000001,-5.87854908,145.34798544
5.55,555,-0.16699999999999998,-1.224,0.318,23.6058696,34.3201842,2.2345362,92.0457027,-5.92438572,145.69176024
5.56,556,-0.166,-1.226,0.365,29.8511118,40.90920120000001,6.1879464,92.29780422000002,-6.01032942,146.09856041999996
5.57,557,-0.105,-1.189,0.35700000000000004,30.7105488,46.8106686,11.1153852,92.55563532,-6.147839339999999,146.56265639999995
5.58,558,-0.02,-1.103,0.31,31.111619399999995,54.602897399999996,15.2979786,92.80773684,-6.33691548,147.10123692
5.59,559,0.067,-0.996,0.248,34.262888399999994,62.96808420000001,18.907614000000002,93.09421584,-6.543180359999999,147.71430198
5.6,560,0.146,-0.865,0.157,38.10170700000001,64.97343719999999,22.058883,93.39788358,-6.8182002000000015,148.35028536
5.61,561,0.195,-0.713,0.108,42.62807520000001,51.9672906,24.1215318,93.7645767,-7.098949620000001,148.85448839999995
5.62,562,0.248,-0.597,0.109,47.0971476,36.7839036,23.376686399999997,94.1942952,-7.3625102999999985,149.20972236
5.63,563,0.33,-0.48,0.112,51.9672906,22.86102420000001,20.511896399999998,94.69276866,-7.58596392,149.42744639999995
5.64,564,0.392,-0.373,0.151,58.15523699999999,11.688343199999998,15.6417534,95.2829154,-7.6890963600000015,149.53057884
5.6499999999999995,565,0.425,-0.289,0.225,62.738901,4.9847345999999995,11.5737516,95.9131692,-7.80368796,149.57641548
5.66,566,0.402,-0.278,0.253,62.7961968,4.4117766,11.3445684,96.543423,-7.9182795599999976,149.61652254
5.67,567,0.316,-0.317,0.21600000000000005,56.9520252,7.3911582,13.178034,97.116381,-8.05578948,149.67954791999995
5.68,568,0.22,-0.374,0.2,46.9252602,10.7143146,15.5844576,97.5747474,-8.2219473,149.7712212
5.6899999999999995,569,0.113,-0.465,0.191,29.7365202,9.6829902,18.1054728,97.88414472,-8.393834700000001,149.84570574
5.7,570,0.035,-0.532,0.174,20.2254174,7.6776372,20.5691922,98.07895044,-8.60582916,149.89154238
5.71,571,-0.006999999999999999,-0.583,0.117,12.261301199999998,6.2452422,22.4026578,98.19927162,-8.83501236,149.92591986
5.72,572,-0.013,-0.621,0.073,7.333862400000001,4.1252976000000015,23.6631654,98.27375616,-9.07565472,149.93164944
5.7299999999999995,573,0.019,-0.634,0.035,4.4117766,3.8961144,23.4339822,98.3195928,-9.3105675,149.93737902
5.74,574,0.042,-0.636,-0.07200000000000001,4.4117766,-0.9167328,22.058883,98.31386322,-9.49964364,149.90300154
5.75,575,-0.022,-0.662,-0.282,0.057295800000000015,-19.0222056,19.6524594,98.35397028,-9.66007188,149.68527749999996
5.76,576,-0.243,-0.8270000000000001,-0.552,-20.5691922,-50.133825,13.349921400000001,98.23937868,-9.70590852,149.1696153
5.77,577,-0.4370000000000001,-1.081,-0.37,-65.4318036,-64.457775,-4.5263682,97.689339,-9.55693944,148.52790234
5.78,578,-0.329,-1.412,-0.738,-90.1835892,7.333862400000001,-46.29500640000001,96.75541746,-9.11576178,148.64822352
5.79,579,-0.486,-2.027,-1.259,-97.2882684,133.8429888,-106.570188,95.52355776,-8.250595200000001,150.08061851999997
5.8,580,-0.797,-1.806,-0.413,-73.3959198,116.76884040000002,-106.79937120000001,94.5953658,-7.333862399999999,151.32393738000005
5.81,581,-0.586,-1.756,-0.056,-18.162768600000003,56.4936588,-70.18735500000001,94.32607554,-6.69787902,151.93700244
5.82,582,-0.188,-1.525,-0.101,-4.583664,41.9978214,-45.0344988,94.21721352,-6.29680842,152.38963926000002
5.83,583,0.036000000000000004,-1.222,-0.155,10.7143146,55.6915176,-24.2361234,94.25732058,-6.1077322800000005,152.96259726
5.84,584,0.13699999999999998,-1.141,-0.081,17.8762896,77.23473840000003,-11.745639,94.32607554,-6.0447069,153.73609056
5.85,585,0.118,-1.415,-0.083,14.4385416,86.5739538,-16.673077799999998,94.37191218,-5.96449278,154.60698672
5.86,586,0.014,-1.695,-0.043,7.8495246,94.70995740000001,-30.3094782,94.3375347,-5.7582279000000005,155.56955616
5.87,587,-0.262,-1.78,-0.045,3.9534102,109.3203864,-42.62807520000001,94.25732058,-5.44883058,156.68109468
5.88,588,-0.466,-1.65,-0.039,2.291832,122.26923719999999,-50.0765292,94.14845856,-5.07640788,157.93014312
5.89,589,-0.451,-1.493,0.046,8.250595200000001,126.6810138,-52.19647379999999,94.10262192,-4.69252602,159.21929862000005
5.8999999999999995,590,-0.36,-1.374,0.106,13.120738199999998,134.2440594,-51.6235158,94.1083515,-4.30864416,160.58293866000002
5.91,591,-0.292,-1.277,0.133,13.178034,145.93240260000005,-46.8679644,94.11981066,-3.98778768,162.06117030000001
5.92,592,-0.284,-1.205,0.128,10.6570188,156.131055,-36.898495200000006,94.09689233999998,-3.77579322,163.63107522
5.93,593,-0.301,-1.16,0.106,7.7349330000000025,169.4809764,-22.631841,94.04532612,-3.71276784,165.31557174000002
5.9399999999999995,594,-0.28300000000000003,-1.122,0.098,7.1046792000000005,176.70024719999995,-12.7196676,93.97657116,-3.77006364,167.06882321999996
5.95,595,-0.219,-1.086,0.105,6.589017,183.4611516,-6.9327918,93.90208662,-3.87892566,168.88510007999997
5.96,596,-0.124,-1.047,0.109,4.8128472,190.56583080000001,-4.8701430000000006,93.7932246,-4.00497642,170.77013190000002
5.97,597,-0.039,-1.012,0.12,3.9534102,197.7851016,-4.9847345999999995,93.66717384,-4.13675676,172.72391868
5.9799999999999995,598,0.01,-0.978,0.121,4.1825934,203.8011606,-5.443101,93.5353935,-4.26280752,174.74073084000003
5.99,599,0.035,-0.935,0.117,5.1566220000000005,207.2962044,-5.6149884000000005,93.40934274,-4.3831287,176.79192048
6.0,600,0.042,-0.878,0.131,6.9327918,209.0150784,-5.6722842,93.28902156,-4.50344988,178.86029886
6.01,601,0.035,-0.83,0.146,10.026765,209.7599238,-6.016058999999999,93.20307786,-4.6180414800000005,-179.05510458
6.02,602,0.004,-0.795,0.153,11.917526400000002,209.64533219999998,-6.703608600000001,93.12286374,-4.72117392,-176.98099661999996
6.03,603,-0.039,-0.774,0.155,10.313244,211.135023,-6.875496000000001,93.02546088,-4.81857678,-174.88397034
6.04,604,-0.076,-0.7609999999999999,0.158,8.021412000000002,213.999813,-6.4744254,92.9051397,-4.9274388,-172.76402574
6.05,605,-0.145,-0.765,0.17,7.6203414,216.52082819999995,-5.844171599999999,92.76762978,-5.03057124,-170.62116282
6.06,606,-0.215,-0.777,0.202,7.7349330000000025,217.89592740000003,-4.7555514,92.62439028,-5.14516284,-168.46111116
6.07,607,-0.253,-0.8,0.22,7.906820400000001,219.2710266,-3.0366774,92.48115077999998,-5.2712136,-166.28960034
6.08,608,-0.241,-0.826,0.21600000000000005,8.479778399999999,222.3649998,-1.4896908000000002,92.3321817,-5.40872352,-164.08371204
6.09,609,-0.207,-0.8340000000000001,0.23,10.026765,229.6415664,-0.286479,92.20040136,-5.56342218,-161.80906878000005
6.1,610,-0.16,-0.8340000000000001,0.294,13.980175199999998,235.6003296,0.4010706,92.08008018,-5.71812084,-159.47140014
6.11,611,-0.122,-0.825,0.34,19.480572,237.9494574,1.6615782,92.01132522,-5.88427866,-157.11081317999995
6.12,612,-0.1,-0.823,0.368,24.0069402,237.6056826,2.86479,91.97694774,-6.05616606,-154.75022622
6.13,613,-0.08900000000000001,-0.8220000000000001,0.364,26.41336380000001,237.77757000000003,3.2658606,91.959759,-6.2337830400000005,-152.38963926000002
6.14,614,-0.061,-0.815,0.35600000000000004,27.7311672,238.4078238,1.8334656000000005,91.96548857999998,-6.39421128,-150.02332272
6.15,615,-0.039,-0.8190000000000001,0.362,28.0176462,237.77757000000003,-1.7761698,91.95402942,-6.52026204,-147.65700618
6.16,616,-0.02,-0.867,0.363,25.78311,237.0900204,-6.3025379999999975,91.91392236,-6.60047616,-145.29641922000005
6.17,617,0.004,-0.928,0.341,20.3973048,236.8608372,-10.6570188,91.8165195,-6.63485364,-142.94156184000005
6.18,618,0.019,-0.974,0.268,16.902261,233.99604720000002,-12.605076,91.69046874,-6.640583220000001,-140.60962278
6.1899999999999995,619,0.002,-0.993,0.203,15.9282324,226.2038184,-12.261301199999998,91.57014756,-6.63485364,-138.35789784
6.2,620,-0.006,-0.983,0.187,18.048177,215.71868700000002,-11.172681,91.4727447,-6.640583220000001,-136.20930534
6.21,621,0.009000000000000001,-0.955,0.199,24.5798982,206.1502884,-10.9434978,91.45555596,-6.63485364,-134.15238612000002
6.22,622,0.054000000000000006,-0.918,0.225,29.2781538,198.1861722,-11.688343199999998,91.5013926,-6.623394479999999,-132.17568102
6.2299999999999995,623,0.067,-0.906,0.213,26.929026,192.1128174,-13.2353298,91.52431092,-6.589017,-130.2620013
6.24,624,0.057,-0.8740000000000001,0.18600000000000005,24.8090814,185.924871,-16.8449652,91.55295882,-6.5088028799999975,-128.40561738000002
6.25,625,0.023,-0.862,0.18,24.4653066,176.5856556,-19.938938399999998,91.58160672,-6.40567044,-126.64663632
6.26,626,-0.013,-0.858,0.17800000000000002,26.1841806,167.07455280000005,-22.345362,91.63890252,-6.2738901,-124.97359896
6.27,627,-0.037000000000000005,-0.85,0.17600000000000002,27.903054600000004,159.68339459999999,-24.694489800000003,91.72484622,-6.11919144,-123.37504614000002
6.28,628,-0.058,-0.833,0.183,28.8770832,155.7299844,-27.1009134,91.83370824,-5.93584488,-121.82232996
6.29,629,-0.08199999999999999,-0.8079999999999999,0.188,28.991674800000002,154.92784319999996,-28.8770832,91.959759,-5.74103916,-120.26961378
6.3,630,-0.1,-0.7809999999999999,0.193,28.5333084,156.64671719999996,-30.252182399999995,92.0743506,-5.53477428,-118.70543844
6.31,631,-0.11,-0.768,0.208,27.788463,159.9125778,-30.5959572,92.18321262,-5.33423898,-117.10115604
6.32,632,-0.118,-0.775,0.229,27.215505,160.714719,-29.1062664,92.29207464,-5.14516284,-115.49687364000002
6.33,633,-0.102,-0.8059999999999999,0.247,26.298772200000002,157.5061542,-26.298772200000002,92.40093666,-4.99046418,-113.92123913999998
6.34,634,-0.077,-0.863,0.234,22.86102420000001,155.7299844,-23.491278,92.49260994,-4.86441342,-112.36852296
6.35,635,-0.057,-0.944,0.19,16.1001198,153.09437759999997,-19.6524594,92.5040691,-4.77274014,-110.84445467999998
6.36,636,-0.02,-1.056,0.139,7.8495246,149.31285480000003,-14.0947668,92.44104372,-4.73836266,-109.35476388
6.37,637,0.064,-1.206,0.099,-1.145916,146.84913540000005,-7.906820400000001,92.29207464,-4.76128098,-107.89945056000002
6.38,638,0.19,-1.386,0.06,-9.453807000000001,145.817811,-1.7188740000000002,92.05143228,-4.8414950999999995,-106.45559640000002
6.39,639,0.312,-1.558,0.026,-12.6623718,142.953021,4.5263682,91.78214202,-4.96181628,-105.04611972
6.4,640,0.428,-1.621,0.008,-12.1467096,140.48930159999998,9.969469199999999,91.51858134,-5.13943326,-103.65956136
6.41,641,0.424,-1.52,-0.02,-10.0840608,142.7238378,12.261301199999998,91.26647982,-5.33423898,-102.24435509999999
6.42,642,0.308,-1.362,-0.08,-8.4224826,150.11499600000005,10.4851314,91.02010788,-5.51185596,-100.76039388
6.43,643,0.141,-1.232,-0.13699999999999998,-2.6356068,154.29758940000005,5.844171599999999,90.82530216,-5.63790672,-99.23059602
6.4399999999999995,644,0.003,-1.15,-0.168,4.6982556,151.1463204,-0.6875496,90.68779224,-5.683743359999999,-97.72944606
6.45,645,-0.067,-1.105,-0.162,10.026765,145.0729656,-7.9641161999999985,90.62476686,-5.66082504,-96.2855919
6.46,646,-0.085,-1.081,-0.121,11.745639,141.6352176,-13.750992000000002,90.59038938,-5.574881339999999,-94.87611522
6.47,647,-0.067,-1.07,-0.053,10.7143146,141.74980920000004,-17.246035799999998,90.54455274,-5.45456016,-93.46663854
6.4799999999999995,648,-0.048,-1.055,0.022,8.7089616,144.44271179999996,-18.2773602,90.47579778,-5.3285094000000015,-92.02851396
6.49,649,-0.027000000000000003,-1.04,0.08900000000000001,7.9641161999999985,148.9117842,-17.246035799999998,90.40704282,-5.19672906,-90.55028232
6.5,650,-0.024,-1.036,0.122,8.7662574,150.3441792,-16.501190400000002,90.34401744,-5.08786704,-89.05486194
6.51,651,-0.019,-1.032,0.13,8.5370742,152.2349406,-16.329303,90.27526248,-4.97327544,-87.54225282
6.52,652,-0.001,-1.014,0.133,8.193299399999999,154.52677260000004,-16.329303,90.20650752,-4.858683839999999,-86.00672538
6.53,653,0.017,-0.995,0.149,7.6203414,154.5840684,-16.673077799999998,90.13775256,-4.73836266,-84.47692752
6.54,654,0.044,-0.97,0.17,7.448453999999999,153.26626499999998,-17.9335854,90.08045676,-4.58939358,-82.95285924
6.55,655,0.084,-0.946,0.18600000000000005,7.9641161999999985,152.92249019999997,-20.2827132,90.02316096,-4.43469492,-81.44025012
6.56,656,0.13699999999999998,-0.935,0.187,7.6203414,153.26626499999998,-23.491278,89.96586515999998,-4.2398892,-79.91618184000002
6.57,657,0.16899999999999998,-0.948,0.168,4.5263682,152.80789860000004,-26.298772200000002,89.87992145999998,-4.01643558,-78.40357272
6.58,658,0.185,-0.964,0.14400000000000002,0.286479,150.4587708,-27.2728008,89.75960028,-3.7815227999999994,-76.91388192
6.59,659,0.188,-0.977,0.134,-3.2085648,146.84913540000005,-26.41336380000001,89.62781994000002,-3.52942128,-75.45856859999998
6.6,660,0.177,-0.988,0.127,-5.1566220000000005,142.89572520000004,-24.2934192,89.46739170000002,-3.31742682,-74.04336234
6.61,661,0.147,-0.985,0.114,-5.7868758000000025,139.515273,-21.3140376,89.31269304,-3.12835068,-72.66826314
6.62,662,0.113,-0.972,0.098,-6.417129599999999,137.1088494,-17.7044022,89.15799438,-2.9736520200000003,-71.31035268
6.63,663,0.081,-0.963,0.084,-6.3598338,135.4472712,-13.8082878,89.00329572000004,-2.85333084,-69.97536054
6.64,664,0.047,-0.97,0.073,-6.2452422,133.499214,-9.797581800000001,88.8657858,-2.75592798,-68.65755714000001
6.65,665,0.036000000000000004,-0.985,0.06,-6.8182002000000015,129.8895786,-6.0733548,88.71681672,-2.70436176,-67.37413122000001
6.66,666,0.048,-0.99,0.048,-6.3025379999999975,125.8215768,-3.4950437999999995,88.57930680000004,-2.67571386,-66.12508278
6.67,667,0.07400000000000001,-1.006,0.058,-4.4690724,121.2952086,-1.432395,88.45898561999998,-2.6642547000000003,-64.92760056
6.68,668,0.096,-1.027,0.033,-4.1252976000000015,113.732163,0.6302538000000001,88.35012359999996,-2.6699842800000004,-63.80460287999999
6.6899999999999995,669,0.117,-1.041,-0.022,-2.8074942000000003,103.4762148,2.9793816000000004,88.25845032,-2.67571386,-62.77900806
6.7,670,0.159,-1.087,-0.046,-3.151269,89.6106312,6.1879464,88.17250662000002,-2.73300966,-61.89092316
6.71,671,0.19,-1.093,-0.069,-8.193299399999999,72.5364828,9.740286,88.04072628,-2.83041252,-61.16899608
6.72,672,0.239,-1.0659999999999998,-0.06,-9.969469199999999,57.983349600000004,13.0061466,87.90321636,-2.9564632800000004,-60.59030849999999
6.7299999999999995,673,0.277,-1.01,-0.05,-5.9014674000000005,43.20103320000001,13.750992000000002,87.81727266,-3.08824362,-60.16059
6.74,674,0.307,-0.961,-0.044,-2.1772404,35.46610020000001,10.4278356,87.75997686000002,-3.05386614,-59.79962646
6.75,675,0.318,-0.918,-0.048,-0.572958,31.3980984,4.8128472,87.73132896,-3.0939732,-59.48449956
6.76,676,0.28300000000000003,-0.89,-0.045,0.057295800000000015,29.220858000000003,-1.5469866,87.71414021999998,-3.07678446,-59.19802056000001
6.77,677,0.219,-0.882,-0.034,1.3178034,27.903054600000004,-6.990087599999999,87.70841064,-3.00229992,-58.92300072000001
6.78,678,0.134,-0.888,-0.023,2.6356068,27.5592798,-10.7143146,87.7198698,-2.8934379,-58.65371046
6.79,679,0.035,-0.892,-0.027000000000000003,3.8388186,27.2728008,-12.1467096,87.73705853999998,-2.75592798,-58.39014978
6.8,680,-0.08,-0.8909999999999999,-0.024,4.9847345999999995,27.2728008,-11.229976800000001,87.77143602000002,-2.6356068,-58.12085952
6.81,681,-0.166,-0.885,-0.02,6.8182002000000015,28.4187168,-9.2819196,87.82300224,-2.54393352,-57.840110100000004
6.82,682,-0.218,-0.8759999999999999,-0.032,7.5630456000000015,30.194886600000004,-7.9641161999999985,87.88029803999999,-2.45798982,-57.54790152
6.83,683,-0.241,-0.879,-0.046,7.6203414,32.372127,-7.6203414,87.94332342,-2.3777757,-57.22704503999999
6.84,684,-0.235,-0.892,-0.066,7.9641161999999985,34.60666320000001,-8.4224826,87.98343048000002,-2.3491277999999998,-56.88327024
6.85,685,-0.207,-0.924,-0.075,7.9641161999999985,35.8671708,-9.797581800000001,88.04645586000002,-2.25172494,-56.53376586
6.86,686,-0.16699999999999998,-0.971,-0.085,6.3598338,36.2109456,-11.2872726,88.0922925,-2.13713334,-56.1785319
6.87,687,-0.121,-1.011,-0.086,5.0993262,35.4088044,-12.2040054,88.12666998,-2.01108258,-55.82902752
6.88,688,-0.064,-1.026,-0.07400000000000001,5.844171599999999,33.9764094,-12.032117999999999,88.17250662000002,-1.8907613999999997,-55.49671188
6.89,689,-0.004,-1.025,-0.036000000000000004,8.136003599999999,33.4607472,-11.688343199999998,88.23553199999998,-1.75325148,-55.16439624
6.9,690,0.062,-1.028,0.006,9.797581800000001,33.4607472,-11.688343199999998,88.3214757,-1.6386598799999998,-54.83781018
6.91,691,0.129,-1.043,0.025,10.4851314,33.1742682,-12.1467096,88.41314897999996,-1.5183387000000002,-54.51122412
6.92,692,0.17800000000000002,-1.067,0.035,10.313244,31.741873200000004,-12.032117999999999,88.50482226,-1.39801752,-54.19609722
6.93,693,0.2,-1.095,0.056,9.8548776,29.507337,-10.599723,88.59649553999998,-1.2891555000000001,-53.90961822000001
6.9399999999999995,694,0.199,-1.113,0.068,10.1986524,26.298772200000002,-7.5630456000000015,88.71108714,-1.15164558,-53.64605754
6.95,695,0.16399999999999998,-1.104,0.081,11.8602306,21.027558600000006,-3.7815227999999994,88.82567874,-1.11153852,-53.43979266
6.96,696,0.101,-1.072,0.1,14.610429000000002,16.042824000000003,-0.572958,88.96891824000002,-1.10580894,-53.27936442
6.97,697,0.012,-1.038,0.122,17.8762896,11.917526400000002,2.4064236,89.14653522,-1.12872726,-53.15904324
6.9799999999999995,698,-0.068,-1.011,0.132,19.0222056,10.9434978,3.0939732,89.33561136,-1.16310474,-53.04445164
6.99,699,-0.126,-0.992,0.134,19.5378678,11.8029348,2.578311,89.58771288,-1.24331886,-52.92986004
7.0,700,-0.15,-0.985,0.13,19.5378678,14.2093584,1.0886202,89.7825186,-1.25477802,-52.78662053999999
7.01,701,-0.14400000000000002,-0.985,0.121,19.194093,17.0168526,-0.2291832000000001,89.97159474,-1.25477802,-52.62046272
7.02,702,-0.115,-0.997,0.108,18.5065434,19.8243468,-0.5156622000000001,90.14921172,-1.25477802,-52.41992742
7.03,703,-0.076,-1.01,0.093,17.131444199999994,21.7151082,0.4010706,90.31536954,-1.26623718,-52.20220338
7.04,704,-0.036000000000000004,-1.018,0.081,15.6417534,22.173474600000002,2.2345362,90.48725694,-1.29488508,-51.98447934000001
7.05,705,0.008,-1.018,0.058,13.8655836,20.798375399999998,4.7555514,90.61903728,-1.3464512999999998,-51.77821446
7.06,706,0.038,-1.019,0.039,12.6623718,18.621135,6.6463128000000005,90.73935846,-1.4209358399999998,-51.58913832
7.07,707,0.054000000000000006,-1.016,0.028,11.8602306,15.985528200000001,7.7349330000000025,90.85395006,-1.50114996,-51.43443966
7.08,708,0.053,-1.007,0.026,11.745639,13.0061466,7.8495246,90.96854166,-1.5813640800000002,-51.30265932
7.09,709,0.04,-0.997,0.025,12.1467096,10.6570188,7.1046792000000005,91.07740368,-1.62147114,-51.19952688
7.1,710,0.019,-0.994,0.017,13.0061466,8.9381448,6.016058999999999,91.20918402,-1.6844965200000002,-51.10785360000001
7.11,711,0.002,-1.002,0.009000000000000001,13.5791046,7.6776372,4.9847345999999995,91.34096436,-1.73606274,-51.03336906
7.12,712,-0.005,-1.018,0.008,13.6364004,6.6463128000000005,4.010706000000001,91.47847428,-1.78189938,-50.9646141
7.13,713,-0.014,-1.024,0.014,13.5791046,4.6982556,3.151269,91.6159842,-1.81054728,-50.91877746
7.14,714,-0.021,-1.02,0.014,13.750992000000002,2.9220857999999996,3.0366774,91.71911664,-1.8334656000000005,-50.88439998
7.15,715,-0.026,-1.008,0.014,13.980175199999998,1.3750992,3.2085648,91.86235614,-1.8621135,-50.87294082
7.16,716,-0.031,-0.993,0.02,13.980175199999998,0.2291832000000001,3.2658606,92.00559564,-1.89649098,-50.86721124
7.17,717,-0.036000000000000004,-0.986,0.029,13.6936962,-0.3437748,3.0939732,92.14310556,-1.92513888,-50.87294082
7.18,718,-0.035,-0.983,0.033,13.6936962,-0.3437748,2.6929026,92.28061548,-1.95378678,-50.8786704
7.1899999999999995,719,-0.034,-0.985,0.041,13.9228794,0.057295800000000015,2.2345362,92.40666624,-1.97097552,-50.87294082
7.2,720,-0.033,-0.988,0.045,14.037471,1.432395,1.6615782,92.54417616,-1.98816426,-50.85575208
7.21,721,-0.033,-0.988,0.052000000000000005,13.980175199999998,3.3231564,1.3178034,92.68741566,-1.99962342,-50.82137460000001
7.22,722,-0.034,-0.984,0.057,14.32395,4.8128472,1.145916,92.83065516000002,-2.01681216,-50.77553796
7.2299999999999995,723,-0.034,-0.984,0.062,14.896907999999998,5.9014674000000005,1.145916,92.97962424,-2.02827132,-50.71824216
7.24,724,-0.034,-0.985,0.065,15.0687954,6.4744254,1.0313244,93.12286374,-2.03973048,-50.6494872
7.25,725,-0.033,-0.992,0.065,15.0114996,6.0733548,1.145916,93.27183282,-2.05691922,-50.58646182
7.26,726,-0.032,-1.002,0.068,14.495837400000001,4.9274388,1.3178034,93.41507232,-2.07410796,-50.54062518
7.27,727,-0.031,-1.013,0.07,13.8655836,3.5523396000000003,1.432395,93.55831182,-2.0912967,-50.50051812
7.28,728,-0.032,-1.022,0.07,13.178034,2.4064236,1.3750992,93.69009216,-2.10275586,-50.47759979999999
7.29,729,-0.033,-1.024,0.067,12.318597,1.6042823999999998,1.145916,93.78749502,-2.10848544,-50.46041106
7.3,730,-0.035,-1.021,0.065,11.3445684,1.3750992,0.6875496,93.90208662,-2.11421502,-50.44322232
7.31,731,-0.038,-1.02,0.063,10.886202,1.4896908000000002,0.1718874,94.01667822,-2.1199446,-50.42603358
7.32,732,-0.04,-1.024,0.062,10.5424272,1.8334656000000005,-0.2291832000000001,94.11981066,-2.1199446,-50.40884484
7.33,733,-0.039,-1.031,0.063,10.0840608,2.3491278,-0.7448454000000001,94.2229431,-2.11421502,-50.38019694
7.34,734,-0.038,-1.033,0.06,9.568398599999998,2.5210152000000003,-1.0313244,94.27450932,-2.09702628,-50.35154904
7.35,735,-0.036000000000000004,-1.032,0.056,9.2819196,2.5210152000000003,-1.2605076000000002,94.36618259999999,-2.08556712,-50.32290114
7.36,736,-0.036000000000000004,-1.028,0.054000000000000006,8.9381448,2.291832,-1.2605076000000002,94.45785588,-2.07410796,-50.29998282
7.37,737,-0.035,-1.022,0.057,8.651665800000002,1.4896908000000002,-1.3178034,94.54379958,-2.0626488000000003,-50.28279408
7.38,738,-0.036000000000000004,-1.017,0.061,8.307891,1.2032118,-1.432395,94.6240137,-2.04546006,-50.27133492
7.39,739,-0.038,-1.014,0.061,7.7922288,1.2032118,-1.6615782,94.64120244,-2.0340008999999997,-50.24841660000001
7.4,740,-0.042,-1.007,0.061,7.3911582,1.2032118,-1.6615782,94.71568698,-2.01681216,-50.23695744000001
7.41,741,-0.048,-1.0,0.064,7.0473834,1.2032118,-1.6042823999999998,94.79017152,-1.99962342,-50.2197687
7.42,742,-0.053,-0.992,0.063,6.990087599999999,1.3178034,-1.3750992,94.85892648,-1.98816426,-50.20830954
7.43,743,-0.054000000000000006,-0.986,0.063,6.8182002000000015,1.6042823999999998,-1.2032118,94.92768144,-1.9767051,-50.1911208
7.4399999999999995,744,-0.051,-0.985,0.065,6.589017,1.9480572,-1.0313244,94.92768144,-1.98816426,-50.1624729
7.45,745,-0.047,-0.99,0.067,6.2452422,2.291832,-0.9167328,94.99070682,-1.98243468,-50.13955458
7.46,746,-0.041,-0.994,0.071,5.5003968,2.291832,-0.9740286,95.04800262,-1.97097552,-50.11663626
7.47,747,-0.037000000000000005,-0.997,0.076,4.9847345999999995,2.1199446,-0.9740286,95.09383926,-1.96524594,-50.09371794
7.4799999999999995,748,-0.033,-1.001,0.077,4.8701430000000006,1.8334656000000005,-0.6875496,95.14540548,-1.9595163600000003,-50.07079962
7.49,749,-0.031,-1.003,0.076,4.8701430000000006,1.3750992,-0.4010706,95.10529842,-1.93659804,-50.05361088
7.5,750,-0.03,-1.007,0.076,4.8701430000000006,0.6875496,-0.1718874,95.15686464,-1.93659804,-50.04215172
7.51,751,-0.032,-1.008,0.079,4.9847345999999995,0.0,0.0,95.20843086,-1.93659804,-50.04215172
7.52,752,-0.039,-1.011,0.083,5.2139178,-0.8594370000000001,0.0,95.25999708,-1.93659804,-50.05361088
7.53,753,-0.043,-1.012,0.08900000000000001,5.2139178,-1.432395,-0.2291832000000001,95.31156330000002,-1.93086846,-50.06507004
7.54,754,-0.048,-1.013,0.093,5.0993262,-1.6615782,-0.4010706,95.32302246,-1.9480572000000005,-50.08225878
7.55,755,-0.052000000000000005,-1.015,0.095,4.7555514,-1.6615782,-0.572958,95.37458868,-1.93659804,-50.09371794
7.56,756,-0.052000000000000005,-1.016,0.095,4.010706000000001,-1.145916,-0.6875496,95.41469573999998,-1.93086846,-50.1051771
7.57,757,-0.05,-1.014,0.091,3.3231564,-0.1718874,-0.7448454000000001,95.44907322,-1.9194093000000003,-50.1051771
7.58,758,-0.046,-1.015,0.085,2.8074942000000003,0.4010706,-0.7448454000000001,95.47772112,-1.91367972,-50.09944752
7.59,759,-0.045,-1.015,0.078,2.1199446,0.6302538000000001,-0.572958,95.31729288,-1.93086846,-50.08225878
7.6,760,-0.043,-1.013,0.075,1.8334656000000005,0.3437748,-0.286479,95.33448162,-1.92513888,-50.08225878
7.61,761,-0.043,-1.011,0.073,1.6615782,-0.6302538000000001,0.057295800000000015,95.35167036,-1.92513888,-50.08798836
7.62,762,-0.045,-1.005,0.077,1.6615782,-1.5469866,0.286479,95.3688591,-1.93086846,-50.09944752
7.63,763,-0.044,-1.001,0.079,1.432395,-1.7188740000000002,0.4583664000000001,95.38604784,-1.93086846,-50.12236584
7.64,764,-0.041,-1.001,0.08,1.0886202,-1.3178034,0.5156622000000001,95.19124212,-1.93659804,-50.12236584
7.65,765,-0.035,-1.006,0.079,0.572958,-0.8021411999999999,0.4010706,95.1969717,-1.93659804,-50.12809542000001
7.66,766,-0.034,-1.012,0.079,0.5156622000000001,-1.0886202,0.2291832000000001,95.20270128,-1.93659804,-50.13955458
7.67,767,-0.031,-1.016,0.078,0.8021411999999999,-1.9480572,0.1718874,95.21416044,-1.93659804,-50.1624729
7.68,768,-0.026,-1.015,0.076,0.7448454000000001,-2.6929026,0.3437748,95.21989002,-1.93659804,-50.18539122
7.6899999999999995,769,-0.024,-1.008,0.078,0.4583664000000001,-3.4950437999999995,0.3437748,95.1396759,-1.8907613999999997,-50.21403912
7.7,770,-0.024,-1.003,0.084,0.6302538000000001,-3.8961144,0.3437748,95.14540548,-1.8907613999999997,-50.254146180000006
7.71,771,-0.028,-1.001,0.084,0.572958,-3.9534102,0.057295800000000015,95.15113506,-1.8907613999999997,-50.29425324
7.72,772,-0.034,-1.001,0.081,0.4583664000000001,-4.0680017999999984,-0.11459160000000004,95.16259422,-1.87930224,-50.33436029999999
7.7299999999999995,773,-0.038,-1.001,0.078,0.2291832000000001,-4.1252976000000015,-0.4010706,95.16259422,-1.87357266,-50.37446736
7.74,774,-0.041,-1.0,0.073,0.057295800000000015,-4.0680017999999984,-0.4583664000000001,95.05946178,-1.87357266,-50.40884484
7.75,775,-0.041,-1.001,0.07400000000000001,0.1718874,-4.010706000000001,-0.3437748,95.05946178,-1.86784308,-50.44322232
7.76,776,-0.042,-0.999,0.075,0.2291832000000001,-4.010706000000001,-0.4010706,95.06519136,-1.85638392,-50.48332938
7.77,777,-0.044,-0.997,0.076,0.4010706,-3.7815227999999994,-0.5156622000000001,95.07092094,-1.85065434,-50.52343644
7.78,778,-0.045,-0.995,0.079,0.4583664000000001,-3.4377480000000005,-0.7448454000000001,95.07665052000002,-1.83919518,-50.55781392
7.79,779,-0.045,-0.993,0.079,0.4010706,-3.2658606,-0.9740286,95.00216598,-1.85065434,-50.58646182
7.8,780,-0.043,-0.996,0.077,0.4010706,-2.9220857999999996,-1.145916,95.00789556,-1.8334656000000005,-50.60938014
7.81,781,-0.04,-0.998,0.076,0.4583664000000001,-2.7501984,-1.2032118,95.01362514,-1.82200644,-50.63802804
7.82,782,-0.036000000000000004,-1.001,0.078,0.5156622000000001,-2.4637194,-1.145916,95.01935472,-1.8048176999999999,-50.66094636
7.83,783,-0.034,-0.997,0.08,0.572958,-2.5210152000000003,-1.0886202,95.0250843,-1.7933585399999998,-50.68386468
7.84,784,-0.032,-0.997,0.084,0.6302538000000001,-2.5210152000000003,-1.0313244,94.96205892,-1.77044022,-50.706783
7.85,785,-0.032,-0.996,0.086,0.4010706,-2.7501984,-1.0313244,94.9677885,-1.75325148,-50.72970132
7.86,786,-0.032,-0.997,0.08800000000000001,0.3437748,-3.0366774,-1.0886202,94.97351808,-1.74179232,-50.75834922
7.87,787,-0.03,-1.0,0.08900000000000001,0.11459160000000004,-3.2085648,-1.2032118,94.97351808,-1.7246035799999997,-50.7927267
7.88,788,-0.029,-1.002,0.09,0.0,-3.4950437999999995,-1.2032118,94.97924766,-1.7074148399999998,-50.82137460000001
7.89,789,-0.026,-1.004,0.091,0.0,-3.8388186,-1.0886202,94.93341102,-1.67303736,-50.85575208
7.9,790,-0.024,-1.005,0.094,0.057295800000000015,-4.4690724,-0.8594370000000001,94.9391406,-1.6558486199999998,-50.90158872
7.91,791,-0.026,-1.006,0.096,0.2291832000000001,-5.2139178,-0.6302538000000001,94.94487018,-1.64438946,-50.95315494000001
7.92,792,-0.033,-1.008,0.099,0.4583664000000001,-5.844171599999999,-0.4010706,94.95059976,-1.6329303,-51.01045074
7.93,793,-0.041,-1.011,0.102,0.7448454000000001,-6.0733548,-0.4583664000000001,94.96205892,-1.62147114,-51.06774654
7.94,794,-0.047,-1.013,0.105,1.0313244,-5.844171599999999,-0.6875496,94.9677885,-1.6329303,-51.12504234
7.95,795,-0.052000000000000005,-1.013,0.105,1.432395,-5.1566220000000005,-0.8594370000000001,94.98497724,-1.62147114,-51.17660856
