TimeStamp(s),FrameCounter,AccX,AccY,AccZ,GyrX,GyrY,GyrZ,EulerX,EulerY,EulerZ
0.01,1,-0.022,-0.989,-0.171,-0.4583664000000001,-0.7448454000000001,-0.2291832000000001,77.77331892,-0.00572958,-37.34540244
0.02,2,-0.022,-0.991,-0.16899999999999998,-0.3437748,-0.8021411999999999,-0.2291832000000001,77.76758934,-0.00572958,-37.35113202
0.03,3,-0.021,-0.991,-0.163,-0.286479,-0.8594370000000001,-0.286479,77.76758934,0.0,-37.36259118
0.04,4,-0.018000000000000002,-0.989,-0.166,-0.2291832000000001,-0.6302538000000001,-0.3437748,77.85926262000002,-0.057295800000000015,-37.37977992
0.05,5,-0.018000000000000002,-0.989,-0.174,-0.11459160000000004,-0.9740286,-0.286479,77.85926262000002,-0.057295800000000015,-37.39123908
0.060000000000000005,6,-0.021,-0.992,-0.17600000000000002,-0.3437748,-1.2605076000000002,-0.4010706,77.85353303999999,-0.057295800000000015,-37.40269823999999
0.06999999999999999,7,-0.022,-0.992,-0.177,-0.3437748,-0.7448454000000001,-0.4583664000000001,77.85353303999999,-0.05156622,-37.41415739999999
0.08,8,-0.022,-0.99,-0.17800000000000002,-0.1718874,0.0,-0.4583664000000001,77.84780346,-0.05156622,-37.41415739999999
0.09,9,-0.023,-0.988,-0.18,-0.2291832000000001,0.1718874,-0.5156622000000001,77.88791051999998,-0.16042824,-37.39123908
0.09999999999999999,10,-0.021,-0.984,-0.182,-0.11459160000000004,0.0,-0.4010706,77.88218094,-0.16042824,-37.39696866
0.11,11,-0.02,-0.988,-0.17600000000000002,-0.1718874,-0.3437748,-0.3437748,77.88218094,-0.15469866,-37.39696866
0.12,12,-0.02,-0.989,-0.172,-0.4010706,-0.2291832000000001,-0.4010706,77.87645136,-0.14896908,-37.40269823999999
0.13,13,-0.019,-0.986,-0.17600000000000002,-0.2291832000000001,-0.11459160000000004,-0.572958,77.87645136,-0.14896908,-37.40269823999999
0.14,14,-0.023,-0.989,-0.18,-0.3437748,-0.4010706,-0.7448454000000001,77.89936967999998,-0.18907614,-37.40269823999999
0.15000000000000002,15,-0.024,-0.99,-0.17800000000000002,-0.4010706,-0.6302538000000001,-0.8594370000000001,77.8936401,-0.18334656,-37.41415739999999
0.16,16,-0.026,-0.991,-0.174,-0.6302538000000001,0.0,-0.9167328,77.88791051999998,-0.1718874,-37.41415739999999
0.17,17,-0.025,-0.987,-0.174,-0.7448454000000001,0.4010706,-0.9167328,77.87645136,-0.16615782,-37.41415739999999
0.18000000000000002,18,-0.023,-0.985,-0.17800000000000002,-0.6875496,0.057295800000000015,-0.6302538000000001,77.87072178,-0.15469866,-37.41415739999999
0.19,19,-0.021,-0.987,-0.17800000000000002,-0.9167328,-0.4010706,-0.5156622000000001,77.88791051999998,-0.18907614,-37.41415739999999
0.2,20,-0.02,-0.988,-0.17800000000000002,-1.0886202,-0.1718874,-0.6302538000000001,77.87645136,-0.18334656,-37.41988698
0.21000000000000002,21,-0.021,-0.988,-0.18,-1.0313244,0.2291832000000001,-0.6875496,77.86499219999997,-0.17761697999999998,-37.41988698
0.22,22,-0.023,-0.986,-0.184,-1.0313244,0.11459160000000004,-0.6302538000000001,77.85353303999999,-0.1718874,-37.41988698
0.23,23,-0.023,-0.989,-0.181,-1.0313244,-0.2291832000000001,-0.5156622000000001,77.84207388,-0.16615782,-37.41988698
0.24000000000000002,24,-0.022,-0.991,-0.17600000000000002,-1.2032118,-0.6302538000000001,-0.3437748,77.85926262000002,-0.20053530000000008,-37.42561656
0.25,25,-0.024,-0.989,-0.177,-0.9167328,-0.8021411999999999,-0.4010706,77.85353303999999,-0.20053530000000008,-37.43707572
0.26,26,-0.023,-0.984,-0.17800000000000002,-0.6302538000000001,-0.5156622000000001,-0.4010706,77.84780346,-0.19480572,-37.4428053
0.27,27,-0.024,-0.985,-0.177,-0.5156622000000001,0.057295800000000015,-0.4010706,77.84207388,-0.19480572,-37.4428053
0.28,28,-0.024,-0.983,-0.179,-0.6875496,0.6875496,-0.286479,77.83061472,-0.18907614,-37.43707572
0.29000000000000004,29,-0.023,-0.982,-0.17800000000000002,-0.5156622000000001,0.6302538000000001,-0.3437748,77.84780346,-0.2291832000000001,-37.42561656
0.3,30,-0.022,-0.982,-0.18,-0.572958,0.4010706,-0.286479,77.84207388,-0.2291832000000001,-37.41988698
0.31,31,-0.019,-0.986,-0.173,-0.6302538000000001,0.4010706,-0.286479,77.83634430000002,-0.22345362,-37.41988698
0.32,32,-0.016,-0.987,-0.174,-0.572958,0.6875496,-0.3437748,77.83061472,-0.21772404,-37.40842782
0.33,33,-0.017,-0.986,-0.177,-0.4010706,0.5156622000000001,-0.1718874,77.82488514,-0.21772404,-37.40842782
0.34,34,-0.018000000000000002,-0.986,-0.181,-0.4010706,0.0,0.0,77.86499219999997,-0.29220857999999994,-37.39696866
0.35000000000000003,35,-0.02,-0.988,-0.18,-0.4583664000000001,-0.3437748,-0.11459160000000004,77.85926262000002,-0.29220857999999994,-37.40269823999999
0.36000000000000004,36,-0.023,-0.987,-0.17800000000000002,-0.1718874,0.11459160000000004,-0.1718874,77.85926262000002,-0.29220857999999994,-37.40269823999999
0.37,37,-0.025,-0.986,-0.181,0.0,0.4010706,-0.1718874,77.85926262000002,-0.28647900000000004,-37.39696866
0.38,38,-0.027000000000000003,-0.985,-0.181,0.0,0.4010706,-0.286479,77.85926262000002,-0.28074942,-37.39696866
0.39,39,-0.025,-0.987,-0.177,-0.057295800000000015,0.572958,-0.3437748,77.90509926,-0.33804522,-37.39123908
0.4,40,-0.022,-0.987,-0.172,-0.11459160000000004,0.8021411999999999,-0.4583664000000001,77.90509926,-0.33231564,-37.37977992
0.41000000000000003,41,-0.022,-0.986,-0.172,-0.057295800000000015,0.572958,-0.4010706,77.90509926,-0.32658606,-37.37977992
0.42000000000000004,42,-0.02,-0.987,-0.17600000000000002,-0.1718874,0.286479,-0.3437748,77.90509926,-0.32085648,-37.37405034
0.43,43,-0.019,-0.989,-0.175,-0.1718874,0.11459160000000004,-0.572958,77.89936967999998,-0.31512690000000004,-37.37405034
0.44,44,-0.017,-0.99,-0.18,0.0,0.3437748,-0.572958,77.92228800000002,-0.3437748,-37.36832076
0.45,45,-0.018000000000000002,-0.987,-0.18,0.11459160000000004,0.4010706,-0.4583664000000001,77.92228800000002,-0.33804522,-37.36832076
0.46,46,-0.021,-0.989,-0.177,0.11459160000000004,0.4010706,-0.286479,77.92801758,-0.33231564,-37.36259118
0.47000000000000003,47,-0.021,-0.993,-0.173,0.057295800000000015,0.1718874,-0.1718874,77.92801758,-0.33231564,-37.36259118
0.48000000000000004,48,-0.022,-0.992,-0.174,0.286479,-0.1718874,-0.1718874,77.92801758,-0.33231564,-37.36259118
0.49,49,-0.021,-0.989,-0.177,0.286479,-0.4010706,-0.286479,77.9795838,-0.38388186,-37.36832076
0.5,50,-0.021,-0.99,-0.17600000000000002,0.2291832000000001,-0.4583664000000001,-0.286479,77.98531338000002,-0.37815228,-37.37405034
0.51,51,-0.023,-0.989,-0.172,0.286479,-0.4583664000000001,-0.3437748,77.99104296,-0.37815228,-37.37977992
0.52,52,-0.025,-0.989,-0.174,0.2291832000000001,-0.4010706,-0.286479,77.99104296,-0.37815228,-37.3855095
0.53,53,-0.023,-0.986,-0.17600000000000002,0.286479,-0.286479,-0.3437748,77.99677254,-0.3724227000000001,-37.39123908
0.54,54,-0.02,-0.985,-0.177,0.286479,-0.4010706,-0.3437748,78.02542044,-0.4010706000000001,-37.39123908
0.55,55,-0.016,-0.988,-0.177,0.4010706,-0.572958,-0.3437748,78.02542044,-0.4010706000000001,-37.40269823999999
0.56,56,-0.019,-0.987,-0.17800000000000002,0.11459160000000004,-0.6302538000000001,-0.3437748,78.03115002,-0.39534102,-37.40842782
0.5700000000000001,57,-0.02,-0.988,-0.175,0.057295800000000015,-0.4010706,-0.286479,78.03115002,-0.39534102,-37.41415739999999
0.5800000000000001,58,-0.018000000000000002,-0.99,-0.172,0.11459160000000004,-0.286479,-0.286479,78.03115002,-0.38961144,-37.41415739999999
0.59,59,-0.022,-0.986,-0.172,0.286479,-0.4583664000000001,-0.3437748,78.07125708,-0.43544808,-37.41988698
0.6,60,-0.024,-0.984,-0.172,0.1718874,-0.3437748,-0.286479,78.07125708,-0.43544808,-37.42561656
0.61,61,-0.024,-0.986,-0.175,0.3437748,0.0,-0.3437748,78.07698666,-0.4297185000000001,-37.42561656
0.62,62,-0.025,-0.987,-0.175,0.286479,0.057295800000000015,-0.3437748,78.07698666,-0.42398892,-37.42561656
0.63,63,-0.024,-0.987,-0.174,0.286479,0.057295800000000015,-0.286479,78.08271624,-0.42398892,-37.42561656
0.64,64,-0.022,-0.988,-0.175,0.286479,0.057295800000000015,-0.2291832000000001,78.15720078000003,-0.49274388,-37.42561656
0.65,65,-0.02,-0.99,-0.175,0.286479,-0.4010706,0.0,78.15720078000003,-0.49274388,-37.43134614
0.66,66,-0.018000000000000002,-0.992,-0.17600000000000002,0.2291832000000001,-0.7448454000000001,0.0,78.16293035999998,-0.4984734599999999,-37.43707572
0.67,67,-0.023,-0.995,-0.172,0.286479,-0.8594370000000001,-0.057295800000000015,78.16293035999998,-0.4984734599999999,-37.44853488
0.68,68,-0.028,-0.991,-0.165,-0.11459160000000004,-0.4010706,-0.1718874,78.16293035999998,-0.4984734599999999,-37.45426446000001
0.6900000000000001,69,-0.027000000000000003,-0.988,-0.159,-0.286479,0.4010706,-0.4010706,78.22595574,-0.53285094,-37.45999404000001
0.7000000000000001,70,-0.025,-0.99,-0.156,-0.572958,1.0313244,-0.5156622000000001,78.22022616,-0.52139178,-37.44853488
0.7100000000000001,71,-0.019,-0.994,-0.158,-0.8021411999999999,1.3750992,-0.572958,78.20876700000002,-0.5156622000000001,-37.43707572
0.72,72,-0.017,-0.998,-0.168,-1.2605076000000002,1.0313244,-0.4583664000000001,78.19730784,-0.5099326200000001,-37.43134614
0.73,73,-0.021,-1.001,-0.174,-1.8334656000000005,0.286479,-0.4010706,78.1801191,-0.5042030399999999,-37.42561656
0.74,74,-0.024,-1.002,-0.177,-2.3491278,0.286479,-0.4583664000000001,78.16293035999998,-0.5156622000000001,-37.42561656
0.75,75,-0.03,-0.997,-0.166,-2.7501984,0.5156622000000001,-0.572958,78.13428246,-0.5099326200000001,-37.41988698
0.76,76,-0.031,-0.999,-0.159,-3.8388186,2.6929026,-1.145916,78.09417540000003,-0.49274388,-37.39696866
0.77,77,-0.036000000000000004,-0.998,-0.151,-4.2398892,4.010706000000001,-1.4896908000000002,78.05406833999999,-0.46982556,-37.36259118
0.78,78,-0.038,-0.998,-0.145,-4.8128472,4.4117766,-1.6615782,78.00250212,-0.44690724,-37.32248412
0.79,79,-0.029,-1.002,-0.141,-5.443101,4.297185,-1.7188740000000002,77.96239505999998,-0.4297185000000001,-37.28810664
0.8,80,-0.014,-1.01,-0.146,-6.130650599999999,3.4950437999999995,-1.6042823999999998,77.89936967999998,-0.40680018,-37.25945874
0.81,81,-0.004,-1.014,-0.15,-6.990087599999999,1.9480572,-1.3750992,77.83061472,-0.38961144,-37.24227000000001
0.8200000000000001,82,-0.005,-1.018,-0.153,-8.136003599999999,0.11459160000000004,-0.9740286,77.74467102000001,-0.37815228,-37.24227000000001
0.8300000000000001,83,-0.011,-1.024,-0.165,-9.453807000000001,-1.0886202,-0.572958,77.64726816,-0.37815228,-37.25372916
0.8400000000000001,84,-0.02,-1.019,-0.175,-11.1153852,-1.3178034,-0.2291832000000001,77.54413572000001,-0.38388186,-37.2709179
0.85,85,-0.028,-1.02,-0.174,-12.7769634,-1.2605076000000002,-0.057295800000000015,77.41235538,-0.38388186,-37.28810664
0.86,86,-0.035,-1.017,-0.158,-14.266654199999998,-1.6615782,-0.2291832000000001,77.26911588,-0.38961144,-37.30529538
0.87,87,-0.039,-1.009,-0.145,-15.0687954,-1.8334656000000005,-0.9740286,77.11441721999998,-0.38388186,-37.328213700000006
0.88,88,-0.041,-1.004,-0.151,-15.126091199999998,-2.0626488000000003,-1.6042823999999998,76.96544814,-0.3724227000000001,-37.35113202
0.89,89,-0.041,-1.005,-0.147,-16.042824000000003,-2.0626488000000003,-2.4637194,76.81074948,-0.36096354,-37.37977992
0.9,90,-0.036000000000000004,-1.011,-0.152,-17.246035799999998,-2.2345362,-3.2658606,76.63886208,-0.33804522,-37.41415739999999
0.91,91,-0.026,-1.011,-0.158,-17.246035799999998,-2.291832,-3.5523396000000003,76.46124510000001,-0.30939732,-37.4428053
0.92,92,-0.022,-1.011,-0.16699999999999998,-17.8762896,-2.1772404,-3.2085648,76.28362812,-0.28074942,-37.47718278000001
0.93,93,-0.02,-1.009,-0.174,-18.2773602,-2.3491278,-2.4064236,76.09455198,-0.26356068,-37.50583068
0.9400000000000001,94,-0.019,-1.01,-0.174,-18.7930224,-2.4064236,-1.2605076000000002,75.916935,-0.26356068,-37.53447858
0.9500000000000001,95,-0.021,-1.01,-0.179,-20.05353,-1.9480572,-0.4583664000000001,75.71067012,-0.26356068,-37.5573969
0.9600000000000001,96,-0.021,-1.01,-0.192,-21.0848544,-1.3750992,-0.286479,75.49867565999998,-0.26356068,-37.57458564
0.97,97,-0.025,-1.013,-0.205,-22.631841,-1.4896908000000002,-0.6875496,75.26949246000002,-0.26356068,-37.59177438
0.98,98,-0.027000000000000003,-1.018,-0.213,-24.1215318,-1.7761698,-1.4896908000000002,75.02312051999998,-0.25783110000000004,-37.6146927
0.99,99,-0.033,-1.02,-0.214,-25.7258142,-2.2345362,-2.291832,74.76528942,-0.24637194,-37.64907018
1.0,100,-0.039,-1.015,-0.211,-27.1582092,-2.4637194,-3.0366774,74.49026957999997,-0.22345362,-37.68344766
1.01,101,-0.037000000000000005,-1.011,-0.205,-27.8457588,-2.291832,-3.3231564,74.20952016,-0.20053530000000008,-37.71209556
1.02,102,-0.03,-1.013,-0.2,-28.934379,-0.9740286,-4.010706000000001,73.91731158,-0.1718874,-37.73501388
1.03,103,-0.031,-1.009,-0.204,-30.4813656,0.6875496,-4.6982556,73.60791426,-0.12605075999999998,-37.74647304
1.04,104,-0.032,-1.004,-0.215,-31.5699858,1.7761698,-4.5263682,73.29278736,-0.0859437,-37.74647304
1.05,105,-0.034,-1.005,-0.226,-33.6326346,2.3491278,-3.8961144,72.94901256,-0.04583664,-37.73501388
1.06,106,-0.035,-1.009,-0.246,-35.52339600000001,2.9793816000000004,-3.6096354,72.58804902,-0.00572958,-37.72355472
1.07,107,-0.038,-1.01,-0.26,-36.669312,3.3231564,-3.2658606,72.21562631999998,0.02291832,-37.7006364
1.08,108,-0.033,-1.006,-0.261,-38.5027776,4.1252976000000015,-3.2658606,71.82601488,0.06302537999999999,-37.67771808
1.09,109,-0.031,-0.998,-0.267,-39.7059894,4.1825934,-3.2085648,71.42494428,0.09740286,-37.64907018
1.1,110,-0.029,-0.995,-0.278,-41.252976,3.8388186,-3.2658606,71.00668494,0.13750992,-37.62615186
1.11,111,-0.026,-0.993,-0.28800000000000003,-43.544808,4.3544808,-3.380452200000001,70.5597777,0.17761697999999998,-37.60323354
1.12,112,-0.021,-1.004,-0.261,-46.065823200000004,6.417129599999999,-3.0939732,70.09568172,0.21772404,-37.5573969
1.1300000000000001,113,-0.013,-1.009,-0.248,-49.61816279999999,9.167328,-2.8074942000000003,69.59147868,0.26929026,-37.48291236
1.1400000000000001,114,-0.005,-0.997,-0.249,-52.712136,8.7662574,-2.5210152000000003,69.05862774,0.31512690000000004,-37.41415739999999
1.1500000000000001,115,0.002,-0.988,-0.251,-55.290447,6.5317212,-3.0366774,68.49712889999999,0.35523396,-37.36832076
1.1600000000000001,116,-0.003,-0.98,-0.256,-56.8374336,3.724227,-4.5263682,67.91844132,0.40680018,-37.3568616
1.17,117,-0.029,-0.969,-0.27,-57.4103916,2.2345362,-6.130650599999999,67.33975374,0.46409598,-37.36259118
1.18,118,-0.044,-0.962,-0.293,-58.2698286,2.4637194,-7.448453999999999,66.74387741999999,0.53285094,-37.37405034
1.19,119,-0.055,-0.956,-0.301,-59.1292656,4.4117766,-8.4224826,66.1480011,0.61879464,-37.36832076
1.2,120,-0.041,-0.953,-0.305,-60.50436480000001,6.9327918,-8.5370742,65.53493604,0.7161975,-37.34540244
1.21,121,-0.019,-0.951,-0.334,-60.7908438,8.193299399999999,-7.6203414,64.9161414,0.8078707799999998,-37.30529538
1.22,122,-0.01,-0.96,-0.359,-62.2805346,7.8495246,-6.130650599999999,64.28588760000001,0.8880849000000001,-37.26518832
1.23,123,0.002,-0.976,-0.375,-63.9994086,7.448453999999999,-4.6982556,63.63271548,0.95111028,-37.22508126
1.24,124,0.013,-1.018,-0.322,-68.8122558,9.3965112,-3.724227,62.94516588000001,1.01413566,-37.16205588
1.25,125,0.015,-0.997,-0.29600000000000004,-72.76566600000002,10.6570188,-3.0939732,62.20605006,1.08289062,-37.08757134
1.26,126,-0.003,-0.952,-0.317,-73.51051140000001,9.5111028,-3.6669312000000014,61.46120466,1.1459160000000002,-37.02454596
1.27,127,-0.024,-0.941,-0.31,-75.2293854,9.8548776,-5.2712136,60.69344094,1.22613012,-36.96725016
1.28,128,-0.035,-0.928,-0.309,-76.31800559999998,10.255948199999999,-7.8495246,59.91994764,1.3349921400000002,-36.92141352
1.29,129,-0.047,-0.925,-0.339,-75.63045600000002,7.6776372,-9.740286,59.15791349999999,1.44385416,-36.90995436
1.3,130,-0.04,-0.925,-0.374,-78.89631659999998,6.589017,-10.7716104,58.3557723,1.55844576,-36.90995436
1.31,131,-0.032,-0.926,-0.413,-79.6984578,6.1879464,-11.0007936,57.54790152,1.6673077799999998,-36.92141352
1.32,132,-0.025,-0.898,-0.45,-80.95896540000003,6.990087599999999,-10.8289062,56.72284200000001,1.78762896,-36.92141352
1.33,133,-0.022,-0.913,-0.4370000000000001,-79.81304940000003,10.4278356,-10.255948199999999,55.91497122000001,1.91367972,-36.898495200000006
1.34,134,-0.011,-0.983,-0.338,-84.56860079999998,20.05353,-8.7662574,55.06699338000001,2.08556712,-36.7839036
1.35,135,0.021,-0.972,-0.289,-90.3554766,29.793816,-7.3911582,54.15599016,2.29756158,-36.58909788
1.36,136,0.056,-0.93,-0.293,-91.55868840000001,30.4813656,-6.2452422,53.23352778,2.50382646,-36.38283300000001
1.37,137,0.052000000000000005,-0.907,-0.366,-90.8711388,26.41336380000001,-5.6722842,52.3110654,2.6929026,-36.20521602
1.3800000000000001,138,0.036000000000000004,-0.911,-0.423,-89.8971102,23.8923486,-5.5003968,51.40579176,2.86479,-36.05051736
1.3900000000000001,139,0.012,-0.892,-0.473,-92.819196,23.032911600000002,-6.016058999999999,50.47187021999999,3.03094782,-35.91300744
1.4000000000000001,140,0.011,-0.905,-0.473,-93.4494498,21.7151082,-6.0733548,49.52648952,3.20283522,-35.78695668
1.4100000000000001,141,-0.016,-0.917,-0.458,-94.1942952,22.2307704,-6.9327918,48.57537924,3.380452200000001,-35.6666355
1.42,142,-0.028,-0.871,-0.505,-91.6159842,25.9549974,-6.589017,47.65291686,3.5809875,-35.51766642
1.43,143,0.016,-0.899,-0.465,-81.18814859999998,32.0283522,-7.3911582,46.83358692,3.83308902,-35.32859028
1.44,144,0.07200000000000001,-0.951,-0.455,-72.192708,31.22621100000001,-6.875496000000001,46.123119,4.0794609600000005,-35.1509733
1.45,145,0.12,-1.03,-0.584,-72.192708,25.1528562,-4.8128472,45.39546234,4.27426668,-35.00200422
1.46,146,0.166,-1.085,-0.7170000000000001,-73.5678072,23.0902074,-2.6356068,44.65634652,4.4404245000000016,-34.85876472
1.47,147,0.238,-1.016,-1.015,-80.2714158,26.642547,-1.3750992,43.85420532,4.62377106,-34.68114774
1.48,148,0.267,-0.973,-1.107,-82.9643184,26.41336380000001,0.057295800000000015,43.02341622,4.79565846,-34.4920716
1.49,149,0.189,-0.882,-1.081,-77.75040059999998,18.1054728,1.9480572,42.23846376,4.898790900000002,-34.35456168
1.5,150,0.151,-0.774,-1.135,-71.7343416,11.229976800000001,2.1772404,41.51653668,4.9560867,-34.262888399999994
1.51,151,0.194,-0.721,-1.23,-64.11400019999999,9.740286,0.11459160000000004,40.86909414,5.01911208,-34.19986302
1.52,152,0.187,-0.659,-1.171,-55.3477428,10.599723,-2.86479,40.31332488,5.10505578,-34.1482968
1.53,153,0.158,-0.5870000000000001,-1.208,-47.67010560000001,5.9014674000000005,-6.2452422,39.82631058,5.1852699,-34.15975596
1.54,154,0.162,-0.575,-1.293,-38.7892566,1.8334656000000005,-8.021412000000002,39.4195104,5.2425657,-34.2055926
1.55,155,0.125,-0.596,-1.264,-27.788463,1.9480572,-7.9641161999999985,39.1330314,5.30559108,-34.25715882
1.56,156,0.112,-0.626,-1.3130000000000002,-19.8243468,0.9740286,-7.8495246,38.92103694,5.3571573,-34.30872504
1.57,157,0.12,-0.644,-1.294,-12.9488508,0.9167328,-6.2452422,38.7892566,5.40299394,-34.35456168
1.58,158,0.108,-0.648,-1.238,-6.016058999999999,-1.0313244,-3.2085648,38.72623122,5.414453099999999,-34.38320958
1.59,159,0.101,-0.623,-1.182,1.0313244,-1.2605076000000002,-0.7448454000000001,38.70904248,5.40872352,-34.39466874
1.6,160,0.102,-0.579,-1.074,7.5630456000000015,0.6302538000000001,0.5156622000000001,38.7892566,5.40872352,-34.38320958
1.61,161,0.097,-0.552,-1.016,14.266654199999998,0.11459160000000004,1.8907613999999997,38.9324961,5.40299394,-34.37175042
1.62,162,0.087,-0.512,-0.994,20.5691922,-1.6615782,2.4637194,39.14449056,5.37434604,-34.36029126
1.6300000000000001,163,0.063,-0.439,-0.956,28.2468294,-2.1199446,2.578311,39.43096956,5.3456981400000005,-34.35456168
1.6400000000000001,164,0.08900000000000001,-0.443,-0.938,38.27359439999999,-2.2345362,2.5210152000000003,39.7919331,5.32277982,-34.343102519999995
1.6500000000000001,165,0.107,-0.489,-0.9,44.51883660000001,-3.8388186,3.4377480000000005,40.24456992,5.27694318,-34.343102519999995
1.6600000000000001,166,0.116,-0.541,-0.8959999999999999,49.274388,-5.3285094000000015,5.042030400000002,40.74877296,5.2139178,-34.33737294
1.6700000000000002,167,0.121,-0.5710000000000001,-0.9,52.8840234,-7.1046792000000005,6.130650599999999,41.28735348,5.1279740999999985,-34.33737294
1.68,168,0.118,-0.5760000000000001,-0.862,56.72284200000001,-8.3651868,6.1879464,41.86031148,5.03057124,-34.3488321
1.69,169,0.105,-0.57,-0.8170000000000001,59.93140680000001,-9.224623800000002,5.5003968,42.456187799999995,4.93889796,-34.37175042
1.7,170,0.081,-0.556,-0.763,63.02538000000001,-9.0527364,4.6409598,43.09790076,4.85295426,-34.39466874
1.71,171,0.054000000000000006,-0.527,-0.6920000000000001,66.463128,-8.9954406,3.9534102,43.76826162,4.77274014,-34.429046220000004
1.72,172,0.032,-0.502,-0.6859999999999999,69.61439700000001,-9.568398599999998,4.297185,44.47299996,4.68679644,-34.4634237
1.73,173,0.033,-0.487,-0.677,72.30729960000002,-10.4851314,5.2139178,45.2063862,4.5836640000000015,-34.503530760000004
1.74,174,0.031,-0.476,-0.6759999999999999,75.63045600000002,-11.3445684,6.2452422,45.96269076,4.4748019800000005,-34.53790823999999
1.75,175,0.064,-0.4920000000000001,-0.732,77.80769640000003,-12.7196676,6.5317212,46.74764322,4.3544808,-34.58374488
1.76,176,0.094,-0.486,-0.718,79.29738719999997,-13.6364004,6.589017,47.555514,4.22843004,-34.64104068
1.77,177,0.094,-0.496,-0.66,82.67783940000002,-14.8396122,6.417129599999999,48.39203268,4.0966497,-34.70406606
1.78,178,0.102,-0.513,-0.604,82.4486562,-16.501190400000002,5.443101,49.22282178,3.95913978,-34.79000976
1.79,179,0.099,-0.528,-0.5579999999999999,82.5632478,-17.6471064,4.8128472,50.04788129999999,3.82735944,-34.8931422
1.8,180,0.08900000000000001,-0.517,-0.508,81.7038108,-19.480572,3.724227,50.87294082,3.68984952,-35.01919296
1.81,181,0.056,-0.496,-0.504,81.3027402,-22.058883,3.2085648,51.69227076,3.54661002,-35.17389162
1.82,182,0.061,-0.487,-0.487,80.50059900000002,-21.485925,1.6615782,52.50587112,3.42055926,-35.32859028
1.83,183,0.065,-0.467,-0.487,81.7611066,-21.772404,0.8021411999999999,53.32520106000001,3.2945085,-35.4947481
1.84,184,0.079,-0.444,-0.5429999999999999,81.7038108,-21.3140376,0.572958,54.13880142000001,3.18564648,-35.66090592
1.85,185,0.073,-0.433,-0.5,83.5945722,-18.8503182,0.0,54.98104968,3.0939732,-35.81560458
1.86,186,0.054000000000000006,-0.42,-0.457,84.7404882,-18.1054728,0.8594370000000001,55.83475709999999,2.9965703400000003,-35.95311450000001
1.87,187,0.058,-0.406,-0.422,84.8550798,-21.3140376,1.9480572,56.69419409999999,2.88197874,-36.11927232
1.8800000000000001,188,0.061,-0.384,-0.401,84.1675302,-24.8663772,3.0366774,57.54217193999999,2.73873924,-36.30834846
1.8900000000000001,189,0.059,-0.373,-0.388,83.7091638,-25.2674478,3.6669312000000014,58.37869062,2.59549974,-36.4974246
1.9000000000000001,190,0.051,-0.375,-0.396,82.33406459999998,-25.7258142,3.9534102,59.20947972,2.44653066,-36.69223032
1.9100000000000001,191,0.024,-0.371,-0.375,81.7611066,-25.3820394,3.724227,60.03453924,2.30329116,-36.89276562
1.9200000000000002,192,-0.003,-0.365,-0.342,80.95896540000003,-20.6837838,2.291832,60.85386918,2.19442914,-37.05892344
1.93,193,0.006,-0.333,-0.329,83.4799806,-16.501190400000002,1.0313244,61.69611744,2.12567418,-37.19070377999999
1.94,194,0.006999999999999999,-0.335,-0.332,84.22482600000002,-15.870936600000002,-0.3437748,62.5383657,2.06837838,-37.328213700000006
1.95,195,-0.003,-0.321,-0.325,84.91237559999998,-15.5844576,-1.0886202,63.3978027,2.02254174,-37.46572362
1.96,196,-0.001,-0.315,-0.321,86.40206640000002,-13.980175199999998,-1.4896908000000002,64.27442844,1.98816426,-37.59177438
1.97,197,-0.009000000000000001,-0.304,-0.308,87.6052782,-14.495837400000001,-1.4896908000000002,65.16251334,1.95378678,-37.72355472
1.98,198,-0.031,-0.307,-0.31,87.94905299999998,-15.2979786,-1.2032118,66.05059824,1.9194093000000003,-37.86106464
1.99,199,-0.037000000000000005,-0.311,-0.315,87.7198698,-14.4385416,-1.0886202,66.93295356,1.87930224,-37.99284498
2.0,200,-0.028,-0.324,-0.336,88.12094040000002,-14.0947668,-1.3178034,67.82103846,1.85638392,-38.11889574
2.01,201,-0.018000000000000002,-0.348,-0.316,87.4333908,-13.521808800000002,-2.0053530000000004,68.70912336,1.83919518,-38.24494650000001
2.02,202,-0.003,-0.366,-0.303,87.83446140000002,-11.172681,-2.7501984,69.59720826,1.83919518,-38.35380852
2.03,203,0.014,-0.413,-0.34,87.0323202,-11.3445684,-2.8074942000000003,70.47956358,1.83919518,-38.46267054
2.04,204,0.018000000000000002,-0.449,-0.313,85.1415588,-12.7196676,-2.86479,71.333271,1.8334656000000005,-38.58299172
2.05,205,0.008,-0.484,-0.281,83.25079740000002,-12.891555,-2.3491278,72.17551926,1.8334656000000005,-38.70904248
2.0599999999999996,206,0.004,-0.491,-0.249,80.32871159999998,-13.521808800000002,-2.2345362,72.98911962000003,1.82773602,-38.83509324
2.07,207,0.011,-0.483,-0.25,78.5525418,-14.4385416,-2.0626488000000003,73.78553124,1.81627686,-38.97260316
2.0799999999999996,208,0.037000000000000005,-0.482,-0.297,76.6617804,-15.4125702,-1.7761698,74.55902454,1.8048176999999999,-39.12157224
2.09,209,0.069,-0.468,-0.267,75.343977,-15.469866,-2.0626488000000003,75.3153291,1.79908812,-39.26481174
2.0999999999999996,210,0.061,-0.452,-0.197,75.45856859999998,-16.7303736,-2.2345362,76.07736324,1.7933585399999998,-39.42523998
2.11,211,0.032,-0.429,-0.193,74.88561059999998,-20.340009,-1.9480572,76.8336678,1.78189938,-39.62004570000001
2.1199999999999997,212,0.026,-0.418,-0.23,73.911582,-21.829699800000004,-2.6929026,77.58424278,1.77044022,-39.83204016
2.13,213,0.033,-0.403,-0.245,72.479187,-20.798375399999998,-4.5263682,78.31189943999998,1.78762896,-40.03830504
2.1399999999999997,214,0.03,-0.384,-0.23,71.5624542,-18.621135,-6.9327918,79.02809694,1.8334656000000005,-40.2216516
2.15,215,0.0,-0.33,-0.2,70.9894962,-15.870936600000002,-8.7662574,79.74429444,1.89649098,-40.38780942
2.1599999999999997,216,-0.002,-0.266,-0.133,74.0834694,-11.6310474,-9.3392154,80.49486942,1.98243468,-40.5081306
2.17,217,0.024,-0.194,-0.066,78.8390208,-8.307891,-8.4224826,81.29128104,2.0626488000000003,-40.5940743
2.1799999999999997,218,0.049,-0.113,0.002,81.8756982,-6.760904399999999,-5.7868758000000025,82.12207014,2.1199446,-40.66282926
2.19,219,0.058,-0.033,0.018000000000000002,83.76645959999998,-7.161975,-2.0053530000000004,82.97004798,2.1485925000000003,-40.73158422
2.1999999999999997,220,0.004,-0.002,-0.046,83.65186800000002,-15.756345000000001,1.6615782,83.81229624,2.12567418,-40.87482372
2.21,221,-0.059,-0.062,-0.153,81.81840240000002,-18.162768600000003,2.1199446,84.64308534,2.09702628,-41.04098154
2.2199999999999998,222,-0.1,-0.31,-0.213,82.39136040000002,-10.5424272,-0.2291832000000001,85.47387444,2.10275586,-41.1383844
2.23,223,-0.095,-0.986,-0.189,79.1254998,2.4064236,-2.9793816000000004,86.27601564,2.14286292,-41.1097365
2.2399999999999998,224,-0.034,-2.861,-0.108,77.80769640000003,30.7105488,10.4278356,87.07815683999998,2.05118964,-40.78888002
2.25,225,0.116,-3.986,0.264,91.9024632,63.9994086,31.6845774,88.02353753999998,1.75325148,-40.1357079
2.26,226,0.14,-3.954,0.322,92.4754212,59.0719698,35.7525792,88.96891824000002,1.40947668,-39.52837242
2.27,227,0.049,-2.988,0.415,118.7168976,46.5814854,23.2620948,90.1835892,1.1745638999999999,-39.05281728
2.28,228,-0.006,-2.833,0.546,171.54362519999995,18.2773602,1.7761698,91.92538152,1.16310474,-38.85228198
2.29,229,-0.234,-2.906,0.892,179.96610780000003,-11.229976800000001,-8.4224826,93.75311754,1.27196676,-38.93822568
2.3,230,-0.18,-2.39,1.065,162.37629719999995,-32.7731976,-7.448453999999999,95.39750699999999,1.39228794,-39.23616384
2.31,231,0.006999999999999999,-1.982,0.898,154.29758940000005,-28.762491600000004,-0.8021411999999999,96.96168234,1.44958374,-39.49972452
2.32,232,-0.001,-1.868,0.7340000000000001,143.1249084,-20.912967,-0.1718874,98.41126608,1.49542038,-39.68307108000001
2.3299999999999996,233,-0.104,-1.87,0.706,130.061466,-22.8037284,-6.3598338,99.72906948,1.6042824000000002,-39.8778768
2.34,234,-0.08199999999999999,-1.7380000000000002,0.5710000000000001,127.7123382,-24.4080108,-15.0687954,101.02395456,1.81054728,-40.07268252
2.3499999999999996,235,0.069,-1.579,0.301,125.1340272,-16.8449652,-23.3193906,102.29019174,2.07983754,-40.17008538
2.36,236,0.128,-1.314,0.159,110.6954856,2.0626488000000003,-25.6112226,103.418919,2.33193906,-40.0784121
2.3699999999999997,237,0.061,-0.8909999999999999,0.145,95.397507,18.907614000000002,-16.272007199999994,104.3929476,2.44080108,-39.8492289
2.38,238,-0.009000000000000001,-0.575,0.19,92.4181254,19.0222056,-2.5210152000000003,105.3383283,2.41788276,-39.6486936
2.3899999999999997,239,-0.056,-0.424,0.247,86.0009958,7.448453999999999,5.958763200000001,106.21495404,2.3376686399999995,-39.57993864
2.4,240,-0.067,-0.365,0.193,72.5364828,-8.078707799999998,8.479778399999999,106.94834028,2.28610242,-39.67161192
2.4099999999999997,241,-0.019,-0.374,0.147,66.23394479999999,-25.1528562,9.167328,107.61870114,2.28037284,-39.92944302
2.42,242,0.015,-0.436,0.224,68.98414319999999,-37.52874900000001,6.417129599999999,108.30625074,2.3491277999999998,-40.29040656
2.4299999999999997,243,0.012,-0.54,0.407,56.66554620000001,-42.97185,-1.432395,108.87347916,2.50955604,-40.67428842
2.44,244,-0.013,-0.608,0.307,38.4454818,-34.4920716,-8.9381448,109.25736102,2.71582092,-40.96076742
2.4499999999999997,245,0.054000000000000006,-0.7290000000000001,0.199,42.62807520000001,-17.8189938,-7.7922288,109.68707952,2.85333084,-41.09254776
2.46,246,0.027000000000000003,-0.812,0.16399999999999998,41.4821592,-14.8396122,-4.3544808,110.10533886,2.94500412,-41.20713936
2.4699999999999998,247,-0.07400000000000001,-0.792,0.23,41.9978214,-19.480572,-1.5469866,110.5235982,3.0366774000000003,-41.37902676
2.48,248,-0.119,-0.8079999999999999,0.319,40.5654264,-27.7311672,1.145916,110.9246688,3.12835068,-41.63112828
2.4899999999999998,249,-0.1,-0.906,0.375,25.6112226,-29.67922440000001,3.2658606,111.17104074,3.19710564,-41.90614812
2.5,250,-0.066,-0.958,0.442,22.459953600000002,-26.814434400000003,6.5317212,111.38876478,3.24294228,-42.1697088
2.51,251,-0.038,-1.001,0.4920000000000001,26.1841806,-24.4653066,7.906820400000001,111.64659588,3.2658606,-42.42181032
2.52,252,0.008,-1.028,0.589,27.3300966,-18.162768600000003,5.5003968,111.91588614,3.28877892,-42.60515688
2.53,253,0.063,-1.123,0.736,18.7930224,-11.8602306,0.8021411999999999,112.09923270000002,3.32888598,-42.7140189
2.54,254,0.101,-1.237,0.813,5.72958,-12.261301199999998,-2.3491278,112.16225808,3.39764094,-42.81715134
2.55,255,0.094,-1.236,0.8079999999999999,-16.386598799999998,-16.157415599999997,-2.291832,111.99037068,3.48358464,-42.95466126
2.56,256,0.019,-1.06,0.787,-33.002380800000005,-20.340009,-1.2605076000000002,111.64659588,3.57525792,-43.13800782
2.57,257,-0.034,-0.95,0.7959999999999999,-38.27359439999999,-19.0795014,0.8021411999999999,111.25125486000002,3.6382833,-43.32135438
2.5799999999999996,258,-0.06,-0.958,0.8490000000000001,-41.76863820000001,-11.45916,2.3491278,110.81580678,3.66120162,-43.44167556
2.59,259,-0.07,-1.047,0.909,-45.206386200000004,-3.3231564,3.4377480000000005,110.37462911999998,3.63255372,-43.49324178
2.5999999999999996,260,-0.033,-1.055,0.8909999999999999,-48.128471999999995,3.380452200000001,3.724227,109.88188524,3.58671708,-43.48178262
2.61,261,0.037000000000000005,-1.083,0.872,-46.5814854,5.2712136,4.583664,109.41205968,3.5236917,-43.45313472
2.6199999999999997,262,0.08,-1.132,0.899,-44.690724,6.0733548,5.2139178,108.95942286,3.4492071599999994,-43.41875724000001
2.63,263,0.085,-1.126,0.908,-39.7632852,9.797581800000001,3.7815227999999994,108.55835226,3.380452200000001,-43.34427270000001
2.6399999999999997,264,0.078,-1.123,0.826,-36.8411994,10.4851314,-0.057295800000000015,108.20884787999998,3.34034514,-43.258328999999996
2.65,265,0.081,-0.99,0.7290000000000001,-36.8411994,6.589017,-4.8701430000000006,107.83642518000002,3.36326346,-43.18384446
2.6599999999999997,266,0.081,-0.9,0.635,-35.46610020000001,2.2345362,-5.5576926,107.48119122,3.4091001000000003,-43.14946698
2.67,267,0.07200000000000001,-0.818,0.5429999999999999,-32.658606,-1.9480572,-4.0680017999999984,107.14887558,3.45493674,-43.16092614
2.6799999999999997,268,0.06,-0.77,0.493,-31.4553942,-7.7349330000000025,-2.7501984,106.8280191,3.50077338,-43.2296811
2.69,269,0.052000000000000005,-0.715,0.422,-29.9084076,-10.4278356,-2.1199446,106.54154009999998,3.5580691799999995,-43.33281354
2.6999999999999997,270,0.075,-0.691,0.379,-26.814434400000003,-8.9954406,-1.8334656000000005,106.26652026,3.60390582,-43.41302766
2.71,271,0.106,-0.66,0.337,-24.923673,-5.72958,-2.4637194,106.00868916,3.6382833,-43.46459388
2.7199999999999998,272,0.132,-0.7070000000000001,0.342,-21.0848544,-3.6096354,-4.010706000000001,105.79669469999999,3.68984952,-43.49324178
2.73,273,0.125,-0.779,0.387,-19.0795014,-2.9793816000000004,-5.1566220000000005,105.60188898,3.74714532,-43.51043052
2.7399999999999998,274,0.106,-0.81,0.413,-21.2567418,-2.1199446,-5.7868758000000025,105.41854242,3.81590028,-43.52188968
2.75,275,0.069,-0.815,0.392,-21.1421502,-3.2658606,-6.1879464,105.20081838000002,3.88465524,-43.53907842
2.76,276,0.062,-0.841,0.33,-19.8243468,-4.8128472,-6.6463128000000005,105.00028308,3.9648693599999993,-43.573455900000006
2.77,277,0.071,-0.8859999999999999,0.292,-21.7151082,-2.4637194,-7.7922288,104.77682946,4.04508348,-43.57918548
2.78,278,0.08800000000000001,-0.943,0.255,-23.835052800000003,0.3437748,-8.59437,104.5361871,4.1252976000000015,-43.55626716
2.79,279,0.095,-1.011,0.246,-25.7258142,2.86479,-8.021412000000002,104.27262642,4.19405256,-43.51043052
2.8,280,0.071,-1.052,0.268,-28.4187168,5.72958,-6.703608600000001,103.991877,4.24561878,-43.44167556
2.81,281,0.03,-1.047,0.297,-30.7678446,8.651665800000002,-4.3544808,103.68247968,4.26280752,-43.35573186000001
2.82,282,0.018000000000000002,-1.047,0.34,-31.22621100000001,11.8029348,-1.7761698,103.37308236,4.24561878,-43.24114026
2.8299999999999996,283,0.018000000000000002,-1.078,0.411,-32.372127,11.688343199999998,-0.4583664000000001,103.05222588,4.22270046,-43.13227824
2.84,284,0.019,-1.088,0.424,-34.2055926,7.7349330000000025,-0.3437748,102.71991024000002,4.19978214,-43.06352328
2.8499999999999996,285,0.018000000000000002,-1.086,0.375,-35.7525792,5.72958,-0.4010706,102.36467628,4.1825934,-43.01195706
2.86,286,0.015,-1.093,0.337,-37.0130868,7.7349330000000025,-0.4583664000000001,101.99225357999998,4.17113424,-42.93747252
2.8699999999999997,287,0.012,-1.097,0.305,-40.4508348,12.0894138,-0.6302538000000001,101.5854534,4.14821592,-42.828610499999996
2.88,288,-0.003,-1.094,0.274,-43.8885828,15.2979786,-0.572958,101.15000532,4.11383844,-42.67964142
2.8899999999999997,289,-0.017,-1.075,0.264,-46.5814854,17.9908812,0.4583664000000001,100.69163892000002,4.06227222,-42.5134836
2.9,290,-0.012,-1.035,0.249,-47.2117392,20.1108258,2.7501984,100.22181336,3.98778768,-42.33013704
2.9099999999999997,291,0.012,-0.998,0.24,-46.00852740000001,21.7151082,5.2712136,99.76344696,3.89038482,-42.13533132
2.92,292,0.034,-0.984,0.248,-44.0031744,20.05353,7.0473834,99.32799888,3.7815227999999994,-41.95771434
2.9299999999999997,293,0.065,-0.996,0.245,-41.825934,16.1001198,6.4744254,98.90973954,3.68411994,-41.81447484
2.94,294,0.093,-1.022,0.245,-42.2270046,10.9434978,4.3544808,98.4914802,3.62682414,-41.72280156
2.9499999999999997,295,0.102,-1.028,0.248,-45.4355694,6.0733548,1.8334656000000005,98.0331138,3.59244666,-41.67123534
2.96,296,0.097,-1.003,0.221,-48.3576552,3.151269,0.057295800000000015,97.5460995,3.58671708,-41.64258744
2.9699999999999998,297,0.078,-0.992,0.224,-51.10785360000001,4.2398892,-0.057295800000000015,97.02470772,3.57525792,-41.60820996
2.98,298,0.055,-0.987,0.289,-55.86340500000001,10.9434978,0.286479,96.46320888,3.5523396000000003,-41.5108071
2.9899999999999998,299,0.045,-0.957,0.28300000000000003,-57.811462199999994,18.3919518,0.6875496,95.89598046,3.51796212,-41.33891970000001
3.0,300,0.053,-0.926,0.172,-52.9413192,19.8243468,2.3491278,95.3688591,3.4663959,-41.14984356
3.01,301,0.063,-0.952,0.083,-49.2170922,13.178034,4.0680017999999984,94.87038564,3.4091001000000003,-41.02952238
3.02,302,0.07400000000000001,-1.006,0.092,-51.279741,5.6722842,4.3544808,94.35472344,3.3518043,-40.98368574
3.03,303,0.063,-1.05,0.119,-52.2537696,-1.0313244,3.4377480000000005,93.8218725,3.31742682,-41.00660406
3.04,304,0.035,-1.072,0.118,-50.24841660000001,-2.291832,1.4896908000000002,93.31193988,3.2945085,-41.03525196
3.05,305,0.021,-1.084,0.068,-51.10785360000001,4.2398892,-0.572958,92.79627768,3.2945085,-40.9951449
3.06,306,0.013,-1.073,0.029,-52.0818822,11.4018642,-1.2605076000000002,92.26915632,3.2945085,-40.89201246
3.07,307,0.009000000000000001,-1.072,0.063,-51.6235158,15.870936600000002,-0.4010706,91.75349412,3.28877892,-40.7373138
3.08,308,0.023,-1.058,0.085,-54.20182679999999,17.8762896,1.2605076000000002,91.20918402,3.26013102,-40.57115598
3.09,309,0.025,-1.02,0.035,-54.43101,14.037471,3.8388186,90.66487392,3.2085648000000004,-40.43364606
3.0999999999999996,310,0.021,-1.0,0.0,-53.9726436,7.2765666,6.1879464,90.11483424,3.1398098400000003,-40.37062068
3.11,311,0.022,-0.98,-0.003,-54.3164184,-1.2032118,8.136003599999999,89.56479456,3.05386614,-40.38780942
3.1199999999999997,312,0.032,-0.976,0.055,-50.993262,-1.3178034,8.4224826,89.04913236,2.96792244,-40.40499816
3.13,313,0.046,-0.967,0.07200000000000001,-48.8733174,5.958763200000001,6.9327918,88.5506589,2.8934379,-40.35343194
3.1399999999999997,314,0.052000000000000005,-0.945,0.016,-46.00852740000001,12.032117999999999,5.1566220000000005,88.08656292,2.8361421,-40.23884034
3.15,315,0.05,-0.957,-0.055,-44.6334282,13.0061466,5.042030400000002,87.63965568,2.78457588,-40.11278958000001
3.1599999999999997,316,0.034,-0.968,-0.045,-45.263682,11.688343199999998,6.760904399999999,87.18128928,2.71582092,-39.99819798
3.17,317,0.012,-0.962,-0.022,-42.7999626,11.172681,9.3392154,86.75157078,2.62414764,-39.88933596
3.1799999999999997,318,0.006,-0.952,-0.043,-41.4248634,9.6256944,11.745639,86.33331144,2.50382646,-39.7919331
3.19,319,0.019,-0.945,-0.053,-41.9978214,4.9274388,13.521808800000002,85.90932252,2.36631654,-39.734637299999996
3.1999999999999997,320,0.023,-0.933,-0.048,-41.7113424,-0.4010706,14.32395,85.48533359999998,2.22307704,-39.734637299999996
3.21,321,0.017,-0.913,-0.017,-40.393539,-3.3231564,13.8655836,85.07280384,2.07983754,-39.7632852
3.2199999999999998,322,0.002,-0.894,-0.023,-38.7319608,-4.9847345999999995,12.7196676,84.68319240000002,1.9480572000000005,-39.80339226
3.23,323,0.0,-0.907,-0.08,-37.3568616,-6.875496000000001,10.4851314,84.29931054,1.8334656000000005,-39.86641764
3.2399999999999998,324,0.004,-0.929,-0.1,-36.38283300000001,-10.0840608,8.078707799999998,83.92688783999998,1.74179232,-39.95809092
3.25,325,0.016,-0.954,-0.075,-35.17962120000001,-9.797581800000001,6.130650599999999,83.57165388,1.6673077799999998,-40.05549378
3.26,326,0.022,-0.967,-0.08,-34.091001,-9.5111028,4.9847345999999995,83.2221495,1.61001198,-40.14716706
3.27,327,0.012,-0.966,-0.106,-32.658606,-11.8602306,5.2139178,82.88983386,1.5412570200000002,-40.26175866
3.28,328,-0.001,-0.959,-0.114,-31.741873200000004,-13.407217200000002,6.2452422,82.5632478,1.46677248,-40.38780942
3.29,329,-0.013,-0.958,-0.11,-30.3094782,-13.120738199999998,7.6776372,82.25385048,1.36936962,-40.5081306
3.3,330,-0.02,-0.944,-0.114,-28.304125199999998,-11.4018642,8.3651868,81.96737148,1.27196676,-40.61699262000001
3.31,331,-0.022,-0.936,-0.121,-25.6112226,-10.6570188,8.3651868,81.70954037999998,1.1745638999999999,-40.7086659
3.32,332,-0.014,-0.943,-0.127,-23.9496444,-13.178034,8.479778399999999,81.46316844,1.07143146,-40.82898708000001
3.33,333,-0.013,-0.958,-0.135,-23.3193906,-16.2147114,8.078707799999998,81.22825566,0.96829902,-40.97795616000001
3.34,334,-0.022,-0.964,-0.157,-22.2307704,-16.7303736,6.875496000000001,80.99334288,0.87089616,-41.13265482
3.3499999999999996,335,-0.036000000000000004,-0.97,-0.16699999999999998,-20.8556712,-16.1001198,4.8128472,80.78134842,0.8021412000000001,-41.28735348
3.36,336,-0.058,-0.977,-0.177,-19.9962342,-15.469866,2.3491278,80.58081312,0.75630456,-41.43632256
3.3699999999999997,337,-0.079,-0.983,-0.175,-19.2513888,-14.495837400000001,0.1718874,80.3860074,0.73338624,-41.57956206
3.38,338,-0.085,-0.972,-0.179,-17.3606274,-13.2353298,-1.3178034,80.20839042,0.72765666,-41.71707198
3.3899999999999997,339,-0.068,-0.956,-0.202,-15.469866,-12.7196676,-1.6615782,80.03650302,0.70473834,-41.83739316
3.4,340,-0.053,-0.952,-0.194,-14.32395,-12.0894138,-0.7448454000000001,79.88753394,0.69327918,-41.95771434
3.4099999999999997,341,-0.05,-0.949,-0.166,-13.6364004,-10.9434978,0.4010706,79.75002402,0.6703608600000001,-42.06657636
3.42,342,-0.067,-0.931,-0.134,-13.2353298,-9.453807000000001,1.2605076000000002,79.61824368,0.64171296,-42.15824964
3.4299999999999997,343,-0.075,-0.913,-0.121,-12.4904844,-6.703608600000001,1.2605076000000002,79.48646334,0.61879464,-42.22127501999999
3.44,344,-0.08,-0.919,-0.14,-12.891555,-6.3025379999999975,1.2605076000000002,79.354683,0.56149884,-42.27857082
3.4499999999999997,345,-0.078,-0.933,-0.182,-13.8655836,-7.6776372,1.6615782,79.21717308,0.53285094,-42.35305536
3.46,346,-0.071,-0.942,-0.196,-13.0634424,-7.6203414,1.4896908000000002,79.08539274,0.5042030399999999,-42.42181032
3.4699999999999998,347,-0.063,-0.938,-0.18,-12.0894138,-4.583664,0.2291832000000001,78.95934198,0.49274388,-42.46764696
3.48,348,-0.071,-0.939,-0.177,-10.7716104,0.2291832000000001,-1.432395,78.85047996,0.5099326200000001,-42.47337654
3.4899999999999998,349,-0.08199999999999999,-0.944,-0.16399999999999998,-11.516455800000001,2.9220857999999996,-2.4637194,78.73588836,0.4984734599999999,-42.44472864
3.5,350,-0.076,-0.951,-0.146,-12.032117999999999,6.589017,-3.4950437999999995,78.61556718,0.5443101,-42.38743284
3.51,351,-0.053,-0.962,-0.141,-11.516455800000001,8.3651868,-4.583664,78.495246,0.6016058999999999,-42.3129483
3.52,352,-0.033,-0.971,-0.145,-11.516455800000001,7.2765666,-4.297185,78.38065440000003,0.65317212,-42.255652500000004
3.53,353,-0.018000000000000002,-0.977,-0.17,-11.4018642,5.844171599999999,-2.8074942000000003,78.26033322,0.69327918,-42.20408628
3.54,354,-0.011,-0.989,-0.204,-10.7143146,4.583664,-1.145916,78.14001204,0.69900876,-42.15824964
3.55,355,-0.002,-1.01,-0.209,-9.6829902,4.297185,0.0,78.04260918,0.7104679199999999,-42.11814258
3.56,356,0.008,-1.022,-0.223,-8.078707799999998,5.3858052,0.2291832000000001,77.95666548,0.7161975,-42.06657636
3.57,357,0.016,-1.03,-0.241,-7.448453999999999,5.3858052,0.6302538000000001,77.88218094,0.7161975,-42.00928055999999
3.58,358,0.02,-1.037,-0.249,-7.161975,4.2398892,1.3178034,77.8076964,0.7104679199999999,-41.9691735
3.59,359,0.019,-1.041,-0.252,-6.990087599999999,3.4377480000000005,1.7761698,77.71029354,0.70473834,-41.92906644
3.5999999999999996,360,0.02,-1.028,-0.266,-6.4744254,4.6409598,1.7188740000000002,77.64153858,0.69327918,-41.87750022
3.61,361,0.006999999999999999,-0.997,-0.234,-4.6409598,5.3858052,1.432395,77.59570194,0.69327918,-41.825934000000004
3.6199999999999997,362,-0.017,-0.961,-0.193,-2.7501984,5.443101,0.9740286,77.56705404,0.69327918,-41.76863820000001
3.63,363,-0.036000000000000004,-0.941,-0.17600000000000002,-1.3178034,5.6149884000000005,0.1718874,77.55559488,0.69900876,-41.7113424
3.6399999999999997,364,-0.04,-0.945,-0.158,-0.6302538000000001,5.5003968,-0.7448454000000001,77.5785132,0.6703608600000001,-41.65977618
3.65,365,-0.037000000000000005,-0.953,-0.149,-0.11459160000000004,6.1879464,-1.3178034,77.5785132,0.69900876,-41.60248038
3.6599999999999997,366,-0.034,-0.963,-0.16699999999999998,0.057295800000000015,6.2452422,-1.2605076000000002,77.5785132,0.72192708,-41.54518458
3.67,367,-0.018000000000000002,-0.972,-0.179,0.11459160000000004,6.6463128000000005,-0.9740286,77.5785132,0.7448454000000001,-41.4821592
3.6799999999999997,368,0.006999999999999999,-0.977,-0.179,0.572958,6.8182002000000015,-0.3437748,77.58424278,0.76203414,-41.41340424
3.69,369,0.03,-0.983,-0.17600000000000002,0.0,6.3025379999999975,0.1718874,77.60716109999998,0.8021412000000001,-41.36183802
3.6999999999999997,370,0.044,-0.984,-0.175,-1.7188740000000002,4.9847345999999995,0.4010706,77.58424278,0.8078707799999998,-41.3102718
3.71,371,0.039,-0.977,-0.18600000000000005,-2.1199446,4.1252976000000015,0.0,77.56705404,0.8136003599999999,-41.27016474
3.7199999999999998,372,0.016,-0.969,-0.199,-1.8334656000000005,3.8388186,-0.6302538000000001,77.54413572000001,0.8250595199999999,-41.23578726
3.73,373,-0.01,-0.965,-0.207,-1.6615782,3.9534102,-1.2605076000000002,77.52694698,0.8479778399999999,-41.20140978
3.7399999999999998,374,-0.031,-0.964,-0.209,-1.145916,5.2139178,-1.7188740000000002,77.49829908000002,0.8250595199999999,-41.1383844
3.75,375,-0.051,-0.962,-0.203,0.286479,6.875496000000001,-1.3178034,77.50402865999997,0.8537074199999999,-41.07535901999999
3.76,376,-0.059,-0.962,-0.194,1.5469866,7.448453999999999,-0.5156622000000001,77.52121740000003,0.87089616,-41.00660406
3.77,377,-0.053,-0.968,-0.18,2.6929026,7.6203414,0.5156622000000001,77.54413572000001,0.8823553199999999,-40.93211952
3.78,378,-0.039,-0.981,-0.156,2.6356068,8.250595200000001,1.4896908000000002,77.57278362,0.8823553199999999,-40.84617582
3.79,379,-0.021,-0.983,-0.147,2.578311,7.7349330000000025,2.0626488000000003,77.62434984000002,0.8594370000000001,-40.76596170000001
3.8,380,-0.009000000000000001,-0.992,-0.159,2.578311,5.1566220000000005,2.0053530000000004,77.65299774,0.8479778399999999,-40.71439548
3.81,381,-0.004,-0.997,-0.157,2.0626488000000003,3.0366774,1.6615782,77.67018648,0.83651868,-40.680018
3.82,382,-0.006,-1.001,-0.153,2.0053530000000004,1.3750992,1.2605076000000002,77.6931048,0.8307891,-40.66282926
3.83,383,-0.016,-1.002,-0.162,1.6042823999999998,-0.1718874,1.145916,77.71029354,0.8193299399999999,-40.66282926
3.84,384,-0.024,-0.995,-0.171,1.3750992,-1.3178034,1.0313244,77.75613018,0.73338624,-40.66282926
3.8499999999999996,385,-0.03,-0.986,-0.173,1.5469866,-2.3491278,1.0313244,77.77331892,0.7161975,-40.68574758
3.86,386,-0.035,-0.982,-0.17600000000000002,1.8334656000000005,-3.151269,0.8594370000000001,77.79050766,0.70473834,-40.71439548
3.8699999999999997,387,-0.042,-0.985,-0.17800000000000002,1.7188740000000002,-2.9220857999999996,0.5156622000000001,77.8076964,0.69327918,-40.74304338
3.88,388,-0.043,-0.987,-0.17600000000000002,1.6042823999999998,-1.5469866,-0.1718874,77.82488514,0.69327918,-40.76023212
3.8899999999999997,389,-0.043,-0.992,-0.16899999999999998,1.3178034,-0.4010706,-0.6875496,77.92228800000002,0.52139178,-40.74877296
3.9,390,-0.041,-0.995,-0.158,0.6875496,0.8594370000000001,-1.0313244,77.93374716000002,0.53285094,-40.74304338
3.9099999999999997,391,-0.033,-0.994,-0.159,0.11459160000000004,1.5469866,-1.145916,77.93374716000002,0.5443101,-40.73158422
3.92,392,-0.024,-0.999,-0.175,-0.6302538000000001,0.9740286,-1.145916,77.92801758,0.56149884,-40.72012506
3.9299999999999997,393,-0.017,-1.004,-0.188,-1.3750992,0.0,-1.2032118,77.91082884,0.5729580000000001,-40.72585464
3.94,394,-0.013,-1.005,-0.194,-1.6615782,-0.9167328,-1.145916,77.8936401,0.5443101,-40.73158422
3.9499999999999997,395,-0.013,-1.002,-0.194,-1.6615782,-1.6615782,-1.432395,77.87645136,0.55576926,-40.74877296
3.96,396,-0.024,-0.997,-0.191,-1.3750992,-2.0626488000000003,-1.8334656000000005,77.85926262000002,0.5729580000000001,-40.77742086
3.9699999999999998,397,-0.036000000000000004,-0.995,-0.171,-1.3750992,-1.2032118,-2.0626488000000003,77.84780346,0.59014674,-40.78888002
3.98,398,-0.049,-0.987,-0.165,-1.3750992,-0.8021411999999999,-2.0626488000000003,77.83061472,0.6073354799999999,-40.80606876
3.9899999999999998,399,-0.052000000000000005,-0.986,-0.168,-1.0886202,-0.4583664000000001,-2.0626488000000003,77.87072178,0.4984734599999999,-40.80033918
4.0,400,-0.044,-0.998,-0.16399999999999998,-0.9167328,-0.2291832000000001,-2.0053530000000004,77.85926262000002,0.5156622000000001,-40.80606876
4.01,401,-0.037000000000000005,-1.003,-0.16,-0.6302538000000001,-0.4010706,-1.8907613999999997,77.85353303999999,0.53285094,-40.81179834
4.02,402,-0.028,-0.999,-0.161,0.0,-0.7448454000000001,-1.6615782,77.85353303999999,0.55003968,-40.8232575
4.03,403,-0.016,-0.992,-0.162,0.286479,-0.9740286,-1.3750992,77.85353303999999,0.56149884,-40.84044624
4.04,404,-0.011,-0.988,-0.16399999999999998,0.6302538000000001,-1.4896908000000002,-1.2605076000000002,77.90509926,0.53858052,-40.85763498
4.05,405,-0.016,-0.992,-0.157,0.4583664000000001,-1.7761698,-1.4896908000000002,77.91082884,0.55003968,-40.8805533
4.06,406,-0.028,-0.988,-0.151,0.2291832000000001,-1.8907613999999997,-1.6042823999999998,77.91082884,0.56149884,-40.89774204
4.07,407,-0.039,-0.979,-0.152,0.4583664000000001,-1.8334656000000005,-1.7188740000000002,77.91655842,0.5729580000000001,-40.92066036
4.08,408,-0.04,-0.978,-0.152,0.8021411999999999,-1.432395,-1.7188740000000002,77.92801758,0.59014674,-40.9378491
4.09,409,-0.033,-0.985,-0.147,0.8594370000000001,-0.3437748,-1.8334656000000005,78.03115002,0.5156622000000001,-40.94930826
4.1,410,-0.026,-0.987,-0.14800000000000002,1.0313244,0.057295800000000015,-1.5469866,78.03687959999998,0.53285094,-40.94930826
4.109999999999999,411,-0.022,-0.99,-0.152,1.0313244,-0.9740286,-1.145916,78.04833876000002,0.53858052,-40.96076742
4.12,412,-0.02,-0.995,-0.152,0.286479,-2.291832,-1.0313244,78.05406833999999,0.5443101,-40.98941532
4.13,413,-0.017,-0.999,-0.154,0.0,-2.291832,-1.2032118,78.05406833999999,0.55576926,-41.01233364
4.14,414,-0.015,-0.997,-0.157,0.11459160000000004,-1.8907613999999997,-1.432395,78.11136413999998,0.5156622000000001,-41.04098154
4.1499999999999995,415,-0.017,-0.995,-0.159,0.0,-1.432395,-1.432395,78.11136413999998,0.52712136,-41.05817028
4.16,416,-0.021,-0.994,-0.159,0.0,-1.2605076000000002,-1.432395,78.11136413999998,0.5443101,-41.06962944
4.17,417,-0.024,-0.995,-0.16,0.11459160000000004,-0.8594370000000001,-1.2032118,78.11709372,0.55003968,-41.0810886
4.18,418,-0.022,-0.999,-0.152,-0.11459160000000004,0.057295800000000015,-1.2032118,78.11136413999998,0.56149884,-41.0810886
4.1899999999999995,419,-0.018000000000000002,-1.0,-0.149,-0.6302538000000001,1.0886202,-1.3750992,78.17438952,0.53285094,-41.0810886
4.2,420,-0.018000000000000002,-1.004,-0.151,-1.2605076000000002,1.7188740000000002,-1.6042823999999998,78.15720078000003,0.55576926,-41.06962944
4.21,421,-0.017,-1.005,-0.15,-2.1199446,2.0626488000000003,-1.8334656000000005,78.14001204,0.5729580000000001,-41.0524407
4.22,422,-0.015,-1.005,-0.152,-2.9220857999999996,2.4637194,-1.9480572,78.10563456,0.6016058999999999,-41.02952238
4.2299999999999995,423,-0.014,-1.005,-0.151,-3.0939732,2.3491278,-1.9480572,78.07698666,0.62452422,-41.01233364
4.24,424,-0.014,-1.0,-0.149,-3.2658606,2.0626488000000003,-1.8334656000000005,78.07698666,0.62452422,-41.00087448
4.25,425,-0.009000000000000001,-0.997,-0.151,-3.2085648,1.8907613999999997,-1.7761698,78.04260918,0.64171296,-40.98368574
4.26,426,-0.006999999999999999,-0.996,-0.158,-2.7501984,1.432395,-1.6042823999999998,78.01396128,0.66463128,-40.97222658
4.27,427,-0.005,-0.993,-0.16,-2.4637194,1.2605076000000002,-1.3750992,77.98531338000002,0.67609044,-40.96076742
4.28,428,-0.006999999999999999,-0.991,-0.161,-2.0053530000000004,1.2605076000000002,-1.3750992,77.96812464000001,0.69327918,-40.95503784
4.29,429,-0.006999999999999999,-0.993,-0.157,-1.6042823999999998,0.9740286,-1.432395,78.00250212,0.68182002,-40.95503784
4.3,430,-0.011,-0.994,-0.159,-1.3750992,0.3437748,-1.4896908000000002,77.99104296,0.69327918,-40.95503784
4.31,431,-0.013,-0.999,-0.154,-1.6615782,0.0,-1.6042823999999998,77.97385421999998,0.7104679199999999,-40.95503784
4.32,432,-0.017,-0.999,-0.151,-2.0053530000000004,-0.11459160000000004,-1.5469866,77.9509359,0.72765666,-40.96076742
4.33,433,-0.02,-0.99,-0.146,-1.7188740000000002,-0.5156622000000001,-1.4896908000000002,77.93374716000002,0.7391158200000001,-40.966497
4.34,434,-0.019,-0.985,-0.149,-1.3750992,-0.7448454000000001,-1.432395,77.9795838,0.69900876,-40.98368574
4.35,435,-0.017,-0.989,-0.155,-1.3750992,-0.9740286,-1.3750992,77.96239505999998,0.7104679199999999,-40.9951449
4.36,436,-0.019,-0.996,-0.151,-1.3178034,-0.4583664000000001,-1.5469866,77.9509359,0.72192708,-41.00087448
4.37,437,-0.022,-0.993,-0.147,-1.0886202,0.572958,-1.6042823999999998,77.93947674,0.7391158200000001,-41.00087448
4.38,438,-0.018000000000000002,-0.988,-0.15,-0.8021411999999999,1.3178034,-1.6042823999999998,77.92801758,0.76203414,-40.98941532
4.39,439,-0.016,-0.986,-0.155,-0.6875496,0.9740286,-1.2605076000000002,77.99104296,0.7104679199999999,-40.98368574
4.3999999999999995,440,-0.011,-0.994,-0.157,-0.9167328,0.1718874,-0.9740286,77.9795838,0.72192708,-40.98368574
4.41,441,-0.01,-0.999,-0.16,-1.0886202,-0.057295800000000015,-0.9740286,77.96812464000001,0.73338624,-40.98941532
4.42,442,-0.012,-0.997,-0.151,-0.9167328,0.057295800000000015,-1.145916,77.95666548,0.7448454000000001,-40.98941532
4.43,443,-0.013,-0.993,-0.15,-0.8021411999999999,0.4010706,-1.2605076000000002,77.9509359,0.75630456,-40.98941532
4.4399999999999995,444,-0.014,-0.99,-0.154,-0.9167328,-0.286479,-1.0886202,78.00823170000002,0.7104679199999999,-40.9951449
4.45,445,-0.019,-0.995,-0.154,-1.2605076000000002,-1.432395,-0.8594370000000001,77.99677254,0.7161975,-41.01233364
4.46,446,-0.025,-0.998,-0.155,-1.6042823999999998,-1.432395,-0.9167328,77.9795838,0.72192708,-41.02952238
4.47,447,-0.028,-0.994,-0.159,-1.0886202,-0.4583664000000001,-1.0313244,77.96812464000001,0.73338624,-41.03525196
4.4799999999999995,448,-0.027000000000000003,-0.991,-0.158,-0.4583664000000001,0.0,-0.9740286,77.96239505999998,0.7448454000000001,-41.04098154
4.49,449,-0.022,-0.994,-0.157,-0.286479,0.4010706,-0.6875496,78.09990497999998,0.61306506,-41.03525196
4.5,450,-0.016,-0.994,-0.156,-0.286479,0.6302538000000001,-0.4583664000000001,78.09990497999998,0.61879464,-41.02952238
4.51,451,-0.012,-0.992,-0.159,0.0,0.4010706,-0.2291832000000001,78.09990497999998,0.62452422,-41.02952238
4.52,452,-0.01,-0.993,-0.163,0.3437748,0.5156622000000001,-0.286479,78.09990497999998,0.6302538000000001,-41.0237928
4.53,453,-0.006999999999999999,-1.001,-0.16,0.057295800000000015,1.0313244,-0.572958,78.09990497999998,0.63598338,-41.01233364
4.54,454,-0.005,-1.003,-0.158,-0.3437748,1.432395,-0.7448454000000001,78.15720078000003,0.61306506,-41.00660406
4.55,455,-0.01,-0.998,-0.156,-0.8021411999999999,1.3178034,-0.9167328,78.1514712,0.62452422,-40.9951449
4.56,456,-0.018000000000000002,-0.992,-0.158,-0.8021411999999999,1.2032118,-0.9167328,78.14001204,0.63598338,-40.98941532
4.57,457,-0.02,-0.988,-0.16,-0.8021411999999999,1.432395,-0.7448454000000001,78.13428246,0.64744254,-40.97795616000001
4.58,458,-0.018000000000000002,-0.991,-0.161,-1.0313244,1.6615782,-0.572958,78.12282330000002,0.65317212,-40.96076742
4.59,459,-0.011,-0.99,-0.16399999999999998,-1.145916,1.432395,-0.4010706,78.1514712,0.62452422,-40.94930826
4.6,460,-0.006,-0.986,-0.16699999999999998,-0.8021411999999999,0.6875496,-0.3437748,78.14574162,0.6302538000000001,-40.94357868
4.61,461,-0.005,-0.988,-0.168,-0.3437748,0.1718874,-0.286479,78.14001204,0.6302538000000001,-40.9378491
4.62,462,-0.006999999999999999,-0.99,-0.16399999999999998,-0.286479,0.057295800000000015,-0.572958,78.13428246,0.63598338,-40.9378491
4.63,463,-0.009000000000000001,-0.99,-0.162,-0.057295800000000015,0.286479,-0.6302538000000001,78.13428246,0.64171296,-40.9378491
4.64,464,-0.012,-0.992,-0.154,-0.2291832000000001,0.3437748,-0.5156622000000001,78.30044028,0.52712136,-40.94930826
4.6499999999999995,465,-0.013,-0.993,-0.154,-0.5156622000000001,-0.286479,-0.3437748,78.29471070000002,0.52712136,-40.94930826
4.66,466,-0.014,-0.991,-0.157,-0.6875496,-1.0313244,-0.3437748,78.28898111999997,0.52712136,-40.96076742
4.67,467,-0.012,-0.99,-0.158,-0.8021411999999999,-1.2605076000000002,-0.3437748,78.28325154000002,0.53285094,-40.97222658
4.68,468,-0.013,-0.993,-0.162,-0.6875496,-0.7448454000000001,-0.3437748,78.27179238,0.53285094,-40.98368574
4.6899999999999995,469,-0.015,-0.991,-0.161,-0.8021411999999999,-0.4010706,-0.4010706,78.33481775999998,0.4526368200000001,-40.98368574
4.7,470,-0.015,-0.988,-0.16699999999999998,-0.4583664000000001,-0.286479,-0.3437748,78.32908818,0.4526368200000001,-40.98941532
4.71,471,-0.013,-0.987,-0.17,0.1718874,-0.4010706,-0.11459160000000004,78.32908818,0.4526368200000001,-40.9951449
4.72,472,-0.011,-0.987,-0.172,0.4583664000000001,-0.4010706,0.0,78.33481775999998,0.4526368200000001,-40.9951449
4.7299999999999995,473,-0.011,-0.987,-0.168,0.572958,-0.1718874,0.0,78.34054734,0.4526368200000001,-41.00087448
4.74,474,-0.012,-0.987,-0.168,0.9740286,0.1718874,-0.11459160000000004,78.39211356000001,0.38961144,-40.98941532
4.75,475,-0.017,-0.987,-0.165,0.9740286,0.286479,-0.2291832000000001,78.40357272,0.38961144,-40.98941532
4.76,476,-0.016,-0.99,-0.154,0.4010706,0.8021411999999999,-0.286479,78.40930230000002,0.39534102,-40.97795616000001
4.77,477,-0.015,-0.99,-0.156,0.11459160000000004,0.9167328,-0.4010706,78.40930230000002,0.4010706000000001,-40.97222658
4.78,478,-0.015,-0.994,-0.158,0.057295800000000015,0.4010706,-0.3437748,78.40930230000002,0.40680018,-40.966497
4.79,479,-0.017,-0.995,-0.162,-0.2291832000000001,-0.286479,-0.286479,78.47805725999999,0.30366774,-40.966497
4.8,480,-0.019,-0.992,-0.16399999999999998,0.0,-0.8594370000000001,-0.3437748,78.47805725999999,0.30366774,-40.97222658
4.81,481,-0.021,-0.991,-0.166,0.3437748,-1.145916,-0.3437748,78.47805725999999,0.30939732,-40.98368574
4.82,482,-0.02,-0.991,-0.166,0.3437748,-1.0313244,-0.3437748,78.48378684000002,0.30939732,-40.9951449
4.83,483,-0.018000000000000002,-0.99,-0.166,0.4583664000000001,-0.8021411999999999,-0.3437748,78.48951642,0.30939732,-41.00660406
4.84,484,-0.018000000000000002,-0.988,-0.171,0.6875496,-0.9740286,-0.1718874,78.50670516,0.25783110000000004,-41.00660406
4.85,485,-0.018000000000000002,-0.99,-0.168,0.6875496,-0.8021411999999999,-0.11459160000000004,78.51243473999997,0.25783110000000004,-41.01233364
4.86,486,-0.019,-0.989,-0.163,0.8594370000000001,-0.572958,-0.11459160000000004,78.52389389999998,0.25783110000000004,-41.01806322
4.87,487,-0.018000000000000002,-0.989,-0.16,0.9740286,-0.11459160000000004,-0.1718874,78.53535306,0.25783110000000004,-41.01806322
4.88,488,-0.019,-0.991,-0.157,0.9740286,0.11459160000000004,-0.11459160000000004,78.54108264,0.25783110000000004,-41.01806322
4.89,489,-0.021,-0.993,-0.152,0.8021411999999999,0.0,-0.1718874,78.66140382,0.16615782,-41.0237928
4.8999999999999995,490,-0.022,-0.991,-0.151,0.6302538000000001,0.0,-0.2291832000000001,78.6671334,0.1718874,-41.0237928
4.91,491,-0.019,-0.991,-0.153,0.8021411999999999,-0.1718874,-0.3437748,78.67286298,0.1718874,-41.02952238
4.92,492,-0.021,-0.999,-0.155,0.5156622000000001,-0.4010706,-0.4010706,78.67859256,0.17761697999999998,-41.02952238
4.93,493,-0.021,-0.997,-0.155,0.2291832000000001,-0.057295800000000015,-0.5156622000000001,78.68432214,0.18334656,-41.03525196
4.9399999999999995,494,-0.021,-0.992,-0.16,0.3437748,0.4010706,-0.3437748,78.73588836,0.10886202,-41.0237928
4.95,495,-0.016,-0.991,-0.16,0.4583664000000001,0.6875496,-0.3437748,78.74161794,0.10886202,-41.01806322
4.96,496,-0.013,-0.988,-0.161,0.572958,0.8021411999999999,-0.057295800000000015,78.74734751999998,0.11459160000000004,-41.01233364
4.97,497,-0.011,-0.988,-0.16399999999999998,0.8021411999999999,0.572958,0.0,78.7530771,0.11459160000000004,-41.00087448
4.9799999999999995,498,-0.012,-0.991,-0.16399999999999998,0.8594370000000001,0.7448454000000001,0.057295800000000015,78.76453626,0.11459160000000004,-40.9951449
4.99,499,-0.016,-0.987,-0.165,1.145916,0.9740286,-0.1718874,78.781725,0.0859437,-40.97795616000001
5.0,500,-0.019,-0.989,-0.163,1.432395,1.3178034,-0.1718874,78.79891374,0.09167328,-40.966497
5.01,501,-0.021,-0.996,-0.15,1.2032118,1.7188740000000002,-0.1718874,78.8103729,0.09740286,-40.94930826
5.02,502,-0.022,-0.996,-0.141,0.6875496,1.8907613999999997,-0.286479,78.81610248000001,0.10313244,-40.93211952
5.03,503,-0.02,-0.995,-0.14400000000000002,0.5156622000000001,1.6615782,-0.2291832000000001,78.82183205999998,0.10886202,-40.91493078
5.04,504,-0.018000000000000002,-0.998,-0.145,0.2291832000000001,1.2032118,-0.1718874,78.93069408,0.05156622,-40.92066036
5.05,505,-0.017,-1.001,-0.145,0.0,1.0313244,-0.2291832000000001,78.93069408,0.05156622,-40.90920120000001
5.06,506,-0.015,-1.001,-0.149,-0.057295800000000015,1.0886202,-0.4010706,78.9249645,0.057295800000000015,-40.89774204
5.07,507,-0.014,-0.998,-0.152,0.11459160000000004,1.0886202,-0.572958,78.93069408,0.06875496,-40.88628288
5.08,508,-0.015,-0.995,-0.157,0.2291832000000001,0.9167328,-0.6875496,78.93069408,0.07448454,-40.8805533
5.09,509,-0.016,-0.994,-0.16,0.3437748,0.8021411999999999,-0.7448454000000001,78.95934198,0.04583664,-40.86909414
5.1,510,-0.017,-0.994,-0.156,0.5156622000000001,0.9740286,-0.6875496,78.96507156,0.057295800000000015,-40.86336456
5.11,511,-0.017,-0.993,-0.155,0.8594370000000001,1.145916,-0.6302538000000001,78.97653072,0.06302537999999999,-40.8519054
5.12,512,-0.018000000000000002,-0.991,-0.152,0.9167328,1.0313244,-0.572958,78.98226030000002,0.07448454,-40.84044624
5.13,513,-0.017,-0.991,-0.149,0.8594370000000001,0.9167328,-0.572958,78.99371946,0.08021412,-40.83471666
5.14,514,-0.017,-0.991,-0.147,0.8021411999999999,0.7448454000000001,-0.572958,79.05101526000001,0.05156622,-40.83471666
5.1499999999999995,515,-0.016,-0.992,-0.145,0.9167328,0.572958,-0.8594370000000001,79.05674484,0.06302537999999999,-40.82898708000001
5.16,516,-0.015,-0.989,-0.149,1.0886202,0.7448454000000001,-0.9740286,79.06820400000002,0.07448454,-40.8232575
5.17,517,-0.015,-0.992,-0.149,1.2605076000000002,0.6302538000000001,-0.9167328,79.08539274,0.0859437,-40.81752792
5.18,518,-0.016,-0.994,-0.15,1.145916,0.4583664000000001,-0.8594370000000001,79.0968519,0.09167328,-40.81179834
5.1899999999999995,519,-0.016,-0.992,-0.151,1.0886202,0.4010706,-0.8594370000000001,79.13695895999999,0.06875496,-40.81179834
5.2,520,-0.015,-0.987,-0.156,1.0313244,0.3437748,-0.9740286,79.14841812,0.08021412,-40.81179834
5.21,521,-0.012,-0.99,-0.157,1.145916,0.0,-1.0313244,79.15987728,0.09167328,-40.81179834
5.22,522,-0.014,-0.993,-0.155,1.2032118,-0.11459160000000004,-1.0313244,79.17133643999998,0.10313244,-40.81179834
5.2299999999999995,523,-0.016,-0.992,-0.157,1.2032118,-0.1718874,-0.9740286,79.18279559999998,0.11459160000000004,-40.81752792
5.24,524,-0.02,-0.992,-0.155,1.2032118,-0.057295800000000015,-0.9740286,79.22290266,0.08021412,-40.81752792
5.25,525,-0.019,-0.995,-0.152,0.9740286,0.2291832000000001,-0.9740286,79.23436182,0.09167328,-40.81752792
5.26,526,-0.017,-0.997,-0.151,0.8021411999999999,0.4583664000000001,-0.9167328,79.24009140000003,0.09740286,-40.81179834
5.27,527,-0.015,-0.997,-0.14800000000000002,0.572958,0.4583664000000001,-0.8594370000000001,79.24582097999998,0.10886202,-40.80606876
5.28,528,-0.015,-0.996,-0.151,0.6875496,0.2291832000000001,-0.9167328,79.25155056000001,0.12032118,-40.80606876
5.29,529,-0.014,-0.996,-0.15,0.8021411999999999,0.2291832000000001,-0.8594370000000001,79.2973872,0.10313244,-40.81179834
5.3,530,-0.012,-1.0,-0.146,0.7448454000000001,0.2291832000000001,-0.8594370000000001,79.30311678,0.11459160000000004,-40.81179834
5.31,531,-0.013,-0.998,-0.146,0.4010706,-0.286479,-0.6302538000000001,79.30884636,0.12032118,-40.81179834
5.32,532,-0.013,-0.991,-0.152,0.5156622000000001,-1.0886202,-0.6302538000000001,79.31457594,0.12605075999999998,-40.82898708000001
5.33,533,-0.013,-0.992,-0.155,0.7448454000000001,-1.2605076000000002,-0.572958,79.32030552,0.12605075999999998,-40.84044624
5.34,534,-0.013,-0.996,-0.156,0.7448454000000001,-0.8594370000000001,-0.6302538000000001,79.34322384000002,0.10313244,-40.84617582
5.35,535,-0.013,-0.996,-0.155,0.6875496,-0.3437748,-0.7448454000000001,79.34895342,0.11459160000000004,-40.8519054
