TimeStamp(s),FrameCounter,AccX,AccY,AccZ,GyrX,GyrY,GyrZ,EulerX,EulerY,EulerZ
0.01,1,-0.059,-1.013,0.071,0.8021411999999999,-6.1879464,0.286479,92.6186607,-2.20015872,5.4946672199999975
0.02,2,-0.058,-1.011,0.066,0.6302538000000001,-5.844171599999999,0.2291832000000001,92.63011986,-2.20015872,5.43737142
0.03,3,-0.056,-1.01,0.063,0.3437748,-5.6149884000000005,0.11459160000000004,92.63584944,-2.19442914,5.38007562
0.04,4,-0.055,-1.008,0.062,0.286479,-5.2712136,0.0,92.63011986,-2.21734746,5.3285094000000015
0.05,5,-0.058,-1.008,0.063,0.4010706,-5.0993262,0.0,92.63584944,-2.21734746,5.27694318
0.060000000000000005,6,-0.061,-1.008,0.066,0.286479,-4.7555514,0.0,92.64157902,-2.21161788,5.231106540000001
0.06999999999999999,7,-0.063,-1.006,0.068,0.2291832000000001,-4.0680017999999984,-0.057295800000000015,92.6473086,-2.2058883,5.19099948
0.08,8,-0.064,-1.003,0.069,0.057295800000000015,-3.2085648,-0.2291832000000001,92.6473086,-2.20015872,5.16235158
0.09,9,-0.063,-1.003,0.07200000000000001,0.1718874,-2.3491278,-0.3437748,92.68168608,-2.2746432600000004,5.13943326
0.09999999999999999,10,-0.061,-1.005,0.073,0.3437748,-1.432395,-0.4010706,92.68741566,-2.26891368,5.1279740999999985
0.11,11,-0.06,-1.006,0.07400000000000001,0.3437748,-0.8594370000000001,-0.4010706,92.68741566,-2.2631841,5.11651494
0.12,12,-0.06,-1.007,0.076,0.057295800000000015,-0.572958,-0.2291832000000001,92.69314524,-2.2631841,5.11078536
0.13,13,-0.059,-1.005,0.075,-0.11459160000000004,-0.286479,-0.2291832000000001,92.68741566,-2.25745452,5.11078536
0.14,14,-0.059,-1.004,0.073,-0.4010706,0.1718874,-0.286479,92.71606355999998,-2.39496444,5.11651494
0.15000000000000002,15,-0.058,-1.003,0.07200000000000001,-0.4583664000000001,0.4583664000000001,-0.3437748,92.71606355999998,-2.38923486,5.1222445200000015
0.16,16,-0.059,-1.003,0.071,-0.286479,0.8594370000000001,-0.4583664000000001,92.71033398,-2.38923486,5.13370368
0.17,17,-0.058,-1.005,0.07,-0.1718874,1.145916,-0.572958,92.7046044,-2.38350528,5.14516284
0.18000000000000002,18,-0.058,-1.004,0.069,-0.3437748,1.6042823999999998,-0.572958,92.7046044,-2.3777757,5.16235158
0.19,19,-0.057,-1.004,0.066,-0.5156622000000001,1.9480572,-0.6302538000000001,92.68168608,-2.41215318,5.1852699
0.2,20,-0.057,-1.004,0.066,-0.7448454000000001,2.3491278,-0.6875496,92.6759565,-2.4064236,5.20818822
0.21000000000000002,21,-0.056,-1.006,0.066,-0.9167328,2.8074942000000003,-0.8021411999999999,92.66449734,-2.40069402,5.23683612
0.22,22,-0.055,-1.006,0.064,-0.9167328,3.380452200000001,-0.9167328,92.65303818,-2.39496444,5.2712136
0.23,23,-0.052000000000000005,-1.006,0.066,-1.0313244,3.6669312000000014,-1.0886202,92.63584944,-2.38923486,5.311320660000002
0.24000000000000002,24,-0.049,-1.004,0.069,-0.9740286,3.9534102,-1.145916,92.63011986,-2.38350528,5.3456981400000005
0.25,25,-0.048,-1.002,0.069,-0.9740286,4.1252976000000015,-1.2032118,92.6186607,-2.37204612,5.39153478
0.26,26,-0.048,-1.0,0.069,-1.145916,4.1825934,-1.3750992,92.60147196,-2.36058696,5.4316418399999975
0.27,27,-0.048,-1.001,0.069,-1.6042823999999998,4.4690724,-1.432395,92.58428322,-2.3491277999999998,5.47747848
0.28,28,-0.047,-1.003,0.067,-1.8907613999999997,4.8128472,-1.432395,92.56136490000002,-2.3376686399999995,5.52331512
0.29000000000000004,29,-0.045,-1.005,0.066,-1.8334656000000005,4.8701430000000006,-1.3750992,92.53844658,-2.33193906,5.574881339999999
0.3,30,-0.044,-1.007,0.068,-1.7188740000000002,4.6409598,-1.0886202,92.52125784,-2.3204799,5.62071798
0.31,31,-0.046,-1.005,0.07,-1.4896908000000002,4.4690724,-0.8594370000000001,92.49833952,-2.3147503200000004,5.66655462
0.32,32,-0.046,-1.004,0.073,-1.4896908000000002,4.4117766,-0.9167328,92.48115077999998,-2.30902074,5.70666168
0.33,33,-0.045,-1.001,0.07400000000000001,-1.432395,4.5263682,-0.9740286,92.46396204,-2.30329116,5.75249832
0.34,34,-0.045,-1.0,0.071,-1.4896908000000002,4.6982556,-1.2032118,92.45250288,-2.29756158,5.79833496
0.35000000000000003,35,-0.043,-1.001,0.069,-1.432395,4.9274388,-1.3178034,92.43531414,-2.28610242,5.849901179999999
0.36000000000000004,36,-0.044,-1.006,0.068,-1.3750992,5.2139178,-1.432395,92.4181254,-2.2746432600000004,5.9014674000000005
0.37,37,-0.042,-1.01,0.07,-1.2032118,5.2139178,-1.5469866,92.40666624,-2.2631841,5.953033619999999
0.38,38,-0.04,-1.011,0.075,-0.9740286,4.6409598,-1.432395,92.3894775,-2.25172494,5.99887026
0.39,39,-0.037000000000000005,-1.008,0.079,-1.0313244,3.8961144,-1.2032118,92.40666624,-2.22880662,6.03897732
0.4,40,-0.035,-1.005,0.081,-1.0886202,3.7815227999999994,-0.9167328,92.39520708,-2.22307704,6.0733548000000015
0.41000000000000003,41,-0.034,-1.005,0.079,-1.2032118,4.1825934,-0.8594370000000001,92.37801834,-2.21734746,6.11919144
0.42000000000000004,42,-0.031,-1.01,0.08199999999999999,-1.3178034,4.1825934,-0.9167328,92.36655918,-2.21161788,6.1592985
0.43,43,-0.035,-1.012,0.084,-1.2605076000000002,3.380452200000001,-1.145916,92.34937044,-2.20015872,6.19367598
0.44,44,-0.035,-1.009,0.08199999999999999,-1.2605076000000002,2.6929026,-1.145916,92.37801834,-2.1772404,6.2165943
0.45,45,-0.034,-1.002,0.081,-1.6615782,2.1199446,-0.9167328,92.36082960000002,-2.1657812400000003,6.2337830400000005
0.46,46,-0.031,-0.992,0.081,-2.0053530000000004,1.7188740000000002,-1.0313244,92.33791128,-2.16005166,6.25097178
0.47000000000000003,47,-0.031,-0.991,0.081,-2.0053530000000004,1.5469866,-1.0886202,92.31499296,-2.1485925000000003,6.26816052
0.48000000000000004,48,-0.034,-0.99,0.079,-1.9480572,0.9740286,-0.9740286,92.29780422000002,-2.13713334,6.2796196800000015
0.49,49,-0.038,-0.991,0.079,-2.1199446,0.286479,-0.9740286,92.32645212,-2.12567418,6.2796196800000015
0.5,50,-0.039,-0.992,0.076,-2.1772404,0.0,-1.145916,92.3035338,-2.11421502,6.2796196800000015
0.51,51,-0.039,-0.992,0.077,-2.1199446,-0.3437748,-1.145916,92.28061548,-2.10275586,6.2738901
0.52,52,-0.036000000000000004,-0.993,0.079,-2.0053530000000004,-0.5156622000000001,-1.2605076000000002,92.25769716,-2.0912967,6.26816052
0.53,53,-0.03,-0.994,0.079,-1.6042823999999998,-0.7448454000000001,-1.2032118,92.246238,-2.07410796,6.26243094
0.54,54,-0.029,-0.997,0.08,-1.4896908000000002,-1.145916,-1.2605076000000002,92.28061548,-2.0340008999999997,6.2452422000000025
0.55,55,-0.032,-0.997,0.083,-1.432395,-1.432395,-1.145916,92.26915632,-2.02254174,6.2337830400000005
0.56,56,-0.038,-0.999,0.093,-1.4896908000000002,-1.145916,-0.8594370000000001,92.25196758,-2.01681216,6.22232388
0.5700000000000001,57,-0.044,-1.002,0.101,-1.0886202,-0.057295800000000015,-0.3437748,92.24050842,-2.01108258,6.2165943
0.5800000000000001,58,-0.047,-1.003,0.103,-0.8594370000000001,0.6875496,0.11459160000000004,92.22904926,-2.01108258,6.22805346
0.59,59,-0.047,-1.0,0.104,-1.0886202,0.9740286,0.4583664000000001,92.36655918,-2.03973048,6.22805346
0.6,60,-0.045,-0.996,0.101,-1.3750992,0.7448454000000001,0.8021411999999999,92.34937044,-2.05118964,6.2337830400000005
0.61,61,-0.041,-0.994,0.099,-1.6042823999999998,0.286479,0.9740286,92.3321817,-2.0626488000000003,6.2337830400000005
0.62,62,-0.042,-0.996,0.104,-2.0626488000000003,-0.286479,1.0886202,92.30926338,-2.07410796,6.2337830400000005
0.63,63,-0.049,-1.003,0.115,-2.2345362,-0.6875496,1.4896908000000002,92.29207464,-2.08556712,6.22232388
0.64,64,-0.055,-1.009,0.126,-2.2345362,-0.8594370000000001,1.8334656000000005,92.39520708,-2.13140376,6.205135139999999
0.65,65,-0.057,-1.011,0.128,-2.0626488000000003,-0.9740286,2.2345362,92.37228876,-2.15432208,6.19367598
0.66,66,-0.055,-1.009,0.125,-2.0626488000000003,-1.7188740000000002,2.2345362,92.35510002,-2.17151082,6.17648724
0.67,67,-0.053,-1.002,0.126,-1.9480572,-2.5210152000000003,2.0626488000000003,92.3321817,-2.19442914,6.147839339999999
0.68,68,-0.052000000000000005,-0.998,0.128,-1.4896908000000002,-3.3231564,2.0626488000000003,92.32072254,-2.21161788,6.113461859999999
0.6900000000000001,69,-0.054000000000000006,-0.999,0.129,-0.9740286,-4.2398892,2.1199446,92.40093666,-2.24599536,6.067625219999999
0.7000000000000001,70,-0.06,-1.001,0.13,-0.8594370000000001,-5.2139178,2.1772404,92.39520708,-2.2631841,6.0160589999999985
0.7100000000000001,71,-0.065,-1.007,0.13699999999999998,-1.3750992,-5.5576926,2.0626488000000003,92.38374792,-2.28037284,5.958763200000001
0.72,72,-0.071,-1.017,0.139,-2.0626488000000003,-5.042030400000002,2.0626488000000003,92.36655918,-2.29756158,5.90719698
0.73,73,-0.07400000000000001,-1.019,0.134,-2.7501984,-4.6409598,2.0626488000000003,92.33791128,-2.3147503200000004,5.861360339999999
0.74,74,-0.07400000000000001,-1.019,0.124,-3.4377480000000005,-4.4690724,2.0626488000000003,92.36082960000002,-2.36058696,5.80979412
0.75,75,-0.076,-1.016,0.116,-3.9534102,-4.6409598,2.1772404,92.32072254,-2.3777757,5.76395748
0.76,76,-0.08,-1.01,0.109,-4.4690724,-4.8701430000000006,2.1199446,92.28061548,-2.39496444,5.71812084
0.77,77,-0.085,-1.007,0.106,-5.042030400000002,-5.0993262,2.0053530000000004,92.22904926,-2.41215318,5.66082504
0.78,78,-0.087,-1.002,0.102,-5.5003968,-5.2139178,1.6615782,92.17748304,-2.42934192,5.60925882
0.79,79,-0.086,-1.0,0.102,-5.5003968,-5.5003968,1.2032118,92.1602943,-2.46944898,5.5519630200000005
0.8,80,-0.084,-1.0,0.103,-5.5576926,-5.5003968,0.6302538000000001,92.10872808,-2.46944898,5.5003968
0.81,81,-0.08,-1.0,0.104,-5.7868758000000025,-5.6722842,0.0,92.05143228,-2.46944898,5.443101
0.8200000000000001,82,-0.07400000000000001,-0.997,0.104,-6.016058999999999,-5.6149884000000005,-0.5156622000000001,91.99413648,-2.45798982,5.385805199999999
0.8300000000000001,83,-0.07,-0.995,0.102,-6.016058999999999,-5.6149884000000005,-0.7448454000000001,91.93684068,-2.44653066,5.3285094000000015
0.8400000000000001,84,-0.066,-0.992,0.103,-5.9014674000000005,-5.844171599999999,-0.6875496,91.91965194,-2.45226024,5.2712136
0.85,85,-0.065,-0.989,0.106,-5.6149884000000005,-6.0733548,-0.4583664000000001,91.86235614,-2.44653066,5.20818822
0.86,86,-0.067,-0.989,0.112,-5.443101,-6.3598338,-0.2291832000000001,91.81078992,-2.44080108,5.14516284
0.87,87,-0.071,-0.99,0.116,-5.5576926,-6.3598338,-0.11459160000000004,91.7592237,-2.4350715000000003,5.08213746
0.88,88,-0.075,-0.992,0.114,-5.72958,-6.3598338,-0.11459160000000004,91.70192790000002,-2.42934192,5.01911208
0.89,89,-0.078,-0.992,0.114,-6.3025379999999975,-6.3025379999999975,-0.286479,91.69046874,-2.44653066,4.9560867
0.9,90,-0.083,-0.991,0.115,-6.703608600000001,-6.2452422,-0.6875496,91.62744336,-2.44080108,4.893061319999998
0.91,91,-0.083,-0.99,0.115,-7.0473834,-6.589017,-1.0313244,91.55868840000001,-2.42361234,4.82430636
0.92,92,-0.08199999999999999,-0.986,0.119,-7.448453999999999,-7.333862400000001,-1.2605076000000002,91.48420386,-2.4064236,4.7555514
0.93,93,-0.079,-0.987,0.121,-7.906820400000001,-7.6203414,-1.2605076000000002,91.40971932,-2.39496444,4.675337279999999
0.9400000000000001,94,-0.077,-0.992,0.128,-8.7089616,-7.333862400000001,-1.2605076000000002,91.37534184,-2.39496444,4.6008527400000006
0.9500000000000001,95,-0.08,-0.998,0.134,-9.797581800000001,-6.875496000000001,-1.2605076000000002,91.27793898,-2.3777757,4.53209778
0.9600000000000001,96,-0.086,-1.003,0.136,-10.4851314,-6.760904399999999,-1.5469866,91.17480654,-2.36058696,4.46334282
0.97,97,-0.091,-1.002,0.133,-10.7143146,-7.2192707999999985,-1.7188740000000002,91.0716741,-2.3376686399999995,4.38885828
0.98,98,-0.095,-0.997,0.133,-10.886202,-7.6776372,-2.0053530000000004,90.96281208,-2.3204799,4.31437374
0.99,99,-0.096,-0.991,0.135,-11.45916,-7.5057497999999985,-2.1772404,90.89405712,-2.3147503200000004,4.2398892
1.0,100,-0.096,-0.985,0.136,-12.0894138,-6.8182002000000015,-2.291832,90.77373594,-2.2918320000000003,4.17113424
1.01,101,-0.097,-0.984,0.135,-12.891555,-5.72958,-2.2345362,90.64768518,-2.26891368,4.11383844
1.02,102,-0.099,-0.983,0.134,-13.6364004,-4.5263682,-2.3491278,90.51017526,-2.24599536,4.06227222
1.03,103,-0.1,-0.984,0.13,-14.2093584,-3.4950437999999995,-2.5210152000000003,90.36693576,-2.21734746,4.02789474
1.04,104,-0.098,-0.984,0.132,-14.495837400000001,-2.6929026,-2.6356068,90.27526248,-2.21734746,3.99924684
1.05,105,-0.098,-0.982,0.133,-14.610429000000002,-2.291832,-2.8074942000000003,90.1262934,-2.19442914,3.97632852
1.06,106,-0.094,-0.978,0.134,-14.7823164,-2.0626488000000003,-2.9220857999999996,89.97732432000002,-2.1657812400000003,3.9534102
1.07,107,-0.092,-0.971,0.138,-14.7823164,-2.0626488000000003,-3.0939732,89.82835524000002,-2.13140376,3.93049188
1.08,108,-0.093,-0.961,0.135,-14.896907999999998,-2.0053530000000004,-3.151269,89.67938615999998,-2.10275586,3.90757356
1.09,109,-0.097,-0.952,0.13,-15.6990492,-1.9480572,-3.380452200000001,89.57052414,-2.09702628,3.88465524
1.1,110,-0.11,-0.952,0.133,-17.18874,-0.9167328,-3.6096354,89.39863674,-2.0626488000000003,3.873196080000002
1.11,111,-0.127,-0.961,0.131,-18.6784308,1.2032118,-4.0680017999999984,89.20956059999996,-2.02254174,3.88465524
1.12,112,-0.133,-0.975,0.116,-20.798375399999998,3.9534102,-4.8701430000000006,88.99756613999998,-1.9767051,3.9190327200000006
1.1300000000000001,113,-0.112,-0.987,0.08800000000000001,-23.491278,6.130650599999999,-5.7868758000000025,88.75692378,-1.9194093000000003,3.97632852
1.1400000000000001,114,-0.066,-1.0,0.058,-26.1268848,6.4744254,-6.8182002000000015,88.49909268,-1.85638392,4.0393539
1.1500000000000001,115,-0.018000000000000002,-1.02,0.036000000000000004,-28.762491600000004,5.1566220000000005,-7.333862400000001,88.2068841,-1.78762896,4.08519054
1.1600000000000001,116,0.006999999999999999,-1.053,0.013,-31.2835068,2.8074942000000003,-7.448453999999999,87.88602762000002,-1.7188740000000002,4.102379279999999
1.17,117,0.011,-1.086,0.004,-34.4920716,2.578311,-7.6203414,87.53652324,-1.64438946,4.1252976000000015
1.18,118,0.008,-1.108,-0.004,-38.38818600000001,8.193299399999999,-8.7662574,87.14118221999998,-1.55844576,4.19978214
1.19,119,-0.01,-1.091,-0.028,-43.8885828,17.589810600000003,-9.969469199999999,86.68854540000002,-1.45531332,4.36021038
1.2,120,-0.016,-1.046,-0.069,-50.82137460000001,28.934379,-10.0840608,86.16142404,-1.35218088,4.63523022
1.21,121,-0.018000000000000002,-0.983,-0.111,-54.6601932,38.10170700000001,-7.5630456000000015,85.59419562000002,-1.2605076000000002,5.001923339999999
1.22,122,-0.012,-0.931,-0.096,-54.08723520000001,41.9978214,-2.5210152000000003,85.0269672,-1.22040054,5.40872352
1.23,123,-0.005,-0.91,-0.052000000000000005,-47.6128098,40.7946096,4.1825934,84.53422332,-1.24331886,5.80979412
1.24,124,0.021,-0.926,0.003,-40.737313799999995,35.17962120000001,10.599723,84.11596397999998,-1.3178034,6.1592985
1.25,125,0.03,-0.972,0.065,-36.38283300000001,21.7151082,16.272007199999994,83.73781170000002,-1.46677248,6.3884817000000025
1.26,126,0.026,-1.024,0.145,-32.8877892,9.1100322,17.3606274,83.39976648,-1.6329303,6.49161414
1.27,127,0.024,-1.068,0.225,-28.0176462,2.3491278,14.5531332,83.11328748,-1.7761698,6.5317212
1.28,128,0.031,-1.11,0.268,-24.8663772,4.010706000000001,9.568398599999998,82.86118596,-1.86784308,6.57755784
1.29,129,0.043,-1.149,0.259,-27.903054600000004,10.255948199999999,3.380452200000001,82.62627318,-1.88503182,6.6749607000000015
1.3,130,0.041,-1.164,0.217,-34.37748,16.4438946,-3.2085648,82.27103922,-1.83919518,6.829659359999999
1.31,131,0.03,-1.154,0.166,-38.38818600000001,20.2827132,-8.479778399999999,81.86996862,-1.73606274,7.01300592
1.32,132,0.028,-1.115,0.135,-38.961144,20.2254174,-11.8029348,81.46889802,-1.59855282,7.1906228999999975
1.33,133,0.017,-1.078,0.118,-36.2682414,12.3758928,-14.381245800000002,81.09647532,-1.44958374,7.288025760000001
1.34,134,-0.002,-1.048,0.106,-32.7731976,7.3911582,-16.329303,80.80426674,-1.27769634,7.333862399999999
1.35,135,-0.006,-1.038,0.111,-29.9657034,4.8128472,-18.5638392,80.49486942,-1.09434978,7.34532156
1.36,136,-0.006999999999999999,-1.0590000000000002,0.124,-29.1635622,4.5263682,-21.0848544,80.20266084,-0.8823553199999999,7.35105114
1.37,137,-0.021,-1.096,0.134,-29.8511118,6.3598338,-23.777757,79.89326352,-0.64171296,7.37396946
1.3800000000000001,138,-0.009000000000000001,-1.112,0.115,-28.8770832,11.2872726,-25.9549974,79.60105494000003,-0.3724227000000001,7.43699484
1.3900000000000001,139,0.002,-1.117,0.104,-24.5226024,14.32395,-26.69984280000001,79.3833309,-0.09167328,7.52293854
1.4000000000000001,140,-0.016,-1.134,0.14300000000000002,-20.2827132,13.6364004,-26.069589,79.17706602000001,0.17761697999999998,7.60888224
1.4100000000000001,141,-0.062,-1.151,0.2,-15.870936600000002,9.6829902,-23.7204612,79.01663778,0.42398892,7.65471888
1.42,142,-0.071,-1.14,0.232,-13.8655836,9.797581800000001,-20.912967,78.87339828,0.64171296,7.71201468
1.43,143,-0.052000000000000005,-1.123,0.242,-11.229976800000001,11.172681,-18.162768600000003,78.75880667999998,0.83651868,7.78649922
1.44,144,-0.026,-1.107,0.232,-5.5576926,13.0061466,-15.813640800000002,78.79891374,1.0026765,7.878172500000002
1.45,145,-0.009000000000000001,-1.09,0.247,0.7448454000000001,15.985528200000001,-12.834259199999998,78.8103729,1.1573751600000002,8.00995284
1.46,146,-0.001,-1.078,0.274,6.016058999999999,19.0222056,-8.3651868,78.86766870000002,1.26623718,8.18184024
1.47,147,0.006999999999999999,-1.054,0.28600000000000003,11.2872726,21.027558600000006,-3.2085648,78.98798988,1.3349921400000002,8.382375540000002
1.48,148,0.038,-1.013,0.246,16.1001198,21.6578124,2.3491278,79.15414770000002,1.3464512999999998,8.60009958
1.49,149,0.083,-0.949,0.14300000000000002,24.350715,18.048177,8.651665800000002,79.45208586,1.31207382,8.78917572
1.5,150,0.099,-0.8909999999999999,0.07400000000000001,32.7731976,12.318597,14.610429000000002,79.7844015,1.18602306,8.9381448
1.51,151,0.076,-0.82,0.031,41.539455,2.0053530000000004,20.2827132,80.20839042,0.9969469199999998,8.9954406
1.52,152,0.04,-0.746,-0.048,49.6754586,-13.464512999999998,24.8090814,80.71259346,0.7391158200000001,8.909496899999997
1.53,153,0.009000000000000001,-0.667,-0.09,51.7954032,-27.903054600000004,27.501984000000004,81.23971482,0.44117766,8.68604328
1.54,154,-0.021,-0.608,-0.13,46.5241896,-36.38283300000001,26.9863218,81.70954037999998,0.13178034,8.37091638
1.55,155,-0.059,-0.611,-0.223,37.1849742,-41.023792799999995,25.0382646,82.09342224,-0.14896908,8.00422326
1.56,156,-0.062,-0.638,-0.303,23.032911600000002,-37.1276784,19.4232762,82.33406459999998,-0.37815228,7.6719076200000025
1.57,157,-0.028,-0.667,-0.409,5.7868758000000025,-20.798375399999998,7.2765666,82.39708998,-0.47555514,7.477101899999999
1.58,158,-0.015,-0.721,-0.399,0.5156622000000001,-10.4851314,-3.5523396000000003,82.40281956,-0.44690724,7.36823988
1.59,159,-0.018000000000000002,-0.799,-0.304,-1.4896908000000002,-5.3285094000000015,-12.605076,82.32833502,-0.33231564,7.29948492
1.6,160,-0.047,-0.87,-0.213,-5.958763200000001,-4.6409598,-17.5325148,82.26530964,-0.16615782,7.2307299600000015
1.61,161,-0.104,-0.949,-0.128,-14.5531332,-2.5210152000000003,-18.5065434,82.11634056,0.00572958,7.17916374
1.62,162,-0.114,-1.08,-0.034,-22.4026578,2.9220857999999996,-17.7044022,81.88715736,0.17761697999999998,7.1848933200000005
1.6300000000000001,163,-0.048,-1.26,-0.037000000000000005,-26.298772200000002,7.6776372,-15.4125702,81.62359668,0.33804522,7.23645954
1.6400000000000001,164,0.026,-1.471,-0.029,-25.6112226,6.990087599999999,-11.688343199999998,81.36576558,0.4583664000000001,7.282296179999999
1.6500000000000001,165,0.128,-1.644,0.038,-17.0168526,12.891555,-8.9381448,81.19387818,0.56149884,7.39688778
1.6600000000000001,166,0.21600000000000005,-1.713,0.056,-4.8128472,19.4232762,-7.9641161999999985,81.14231196,0.66463128,7.574504760000001
1.6700000000000002,167,0.239,-1.6909999999999998,0.067,8.193299399999999,20.05353,-5.2139178,81.22825566,0.7448454000000001,7.763580899999999
1.68,168,0.2,-1.618,0.11,15.5844576,15.126091199999998,-0.11459160000000004,81.38295432,0.76203414,7.91254998
1.69,169,0.14800000000000002,-1.525,0.149,16.902261,7.6203414,4.6982556,81.57203046,0.73338624,7.99849368
1.7,170,0.108,-1.485,0.17800000000000002,16.042824000000003,-0.286479,8.078707799999998,81.73245870000002,0.65317212,8.00422326
1.71,171,0.075,-1.505,0.197,12.7196676,-7.448453999999999,10.4851314,81.86423904,0.5443101,7.94692746
1.72,172,0.045,-1.543,0.201,10.0840608,-12.0894138,13.178034,81.96737148,0.4010706000000001,7.8495246
1.73,173,0.017,-1.528,0.175,9.9121734,-15.985528200000001,16.959556799999998,82.07050392,0.21772404,7.717744259999999
1.74,174,-0.006999999999999999,-1.466,0.16,11.229976800000001,-17.6471064,20.5691922,82.20228426,0.0,7.56877518
1.75,175,-0.016,-1.365,0.122,14.4385416,-18.449247600000003,23.835052800000003,82.35125334,-0.25210152,7.4198061
1.76,176,-0.02,-1.247,0.094,20.340009,-20.798375399999998,25.84040580000001,82.5632478,-0.52139178,7.25364828
1.77,177,-0.029,-1.144,0.101,28.0176462,-21.829699800000004,26.8717302,82.85545637999998,-0.8078707799999998,7.076031300000001
1.78,178,-0.06,-1.048,0.094,34.60666320000001,-21.2567418,27.9603504,83.21069034,-1.10007936,6.898414319999999
1.79,179,-0.111,-0.935,0.079,40.5081306,-20.5691922,29.2781538,83.64613842,-1.41520626,6.7322565
1.8,180,-0.18,-0.802,0.066,47.0398518,-19.9962342,29.1635622,84.13315272,-1.71314442,6.5718282599999975
1.81,181,-0.23,-0.7,0.063,53.22779820000001,-15.813640800000002,26.9863218,84.68319240000002,-1.98816426,6.4457775
1.82,182,-0.269,-0.618,0.07400000000000001,56.2644756,-10.0840608,23.4339822,85.25615040000002,-2.22307704,6.37129296
1.83,183,-0.29,-0.547,0.125,57.63957480000001,-6.1879464,18.3919518,85.84629714,-2.40069402,6.3311859
1.84,184,-0.269,-0.484,0.14,56.2644756,-5.0993262,12.7769634,86.43071429999998,-2.5496631,6.29680842
1.85,185,-0.215,-0.418,0.083,50.9359662,-6.1879464,7.7349330000000025,86.95210608,-2.62414764,6.2452422000000025
1.86,186,-0.13699999999999998,-0.363,-0.013,45.206386200000004,-5.6722842,2.578311,87.41620206,-2.64706596,6.19367598
1.87,187,-0.064,-0.29100000000000004,-0.1,40.2216516,-2.291832,-2.1772404,87.82300224,-2.61841806,6.17648724
1.8800000000000001,188,0.046,-0.244,-0.146,37.757932200000006,1.2032118,-7.7349330000000025,88.2068841,-2.53820394,6.1879464
1.8900000000000001,189,0.134,-0.202,-0.154,35.809875,5.6722842,-15.183387000000002,88.5506589,-2.36631654,6.2452422000000025
1.9000000000000001,190,0.17600000000000002,-0.147,-0.13,35.8671708,9.5111028,-20.798375399999998,88.90589286,-2.16005166,6.34264506
1.9100000000000001,191,0.146,-0.093,-0.061,35.9244666,13.5791046,-23.376686399999997,89.2668564,-1.92513888,6.474425399999999
1.9200000000000002,192,0.085,-0.058,-0.018000000000000002,31.741873200000004,24.2361234,-22.91832,89.57625372,-1.70168526,6.7150677599999975
1.93,193,0.06,-0.097,-0.14300000000000002,20.626488,47.3263308,-18.5065434,89.76532986,-1.52406828,7.1848933200000005
1.94,194,0.042,-0.272,-0.456,0.6875496,64.51507079999999,-11.2872726,89.67938615999998,-1.4209358399999998,7.8323358600000015
1.95,195,-0.018000000000000002,-0.627,-0.7559999999999999,-32.945085,53.39968560000001,-0.9167328,89.3241522,-1.42666542,8.353727639999999
1.96,196,0.009000000000000001,-1.314,-1.02,-67.5517482,17.475219,22.4026578,88.63660259999996,-1.6558486199999998,8.52561504
1.97,197,0.17800000000000002,-2.249,-0.7909999999999999,-102.7313694,-34.7212548,63.82752120000001,87.61100778,-2.30329116,8.18756982
1.98,198,0.308,-2.261,0.135,-54.54560160000001,-16.615782,65.94746579999999,87.06669767999998,-2.96219286,8.044330319999998
1.99,199,0.07,-1.656,0.199,-35.3515086,-12.7769634,43.7166954,86.72292288,-3.40337052,7.9354682999999975
2.0,200,-0.336,-1.043,0.03,-13.5791046,-5.443101,28.304125199999998,86.58541296,-3.68984952,7.89536124
2.01,201,-0.5489999999999999,-0.736,0.055,20.5691922,-2.3491278,7.3911582,86.79740741999998,-3.76433406,7.878172500000002
2.02,202,-0.594,-0.8059999999999999,-0.087,27.215505,-5.2712136,-5.5003968,87.07815683999998,-3.70703826,7.82660628
2.03,203,-0.5589999999999999,-1.272,-0.09,14.152062599999999,-12.4904844,-3.0366774,87.2328555,-3.67839036,7.7062851
2.04,204,-0.279,-1.809,0.079,-4.0680017999999984,-15.756345000000001,10.599723,87.20420759999998,-3.78725238,7.551586439999999
2.05,205,0.077,-1.839,0.23,7.161975,-0.4583664000000001,22.1161788,87.27869214,-4.00497642,7.55731602
2.0599999999999996,206,0.297,-1.716,0.201,12.4331886,14.896907999999998,20.9702628,87.38755416000002,-4.211241299999998,7.717744259999999
2.07,207,0.279,-1.577,0.16,-4.0680017999999984,19.8243468,19.1367972,87.33025836,-4.39458786,7.9182795599999976
2.0799999999999996,208,0.177,-1.45,0.152,-8.136003599999999,22.173474600000002,16.673077799999998,87.22712592,-4.56074568,8.14746276
2.09,209,0.07,-1.38,0.141,-3.7815227999999994,20.05353,11.0580894,87.18128928,-4.65241896,8.34799806
2.0999999999999996,210,0.004,-1.368,0.142,0.1718874,14.896907999999998,3.9534102,87.16983012,-4.68679644,8.49696714
2.11,211,-0.049,-1.3869999999999998,0.16,0.6302538000000001,9.568398599999998,-2.6356068,87.16983012,-4.65814854,8.594370000000001
2.1199999999999997,212,-0.093,-1.384,0.16899999999999998,0.057295800000000015,6.0733548,-7.906820400000001,87.16410053999998,-4.57793442,8.651665800000002
2.13,213,-0.14400000000000002,-1.35,0.17600000000000002,2.9220857999999996,6.2452422,-10.599723,87.18701886,-4.4748019800000005,8.7089616
2.1399999999999997,214,-0.194,-1.3030000000000002,0.185,6.589017,8.136003599999999,-12.032117999999999,87.27296256,-4.36021038,8.783446139999999
2.15,215,-0.224,-1.245,0.187,8.7662574,10.6570188,-12.891555,87.35317668,-4.23415962,8.880849000000003
2.1599999999999997,216,-0.223,-1.163,0.17800000000000002,10.8289062,15.183387000000002,-13.349921400000001,87.45057954,-4.0966497,9.02981808
2.17,217,-0.189,-1.082,0.172,14.667724800000002,20.3973048,-13.464512999999998,87.58235988,-3.95913978,9.23035338
2.1799999999999997,218,-0.118,-1.018,0.128,19.194093,26.0122932,-13.178034,87.75424728,-3.82162986,9.4824549
2.19,219,-0.027000000000000003,-0.955,0.045,23.032911600000002,32.142943800000005,-12.605076,87.96624174,-3.67839036,9.7975818
2.1999999999999997,220,0.093,-0.879,-0.012,28.4187168,35.695283399999994,-10.886202,88.22980242,-3.56379876,10.15281576
2.21,221,0.198,-0.816,-0.034,38.61736920000001,34.66395900000001,-7.7922288,88.59649553999998,-3.48358464,10.49659056
2.2199999999999998,222,0.246,-0.753,-0.035,45.9512316,26.41336380000001,-4.1825934,89.04340278,-3.44347758,10.76588082
2.23,223,0.249,-0.6920000000000001,0.038,49.1025006,14.7250206,0.572958,89.53041707999998,-3.44347758,10.914849900000002
2.2399999999999998,224,0.251,-0.626,0.123,45.4928652,4.1252976000000015,5.042030400000002,90.00597222,-3.45493674,10.95495696
2.25,225,0.26,-0.546,0.142,38.961144,-0.057295800000000015,7.906820400000001,90.40131324,-3.52942128,10.96068654
2.26,226,0.262,-0.468,0.084,32.945085,2.291832,8.3651868,90.73362888,-3.6096353999999997,10.98360486
2.27,227,0.259,-0.426,-0.008,31.971056400000002,4.9847345999999995,7.161975,91.05448536,-3.67839036,11.03517108
2.28,228,0.22,-0.438,-0.097,31.971056400000002,3.724227,5.443101,91.37534184,-3.73568616,11.07527814
2.29,229,0.162,-0.46,-0.192,29.1635622,-5.1566220000000005,4.4690724,91.6446321,-3.752874900000001,11.0294415
2.3,230,0.08800000000000001,-0.455,-0.242,24.7517856,-19.480572,4.3544808,91.91392236,-3.7815227999999994,10.83463578
2.31,231,-0.022,-0.403,-0.239,21.6005166,-35.17962120000001,4.297185,92.1602943,-3.80444112,10.49086098
2.32,232,-0.124,-0.349,-0.265,17.589810600000003,-50.0765292,2.4064236,92.37801834,-3.79298196,9.9981171
2.3299999999999996,233,-0.175,-0.34,-0.325,8.479778399999999,-59.98870260000001,-2.8074942000000003,92.50979868,-3.71849742,9.40224078
2.34,234,-0.192,-0.424,-0.421,-6.4744254,-62.051351399999994,-11.516455800000001,92.43531414,-3.5809875,8.80636446
2.3499999999999996,235,-0.189,-0.586,-0.477,-21.9442914,-56.0925882,-22.86102420000001,92.25196758,-3.31742682,8.25632478
2.36,236,-0.195,-0.888,-0.456,-29.0489706,-30.9970278,-42.28430039999999,91.97694774,-2.88197874,7.9641161999999985
2.3699999999999997,237,-0.262,-1.297,-0.335,-43.65939960000001,14.9542038,-64.3431834,91.52431092,-2.25172494,8.13027402
2.38,238,-0.293,-1.4509999999999998,-0.064,-46.8106686,23.8923486,-71.33327100000002,91.03729662,-1.55844576,8.376645960000001
2.3899999999999997,239,-0.228,-1.345,0.102,-33.002380800000005,13.521808800000002,-61.30650600000001,90.69925140000001,-0.96829902,8.519885460000001
2.4,240,-0.106,-1.235,0.008,-22.91832,10.7716104,-45.1490904,90.46433862,-0.52712136,8.62874748
2.4099999999999997,241,0.05,-1.12,-0.049,-19.5378678,15.756345000000001,-26.41336380000001,90.25807374,-0.26929026,8.783446139999999
2.42,242,0.209,-1.164,0.02,-15.527161800000002,25.9549974,-14.7823164,90.0976455,-0.13178034,9.04127724
2.4299999999999997,243,0.266,-1.45,0.078,-7.5630456000000015,29.4500412,-13.5791046,90.01743138,-0.00572958,9.33348582
2.44,244,0.141,-1.73,0.198,2.578311,25.84040580000001,-19.2513888,90.04034970000002,0.1718874,9.58558734
2.4499999999999997,245,-0.071,-1.719,0.25,10.4851314,19.0222056,-22.459953600000002,90.14921172,0.38961144,9.78039306
2.46,246,-0.163,-1.561,0.252,11.2872726,8.651665800000002,-20.511896399999998,90.26380332,0.59014674,9.86633676
2.4699999999999998,247,-0.159,-1.479,0.255,13.6936962,1.4896908000000002,-16.157415599999997,90.40131324,0.75630456,9.883525500000001
2.48,248,-0.122,-1.494,0.254,11.6310474,-1.2032118,-11.0007936,90.51590484,0.86516658,9.87206634
2.4899999999999998,249,-0.077,-1.546,0.271,7.1046792000000005,-2.6356068,-5.2712136,90.60184854,0.9167328000000001,9.84914802
2.5,250,-0.056,-1.568,0.294,5.443101,-3.8388186,-0.3437748,90.65341476,0.92246238,9.81477054
2.51,251,-0.047,-1.54,0.29600000000000004,4.8701430000000006,-5.042030400000002,2.9220857999999996,90.70498098,0.89381448,9.76320432
2.52,252,-0.025,-1.456,0.28600000000000003,3.8388186,-5.1566220000000005,4.6982556,90.74508804,0.8479778399999999,9.7116381
2.53,253,0.002,-1.361,0.277,3.151269,-4.4690724,5.958763200000001,90.77373594,0.7906820400000001,9.66580146
2.54,254,0.029,-1.281,0.266,2.291832,-4.0680017999999984,6.990087599999999,90.83676132,0.72765666,9.6256944
2.55,255,0.046,-1.207,0.256,0.9167328,-4.5263682,8.136003599999999,90.84822048,0.65317212,9.57412818
2.56,256,0.046,-1.143,0.229,-0.8021411999999999,-6.3598338,9.167328,90.83676132,0.56149884,9.5111028
2.57,257,0.028,-1.091,0.188,-2.7501984,-10.8289062,9.6256944,90.80811342,0.46982556,9.40224078
2.5799999999999996,258,-0.005,-1.029,0.131,-3.9534102,-17.246035799999998,9.3965112,90.77373594,0.38388186,9.23035338
2.59,259,-0.067,-0.94,0.056,0.9167328,-23.835052800000003,8.9954406,90.78519509999998,0.27501984,8.9954406
2.5999999999999996,260,-0.16399999999999998,-0.8420000000000001,0.017,14.152062599999999,-28.2468294,9.1100322,90.92843459999999,0.20053530000000008,8.72042076
2.61,261,-0.247,-0.7440000000000001,0.022,28.762491600000004,-27.043617600000005,9.1100322,91.22637276,0.12032118,8.451130500000001
2.6199999999999997,262,-0.29600000000000004,-0.665,0.03,38.3308902,-18.3919518,8.7662574,91.6159842,0.04583664,8.27351352
2.63,263,-0.294,-0.591,0.041,40.2216516,-5.844171599999999,7.333862400000001,92.02278438,-0.01145916,8.21621772
2.6399999999999997,264,-0.245,-0.523,0.06,35.3515086,6.3025379999999975,5.2712136,92.3894775,-0.09740286,8.28497268
2.65,265,-0.17800000000000002,-0.465,0.067,29.621928600000004,13.2926256,2.5210152000000003,92.68741566,-0.12605075999999998,8.41675302
2.6599999999999997,266,-0.096,-0.436,0.068,27.7311672,15.2979786,-0.6302538000000001,92.9624355,-0.13178034,8.57145168
2.67,267,-0.025,-0.43,0.044,29.1635622,14.5531332,-3.6669312000000014,93.26037366,-0.10313244,8.72042076
2.6799999999999997,268,0.03,-0.426,-0.018000000000000002,30.080295,12.2040054,-5.72958,93.56404139999998,-0.057295800000000015,8.852201099999998
2.69,269,0.051,-0.399,-0.079,30.7678446,8.193299399999999,-5.844171599999999,93.85624998,0.0,8.9381448
2.6999999999999997,270,0.045,-0.365,-0.122,31.741873200000004,8.4224826,-4.5263682,94.17710646,0.03437748,9.02981808
2.71,271,0.048,-0.349,-0.159,27.7311672,17.9908812,-3.9534102,94.45785588,0.057295800000000015,9.21316464
2.7199999999999998,272,0.06,-0.35100000000000003,-0.193,14.381245800000002,30.7105488,-3.4377480000000005,94.60109538,0.06302537999999999,9.51683238
2.73,273,0.059,-0.39,-0.257,-5.5003968,41.0810886,-0.7448454000000001,94.53807,0.02291832,9.92363256
2.7399999999999998,274,0.067,-0.508,-0.341,-28.762491600000004,42.112413,4.3544808,94.18856562,-0.05156622,10.33043274
2.75,275,0.076,-0.735,-0.464,-48.5868384,34.2055926,11.1153852,93.69009216,-0.19480572,10.6570188
2.76,276,0.11,-1.007,-0.491,-61.4783934,20.8556712,17.8762896,93.05983836,-0.39534102,10.84036536
2.77,277,0.15,-1.305,-0.325,-64.457775,8.021412000000002,26.5279554,92.40666624,-0.6703608600000001,10.89766116
2.78,278,0.099,-1.48,-0.08800000000000001,-56.9520252,5.6722842,33.6326346,91.82797866,-1.01413566,10.93776822
2.79,279,0.019,-1.475,0.044,-55.2331512,-0.057295800000000015,36.898495200000006,91.26647982,-1.38082878,10.92057948
2.8,280,-0.121,-1.272,0.069,-52.0245864,-4.7555514,32.486718599999996,90.74508804,-1.7074148399999998,10.8575541
2.81,281,-0.234,-1.215,0.08,-31.340802600000004,-7.9641161999999985,24.4653066,90.42996114,-1.9480572000000005,10.771610399999998
2.82,282,-0.312,-1.418,0.042,-17.131444199999994,-15.756345000000001,21.6578124,90.26380332,-2.16005166,10.61118216
2.8299999999999996,283,-0.35,-1.638,0.055,-11.4018642,-16.7303736,23.8923486,90.15494129999999,-2.39496444,10.44502434
2.84,284,-0.247,-1.727,0.16399999999999998,-4.8701430000000006,-9.3965112,25.6685184,90.11483424,-2.64706596,10.34762148
2.8499999999999996,285,-0.034,-1.645,0.25,6.3598338,9.8548776,21.9442914,90.17785962,-2.87051958,10.44502434
2.86,286,0.048,-1.5519999999999998,0.253,5.5576926,24.350715,16.673077799999998,90.21796668,-3.04240698,10.6856667
2.8699999999999997,287,0.063,-1.508,0.264,-1.2032118,32.257535399999995,13.2926256,90.1835892,-3.18564648,11.00652318
2.88,288,0.042,-1.516,0.273,-4.5263682,36.5547204,10.8289062,90.10910466,-3.3059676599999994,11.36748672
2.8899999999999997,289,0.015,-1.52,0.269,-4.010706000000001,38.67466500000001,8.078707799999998,90.05180886000002,-3.3919113599999995,11.745639
2.9,290,-0.012,-1.508,0.264,-2.578311,39.247623,5.2139178,89.99451306,-3.45493674,12.135250439999998
2.9099999999999997,291,-0.058,-1.481,0.253,-1.6042823999999998,40.164355799999996,2.4064236,89.94867642,-3.48931422,12.53059146
2.92,292,-0.118,-1.418,0.256,1.145916,42.2270046,0.0,89.93148768,-3.50077338,12.95458038
2.9299999999999997,293,-0.162,-1.329,0.256,6.1879464,45.83664,-1.3178034,89.96013558000001,-3.50077338,13.4072172
2.94,294,-0.18,-1.233,0.249,11.45916,48.4722468,-2.1199446,90.06326802,-3.50077338,13.88850192
2.9499999999999997,295,-0.159,-1.149,0.244,15.756345000000001,51.279741,-2.3491278,90.18931878,-3.48931422,14.39270496
2.96,296,-0.107,-1.078,0.225,19.8243468,53.68616460000001,-1.8907613999999997,90.34974702,-3.48931422,14.93128548
2.9699999999999998,297,-0.019,-1.015,0.16699999999999998,22.7464326,55.6342218,-0.9167328,90.53882316,-3.4950437999999995,15.48132516
2.98,298,0.076,-0.936,0.093,27.444688199999998,53.39968560000001,-0.11459160000000004,90.77946552,-3.5122325400000003,16.0141761
2.9899999999999998,299,0.188,-0.857,0.024,32.4294228,46.9252602,1.3178034,91.06594452,-3.50077338,16.47827208
3.0,300,0.294,-0.7709999999999999,-0.018000000000000002,38.3308902,36.8411994,4.3544808,91.42690806,-3.5580691799999995,16.844965199999994
3.01,301,0.35100000000000003,-0.688,-0.006999999999999999,43.0864416,23.8923486,7.9641161999999985,91.85089698,-3.64974246,17.085607560000003
3.02,302,0.365,-0.594,0.024,43.20103320000001,13.8655836,11.45916,92.2748859,-3.77006364,17.22311748
3.03,303,0.35200000000000004,-0.49,0.07,41.9978214,5.9014674000000005,14.152062599999999,92.69887482,-3.90757356,17.280413279999998
3.04,304,0.318,-0.405,0.113,41.825934,0.6302538000000001,15.6417534,93.1343229,-4.022165159999999,17.280413279999998
3.05,305,0.303,-0.348,0.131,41.7113424,-1.2605076000000002,15.985528200000001,93.55831182,-4.17686382,17.26322454
3.06,306,0.274,-0.314,0.085,39.591397799999996,-1.145916,15.126091199999998,93.965112,-4.325832900000001,17.246035799999998
3.07,307,0.23,-0.316,-0.009000000000000001,34.66395900000001,-1.8334656000000005,13.9228794,94.32034596,-4.45761324,17.2173879
3.08,308,0.152,-0.324,-0.063,27.1582092,-7.2765666,13.0061466,94.60109538,-4.57793442,17.14290336
3.09,309,0.054000000000000006,-0.31,-0.062,22.5745452,-16.1001198,12.834259199999998,94.83600816,-4.68106686,16.976745540000003
3.0999999999999996,310,-0.022,-0.285,-0.033,22.86102420000001,-22.9756158,12.9488508,95.08810968,-4.77846972,16.74183276
3.11,311,-0.057,-0.265,-0.032,23.14750320000001,-28.304125199999998,13.0061466,95.35167036,-4.87587258,16.44962418
3.1199999999999997,312,-0.079,-0.273,-0.125,18.7930224,-38.3308902,12.7769634,95.58658314,-4.95035712,16.060012739999998
3.13,313,-0.138,-0.358,-0.268,3.6669312000000014,-54.717489,10.9434978,95.67825642,-4.99046418,15.51570264
3.1399999999999997,314,-0.24,-0.556,-0.379,-21.8869956,-73.6823988,4.0680017999999984,95.47772112,-4.96754586,14.79377556
3.15,315,-0.244,-0.925,-0.477,-47.555514,-67.83822719999999,-13.0634424,95.05946178,-4.76128098,14.12914428
3.1599999999999997,316,-0.215,-1.7480000000000002,-0.7440000000000001,-81.5892192,-0.4010706,-66.11935319999999,94.22867268000002,-4.10810886,14.16925134
3.17,317,-0.5379999999999999,-2.3040000000000003,-0.621,-106.1691174,71.9635248,-118.8314892,93.08848626,-3.0080295,14.94274464
3.1799999999999997,318,-0.65,-1.742,-0.047,-50.76407879999999,43.9458786,-93.2202666,92.54417616,-2.1199446,15.418299779999998
3.19,319,-0.226,-1.398,0.042,-12.0894138,13.2353298,-59.8168152,92.40666624,-1.5412570200000002,15.57872802
3.1999999999999997,320,0.119,-0.953,0.002,25.2674478,10.599723,-26.1268848,92.65876776,-1.28342592,15.6990492
3.21,321,0.414,-0.638,0.077,29.621928600000004,27.3300966,3.2085648,92.95097633999998,-1.3349921400000002,15.96833946
3.2199999999999998,322,0.5,-0.804,0.069,12.318597,36.898495200000006,17.8762896,93.05983836,-1.5412570200000002,16.323573420000002
3.23,323,0.463,-1.305,0.043,-7.5057497999999985,45.4928652,15.0687954,92.96816508,-1.73033316,16.764751080000003
3.2399999999999998,324,0.17800000000000002,-1.843,0.182,-11.172681,45.6074568,-11.172681,92.83638474,-1.65011904,17.2173879
3.25,325,-0.21,-1.917,0.312,-2.4064236,25.55392680000001,-33.518043,92.79627768,-1.34072172,17.48667816
3.26,326,-0.383,-1.823,0.251,0.6302538000000001,6.4744254,-38.61736920000001,92.80200726,-0.96256944,17.57262186
3.27,327,-0.29600000000000004,-1.679,0.17,-5.5003968,-0.8594370000000001,-35.9244666,92.74471146,-0.6073354799999999,17.57835144
3.28,328,-0.14,-1.5519999999999998,0.147,-7.906820400000001,3.8961144,-26.642547,92.66449734,-0.3437748,17.62991766
3.29,329,-0.039,-1.503,0.18,-0.1718874,12.261301199999998,-14.32395,92.66449734,-0.21199446,17.761698000000006
3.3,330,-0.036000000000000004,-1.5,0.21,6.875496000000001,18.5638392,-4.1252976000000015,92.73325229999999,-0.18334656,17.94504456
3.31,331,-0.081,-1.466,0.223,7.5057497999999985,22.0015872,2.86479,92.80200726,-0.2291832000000001,18.162768600000003
3.32,332,-0.105,-1.393,0.21600000000000005,5.7868758000000025,26.298772200000002,8.136003599999999,92.85930306,-0.32658606,18.4205997
3.33,333,-0.08199999999999999,-1.318,0.184,2.6356068,30.93973200000001,10.9434978,92.88222138,-0.4583664000000001,18.71853786
3.34,334,-0.034,-1.248,0.17,1.2032118,33.1742682,13.407217200000002,92.89368054,-0.61879464,19.03939434
3.3499999999999996,335,-0.018000000000000002,-1.192,0.17,2.4637194,36.2109456,15.756345000000001,92.91086928,-0.8021412000000001,19.38889872
3.36,336,-0.02,-1.136,0.133,4.4690724,38.10170700000001,17.131444199999994,92.94524676,-1.0026765,19.75559184
3.3699999999999997,337,-0.038,-1.058,0.1,8.021412000000002,38.5027776,17.18874,93.0197313,-1.2032117999999998,20.12228496
3.38,338,-0.075,-0.966,0.065,13.178034,38.10170700000001,15.2979786,93.14005248,-1.38655836,20.49470766
3.3899999999999997,339,-0.122,-0.863,0.027000000000000003,20.1108258,39.47680620000001,11.6310474,93.31766946,-1.5527161800000002,20.87858952
3.4,340,-0.185,-0.769,0.0,28.8770832,42.8572584,5.844171599999999,93.5926893,-1.65011904,21.30257844
3.4099999999999997,341,-0.247,-0.6829999999999999,-0.003,35.6379876,49.388979600000006,0.4010706,93.9364641,-1.6959556799999995,21.79532232
3.42,342,-0.28600000000000003,-0.604,0.041,40.04976420000001,58.15523699999999,-4.5263682,94.31461638,-1.70168526,22.374009899999997
3.4299999999999997,343,-0.302,-0.535,0.086,41.0810886,69.2706222,-8.651665800000002,94.70422782,-1.6902260999999998,23.06728908
3.44,344,-0.285,-0.476,0.093,38.8465524,77.80769640000003,-11.45916,95.07092094,-1.6844965200000002,23.85224154
3.4499999999999997,345,-0.252,-0.433,0.091,36.8411994,82.4486562,-12.6623718,95.40896616,-1.65011904,24.67730106
3.46,346,-0.201,-0.411,0.086,34.4347758,85.7145168,-12.4904844,95.71836348,-1.6329303,25.531008480000004
3.4699999999999998,347,-0.158,-0.426,0.069,31.22621100000001,89.6106312,-12.4331886,95.99911290000001,-1.62147114,26.43055254
3.48,348,-0.077,-0.451,0.037000000000000005,27.6165756,93.3348582,-12.318597,96.23975526,-1.62147114,27.3587445
3.4899999999999998,349,0.011,-0.483,-0.013,22.1161788,94.4807742,-12.318597,96.41737224,-1.62147114,28.304125200000005
3.5,350,0.067,-0.485,-0.067,18.5638392,95.4548028,-12.032117999999999,96.56634132,-1.6329303,29.25523548
3.51,351,0.087,-0.456,-0.102,15.9282324,97.5174516,-11.8029348,96.6866625,-1.6558486199999998,30.2235345
3.52,352,0.08800000000000001,-0.399,-0.122,13.2926256,99.2363256,-11.172681,96.77833578,-1.6844965200000002,31.20902226
3.53,353,0.07200000000000001,-0.341,-0.12,9.6256944,105.137793,-9.9121734,96.829902,-1.74179232,32.25180582
3.54,354,0.098,-0.313,-0.08900000000000001,-0.6875496,125.3059146,-7.9641161999999985,96.75541746,-1.82773602,33.4893951
3.55,355,0.231,-0.369,-0.135,-23.8923486,156.47482979999995,-3.6669312000000014,96.44029056,-2.01681216,35.02492254
3.56,356,0.369,-0.565,-0.371,-64.17129600000001,189.649098,5.6149884000000005,95.69544516,-2.32620948,36.869847299999996
3.57,357,0.419,-0.995,-0.833,-87.94905299999998,172.173879,27.043617600000005,94.70422782,-2.80176462,38.52569592
3.58,358,0.604,-2.103,-1.273,-120.66495479999999,51.1651494,64.4004792,93.4494498,-3.50077338,38.96687358000001
3.59,359,0.85,-2.435,-0.241,-138.42665280000003,9.6829902,92.3608296,92.0457027,-4.42896534,39.00125106
3.5999999999999996,360,0.705,-1.304,0.33,-50.3630082,21.9442914,78.1514712,91.51285176,-5.21964738,39.18459762
3.61,361,0.043,-1.024,0.17600000000000002,-6.4744254,-0.3437748,63.59833800000001,91.45555596,-5.849901179999999,39.161679299999996
3.6199999999999997,362,-0.415,-0.845,0.123,1.432395,3.724227,36.2682414,91.46701512,-6.2165943,39.19032720000001
3.63,363,-0.72,-0.8859999999999999,0.159,18.5638392,6.589017,2.1199446,91.6446321,-6.23951262,39.25908216000001
3.6399999999999997,364,-0.812,-1.389,0.18,38.61736920000001,21.4286292,-14.152062599999999,92.01132522,-6.113461859999999,39.48253578
3.65,365,-0.5589999999999999,-1.817,0.332,34.60666320000001,38.90384820000001,-8.8235532,92.31499296,-6.05043648,39.87214722
3.6599999999999997,366,-0.179,-1.816,0.494,30.8824362,65.7182826,2.2345362,92.54990574,-6.113461859999999,40.53104892
3.67,367,0.125,-1.722,0.483,22.0015872,100.8979038,10.313244,92.65303818,-6.29107884,41.52799584
3.6799999999999997,368,0.171,-1.629,0.389,-2.86479,129.3739164,17.589810600000003,92.46396204,-6.560369099999999,42.7999626
3.69,369,0.102,-1.545,0.34700000000000003,-19.938938399999998,142.38006299999995,24.5798982,92.08580976,-6.89268474,44.20370970000001
3.6999999999999997,370,0.033,-1.5,0.284,-20.7410796,142.0362882,26.929026,91.68473916,-7.2479187,45.60172722
3.71,371,-0.002,-1.453,0.204,-14.037471,133.3273266,26.0122932,91.35242352,-7.58023434,46.91953062
3.7199999999999998,372,-0.014,-1.398,0.157,-3.8388186,119.17526399999998,23.6058696,91.14042906,-7.87244292,48.09982409999999
3.73,373,-0.02,-1.33,0.138,6.990087599999999,104.5075392,20.798375399999998,91.05448536,-8.12454444,49.13687808
3.7399999999999998,374,-0.034,-1.273,0.14800000000000002,15.6417534,92.9337876,18.5638392,91.0716741,-8.34226848,50.06507004
3.75,375,-0.049,-1.221,0.174,23.2620948,84.11023440000002,16.1001198,91.17480654,-8.5370742,50.90158872
3.76,376,-0.052000000000000005,-1.187,0.223,26.9863218,78.32335859999998,13.5791046,91.32377562,-8.7089616,51.686541180000006
3.77,377,-0.033,-1.164,0.277,25.6685184,75.74504759999998,12.261301199999998,91.45555596,-8.86938984,52.44284574000001
3.78,378,0.013,-1.123,0.326,21.5432208,78.7244292,11.0007936,91.54722924,-9.01835892,53.22779820000001
3.79,379,0.07,-1.07,0.354,18.907614000000002,86.63124959999998,11.516455800000001,91.6159842,-9.15586884,54.08150562
3.8,380,0.124,-1.01,0.333,20.2254174,99.0644382,12.9488508,91.65036168,-9.3392154,55.07272296
3.81,381,0.16899999999999998,-0.937,0.29100000000000004,25.496631,110.8100772,13.8655836,91.71338706000002,-9.53402112,56.1785319
3.82,382,0.18600000000000005,-0.88,0.241,30.194886600000004,116.310474,13.464512999999998,91.81078992,-9.73455642,57.34163663999999
3.83,383,0.209,-0.8290000000000001,0.173,32.257535399999995,117.6282774,12.6623718,91.91965194,-9.92936214,58.52193012
3.84,384,0.222,-0.782,0.113,33.6899304,113.7894588,11.45916,92.05716186,-10.07833122,59.656386960000006
3.8499999999999996,385,0.198,-0.76,0.086,32.4294228,104.1637644,10.4278356,92.18321262,-10.24448904,60.70490010000001
3.86,386,0.174,-0.746,0.102,28.1322378,91.7305758,10.1413566,92.29207464,-10.40491728,61.62163290000001
3.8699999999999997,387,0.161,-0.732,0.14800000000000002,25.78311,80.78707800000002,10.313244,92.40093666,-10.55961594,62.42950368
3.88,388,0.174,-0.74,0.163,24.5798982,72.82296179999999,11.1153852,92.5040691,-10.72004418,63.15716034
3.8899999999999997,389,0.225,-0.747,0.17600000000000002,25.6112226,69.0987348,11.6310474,92.64157902,-10.83463578,63.84470994000001
3.9,390,0.282,-0.743,0.183,26.69984280000001,68.1247062,11.3445684,92.77335936,-10.99506402,64.52652996
3.9099999999999997,391,0.316,-0.7340000000000001,0.168,27.788463,66.00476160000001,10.3705398,92.92232844,-11.149762679999998,65.18543166
3.92,392,0.314,-0.703,0.151,29.1062664,61.9940556,8.7089616,93.08848626,-11.28154302,65.80995588
3.9299999999999997,393,0.274,-0.653,0.093,31.51269000000001,56.8374336,7.1046792000000005,93.28902156,-11.396134620000002,66.37718430000001
3.94,394,0.226,-0.583,0.034,32.830493399999995,51.6235158,5.958763200000001,93.5067456,-11.45916,66.89857608
3.9499999999999997,395,0.154,-0.48,-0.041,32.4294228,46.696077,4.4690724,93.7359288,-11.545103700000002,67.36840163999999
3.96,396,0.054000000000000006,-0.395,-0.17,31.741873200000004,37.1849742,2.1772404,93.98230074,-11.59666992,67.74655392
3.9699999999999998,397,-0.067,-0.344,-0.295,24.4653066,25.8977016,-1.2605076000000002,94.17137688,-11.60812908,68.0101146
3.98,398,-0.172,-0.365,-0.312,10.1986524,23.0902074,-6.016058999999999,94.2229431,-11.5737516,68.25075696
3.9899999999999998,399,-0.213,-0.472,-0.29,-7.6776372,34.4920716,-13.6936962,94.0224078,-11.48207832,68.61745008
4.0,400,-0.165,-0.6709999999999999,-0.329,-26.642547,60.6189564,-25.55392680000001,93.61560762,-11.2872726,69.24197430000001
4.01,401,-0.136,-1.006,-0.442,-47.269034999999995,95.7985776,-42.8572584,92.93378759999999,-10.94922738,70.22173248
4.02,402,-0.285,-1.594,-0.5660000000000001,-80.50059900000002,135.9056376,-64.457775,91.84516740000001,-10.41064686,71.60829084
4.03,403,-0.57,-1.873,-0.393,-86.91772859999998,154.5840684,-72.5364828,90.66487392,-9.7689339,73.16673660000002
4.04,404,-0.725,-1.712,-0.127,-48.0711762,155.271618,-54.20182679999999,89.8971102,-9.29337876,74.71945278000003
4.05,405,-0.602,-1.329,0.103,-15.813640800000002,155.32891379999995,-27.7311672,89.46739170000002,-9.0527364,76.27216896
4.06,406,-0.32299999999999995,-1.118,0.08,2.2345362,160.37094419999997,-5.7868758000000025,89.22101975999998,-9.01835892,77.87645136
4.07,407,-0.071,-1.064,0.104,21.027558600000006,168.163173,9.3965112,89.14653522,-9.13295052,79.56667746000002
4.08,408,0.093,-1.098,0.191,30.194886600000004,176.52835980000003,13.6364004,89.14080564,-9.28764918,81.33711767999998
4.09,409,0.151,-1.269,0.215,28.7051958,178.18993799999996,4.9847345999999995,89.12934648,-9.34494498,83.12474663999998
4.1,410,0.065,-1.496,0.214,18.1054728,176.70024719999995,-9.797581800000001,89.00329572000004,-9.26473086,84.89518686
4.109999999999999,411,-0.034,-1.604,0.227,5.0993262,173.4916824,-18.048177,88.7511942,-9.10430262,86.63124959999998
4.12,412,-0.09,-1.587,0.251,4.010706000000001,170.3977092,-17.475219,88.50482226,-8.93241522,88.33293486
4.13,413,-0.097,-1.541,0.26,8.5370742,172.4030622,-13.9228794,88.30428696,-8.794905300000002,90.05180886000002
4.14,414,-0.076,-1.492,0.233,8.7089616,179.622333,-9.969469199999999,88.10375166,-8.68604328,91.84516740000001
4.1499999999999995,415,-0.059,-1.449,0.233,6.990087599999999,186.784308,-5.9014674000000005,87.86883888,-8.61155874,93.71301048
4.16,416,-0.05,-1.415,0.229,6.6463128000000005,192.3420006,-1.2605076000000002,87.62246694,-8.57718126,95.63814936
4.17,417,-0.03,-1.364,0.201,7.0473834,195.4359738,3.8388186,87.37609499999998,-8.58291084,97.59193614
4.18,418,0.0,-1.305,0.14800000000000002,7.6203414,195.8370444,8.9381448,87.13545264000004,-8.62874748,99.55718208
4.1899999999999995,419,0.069,-1.22,0.102,7.2192707999999985,193.3160292,13.2353298,86.89481028,-8.70323202,101.49378012
4.2,420,0.134,-1.146,0.084,7.7349330000000025,188.9042526,16.329303,86.6598975,-8.81209404,103.39027110000002
4.21,421,0.16899999999999998,-1.081,0.07,9.740286,183.1746726,17.18874,86.44790304,-8.92095606,105.23519586
4.22,422,0.16699999999999998,-1.047,0.065,10.7143146,176.757543,16.7303736,86.2588269,-9.0240885,107.01709524
4.2299999999999995,423,0.121,-1.007,0.063,10.4278356,170.2258218,16.329303,86.06975076,-9.12149136,108.73023966
4.24,424,0.067,-0.971,0.055,10.8289062,165.06919979999995,16.329303,85.90359294,-9.1959759,110.39181786
4.25,425,0.023,-0.933,0.033,13.2926256,162.31900140000005,17.18874,85.75462386000002,-9.29337876,112.03047774
4.26,426,0.0,-0.882,0.018000000000000002,17.761698000000006,160.65742319999995,17.5325148,85.64576184,-9.39078162,113.65194888
4.27,427,-0.002,-0.831,0.042,22.5745452,159.74069039999995,16.902261,85.59419562000002,-9.47672532,115.26769044
4.28,428,-0.01,-0.7829999999999999,0.07400000000000001,28.991674800000002,155.21432219999997,15.2406828,85.60565478000002,-9.55120986,116.83759536
4.29,429,-0.018000000000000002,-0.737,0.121,34.091001,149.0836716,13.349921400000001,85.69732806,-9.60277608,118.33874532
4.3,430,-0.021,-0.7020000000000001,0.14,36.955791,143.2395,11.172681,85.81191966,-9.64288314,119.78832906
4.31,431,-0.009000000000000001,-0.6890000000000001,0.139,36.4974246,138.8850192,7.8495246,85.92651126,-9.66007188,121.18634658
4.32,432,0.01,-0.698,0.12,34.1482968,135.16079219999997,2.86479,86.02964370000002,-9.6256944,122.54998662
4.33,433,0.042,-0.711,0.084,30.65325300000001,131.1500862,-3.151269,86.10412824,-9.5397507,123.86206043999998
4.34,434,0.051,-0.7090000000000001,0.059,28.361421000000004,127.769634,-9.9121734,86.17288319999999,-9.37359288,125.13975678
4.35,435,0.051,-0.693,0.033,28.991674800000002,125.53509779999999,-15.469866,86.24736774,-9.17305758,126.38880522
4.36,436,0.046,-0.664,0.024,29.9657034,121.5243918,-21.5432208,86.34477059999998,-8.909496899999997,127.59201702
4.37,437,0.028,-0.614,0.013,30.0229992,119.2325598,-25.8977016,86.45363262000002,-8.61155874,128.7723105
4.38,438,0.009000000000000001,-0.5660000000000001,0.0,30.5386614,121.00872959999998,-29.220858000000003,86.5739538,-8.2792431,129.96979272000002
4.39,439,0.0,-0.526,-0.041,31.111619399999995,130.5198324,-31.4553942,86.68281582,-7.9182795599999976,131.25894822
4.3999999999999995,440,0.015,-0.503,-0.1,29.5646328,147.3075018,-32.085648000000006,86.76875952,-7.551586439999999,132.71426154
4.41,441,0.011,-0.477,-0.138,24.350715,160.02716940000005,-30.252182399999995,86.79167784,-7.20781164,134.29562562
4.42,442,-0.027000000000000003,-0.481,-0.135,20.1108258,166.444299,-25.55392680000001,86.76875952,-6.9041438999999984,135.94001508
4.43,443,-0.08,-0.546,-0.15,15.756345000000001,170.85607560000003,-19.938938399999998,86.70573413999998,-6.65777196,137.63024118
4.4399999999999995,444,-0.109,-0.65,-0.165,3.8388186,167.07455280000005,-8.250595200000001,86.52238758000001,-6.525991620000001,139.29181938
4.45,445,-0.075,-0.841,-0.157,-8.307891,148.5680094,4.8128472,86.24736774,-6.52026204,140.77005102
4.46,446,0.008,-1.099,-0.067,-20.626488,123.0140826,16.902261,85.88067462000002,-6.640583220000001,142.00191072
4.47,447,0.157,-1.341,0.08199999999999999,-30.7678446,102.1011156,26.1841806,85.43376737999998,-6.85257768,143.03323512
4.4799999999999995,448,0.261,-1.43,0.201,-30.252182399999995,88.23553199999998,28.1322378,85.00977845999998,-7.0874904600000015,143.93277917999995
4.49,449,0.265,-1.344,0.2,-20.340009,84.1675302,22.2307704,84.70038114,-7.23645954,144.7864866
4.5,450,0.201,-1.305,0.091,-9.3965112,83.4226848,14.610429000000002,84.4826571,-7.32240324,145.62873486
4.51,451,0.111,-1.413,0.018000000000000002,-4.297185,81.360036,10.255948199999999,84.32795844,-7.36823988,146.44233522
4.52,452,0.043,-1.537,0.046,-2.7501984,80.09952840000003,9.740286,84.18471894,-7.408346939999999,147.250206
4.53,453,0.021,-1.582,0.122,4.010706000000001,83.8810512,7.8495246,84.10450482,-7.42553568,148.09245426
4.54,454,0.024,-1.561,0.17,12.7769634,91.55868840000001,4.8701430000000006,84.11023440000002,-7.39688778,149.00918706
4.55,455,0.006,-1.591,0.208,13.521808800000002,98.9498466,3.8388186,84.11023440000002,-7.3625102999999985,150.0004044
4.56,456,0.003,-1.653,0.243,6.703608600000001,104.0491728,5.958763200000001,84.03002028,-7.34532156,151.03745838
4.57,457,0.024,-1.707,0.253,0.6302538000000001,106.283709,8.9954406,83.88678078000002,-7.35105114,152.10316026
4.58,458,0.046,-1.714,0.254,-1.6042823999999998,105.9399342,9.568398599999998,83.72062296,-7.3625102999999985,153.16886214000004
4.59,459,0.07200000000000001,-1.648,0.26,-1.4896908000000002,104.7367224,7.0473834,83.5659243,-7.33959198,154.2116457
4.6,460,0.073,-1.5659999999999998,0.255,0.9740286,100.26765,2.8074942000000003,83.43987354000002,-7.282296179999999,155.21432219999997
4.61,461,0.054000000000000006,-1.501,0.255,2.0053530000000004,96.9444936,0.5156622000000001,83.32528194,-7.20208206,156.17689163999995
4.62,462,0.032,-1.44,0.247,1.6042823999999998,95.2256196,0.11459160000000004,83.21069034,-7.116138359999999,157.12227234
4.63,463,0.025,-1.372,0.237,0.8021411999999999,95.5693944,1.3750992,83.09036916,-7.0473833999999975,158.07338262
4.64,464,0.027000000000000003,-1.2990000000000002,0.221,1.145916,97.0017894,3.380452200000001,82.99296629999998,-6.972898860000001,159.03595206
4.6499999999999995,465,0.057,-1.227,0.18600000000000005,3.0366774,99.121734,5.042030400000002,82.88983386,-6.9327918,160.02143982
4.66,466,0.116,-1.154,0.134,5.443101,101.986524,5.5576926,82.80961973999997,-6.886955159999999,161.04130505999996
4.67,467,0.198,-1.055,0.086,7.8495246,102.3875946,4.583664,82.75805352,-6.83538894,162.06117030000001
4.68,468,0.29100000000000004,-0.946,0.045,13.980175199999998,96.7726062,2.0053530000000004,82.76951268,-6.760904399999999,163.02373974
4.6899999999999995,469,0.361,-0.8540000000000001,0.009000000000000001,19.7097552,89.954406,-0.4583664000000001,82.86691554,-6.60047616,163.92328379999995
4.7,470,0.41,-0.7759999999999999,-0.021,23.777757,81.4173318,-2.5210152000000003,83.00442546000002,-6.497343719999999,164.73115458
4.71,471,0.417,-0.713,-0.03,25.4393352,72.13541219999998,-3.380452200000001,83.17058328,-6.39421128,165.44162250000005
4.72,472,0.3720000000000001,-0.665,-0.017,26.5279554,61.592985,-1.9480572,83.36538900000002,-6.31399716,166.05468756
4.7299999999999995,473,0.297,-0.626,0.016,27.788463,48.8733174,1.8907613999999997,83.58884262000002,-6.29107884,166.54170186
4.74,474,0.209,-0.591,0.077,29.8511118,36.1536498,7.2765666,83.86959204,-6.29680842,166.91412456
4.75,475,0.124,-0.551,0.152,32.544014399999995,26.298772200000002,12.6623718,84.16180062,-6.39994086,167.1891444
4.76,476,0.084,-0.518,0.158,36.4401288,16.558486199999994,16.157415599999997,84.51130500000002,-6.543180359999999,167.37249096
4.77,477,0.093,-0.501,0.112,37.8725238,11.5737516,16.8449652,84.87799812,-6.7036086,167.51000088
4.78,478,0.123,-0.491,0.068,37.0130868,8.250595200000001,17.0168526,85.24469124,-6.86403684,167.60740374
4.79,479,0.158,-0.479,0.023,34.66395900000001,4.5263682,16.902261,85.58846604,-6.990087599999999,167.67042912
4.8,480,0.184,-0.455,-0.027000000000000003,32.257535399999995,-1.145916,15.527161800000002,85.9150521,-7.144786260000001,167.67615869999997
4.81,481,0.155,-0.451,-0.067,25.4393352,-7.7349330000000025,11.5737516,86.18434235999996,-7.259377859999999,167.60740374
4.82,482,0.116,-0.503,-0.118,9.740286,-2.5210152000000003,5.6722842,86.28747480000001,-7.3166736599999975,167.590215
4.83,483,0.054000000000000006,-0.5770000000000001,-0.289,-10.026765,7.5630456000000015,-0.6875496,86.17861278000002,-7.305214500000001,167.66469954000004
4.84,484,-0.075,-0.688,-0.474,-29.67922440000001,16.1001198,-9.568398599999998,85.7431647,-7.213541219999999,167.82512778
4.85,485,-0.226,-0.821,-0.5489999999999999,-32.7731976,21.6005166,-19.2513888,85.38220116,-7.018735500000001,168.02566308000004
4.86,486,-0.35100000000000003,-0.937,-0.479,-24.8663772,27.6738714,-29.4500412,85.09572216000002,-6.7093381800000005,168.27203502
4.87,487,-0.387,-0.989,-0.337,-17.761698000000006,36.4974246,-36.32553720000001,84.87226854000002,-6.3311859,168.60435066
4.88,488,-0.371,-0.995,-0.199,-17.3606274,41.0810886,-38.5600734,84.64881491999998,-5.92438572,168.97677336
4.89,489,-0.327,-0.979,-0.123,-18.907614000000002,44.1750618,-36.669312,84.40244298,-5.56342218,169.37784396
4.8999999999999995,490,-0.241,-0.969,-0.109,-19.480572,51.5089242,-30.9970278,84.15607104,-5.22537696,169.8533991
4.91,491,-0.14800000000000002,-1.03,-0.106,-15.9282324,59.4730404,-25.1528562,83.93261742,-4.93316838,170.41489794
4.92,492,-0.046,-1.23,-0.094,-11.8602306,68.98414319999999,-23.9496444,83.74927086,-4.6409598,171.07379964
4.93,493,0.047,-1.479,-0.07200000000000001,-11.172681,73.2240324,-25.4393352,83.57165388,-4.3315624800000005,171.76707882
4.9399999999999995,494,0.124,-1.651,-0.034,-5.72958,73.85428619999998,-24.5798982,83.45133270000002,-4.022165159999999,172.46608758
4.95,495,0.14800000000000002,-1.648,0.004,4.9274388,72.5364828,-21.1421502,83.44560312,-3.74714532,173.15936676
4.96,496,0.147,-1.528,0.026,12.3758928,70.8176088,-17.8762896,83.52008766,-3.5122325400000003,173.84118678
4.97,497,0.141,-1.4409999999999998,0.04,12.9488508,67.322565,-15.5844576,83.60603136,-3.30023808,174.4943589
4.9799999999999995,498,0.118,-1.431,0.066,10.5424272,62.6243094,-13.0061466,83.66905674,-3.11689152,175.09596480000005
4.99,499,0.08800000000000001,-1.472,0.1,7.0473834,58.2698286,-10.7716104,83.71489338,-2.9564632800000004,175.66319321999995
5.0,500,0.07200000000000001,-1.51,0.121,4.5263682,52.597544400000004,-8.7089616,83.72635254,-2.82468294,176.17312584
5.01,501,0.07,-1.514,0.127,2.6356068,48.8160216,-5.6722842,83.72635254,-2.72728008,176.64868098
5.02,502,0.08,-1.485,0.138,2.0626488000000003,46.29500640000001,-1.6042823999999998,83.72062296,-2.67571386,177.1013178
5.03,503,0.094,-1.4280000000000002,0.156,2.5210152000000003,45.3782736,2.8074942000000003,83.71489338,-2.6699842800000004,177.55395462
5.04,504,0.102,-1.368,0.155,2.1772404,44.919907200000004,7.6203414,83.73781170000002,-2.6929026,178.00659144000005
5.05,505,0.094,-1.3019999999999998,0.159,2.291832,45.1490904,11.745639,83.73208212,-2.77311672,178.46495783999995
5.06,506,0.078,-1.248,0.132,1.6042823999999998,45.8939358,15.0687954,83.72062296,-2.88197874,178.9347834
5.07,507,0.068,-1.178,0.07400000000000001,0.6302538000000001,43.3729206,18.048177,83.69770464000001,-3.02521824,179.38169064
5.08,508,0.051,-1.125,0.042,0.4583664000000001,38.61736920000001,20.454600600000006,83.67478632,-3.19710564,179.78276124
5.09,509,0.023,-1.064,0.006,0.6302538000000001,35.6379876,21.7151082,83.6805159,-3.36326346,-179.83432746
5.1,510,-0.017,-1.002,-0.006,2.0053530000000004,34.8931422,22.0015872,83.67478632,-3.5523396000000003,-179.46763434
5.11,511,-0.069,-0.935,-0.006,5.1566220000000005,34.2055926,21.9442914,83.69770464000001,-3.74141574,-179.10667080000005
5.12,512,-0.136,-0.8440000000000001,0.005,10.8289062,32.4294228,20.912967,83.78364833999998,-3.9190327200000006,-178.76289599999996
5.13,513,-0.193,-0.755,0.011,18.907614000000002,32.257535399999995,18.3919518,83.94407658,-4.07373138,-178.41912119999995
5.14,514,-0.231,-0.672,0.025,26.0122932,34.66395900000001,14.495837400000001,84.1961781,-4.21697088,-178.06388724
5.1499999999999995,515,-0.219,-0.606,0.079,31.4553942,39.9924684,8.307891,84.47692752,-4.2685371,-177.65708706
5.16,516,-0.201,-0.545,0.112,36.7839036,49.4462754,0.9167328,84.80924316,-4.2398892,-177.16434318
5.17,517,-0.16,-0.506,0.165,40.33624320000001,54.6601932,-4.9847345999999995,85.17020670000002,-4.1539455,-176.62003308
5.18,518,-0.096,-0.493,0.17,40.8519054,52.998615,-9.797581800000001,85.54262940000002,-4.02789474,-176.09864130000003
5.1899999999999995,519,-0.037000000000000005,-0.49,0.151,40.2789474,47.4982182,-12.891555,85.93224083999998,-3.873196080000002,-175.63454532
5.2,520,0.025,-0.508,0.128,38.7892566,42.62807520000001,-14.7823164,86.29320437999998,-3.70703826,-175.21628598
5.21,521,0.097,-0.529,0.09,35.4088044,40.10706,-16.7303736,86.61979044,-3.5236917,-174.82667454
5.22,522,0.179,-0.5479999999999999,0.005,30.3094782,40.393539,-18.9649098,86.90053986000002,-3.31742682,-174.43133352
5.2299999999999995,523,0.25,-0.5920000000000001,-0.098,23.6631654,41.4821592,-20.05353,87.11253432000002,-3.1054323600000004,-174.03026291999996
5.24,524,0.271,-0.649,-0.197,14.896907999999998,40.5654264,-19.0222056,87.19274844,-2.84760126,-173.62919232
5.25,525,0.28,-0.703,-0.262,7.906820400000001,37.0703826,-16.1001198,87.25577381999999,-2.68144344,-173.26822878000004
5.26,526,0.315,-0.733,-0.292,-0.2291832000000001,39.1330314,-12.891555,87.22712592,-2.54393352,-172.89007650000005
5.27,527,0.358,-0.7290000000000001,-0.348,-6.875496000000001,47.0398518,-9.3392154,87.12972306,-2.44080108,-172.42598052
5.28,528,0.33,-0.7190000000000001,-0.35200000000000004,-7.9641161999999985,55.4623344,-4.583664,87.02086104,-2.38350528,-171.88167042
5.29,529,0.175,-0.753,-0.364,-8.7089616,58.0979412,2.3491278,86.83178489999996,-2.37204612,-171.30298284
5.3,530,-0.063,-0.8440000000000001,-0.32299999999999995,-17.303331600000003,51.7954032,10.5424272,86.62552002,-2.4637194,-170.78732064000005
5.31,531,-0.295,-0.931,-0.217,-29.621928600000004,43.7166954,18.3919518,86.30466354,-2.6356068,-170.34614298000002
5.32,532,-0.401,-1.015,-0.097,-34.262888399999994,37.9871154,21.829699800000004,85.93224083999998,-2.8361421,-169.96226112000005
5.33,533,-0.423,-1.126,-0.009000000000000001,-31.79916900000001,29.67922440000001,21.1421502,85.58846604,-3.0366774000000003,-169.65859338
5.34,534,-0.374,-1.264,-0.02,-25.2674478,20.626488,20.511896399999998,85.31917578,-3.25440144,-169.44086934
5.35,535,-0.274,-1.481,-0.095,-23.7204612,10.313244,22.2880662,85.07280384,-3.47212548,-169.32054816
5.36,536,-0.14300000000000002,-1.702,-0.103,-23.6058696,2.6356068,26.7571386,84.83216148,-3.73568616,-169.27471152
5.37,537,0.021,-1.771,-0.033,-13.6364004,4.6982556,30.252182399999995,84.68319240000002,-4.03362432,-169.20595656
5.38,538,0.18600000000000005,-1.639,0.023,2.1772404,16.157415599999997,27.501984000000004,84.69465156,-4.297185000000002,-169.01688041999995
5.39,539,0.255,-1.384,0.014,15.5844576,30.252182399999995,19.2513888,84.83216148,-4.43469492,-168.69602394
5.3999999999999995,540,0.202,-1.3030000000000002,0.02,16.329303,38.38818600000001,11.917526400000002,84.96394182,-4.53209778,-168.30641250000005
5.41,541,0.105,-1.35,0.061,9.3965112,39.1330314,6.6463128000000005,85.02123762,-4.57220484,-167.91107148
5.42,542,-0.012,-1.4480000000000002,0.12,7.333862400000001,38.61736920000001,1.8334656000000005,85.06134468,-4.56647526,-167.52718962
5.43,543,-0.111,-1.525,0.187,10.1413566,40.4508348,-3.4377480000000005,85.12437006,-4.50917946,-167.12611902
5.4399999999999995,544,-0.17600000000000002,-1.5419999999999998,0.244,12.4904844,44.117766,-9.5111028,85.2275025,-4.38885828,-166.69640052
5.45,545,-0.213,-1.49,0.262,13.464512999999998,48.0711762,-14.7823164,85.32490535999997,-4.21697088,-166.23230454000003
5.46,546,-0.231,-1.404,0.263,14.7250206,50.8786704,-17.589810600000003,85.4280378,-4.01643558,-165.73956066
5.47,547,-0.219,-1.2919999999999998,0.25,17.0741484,53.858052,-17.5325148,85.55981814,-3.810170700000002,-165.21816887999995
5.4799999999999995,548,-0.175,-1.223,0.233,22.058883,58.0406454,-14.9542038,85.73743512,-3.63255372,-164.65094046
5.49,549,-0.13,-1.161,0.219,26.642547,62.2805346,-12.0894138,85.99526621999998,-3.48931422,-164.04360498
5.5,550,-0.048,-1.098,0.17,30.8824362,65.7755784,-9.6256944,86.2588269,-3.36326346,-163.39616244
5.51,551,0.05,-1.019,0.131,33.8618178,69.8435802,-8.307891,86.55676506,-3.25440144,-162.70288326
5.52,552,0.14300000000000002,-0.936,0.099,39.4195104,71.9635248,-6.760904399999999,86.90626943999996,-3.1627281600000003,-161.99241534
5.53,553,0.237,-0.8640000000000001,0.061,46.753372799999994,74.2553568,-3.724227,87.33025836,-3.1054323600000004,-161.25329951999996
5.54,554,0.29,-0.7909999999999999,0.06,52.7694318,74.02617359999998,-0.3437748,87.82300224,-3.04240698,-160.51418370000005
5.55,555,0.339,-0.6970000000000001,0.09,53.68616460000001,68.6976642,2.4064236,88.32720528,-3.05959572,-159.8266341
5.56,556,0.359,-0.596,0.1,46.409598,53.68616460000001,3.7815227999999994,88.76265336,-3.0939732,-159.28805358
5.57,557,0.359,-0.514,0.102,40.164355799999996,36.6120162,5.443101,89.14080564,-3.151269,-158.92136046
5.58,558,0.33,-0.459,0.081,36.955791,20.9702628,8.193299399999999,89.50176918,-3.2314831199999987,-158.709366
5.59,559,0.28600000000000003,-0.433,0.06,35.17962120000001,10.5424272,10.7716104,89.85700313999996,-3.2945085,-158.5947744
5.6,560,0.243,-0.423,0.015,32.31483119999999,7.2765666,11.9748222,90.1835892,-3.4091001000000003,-158.52028986
5.61,561,0.213,-0.416,-0.08900000000000001,30.7678446,5.0993262,11.917526400000002,90.49298652,-3.52942128,-158.46872364
5.62,562,0.179,-0.396,-0.187,30.8251404,-4.6982556,11.3445684,90.80811342,-3.6382833,-158.50883069999998
5.63,563,0.107,-0.334,-0.202,31.22621100000001,-22.631841,10.5424272,91.14042906,-3.7299565800000014,-158.73228432000005
5.64,564,0.009000000000000001,-0.273,-0.22,28.1895336,-48.3576552,8.4224826,91.43263764,-3.78725238,-159.21356903999995
5.6499999999999995,565,-0.041,-0.278,-0.241,17.18874,-59.7595194,3.2658606,91.65609126,-3.78725238,-159.80371578
5.66,566,-0.029,-0.371,-0.398,-1.7761698,-55.290447,-5.6149884000000005,91.67900958,-3.70130868,-160.34802588
5.67,567,-0.014,-0.539,-0.5760000000000001,-19.0222056,-46.00852740000001,-18.9649098,91.52431092,-3.48931422,-160.80066269999998
5.68,568,-0.056,-0.826,-0.583,-22.5745452,-28.991674800000002,-38.5600734,91.31231646,-3.0939732,-161.07568254
5.6899999999999995,569,-0.218,-1.314,-0.468,-24.2934192,-5.844171599999999,-60.0459984,91.05448536,-2.50382646,-161.12151918
5.7,570,-0.42,-1.654,-0.211,-26.5852512,-3.724227,-71.39056679999999,90.77946552,-1.7933585399999998,-161.15016708000005
5.71,571,-0.412,-1.523,-0.015,-25.9549974,-11.0580894,-63.311859,90.52163442,-1.16310474,-161.25329951999996
5.72,572,-0.163,-1.238,-0.058,-17.18874,-8.250595200000001,-46.6387812,90.34974702,-0.69900876,-161.33351364
5.7299999999999995,573,0.066,-0.989,-0.069,2.1772404,3.2658606,-24.8663772,90.36693576,-0.4526368200000001,-161.29913616000005
5.74,574,0.236,-1.056,0.009000000000000001,11.6310474,18.6784308,-10.3705398,90.48152736,-0.29220857999999994,-161.11006002
5.75,575,0.317,-1.3530000000000002,0.029,12.6623718,29.9657034,-8.9954406,90.60184854,-0.21199446,-160.80639228
5.76,576,0.26,-1.602,0.17800000000000002,11.6310474,32.372127,-15.126091199999998,90.71644014,-0.07448454,-160.4855358
5.77,577,0.086,-1.654,0.32,12.5477802,31.2835068,-19.8816426,90.83676132,0.10886202,-160.17040889999996
5.78,578,-0.033,-1.578,0.337,14.8396122,22.2307704,-19.308684600000007,90.9857304,0.29220857999999994,-159.94695528
5.79,579,-0.064,-1.528,0.3,15.2979786,9.3965112,-16.673077799999998,91.15188822,0.44690724,-159.84955242
5.8,580,-0.06,-1.556,0.277,6.3598338,-3.0366774,-12.4904844,91.2149136,0.5729580000000001,-159.87247073999995
5.81,581,-0.043,-1.622,0.278,-3.7815227999999994,-10.4278356,-7.3911582,91.18053612,0.65317212,-159.97560317999995
5.82,582,-0.01,-1.6669999999999998,0.29600000000000004,-7.5630456000000015,-14.7823164,-1.0313244,91.100322,0.6703608600000001,-160.12457225999995
5.83,583,0.001,-1.643,0.307,-6.6463128000000005,-15.6990492,5.2139178,91.03729662,0.62452422,-160.27927092
5.84,584,-0.002,-1.56,0.293,-4.8701430000000006,-15.2406828,10.1413566,90.99718956,0.53285094,-160.43396958
5.85,585,0.0,-1.466,0.289,-3.0366774,-14.610429000000002,13.6364004,90.96854166,0.4010706000000001,-160.58293866000002
5.86,586,0.016,-1.375,0.278,-2.1772404,-12.7196676,16.673077799999998,90.94562334,0.24064236,-160.70898942
5.87,587,0.046,-1.294,0.233,-3.380452200000001,-10.9434978,20.2254174,90.91124586,0.04583664,-160.82358101999995
5.88,588,0.048,-1.223,0.204,-4.8128472,-11.45916,22.91832,90.86540922,-0.1718874,-160.93817262
5.89,589,0.025,-1.165,0.163,-4.9274388,-11.8602306,23.7204612,90.84822048,-0.39534102,-161.0584938
5.8999999999999995,590,-0.03,-1.104,0.106,-3.380452200000001,-13.464512999999998,23.3193906,90.813843,-0.62452422,-161.2017333
5.91,591,-0.103,-1.034,0.052000000000000005,0.2291832000000001,-14.7250206,21.6578124,90.81957258,-0.8307891,-161.35070238
5.92,592,-0.195,-0.942,0.025,4.7555514,-15.6417534,19.0795014,90.87686838,-1.01413566,-161.50540103999995
5.93,593,-0.292,-0.846,0.023,12.3758928,-14.037471,16.2147114,91.00291914,-1.1688343199999998,-161.64864054
5.9399999999999995,594,-0.375,-0.7390000000000001,0.028,20.9702628,-7.9641161999999985,13.178034,91.22064318,-1.40947668,-161.73458424
5.95,595,-0.422,-0.638,0.016,27.788463,2.6929026,10.1413566,91.5013926,-1.51260912,-161.70593634
5.96,596,-0.411,-0.5429999999999999,0.03,32.8877892,19.0795014,5.72958,91.82797866,-1.5756344999999998,-161.51113062
5.97,597,-0.36,-0.465,0.097,36.1536498,31.4553942,1.3178034,92.18321262,-1.61001198,-161.2017333
5.9799999999999995,598,-0.251,-0.4320000000000001,0.179,39.534102,39.7059894,-3.4950437999999995,92.56709448,-1.59855282,-160.80066269999998
5.99,599,-0.133,-0.425,0.211,40.164355799999996,42.112413,-7.5057497999999985,92.97962424,-1.55844576,-160.37667377999998
6.0,600,-0.015,-0.4370000000000001,0.162,37.5860448,41.7113424,-10.255948199999999,93.34058778,-1.4896908000000002,-159.95268486
6.01,601,0.078,-0.434,0.083,34.37748,41.4248634,-12.2040054,93.67290342,-1.4037471,-159.53442552
6.02,602,0.158,-0.43,0.013,30.8824362,40.7946096,-14.5531332,93.97657116,-1.29488508,-159.12189575999997
6.03,603,0.199,-0.405,-0.021,28.361421000000004,38.5600734,-17.131444199999994,94.24586142,-1.1573751600000002,-158.72082516
6.04,604,0.187,-0.35700000000000004,-0.045,23.14750320000001,38.1590028,-18.9649098,94.45785588,-0.98548776,-158.33121372
6.05,605,0.154,-0.293,-0.067,14.32395,43.7166954,-17.7044022,94.58963622,-0.8537074199999999,-157.88430648000005
6.06,606,0.131,-0.247,-0.139,1.3178034,55.40503860000001,-14.0947668,94.58963622,-0.7734933,-157.32853722
6.07,607,0.125,-0.265,-0.245,-16.329303,69.900876,-10.3705398,94.40056008,-0.7448454000000001,-156.63525804
6.08,608,0.14,-0.397,-0.45,-39.3049188,87.20420759999998,-7.0473834,93.98230074,-0.76203414,-155.77582103999995
6.09,609,0.115,-0.627,-0.71,-61.4210976,82.67783940000002,1.5469866,93.26037366,-0.8479778399999999,-154.96795026
6.1,610,0.08,-1.096,-0.8190000000000001,-74.0834694,46.2377106,18.7930224,92.49260994,-1.07716104,-154.53250218
6.11,611,0.187,-1.788,-0.61,-90.1835892,-8.4224826,43.7166954,91.58160672,-1.51260912,-154.6413642
6.12,612,0.279,-1.872,0.108,-64.5723666,-26.356068,50.993262,90.93989376,-2.01108258,-154.92211362
6.13,613,0.327,-1.464,0.132,-39.9351726,-23.835052800000003,41.19568020000001,90.55028232,-2.41788276,-155.17421514
6.14,614,0.073,-1.0659999999999998,0.061,-25.1528562,-33.0596766,32.658606,90.32109912,-2.72728008,-155.50653078
6.15,615,-0.185,-0.8109999999999999,0.108,-5.0993262,-36.5547204,16.673077799999998,90.29245122,-2.88197874,-155.86749432000005
6.16,616,-0.42,-0.807,0.094,20.2254174,-39.9924684,-1.2032118,90.52163442,-2.85333084,-156.26283533999995
6.17,617,-0.522,-1.211,0.096,32.658606,-38.3308902,-9.0527364,90.87686838,-2.7501984,-156.63525804
6.18,618,-0.4320000000000001,-1.67,0.237,22.5172494,-31.8564648,-3.3231564,91.1289699,-2.69863218,-156.95038494
6.1899999999999995,619,-0.149,-1.843,0.406,22.7464326,-13.0634424,6.417129599999999,91.36961226,-2.7501984,-157.0764357
6.2,620,0.044,-1.759,0.405,29.335449600000004,13.0061466,8.021412000000002,91.66182084,-2.8361421,-156.94465536
6.21,621,0.075,-1.656,0.364,17.475219,25.78311,7.5057497999999985,91.82224908,-2.92781538,-156.69255384000004
6.22,622,0.041,-1.5719999999999998,0.392,5.3285094000000015,30.194886600000004,7.1046792000000005,91.85662656,-3.0137590800000003,-156.39461568
6.2299999999999995,623,-0.01,-1.516,0.391,2.5210152000000003,30.7678446,4.297185,91.86235614,-3.07678446,-156.09094794
6.24,624,-0.041,-1.474,0.362,2.4637194,29.335449600000004,-0.7448454000000001,91.88527446,-3.0825140400000004,-155.79873935999996
6.25,625,-0.058,-1.4240000000000002,0.341,1.4896908000000002,26.7571386,-6.8182002000000015,91.88527446,-3.03094782,-155.53517868
6.26,626,-0.091,-1.379,0.335,3.2658606,24.4080108,-11.8602306,91.9024632,-2.92781538,-155.28880674
6.27,627,-0.125,-1.334,0.335,6.016058999999999,24.8090814,-14.8396122,91.94829984,-2.79603504,-155.03670522
6.28,628,-0.146,-1.273,0.343,8.3651868,28.2468294,-14.495837400000001,92.0170548,-2.6642547000000003,-154.75022622
6.29,629,-0.149,-1.198,0.337,7.6203414,33.5753388,-12.7769634,92.11445766,-2.57258142,-154.41218099999998
6.3,630,-0.115,-1.118,0.305,5.7868758000000025,38.61736920000001,-10.886202,92.15456472,-2.4923673,-154.02829914
6.31,631,-0.063,-1.047,0.253,4.6982556,41.9978214,-9.969469199999999,92.17748304,-2.41788276,-153.61003979999995
6.32,632,0.022,-0.978,0.202,7.6203414,45.4355694,-8.9381448,92.22904926,-2.36058696,-153.15167340000005
6.33,633,0.135,-0.913,0.135,12.2040054,46.1804148,-7.2765666,92.32645212,-2.3147503200000004,-152.69330699999998
6.34,634,0.258,-0.8340000000000001,0.062,16.902261,44.1750618,-4.9847345999999995,92.4754212,-2.21161788,-152.24639975999997
6.35,635,0.362,-0.7390000000000001,0.031,22.631841,37.52874900000001,-1.7761698,92.68168608,-2.21734746,-151.87397706000004
6.36,636,0.409,-0.6409999999999999,0.018000000000000002,26.298772200000002,26.298772200000002,1.7761698,92.93951718,-2.25745452,-151.61614595999995
6.37,637,0.397,-0.5429999999999999,0.032,28.2468294,14.2093584,5.9014674000000005,93.21453702,-2.32620948,-151.47290646000005
6.38,638,0.333,-0.445,0.08,28.6479,1.145916,9.6256944,93.5067456,-2.41788276,-151.46144729999997
6.39,639,0.25,-0.391,0.123,26.929026,-10.026765,11.745639,93.79895417999998,-2.48663772,-151.56457974
6.4,640,0.183,-0.39,0.13699999999999998,24.2934192,-15.3552744,12.5477802,94.05678528,-2.59549974,-151.72500798000004
6.41,641,0.173,-0.414,0.129,22.058883,-14.0947668,12.2040054,94.29169806,-2.69863218,-151.86824747999995
6.42,642,0.17600000000000002,-0.473,0.117,23.5485738,-13.464512999999998,10.313244,94.53807,-2.78457588,-152.00575740000005
6.43,643,0.173,-0.5660000000000001,0.081,28.074942,-17.9908812,6.990087599999999,94.83600816,-2.8361421,-152.18337438
6.4399999999999995,644,0.154,-0.628,0.015,30.8251404,-26.0122932,5.2139178,95.14540548,-2.81895336,-152.44120548
6.45,645,0.134,-0.624,-0.047,30.4240698,-32.486718599999996,4.9274388,95.47772112,-2.83041252,-152.76206195999995
6.46,646,0.095,-0.556,-0.106,29.4500412,-36.4401288,5.3285094000000015,95.7985776,-2.8361421,-153.12302549999995
6.47,647,0.012,-0.478,-0.225,23.9496444,-45.263682,4.8701430000000006,96.06786786,-2.82468294,-153.56993274
6.4799999999999995,648,-0.103,-0.435,-0.377,10.1413566,-59.4730404,0.9167328,96.21110736,-2.7501984,-154.1543499
6.49,649,-0.225,-0.471,-0.556,-8.3651868,-77.34933000000002,-8.136003599999999,96.07359744,-2.6069589,-154.90492488
6.5,650,-0.305,-0.6829999999999999,-0.565,-23.14750320000001,-85.8864042,-25.2674478,95.8845213,-2.24599536,-155.72425482
6.51,651,-0.384,-1.18,-0.506,-34.8358464,-47.3836266,-65.3745078,95.54647608,-1.5412570200000002,-156.12532542
6.52,652,-0.433,-1.768,-0.502,-58.44171600000001,24.1788276,-110.7527814,94.94487018,-0.48128472,-155.79300977999995
6.53,653,-0.486,-1.6869999999999998,-0.211,-46.1804148,34.262888399999994,-112.299768,94.46931504,0.5844171599999999,-155.36902086
6.54,654,-0.272,-1.446,-0.001,-33.403451399999994,22.8037284,-87.1469118,94.12554024,1.40947668,-155.07681227999996
6.55,655,0.005,-1.123,0.081,-17.6471064,14.9542038,-51.9672906,93.94792326,1.90795014,-154.89346572
6.56,656,0.239,-0.8590000000000001,0.078,5.72958,20.7410796,-17.0168526,94.01094864,2.0626488000000003,-154.68147126
6.57,657,0.348,-0.825,0.125,18.449247600000003,35.6379876,11.2872726,94.20575436,1.91367972,-154.33196688
6.58,658,0.325,-1.105,0.093,17.246035799999998,49.5035712,24.2361234,94.38910092,1.6272007199999998,-153.86214132
6.59,659,0.173,-1.531,0.123,10.255948199999999,52.82672760000001,15.0114996,94.50369252,1.4209358399999998,-153.35220869999995
6.6,660,-0.078,-1.754,0.29,14.32395,43.77399120000001,-3.5523396000000003,94.6526616,1.41520626,-152.91676062
6.61,661,-0.331,-1.702,0.388,15.813640800000002,26.5852512,-16.4438946,94.81308984,1.5469866,-152.64174078
6.62,662,-0.407,-1.632,0.342,9.2819196,10.7716104,-23.2620948,94.9104927,1.77044022,-152.51569002
6.63,663,-0.28800000000000003,-1.569,0.26,1.8907613999999997,5.443101,-25.0382646,94.93341102,2.01108258,-152.44120548
6.64,664,-0.096,-1.5530000000000002,0.265,3.380452200000001,9.167328,-20.05353,94.97351808,2.19442914,-152.33234346
6.65,665,0.056,-1.568,0.322,6.589017,16.329303,-11.745639,95.04800262,2.2918320000000003,-152.15472648
6.66,666,0.15,-1.547,0.348,7.0473834,21.0848544,-4.1825934,95.12248716,2.30902074,-151.94273202
6.67,667,0.158,-1.483,0.355,5.2139178,21.829699800000004,2.3491278,95.18551254,2.2631841,-151.73073756
6.68,668,0.174,-1.408,0.339,0.3437748,19.480572,5.2712136,95.19124212,2.18869956,-151.547391
6.6899999999999995,669,0.18,-1.346,0.325,-4.1252976000000015,14.266654199999998,7.161975,95.17405338,2.11421502,-151.40988108
6.7,670,0.181,-1.289,0.307,-11.688343199999998,7.7922288,9.3392154,95.0537322,2.01108258,-151.34112612
6.71,671,0.146,-1.238,0.276,-21.199446,0.9167328,11.5737516,94.84173774,1.89649098,-151.3468557
6.72,672,0.093,-1.19,0.24,-29.67922440000001,-5.844171599999999,12.7196676,94.53807,1.7761698,-151.41561066
6.7299999999999995,673,0.017,-1.132,0.188,-35.3515086,-12.834259199999998,13.0634424,94.17710646,1.6558486199999998,-151.55885016000005
6.74,674,-0.071,-1.038,0.113,-35.9817624,-18.2200644,13.2926256,93.80468376,1.50687954,-151.75365588
6.75,675,-0.14400000000000002,-0.955,0.034,-32.085648000000006,-21.199446,13.178034,93.4780977,1.39228794,-151.97710949999995
6.76,676,-0.193,-0.8809999999999999,-0.026,-28.4760126,-20.3973048,11.688343199999998,93.18588912,1.2891555000000001,-152.18910396
6.77,677,-0.242,-0.802,-0.073,-24.064235999999998,-16.673077799999998,9.9121734,92.93951718,1.2032117999999998,-152.36099136
6.78,678,-0.269,-0.722,-0.09,-14.2093584,-9.740286,8.250595200000001,92.79627768,1.12872726,-152.46412379999995
6.79,679,-0.29100000000000004,-0.6409999999999999,-0.077,2.3491278,1.9480572,6.417129599999999,92.78481852,0.9740286,-152.45266464000005
6.8,680,-0.258,-0.581,-0.045,18.8503182,16.902261,5.443101,92.97962424,0.90527364,-152.28650682
6.81,681,-0.214,-0.564,0.014,27.1009134,28.934379,6.3025379999999975,93.25464408,0.8250595199999999,-152.00002782
6.82,682,-0.131,-0.565,0.112,23.6631654,33.9764094,6.990087599999999,93.49528644,0.72765666,-151.66771218
6.83,683,-0.073,-0.561,0.182,21.829699800000004,33.403451399999994,8.078707799999998,93.71874006,0.61879464,-151.34112612
6.84,684,-0.028,-0.561,0.205,25.6685184,30.252182399999995,9.6256944,93.99948948,0.49274388,-151.04318796
6.85,685,0.009000000000000001,-0.591,0.16899999999999998,30.080295,27.215505,10.026765,94.30315722,0.36669312,-150.77962728
6.86,686,0.033,-0.621,0.091,31.22621100000001,24.923673,7.8495246,94.61828412,0.26356068,-150.53898492000005
6.87,687,0.038,-0.609,0.033,28.5333084,22.173474600000002,5.3858052,94.90476312,0.18907614,-150.32126088
6.88,688,0.038,-0.574,-0.001,23.4339822,19.480572,3.4950437999999995,95.14540548,0.13750992,-150.13218474
6.89,689,0.034,-0.512,-0.025,19.308684600000007,18.8503182,2.5210152000000003,95.32302246,0.09167328,-149.94883818
6.9,690,0.016,-0.421,-0.064,15.985528200000001,22.459953600000002,2.2345362,95.47772112,0.04583664,-149.72538456
6.91,691,-0.008,-0.318,-0.073,11.0007936,30.7678446,2.0053530000000004,95.58658314,-0.00572958,-149.42744639999995
6.92,692,-0.028,-0.217,-0.055,4.8128472,49.04520479999999,0.6302538000000001,95.63241978,-0.07448454,-148.94616168
6.93,693,0.098,-0.203,-0.094,-8.136003599999999,86.2874748,-1.432395,95.53501692,-0.16615782,-148.09818384
6.9399999999999995,694,0.237,-0.305,-0.18600000000000005,-31.5699858,126.6810138,-1.3750992,95.16259422,-0.28074942,-146.85486498
6.95,695,0.28300000000000003,-0.573,-0.37,-59.0719698,144.78648660000005,6.6463128000000005,94.53807,-0.5099326200000001,-145.44538830000005
6.96,696,0.142,-1.177,-0.7759999999999999,-85.3134462,89.09496899999998,30.4813656,93.6499851,-0.90527364,-144.60314004
6.97,697,0.107,-2.155,-1.136,-150.5733624,-7.1046792000000005,67.322565,92.12591682,-1.5813640800000002,-144.72346122000005
6.9799999999999995,698,0.467,-2.1790000000000003,-0.201,-149.4274464,-8.7662574,88.06364459999998,90.61903728,-2.4637194,-144.84951198
6.99,699,0.364,-1.315,0.133,-56.0352924,-17.7044022,70.30194660000001,90.07472718,-3.1398098400000003,-145.03858812
7.0,700,-0.188,-0.8540000000000001,0.123,1.145916,-33.4607472,47.8992888,90.11483424,-3.60390582,-145.37090376
7.01,701,-0.56,-0.5710000000000001,0.14300000000000002,31.51269000000001,-31.4553942,17.18874,90.45860904,-3.76433406,-145.68030108
7.02,702,-0.748,-0.585,0.097,41.7113424,-19.194093,-13.750992000000002,90.89405712,-3.61536498,-145.86364764
7.03,703,-0.674,-1.029,0.021,39.247623,-10.3705398,-34.8358464,91.3008573,-3.26013102,-145.95532092000005
7.04,704,-0.378,-1.494,0.097,18.3919518,-4.6982556,-39.591397799999996,91.49566302,-2.87051958,-145.9896984
7.05,705,-0.014,-1.794,0.35,16.902261,19.0795014,-26.642547,91.65036168,-2.61268848,-145.7891631
7.06,706,0.265,-1.895,0.444,26.41336380000001,53.285094,-10.1986524,91.89100404,-2.54393352,-145.25631216
7.07,707,0.303,-1.767,0.307,12.4331886,74.88561059999998,2.7501984,91.97121816,-2.61268848,-144.51719634
7.08,708,0.185,-1.614,0.221,-2.3491278,83.7091638,11.2872726,91.89673362,-2.7788463,-143.69213682
7.09,709,0.063,-1.527,0.203,-8.59437,84.1675302,14.4385416,91.76495328,-2.96792244,-142.86707729999995
7.1,710,-0.02,-1.4509999999999998,0.199,-5.5576926,80.67248640000003,14.266654199999998,91.65609126,-3.15699858,-142.07639526
7.11,711,-0.053,-1.396,0.182,2.5210152000000003,74.1407652,11.8602306,91.62744336,-3.31742682,-141.34300902
7.12,712,-0.069,-1.3630000000000002,0.155,12.032117999999999,68.9268474,8.9381448,91.70192790000002,-3.44347758,-140.66691858
7.13,713,-0.08199999999999999,-1.34,0.158,16.157415599999997,66.11935319999999,6.703608600000001,91.8165195,-3.54661002,-140.01374646000002
7.14,714,-0.1,-1.298,0.185,15.9282324,64.0567044,4.4117766,91.94257026,-3.62682414,-139.37776308
7.15,715,-0.09,-1.237,0.185,15.183387000000002,61.7648724,2.3491278,92.05143228,-3.68984952,-138.76469802000003
7.16,716,-0.049,-1.175,0.179,16.386598799999998,59.8168152,0.1718874,92.17175346,-3.7299565800000014,-138.17455128
7.17,717,0.004,-1.133,0.183,19.194093,58.67089920000001,-1.8907613999999997,92.32072254,-3.74714532,-137.59013412
7.18,718,0.064,-1.082,0.187,21.9442914,58.2125328,-3.8388186,92.49833952,-3.74714532,-137.01144654
7.1899999999999995,719,0.092,-1.03,0.21,26.069589,58.8427866,-4.8701430000000006,92.73898188,-3.70703826,-136.4212998
7.2,720,0.125,-0.973,0.209,28.5906042,61.020027,-4.4690724,92.98535382,-3.70703826,-135.81396432000003
7.21,721,0.147,-0.901,0.203,31.627281600000003,63.08267579999999,-2.9220857999999996,93.25464408,-3.724227,-135.18371052
7.22,722,0.153,-0.8290000000000001,0.196,36.2682414,64.457775,-0.2291832000000001,93.57550056,-3.77579322,-134.54199756
7.2299999999999995,723,0.163,-0.789,0.196,39.820581,63.82752120000001,3.5523396000000003,93.92500494,-3.8674665,-133.91174375999998
7.24,724,0.16699999999999998,-0.757,0.192,36.5547204,62.051351399999994,6.417129599999999,94.26877974,-3.9534102,-133.2986787
7.25,725,0.159,-0.7140000000000001,0.191,30.4240698,60.38977320000001,7.7349330000000025,94.52661084,-4.09092012,-132.70853196000002
7.26,726,0.149,-0.672,0.196,24.637194,59.4157446,8.136003599999999,94.72714614,-4.23415962,-132.12411479999997
7.27,727,0.139,-0.634,0.196,20.626488,58.72819499999999,8.193299399999999,94.88757438,-4.37739912,-131.5511568
7.28,728,0.13699999999999998,-0.605,0.2,19.1367972,58.0979412,8.021412000000002,95.0250843,-4.5206386200000015,-130.98392838
7.29,729,0.149,-0.585,0.206,18.5638392,57.983349600000004,7.161975,95.18551254,-4.629500640000002,-130.41669996000002
7.3,730,0.16399999999999998,-0.591,0.199,17.0168526,58.0406454,5.3858052,95.30583372,-4.749821819999998,-129.84947154
7.31,731,0.179,-0.603,0.183,12.7196676,57.1239126,2.6929026,95.38031826,-4.8414950999999995,-129.28797269999998
7.32,732,0.168,-0.617,0.161,7.333862400000001,53.9153478,0.5156622000000001,95.40323658,-4.91025006,-128.75512176
7.33,733,0.132,-0.628,0.131,4.0680017999999984,49.9619376,-0.2291832000000001,95.39177742,-4.96754586,-128.26237787999997
7.34,734,0.084,-0.618,0.121,2.9220857999999996,47.269034999999995,0.6302538000000001,95.38604784,-5.00765292,-127.79255231999998
7.35,735,0.04,-0.604,0.13,4.8701430000000006,46.982556,2.8074942000000003,95.39177742,-5.0935966200000005,-127.33418592
7.36,736,0.006999999999999999,-0.595,0.095,7.448453999999999,47.269034999999995,5.7868758000000025,95.42042532,-5.20818822,-126.87008994
7.37,737,-0.017,-0.59,0.075,10.4278356,44.404245,7.9641161999999985,95.47772112,-5.339968560000001,-126.44037144
7.38,738,-0.039,-0.6729999999999999,-0.064,2.1199446,37.52874900000001,8.078707799999998,95.46053238,-5.466019319999999,-126.07940790000002
7.39,739,-0.067,-0.763,-0.23,-15.126091199999998,18.2200644,3.151269,95.12248716,-5.51758554,-125.90179092
7.4,740,-0.102,-0.939,-0.218,-30.194886600000004,0.572958,-10.255948199999999,94.81308984,-5.42018268,-125.89033176
7.41,741,-0.159,-1.255,-0.226,-51.5089242,12.4331886,-34.4347758,94.27450932,-5.0935966200000005,-125.74136268
7.42,742,-0.272,-1.6780000000000002,-0.522,-83.1362058,53.285094,-72.9948492,93.37496526,-4.42896534,-125.17413426
7.43,743,-0.49,-1.714,-0.632,-83.5945722,81.18814859999998,-105.25238459999998,92.45823246,-3.45493674,-124.32615642
7.4399999999999995,744,-0.536,-1.444,-0.443,-44.5761324,83.9956428,-100.4968332,91.9311111,-2.52674478,-123.46671942
7.45,745,-0.28300000000000003,-1.224,-0.246,-14.037471,84.797784,-75.05749800000002,91.74776454000002,-1.8334656000000005,-122.60155284
7.46,746,0.131,-1.011,-0.182,1.8334656000000005,89.6106312,-47.269034999999995,91.72484622,-1.41520626,-121.70200878
7.47,747,0.417,-1.036,-0.14300000000000002,13.8082878,93.7932246,-22.86102420000001,91.83370824,-1.24331886,-120.76808724
7.4799999999999995,748,0.557,-1.211,-0.063,12.3758928,100.554129,-10.8289062,91.92538152,-1.19175264,-119.77114032
7.49,749,0.501,-1.42,-0.025,5.7868758000000025,105.25238459999998,-12.0894138,91.94257026,-1.1172681,-118.72262718
7.5,750,0.28300000000000003,-1.531,0.002,2.578311,103.3043274,-18.7357266,91.93684068,-0.9969469199999998,-117.69703236
7.51,751,0.001,-1.56,0.008,2.0053530000000004,99.4655088,-23.0902074,91.92538152,-0.8250595199999999,-116.70581502
7.52,752,-0.202,-1.519,-0.018000000000000002,0.2291832000000001,100.9551996,-23.8923486,91.9024632,-0.64744254,-115.70313852
7.53,753,-0.287,-1.4,-0.008,1.0886202,107.7733998,-23.6058696,91.89100404,-0.48128472,-114.63170706
7.54,754,-0.273,-1.315,0.054000000000000006,4.5263682,113.6748672,-21.9442914,91.91392236,-0.3437748,-113.49725022
7.55,755,-0.211,-1.3030000000000002,0.094,6.9327918,120.2638842,-20.2254174,91.959759,-0.21772404,-112.30549758
7.56,756,-0.153,-1.289,0.102,5.72958,126.623718,-17.761698000000006,91.99986606,-0.12032118,-111.05071956000002
7.57,757,-0.098,-1.26,0.116,4.1825934,133.6711014,-12.891555,92.02278438,-0.07448454,-109.721457
7.58,758,-0.046,-1.211,0.124,3.9534102,140.66118899999998,-6.589017,92.03997312,-0.09167328,-108.33489864
7.59,759,0.0,-1.151,0.127,4.8701430000000006,147.99505140000005,-1.0313244,92.0743506,-0.1718874,-106.87385574
7.6,760,0.039,-1.086,0.128,5.0993262,155.21432219999997,3.0366774,92.09726892,-0.30366774,-105.3383283
7.61,761,0.056,-1.037,0.12,3.4950437999999995,161.4595644,6.3598338,92.1029985,-0.46982556,-103.75123464
7.62,762,0.054000000000000006,-0.991,0.1,1.0313244,165.7567494,8.9954406,92.0743506,-0.66463128,-102.11830434
7.63,763,0.044,-0.957,0.077,-1.6042823999999998,168.8507226,12.032117999999999,92.01132522,-0.8880849000000001,-100.45672614
7.64,764,0.026,-0.931,0.048,-3.3231564,169.13720159999997,13.8082878,91.92538152,-1.12872726,-98.79514794
7.65,765,-0.003,-0.907,0.03,-4.297185,167.64751080000005,15.0687954,91.82224908,-1.3750992,-97.14502890000001
7.66,766,-0.051,-0.887,0.021,-4.9274388,165.01190400000004,15.870936600000002,91.70765748,-1.6272007199999998,-95.52355776
7.67,767,-0.101,-0.866,0.028,-5.0993262,162.4908888,16.329303,91.5873363,-1.88503182,-93.92500494
7.68,768,-0.141,-0.852,0.046,-4.6982556,161.6314518,16.4438946,91.46128554,-2.13140376,-92.3321817
7.6899999999999995,769,-0.166,-0.846,0.075,-4.4690724,162.54818459999996,15.870936600000002,91.33523478,-2.38923486,-90.7278993
7.7,770,-0.177,-0.851,0.105,-4.583664,165.4702704,14.896907999999998,91.19199528,-2.61841806,-89.10069858
7.71,771,-0.177,-0.862,0.134,-4.9847345999999995,172.5176538,12.891555,91.03729662,-2.82468294,-87.39901332
7.72,772,-0.172,-0.8740000000000001,0.159,-3.5523396000000003,178.99207919999995,11.0007936,90.88832754,-3.0137590800000003,-85.62857310000003
7.7299999999999995,773,-0.133,-0.866,0.181,-2.3491278,184.0341096,9.9121734,90.73935846,-3.1913760600000005,-83.81229624
7.74,774,-0.103,-0.88,0.17800000000000002,-4.583664,186.7270122,8.9954406,90.57893022,-3.35753388,-81.96737148
7.75,775,-0.07400000000000001,-0.8740000000000001,0.174,-4.9847345999999995,186.3832374,6.990087599999999,90.38985408,-3.4950437999999995,-80.12244672
7.76,776,-0.058,-0.873,0.168,-4.3544808,183.8622222,3.8961144,90.2122371,-3.59244666,-78.30044028
7.77,777,-0.047,-0.877,0.158,-4.4117766,181.4557986,0.4010706,90.02889053999998,-3.64974246,-76.50708174
7.78,778,-0.02,-0.877,0.163,-4.3544808,180.5390658,-3.3231564,89.84554397999999,-3.6669312000000014,-74.71945278000003
7.79,779,0.025,-0.88,0.17,-2.3491278,179.96610780000003,-6.875496000000001,89.6965749,-3.62682414,-72.93755340000001
7.8,780,0.067,-0.894,0.162,-0.286479,178.3618254,-9.6256944,89.55906498,-3.56952834,-71.17284276000002
7.81,781,0.108,-0.922,0.14,-0.4583664000000001,176.06999340000004,-12.2040054,89.42155505999996,-3.48358464,-69.43105044
7.82,782,0.129,-0.949,0.104,-3.0939732,172.9760202,-13.980175199999998,89.2668564,-3.3689930400000003,-67.71790602000002
7.83,783,0.141,-0.967,0.055,-4.583664,167.4183276,-14.2093584,89.10069858,-3.25440144,-66.06205739999999
7.84,784,0.14800000000000002,-0.978,0.006,-2.9220857999999996,158.422887,-12.9488508,88.95745908,-3.11689152,-64.49788206
7.85,785,0.139,-0.981,-0.019,0.6302538000000001,146.56265639999995,-11.6310474,88.87151537999998,-3.0137590800000003,-63.04829832
7.86,786,0.118,-0.983,-0.055,3.0939732,134.98890480000003,-10.7716104,88.81421958,-2.91635622,-61.71330618
7.87,787,0.073,-0.948,-0.07200000000000001,3.8961144,117.1126152,-10.3705398,88.7798421,-2.82468294,-60.55593102
7.88,788,0.033,-0.904,-0.047,5.6149884000000005,106.6274838,-10.313244,88.77411251999996,-2.72728008,-59.50168829999999
7.89,789,0.006999999999999999,-0.865,0.024,10.313244,102.1584114,-11.172681,88.81994916,-2.61268848,-58.49328222000001
7.9,790,-0.016,-0.846,0.079,14.4385416,102.6740736,-12.4331886,88.91162244,-2.49809688,-57.47341698
7.91,791,-0.056,-0.831,0.114,16.329303,104.3929476,-13.349921400000001,89.02048446,-2.37204612,-56.44209258000001
7.92,792,-0.107,-0.813,0.142,16.329303,107.143146,-13.980175199999998,89.12934648,-2.24599536,-55.38212028
7.93,793,-0.154,-0.8,0.155,16.272007199999994,111.440331,-14.5531332,89.23247891999998,-2.11421502,-54.28204092
7.94,794,-0.193,-0.795,0.171,17.0168526,117.8001648,-16.042824000000003,89.36998884,-1.99389384,-53.1132066
7.95,795,-0.202,-0.8059999999999999,0.172,16.4438946,134.0148762,-18.048177,89.47312128,-1.8334656000000005,-51.78394404000001
7.96,796,-0.14,-0.862,0.132,7.7349330000000025,155.4435054,-19.767051,89.48458044,-1.6673077799999998,-50.24841660000001
7.97,797,0.0,-0.958,0.044,-7.5057497999999985,179.33585399999996,-20.5691922,89.33561136,-1.49542038,-48.47797638
7.9799999999999995,798,0.153,-1.109,-0.021,-22.6891368,195.378678,-17.475219,89.03194361999998,-1.35218088,-46.5528375
7.99,799,0.263,-1.354,-0.073,-37.24227,191.081493,-6.6463128000000005,88.57930680000004,-1.2891555000000001,-44.66780568
8.0,800,0.344,-1.641,-0.146,-54.94667220000001,168.8507226,10.8289062,87.96051216,-1.39801752,-43.0004979
8.01,801,0.416,-1.682,-0.124,-59.1292656,149.48474219999997,30.252182399999995,87.30161045999998,-1.6844965200000002,-41.51653668
8.02,802,0.408,-1.481,-0.131,-46.8679644,141.2914428,42.1697088,86.76302994,-2.07410796,-40.10706
8.03,803,0.212,-1.234,-0.153,-18.907614000000002,133.09814340000003,41.8832298,86.49946926,-2.44653066,-38.76633828
8.04,804,0.008,-1.083,-0.16,1.3178034,124.7329566,33.002380800000005,86.43071429999998,-2.73300966,-37.51156026
8.05,805,-0.111,-1.018,-0.122,14.2093584,119.97740520000002,20.912967,86.49946926,-2.89916748,-36.31407804
8.06,806,-0.179,-1.022,-0.07,19.8816426,119.8628136,9.9121734,86.62552002,-2.9564632800000004,-35.11659582
8.07,807,-0.207,-1.058,-0.017,19.2513888,123.70163219999999,3.0366774,86.74011162,-2.9507337,-33.8904657
8.08,808,-0.2,-1.097,0.044,15.4125702,131.5511568,0.8021411999999999,86.81459616,-2.9220858,-32.58985104
8.09,809,-0.171,-1.123,0.122,12.4331886,142.26547140000002,0.9740286,86.86616238,-2.89916748,-31.17464478
8.1,810,-0.091,-1.125,0.197,11.745639,153.6673356,0.8594370000000001,86.88908070000002,-2.86479,-29.65630608
8.11,811,0.035,-1.089,0.206,13.2353298,168.163173,-0.6875496,86.91772859999998,-2.81322378,-27.9889983
8.12,812,0.123,-1.032,0.193,12.891555,174.2365278,-3.724227,86.94064691999998,-2.73300966,-26.264394719999995
8.13,813,0.192,-0.974,0.179,14.8396122,176.06999340000004,-7.333862400000001,86.98648356,-2.61268848,-24.52833198
8.14,814,0.21600000000000005,-0.921,0.165,17.9908812,175.4397396,-10.5424272,87.08388642,-2.44080108,-22.79799882
8.15,815,0.257,-0.89,0.149,19.7097552,173.26249919999995,-12.3758928,87.19274844,-2.2746432600000004,-21.0848544
8.16,816,0.27,-0.87,0.128,19.938938399999998,168.8507226,-12.6623718,87.30734004,-2.11421502,-19.4232762
8.17,817,0.287,-0.858,0.103,18.3919518,163.80869219999997,-11.745639,87.41620206,-1.97097552,-17.80180506
8.18,818,0.29600000000000004,-0.855,0.075,16.1001198,158.2509996,-9.9121734,87.50214575999998,-1.84492476,-16.243359299999998
8.19,819,0.297,-0.861,0.062,14.2093584,149.0263758,-7.3911582,87.59381904,-1.7074148399999998,-14.770857239999998
8.2,820,0.305,-0.875,0.055,12.2040054,141.52062600000005,-5.0993262,87.65684442,-1.6329303,-13.372839720000002
8.209999999999999,821,0.309,-0.887,0.038,9.797581800000001,134.5878342,-2.86479,87.70268106,-1.5870936600000003,-12.04357716
8.22,822,0.324,-0.903,0.016,7.7922288,128.7436626,-1.2605076000000002,87.72559937999998,-1.55844576,-10.771610399999998
8.23,823,0.334,-0.931,-0.004,5.3285094000000015,123.3578574,-0.6875496,87.73132896,-1.53552744,-9.55120986
8.24,824,0.325,-0.964,-0.023,3.0366774,117.742869,-0.8021411999999999,87.71414021999998,-1.46677248,-8.38810512
8.25,825,0.297,-1.0,-0.051,1.3178034,112.6435428,-1.2605076000000002,87.68549232000002,-1.43812458,-7.2765666
8.26,826,0.242,-1.037,-0.093,0.572958,109.5495696,-1.6042823999999998,87.65111484,-1.40947668,-6.19367598
8.27,827,0.153,-1.061,-0.123,0.6875496,107.8306956,-1.7188740000000002,87.61673736,-1.3750992,-5.1279740999999985
8.28,828,0.049,-1.08,-0.136,1.9480572,106.7420754,-1.8334656000000005,87.59381904,-1.34072172,-4.0680017999999984
8.29,829,-0.06,-1.075,-0.118,6.016058999999999,106.91396280000001,-1.7761698,87.6052782,-1.3178034,-3.0137590800000003
8.3,830,-0.15,-1.041,-0.063,11.516455800000001,107.143146,-1.3178034,87.68549232000002,-1.2891555000000001,-1.95378678
8.31,831,-0.17800000000000002,-0.992,-0.018000000000000002,16.501190400000002,105.19508880000001,0.3437748,87.81727266,-1.27769634,-0.91100322
8.32,832,-0.141,-0.958,0.012,19.9962342,102.3875946,2.0053530000000004,87.98343048000002,-1.2891555000000001,0.10313244
8.33,833,-0.055,-0.95,0.052000000000000005,22.173474600000002,100.26765,3.2658606,88.17250662000002,-1.31207382,1.09434978
8.34,834,0.07200000000000001,-0.966,0.106,22.0015872,96.829902,4.6409598,88.3787715,-1.3349921400000002,2.05691922
8.35,835,0.163,-0.99,0.117,20.7410796,90.6419556,7.5057497999999985,88.55638848,-1.40947668,2.9564632800000004
8.36,836,0.236,-0.992,0.095,20.511896399999998,84.2821218,11.1153852,88.73400546,-1.52406828,3.79298196
8.37,837,0.265,-0.973,0.081,20.8556712,78.8390208,14.667724800000002,88.91162244,-1.67303736,4.57793442
8.38,838,0.235,-0.962,0.08,19.595163600000006,73.3959198,17.9908812,89.07778026000004,-1.85638392,5.311320660000002
8.39,839,0.17800000000000002,-0.957,0.037000000000000005,16.386598799999998,66.5777196,20.7410796,89.21529018,-2.0340008999999997,5.97022236
8.4,840,0.113,-0.949,0.0,12.891555,58.9573782,21.4286292,89.31842262,-2.25745452,6.554639519999999
8.41,841,0.052000000000000005,-0.955,-0.01,10.4851314,52.139178,20.168121600000006,89.39290716000002,-2.4637194,7.076031300000001
8.42,842,-0.011,-0.983,0.004,8.193299399999999,48.0711762,16.959556799999998,89.45020296,-2.6413363800000003,7.551586439999999
8.43,843,-0.05,-1.004,0.013,6.2452422,46.409598,11.4018642,89.48458044,-2.76165756,8.015682420000001
8.44,844,-0.081,-1.021,0.019,6.1879464,45.72204840000001,6.3598338,89.5246875,-2.84187168,8.46831924
8.45,845,-0.108,-1.025,0.024,7.7922288,44.51883660000001,3.0366774,89.57625372,-2.88197874,8.909496899999997
8.459999999999999,846,-0.131,-1.02,0.035,9.969469199999999,43.77399120000001,1.6615782,89.65073826,-2.90489706,9.34494498
8.47,847,-0.15,-1.014,0.041,12.0894138,43.48751220000001,1.9480572,89.74241154,-2.93354496,9.77466348
8.48,848,-0.156,-1.005,0.045,14.2093584,43.4302164,3.4377480000000005,89.86273272,-2.9793816000000004,10.21011156
8.49,849,-0.156,-0.998,0.048,15.9282324,43.6021038,5.2712136,90.00024264,-3.0653253000000005,10.63983006
8.5,850,-0.145,-0.992,0.045,17.0741484,43.3729206,6.875496000000001,90.14921172,-3.14553942,11.07527814
8.51,851,-0.128,-0.992,0.035,17.4179232,42.5707794,7.5057497999999985,90.29245122,-3.2314831199999987,11.49353748
8.52,852,-0.106,-1.001,0.018000000000000002,16.673077799999998,41.825934,7.1046792000000005,90.43569072,-3.31742682,11.91179682
8.53,853,-0.083,-1.02,-0.001,15.0114996,41.252976,6.130650599999999,90.5560119,-3.3919113599999995,12.318597
8.54,854,-0.067,-1.041,-0.015,12.7196676,41.023792799999995,4.5263682,90.6419556,-3.45493674,12.73112676
8.55,855,-0.065,-1.056,-0.025,10.5424272,41.023792799999995,2.9220857999999996,90.71644014,-3.4950437999999995,13.13792694
8.56,856,-0.073,-1.063,-0.032,9.453807000000001,40.680018,1.6615782,90.78519509999998,-3.52942128,13.53899754
8.57,857,-0.084,-1.0590000000000002,-0.043,9.9121734,39.3622146,0.572958,90.85395006,-3.5523396000000003,13.928608980000002
8.58,858,-0.091,-1.035,-0.051,11.6310474,37.24227,-0.286479,90.94562334,-3.56379876,14.30103168
8.59,859,-0.08800000000000001,-1.014,-0.044,14.610429000000002,33.4607472,-1.145916,91.03729662,-3.56952834,14.6390769
8.6,860,-0.07400000000000001,-0.998,-0.032,16.902261,29.392745399999995,-1.7761698,91.1862657,-3.56379876,14.93128548
8.61,861,-0.049,-0.99,-0.018000000000000002,18.334656,25.6112226,-2.4064236,91.3581531,-3.5523396000000003,15.18911658
8.62,862,-0.016,-0.987,0.0,19.2513888,21.5432208,-3.151269,91.53577008,-3.52942128,15.40111104
8.63,863,0.015,-0.994,0.014,19.5378678,17.18874,-3.8961144,91.71911664,-3.50077338,15.57872802
8.64,864,0.046,-1.007,0.023,18.9649098,13.5791046,-4.4690724,91.89100404,-3.40337052,15.71050836
8.65,865,0.066,-1.017,0.033,18.2773602,10.255948199999999,-4.5263682,92.06862102,-3.36326346,15.81937038
8.66,866,0.07,-1.025,0.044,17.8762896,7.7349330000000025,-3.9534102,92.24050842,-3.32888598,15.8995845
8.67,867,0.054000000000000006,-1.026,0.049,17.4179232,5.3858052,-2.9220857999999996,92.4181254,-3.30023808,15.956880300000002
8.68,868,0.014,-1.021,0.054000000000000006,16.902261,4.1252976000000015,-2.2345362,92.58428322,-3.27731976,16.002716940000006
8.69,869,-0.037000000000000005,-1.009,0.065,16.157415599999997,3.3231564,-1.9480572,92.74471146,-3.25440144,16.03709442
8.7,870,-0.091,-0.994,0.069,15.6417534,2.86479,-2.0626488000000003,92.89941012,-3.2372127,16.06574232
8.71,871,-0.135,-0.98,0.064,15.126091199999998,3.4950437999999995,-2.2345362,93.05410878,-3.214294380000001,16.105849380000002
8.72,872,-0.156,-0.966,0.067,14.7823164,4.4690724,-2.4637194,93.19734828,-3.19710564,16.15168602
8.73,873,-0.155,-0.96,0.081,14.4385416,5.72958,-2.8074942000000003,93.34058778,-3.16845774,16.214711400000002
8.74,874,-0.129,-0.956,0.091,13.2926256,7.333862400000001,-3.6669312000000014,93.48382728,-3.1799169000000003,16.28919594
8.75,875,-0.095,-0.956,0.08900000000000001,11.3445684,10.1413566,-4.583664,93.58695972,-3.1398098400000003,16.39805796
8.76,876,-0.061,-0.965,0.087,9.3392154,11.745639,-5.0993262,93.67863300000002,-3.0997027800000003,16.51837914
8.77,877,-0.03,-0.985,0.08800000000000001,7.5630456000000015,11.9748222,-4.9274388,93.74738796,-3.05959572,16.638700319999998
8.78,878,-0.003,-1.012,0.08900000000000001,6.417129599999999,11.45916,-4.1252976000000015,93.80468376,-3.03094782,16.753291920000002
8.79,879,0.019,-1.039,0.085,5.6722842,11.1153852,-3.380452200000001,93.84479082,-2.93354496,16.86788352
8.8,880,0.036000000000000004,-1.051,0.083,5.2139178,11.3445684,-2.9793816000000004,93.89062746,-2.91635622,16.98247512
8.81,881,0.036000000000000004,-1.048,0.076,4.8701430000000006,11.6310474,-3.0939732,93.9364641,-2.8934379,17.09706672
8.82,882,0.017,-1.037,0.071,4.1252976000000015,11.6310474,-3.4377480000000005,93.97084158,-2.87051958,17.2173879
8.83,883,-0.008,-1.026,0.069,2.86479,11.688343199999998,-3.7815227999999994,93.98803032,-2.84187168,17.331979500000006
8.84,884,-0.027000000000000003,-1.024,0.071,2.2345362,12.032117999999999,-3.7815227999999994,93.98230074,-2.79603504,17.45803026
8.85,885,-0.034,-1.025,0.07200000000000001,1.8334656000000005,12.318597,-3.6096354,93.9937599,-2.77311672,17.57835144
8.86,886,-0.03,-1.031,0.066,1.2032118,11.9748222,-3.0939732,93.99948948,-2.7501984,17.69867262
8.87,887,-0.02,-1.034,0.06,0.6875496,10.9434978,-2.1772404,93.99948948,-2.73873924,17.81326422
8.88,888,-0.012,-1.031,0.059,0.4583664000000001,9.6829902,-1.145916,93.99948948,-2.73873924,17.9049375
8.89,889,-0.009000000000000001,-1.027,0.063,0.572958,8.880849000000003,-0.1718874,93.95365284,-2.6642547000000003,17.99661078
8.9,890,-0.006999999999999999,-1.017,0.07200000000000001,1.2032118,8.4224826,0.4010706,93.95938242,-2.67571386,18.0768249
8.91,891,-0.008,-1.008,0.079,2.5210152000000003,8.307891,0.6302538000000001,93.98230074,-2.6929026,18.162768600000003
8.92,892,-0.013,-1.001,0.079,3.2085648,8.59437,0.2291832000000001,94.01094864,-2.70436176,18.2487123
8.93,893,-0.019,-0.996,0.08199999999999999,3.380452200000001,9.6256944,-0.3437748,94.03959654,-2.71009134,18.34038558
8.94,894,-0.026,-0.995,0.079,3.3231564,10.9434978,-0.8021411999999999,94.0510557,-2.68717302,18.449247600000003
8.95,895,-0.033,-0.996,0.075,3.2085648,11.8029348,-1.2032118,94.07397402,-2.68717302,18.56956878
8.96,896,-0.037000000000000005,-1.001,0.07,2.9793816000000004,12.261301199999998,-1.3178034,94.09689233999998,-2.68144344,18.68988996
8.97,897,-0.037000000000000005,-1.003,0.067,2.6929026,12.6623718,-1.3178034,94.11981066,-2.68144344,18.81594072
8.98,898,-0.036000000000000004,-1.007,0.066,2.4064236,13.0061466,-1.2605076000000002,94.13699940000001,-2.68144344,18.94772106
8.99,899,-0.03,-1.005,0.064,2.4064236,12.891555,-1.2032118,94.11981066,-2.65852512,19.0795014
9.0,900,-0.024,-1.004,0.066,2.6929026,12.318597,-1.2605076000000002,94.13699940000001,-2.65852512,19.19982258
9.01,901,-0.017,-1.005,0.071,3.2658606,11.5737516,-1.3178034,94.1656473,-2.65279554,19.31441418
9.02,902,-0.01,-1.006,0.07400000000000001,3.724227,10.599723,-1.3178034,94.1942952,-2.65279554,19.4232762
9.03,903,-0.006999999999999999,-1.008,0.078,4.1252976000000015,9.3965112,-1.2032118,94.23440226,-2.64706596,19.51494948
9.04,904,-0.004,-1.008,0.083,4.3544808,8.4224826,-1.0313244,94.25732058,-2.58977016,19.60089318
9.05,905,-0.005,-1.008,0.08800000000000001,4.4690724,7.6776372,-1.0313244,94.29742764,-2.58404058,19.67537772
9.06,906,-0.009000000000000001,-1.006,0.092,4.3544808,7.0473834,-1.145916,94.3375347,-2.5783110000000002,19.74986226
9.07,907,-0.014,-1.007,0.094,4.1825934,6.016058999999999,-1.2032118,94.37764176,-2.57258142,19.80715806
9.08,908,-0.018000000000000002,-1.008,0.09,3.8388186,5.1566220000000005,-1.3178034,94.41201924,-2.56685184,19.85872428
9.09,909,-0.02,-1.011,0.08900000000000001,3.2658606,4.3544808,-1.3178034,94.41774882,-2.49809688,19.90456092
9.1,910,-0.019,-1.015,0.09,2.578311,3.151269,-1.3178034,94.44639672,-2.48663772,19.9389384
9.11,911,-0.016,-1.017,0.092,1.8907613999999997,1.8334656000000005,-1.3178034,94.46358546,-2.47517856,19.95612714
9.12,912,-0.014,-1.015,0.093,1.2605076000000002,0.4583664000000001,-1.2032118,94.47504462,-2.4637194,19.96185672
9.13,913,-0.014,-1.013,0.095,0.6875496,-0.8021411999999999,-1.0313244,94.48650378,-2.45226024,19.95612714
9.14,914,-0.013,-1.009,0.095,0.2291832000000001,-1.7188740000000002,-0.9740286,94.46358546,-2.2746432600000004,19.93320882
9.15,915,-0.015,-1.01,0.095,0.1718874,-2.86479,-0.9167328,94.46358546,-2.25745452,19.90456092
9.16,916,-0.016,-1.011,0.097,0.0,-3.6669312000000014,-0.8594370000000001,94.46931504,-2.24599536,19.87018344
9.17,917,-0.02,-1.013,0.097,-0.3437748,-4.1825934,-0.7448454000000001,94.46358546,-2.2345362,19.83007638
9.18,918,-0.022,-1.011,0.095,-0.4010706,-4.6409598,-0.5156622000000001,94.46358546,-2.22307704,19.78423974
9.19,919,-0.024,-1.011,0.093,-0.11459160000000004,-4.7555514,-0.5156622000000001,94.44639672,-2.16005166,19.73267352
9.2,920,-0.025,-1.006,0.093,0.057295800000000015,-4.8128472,-0.4583664000000001,94.44639672,-2.1485925000000003,19.68683688
9.21,921,-0.027000000000000003,-1.002,0.093,0.4010706,-4.9274388,-0.4583664000000001,94.4521263,-2.13713334,19.64100024
9.22,922,-0.031,-0.998,0.09,0.6302538000000001,-5.0993262,-0.4583664000000001,94.46358546,-2.12567418,19.58943402
9.23,923,-0.032,-0.998,0.086,0.9167328,-5.844171599999999,-0.2291832000000001,94.47504462,-2.1199446,19.53213822
9.24,924,-0.033,-0.998,0.084,1.0313244,-6.130650599999999,0.0,94.45785588,-2.09702628,19.46911284
9.25,925,-0.03,-1.0,0.086,1.145916,-6.589017,0.286479,94.46931504,-2.0912967,19.40608746
9.26,926,-0.029,-1.002,0.08800000000000001,1.0313244,-7.161975,0.4010706,94.48650378,-2.0912967,19.3373325
9.27,927,-0.028,-1.004,0.086,0.9167328,-7.5057497999999985,0.4583664000000001,94.49796294,-2.08556712,19.26284796
9.28,928,-0.028,-1.006,0.087,0.7448454000000001,-7.2765666,0.4583664000000001,94.5094221,-2.08556712,19.18836342
9.29,929,-0.028,-1.009,0.08900000000000001,0.3437748,-6.9327918,0.5156622000000001,94.49223336,-2.05691922,19.11960846
9.3,930,-0.027000000000000003,-1.013,0.091,0.3437748,-7.161975,0.4010706,94.49796294,-2.05118964,19.0508535
9.31,931,-0.033,-1.013,0.093,0.4583664000000001,-8.4224826,0.2291832000000001,94.5094221,-2.04546006,18.9649098
9.32,932,-0.034,-1.008,0.097,0.4583664000000001,-9.0527364,0.2291832000000001,94.51515168,-2.03973048,18.87323652
9.33,933,-0.034,-1.001,0.1,0.4583664000000001,-9.167328,0.057295800000000015,94.52661084,-2.02827132,18.78729282
9.34,934,-0.036000000000000004,-0.992,0.103,0.572958,-9.0527364,-0.1718874,94.54379958,-2.01108258,18.69561954
9.35,935,-0.038,-0.991,0.103,0.8594370000000001,-8.9381448,-0.4583664000000001,94.55525874,-1.99962342,18.60967584
9.36,936,-0.042,-0.992,0.1,1.2032118,-8.7089616,-0.6875496,94.57244748,-1.98243468,18.52373214
9.37,937,-0.044,-0.996,0.098,1.2032118,-8.3651868,-0.7448454000000001,94.58963622,-1.96524594,18.43778844
9.38,938,-0.044,-0.999,0.096,0.9740286,-7.7922288,-0.6875496,94.60109538,-1.9480572000000005,18.3633039
9.39,939,-0.042,-1.001,0.098,0.8021411999999999,-7.448453999999999,-0.572958,94.60682496,-1.94232762,18.28881936
9.4,940,-0.039,-1.003,0.099,0.7448454000000001,-7.2192707999999985,-0.6302538000000001,94.61828412,-1.92513888,18.2200644
9.41,941,-0.037000000000000005,-1.003,0.099,0.572958,-6.589017,-0.572958,94.62974328,-1.91367972,18.15703902
9.42,942,-0.037000000000000005,-1.004,0.1,0.4583664000000001,-6.3025379999999975,-0.4583664000000001,94.63547286,-1.90222056,18.09401364
9.43,943,-0.036000000000000004,-1.006,0.099,0.572958,-6.016058999999999,-0.2291832000000001,94.64120244,-1.8907613999999997,18.03671784
9.44,944,-0.036000000000000004,-1.008,0.098,0.8021411999999999,-5.844171599999999,0.0,94.64693201999998,-1.88503182,17.97942204
9.45,945,-0.039,-1.009,0.097,0.9167328,-5.72958,0.1718874,94.65839118,-1.87930224,17.92212624
9.46,946,-0.041,-1.011,0.099,0.9167328,-5.6722842,0.2291832000000001,94.66985034,-1.87930224,17.86483044
9.47,947,-0.046,-1.013,0.1,0.8021411999999999,-5.3285094000000015,0.0,94.68130949999998,-1.87357266,17.81326422
9.48,948,-0.048,-1.012,0.103,0.6875496,-4.7555514,-0.286479,94.69276866,-1.8621135,17.76742758
9.49,949,-0.051,-1.01,0.104,0.6875496,-3.8388186,-0.6302538000000001,94.70422782,-1.8907613999999997,17.72732052
9.5,950,-0.052000000000000005,-1.007,0.105,0.6302538000000001,-2.6356068,-0.8021411999999999,94.70995740000001,-1.87930224,17.704402199999997
9.51,951,-0.049,-1.004,0.104,0.5156622000000001,-1.6615782,-0.8021411999999999,94.71568698,-1.87357266,17.687213460000006
9.52,952,-0.047,-1.002,0.103,0.3437748,-1.0886202,-0.572958,94.72141656,-1.8621135,17.6757543
9.53,953,-0.046,-1.0,0.105,0.1718874,-0.4583664000000001,-0.3437748,94.72141656,-1.8621135,17.6757543
9.54,954,-0.046,-0.996,0.108,0.1718874,0.1718874,-0.057295800000000015,94.78444194,-1.9480572000000005,17.6757543
9.55,955,-0.046,-0.992,0.112,0.11459160000000004,1.2032118,0.286479,94.78444194,-1.9480572000000005,17.687213460000006
9.56,956,-0.046,-0.989,0.116,0.057295800000000015,2.1199446,0.6302538000000001,94.78444194,-1.9595163600000003,17.71013178
9.57,957,-0.044,-0.987,0.117,0.11459160000000004,3.3231564,0.9740286,94.78444194,-1.97097552,17.73877968
9.58,958,-0.043,-0.989,0.117,0.1718874,4.4117766,1.145916,94.78444194,-1.98816426,17.78461632
9.59,959,-0.044,-0.993,0.117,0.286479,5.3858052,1.2032118,94.80736026,-2.01681216,17.83618254
9.6,960,-0.046,-0.998,0.116,0.7448454000000001,6.130650599999999,1.145916,94.81308984,-2.0340008999999997,17.89347834
9.61,961,-0.049,-1.002,0.116,1.3750992,6.589017,1.0313244,94.824549,-2.05118964,17.95650372
9.62,962,-0.051,-1.006,0.115,2.1199446,6.589017,0.572958,94.84173774,-2.06837838,18.02525868
9.63,963,-0.049,-1.008,0.12,3.0939732,6.417129599999999,0.11459160000000004,94.87038564,-2.07410796,18.08828406
9.64,964,-0.044,-1.011,0.123,3.4950437999999995,6.4744254,-0.2291832000000001,94.92195186,-2.07983754,18.15130944
9.65,965,-0.038,-1.016,0.125,3.5523396000000003,6.760904399999999,-0.4583664000000001,94.95632934,-2.07983754,18.2200644
9.66,966,-0.035,-1.016,0.125,3.2658606,6.990087599999999,-0.4583664000000001,94.98497724,-2.08556712,18.28881936
9.67,967,-0.034,-1.015,0.126,2.86479,6.8182002000000015,-0.5156622000000001,95.01362514,-2.08556712,18.35757432
9.68,968,-0.036000000000000004,-1.015,0.124,2.3491278,6.6463128000000005,-0.6875496,95.03081388,-2.08556712,18.4205997
9.69,969,-0.038,-1.015,0.125,1.7188740000000002,6.4744254,-0.8594370000000001,95.06519136,-2.08556712,18.48362508
9.7,970,-0.042,-1.017,0.124,0.8594370000000001,6.417129599999999,-1.2605076000000002,95.07092094,-2.07983754,18.55238004
9.71,971,-0.045,-1.015,0.122,0.0,6.760904399999999,-1.4896908000000002,95.07092094,-2.07410796,18.621135
9.72,972,-0.046,-1.011,0.122,-0.3437748,7.333862400000001,-1.6042823999999998,95.05946178,-2.0626488000000003,18.69561954
9.73,973,-0.047,-1.007,0.122,-0.1718874,8.136003599999999,-1.6615782,95.0537322,-2.05691922,18.77583366
9.74,974,-0.045,-1.001,0.119,0.1718874,8.880849000000003,-1.5469866,95.06519136,-2.05691922,18.86177736
9.75,975,-0.041,-0.998,0.117,0.4010706,9.3392154,-1.432395,95.06519136,-2.05118964,18.95918022
9.76,976,-0.038,-0.995,0.117,0.8021411999999999,9.2819196,-1.4896908000000002,95.06519136,-2.04546006,19.0508535
9.77,977,-0.033,-0.996,0.117,1.0886202,8.651665800000002,-1.432395,95.07665052000002,-2.04546006,19.136797199999997
9.78,978,-0.032,-0.997,0.119,0.9740286,7.2765666,-1.3750992,95.0823801,-2.03973048,19.21128174
9.79,979,-0.028,-0.999,0.121,0.286479,5.5003968,-1.145916,95.10529842,-2.005353,19.26284796
9.8,980,-0.024,-1.002,0.121,-0.11459160000000004,5.2712136,-1.0313244,95.09956884,-1.99962342,19.31441418
9.81,981,-0.022,-1.01,0.123,-0.8021411999999999,5.5576926,-1.0313244,95.08810968,-1.99962342,19.37170998
9.82,982,-0.024,-1.018,0.124,-1.2032118,4.9274388,-1.145916,95.07665052000002,-1.99389384,19.4232762
9.83,983,-0.031,-1.016,0.126,-1.2605076000000002,3.6669312000000014,-1.0313244,95.05946178,-1.98816426,19.45765368
9.84,984,-0.035,-1.008,0.126,-1.4896908000000002,2.8074942000000003,-0.8021411999999999,95.0823801,-1.97097552,19.48630158
9.85,985,-0.036000000000000004,-0.999,0.125,-1.8907613999999997,2.8074942000000003,-0.6875496,95.06519136,-1.96524594,19.51494948
9.86,986,-0.041,-0.995,0.125,-2.0053530000000004,3.0939732,-0.8021411999999999,95.04227304,-1.96524594,19.54359738
9.87,987,-0.048,-0.996,0.125,-2.0053530000000004,3.2658606,-0.8021411999999999,95.01935472,-1.9595163600000003,19.57797486
9.88,988,-0.056,-0.998,0.12,-1.8907613999999997,3.5523396000000003,-0.6302538000000001,94.9964364,-1.9595163600000003,19.61235234
9.89,989,-0.058,-1.0,0.115,-2.0626488000000003,4.1825934,-0.5156622000000001,94.97924766,-1.98816426,19.6524594
9.9,990,-0.057,-1.004,0.112,-2.3491278,4.8128472,-0.4010706,94.95632934,-1.99389384,19.704025620000003
9.91,991,-0.055,-1.005,0.108,-2.578311,5.2712136,-0.5156622000000001,94.92768144,-1.99389384,19.75559184
9.92,992,-0.054000000000000006,-1.006,0.105,-2.7501984,5.5003968,-0.572958,94.89330396,-1.99389384,19.80715806
9.93,993,-0.053,-1.003,0.103,-2.6356068,5.5003968,-0.572958,94.86465606,-1.99389384,19.86445386
9.94,994,-0.053,-1.002,0.101,-2.4064236,5.0993262,-0.7448454000000001,94.83027858,-2.01108258,19.91602008
9.95,995,-0.056,-1.002,0.101,-2.291832,5.0993262,-0.9740286,94.80736026,-2.005353,19.9675863
9.96,996,-0.058,-1.003,0.1,-2.1199446,5.2712136,-0.9740286,94.77871236,-2.005353,20.01915252
9.97,997,-0.059,-1.005,0.102,-2.1199446,5.3285094000000015,-0.9167328,94.75579404,-1.99962342,20.07071874
9.98,998,-0.059,-1.006,0.103,-2.0626488000000003,5.443101,-0.9167328,94.73287572,-1.99962342,20.12801454
9.99,999,-0.06,-1.007,0.105,-1.9480572,5.6722842,-0.9167328,94.70995740000001,-2.02254174,20.18531034
10.0,1000,-0.059,-1.007,0.108,-2.0626488000000003,6.130650599999999,-0.9167328,94.68703908,-2.02254174,20.24833572
10.01,1001,-0.055,-1.006,0.11,-2.0626488000000003,6.760904399999999,-0.8594370000000001,94.66412076,-2.02254174,20.3113611
10.02,1002,-0.05,-1.005,0.109,-1.7188740000000002,6.8182002000000015,-0.8594370000000001,94.64120244,-2.01681216,20.38011606
10.03,1003,-0.043,-1.004,0.111,-1.6042823999999998,6.3598338,-0.6875496,94.6240137,-2.01681216,20.44314144
10.04,1004,-0.038,-1.004,0.113,-1.7188740000000002,5.7868758000000025,-0.4583664000000001,94.61828412,-2.01108258,20.50043724
10.05,1005,-0.033,-1.001,0.115,-1.6042823999999998,4.9847345999999995,-0.1718874,94.60109538,-2.01681216,20.55200346
10.06,1006,-0.03,-1.001,0.115,-1.4896908000000002,4.0680017999999984,0.0,94.58390664,-2.01681216,20.59211052
10.07,1007,-0.033,-1.001,0.114,-1.6615782,3.0366774,0.11459160000000004,94.56098832,-2.02254174,20.62075842
10.08,1008,-0.036000000000000004,-1.0,0.112,-1.8907613999999997,2.1199446,0.057295800000000015,94.54379958,-2.02827132,20.63794716
10.09,1009,-0.04,-1.001,0.112,-1.7761698,1.2032118,0.0,94.57244748,-2.02827132,20.64940632
10.1,1010,-0.041,-1.003,0.113,-1.6042823999999998,0.5156622000000001,-0.11459160000000004,94.55525874,-2.02827132,20.6551359
10.11,1011,-0.04,-1.004,0.112,-1.432395,0.0,-0.1718874,94.53807,-2.02827132,20.6551359
10.12,1012,-0.041,-1.003,0.111,-1.2032118,-0.4583664000000001,-0.286479,94.52661084,-2.02254174,20.64940632
10.13,1013,-0.039,-1.002,0.112,-0.9167328,-0.9167328,-0.3437748,94.52088126,-2.02254174,20.64367674
10.14,1014,-0.039,-1.0,0.112,-0.6875496,-1.5469866,-0.3437748,94.56098832,-2.01108258,20.62075842
10.15,1015,-0.037000000000000005,-0.999,0.113,-0.6302538000000001,-2.291832,-0.3437748,94.55525874,-2.005353,20.597840100000006
10.16,1016,-0.038,-1.0,0.112,-0.6875496,-2.86479,-0.3437748,94.54952916,-1.99962342,20.57492178
10.17,1017,-0.038,-0.999,0.11,-0.8594370000000001,-3.2658606,-0.2291832000000001,94.54379958,-1.99389384,20.5405443
10.18,1018,-0.04,-0.999,0.107,-1.2605076000000002,-3.4950437999999995,-0.2291832000000001,94.53234042,-1.98816426,20.50616682
10.19,1019,-0.043,-1.001,0.106,-1.4896908000000002,-3.6096354,-0.286479,94.52661084,-1.98816426,20.47178934
10.2,1020,-0.045,-1.003,0.104,-1.6042823999999998,-3.6096354,-0.286479,94.51515168,-1.98243468,20.43168228
10.21,1021,-0.046,-1.004,0.104,-1.6615782,-3.380452200000001,-0.286479,94.49796294,-1.9767051,20.40303438
10.22,1022,-0.048,-1.004,0.102,-1.4896908000000002,-3.0939732,-0.1718874,94.4807742,-1.97097552,20.3686569
10.23,1023,-0.047,-1.001,0.098,-1.3750992,-3.0939732,0.0,94.46931504,-1.96524594,20.340009
10.24,1024,-0.046,-0.997,0.096,-1.3178034,-3.2658606,0.11459160000000004,94.44639672,-1.98243468,20.30563152
10.25,1025,-0.046,-0.994,0.095,-0.9740286,-3.380452200000001,0.2291832000000001,94.44066714,-1.9767051,20.27125404
10.26,1026,-0.047,-0.992,0.093,-0.5156622000000001,-2.9793816000000004,0.2291832000000001,94.43493756,-1.9767051,20.24260614
10.27,1027,-0.047,-0.991,0.094,0.0,-2.5210152000000003,0.1718874,94.43493756,-1.9767051,20.21968782
10.28,1028,-0.051,-0.992,0.095,0.5156622000000001,-1.9480572,0.057295800000000015,94.44066714,-1.9767051,20.1967695
10.29,1029,-0.053,-0.994,0.097,0.9740286,-1.7188740000000002,0.057295800000000015,94.45785588,-2.0340008999999997,20.18531034
10.3,1030,-0.057,-0.996,0.101,1.3750992,-1.6042823999999998,0.11459160000000004,94.46931504,-2.02827132,20.168121600000006
10.31,1031,-0.058,-0.999,0.102,1.4896908000000002,-0.9740286,0.2291832000000001,94.48650378,-2.0340008999999997,20.15666244
10.32,1032,-0.057,-1.002,0.101,1.5469866,0.0,0.4010706,94.50369252,-2.0340008999999997,20.15666244
10.33,1033,-0.054000000000000006,-1.01,0.104,1.2032118,1.3750992,0.4010706,94.51515168,-2.03973048,20.17385118
10.34,1034,-0.051,-1.016,0.107,1.0313244,1.8907613999999997,0.1718874,94.54379958,-2.07983754,20.19103992
10.35,1035,-0.052000000000000005,-1.016,0.107,1.432395,1.4896908000000002,0.11459160000000004,94.56098832,-2.08556712,20.20822866
10.36,1036,-0.052000000000000005,-1.013,0.108,1.3178034,0.7448454000000001,0.1718874,94.57244748,-2.08556712,20.21395824
10.37,1037,-0.049,-1.007,0.111,1.0313244,0.572958,0.286479,94.58390664,-2.0912967,20.21968782
10.38,1038,-0.043,-1.003,0.114,0.8021411999999999,0.9167328,0.1718874,94.58963622,-2.0912967,20.23114698
