TimeStamp(s),FrameCounter,AccX,AccY,AccZ,GyrX,GyrY,GyrZ,EulerX,EulerY,EulerZ
0.01,1,-0.079,-1.0070000000000001,0.083,-3.6096353999999997,-2.0626488000000003,-0.9740286,93.83906124,-5.08213746,-54.79770312000001
0.02,2,-0.073,-1.0070000000000001,0.078,-5.1566220000000005,-2.291832,-1.145916,93.78749502,-5.0706783,-54.82062144
0.03,3,-0.07400000000000001,-1.005,0.077,-5.5576926,-1.8907614,-0.9740286,93.7359288,-5.05921914,-54.83781018
0.04,4,-0.07200000000000001,-1.0,0.077,-5.1566220000000005,-1.432395,-0.9740286,93.68436258,-5.04775998,-54.85499892
0.05,5,-0.071,-0.998,0.076,-4.583664,-0.8021411999999999,-1.145916,93.63279636,-5.02484166,-54.86645808000001
0.060000000000000005,6,-0.069,-0.997,0.079,-4.3544808,-0.4583664000000001,-1.3750992,93.58695972,-5.00765292,-54.86645808000001
0.06999999999999999,7,-0.066,-0.995,0.08,-4.1825934,-0.6875496,-1.432395,93.54685266,-4.99619376,-54.87791724
0.08,8,-0.067,-0.997,0.081,-4.1825934,-0.9167328000000001,-1.2032118,93.50101602,-4.97900502,-54.88364682
0.09,9,-0.066,-0.998,0.08199999999999999,-4.010706000000001,-1.145916,-0.9740286,93.46090896,-4.97327544,-54.89510598
0.09999999999999999,10,-0.065,-0.998,0.083,-3.5523396000000003,-1.4896908000000002,-0.9740286,93.42653148,-4.94462754,-54.91229472
0.11,11,-0.066,-0.9990000000000001,0.081,-3.2085647999999996,-1.6042823999999998,-1.2032118,93.39788358,-4.93316838,-54.92948345999999
0.12,12,-0.067,-1.0,0.083,-3.0939732,-1.0886202,-1.7188740000000002,93.36923568,-4.91597964,-54.94094262
0.13,13,-0.068,-1.001,0.083,-3.2658606,-0.9167328000000001,-2.3491277999999998,93.3348582,-4.88733174,-54.94667220000001
0.14,14,-0.068,-1.001,0.084,-3.0366774,-1.0886202,-2.7501984,93.3062103,-4.8586838399999985,-54.95813136
0.15000000000000002,15,-0.069,-0.996,0.083,-2.86479,-0.6302538000000001,-2.9793816000000004,93.2775624,-4.81857678,-54.96386094
0.16,16,-0.064,-0.996,0.084,-2.8074942000000003,0.0,-3.1512689999999997,93.24891449999998,-4.78992888,-54.96386094
0.17,17,-0.064,-0.997,0.085,-2.86479,1.0886202,-3.7242269999999995,93.2202666,-4.749821819999998,-54.94667220000001
0.18000000000000002,18,-0.062,-0.998,0.085,-2.5783110000000002,3.0939732,-4.5263682,93.18588912,-4.70971476,-54.91229472
0.19,19,-0.059000000000000004,-1.0,0.085,-2.3491277999999998,5.443101,-5.1566220000000005,93.15724122,-4.66387812,-54.86072849999999
0.2,20,-0.051,-0.9990000000000001,0.084,-2.1772404,7.448453999999999,-5.5576926,93.12859332,-4.6008527400000006,-54.78051438
0.21000000000000002,21,-0.044000000000000004,-0.9990000000000001,0.08199999999999999,-2.4064236,8.880849000000003,-5.958763200000001,93.09994542,-4.549286520000001,-54.68884110000001
0.22,22,-0.031,-0.998,0.08199999999999999,-2.4064236,9.224623800000002,-5.9014674000000005,93.06556794,-4.4977203,-54.59716782
0.23,23,-0.018000000000000002,-0.998,0.086,-2.1772404,8.136003599999999,-5.844171599999999,93.03692004,-4.44615408,-54.51122412
0.24000000000000002,24,-0.005,-1.004,0.095,-2.3491277999999998,5.7868758000000025,-6.0160589999999985,93.00254256,-4.39458786,-54.45392832
0.25,25,0.003,-1.005,0.098,-2.5783110000000002,3.7815228,-6.4744254,92.97962424,-4.30291458,-54.41382126
0.26,26,0.013999999999999999,-1.008,0.094,-2.86479,3.3231564,-6.9327918,92.94524676,-4.2398892,-54.37944378
0.27,27,0.026000000000000002,-1.0070000000000001,0.083,-3.6096353999999997,3.4377480000000005,-7.2192707999999985,92.9051397,-4.17113424,-54.33933671999999
0.28,28,0.038,-1.002,0.071,-4.6409598,3.0366774,-6.990087599999999,92.85357348,-4.102379279999999,-54.30495924
0.29000000000000004,29,0.046,-0.996,0.066,-5.3858052,2.4637194,-6.2452422,92.79627768,-4.04508348,-54.28204092
0.3,30,0.052000000000000005,-0.9890000000000001,0.064,-5.2712136,1.8334656000000005,-5.844171599999999,92.73898188,-3.94195104,-54.26485218000001
0.31,31,0.051,-0.987,0.065,-4.8128472,0.6875496,-5.72958,92.68741566,-3.89038482,-54.25339302
0.32,32,0.046,-0.985,0.065,-4.5263682,-0.40107059999999994,-5.72958,92.64157902,-3.83308902,-54.25912260000001
0.33,33,0.039,-0.9790000000000001,0.065,-4.4117766,-1.4896908000000002,-5.5576926,92.60147196,-3.77579322,-54.27058175999999
0.34,34,0.032,-0.9740000000000001,0.066,-4.583664,-2.6356068,-5.042030400000002,92.55563532,-3.7242269999999995,-54.29350008
0.35000000000000003,35,0.028999999999999998,-0.9690000000000001,0.064,-4.4117766,-4.297185,-4.5263682,92.50979868,-3.64974246,-54.33933671999999
0.36000000000000004,36,0.025,-0.973,0.063,-3.7815228,-6.0733548,-3.8388186,92.4754212,-3.60390582,-54.39663252
0.37,37,0.02,-0.981,0.06,-2.5210152000000003,-8.250595200000001,-3.0939732,92.45823246,-3.56952834,-54.47684664
0.38,38,0.012,-0.992,0.06,-1.7188740000000002,-9.8548776,-2.4064236,92.4467733,-3.5351508600000003,-54.57424949999999
0.39,39,0.004,-1.006,0.059000000000000004,-1.5469866,-10.7716104,-1.8334656000000005,92.44104372,-3.5122325400000003,-54.68311152
0.4,40,-0.003,-1.021,0.063,-1.4896908000000002,-11.0007936,-1.0886202,92.42958456,-3.47785506,-54.79197354
0.41000000000000003,41,-0.015,-1.036,0.068,-1.3750992,-10.7143146,-0.2291832000000001,92.42385498,-3.4663959,-54.90083556
0.42000000000000004,42,-0.025,-1.054,0.062,-1.0886202,-10.1986524,0.9740286,92.42385498,-3.4663959,-55.00396800000001
0.43,43,-0.032,-1.073,0.052000000000000005,-1.7188740000000002,-10.5424272,2.6929026,92.41239582,-3.48931422,-55.10710044
0.44,44,-0.048,-1.078,0.05,-4.010706000000001,-12.032118,4.8128472,92.37801834,-3.52942128,-55.22742162
0.45,45,-0.059000000000000004,-1.078,0.062,-6.4744254,-12.834259199999998,7.2192707999999985,92.32072254,-3.59244666,-55.35920196000001
0.46,46,-0.061,-1.081,0.066,-7.0473834,-12.605075999999999,9.453807,92.26342674,-3.67839036,-55.49098230000001
0.47000000000000003,47,-0.063,-1.0759999999999998,0.07,-7.5630456000000015,-13.3499214,11.8602306,92.19467178,-3.78725238,-55.62849222
0.48000000000000004,48,-0.079,-1.06,0.076,-9.2819196,-14.896907999999998,13.8655836,92.11445766,-3.91330314,-55.78319088000001
0.49,49,-0.099,-1.031,0.086,-11.45916,-16.7876694,15.527161800000002,92.01132522,-4.06227222,-55.95507828
0.5,50,-0.11800000000000001,-0.993,0.10300000000000001,-13.0634424,-19.0222056,16.1001198,91.9024632,-4.211241299999998,-56.14988400000001
0.51,51,-0.131,-0.9640000000000001,0.129,-14.037471,-19.5378678,15.813640800000002,91.77641244,-4.36021038,-56.35041930000001
0.52,52,-0.14300000000000002,-0.945,0.145,-15.297978599999999,-18.907614,14.4958374,91.63890252,-4.4977203,-56.54522502
0.53,53,-0.158,-0.943,0.152,-17.475219,-17.131444199999994,12.7196676,91.47847428,-4.612311900000001,-56.72284200000001
0.54,54,-0.17300000000000001,-0.958,0.17,-18.1054728,-15.756345,11.8602306,91.31231646,-4.7269035000000015,-56.88327024
0.55,55,-0.18100000000000002,-0.98,0.18600000000000005,-18.3919518,-14.1520626,11.6310474,91.15188822,-4.84722468,-57.02650974
0.56,56,-0.17800000000000002,-0.998,0.188,-18.2200644,-12.3758928,11.9748222,90.98000082,-4.96181628,-57.15256049999999
0.5700000000000001,57,-0.17300000000000001,-1.008,0.175,-17.246035799999998,-11.401864199999999,12.605075999999999,90.81957258,-5.08213746,-57.27288168
0.5800000000000001,58,-0.16899999999999998,-1.008,0.168,-15.297978599999999,-11.2299768,13.6936962,90.6706035,-5.2139178,-57.38747328
0.59,59,-0.16699999999999998,-1.003,0.165,-13.2353298,-11.0580894,14.9542038,90.55028232,-5.3628868800000005,-57.50206488
0.6,60,-0.161,-0.996,0.159,-11.9748222,-11.401864199999999,16.272007199999994,90.45860904,-5.52331512,-57.61665648
0.61,61,-0.16399999999999998,-0.988,0.153,-11.5737516,-12.318597,17.18874,90.35547659999999,-5.6952025200000005,-57.74270724
0.62,62,-0.165,-0.9840000000000001,0.15,-11.3445684,-13.120738199999998,17.4179232,90.25234416,-5.861360339999999,-57.87448758000001
0.63,63,-0.16699999999999998,-0.978,0.153,-11.2299768,-14.209358400000001,17.303331600000003,90.1549413,-6.0332477399999975,-58.01772708
0.64,64,-0.166,-0.9690000000000001,0.157,-11.6310474,-14.8396122,16.959556799999998,90.05753844,-6.19367598,-58.16669616
0.65,65,-0.161,-0.9570000000000001,0.154,-12.0894138,-14.667724800000002,16.4438946,89.96586515999998,-6.3598338000000005,-58.31566524000001
0.66,66,-0.155,-0.9490000000000001,0.14400000000000002,-12.891555,-14.438541599999999,15.6417534,89.85127356000002,-6.51453246,-58.46463432
0.67,67,-0.152,-0.943,0.141,-13.5791046,-13.750992000000002,15.011499599999999,89.73095237999998,-6.66350154,-58.60214424
0.68,68,-0.152,-0.934,0.14400000000000002,-13.2353298,-12.776963400000001,14.4958374,89.61636078000002,-6.80674104,-58.72819500000001
0.6900000000000001,69,-0.156,-0.93,0.149,-12.0894138,-12.3758928,13.636400400000001,89.50749876,-6.93852138,-58.85424576000001
0.7000000000000001,70,-0.161,-0.922,0.155,-11.6310474,-12.261301199999998,13.0634424,89.42728464000002,-7.076031300000001,-58.97456694
0.7100000000000001,71,-0.16399999999999998,-0.912,0.149,-11.802934800000001,-12.4904844,12.3758928,89.3241522,-7.19635248,-59.1006177
0.72,72,-0.16899999999999998,-0.905,0.147,-12.1467096,-12.5477802,11.6310474,89.21529018,-7.31094408,-59.22666846
0.73,73,-0.183,-0.907,0.149,-11.8602306,-12.0894138,10.7143146,89.11215774000001,-7.4198061,-59.34698964
0.74,74,-0.19399999999999998,-0.915,0.14400000000000002,-11.45916,-11.45916,9.8548776,89.01475488,-7.51720896,-59.46158124
0.75,75,-0.213,-0.9279999999999999,0.14300000000000002,-11.2299768,-10.7716104,8.9381448,88.94027034,-7.620341400000001,-59.57044326000001
0.76,76,-0.23199999999999998,-0.946,0.14,-11.0580894,-9.7975818,7.734933000000002,88.8371379,-7.6948259399999985,-59.66784612
0.77,77,-0.252,-0.951,0.14,-11.2872726,-7.8495246,5.72958,88.73400546,-7.75212174,-59.74233065999999
0.78,78,-0.272,-0.95,0.141,-10.2559482,-5.2712136,3.5523396000000003,88.64233218000004,-7.78649922,-59.79962646
0.79,79,-0.289,-0.9540000000000001,0.13,-8.880849000000003,-2.0626488000000003,1.6042823999999998,88.5506589,-7.80368796,-59.81681519999999
0.8,80,-0.301,-0.963,0.11800000000000001,-8.078707799999998,1.0313244000000001,-0.11459160000000004,88.52201099999998,-7.8781725000000025,-59.80535604000001
0.81,81,-0.31,-0.971,0.111,-7.161975,3.9534102,-1.7761698000000001,88.44752645999998,-7.860983760000001,-59.76524897999999
0.8200000000000001,82,-0.308,-0.975,0.106,-6.3598338,6.9327918,-3.3231564,88.36731234,-7.82660628,-59.69649402
0.8300000000000001,83,-0.3,-0.985,0.111,-5.6722842,10.313244000000001,-5.0993262,88.29855738,-7.7750400599999985,-59.59909116
0.8400000000000001,84,-0.281,-1.0070000000000001,0.14300000000000002,-5.6149884000000005,14.037471,-7.161975,88.21834326000004,-7.7062851,-59.46158124
0.85,85,-0.256,-1.0390000000000001,0.18100000000000002,-4.8701430000000006,20.5691922,-9.167328,88.16104745999998,-7.62607098,-59.25531636000001
0.86,86,-0.243,-1.073,0.21100000000000002,-3.7242269999999995,25.3247436,-10.3705398,88.08656292,-7.52293854,-59.00894442
0.87,87,-0.24600000000000002,-1.11,0.24100000000000002,-1.6042823999999998,28.9916748,-10.886202,88.02926712000001,-7.408346939999999,-58.722465420000006
0.88,88,-0.259,-1.131,0.251,0.9167328000000001,30.7678446,-11.0580894,87.99488964000004,-7.29948492,-58.41879768
0.89,89,-0.28300000000000003,-1.133,0.253,4.9274388,30.7105488,-11.1153852,88.0063488,-7.1848933200000005,-58.11512994000001
0.9,90,-0.311,-1.117,0.26899999999999996,9.740286,30.366774000000003,-11.2299768,88.08083334,-7.08176088,-57.8114622
0.91,91,-0.337,-1.09,0.282,13.5791046,30.93973200000001,-11.8602306,88.17823620000001,-6.9614397000000015,-57.50779446
0.92,92,-0.354,-1.048,0.268,15.756345,32.6013102,-13.2926256,88.2928278,-6.82392978,-57.18693798
0.93,93,-0.34,-1.038,0.20800000000000002,15.126091199999998,39.19032720000001,-15.011499599999999,88.39596024,-6.6749607000000015,-56.79732654000001
0.9400000000000001,94,-0.284,-1.156,0.006999999999999999,7.3911582,47.4409224,-13.9228794,88.40741940000002,-6.53745078,-56.32750098
0.9500000000000001,95,-0.24,-1.3619999999999999,-0.099,0.6875496,45.034498799999994,-7.734933000000002,88.36158276,-6.462966239999997,-55.88059374000001
0.9600000000000001,96,-0.16399999999999998,-1.474,0.07200000000000001,8.479778399999999,37.4714532,-2.0053530000000004,88.40168982,-6.4400479200000005,-55.50817104
0.97,97,-0.045,-1.3619999999999999,0.139,12.834259199999998,39.3622146,-2.2345362,88.48190394,-6.417129600000001,-55.11283002
0.98,98,-0.002,-1.125,0.061,17.3606274,44.6334282,-4.8701430000000006,88.60222512,-6.3655633799999976,-54.67165236
0.99,99,-0.025,-0.975,-0.003,22.6891368,48.529542600000006,-8.9954406,88.77411251999996,-6.2796196800000015,-54.18463806000001
1.0,100,-0.081,-0.897,0.021,18.5638392,51.6235158,-14.667724800000002,88.90016328,-6.13638018,-53.67470544
1.01,101,-0.125,-0.877,-0.026000000000000002,15.297978599999999,64.22859179999999,-16.902261,88.98037740000002,-5.97022236,-53.03299248
1.02,102,-0.067,-0.884,-0.11699999999999999,16.959556799999998,75.63045600000002,-15.527161800000002,89.06059152,-5.82125328,-52.2824175
1.03,103,0.015,-0.9159999999999999,-0.184,16.673077799999998,85.1988546,-13.980175199999998,89.13507606,-5.6952025200000005,-51.44016924
1.04,104,0.03,-0.943,-0.249,11.9748222,89.03767320000001,-11.5737516,89.15799438,-5.5863404999999995,-50.55208434000001
1.05,105,-0.055999999999999994,-0.9520000000000001,-0.289,3.3231564,85.1988546,-5.9014674000000005,89.08350984,-5.5405038599999985,-49.70983608
1.06,106,-0.166,-0.9640000000000001,-0.245,-4.5263682,76.31800559999998,2.6929026,88.9517295,-5.574881339999999,-48.94780193999999
1.07,107,-0.20600000000000002,-0.977,-0.193,-8.651665800000002,64.5723666,10.313244000000001,88.79130126,-5.6837433599999985,-48.30608897999999
1.08,108,-0.154,-0.9620000000000001,-0.18100000000000002,-10.657018800000001,53.34238979999999,13.8082878,88.62514344,-5.8269828599999975,-47.77323804
1.09,109,-0.077,-0.9420000000000001,-0.146,-9.740286,40.2789474,12.3758928,88.47617436,-5.9530336199999985,-47.37216744000001
1.1,110,-0.006,-0.95,-0.08199999999999999,-4.4117766,30.194886600000004,7.5630456000000015,88.39023066,-6.01032942,-47.07422928
1.11,111,0.061,-0.99,-0.012,3.7815228,24.7517856,1.8907614,88.39596024,-6.0275181600000005,-46.82785734
1.12,112,0.111,-1.04,0.027999999999999997,11.8602306,21.829699800000004,-3.7242269999999995,88.4933631,-5.9874111,-46.6101333
1.1300000000000001,113,0.134,-1.062,0.052000000000000005,18.9649098,20.7410796,-9.1100322,88.65952092,-5.895737819999999,-46.40386842
1.1400000000000001,114,0.134,-1.048,0.069,24.4653066,20.2827132,-12.891555,88.88870412,-5.76968706,-46.19760354
1.1500000000000001,115,0.109,-1.022,0.077,28.0176462,19.7097552,-14.438541599999999,89.1522648,-5.60925882,-46.00279782
1.1600000000000001,116,0.061,-0.995,0.085,28.877083199999998,19.079501399999998,-13.9228794,89.42728464000002,-5.4717489000000015,-45.81372168
1.17,117,0.021,-0.977,0.08800000000000001,26.69984280000001,17.5325148,-12.7196676,89.67938615999998,-5.3456981400000005,-45.636104700000004
1.18,118,-0.01,-0.9640000000000001,0.086,22.86102420000001,15.813640800000002,-12.3758928,89.89138061999998,-5.22537696,-45.47567646
1.19,119,-0.026000000000000002,-0.955,0.08199999999999999,18.8503182,13.6936962,-12.3758928,90.06899759999996,-5.10505578,-45.33816654
1.2,120,-0.027999999999999997,-0.9470000000000001,0.079,15.068795399999999,10.4851314,-12.4904844,90.21796668,-4.97327544,-45.22930452
1.21,121,-0.015,-0.935,0.07400000000000001,11.8602306,7.0473834,-12.0894138,90.33255828,-4.85295426,-45.16054956
1.22,122,0.002,-0.92,0.068,9.568398599999998,3.380452200000001,-11.6310474,90.42996114,-4.73836266,-45.120442499999996
1.23,123,0.025,-0.9009999999999999,0.064,7.906820400000001,-0.6302538000000001,-11.0007936,90.51017526,-4.629500640000002,-45.12617208
1.24,124,0.055999999999999994,-0.8809999999999999,0.065,6.7609043999999985,-4.4117766,-10.657018800000001,90.57893022,-4.5206386200000015,-45.16627914
1.25,125,0.073,-0.87,0.073,5.042030400000002,-8.9954406,-10.313244000000001,90.64768518,-4.38885828,-45.25795242
1.26,126,0.083,-0.862,0.078,2.6356068,-13.407217200000002,-9.9694692,90.68779224,-4.28572584,-45.38973276
1.27,127,0.092,-0.86,0.08,0.11459160000000004,-17.303331600000003,-8.9954406,90.6992514,-4.1883229800000015,-45.56162016
1.28,128,0.09699999999999999,-0.865,0.077,-1.8334656000000005,-21.371333399999997,-7.448453999999999,90.6992514,-4.102379279999999,-45.77361462
1.29,129,0.092,-0.875,0.08,-3.4377480000000005,-24.809081399999997,-5.2139178,90.68779224,-4.04508348,-46.01998656
1.3,130,0.08,-0.884,0.08900000000000001,-4.1252976000000015,-28.132237800000002,-2.5783110000000002,90.67633308,-3.98778768,-46.30073598
1.31,131,0.068,-0.8859999999999999,0.09699999999999999,-4.4117766,-30.997027799999998,0.11459160000000004,90.65341476,-3.97632852,-46.60440372
1.32,132,0.048,-0.866,0.09699999999999999,-3.9534102,-32.7731976,2.6356068,90.6419556,-3.99351726,-46.93098978
1.33,133,0.040999999999999995,-0.848,0.10099999999999999,-2.2345362,-34.262888399999994,5.042030400000002,90.64768518,-4.02789474,-47.27476458
1.34,134,0.036000000000000004,-0.836,0.102,-0.6875496,-35.4088044,6.5317212,90.6706035,-4.0794609600000005,-47.62426896
1.35,135,0.036000000000000004,-0.831,0.09699999999999999,0.4583664000000001,-36.8411994,7.734933000000002,90.71071056,-4.1310271799999985,-47.99096208
1.36,136,0.037000000000000005,-0.833,0.094,2.0053530000000004,-38.8465524,8.8235532,90.76800636,-4.20551172,-48.37484394
1.37,137,0.035,-0.8390000000000001,0.083,3.6669312000000014,-41.9978214,9.9121734,90.84249090000002,-4.28572584,-48.79310328
1.3800000000000001,138,0.018000000000000002,-0.856,0.07200000000000001,5.844171599999999,-45.72204840000001,11.172680999999999,90.93989376,-4.37739912,-49.25146968
1.3900000000000001,139,-0.011000000000000001,-0.8759999999999999,0.08199999999999999,8.193299399999999,-49.2170922,12.776963400000001,91.0716741,-4.48053156,-49.73848398
1.4000000000000001,140,-0.044000000000000004,-0.9209999999999999,0.111,9.740286,-52.0818822,14.037471,91.22064318,-4.59512316,-50.254146180000006
1.4100000000000001,141,-0.055999999999999994,-0.983,0.111,9.9121734,-52.54024860000001,14.0947668,91.37534184,-4.703985179999999,-50.78126754
1.42,142,-0.040999999999999995,-1.04,0.114,9.6256944,-46.2377106,12.2040054,91.51858134,-4.80138804,-51.23963394
1.43,143,-0.039,-1.1059999999999999,0.16399999999999998,9.224623800000002,-40.2216516,10.4278356,91.65036168,-4.88160216,-51.64070454
1.44,144,-0.046,-1.167,0.21899999999999997,5.958763200000001,-35.52339600000001,9.740286,91.74776454000002,-4.96181628,-51.9959385
1.45,145,-0.057999999999999996,-1.192,0.27399999999999997,1.432395,-33.002380800000005,10.943497800000001,91.80506034,-5.04775998,-52.32825413999999
1.46,146,-0.07400000000000001,-1.251,0.11900000000000001,-5.5576926,-38.38818600000001,13.407217200000002,91.7878716,-5.1566220000000005,-52.712136
1.47,147,-0.14300000000000002,-1.4509999999999998,-0.128,-25.496631,-44.4615408,9.8548776,91.57587714,-5.231106540000001,-53.15904324
1.48,148,-0.11800000000000001,-1.6019999999999999,0.33,-16.2147114,-24.1788276,5.6722842,91.43836722,-5.27694318,-53.39968560000001
1.49,149,-0.136,-1.6230000000000002,0.113,-4.5263682,-18.2200644,0.6302538000000001,91.40971932,-5.27694318,-53.58303216
1.5,150,-0.092,-1.703,-0.14300000000000002,-3.1512689999999997,-23.3766864,-8.7089616,91.40398974,-5.17954032,-53.81221536
1.51,151,-0.15,-1.794,-0.059000000000000004,10.886202,-21.2567418,-13.521808800000002,91.53577008,-5.03057124,-54.01848024000001
1.52,152,-0.134,-1.739,0.069,11.1153852,-10.657018800000001,-11.6310474,91.65609126,-4.91025006,-54.12161268
1.53,153,-0.023,-1.56,0.042,7.6203414,-14.32395,-4.5263682,91.74776454000002,-4.85295426,-54.25912260000001
1.54,154,0.098,-1.359,-0.057,11.2299768,-29.392745399999995,5.5003968,91.89100404,-4.893061319999998,-54.55133118
1.55,155,0.166,-1.205,-0.121,14.037471,-44.0031744,16.2147114,92.06862102,-5.00765292,-54.99823841999999
1.56,156,0.18600000000000005,-1.0070000000000001,-0.171,10.1986524,-56.78013780000001,25.9549974,92.22904926,-5.231106540000001,-55.56546684
1.57,157,0.18,-0.8140000000000001,-0.22699999999999998,1.7188740000000002,-77.46392159999998,28.6479,92.3321817,-5.46028974,-56.34468972
1.58,158,0.177,-0.654,-0.2,-2.3491277999999998,-92.7046044,24.2934192,92.40666624,-5.63790672,-57.27861126000001
1.59,159,0.187,-0.5379999999999999,-0.159,-7.5630456000000015,-96.256944,16.272007199999994,92.44104372,-5.735309579999999,-58.2411807
1.6,160,0.165,-0.486,-0.11599999999999999,-15.6990492,-91.4440968,6.2452422,92.37801834,-5.72958,-59.15218392000001
1.61,161,0.08199999999999999,-0.507,-0.051,-24.637194,-83.4799806,-2.6356068,92.22331968,-5.6436363,-59.98297302
1.62,162,0.016,-0.617,-0.018000000000000002,-31.6845774,-72.479187,-8.9381448,91.97694774,-5.51185596,-60.69917052
1.6300000000000001,163,-0.084,-0.799,-0.003,-33.116972399999995,-60.3324774,-11.3445684,91.70765748,-5.36861646,-61.29504684
1.6400000000000001,164,-0.228,-1.023,0.0,-31.741873200000004,-48.7587258,-10.084060800000001,91.43836722,-5.2425657,-61.78206114
1.6500000000000001,165,-0.344,-1.1320000000000001,-0.008,-29.507337,-38.90384820000001,-6.1879464,91.17480654,-5.17954032,-62.171672580000006
1.6600000000000001,166,-0.42100000000000004,-1.114,0.001,-25.382039399999996,-36.7839036,-1.0886202,90.9570825,-5.15089242,-62.5383657
1.6700000000000002,167,-0.461,-1.042,0.006999999999999999,-19.9389384,-34.60666320000001,4.2398892,90.79092468,-5.17954032,-62.88214050000001
1.68,168,-0.48,-0.975,0.023,-15.183387000000002,-30.252182399999995,9.568398599999998,90.66487392,-5.2654840200000015,-63.18580824000001
1.69,169,-0.489,-0.91,0.042,-9.9694692,-24.923673,13.464512999999998,90.59038938,-5.39153478,-63.43790975999999
1.7,170,-0.473,-0.879,0.05,-6.703608600000001,-19.136797199999997,14.9542038,90.55028232,-5.59207008,-63.626985899999994
1.71,171,-0.45299999999999996,-0.8690000000000001,0.048,-5.3285094000000015,-13.407217200000002,15.2406828,90.51017526,-5.735309579999999,-63.76449582
1.72,172,-0.413,-0.8759999999999999,0.047,-3.4377480000000005,-7.161975,15.068795399999999,90.48152736,-5.88427866,-63.83898036
1.73,173,-0.369,-0.9129999999999999,0.043,-0.8021411999999999,0.0,15.527161800000002,90.47579778,-6.03897732,-63.83898036
1.74,174,-0.306,-0.956,0.043,-0.9740286,3.4950437999999995,16.7303736,90.45860904,-6.2051351399999986,-63.80460287999999
1.75,175,-0.237,-0.98,0.047,-3.4377480000000005,5.3285094000000015,17.8762896,90.42423156,-6.40567044,-63.75303666000001
1.76,176,-0.172,-0.9790000000000001,0.055,-6.3025379999999975,6.0733548,18.048177,90.35547659999999,-6.589017,-63.69574086
1.77,177,-0.11699999999999999,-0.9620000000000001,0.054000000000000006,-8.136003599999999,5.958763200000001,16.959556799999998,90.26380332,-6.7609043999999985,-63.63844506
1.78,178,-0.081,-0.9420000000000001,0.049,-8.5370742,4.8128472,15.068795399999999,90.17213004,-6.9156030600000005,-63.59260842
1.79,179,-0.067,-0.92,0.052000000000000005,-8.8235532,3.380452200000001,12.776963400000001,90.07472718,-7.0416538200000005,-63.56396052
1.8,180,-0.07200000000000001,-0.889,0.05,-8.9954406,2.0053530000000004,9.682990199999999,89.98878348,-7.1333271000000025,-63.54104220000001
1.81,181,-0.09699999999999999,-0.868,0.046,-8.9381448,0.4583664000000001,6.3598338,89.8971102,-7.19635248,-63.54104220000001
1.82,182,-0.139,-0.856,0.043,-8.5370742,-0.1718874,3.5523396000000003,89.8111665,-7.2307299600000015,-63.54104220000001
1.83,183,-0.192,-0.863,0.037000000000000005,-7.448453999999999,-0.572958,0.7448454000000001,89.73668196000001,-7.242189120000001,-63.54677177999999
1.84,184,-0.24600000000000002,-0.878,0.032,-5.844171599999999,-0.3437748,-1.9480572,89.67938615999998,-7.2192707999999985,-63.55250136000001
1.85,185,-0.293,-0.89,0.035,-4.1825934,0.7448454000000001,-4.7555514,89.64500868,-7.270837019999999,-63.54104220000001
1.86,186,-0.332,-0.897,0.034,-1.6615782,2.86479,-7.448453999999999,89.62781994000002,-7.19635248,-63.5123943
1.87,187,-0.36,-0.892,0.034,1.0886202,5.443101,-9.8548776,89.62781994000002,-7.098949620000001,-63.46082808
1.8800000000000001,188,-0.38299999999999995,-0.8740000000000001,0.039,4.8128472,7.906820400000001,-12.1467096,89.66792699999998,-6.97862844,-63.38061395999999
1.8900000000000001,189,-0.397,-0.862,0.076,8.59437,12.0894138,-13.8082878,89.73668196000001,-6.8411185199999975,-63.26029278
1.9000000000000001,190,-0.397,-0.8590000000000001,0.114,11.3445684,17.18874,-14.9542038,89.84554397999999,-6.7379860800000015,-63.08267579999999
1.9100000000000001,191,-0.385,-0.865,0.14400000000000002,13.6936962,23.9496444,-15.813640800000002,89.95440599999998,-6.58328742,-62.84203344
1.9200000000000002,192,-0.358,-0.88,0.16,14.9542038,32.544014399999995,-16.558486199999994,90.06326802,-6.428588760000001,-62.52117696000001
1.93,193,-0.327,-0.893,0.17800000000000002,15.9855282,40.90920120000001,-17.7044022,90.17785962,-6.26243094,-62.10864719999999
1.94,194,-0.297,-0.91,0.191,17.8189938,48.071176200000004,-19.194093,90.2981808,-6.08481396,-61.62736248
1.95,195,-0.275,-0.932,0.217,19.9389384,53.858052,-20.5691922,90.45287946,-5.90719698,-61.08878196000001
1.96,196,-0.251,-0.948,0.22899999999999998,21.886995600000002,58.5563076,-22.0015872,90.60757812,-5.70666168,-60.49863522
1.97,197,-0.22699999999999998,-0.946,0.23,23.835052800000003,60.9627312,-23.319390600000002,90.77946552,-5.5003968,-59.89129974
1.98,198,-0.221,-0.9540000000000001,0.245,25.668518399999996,60.67625219999999,-24.522602399999997,90.97427124,-5.27694318,-59.27823468
1.99,199,-0.222,-0.9740000000000001,0.26899999999999996,26.9863218,59.0719698,-25.668518399999996,91.1862657,-5.04775998,-58.68235836
2.0,200,-0.213,-0.993,0.285,27.788463,56.6082504,-26.814434400000003,91.42690806,-4.812847199999998,-58.11512994000001
2.01,201,-0.205,-1.016,0.305,28.1895336,53.7434604,-27.960350399999996,91.65609126,-4.56074568,-57.57081984
2.02,202,-0.201,-1.043,0.32,28.074942,51.10785360000001,-28.934378999999996,91.89673362,-4.30291458,-57.04942806
2.03,203,-0.205,-1.077,0.327,28.132237800000002,47.6128098,-29.2781538,92.13737598,-4.0393539,-56.56241376000001
2.04,204,-0.203,-1.113,0.308,27.960350399999996,43.20103320000001,-28.81978740000001,92.3894775,-3.7815228,-56.121236100000004
2.05,205,-0.19699999999999998,-1.141,0.266,26.5852512,36.2682414,-27.215505,92.63584944,-3.54088044,-55.748813399999996
2.0599999999999996,206,-0.171,-1.15,0.245,24.8663772,28.934378999999996,-25.4393352,92.87076222,-3.3059676599999994,-55.44514566
2.07,207,-0.11800000000000001,-1.1320000000000001,0.261,23.0902074,19.767051000000002,-23.2620948,93.08848626,-3.08824362,-55.2331512
2.0799999999999996,208,-0.061,-1.084,0.268,22.2307704,8.9381448,-22.058882999999998,93.3062103,-2.87624916,-55.13001876
2.09,209,-0.02,-1.014,0.221,25.78311,2.9220858,-23.204798999999998,93.56404139999998,-2.64706596,-55.08418212
2.0999999999999996,210,0.016,-0.9590000000000001,0.146,30.8251404,7.333862400000001,-25.8977016,93.87343872,-2.38923486,-54.98677925999999
2.11,211,0.16,-1.074,-0.063,22.058882999999998,29.736520199999998,-28.2468294,94.0797036,-2.13713334,-54.67165236
2.1199999999999997,212,0.312,-1.5,-0.349,-23.835052800000003,37.24227,-21.944291399999997,93.8218725,-1.95378678,-54.29350008
2.13,213,0.41600000000000004,-2.1069999999999998,-0.374,-74.31265259999998,1.6615782,-0.6302538000000001,93.06556794,-1.95378678,-54.28777049999999
2.1399999999999997,214,0.595,-2.104,-0.5379999999999999,-79.24009140000003,6.875496000000001,22.6891368,92.25769716,-2.19442914,-54.23620428
2.15,215,0.73,-1.693,-0.7809999999999999,-66.463128,16.7876694,32.8877892,91.57014756,-2.52674478,-54.09296478
2.1599999999999997,216,0.441,-1.1179999999999999,-0.87,-38.7892566,3.7242269999999995,31.79916900000001,91.17480654,-2.84760126,-54.07004645999999
2.17,217,0.047,-0.743,-0.684,-4.583664,-21.314037600000002,29.507337,91.14615864,-3.13408026,-54.28777049999999
2.1799999999999997,218,-0.221,-0.507,-0.414,8.9954406,-49.7327544,17.8189938,91.27220940000001,-3.28304934,-54.78051438
2.19,219,-0.354,-0.41,-0.28600000000000003,-1.6615782,-71.9635248,2.8074942000000003,91.3008573,-3.27731976,-55.49671188
2.1999999999999997,220,-0.327,-0.441,-0.249,-16.157415599999997,-86.34477059999998,-9.568398599999998,91.1862657,-3.15699858,-56.35041930000001
2.21,221,-0.25,-0.624,-0.179,-24.5798982,-97.23097259999999,-20.5118964,90.99718956,-2.91062664,-57.30725916
2.2199999999999998,222,-0.152,-0.917,-0.107,-24.637194,-100.0384668,-27.501984000000004,90.80811342,-2.59549974,-58.29274692
2.23,223,-0.025,-1.18,-0.046,-22.5745452,-99.121734,-32.658606,90.63622602,-2.2345362,-59.2725051
2.2399999999999998,224,0.13,-1.2890000000000001,0.012,-19.9389384,-95.2829154,-33.9191136,90.47579778,-1.8621134999999998,-60.21215622
2.25,225,0.259,-1.255,0.04,-16.902261,-89.49603959999996,-33.3461556,90.34401744,-1.4896908000000002,-61.09451154
2.26,226,0.363,-1.137,0.031,-7.2192707999999985,-83.3080932,-30.997027799999998,90.2981808,-1.1573751600000002,-61.91957106
2.27,227,0.36,-1.02,0.031,5.443101,-77.8649922,-26.929026,90.37839492,-0.8594370000000001,-62.68733478
2.28,228,0.284,-0.922,0.043,11.745639,-74.02617359999998,-23.204798999999998,90.51590484,-0.6016058999999999,-63.41499144
2.29,229,0.16899999999999998,-0.861,0.078,10.7143146,-69.8435802,-20.2827132,90.6419556,-0.3724227000000001,-64.09681146
2.3,230,0.066,-0.855,0.09300000000000001,7.161975,-66.0620574,-19.308684600000007,90.7278993,-0.15469866,-64.74998358
2.31,231,-0.026000000000000002,-0.885,0.092,3.7242269999999995,-61.9367598,-18.449247600000003,90.77373594,0.05156622,-65.35731906
2.32,232,-0.098,-0.907,0.08199999999999999,0.9740286,-58.9573782,-16.959556799999998,90.79092468,0.24064236,-65.93600663999999
2.3299999999999996,233,-0.139,-0.917,0.07200000000000001,-1.2032118,-58.9573782,-15.2406828,90.78519509999998,0.41825934,-66.51469422
2.34,234,-0.152,-0.9109999999999999,0.06,-4.1825934,-61.592985,-14.266654199999998,90.74508804,0.5844171599999999,-67.1220297
2.3499999999999996,235,-0.136,-0.889,0.047,-8.193299399999999,-64.97343719999999,-14.32395,90.65914434,0.7448454000000001,-67.76374266
2.36,236,-0.08900000000000001,-0.87,0.024,-11.745639,-67.7809314,-15.6417534,90.53882316,0.92246238,-68.43410352000001
2.3699999999999997,237,-0.013999999999999999,-0.879,0.005,-13.8655836,-71.1613836,-17.8762896,90.39558366,1.12299768,-69.13884186
2.38,238,0.049,-0.9159999999999999,0.002,-13.178034,-72.88025760000002,-19.9962342,90.25807374,1.3464512999999998,-69.85503936
2.3899999999999997,239,0.098,-0.971,0.005,-11.2872726,-74.1407652,-21.199446,90.13202298,1.5813640800000002,-70.58842560000002
2.4,240,0.126,-1.0170000000000001,0.012,-9.0527364,-74.65642740000001,-20.626488000000002,90.02889053999998,1.81054728,-71.32754142
2.4099999999999997,241,0.131,-1.041,0.024,-6.3025379999999975,-73.45321560000002,-18.7357266,89.94867642,2.01681216,-72.05519808
2.42,242,0.10099999999999999,-1.048,0.047,-2.5783110000000002,-71.5624542,-15.6417534,89.90856936,2.19442914,-72.76566600000002
2.4299999999999997,243,0.049,-1.044,0.077,1.0886202,-69.8435802,-12.032118,89.8971102,2.33193906,-73.4532156
2.44,244,-0.009000000000000001,-1.033,0.094,3.8961144,-66.5777196,-8.307891,89.92002852,2.42934192,-74.1121173
2.4499999999999997,245,-0.055,-1.024,0.11,5.3285094000000015,-61.9367598,-5.7868758000000025,89.96586515999998,2.4923672999999997,-74.71945278000003
2.46,246,-0.09,-1.02,0.129,5.6149884000000005,-58.842786600000004,-3.6669312000000014,90.00597222,2.5496631,-75.30386994
2.4699999999999998,247,-0.11800000000000001,-1.015,0.133,5.6722842,-56.66554620000001,-1.4896908000000002,90.04607927999999,2.578311,-75.86536878
2.48,248,-0.135,-1.0090000000000001,0.126,5.6149884000000005,-54.6601932,0.9167328000000001,90.08618634,2.58404058,-76.40394930000002
2.4899999999999998,249,-0.136,-0.996,0.127,5.958763200000001,-53.39968560000001,3.6669312000000014,90.13202298,2.56685184,-76.93107066
2.5,250,-0.126,-0.977,0.136,6.589017,-53.22779820000001,6.589017,90.19504836000002,2.49809688,-77.45246244
2.51,251,-0.106,-0.9590000000000001,0.14800000000000002,7.3911582,-53.628868800000006,9.6256944,90.25234416,2.42361234,-77.98531338000002
2.52,252,-0.075,-0.941,0.153,8.651665800000002,-54.8320806,13.120738199999998,90.32682870000001,2.30902074,-78.52962348
2.53,253,-0.039,-0.927,0.157,10.828906199999999,-55.977996600000004,15.928232399999999,90.42423156,2.17151082,-79.07966316
2.54,254,0.002,-0.9259999999999999,0.17,13.0061466,-57.8114622,18.3919518,90.53882316,2.01108258,-79.65262116
2.55,255,0.035,-0.9390000000000001,0.184,14.209358400000001,-61.6502808,20.5691922,90.68779224,1.8334656000000005,-80.26568621999998
2.56,256,0.055,-0.96,0.191,14.438541599999999,-66.23394479999999,22.803728399999997,90.81957258,1.6329303,-80.91885834
2.57,257,0.066,-0.982,0.193,14.0947668,-70.76031300000002,25.0955604,90.9570825,1.41520626,-81.62359668
2.5799999999999996,258,0.069,-1.004,0.19399999999999998,13.464512999999998,-75.2866812,27.4446882,91.08886284,1.1745639,-82.36844208
2.59,259,0.055999999999999994,-1.024,0.21,12.6623718,-79.9849368,29.5646328,91.21491359999999,0.92246238,-83.16485370000002
2.5999999999999996,260,0.034,-1.034,0.23,11.9748222,-84.62589659999998,31.5699858,91.34669394,0.65317212,-84.00710196
2.61,261,0.012,-1.0290000000000001,0.242,11.5737516,-88.23553199999998,32.7159018,91.46701512,0.3724227000000001,-84.8837277
2.6199999999999997,262,-0.012,-1.022,0.245,11.6310474,-89.954406,33.518043,91.59306588,0.09167328,-85.78327176
2.63,263,-0.038,-1.011,0.245,11.6310474,-91.27220940000001,34.1482968,91.72484622,-0.18907614,-86.69427498
2.6399999999999997,264,-0.064,-1.001,0.228,12.3758928,-91.21491359999999,34.0337052,91.86808572,-0.47555514,-87.6052782
2.65,265,-0.08199999999999999,-1.011,0.212,14.1520626,-88.52201099999998,32.6013102,92.0457027,-0.7448454000000001,-88.48763352
2.6599999999999997,266,-0.096,-1.04,0.198,16.673077799999998,-82.39136040000002,29.5646328,92.23477884,-0.98548776,-89.30696345999998
2.67,267,-0.109,-1.109,0.177,17.5325148,-73.911582,25.78311,92.44104372,-1.19175264,-90.04607927999999
2.6799999999999997,268,-0.094,-1.172,0.11800000000000001,17.4179232,-64.9161414,21.4286292,92.64157902,-1.3579104599999998,-90.69352182
2.69,269,-0.08,-1.217,0.031,15.4125702,-58.2698286,18.048177,92.81919599999999,-1.4896908000000002,-91.27793898
2.6999999999999997,270,-0.092,-1.222,-0.033,10.7143146,-55.86340500000001,16.2147114,92.94524676,-1.61001198,-91.83370824
2.71,271,-0.10800000000000001,-1.206,-0.094,7.0473834,-55.11855960000001,15.527161800000002,93.03692004,-1.7246035799999997,-92.3894775
2.7199999999999998,272,-0.12,-1.151,-0.16399999999999998,5.6149884000000005,-57.63957480000001,16.615782,93.12286374,-1.83919518,-92.9624355
2.73,273,-0.142,-1.081,-0.222,4.7555514,-63.311859,18.907614,93.20307786,-1.9767051,-93.59841887999998
2.7399999999999998,274,-0.128,-1.008,-0.311,2.0626488000000003,-69.32791800000001,20.912967000000002,93.25464408,-2.12567418,-94.29169806
2.75,275,-0.078,-0.9209999999999999,-0.431,-3.2658606,-76.03152659999998,21.371333399999997,93.22599618,-2.2746432600000004,-95.05946178
2.76,276,-0.015,-0.852,-0.469,-9.167328,-84.4540092,19.480572,93.18015954,-2.40069402,-95.90743962
2.77,277,0.044000000000000004,-0.825,-0.402,-14.4958374,-88.69389840000002,16.272007199999994,93.08275668,-2.48663772,-96.78979494
2.78,278,0.077,-0.841,-0.28600000000000003,-18.907614,-85.25615040000002,12.2040054,92.93951718,-2.54393352,-97.64350236
2.79,279,0.105,-0.907,-0.175,-24.522602399999997,-75.74504759999998,7.3911582,92.7332523,-2.5611222600000003,-98.39407734
2.8,280,0.099,-0.998,-0.115,-29.67922440000001,-65.08802879999999,1.8907614,92.45823246,-2.52674478,-99.04151988
2.81,281,0.048,-1.072,-0.07400000000000001,-31.1689152,-53.22779820000001,-2.4637194,92.17175346,-2.46944898,-99.56864124
2.82,282,-0.031,-1.117,-0.06,-27.788463,-43.029145799999995,-4.1252976000000015,91.90819278,-2.40069402,-99.99835974
2.8299999999999996,283,-0.091,-1.128,-0.064,-19.595163600000006,-38.27359439999999,-2.1199446,91.7305758,-2.36058696,-100.37651202
2.84,284,-0.107,-1.1340000000000001,-0.065,-7.8495246,-39.018439799999996,4.9274388,91.67328,-2.38923486,-100.76612346
2.8499999999999996,285,-0.084,-1.1440000000000001,-0.04,-0.3437748,-44.8626114,12.891555,91.69046874,-2.4923672999999997,-101.2130307
2.86,286,-0.083,-1.137,0.01,1.8907614,-51.852699,18.9649098,91.73630538,-2.65279554,-101.73442248
2.8699999999999997,287,-0.105,-1.092,0.062,1.3750992,-59.1292656,23.204798999999998,91.7878716,-2.84760126,-102.32456922
2.88,288,-0.138,-1.033,0.09699999999999999,0.40107059999999994,-67.7809314,26.1268848,91.83943782,-3.0653253000000005,-103.00065966
2.8899999999999997,289,-0.16699999999999998,-0.991,0.107,-0.11459160000000004,-75.05749800000002,28.132237800000002,91.89100404,-3.30023808,-103.75696422
2.9,290,-0.175,-0.968,0.115,0.286479,-79.87034519999997,29.67922440000001,91.95402942,-3.5523396000000003,-104.55337584000002
2.9099999999999997,291,-0.157,-0.9620000000000001,0.133,0.7448454000000001,-81.53192340000003,30.93973200000001,92.02851396,-3.810170700000002,-105.37270577999998
2.92,292,-0.121,-0.958,0.16399999999999998,-0.6302538000000001,-79.06820400000002,31.5699858,92.08580976,-4.07373138,-106.1691174
2.9299999999999997,293,-0.076,-0.943,0.19,-2.7501984,-74.82831479999999,31.340802600000004,92.12591682,-4.33729206,-106.91969238
2.94,294,-0.040999999999999995,-0.9179999999999999,0.204,-5.3858052,-72.3645954,30.194886600000004,92.13737598,-4.58939358,-107.64734904
2.9499999999999997,295,-0.032,-0.89,0.221,-7.6203414,-69.4425096,28.762491600000004,92.13737598,-4.83003594,-108.34635779999999
2.96,296,-0.042,-0.873,0.20600000000000002,-10.4278356,-66.2912406,27.903054600000004,92.09726892,-5.06494872,-109.01671866
2.9699999999999998,297,-0.08199999999999999,-0.863,0.171,-13.636400400000001,-63.1972674,27.1582092,92.02851396,-5.29413192,-109.65270204
2.98,298,-0.14400000000000002,-0.861,0.133,-16.329303,-59.8168152,26.929026,91.92538152,-5.5290447,-110.26003752
2.9899999999999998,299,-0.21899999999999997,-0.862,0.102,-17.8189938,-56.2071798,26.9863218,91.81078992,-5.76395748,-110.82726594
3.0,300,-0.29,-0.86,0.085,-17.18874,-52.19647379999999,27.215505,91.70192790000002,-6.02178858,-111.36011688
3.01,301,-0.34299999999999997,-0.848,0.071,-15.9855282,-47.498218200000004,27.903054600000004,91.59306588,-6.2738901,-111.84140159999998
3.02,302,-0.375,-0.8290000000000001,0.06,-14.037471,-43.602103799999995,28.877083199999998,91.50712218,-6.53745078,-112.28830883999998
3.03,303,-0.396,-0.809,0.051,-11.45916,-39.1330314,30.595957199999997,91.4440968,-6.82392978,-112.68364986000002
3.04,304,-0.4,-0.7829999999999999,0.037000000000000005,-8.7089616,-33.116972399999995,32.4867186,91.40398974,-7.12759752,-113.02742466
3.05,305,-0.387,-0.7509999999999999,0.038,-5.3858052,-25.9549974,34.7212548,91.386801,-7.49429064,-113.29671492
3.06,306,-0.3720000000000001,-0.725,0.043,-1.2605076000000002,-17.8762896,36.7266078,91.39826016,-7.8495246,-113.48579106
3.07,307,-0.348,-0.7020000000000001,0.034,2.8074942000000003,-8.7089616,38.61736920000001,91.4440968,-8.22767688,-113.58319392
3.08,308,-0.322,-0.684,0.027999999999999997,6.8182002000000015,2.0053530000000004,40.4508348,91.51285176,-8.62874748,-113.57173476
3.09,309,-0.29100000000000004,-0.665,0.033,12.6623718,13.6936962,42.91455420000001,91.62171378,-9.06419556,-113.44568400000001
3.0999999999999996,310,-0.254,-0.644,0.042,18.334656,22.1161788,45.3209778,91.77068286,-9.53402112,-113.23941912
3.11,311,-0.23399999999999999,-0.62,0.04,23.204798999999998,27.903054600000004,47.4409224,91.95975899999999,-10.02103542,-112.97012886
3.1199999999999997,312,-0.217,-0.5870000000000001,0.01,27.3873924,31.79916900000001,49.61816279999999,92.17748304,-10.53096804,-112.66646112
3.13,313,-0.19899999999999998,-0.547,-0.005,31.741873200000004,34.091001,51.9099948,92.44104372,-11.06381898,-112.34560464
3.1399999999999997,314,-0.179,-0.514,0.015,36.03905820000001,34.8931422,54.0299394,92.7332523,-11.62531782,-112.013289
3.15,315,-0.134,-0.5,0.025,39.018439799999996,35.17962120000001,55.92070079999999,93.05983836,-12.2040054,-111.68670294
3.1599999999999997,316,-0.075,-0.493,0.015,38.8465524,34.66395900000001,57.1812084,93.38069484,-12.79415214,-111.36584646
3.17,317,0.002,-0.478,0.021,36.554720399999994,33.3461556,57.58227899999999,93.67863300000002,-13.39575804,-111.06217872
3.1799999999999997,318,0.068,-0.48700000000000004,0.055,34.4347758,31.455394199999997,57.52498320000001,93.95938242,-13.99163436,-110.7814293
3.19,319,0.126,-0.545,0.042,30.7678446,29.0489706,58.842786600000004,94.20575436,-14.59896984,-110.52359820000001
3.1999999999999997,320,0.168,-0.609,0.024,23.3766864,23.0329116,62.3951262,94.38910092,-15.21776448,-110.34025164
3.21,321,0.20199999999999999,-0.7020000000000001,0.008,15.527161800000002,12.4331886,68.0674104,94.52661084,-15.8995845,-110.26576710000002
3.2199999999999998,322,0.245,-0.8109999999999999,-0.022000000000000002,6.9327918,-1.9480572,75.2866812,94.62401369999999,-16.6444299,-110.34598122
3.23,323,0.326,-0.873,-0.08,-2.8074942000000003,-17.761698000000006,82.62054359999998,94.67557992,-17.44084152,-110.60381232
3.2399999999999998,324,0.41,-0.871,-0.12300000000000001,-12.0894138,-36.32553720000001,88.4647152,94.69849824,-18.28308978,-111.05644914
3.25,325,0.47,-0.826,-0.109,-17.3606274,-57.1812084,91.386801,94.73860529999999,-19.09096056,-111.73253958
3.26,326,0.461,-0.7509999999999999,-0.067,-16.4438946,-68.98414319999999,90.4700682,94.8531969,-19.9102905,-112.54041035999998
3.27,327,0.46299999999999997,-0.637,-0.078,-16.615782,-73.911582,85.084263,94.99070682,-20.67232464,-113.39411778000002
3.28,328,0.46299999999999997,-0.4970000000000001,-0.085,-16.4438946,-76.31800559999998,74.9429064,95.15113506,-21.32549676,-114.27074352
3.29,329,0.436,-0.40399999999999997,-0.040999999999999995,-14.381245800000002,-79.18279559999998,63.1399716,95.34594078,-21.8583477,-115.17028758
3.3,330,0.364,-0.384,0.036000000000000004,-11.745639,-81.8756982,53.7434604,95.58658314,-22.26514788,-116.09847954
3.31,331,0.27699999999999997,-0.444,0.063,-10.886202,-83.36538900000002,50.0192334,95.85014382,-22.654759320000004,-117.03813066
3.32,332,0.222,-0.53,0.024,-12.4331886,-86.45936219999999,50.9359662,96.1137045,-23.05010034,-118.01788884
3.33,333,0.159,-0.654,0.0,-11.9748222,-92.246238,55.6915176,96.42310182,-23.474089260000003,-119.07213156
3.34,334,0.1,-0.778,-0.01,-12.032118,-97.23097259999999,61.764872399999994,96.76687662,-23.9496444,-120.18939966
3.3499999999999996,335,0.054000000000000006,-0.843,-0.015,-13.178034,-103.991877,67.895523,97.13356974,-24.448117860000004,-121.39834104
3.36,336,0.027000000000000003,-0.861,-0.027000000000000003,-14.037471,-109.0339074,72.70837019999998,97.54036992,-24.99815754,-122.67603738
3.3699999999999997,337,0.0,-0.841,-0.064,-18.048177,-110.06523179999999,75.4012728,97.92998136,-25.56538596,-123.97665204
3.38,338,-0.040999999999999995,-0.7909999999999999,-0.084,-22.2307704,-108.0598788,76.48989300000002,98.28521532,-26.138343960000004,-125.27153712
3.3899999999999997,339,-0.10400000000000001,-0.727,-0.09,-22.5745452,-105.9399342,77.635809,98.64617886,-26.71703154,-126.55496304
3.4,340,-0.161,-0.669,-0.064,-22.6891368,-103.991877,78.09417540000003,99.00141282,-27.29571912,-127.8269298
3.4099999999999997,341,-0.209,-0.617,-0.027999999999999997,-22.86102420000001,-103.0751442,76.6617804,99.37383552,-27.857217960000003,-129.09889656
3.42,342,-0.23399999999999999,-0.58,-0.028999999999999998,-23.892348600000002,-100.0384668,73.96887779999999,99.72906948,-28.39006890000001,-130.34221542
3.4299999999999997,343,-0.221,-0.569,-0.012,-23.14750320000001,-92.7619002,70.24465079999999,100.0671147,-28.89427194,-131.51104974
3.44,344,-0.174,-0.589,0.025,-20.5691922,-83.07891,66.23394479999999,100.38797118,-29.37555666,-132.57102204
3.4499999999999997,345,-0.135,-0.618,-0.001,-20.5691922,-77.2920342,64.97343719999999,100.67445018,-29.839652640000004,-133.56796896
3.46,346,-0.07400000000000001,-0.619,-0.024,-20.3973048,-81.4173318,66.69231119999999,101.0124954,-30.32093736,-134.62221168
3.4699999999999998,347,-0.034,-0.603,0.034,-24.2361234,-91.386801,69.21332640000001,101.37918852,-30.7964925,-135.80823474
3.48,348,-0.002,-0.54,0.046,-27.043617600000005,-98.77795920000001,72.93755340000001,101.78025912,-31.2835068,-137.09166066
3.4899999999999998,349,0.019,-0.462,0.085,-28.7051958,-103.36162320000001,76.48989300000002,102.21570720000001,-31.78770984,-138.44957112000003
3.5,350,0.024,-0.358,0.156,-27.3300966,-108.86202,79.1254998,102.72563982,-32.280453720000004,-139.89342528
3.51,351,0.011000000000000001,-0.273,0.18600000000000005,-19.9389384,-114.01864199999999,81.18814859999998,103.35016404,-32.784656760000004,-141.4060344
3.52,352,0.003,-0.25,0.18899999999999997,-14.438541599999999,-112.4716554,82.7351352,104.0491728,-33.2888598,-142.9243731
3.53,353,0.03,-0.264,0.23199999999999998,-12.776963400000001,-102.7886652,83.5945722,104.71953366,-33.81598116,-144.34530894000005
3.54,354,0.05,-0.304,0.303,-9.6256944,-96.4288314,84.39671340000002,105.40708326,-34.3488321,-145.72040814
3.55,355,0.047,-0.401,0.159,-6.3025379999999975,-91.9024632,85.82910840000002,106.1118216,-34.88168304,-147.05540028
3.56,356,0.10300000000000001,-0.461,0.083,-19.9962342,-78.38065440000003,88.52201099999998,106.62175422,-35.48901852,-148.26434166
3.57,357,0.129,-0.469,0.08,-34.37748,-75.343977,95.2829154,106.99417692,-36.15937938,-149.48474219999997
3.58,358,0.057999999999999996,-0.493,0.043,-39.7059894,-104.3356518,105.0804972,107.56713492000002,-36.82401066,-151.09475418
3.59,359,-0.048,-0.597,-0.035,-47.555514,-152.5214196,118.8314892,108.46667898,-37.442805299999996,-153.34647912
3.5999999999999996,360,-0.106,-0.792,0.013000000000000001,-58.9000824,-213.0830802,139.0569066,109.77875279999999,-37.99284498,-156.41753400000005
3.61,361,-0.079,-0.993,0.235,-66.3485364,-263.78986319999996,162.720072,111.50335638,-38.51996634,-160.23343428
3.6199999999999997,362,-0.132,-1.045,0.564,-64.51507079999999,-276.45223500000003,178.53371280000005,113.45141357999998,-39.04135812,-164.3243544
3.63,363,-0.9570000000000001,-1.0090000000000001,0.645,-33.9191136,-268.2016398,190.1647602,115.74324558,-39.5913978,-168.42673368
3.6399999999999997,364,-2.202,-1.003,0.767,8.4224826,-265.279554,215.8905744,118.61376516,-40.23311076,-172.70672994
3.65,365,-3.365,-1.07,1.042,45.4355694,-240.2412894,232.2771732,121.8395187,-40.97222658,-176.88932334
3.6599999999999997,366,-3.975,-2.207,1.215,103.6481022,-197.956989,173.60627399999996,125.13975678,-41.28735348,179.72546544
3.67,367,-3.9989999999999997,-2.847,1.329,22.2880662,-66.6350154,123.3005616,126.47474892,-41.87750022,178.06961682000005
3.6799999999999997,368,-3.989,0.32299999999999995,1.33,-246.8303064,54.14453099999999,251.242083,124.96786938,-44.22089844,176.60284434
3.69,369,-3.863,1.891,1.6,-35.9244666,13.750992000000002,372.4799958,126.71539128,-47.31487163999999,173.66929938
3.6999999999999997,370,-3.464,0.845,2.94,498.4161642,-147.99505140000005,407.946096,135.94001508,-49.37179086,168.14598426
3.71,371,-2.459,-0.685,2.102,302.1780492000001,-66.00476160000001,342.1705176000001,142.58059830000005,-51.07347612,163.51075404
3.7199999999999998,372,-2.081,0.425,1.771,175.26785220000005,16.272007199999994,313.9809840000001,147.49657794,-52.998615,159.53442552
3.73,373,-2.037,0.08800000000000001,1.51,197.7851016,33.5753388,282.9266604,152.59017456,-54.70030026000001,155.71279566
3.7399999999999998,374,-1.685,-0.153,1.32,139.85904779999998,62.5670136,250.1534628,156.89308913999997,-56.33323056,152.20629269999995
3.75,375,-1.597,-0.111,1.0759999999999998,109.9506402,65.4890994,226.4330016,160.89233598,-57.7541664,148.76281511999997
3.76,376,-1.874,-0.5720000000000001,1.058,105.7680468,74.31265259999998,205.06166819999999,164.78845038,-59.06624022,145.44538830000005
3.77,377,-1.781,-0.29,1.158,126.6810138,68.8695516,214.6300668,169.36638480000005,-60.2178858,141.62375844000005
3.78,378,-1.871,-0.3,1.171,61.764872399999994,83.4799806,203.22820259999997,173.36563164,-61.34088348,137.75056236
3.79,379,-1.536,-0.113,0.988,52.82672760000001,109.8360486,176.06999340000004,177.03829242,-62.57274318,134.1867636
3.8,380,-1.272,-0.171,0.84,50.1911208,110.7527814,149.828517,-179.52493013999995,-63.70147044,130.89798467999998
3.81,381,-0.7140000000000001,-0.126,0.5870000000000001,41.5967508,94.3088868,139.0569066,-176.15020752,-64.57809618,127.60347618
3.82,382,-0.525,0.33,0.5760000000000001,41.7113424,68.2392978,140.947668,-172.59213834,-65.11094712,124.13135069999998
3.83,383,-0.845,0.132,0.626,32.6013102,49.61816279999999,137.6245116,-169.14293118,-65.38023738,120.69933228
3.84,384,-0.823,0.096,0.63,29.8511118,44.8626114,127.13938020000002,-165.91144806,-65.53493604,117.47357874
3.8499999999999996,385,-0.8,0.122,0.581,20.454600600000006,36.7839036,118.4304186,-162.99509184,-65.55785436,114.49419714
3.86,386,-0.8240000000000001,0.18100000000000002,0.505,7.448453999999999,31.054323600000004,107.08585020000001,-160.47407664,-65.51201771999999,111.80702412
3.8699999999999997,387,-0.772,0.217,0.44,5.0993262,26.5852512,99.0644382,-158.1937038,-65.40315569999999,109.35476388
3.88,388,-0.6579999999999999,0.21600000000000005,0.409,3.2085647999999996,22.2880662,86.2874748,-156.24564660000001,-65.27137536000001,107.24627844
3.8899999999999997,389,-0.66,0.431,0.317,-3.0366774,18.1054728,80.8443738,-154.52677260000004,-65.09375838000001,105.32113956
3.9,390,-0.589,0.408,0.265,1.0313244000000001,11.0580894,76.9482594,-152.88238314,-64.83592727999999,103.52778102
3.9099999999999997,391,-0.662,0.39899999999999997,0.21,-2.0053530000000004,3.380452200000001,67.9528188,-151.60468680000002,-64.54944828000001,102.09538602
3.92,392,-0.628,0.381,0.185,0.5156622000000001,-0.7448454000000001,55.4623344,-150.60201030000005,-64.27442844,100.9838475
3.9299999999999997,393,-0.606,0.532,0.155,4.1825934,-0.1718874,51.1651494,-149.65090002,-64.02232692,99.981171
3.94,394,-0.637,0.5489999999999999,0.18,4.0680017999999984,-5.6149884000000005,48.9306132,-148.82011092,-63.72438876,99.09881568
3.9499999999999997,395,-0.619,0.5529999999999999,0.21899999999999997,8.078707799999998,-8.078707799999998,39.8778768,-148.01224014,-63.43218018,98.31386322
3.96,396,-0.551,0.622,0.237,9.8548776,-6.8182002000000015,36.096354,-147.38198634,-63.18580824000001,97.72371648
3.9699999999999998,397,-0.623,0.606,0.305,9.5111028,-10.026765,35.122325399999994,-146.81475791999995,-62.91651798,97.2023247
3.98,398,-0.693,0.493,0.318,10.7716104,-12.5477802,32.142943800000005,-146.32774362,-62.64149814,96.77833578
3.9899999999999998,399,-0.718,0.535,0.303,9.453807,-10.7716104,28.2468294,-145.89802512,-62.39512620000001,96.40591308
4.0,400,-0.7509999999999999,0.441,0.294,15.126091199999998,-7.161975,21.4286292,-145.4167404,-62.20605006,96.05067912
4.01,401,-0.775,0.42200000000000004,0.313,16.615782,-3.380452200000001,13.407217200000002,-145.07869518,-62.10864719999999,95.8558734
4.02,402,-0.8029999999999999,0.46299999999999997,0.307,14.610429000000002,0.1718874,4.8701430000000006,-144.84951198,-62.07999930000001,95.7699297
4.03,403,-0.805,0.465,0.321,14.896907999999998,2.2345362,-2.9793816000000004,-144.71773163999995,-62.12010636,95.79284802
4.04,404,-0.8290000000000001,0.47,0.364,13.3499214,3.380452200000001,-10.943497800000001,-144.71200206,-62.21177964,95.9418171
4.05,405,-0.8340000000000001,0.439,0.408,10.084060800000001,5.958763200000001,-16.2147114,-144.74064995999996,-62.32637124,96.09651576
4.06,406,-0.858,0.418,0.418,8.59437,10.313244000000001,-20.5691922,-144.85524156,-62.52690654000001,96.32569896
4.07,407,-0.889,0.414,0.39799999999999996,7.6776372,14.5531332,-24.4653066,-144.99848106,-62.78473764,96.56634132
4.08,408,-0.905,0.397,0.366,6.8182002000000015,18.162768600000003,-29.4500412,-145.19328678000005,-63.09986454,96.8585499
4.09,409,-0.9129999999999999,0.397,0.337,5.3285094000000015,20.626488000000002,-35.2942128,-145.4740362,-63.46655766,97.23097259999999
4.1,410,-0.925,0.35700000000000004,0.33399999999999996,4.8128472,22.058882999999998,-41.9978214,-145.83499974,-63.87335784,97.689339
4.109999999999999,411,-0.95,0.36,0.35700000000000004,4.2398892,24.694489800000003,-47.8992888,-146.31628446,-64.3431834,98.26802658
4.12,412,-0.973,0.34299999999999997,0.365,4.297185,25.2674478,-53.68616460000001,-146.9064312,-64.84165686,98.97276492
4.13,413,-0.982,0.322,0.373,3.380452200000001,25.78311,-57.4676874,-147.59971037999995,-65.36304864,99.76917654
4.14,414,-0.997,0.314,0.385,2.7501984,26.5852512,-59.64492779999999,-148.36174451999997,-65.89589957999999,100.62861354
4.1499999999999995,415,-1.01,0.297,0.39399999999999996,4.583664,28.0176462,-61.020027,-149.14669698,-66.44593926,101.52815759999999
4.16,416,-1.0190000000000001,0.281,0.41200000000000003,6.0733548,30.194886600000004,-62.96808420000001,-149.97175650000003,-67.01889725999999,102.49072704
4.17,417,-1.04,0.275,0.4270000000000001,7.3911582,32.658606,-64.5723666,-150.83692308,-67.61477357999999,103.50486270000002
4.18,418,-1.058,0.275,0.444,8.479778399999999,35.3515086,-66.2912406,-151.74219672,-68.23356822000001,104.57056458
4.1899999999999995,419,-1.063,0.29100000000000004,0.45799999999999996,9.9694692,37.3568616,-66.86419860000001,-152.68184784,-68.8695516,105.67637352
4.2,420,-1.067,0.29,0.47200000000000003,15.011499599999999,39.3622146,-65.4890994,-153.56420315999995,-69.4998054,106.78218246000002
4.21,421,-1.067,0.282,0.48100000000000004,18.907614,40.5081306,-64.9161414,-154.45228806,-70.14151836,107.92236888
4.22,422,-1.084,0.251,0.483,20.8556712,41.3675676,-63.25456320000001,-155.32891379999995,-70.77750174,109.07401446
4.2299999999999995,423,-1.083,0.24,0.449,23.835052800000003,44.4615408,-61.5356892,-156.16543248,-71.43067386,110.20274172000002
4.24,424,-1.034,0.217,0.424,27.960350399999996,47.498218200000004,-59.58763199999999,-156.93319619999997,-72.09530514000002,111.30282108
4.25,425,-0.9890000000000001,0.185,0.42,33.804522,50.5348956,-57.92605379999999,-157.6207458,-72.77139558,112.37998212
4.26,426,-1.0,0.195,0.376,37.299565799999996,51.0505578,-56.149884,-158.29110666,-73.4532156,113.46287274
4.27,427,-1.052,0.19899999999999998,0.33399999999999996,41.6540466,49.5035712,-55.86340500000001,-158.995845,-74.1121173,114.63743664
4.28,428,-1.056,0.2,0.33899999999999997,48.4722468,46.2377106,-54.6601932,-159.71777208,-74.73664152,115.88648508
4.29,429,-1.056,0.188,0.319,50.8786704,44.34694920000001,-53.1705024,-160.47407664,-75.33251784000002,117.19282932000002
4.3,430,-1.046,0.20600000000000002,0.287,45.4355694,39.3622146,-52.2537696,-161.36789112000002,-75.86536878,118.59084684
4.31,431,-1.024,0.22399999999999998,0.26899999999999996,41.0810886,33.9191136,-51.9672906,-162.4908888,-76.35238308000002,120.17221092
4.32,432,-1.015,0.24100000000000002,0.276,38.961144,32.4294228,-51.7954032,-163.74566682,-76.81074948,121.86243702
4.33,433,-1.002,0.249,0.326,37.586044799999996,37.0703826,-51.2224452,-165.03482232,-77.30349336,123.56985186
4.34,434,-0.95,0.278,0.371,39.5913978,40.680018,-48.8733174,-166.27814118,-77.81915556,125.2486188
4.35,435,-0.889,0.255,0.40399999999999997,47.841993,29.2781538,-48.185767799999994,-167.61313332,-78.19730784,127.11073229999998
4.36,436,-0.9940000000000001,0.21100000000000002,0.462,50.5348956,-5.2712136,-47.8992888,-169.40649186000005,-78.24887406,129.46558968
4.37,437,-1.01,0.18600000000000005,0.39399999999999996,56.149884,-11.8602306,-48.70143,-171.25141662,-78.22022616,131.92930908
4.38,438,-0.992,0.10300000000000001,0.248,56.4936588,-13.0061466,-50.76407879999999,-173.18801466,-78.16865994000003,134.49616092000002
4.39,439,-1.0170000000000001,0.06,0.159,52.0818822,-16.1001198,-51.5089242,-175.19336766,-78.07125708,137.08593108
4.3999999999999995,440,-1.062,-0.034,0.17,48.7587258,-8.7089616,-50.0765292,-177.12996569999999,-78.03115002,139.5725688
4.41,441,-1.094,-0.1,0.2,40.5081306,9.568398599999998,-45.3209778,-178.83738054,-78.14574162,141.73835004
4.42,442,-1.126,-0.142,0.155,32.6013102,27.559279800000002,-39.6486936,179.61660342,-78.42649104,143.64630018
4.43,443,-1.3319999999999999,-0.204,0.062,16.959556799999998,41.6540466,-36.03905820000001,178.00659144000005,-78.83329122,145.45684746
4.4399999999999995,444,-0.992,-0.488,-0.184,3.0366774,114.9926706,-37.52874900000001,175.88091726,-79.9562889,147.63408786
4.45,445,-0.8320000000000001,-0.561,-0.248,-15.6990492,110.6954856,-35.0650296,172.98747936,-81.03344994,150.37855668
4.46,446,-0.807,-0.506,-0.188,-18.449247600000003,77.9795838,-30.022999199999997,170.25446970000004,-81.74964744,152.9511381
4.47,447,-0.7170000000000001,-0.465,-0.177,-21.657812399999997,66.9787902,-26.8717302,167.37249096,-82.35125334,155.62685196
4.4799999999999995,448,-0.5720000000000001,-0.44,-0.215,-28.361421000000004,78.20876700000002,-26.1268848,163.79150346,-83.03880294000002,158.93854919999995
4.49,449,-0.35200000000000004,-0.46299999999999997,-0.19899999999999998,-33.74722620000001,86.45936219999999,-26.1841806,159.17346198,-83.77218918,163.22427504
4.5,450,-0.245,-0.43799999999999994,-0.13699999999999998,-33.231564,64.22859179999999,-24.5798982,154.1829978,-84.26493306,167.88815316
4.51,451,-0.207,-0.4320000000000001,-0.09,-26.7571386,29.507337,-20.454600600000006,150.82546392,-84.43109088,170.98785594
4.52,452,-0.345,-0.369,-0.067,-22.4599536,-6.5317212,-10.7143146,149.99467482,-84.32222886000002,171.59519142000005
4.53,453,-0.5379999999999999,-0.27399999999999997,-0.016,-19.136797199999997,-19.079501399999998,-0.6875496,150.64784694,-84.15034145999998,170.74721358
4.54,454,-0.747,-0.217,0.044000000000000004,-15.011499599999999,-25.9549974,8.7662574,152.36672094,-83.96126532,168.86218176
4.55,455,-0.884,-0.207,0.111,-13.464512999999998,-25.9549974,16.501190400000002,154.42936974,-83.78364833999998,166.65629346
4.56,456,-0.993,-0.196,0.151,-15.183387000000002,-24.8663772,22.1734746,156.98476242,-83.64613842,163.93474296
4.57,457,-1.04,-0.183,0.175,-16.2147114,-18.621135,25.3247436,159.49431846,-83.5659243,161.24184036
4.58,458,-1.101,-0.158,0.17600000000000002,-18.6784308,-13.8082878,27.6738714,161.99241534,-83.52581724,158.54320818
4.59,459,-1.2009999999999998,-0.11699999999999999,0.198,-21.4286292,-8.021412000000002,30.252182399999995,164.5248897,-83.53154682,155.77582103999995
4.6,460,-1.228,-0.08900000000000001,0.20600000000000002,-25.55392680000001,4.4117766,31.51269000000001,166.87401749999995,-83.64040884,153.15167340000005
4.61,461,-1.193,-0.07200000000000001,0.198,-27.8457588,16.2147114,30.882436199999997,169.09136496000005,-83.85813288,150.6306582
4.62,462,-1.1320000000000001,-0.032,0.18899999999999997,-29.793815999999996,25.7258142,27.3300966,171.01077426,-84.15607104,148.396122
4.63,463,-1.094,0.01,0.19,-28.9916748,29.163562199999998,23.892348600000002,172.78121448,-84.47119794,146.31628446
4.64,464,-1.044,0.040999999999999995,0.188,-26.41336380000001,29.793815999999996,21.371333399999997,174.51727722,-84.78632483999998,144.29947230000005
4.6499999999999995,465,-1.0290000000000001,0.09,0.179,-25.0382646,29.0489706,20.168121600000006,176.56273728,-85.07853342,141.99045156
4.66,466,-1.032,0.121,0.166,-24.637194,26.69984280000001,19.194093,178.56809028,-85.34782368,139.72726746
4.67,467,-1.064,0.154,0.146,-24.064236,23.204798999999998,19.2513888,-179.17542576,-85.57127729999998,137.21771142
4.68,468,-1.103,0.132,0.11599999999999999,-20.9702628,18.277360199999997,21.772404,-176.35647240000003,-85.7431647,134.17530444
4.6899999999999995,469,-1.1059999999999999,0.11900000000000001,0.08800000000000001,-21.886995600000002,16.157415599999997,23.14750320000001,-173.1765555,-85.88067462000002,130.76047476
4.7,470,-1.097,0.10800000000000001,0.079,-19.9962342,14.896907999999998,22.91832,-169.64713422000003,-85.98380705999998,127.01332943999998
4.71,471,-1.0659999999999998,0.09,0.08199999999999999,-17.8762896,15.813640800000002,21.0848544,-166.32397782,-86.09266908,123.50109690000001
4.72,472,-1.0590000000000002,0.092,0.095,-16.7876694,17.6471064,18.3919518,-163.10395386,-86.20726068,120.10345596
4.7299999999999995,473,-1.0490000000000002,0.099,0.099,-17.0168526,19.652459399999998,14.896907999999998,-160.09019478,-86.33904102,116.90635032
4.74,474,-1.046,0.131,0.109,-17.0741484,22.1734746,11.1153852,-157.23686394,-86.49946926,113.86967292
4.75,475,-1.051,0.17,0.107,-16.558486199999994,23.491278,6.875496000000001,-154.32050772,-86.6598975,110.77569972
4.76,476,-1.056,0.20600000000000002,0.105,-14.7250206,22.6891368,2.9793816000000004,-152.11461942,-86.84324405999998,108.42084234
4.77,477,-1.053,0.223,0.094,-11.917526400000002,21.485925,0.286479,-150.17229179999995,-87.02086104,106.34673438
4.78,478,-1.051,0.212,0.081,-7.9641161999999985,20.5691922,-1.6615782,-148.38466283999998,-87.20420759999998,104.47316172
4.79,479,-1.061,0.192,0.069,-4.5263682,19.767051000000002,-2.9220858,-146.63141136,-87.38182458,102.66834402
4.8,480,-1.057,0.163,0.044000000000000004,-0.8594370000000001,21.027558600000006,-3.7242269999999995,-143.87548338000005,-87.54798240000002,99.8952273
4.81,481,-1.0270000000000001,0.139,0.024,2.9220858,22.5745452,-4.3544808,-141.25133574,-87.74851770000002,97.29972756
4.82,482,-1.005,0.10400000000000001,0.012,6.6463128000000005,23.0329116,-5.6149884000000005,-138.26049498,-87.96051216,94.37191218
4.83,483,-0.992,0.08199999999999999,0.01,10.313244000000001,22.517249399999997,-6.3598338,-134.85139488,-88.16104745999998,91.06021494
4.84,484,-0.983,0.084,0.011000000000000001,13.6936962,22.631841,-6.7609043999999985,-130.65161274,-88.36158276,86.99221314
4.85,485,-0.9620000000000001,0.096,0.005,15.756345,23.0329116,-7.2192707999999985,-124.77306366,-88.53919973999999,81.26836272
4.86,486,-0.9670000000000001,0.099,0.001,17.3606274,23.0902074,-7.6776372,-117.88610849999999,-88.7225463,74.55902454
4.87,487,-0.961,0.11199999999999999,-0.003,19.0222056,23.491278,-8.078707799999998,-108.77034672000002,-88.88297453999998,65.62660932
4.88,488,-0.9570000000000001,0.10400000000000001,-0.009000000000000001,20.2827132,24.1215318,-9.0527364,-96.65228502,-89.02048446,53.70908292
4.89,489,-0.951,0.092,-0.022000000000000002,20.7983754,24.923673,-10.4278356,-80.87875127999997,-89.11788732,38.14181406
4.8999999999999995,490,-0.948,0.076,-0.034,20.626488000000002,24.7517856,-12.1467096,-62.5097178,-89.14080564,19.97904546
4.91,491,-0.951,0.054000000000000006,-0.044000000000000004,19.9962342,23.7204612,-13.6936962,-44.67926484,-89.10069858,2.34339822
4.92,492,-0.9570000000000001,0.03,-0.047,18.621135,21.027558600000006,-14.8396122,-29.6792244,-89.02048446,-12.46756608
4.93,493,-0.97,0.012,-0.040999999999999995,17.246035799999998,18.793022399999998,-15.068795399999999,-17.870560020000006,-88.90589286,-24.10434306
4.9399999999999995,494,-0.982,-0.006999999999999999,-0.043,15.928232399999999,18.621135,-14.7823164,-8.7376095,-88.75692378,-33.082594920000005
4.95,495,-0.9890000000000001,-0.022000000000000002,-0.054000000000000006,15.3552744,19.136797199999997,-14.4958374,-1.59855282,-88.57357721999998,-40.07268252
4.96,496,-1.016,-0.042,-0.055999999999999994,14.9542038,18.9649098,-13.407217200000002,3.3059676599999994,-88.3787715,-44.82823392
4.97,497,-1.0270000000000001,-0.052000000000000005,-0.055999999999999994,13.8082878,19.194093,-12.2040054,6.77809314,-88.17823620000001,-48.16857906
4.9799999999999995,498,-1.032,-0.064,-0.061,12.776963400000001,19.5378678,-10.943497800000001,9.18451674,-87.97197132,-50.4489519
4.99,499,-1.043,-0.08199999999999999,-0.065,11.9748222,19.136797199999997,-9.167328,10.72577376,-87.76570644,-51.87561732
5.0,500,-1.0390000000000001,-0.092,-0.069,11.2299768,18.8503182,-7.1046792000000005,12.0034701,-87.55371198,-53.03872206
5.01,501,-1.025,-0.10099999999999999,-0.079,9.8548776,19.8243468,-5.7868758000000025,12.33578574,-87.35317668,-53.27363484
5.02,502,-1.005,-0.10099999999999999,-0.086,8.651665800000002,20.05353,-4.7555514,12.404540699999998,-87.14691180000001,-53.25644610000001
5.03,503,-0.983,-0.09699999999999999,-0.08800000000000001,7.6776372,19.2513888,-3.7815228,12.31286742,-86.95210608,-53.0845587
5.04,504,-0.9690000000000001,-0.095,-0.083,6.589017,17.7044022,-2.5783110000000002,12.07795464,-86.7744891,-52.78662053999999
5.05,505,-0.9620000000000001,-0.08900000000000001,-0.077,5.3858052,16.272007199999994,-1.0313244000000001,12.19254624,-86.59687212,-52.84964592
5.06,506,-0.9590000000000001,-0.08,-0.069,4.297185,15.3552744,0.11459160000000004,11.631047399999998,-86.44790304,-52.24231044
5.07,507,-0.955,-0.068,-0.07,3.6096353999999997,15.3552744,0.9740286,10.97787528,-86.30466354,-51.55476083999999
5.08,508,-0.9490000000000001,-0.064,-0.073,2.7501984,15.297978599999999,1.6615782,10.26740736,-86.15569446,-50.81564502
5.09,509,-0.948,-0.057,-0.071,1.2032118,13.9228794,2.3491277999999998,9.539750699999999,-86.02391412,-50.07079962
5.1,510,-0.9470000000000001,-0.05,-0.071,-0.057295800000000015,12.032118,3.0366774,9.0527364,-85.90359294,-49.58378532
5.11,511,-0.946,-0.043,-0.077,-0.8594370000000001,10.5424272,3.9534102,8.23913604,-85.80619008000002,-48.7873737
5.12,512,-0.9420000000000001,-0.035,-0.079,-1.5469866,9.3392154,4.8128472,7.37396946,-85.72024638,-47.9279367
5.13,513,-0.945,-0.03,-0.076,-2.5210152000000003,8.651665800000002,5.6722842,6.428588760000001,-85.64576184,-47.0112039
5.14,514,-0.951,-0.023,-0.077,-3.380452200000001,7.9641161999999985,6.3025379999999975,5.443101,-85.57127729999998,-46.05436404
5.1499999999999995,515,-0.9590000000000001,-0.013000000000000001,-0.079,-3.8961144,7.333862400000001,6.8182002000000015,4.42896534,-85.49679276,-45.08033544
5.16,516,-0.966,-0.003,-0.08,-4.0680017999999984,6.7609043999999985,7.3911582,3.37472262,-85.43949696000001,-44.06619978
5.17,517,-0.977,0.008,-0.083,-3.9534102,6.130650599999999,7.734933000000002,2.30902074,-85.38220116,-43.04060496
5.18,518,-0.983,0.015,-0.087,-3.6096353999999997,6.1879464,7.7922288,1.26623718,-85.32490535999997,-42.03219888
5.1899999999999995,519,-0.99,0.02,-0.08800000000000001,-3.380452200000001,6.4744254,7.5057497999999985,0.28647900000000004,-85.26187998,-41.0810886
5.2,520,-0.997,0.025,-0.08900000000000001,-3.3231564,6.703608600000001,7.0473834,-0.7849524600000001,-85.18739544,-40.03830504
5.21,521,-1.0,0.027999999999999997,-0.09300000000000001,-3.0366774,6.6463128000000005,6.417129599999999,-1.5813640800000002,-85.11864048,-39.27054132
5.22,522,-1.003,0.031,-0.095,-2.7501984,6.0160589999999985,5.844171599999999,-2.28610242,-85.06134468,-38.59445088
5.2299999999999995,523,-1.0070000000000001,0.036000000000000004,-0.098,-2.3491277999999998,5.443101,5.3858052,-2.9220857999999996,-85.00404888,-37.98138582
5.24,524,-1.004,0.039,-0.102,-1.8334656000000005,5.5576926,4.7555514,-3.4663959,-84.94675308000002,-37.45426446000001
5.25,525,-1.002,0.04,-0.106,-1.3750992,5.1566220000000005,4.1252976000000015,-4.30291458,-84.86653895999999,-36.63493452
5.26,526,-1.0,0.042,-0.105,-1.0886202,4.1252976000000015,3.4950437999999995,-4.68679644,-84.8264319,-36.26251182
5.27,527,-1.001,0.045,-0.107,-0.9167328000000001,2.86479,3.0366774,-5.0133825000000005,-84.79205442,-35.94165534
5.28,528,-1.0,0.046,-0.10800000000000001,-0.5156622000000001,1.4896908000000002,2.4637194,-5.2826727600000005,-84.77486567999998,-35.67809466
5.29,529,-1.002,0.046,-0.10800000000000001,-0.2291832000000001,0.11459160000000004,1.9480572,-5.5003968,-84.77486567999998,-35.46610020000001
5.3,530,-1.006,0.043,-0.10400000000000001,0.11459160000000004,-0.8594370000000001,1.432395,-6.86976642,-84.71184029999998,-34.10818974
5.31,531,-1.0070000000000001,0.044000000000000004,-0.099,0.572958,-0.9740286,0.8021411999999999,-6.955710119999999,-84.72329946,-34.01078688
5.32,532,-0.995,0.044000000000000004,-0.094,1.3178034,0.1718874,-0.11459160000000004,-6.9270622200000025,-84.71756988,-34.02797562
5.33,533,-0.995,0.043,-0.085,2.0053530000000004,0.11459160000000004,-0.8594370000000001,-6.80674104,-84.71756988,-34.12537848
5.34,534,-0.988,0.036000000000000004,-0.091,2.86479,0.4583664000000001,-1.6042823999999998,-6.5947465800000025,-84.71756988,-34.30872504
5.35,535,-0.982,0.022000000000000002,-0.095,3.2658606,0.8021411999999999,-1.9480572,-6.4686958200000015,-84.68319240000002,-34.4061279
5.36,536,-0.983,0.013999999999999999,-0.1,3.3231564,0.5156622000000001,-2.0626488000000003,-6.2051351399999986,-84.68319240000002,-34.64104068
5.37,537,-0.988,0.008,-0.10099999999999999,3.6096353999999997,0.1718874,-2.1772404,-5.930115299999999,-84.68319240000002,-34.87595346
5.38,538,-0.997,0.006,-0.092,3.6096353999999997,0.1718874,-2.1199446,-5.66082504,-84.67746281999997,-35.11086624
5.39,539,-1.001,0.006,-0.087,3.7815228,0.9167328000000001,-2.2345362,-5.36861646,-84.67173324000002,-35.36296776
5.3999999999999995,540,-1.001,0.003,-0.083,3.7815228,1.8334656000000005,-2.1772404,-5.042030400000002,-84.66027408,-35.65517634
5.41,541,-1.002,0.0,-0.079,3.5523396000000003,1.7188740000000002,-2.0626488000000003,-4.76701056,-84.64308534,-35.89008912
5.42,542,-0.998,-0.004,-0.075,3.1512689999999997,1.8334656000000005,-2.1772404,-4.48626114,-84.62589659999998,-36.14219064
5.43,543,-0.9940000000000001,-0.01,-0.076,2.5783110000000002,2.5210152000000003,-2.2345362,-4.211241299999998,-84.60297828,-36.394292160000006
5.4399999999999995,544,-0.988,-0.015,-0.08199999999999999,2.1772404,3.5523396000000003,-2.2345362,-3.93049188,-84.56860079999998,-36.65212326
5.45,545,-0.978,-0.021,-0.09,1.8334656000000005,4.297185,-2.1772404,-3.33461556,-84.52276416000002,-37.22508126
5.46,546,-0.97,-0.024,-0.096,1.4896908000000002,4.010706000000001,-1.8334656000000005,-3.11689152,-84.4826571,-37.43134614
5.47,547,-0.965,-0.025,-0.09699999999999999,1.0313244000000001,3.1512689999999997,-1.3178034,-2.96219286,-84.44827962000002,-37.58031522
5.4799999999999995,548,-0.9670000000000001,-0.022000000000000002,-0.096,0.2291832000000001,2.2345362,-0.8594370000000001,-2.86479,-84.43109088,-37.67198850000001
5.49,549,-0.972,-0.019,-0.09699999999999999,-0.1718874,1.4896908000000002,-0.40107059999999994,-2.82468294,-84.41390214,-37.71782514
5.5,550,-0.981,-0.02,-0.096,-0.4583664000000001,1.0313244000000001,0.0,-1.50687954,-84.36233591999998,-39.02989896
5.51,551,-0.985,-0.02,-0.098,-0.9740286,0.572958,0.2291832000000001,-1.5412570200000002,-84.35660634000001,-39.00125106
5.52,552,-0.99,-0.018000000000000002,-0.096,-1.7188740000000002,0.0,0.5156622000000001,-1.62147114,-84.35660634000001,-38.94395526
5.53,553,-0.992,-0.015,-0.096,-2.4064236,-0.5156622000000001,0.8594370000000001,-1.73606274,-84.36233591999998,-38.85228198
5.54,554,-0.9940000000000001,-0.01,-0.095,-2.9220858,-0.6302538000000001,1.0886202,-1.87930224,-84.3680655,-38.73769038
5.55,555,-0.9940000000000001,-0.004,-0.096,-3.2658606,-0.6875496,1.145916,-1.95378678,-84.3680655,-38.69758331999999
5.56,556,-0.99,-0.002,-0.09699999999999999,-3.6096353999999997,-0.11459160000000004,1.145916,-2.10848544,-84.3680655,-38.57726214
5.57,557,-0.988,-0.001,-0.099,-3.8961144,-0.2291832000000001,1.0886202,-2.2631841,-84.3680655,-38.46267054
5.58,558,-0.9890000000000001,0.0,-0.1,-4.297185,-0.9740286,1.145916,-2.4350715000000003,-84.37952466,-38.33661978
5.59,559,-0.988,0.003,-0.10099999999999999,-4.583664,-1.432395,1.2605076000000002,-2.61841806,-84.39671340000002,-38.19338028
5.6,560,-0.986,0.004,-0.10300000000000001,-4.4690724,-1.7761698000000001,1.2605076000000002,-2.8074942000000003,-84.39098382,-38.05014078
5.61,561,-0.985,0.006,-0.106,-4.297185,-2.1199446,1.3750992,-3.00229992,-84.41390214,-37.901171700000006
5.62,562,-0.9890000000000001,0.009000000000000001,-0.102,-4.0680017999999984,-2.6929026,1.432395,-3.2085648000000004,-84.43682046,-37.73501388
5.63,563,-0.9940000000000001,0.013000000000000001,-0.09699999999999999,-4.010706000000001,-3.0939732,1.2605076000000002,-3.3919113599999995,-84.47119794,-37.59177438
5.64,564,-0.995,0.016,-0.096,-3.6096353999999997,-2.5210152000000003,1.0886202,-3.5580691799999995,-84.49411626,-37.45999404000001
5.6499999999999995,565,-0.992,0.017,-0.096,-3.380452200000001,-2.1772404,0.9167328000000001,-3.88465524,-84.49984584,-37.17351504
5.66,566,-0.991,0.016,-0.095,-3.1512689999999997,-2.2345362,0.8021411999999999,-4.01643558,-84.52276416000002,-37.0703826
5.67,567,-0.991,0.017,-0.09,-3.0366774,-2.7501984,0.6302538000000001,-4.1310271799999985,-84.55141205999998,-36.984438899999994
5.68,568,-0.9940000000000001,0.02,-0.08900000000000001,-2.8074942000000003,-3.2658606,0.5156622000000001,-4.23415962,-84.58578954,-36.90995436
5.6899999999999995,569,-0.996,0.022000000000000002,-0.086,-2.4637194,-3.4377480000000005,0.286479,-4.31437374,-84.61443744,-36.85838814
5.7,570,-0.998,0.023,-0.08199999999999999,-1.8907614,-3.0366774,0.0,-4.675337279999999,-84.64881491999998,-36.51461334
5.71,571,-0.998,0.02,-0.085,-1.3178034,-2.4064236,-0.11459160000000004,-4.69252602,-84.67173324000002,-36.50888376
5.72,572,-0.995,0.016,-0.083,-1.0313244000000001,-2.2345362,-0.11459160000000004,-4.703985179999999,-84.69465156,-36.51461334
5.7299999999999995,573,-0.996,0.015,-0.08199999999999999,-0.7448454000000001,-2.4064236,-0.11459160000000004,-4.70971476,-84.71756988,-36.50888376
5.74,574,-0.997,0.013999999999999999,-0.08199999999999999,-0.40107059999999994,-2.6929026,-0.1718874,-4.70971476,-84.74621778000002,-36.51461334
5.75,575,-0.997,0.011000000000000001,-0.079,-0.057295800000000015,-3.0366774,-0.2291832000000001,-4.83576552,-84.79205442,-36.38856258
5.76,576,-0.995,0.009000000000000001,-0.071,0.0,-2.86479,-0.2291832000000001,-4.82430636,-84.82070232,-36.40002174
5.77,577,-1.0,0.006,-0.07,-0.2291832000000001,-2.8074942000000003,-0.286479,-4.812847199999998,-84.84935021999998,-36.41721048
5.78,578,-1.004,0.004,-0.071,-0.286479,-3.0366774,-0.286479,-4.80138804,-84.8837277,-36.42866964
5.79,579,-1.0090000000000001,0.006999999999999999,-0.071,-0.2291832000000001,-3.1512689999999997,-0.11459160000000004,-4.80711762,-84.91237559999998,-36.42866964
5.8,580,-1.01,0.009000000000000001,-0.07400000000000001,0.1718874,-2.6929026,-0.1718874,-4.93889796,-84.95821224,-36.29115972
5.81,581,-1.008,0.008,-0.077,0.8021411999999999,-2.0626488000000003,-0.11459160000000004,-4.9274388,-84.98113056000003,-36.2968893
5.82,582,-1.006,0.003,-0.078,1.2032118,-1.432395,-0.057295800000000015,-4.91025006,-84.99258972,-36.30261888
5.83,583,-1.002,0.0,-0.076,1.3178034,-1.2032118,0.0,-4.898790900000002,-85.00404888,-36.2968893
5.84,584,-1.002,-0.001,-0.07400000000000001,1.145916,-1.0313244000000001,0.0,-4.898790900000002,-85.01550804,-36.28543014
5.85,585,-1.002,0.0,-0.071,1.145916,-1.0313244000000001,0.2291832000000001,-4.7555514,-85.0556151,-36.4114809
5.86,586,-1.005,0.0,-0.07200000000000001,1.145916,-1.0886202,0.3437748,-4.78992888,-85.06707426,-36.36564426
5.87,587,-1.008,0.003,-0.071,1.2605076000000002,-1.0313244000000001,0.5156622000000001,-4.84722468,-85.07853342,-36.2968893
5.88,588,-1.011,0.002,-0.07,1.2605076000000002,-0.7448454000000001,0.6875496,-4.9217092199999986,-85.08426299999998,-36.2109456
5.89,589,-1.011,0.002,-0.068,1.2605076000000002,-0.40107059999999994,0.6875496,-4.99046418,-85.08999258,-36.125001899999994
5.8999999999999995,590,-1.008,0.002,-0.069,1.3750992,0.11459160000000004,0.6302538000000001,-4.87587258,-85.11864048,-36.22813434
5.91,591,-1.005,0.001,-0.069,1.3750992,0.3437748,0.7448454000000001,-4.94462754,-85.11864048,-36.14219064
5.92,592,-1.003,0.002,-0.068,1.2605076000000002,0.572958,0.8021411999999999,-5.01911208,-85.10718132,-36.05051736
5.93,593,-1.004,0.003,-0.066,1.0886202,0.6302538000000001,0.8021411999999999,-5.0993262,-85.10145173999999,-35.95884408
5.9399999999999995,594,-1.005,0.003,-0.066,1.145916,0.6302538000000001,0.9740286,-5.19672906,-85.09572216000002,-35.85571164
5.95,595,-1.005,0.004,-0.068,1.0886202,0.8021411999999999,0.8594370000000001,-5.23683612,-85.11864048,-35.79841584000001
5.96,596,-1.004,0.005,-0.07,1.2032118,1.2605076000000002,0.8594370000000001,-5.31705024,-85.10145173999999,-35.70674256
5.97,597,-1.002,0.004,-0.07400000000000001,1.3178034,1.6042823999999998,0.9167328000000001,-5.3972643599999985,-85.08426299999998,-35.60933970000001
5.9799999999999995,598,-1.0,0.005,-0.07400000000000001,1.3178034,2.0053530000000004,0.9167328000000001,-5.47747848,-85.06707426,-35.51766642
5.99,599,-0.9990000000000001,0.004,-0.07400000000000001,1.0886202,2.2345362,0.8594370000000001,-5.54623344,-85.04415594,-35.4374523
6.0,600,-0.9990000000000001,0.004,-0.07400000000000001,0.9167328000000001,2.1772404,0.8594370000000001,-5.58061092,-85.0269672,-35.39161566
6.01,601,-0.998,0.004,-0.07400000000000001,0.8594370000000001,2.1199446,0.7448454000000001,-5.6436363,-85.00977845999998,-35.3228607
6.02,602,-0.9990000000000001,0.003,-0.07400000000000001,0.6875496,2.1772404,0.8021411999999999,-5.71239126,-84.98686014,-35.24264658
6.03,603,-0.997,0.004,-0.077,0.6875496,2.291832,0.9167328000000001,-5.79260538,-84.96394182,-35.15670288
6.04,604,-0.998,0.006,-0.076,0.6302538000000001,2.4064236,0.9167328000000001,-5.86708992,-84.93529392,-35.076488760000004
6.05,605,-0.998,0.008,-0.076,0.4583664000000001,2.291832,0.8021411999999999,-5.9874111,-84.92383476,-34.950438
6.06,606,-0.996,0.006,-0.077,0.5156622000000001,2.6929026,0.7448454000000001,-6.0447069,-84.89518686,-34.887412620000006
6.07,607,-0.997,0.006,-0.08,0.5156622000000001,3.0366774,0.572958,-6.0790843799999985,-84.86653895999999,-34.84730556
6.08,608,-0.997,0.003,-0.08,0.4583664000000001,3.2658606,0.572958,-6.1077322800000005,-84.83216148,-34.81292808
6.09,609,-0.998,0.005,-0.081,0.40107059999999994,3.2085647999999996,0.572958,-6.13638018,-84.79778400000002,-34.7785506
6.1,610,-0.998,0.006,-0.081,0.2291832000000001,2.9220858,0.5156622000000001,-6.15356892,-84.7691361,-34.76136186
6.11,611,-0.997,0.006,-0.081,0.286479,2.7501984,0.572958,-6.1879464,-84.74048819999999,-34.72698438
6.12,612,-0.995,0.009000000000000001,-0.083,0.2291832000000001,2.6356068,0.4583664000000001,-6.2165943,-84.71184029999998,-34.692606899999994
6.13,613,-0.9940000000000001,0.008,-0.085,0.2291832000000001,2.6929026,0.5156622000000001,-6.2452422000000025,-84.68892198,-34.658229420000005
6.14,614,-0.9940000000000001,0.006999999999999999,-0.086,0.1718874,2.5210152000000003,0.4583664000000001,-6.2796196800000015,-84.66027408,-34.62958152
6.15,615,-0.995,0.006999999999999999,-0.084,0.057295800000000015,2.3491277999999998,0.4583664000000001,-6.3025379999999975,-84.64308534,-34.60093362
6.16,616,-0.996,0.009000000000000001,-0.085,0.0,2.4064236,0.40107059999999994,-6.3254563200000025,-84.62016702,-34.5780153
6.17,617,-0.995,0.008,-0.084,0.0,2.5210152000000003,0.40107059999999994,-6.348374640000001,-84.59151912,-34.555096979999995
6.18,618,-0.9940000000000001,0.006,-0.084,0.0,2.5210152000000003,0.3437748,-6.3655633799999976,-84.56860079999998,-34.53790823999999
6.1899999999999995,619,-0.993,0.008,-0.086,0.057295800000000015,2.291832,0.3437748,-6.382752120000001,-84.54568248000002,-34.5207195
6.2,620,-0.991,0.006,-0.087,0.057295800000000015,2.2345362,0.3437748,-6.30826758,-84.51703458,-34.59520404
6.21,621,-0.99,0.005,-0.08900000000000001,0.0,1.9480572,0.3437748,-6.3254563200000025,-84.49984584,-34.5780153
6.22,622,-0.9890000000000001,0.006,-0.09,-0.057295800000000015,1.7188740000000002,0.286479,-6.34264506,-84.4826571,-34.560826559999995
6.2299999999999995,623,-0.99,0.005,-0.09,-0.11459160000000004,1.5469866,0.3437748,-6.37129296,-84.46546836,-34.53790823999999
6.24,624,-0.9890000000000001,0.004,-0.08800000000000001,-0.286479,1.432395,0.40107059999999994,-6.40567044,-84.44827962000002,-34.503530760000004
6.25,625,-0.9890000000000001,0.005,-0.08800000000000001,-0.3437748,1.2605076000000002,0.40107059999999994,-6.3598338000000005,-84.43682046,-34.555096979999995
6.26,626,-0.99,0.006,-0.08900000000000001,-0.4583664000000001,0.9740286,0.40107059999999994,-6.39994086,-84.42536129999998,-34.51498992
6.27,627,-0.991,0.005,-0.09,-0.5156622000000001,0.8594370000000001,0.3437748,-6.43431834,-84.41963172,-34.48634202
6.28,628,-0.993,0.005,-0.092,-0.572958,0.5156622000000001,0.4583664000000001,-6.48588456,-84.40817256,-34.440505380000005
6.29,629,-0.993,0.005,-0.092,-0.572958,0.2291832000000001,0.40107059999999994,-6.53745078,-84.40817256,-34.40039832
6.3,630,-0.992,0.005,-0.091,-0.4583664000000001,0.2291832000000001,0.40107059999999994,-6.3254563200000025,-84.39098382,-34.61239278000001
6.31,631,-0.991,0.005,-0.092,-0.5156622000000001,0.2291832000000001,0.40107059999999994,-6.37129296,-84.39098382,-34.57228572
6.32,632,-0.99,0.005,-0.092,-0.5156622000000001,-0.2291832000000001,0.3437748,-6.4228591800000014,-84.39098382,-34.52644908
6.33,633,-0.993,0.005,-0.09,-0.4583664000000001,-0.4583664000000001,0.40107059999999994,-6.4744253999999986,-84.39671340000002,-34.48061244
6.34,634,-0.992,0.006,-0.09,-0.4583664000000001,-0.4583664000000001,0.40107059999999994,-6.525991620000001,-84.40244298,-34.429046220000004
6.35,635,-0.992,0.006999999999999999,-0.092,-0.40107059999999994,-0.11459160000000004,0.4583664000000001,-6.3884817000000025,-84.37379508000002,-34.5780153
6.36,636,-0.992,0.006999999999999999,-0.092,-0.286479,-0.3437748,0.40107059999999994,-6.4400479200000005,-84.37952466,-34.52644908
6.37,637,-0.9940000000000001,0.006,-0.092,-0.2291832000000001,-0.4583664000000001,0.3437748,-6.48015498,-84.37952466,-34.48634202
6.38,638,-0.9940000000000001,0.006,-0.09300000000000001,-0.11459160000000004,-0.572958,0.3437748,-6.525991620000001,-84.38525424,-34.44623496
6.39,639,-0.992,0.006999999999999999,-0.092,-0.2291832000000001,-0.8021411999999999,0.40107059999999994,-6.57755784,-84.39671340000002,-34.39466874
6.4,640,-0.99,0.006999999999999999,-0.09,-0.40107059999999994,-1.145916,0.40107059999999994,-6.5718282599999975,-84.40244298,-34.4061279
6.41,641,-0.9890000000000001,0.006999999999999999,-0.08800000000000001,-0.5156622000000001,-1.432395,0.40107059999999994,-6.62912406,-84.41390214,-34.3488321
6.42,642,-0.99,0.006999999999999999,-0.087,-0.3437748,-1.7188740000000002,0.4583664000000001,-6.69787902,-84.43109088,-34.28580672
6.43,643,-0.991,0.004,-0.079,-0.4583664000000001,-1.7761698000000001,0.5156622000000001,-6.77236356,-84.44827962000002,-34.21132218
6.4399999999999995,644,-0.9940000000000001,0.003,-0.077,-0.8594370000000001,-1.6615782,0.40107059999999994,-6.8411185199999975,-84.46546836,-34.15402638
6.45,645,-0.995,0.004,-0.077,-1.145916,-1.8334656000000005,0.4583664000000001,-6.8468481,-84.50557542,-34.15975596
6.46,646,-0.996,0.006,-0.075,-1.4896908000000002,-2.0053530000000004,0.3437748,-6.92133264,-84.52849374,-34.10246016
6.47,647,-0.996,0.008,-0.078,-1.3178034,-1.8907614,0.3437748,-6.99581718,-84.54568248000002,-34.03943478
6.4799999999999995,648,-0.996,0.01,-0.081,-0.7448454000000001,-1.8334656000000005,0.4583664000000001,-7.0703017200000025,-84.56287122,-33.9764094
6.49,649,-0.997,0.006999999999999999,-0.08199999999999999,-0.40107059999999994,-1.8334656000000005,0.4583664000000001,-7.144786260000001,-84.58005996,-33.901924859999994
6.5,650,-0.998,0.005,-0.081,-0.286479,-1.6042823999999998,0.4583664000000001,-7.098949620000001,-84.61443744,-33.94203192
6.51,651,-0.998,0.005,-0.081,-0.2291832000000001,-1.3750992,0.5156622000000001,-7.1734341599999984,-84.62589659999998,-33.87327696
6.52,652,-1.0,0.005,-0.078,-0.1718874,-1.0886202,0.6302538000000001,-7.259377859999999,-84.63735576,-33.787333260000004
6.53,653,-1.001,0.008,-0.077,-0.057295800000000015,-1.145916,0.7448454000000001,-7.3567807200000015,-84.64881491999998,-33.69565998
6.54,654,-1.004,0.01,-0.076,0.0,-1.3178034,0.8021411999999999,-7.45418358,-84.66027408,-33.59825712
6.55,655,-1.005,0.011000000000000001,-0.075,0.057295800000000015,-1.2032118,0.8594370000000001,-7.58023434,-84.70038114,-33.46647678
6.56,656,-1.003,0.011000000000000001,-0.07400000000000001,0.11459160000000004,-0.9740286,0.8021411999999999,-7.677637200000001,-84.70611072,-33.36907392
6.57,657,-1.003,0.01,-0.075,0.11459160000000004,-0.8021411999999999,0.8021411999999999,-7.76931048,-84.71184029999998,-33.27167106
6.58,658,-1.004,0.011000000000000001,-0.07400000000000001,0.2291832000000001,-0.6875496,0.6875496,-7.85525418,-84.71756988,-33.18572736
6.59,659,-1.004,0.01,-0.07200000000000001,0.286479,-0.572958,0.572958,-7.92400914,-84.72329946,-33.11124282
6.6,660,-1.003,0.01,-0.07200000000000001,0.1718874,-0.2291832000000001,0.5156622000000001,-8.021412,-84.78632483999998,-33.01383996
6.61,661,-1.0,0.009000000000000001,-0.07200000000000001,0.286479,0.0,0.4583664000000001,-8.067248639999999,-84.78632483999998,-32.96227374
6.62,662,-0.998,0.009000000000000001,-0.07200000000000001,0.286479,0.057295800000000015,0.4583664000000001,-8.11308528,-84.78632483999998,-32.91070752
6.63,663,-0.9990000000000001,0.009000000000000001,-0.07400000000000001,0.3437748,0.0,0.40107059999999994,-8.15319234,-84.78632483999998,-32.86487088
6.64,664,-0.998,0.008,-0.076,0.286479,-0.057295800000000015,0.3437748,-8.18756982,-84.78632483999998,-32.82476382
6.65,665,-1.0,0.009000000000000001,-0.077,0.3437748,0.0,0.2291832000000001,-8.021412,-84.8264319,-32.98519206
6.66,666,-1.0,0.009000000000000001,-0.078,0.40107059999999994,0.057295800000000015,0.2291832000000001,-8.0500599,-84.8264319,-32.95654416
6.67,667,-1.0,0.008,-0.077,0.4583664000000001,0.1718874,0.1718874,-8.06151906,-84.82070232,-32.93935542
6.68,668,-1.0,0.005,-0.076,0.3437748,0.572958,0.1718874,-8.067248639999999,-84.81497274,-32.92789626
6.6899999999999995,669,-0.9990000000000001,0.005,-0.07400000000000001,0.1718874,0.5156622000000001,0.1718874,-8.08443738,-84.80924316,-32.91070752
6.7,670,-0.9990000000000001,0.004,-0.07200000000000001,0.0,0.4583664000000001,0.1718874,-7.71201468,-84.87226854000002,-33.27167106
6.71,671,-0.997,0.005,-0.073,-0.11459160000000004,0.572958,0.286479,-7.74066258,-84.86653895999999,-33.24875274
6.72,672,-0.996,0.005,-0.073,-0.11459160000000004,0.572958,0.286479,-7.76931048,-84.86080938,-33.22010484
6.7299999999999995,673,-0.996,0.006,-0.07400000000000001,-0.1718874,0.5156622000000001,0.286479,-7.79795838,-84.8550798,-33.19145694
6.74,674,-0.996,0.006999999999999999,-0.07400000000000001,-0.2291832000000001,0.6302538000000001,0.2291832000000001,-7.82660628,-84.84935021999998,-33.16853862
6.75,675,-0.997,0.006,-0.075,-0.2291832000000001,0.8594370000000001,0.286479,-7.71201468,-84.86080938,-33.28313022
6.76,676,-0.9990000000000001,0.006,-0.075,-0.1718874,1.2605076000000002,0.286479,-7.72920342,-84.84935021999998,-33.265941479999995
6.77,677,-0.9990000000000001,0.005,-0.075,-0.286479,1.432395,0.2291832000000001,-7.746392160000001,-84.83216148,-33.25448232
6.78,678,-0.998,0.005,-0.076,-0.3437748,1.432395,0.2291832000000001,-7.75785132,-84.82070232,-33.24302315999999
6.79,679,-0.998,0.006,-0.075,-0.40107059999999994,1.2032118,0.286479,-7.78649922,-84.80351358,-33.22010484
6.8,680,-0.997,0.006999999999999999,-0.075,-0.3437748,0.8594370000000001,0.3437748,-7.780769640000001,-84.81497274,-33.231564
6.81,681,-0.997,0.006999999999999999,-0.076,-0.1718874,0.7448454000000001,0.5156622000000001,-7.8323358600000015,-84.80924316,-33.17999778
6.82,682,-0.998,0.006999999999999999,-0.078,-0.2291832000000001,0.7448454000000001,0.5156622000000001,-7.88390208,-84.79778400000002,-33.13416114
6.83,683,-0.998,0.009000000000000001,-0.078,-0.2291832000000001,0.9167328000000001,0.4583664000000001,-7.92400914,-84.79205442,-33.09405408
6.84,684,-0.9990000000000001,0.008,-0.077,-0.2291832000000001,1.145916,0.4583664000000001,-7.96984578,-84.78059526000001,-33.053947019999995
6.85,685,-0.998,0.009000000000000001,-0.078,-0.1718874,1.3750992,0.4583664000000001,-7.96984578,-84.77486567999998,-33.053947019999995
6.86,686,-0.998,0.01,-0.077,-0.1718874,1.432395,0.4583664000000001,-8.00422326,-84.76340652,-33.01956954
6.87,687,-0.998,0.009000000000000001,-0.077,-0.1718874,1.3178034,0.40107059999999994,-8.03860074,-84.74621778000002,-32.99092164
6.88,688,-0.997,0.008,-0.078,-0.11459160000000004,1.2605076000000002,0.4583664000000001,-8.07297822,-84.73475862000002,-32.95654416
6.89,689,-0.997,0.008,-0.078,-0.057295800000000015,1.0886202,0.4583664000000001,-8.107355700000001,-84.72329946,-32.9164371
6.9,690,-0.996,0.009000000000000001,-0.081,-0.057295800000000015,0.9740286,0.40107059999999994,-8.08443738,-84.72329946,-32.945085
6.91,691,-0.996,0.006999999999999999,-0.08,-0.11459160000000004,0.8594370000000001,0.40107059999999994,-8.11308528,-84.71756988,-32.9164371
6.92,692,-0.997,0.008,-0.079,-0.057295800000000015,0.6302538000000001,0.40107059999999994,-8.15319234,-84.71184029999998,-32.876330040000006
6.93,693,-0.996,0.008,-0.08,0.057295800000000015,0.6302538000000001,0.4583664000000001,-8.193299399999999,-84.70038114,-32.836222979999995
6.9399999999999995,694,-0.996,0.009000000000000001,-0.08,0.0,0.572958,0.40107059999999994,-8.22767688,-84.69465156,-32.8018455
6.95,695,-0.995,0.008,-0.08,0.11459160000000004,0.572958,0.40107059999999994,-8.11308528,-84.71184029999998,-32.91070752
6.96,696,-0.9940000000000001,0.008,-0.08,0.1718874,0.8021411999999999,0.3437748,-8.14173318,-84.70611072,-32.88205962
6.97,697,-0.9940000000000001,0.006999999999999999,-0.08,0.11459160000000004,0.9167328000000001,0.286479,-8.164651500000002,-84.69465156,-32.859141300000005
6.9799999999999995,698,-0.993,0.006999999999999999,-0.08,0.11459160000000004,0.9167328000000001,0.3437748,-8.18756982,-84.68319240000002,-32.836222979999995
6.99,699,-0.9940000000000001,0.006999999999999999,-0.081,0.057295800000000015,0.6302538000000001,0.286479,-8.21621772,-84.67746281999997,-32.80757508
7.0,700,-0.995,0.008,-0.081,-0.057295800000000015,0.3437748,0.286479,-8.11308528,-84.69465156,-32.90497794
7.01,701,-0.995,0.006999999999999999,-0.081,-0.2291832000000001,0.40107059999999994,0.286479,-8.14746276,-84.68892198,-32.876330040000006
7.02,702,-0.995,0.008,-0.081,-0.1718874,0.3437748,0.286479,-8.17611066,-84.68319240000002,-32.84768214
7.03,703,-0.995,0.008,-0.079,-0.2291832000000001,0.2291832000000001,0.2291832000000001,-8.204758559999998,-84.68319240000002,-32.81903423999999
7.04,704,-0.995,0.006999999999999999,-0.079,-0.1718874,0.1718874,0.286479,-8.23913604,-84.67746281999997,-32.784656760000004
7.05,705,-0.995,0.006999999999999999,-0.08,-0.11459160000000004,0.0,0.2291832000000001,-8.136003599999999,-84.70611072,-32.89351878
7.06,706,-0.997,0.006999999999999999,-0.08,0.0,-0.8021411999999999,-0.11459160000000004,-8.136003599999999,-84.71184029999998,-32.89351878
7.07,707,-0.996,0.006999999999999999,-0.08,0.057295800000000015,-0.6875496,-0.057295800000000015,-8.136003599999999,-84.71756988,-32.89351878
7.08,708,-0.9940000000000001,0.006999999999999999,-0.08,0.057295800000000015,-0.3437748,-0.057295800000000015,-8.13027402,-84.72329946,-32.89924836
7.09,709,-0.995,0.006,-0.081,0.11459160000000004,-0.4583664000000001,0.0,-8.136003599999999,-84.72902904,-32.8877892
7.1,710,-0.996,0.006999999999999999,-0.081,0.11459160000000004,-0.6302538000000001,0.0,-7.929738719999999,-84.74621778000002,-33.09405408
7.11,711,-0.9990000000000001,0.006,-0.078,0.11459160000000004,-0.6302538000000001,0.0,-7.929738719999999,-84.75194736,-33.09405408
7.12,712,-0.9990000000000001,0.008,-0.08,0.11459160000000004,-0.40107059999999994,0.0,-7.929738719999999,-84.75767694,-33.08832450000001
7.13,713,-0.997,0.008,-0.08,0.057295800000000015,-0.40107059999999994,0.0,-7.935468299999997,-84.76340652,-33.082594920000005
7.14,714,-0.995,0.008,-0.079,0.0,-0.6302538000000001,0.0,-7.94692746,-84.7691361,-33.07113576
7.15,715,-0.995,0.008,-0.078,-0.057295800000000015,-0.8021411999999999,0.057295800000000015,-7.80368796,-84.80351358,-33.21437526
7.16,716,-0.9940000000000001,0.006,-0.076,0.0,-0.5156622000000001,0.11459160000000004,-7.820876699999999,-84.80924316,-33.19145694
7.17,717,-0.995,0.006,-0.07200000000000001,-0.1718874,-0.6302538000000001,0.0,-7.838065440000001,-84.81497274,-33.17999778
7.18,718,-0.9990000000000001,0.004,-0.07400000000000001,-0.6302538000000001,-0.8594370000000001,0.0,-7.85525418,-84.82070232,-33.16853862
7.1899999999999995,719,-0.998,0.006,-0.07400000000000001,-0.8594370000000001,-1.2032118,0.057295800000000015,-7.889631660000001,-84.83789106,-33.13989072
7.2,720,-0.996,0.009000000000000001,-0.07200000000000001,-1.0886202,-1.3178034,0.057295800000000015,-7.95265704,-84.86080938,-33.09405408
7.21,721,-0.995,0.011000000000000001,-0.075,-0.7448454000000001,-1.145916,0.0,-7.975575359999999,-84.87226854000002,-33.07686534
7.22,722,-0.996,0.01,-0.078,-0.11459160000000004,-0.8594370000000001,0.0,-7.987034519999999,-84.8837277,-33.07113576
7.2299999999999995,723,-0.997,0.006999999999999999,-0.079,0.0,-0.4583664000000001,-0.057295800000000015,-7.9813049399999985,-84.88945728,-33.07113576
7.24,724,-0.998,0.006999999999999999,-0.079,0.0,-0.1718874,-0.11459160000000004,-7.9641161999999985,-84.88945728,-33.08832450000001
7.25,725,-0.997,0.006999999999999999,-0.076,0.0,-0.11459160000000004,-0.057295800000000015,-7.8323358600000015,-84.92956434,-33.21437526
7.26,726,-0.998,0.008,-0.075,0.1718874,0.0,0.0,-7.8323358600000015,-84.92956434,-33.21437526
7.27,727,-1.0,0.008,-0.075,0.286479,0.0,0.0,-7.838065440000001,-84.92956434,-33.208645680000004
7.28,728,-1.002,0.009000000000000001,-0.07400000000000001,0.286479,-0.11459160000000004,0.057295800000000015,-7.84379502,-84.93529392,-33.197186519999995
7.29,729,-1.002,0.011000000000000001,-0.075,0.40107059999999994,-0.057295800000000015,0.057295800000000015,-7.8495246,-84.93529392,-33.18572736
7.3,730,-1.004,0.011000000000000001,-0.075,0.4583664000000001,0.11459160000000004,0.0,-7.906820399999999,-84.95248266,-33.12270198
7.31,731,-1.003,0.01,-0.075,0.6302538000000001,0.286479,0.0,-7.889631660000001,-84.95248266,-33.13416114
7.32,732,-1.003,0.009000000000000001,-0.07400000000000001,0.6875496,0.5156622000000001,-0.11459160000000004,-7.860983760000001,-84.94675308000002,-33.15707946
7.33,733,-1.001,0.008,-0.075,0.7448454000000001,0.5156622000000001,-0.11459160000000004,-7.82660628,-84.9410235,-33.17999778
7.34,734,-0.998,0.006999999999999999,-0.07400000000000001,0.6875496,0.6302538000000001,-0.1718874,-7.78649922,-84.93529392,-33.21437526
7.35,735,-0.997,0.008,-0.07400000000000001,0.6302538000000001,0.6302538000000001,-0.1718874,-7.6948259399999985,-84.94675308000002,-33.30031896000001
7.36,736,-0.996,0.006999999999999999,-0.07400000000000001,0.5156622000000001,0.5156622000000001,-0.1718874,-7.66044846,-84.9410235,-33.32896686
7.37,737,-0.996,0.006,-0.075,0.4583664000000001,0.5156622000000001,-0.1718874,-7.620341400000001,-84.93529392,-33.363344340000005
7.38,738,-0.995,0.006999999999999999,-0.076,0.4583664000000001,0.6302538000000001,-0.2291832000000001,-7.58023434,-84.92956434,-33.39772182
7.39,739,-0.998,0.006999999999999999,-0.078,0.4583664000000001,0.6302538000000001,-0.1718874,-7.545856859999999,-84.92383476,-33.432099300000004
7.4,740,-0.9990000000000001,0.005,-0.08199999999999999,0.40107059999999994,0.6875496,-0.11459160000000004,-7.316673659999997,-84.90664602000003,-33.65555292
7.41,741,-0.9990000000000001,0.006,-0.079,0.3437748,0.6875496,0.0,-7.29948492,-84.90091644,-33.66701208
7.42,742,-0.997,0.004,-0.078,0.057295800000000015,0.6875496,0.0,-7.288025760000001,-84.89518686,-33.67847124
7.43,743,-0.996,0.005,-0.076,0.0,0.6875496,0.0,-7.2765666,-84.88945728,-33.689930399999994
7.4399999999999995,744,-0.993,0.004,-0.077,-0.057295800000000015,0.6302538000000001,0.057295800000000015,-7.282296179999999,-84.8837277,-33.684200819999994
7.45,745,-0.993,0.005,-0.077,-0.057295800000000015,0.4583664000000001,0.11459160000000004,-7.11040878,-84.90091644,-33.85608822
7.46,746,-0.992,0.006,-0.077,0.0,0.2291832000000001,0.1718874,-7.1333271000000025,-84.89518686,-33.833169899999994
7.47,747,-0.9940000000000001,0.006999999999999999,-0.077,-0.057295800000000015,0.286479,0.057295800000000015,-7.13905668,-84.88945728,-33.82744032
7.4799999999999995,748,-0.9940000000000001,0.006999999999999999,-0.078,0.0,0.5156622000000001,0.057295800000000015,-7.144786260000001,-84.88945728,-33.82171074
7.49,749,-0.995,0.006,-0.077,0.0,0.8594370000000001,0.057295800000000015,-7.144786260000001,-84.87799812,-33.82171074
7.5,750,-0.997,0.006999999999999999,-0.076,0.0,1.0313244000000001,0.057295800000000015,-7.06457214,-84.8837277,-33.901924859999994
7.51,751,-0.998,0.006999999999999999,-0.076,0.0,1.0313244000000001,0.057295800000000015,-7.06457214,-84.87226854000002,-33.901924859999994
7.52,752,-0.9990000000000001,0.008,-0.077,-0.11459160000000004,0.8594370000000001,0.11459160000000004,-7.076031300000001,-84.86653895999999,-33.89619528
