TimeStamp(s),FrameCounter,AccX,AccY,AccZ,GyrX,GyrY,GyrZ,EulerX,EulerY,EulerZ
0.01,1,-0.038,-1.006,0.106,-1.7761698000000001,2.5783110000000002,-0.5156622000000001,94.54952916,-2.8361421,-26.20136934000001
0.02,2,-0.032,-1.01,0.11,-1.7761698000000001,1.6042823999999998,-0.2291832000000001,94.53234042,-2.8361421,-26.1841806
0.03,3,-0.032,-1.0090000000000001,0.111,-1.432395,0.8021411999999999,-0.1718874,94.51515168,-2.8361421,-26.17272144
0.04,4,-0.031,-1.004,0.11199999999999999,-1.3750992,0.286479,-0.11459160000000004,94.50369252,-2.8361421,-26.17272144
0.05,5,-0.028999999999999998,-1.0,0.114,-1.432395,0.0,-0.1718874,94.51515168,-2.77311672,-26.14407354
0.060000000000000005,6,-0.027999999999999997,-0.998,0.11599999999999999,-1.4896908000000002,0.0,-0.286479,94.49796294,-2.77311672,-26.14407354
0.06999999999999999,7,-0.027000000000000003,-0.998,0.115,-1.6042823999999998,0.0,-0.4583664000000001,94.48077420000001,-2.76738714,-26.14407354
0.08,8,-0.027999999999999997,-0.9990000000000001,0.11199999999999999,-1.6042823999999998,-0.057295800000000015,-0.572958,94.46358546,-2.76165756,-26.14407354
0.09,9,-0.028999999999999998,-0.998,0.11199999999999999,-1.8334656000000005,0.0,-0.6302538000000001,94.44639672,-2.75592798,-26.14407354
0.09999999999999999,10,-0.03,-0.998,0.109,-2.0053530000000004,-0.057295800000000015,-0.5156622000000001,94.44066714,-2.71582092,-26.1268848
0.11,11,-0.03,-0.997,0.11,-1.8334656000000005,-0.40107059999999994,-0.286479,94.41774882,-2.71009134,-26.13261438
0.12,12,-0.031,-0.997,0.11,-1.6615782,-0.8021411999999999,-0.11459160000000004,94.40628966,-2.71009134,-26.138343960000004
0.13,13,-0.032,-0.998,0.111,-1.5469866,-1.0886202,0.0,94.38910092,-2.71009134,-26.14980312
0.14,14,-0.034,-1.0,0.111,-1.432395,-1.2032118,0.057295800000000015,94.37191218,-2.71009134,-26.16126228
0.15000000000000002,15,-0.034,-1.001,0.11199999999999999,-1.432395,-1.3750992,0.0,94.37764176,-2.67571386,-26.16126228
0.16,16,-0.034,-1.001,0.113,-1.432395,-1.2605076000000002,-0.057295800000000015,94.3661826,-2.67571386,-26.17845102
0.17,17,-0.034,-1.001,0.113,-1.145916,-1.3750992,-0.1718874,94.35472344,-2.6699842800000004,-26.18991018
0.18000000000000002,18,-0.033,-1.002,0.114,-0.9740286,-1.2605076000000002,-0.2291832000000001,94.34326428,-2.6642547000000003,-26.20136934000001
0.19,19,-0.032,-1.005,0.115,-1.0313244000000001,-1.3178034,-0.1718874,94.3375347,-2.6642547000000003,-26.2128285
0.2,20,-0.031,-1.005,0.11699999999999999,-1.0313244000000001,-1.5469866,-0.2291832000000001,94.34899386,-2.62987722,-26.21855808
0.21000000000000002,21,-0.031,-1.006,0.121,-1.0313244000000001,-1.3178034,-0.1718874,94.3375347,-2.62414764,-26.23001724
0.22,22,-0.031,-1.008,0.122,-1.0313244000000001,-1.0313244000000001,-0.11459160000000004,94.33180511999998,-2.62414764,-26.241476399999996
0.23,23,-0.035,-1.0070000000000001,0.12,-1.145916,-0.572958,-0.1718874,94.32034596,-2.62414764,-26.24720598
0.24000000000000002,24,-0.037000000000000005,-1.006,0.12,-1.2605076000000002,-0.11459160000000004,-0.2291832000000001,94.30315722,-2.61841806,-26.24720598
0.25,25,-0.039,-1.005,0.11800000000000001,-1.3750992,0.1718874,-0.40107059999999994,94.32607554,-2.58977016,-26.23574682
0.26,26,-0.039,-1.0070000000000001,0.115,-1.7188740000000002,0.3437748,-0.4583664000000001,94.3088868,-2.58404058,-26.23001724
0.27,27,-0.038,-1.0090000000000001,0.115,-2.0626488000000003,0.572958,-0.572958,94.28596848,-2.578311,-26.22428766
0.28,28,-0.036000000000000004,-1.01,0.11699999999999999,-2.4637194,1.145916,-0.4583664000000001,94.25732058,-2.578311,-26.2128285
0.29000000000000004,29,-0.034,-1.01,0.11800000000000001,-2.6356068,1.8334656000000005,-0.3437748,94.22867268000002,-2.57258142,-26.19563976
0.3,30,-0.032,-1.013,0.11599999999999999,-2.86479,2.5210152000000003,-0.057295800000000015,94.21148394,-2.5611222600000003,-26.16126228
0.31,31,-0.026000000000000002,-1.012,0.109,-3.4950437999999995,2.9220858,0.1718874,94.17137688,-2.56685184,-26.13261438
0.32,32,-0.023,-1.0090000000000001,0.105,-3.8961144,2.4637194,0.3437748,94.13126982,-2.57258142,-26.109696060000005
0.33,33,-0.023,-1.0070000000000001,0.10400000000000001,-4.0680017999999984,1.3178034,0.1718874,94.09116276,-2.578311,-26.098236899999996
0.34,34,-0.025,-1.0090000000000001,0.10300000000000001,-4.1825934,0.2291832000000001,0.057295800000000015,94.04532612,-2.578311,-26.09250732000001
0.35000000000000003,35,-0.027000000000000003,-1.012,0.106,-4.3544808,-0.3437748,0.0,94.01094864,-2.5611222600000003,-26.09250732000001
0.36000000000000004,36,-0.031,-1.013,0.109,-4.583664,-0.5156622000000001,0.0,93.965112,-2.5611222600000003,-26.098236899999996
0.37,37,-0.032,-1.0090000000000001,0.11,-4.6409598,-0.5156622000000001,-0.057295800000000015,93.91927536,-2.55539268,-26.103966480000004
0.38,38,-0.033,-1.0070000000000001,0.107,-4.5263682,-0.572958,-0.11459160000000004,93.87343872,-2.55539268,-26.109696060000005
0.39,39,-0.033,-1.0070000000000001,0.106,-4.8128472,-1.0313244000000001,-0.11459160000000004,93.82760208,-2.55539268,-26.12115522
0.4,40,-0.031,-1.006,0.10400000000000001,-5.2139178,-1.5469866,0.0,93.78176544,-2.53820394,-26.13261438
0.41000000000000003,41,-0.028999999999999998,-1.0070000000000001,0.10300000000000001,-5.443101,-2.291832,0.11459160000000004,93.72446964,-2.53820394,-26.1555327
0.42000000000000004,42,-0.027000000000000003,-1.0070000000000001,0.10400000000000001,-5.72958,-3.0939732,0.057295800000000015,93.66717384,-2.53820394,-26.1841806
0.43,43,-0.027999999999999997,-1.006,0.10300000000000001,-5.9014674000000005,-3.8388186,0.0,93.60987804,-2.53247436,-26.22428766
0.44,44,-0.033,-1.008,0.102,-6.3025379999999975,-4.4690724,-0.2291832000000001,93.55258224,-2.52674478,-26.27012430000001
0.45,45,-0.034,-1.0090000000000001,0.099,-6.6463128000000005,-4.7555514,-0.4583664000000001,93.48955686,-2.51528562,-26.315960940000004
0.46,46,-0.036000000000000004,-1.01,0.096,-6.875496000000001,-4.6409598,-0.8594370000000001,93.42080190000001,-2.50382646,-26.36179758
0.47000000000000003,47,-0.037000000000000005,-1.012,0.095,-6.8182002000000015,-4.297185,-1.0313244000000001,93.35777652,-2.48663772,-26.40190464
0.48000000000000004,48,-0.039,-1.012,0.094,-6.8182002000000015,-3.8388186,-1.2032118,93.28902156,-2.47517856,-26.4420117
0.49,49,-0.038,-1.011,0.091,-6.703608600000001,-3.4950437999999995,-1.2032118,93.2202666,-2.45798982,-26.47638918
0.5,50,-0.037000000000000005,-1.0090000000000001,0.087,-6.7609043999999985,-3.2085647999999996,-1.2032118,93.15724122,-2.44080108,-26.50503708
0.51,51,-0.036000000000000004,-1.0090000000000001,0.08199999999999999,-7.1046792000000005,-3.1512689999999997,-1.2605076000000002,93.08848626,-2.42361234,-26.53941456
0.52,52,-0.036000000000000004,-1.0070000000000001,0.08,-7.448453999999999,-3.2085647999999996,-1.2032118,93.01400172,-2.41215318,-26.56806246
0.53,53,-0.036000000000000004,-1.008,0.079,-7.7922288,-3.2085647999999996,-1.2032118,92.9337876,-2.39496444,-26.60243994
0.54,54,-0.038,-1.011,0.077,-8.078707799999998,-3.2085647999999996,-1.2605076000000002,92.85357348,-2.38350528,-26.63681742
0.55,55,-0.04,-1.018,0.078,-8.8235532,-3.3231564,-1.3178034,92.76762978,-2.36058696,-26.66546532
0.56,56,-0.042,-1.0190000000000001,0.076,-9.568398599999998,-3.1512689999999997,-1.4896908000000002,92.67022692,-2.3491278,-26.69984280000001
0.5700000000000001,57,-0.040999999999999995,-1.021,0.07400000000000001,-10.2559482,-2.86479,-1.5469866,92.57282406,-2.33193906,-26.728490700000002
0.5800000000000001,58,-0.040999999999999995,-1.022,0.071,-10.828906199999999,-2.6929026,-1.7761698000000001,92.46396204,-2.30902074,-26.7571386
0.59,59,-0.039,-1.022,0.068,-11.0580894,-2.6929026,-1.8907614,92.34937044,-2.2918320000000003,-26.780056920000003
0.6,60,-0.037000000000000005,-1.022,0.068,-11.2872726,-2.8074942000000003,-1.9480572,92.24050842,-2.26891368,-26.80870482000001
0.61,61,-0.035,-1.018,0.068,-11.5164558,-2.6929026,-1.8334656000000005,92.12018724,-2.24599536,-26.83735272
0.62,62,-0.033,-1.015,0.063,-11.9748222,-2.3491277999999998,-1.6615782,91.99986606,-2.22880662,-26.86027104
0.63,63,-0.028999999999999998,-1.014,0.061,-12.5477802,-2.2345362,-1.432395,91.87381529999999,-2.21734746,-26.88318936
0.64,64,-0.023,-1.014,0.055999999999999994,-12.891555,-2.6356068,-1.0886202,91.74776454000002,-2.2058883,-26.91183726
0.65,65,-0.018000000000000002,-1.016,0.049,-13.2926256,-3.4950437999999995,-0.8021411999999999,91.61025462,-2.18869956,-26.94621474
0.66,66,-0.017,-1.018,0.042,-13.8655836,-4.1252976000000015,-0.40107059999999994,91.4727447,-2.18296998,-26.9863218
0.67,67,-0.017,-1.0170000000000001,0.038,-14.4958374,-4.8701430000000006,-0.1718874,91.3295052,-2.1772404,-27.037888020000004
0.68,68,-0.02,-1.015,0.037000000000000005,-14.8396122,-5.443101,-0.2291832000000001,91.18053612,-2.1772404,-27.09518382
0.6900000000000001,69,-0.023,-1.013,0.035,-15.068795399999999,-5.5003968,-0.572958,91.03156704,-2.1657812400000003,-27.15247962
0.7000000000000001,70,-0.025,-1.011,0.033,-15.297978599999999,-4.9847346,-1.0886202,90.87686838,-2.1485925000000003,-27.19831626
0.7100000000000001,71,-0.025,-1.0090000000000001,0.027999999999999997,-15.813640800000002,-4.1825934,-1.7761698000000001,90.71644014,-2.13140376,-27.2441529
0.72,72,-0.024,-1.006,0.026000000000000002,-16.042824000000003,-4.1252976000000015,-2.2345362,90.5560119,-2.10848544,-27.28425996
0.73,73,-0.023,-1.004,0.027000000000000003,-16.157415599999997,-4.7555514,-2.5210152000000003,90.39558366,-2.08556712,-27.33582618
0.74,74,-0.022000000000000002,-1.0,0.025,-16.673077799999998,-5.042030400000002,-2.6356068,90.22369626,-2.05691922,-27.3873924
0.75,75,-0.022000000000000002,-0.998,0.021,-17.475219,-4.8128472,-2.6929026,90.05180886000002,-2.02827132,-27.433229040000004
0.76,76,-0.022000000000000002,-0.995,0.017,-18.1054728,-4.4690724,-2.6356068,89.8684623,-1.99962342,-27.47906568
0.77,77,-0.024,-0.995,0.009000000000000001,-18.334656,-3.9534102,-2.6356068,89.68511574,-1.9767051,-27.52490232
0.78,78,-0.026000000000000002,-0.998,0.006999999999999999,-18.5638392,-3.2085647999999996,-2.6929026,89.49603959999996,-1.9480572000000005,-27.559279799999995
0.79,79,-0.026000000000000002,-0.9990000000000001,0.005,-18.907614,-2.291832,-2.8074942000000003,89.30696345999998,-1.9194093000000003,-27.58219812
0.8,80,-0.025,-0.9990000000000001,0.0,-19.194093,-1.8907614,-2.8074942000000003,89.11215774000001,-1.8907614,-27.60511644
0.81,81,-0.022000000000000002,-1.002,-0.002,-19.5378678,-1.6042823999999998,-2.6929026,88.91162244,-1.86784308,-27.62230518
0.8200000000000001,82,-0.018000000000000002,-1.002,-0.006999999999999999,-19.8243468,-1.7188740000000002,-2.4064236,88.71108714,-1.84492476,-27.63949392
0.8300000000000001,83,-0.015,-1.001,-0.009000000000000001,-20.340009,-2.0053530000000004,-2.2345362,88.50482226,-1.82200644,-27.66241224
0.8400000000000001,84,-0.009000000000000001,-0.995,-0.013999999999999999,-20.6837838,-2.0626488000000003,-2.0626488000000003,88.29855738,-1.8048177,-27.69106014
0.85,85,-0.005,-0.99,-0.016,-20.8556712,-2.2345362,-2.0626488000000003,88.08656292,-1.78189938,-27.71397846
0.86,86,-0.002,-0.9890000000000001,-0.017,-21.485925,-2.4064236,-2.291832,87.86883888,-1.75898106,-27.73689678
0.87,87,-0.001,-0.988,-0.023,-22.2307704,-2.4637194,-2.4064236,87.64538526,-1.73606274,-27.76554468
0.88,88,-0.004,-0.991,-0.028999999999999998,-23.5485738,-2.4064236,-2.5783110000000002,87.4047429,-1.71314442,-27.79419258
0.89,89,-0.006999999999999999,-0.992,-0.033,-24.637194,-2.1199446,-2.5783110000000002,87.15837096,-1.6902260999999998,-27.82284048
0.9,90,-0.013000000000000001,-0.991,-0.039,-24.9809688,-1.5469866,-2.4064236,86.90053986000002,-1.6673077799999998,-27.84002922
0.91,91,-0.017,-0.995,-0.040999999999999995,-25.6112226,-0.5156622000000001,-2.1199446,86.64270875999998,-1.64438946,-27.84575880000001
0.92,92,-0.019,-0.9940000000000001,-0.043,-26.4706596,0.6302538000000001,-1.6615782,86.37341849999999,-1.6329303,-27.84575880000001
0.93,93,-0.019,-0.9890000000000001,-0.044000000000000004,-26.929026,1.2032118,-1.0886202,86.09839866,-1.62147114,-27.83429964
0.9400000000000001,94,-0.016,-0.982,-0.048,-27.3300966,1.432395,-0.572958,85.81764924000002,-1.62147114,-27.82284048
0.9500000000000001,95,-0.008,-0.973,-0.055999999999999994,-27.3300966,1.7188740000000002,-0.11459160000000004,85.54262940000002,-1.6157415599999996,-27.81138132
0.9600000000000001,96,0.0,-0.97,-0.059000000000000004,-27.6738714,1.4896908000000002,0.0,85.26187998,-1.6157415599999996,-27.79419258
0.97,97,0.006999999999999999,-0.9690000000000001,-0.059000000000000004,-28.5906042,1.0313244000000001,0.0,84.96967140000002,-1.6157415599999996,-27.788463
0.98,98,0.01,-0.9690000000000001,-0.066,-29.621928600000004,0.5156622000000001,0.057295800000000015,84.66600365999999,-1.62147114,-27.788463
0.99,99,0.013999999999999999,-0.975,-0.068,-31.1689152,-0.286479,0.057295800000000015,84.35087675999998,-1.6272007199999998,-27.79419258
1.0,100,0.016,-0.978,-0.071,-32.085648000000006,-1.6042823999999998,0.057295800000000015,84.03002028,-1.62147114,-27.81138132
1.01,101,0.013000000000000001,-0.9790000000000001,-0.078,-32.2002396,-3.2658606,0.2291832000000001,83.70343421999998,-1.6329303,-27.84575880000001
1.02,102,0.011000000000000001,-0.98,-0.085,-31.856464799999998,-4.4117766,0.40107059999999994,83.38257774,-1.64438946,-27.891595440000003
1.03,103,0.004,-0.983,-0.087,-31.054323600000004,-5.7868758000000025,0.1718874,83.06745083999998,-1.65011904,-27.954620819999995
1.04,104,-0.003,-0.986,-0.085,-30.4813656,-6.6463128000000005,-0.7448454000000001,82.75805352,-1.6558486199999998,-28.02337578
1.05,105,-0.01,-0.987,-0.08900000000000001,-30.3094782,-6.4744254,-2.291832,82.46011536,-1.6386598799999998,-28.09213074
1.06,106,-0.02,-0.99,-0.087,-30.252182399999995,-5.72958,-3.9534102,82.15071803999999,-1.61001198,-28.15515612
1.07,107,-0.025,-0.992,-0.087,-29.507337,-4.1252976000000015,-5.5003968,81.85277988,-1.56417534,-28.20672234
1.08,108,-0.023,-0.99,-0.094,-28.81978740000001,-1.9480572,-6.4744254,81.56057129999998,-1.50114996,-28.24109982
1.09,109,-0.016,-0.982,-0.09,-28.5906042,0.572958,-6.875496000000001,81.27409229999998,-1.43812458,-28.2468294
1.1,110,-0.012,-0.971,-0.08800000000000001,-27.8457588,2.8074942000000003,-6.417129599999999,80.99334288,-1.36936962,-28.229640659999994
1.11,111,-0.011000000000000001,-0.972,-0.092,-28.1895336,3.6669312000000014,-5.3858052,80.70686388,-1.3178034,-28.20672234
1.12,112,-0.012,-0.971,-0.098,-28.6479,4.2398892,-4.1825934,80.41465529999998,-1.27196676,-28.17234486
1.1300000000000001,113,-0.013000000000000001,-0.983,-0.10400000000000001,-29.0489706,5.1566220000000005,-3.1512689999999997,80.11671714,-1.23758928,-28.1322378
1.1400000000000001,114,-0.006,-0.998,-0.10300000000000001,-29.621928600000004,6.1879464,-2.7501984,79.81304940000003,-1.2032117999999998,-28.074942000000004
1.1500000000000001,115,0.0,-1.006,-0.099,-29.621928600000004,6.875496000000001,-2.8074942000000003,79.51511124,-1.16310474,-28.017646199999994
1.1600000000000001,116,0.006999999999999999,-1.004,-0.107,-29.4500412,7.448453999999999,-2.9793816000000004,79.21717308,-1.12299768,-27.954620819999995
1.17,117,0.015,-0.99,-0.11,-28.81978740000001,8.021412000000002,-3.4377480000000005,78.91923492,-1.08289062,-27.88586586000001
1.18,118,0.022000000000000002,-0.9740000000000001,-0.106,-28.0176462,8.9954406,-4.0680017999999984,78.63275592,-1.0313244000000001,-27.805651739999995
1.19,119,0.028999999999999998,-0.9540000000000001,-0.109,-27.8457588,10.1413566,-4.6409598,78.34627692000002,-0.96829902,-27.71970804
1.2,120,0.037000000000000005,-0.943,-0.122,-28.5906042,11.1153852,-4.8128472,78.05979792000002,-0.89954406,-27.62230518
1.21,121,0.045,-0.948,-0.129,-30.3094782,11.401864199999999,-4.3544808,77.75040059999998,-0.83651868,-27.51917274
1.22,122,0.054000000000000006,-0.955,-0.132,-31.856464799999998,11.0007936,-3.3231564,77.42381454,-0.7906820400000001,-27.42176988
1.23,123,0.055,-0.965,-0.147,-32.7731976,9.682990199999999,-1.8334656000000005,77.08576932000003,-0.75630456,-27.33582618
1.24,124,0.055,-0.97,-0.155,-33.518043,7.161975,-0.2291832000000001,76.74199452,-0.7391158200000001,-27.272800800000002
1.25,125,0.048,-0.963,-0.16,-33.116972399999995,4.5263682,0.572958,76.41540846000002,-0.73338624,-27.22696416
1.26,126,0.043,-0.9590000000000001,-0.163,-32.372127,2.6356068,0.40107059999999994,76.08309282,-0.73338624,-27.20404584000001
1.27,127,0.042,-0.955,-0.165,-31.9710564,1.7188740000000002,-0.9740286,75.75650676000002,-0.72192708,-27.192586680000005
1.28,128,0.047,-0.951,-0.168,-31.9710564,1.8907614,-2.6356068,75.43565028,-0.69900876,-27.18112752
1.29,129,0.053,-0.9470000000000001,-0.162,-32.142943800000005,1.5469866,-4.010706000000001,75.10906422000002,-0.6589017,-27.18112752
1.3,130,0.064,-0.938,-0.171,-32.257535399999995,1.2032118,-4.583664,74.78820774,-0.6016058999999999,-27.17539794
1.31,131,0.076,-0.9229999999999999,-0.179,-32.4867186,1.145916,-4.297185,74.4558921,-0.56149884,-27.18112752
1.32,132,0.081,-0.905,-0.17800000000000002,-32.31483119999999,1.145916,-3.6669312000000014,74.12930604,-0.52712136,-27.18112752
1.33,133,0.079,-0.8959999999999999,-0.193,-32.7159018,0.9740286,-2.6929026,73.79699040000001,-0.5042030399999999,-27.18112752
1.34,134,0.07400000000000001,-0.903,-0.204,-33.1742682,0.8594370000000001,-1.432395,73.45894518,-0.49274388,-27.18112752
1.35,135,0.063,-0.9259999999999999,-0.209,-32.945085,-0.5156622000000001,-0.4583664000000001,73.12662954,-0.48128472,-27.186857100000005
1.36,136,0.052000000000000005,-0.953,-0.213,-33.6326346,-2.3491277999999998,0.2291832000000001,72.78858432000001,-0.49274388,-27.20977542
1.37,137,0.046,-0.9670000000000001,-0.21,-34.0337052,-4.583664,0.3437748,72.44480952,-0.5099326200000001,-27.25561206
1.3800000000000001,138,0.047,-0.961,-0.217,-33.0596766,-6.130650599999999,-0.40107059999999994,72.10676430000002,-0.52712136,-27.31863744
1.3900000000000001,139,0.054000000000000006,-0.9490000000000001,-0.22399999999999998,-31.22621100000001,-6.2452422,-1.8334656000000005,71.79163739999998,-0.53285094,-27.3873924
1.4000000000000001,140,0.07,-0.938,-0.22399999999999998,-30.137590799999998,-6.0733548,-3.7242269999999995,71.49369924,-0.5042030399999999,-27.45614736
1.4100000000000001,141,0.085,-0.935,-0.231,-29.736520199999998,-6.0733548,-5.042030400000002,71.19576108,-0.48128472,-27.5306319
1.42,142,0.098,-0.938,-0.247,-30.65325300000001,-6.417129599999999,-5.3858052,70.88636376,-0.4526368200000001,-27.610846020000004
1.43,143,0.10300000000000001,-0.937,-0.24100000000000002,-31.340802600000004,-7.6776372,-4.7555514,70.56550728,-0.4297185000000001,-27.702519300000002
1.44,144,0.10099999999999999,-0.9229999999999999,-0.22699999999999998,-30.595957199999997,-8.479778399999999,-4.1825934,70.26183954,-0.42398892,-27.79992216
1.45,145,0.085,-0.909,-0.23600000000000002,-30.194886600000004,-7.7922288,-3.7242269999999995,69.9581718,-0.4010706000000001,-27.88013628
1.46,146,0.067,-0.902,-0.258,-31.054323600000004,-8.021412000000002,-3.4950437999999995,69.64877448000001,-0.4010706000000001,-27.97180956
1.47,147,0.05,-0.9059999999999999,-0.267,-31.2835068,-9.740286,-3.5523396000000003,69.33364758,-0.4010706000000001,-28.08067158
1.48,148,0.044000000000000004,-0.914,-0.248,-30.252182399999995,-11.688343199999998,-3.9534102,69.02425026,-0.40680018,-28.20672234
1.49,149,0.049,-0.922,-0.259,-29.621928600000004,-11.401864199999999,-5.042030400000002,68.72631209999999,-0.4010706000000001,-28.332773100000004
1.5,150,0.065,-0.927,-0.27399999999999997,-29.9084076,-10.2559482,-6.3025379999999975,68.43410352000001,-0.36669312,-28.4473647
1.51,151,0.08,-0.922,-0.27399999999999997,-29.220858000000003,-9.6256944,-7.3911582,68.13616535999999,-0.33804522,-28.56768588
1.52,152,0.092,-0.9159999999999999,-0.28,-28.3041252,-9.167328,-8.078707799999998,67.84968635999999,-0.29793816,-28.68227748
1.53,153,0.10300000000000001,-0.909,-0.29100000000000004,-28.361421000000004,-8.7089616,-8.307891,67.56320736,-0.25210152,-28.79686908
1.54,154,0.114,-0.9009999999999999,-0.301,-29.0489706,-9.167328,-8.193299399999999,67.27099878,-0.21199446,-28.91719026
1.55,155,0.11800000000000001,-0.895,-0.3,-29.392745399999995,-10.5424272,-7.734933000000002,66.97879019999999,-0.1718874,-29.04324102
1.56,156,0.11,-0.8909999999999999,-0.28,-29.9084076,-12.4904844,-7.3911582,66.68085204,-0.14896908,-29.186480520000003
1.57,157,0.09300000000000001,-0.872,-0.284,-30.137590799999998,-14.5531332,-7.5630456000000015,66.37718430000001,-0.13750992,-29.35263834
1.58,158,0.08199999999999999,-0.862,-0.312,-29.5646328,-13.2926256,-7.6203414,66.07924614,-0.12605075999999998,-29.507337
1.59,159,0.076,-0.879,-0.32899999999999996,-30.022999199999997,-11.2299768,-7.906820400000001,65.7755784,-0.09740286,-29.64484692000001
1.6,160,0.075,-0.898,-0.336,-30.997027799999998,-11.688343199999998,-8.3651868,65.46618108,-0.06302537999999999,-29.78235684
1.61,161,0.084,-0.924,-0.35100000000000003,-31.51269000000001,-12.4904844,-8.880849000000003,65.14532460000001,-0.03437748,-29.9370555
1.62,162,0.098,-0.935,-0.33799999999999997,-31.856464799999998,-13.120738199999998,-9.6256944,64.82446811999999,0.0,-30.09748374
1.6300000000000001,163,0.10800000000000001,-0.919,-0.317,-30.882436199999997,-14.896907999999998,-11.0007936,64.5150708,0.028647900000000007,-30.2808303
1.6400000000000001,164,0.114,-0.897,-0.326,-29.8511118,-16.272007199999994,-12.318597,64.21140306000001,0.06875496,-30.48709518
1.6500000000000001,165,0.12300000000000001,-0.8759999999999999,-0.336,-29.793815999999996,-16.8449652,-13.2926256,63.9134649,0.13178034,-30.693360060000003
1.6600000000000001,166,0.126,-0.872,-0.34600000000000003,-28.2468294,-16.959556799999998,-13.9228794,63.626985899999994,0.17761697999999998,-30.905354520000003
1.6700000000000002,167,0.134,-0.882,-0.365,-28.1895336,-16.329303,-14.209358400000001,63.34623648,0.23491278,-31.11734898000001
1.68,168,0.146,-0.8909999999999999,-0.365,-27.7311672,-16.8449652,-14.381245800000002,63.06548706,0.28647900000000004,-31.33507302000001
1.69,169,0.154,-0.898,-0.363,-26.642546999999997,-18.162768600000003,-15.297978599999999,62.7961968,0.3437748,-31.5699858
1.7,170,0.165,-0.903,-0.379,-26.069589,-19.652459399999998,-16.2147114,62.53263611999999,0.41825934,-31.81635774
1.71,171,0.17800000000000002,-0.9009999999999999,-0.379,-25.496631,-22.0015872,-17.0741484,62.27480502,0.46982556,-32.09137758
1.72,172,0.177,-0.8909999999999999,-0.33399999999999996,-24.9809688,-26.356068,-18.277360199999997,62.02270350000001,0.5099326200000001,-32.41223406
1.73,173,0.161,-0.86,-0.327,-23.835052800000003,-28.418716800000002,-19.8816426,61.78206114,0.55576926,-32.756008859999994
1.74,174,0.151,-0.828,-0.33,-22.9756158,-25.55392680000001,-21.5432208,61.54714836000001,0.6302538000000001,-33.082594920000005
1.75,175,0.13699999999999998,-0.7959999999999999,-0.335,-22.7464326,-20.7983754,-22.91832,61.31796515999999,0.7448454000000001,-33.3748035
1.76,176,0.122,-0.784,-0.3670000000000001,-21.2567418,-15.928232399999999,-23.663165399999997,61.10024112,0.87662574,-33.626905019999995
1.77,177,0.10800000000000001,-0.804,-0.39299999999999996,-20.6837838,-13.750992000000002,-23.835052800000003,60.88824666000001,1.01986524,-33.8618178
1.78,178,0.105,-0.8270000000000001,-0.382,-20.8556712,-15.126091199999998,-24.064236,60.67052262,1.15164558,-34.113919319999994
1.79,179,0.106,-0.835,-0.364,-19.9389384,-19.595163600000006,-24.694489800000003,60.46425774000001,1.27769634,-34.4061279
1.8,180,0.10099999999999999,-0.8190000000000001,-0.363,-16.501190400000002,-23.14750320000001,-25.496631,60.29809991999999,1.39228794,-34.73271396
1.81,181,0.10400000000000001,-0.785,-0.354,-12.834259199999998,-25.210151999999997,-26.69984280000001,60.16059,1.50687954,-35.08794792
1.82,182,0.11699999999999999,-0.754,-0.359,-9.6256944,-24.8663772,-28.0176462,60.05745756,1.6272007199999998,-35.44318188
1.83,183,0.141,-0.741,-0.375,-8.021412000000002,-22.5745452,-28.533308399999996,59.96578428,1.76471064,-35.7812271
1.84,184,0.168,-0.7490000000000001,-0.365,-8.136003599999999,-20.912967000000002,-28.132237800000002,59.87411099999999,1.90795014,-36.10208358
1.85,185,0.18100000000000002,-0.7709999999999999,-0.363,-8.136003599999999,-22.2307704,-27.501984000000004,59.7881673,2.05691922,-36.42866964
1.86,186,0.188,-0.785,-0.38,-7.6203414,-23.4339822,-26.5852512,59.7022236,2.17151082,-36.76098528
1.87,187,0.182,-0.8029999999999999,-0.387,-6.875496000000001,-26.0122932,-25.9549974,59.62200948000001,2.26891368,-37.12194882
1.8800000000000001,188,0.175,-0.7979999999999999,-0.389,-6.990087599999999,-29.1062664,-24.4080108,59.53606578,2.34339822,-37.49437152
1.8900000000000001,189,0.198,-0.7959999999999999,-0.39299999999999996,-5.7868758000000025,-32.372127,-22.4599536,59.46731082,2.3777757,-37.88971254000001
1.9000000000000001,190,0.217,-0.7909999999999999,-0.395,-4.297185,-36.7839036,-21.314037600000002,59.41001502,2.40069402,-38.30797188
1.9100000000000001,191,0.223,-0.79,-0.39899999999999997,-2.0053530000000004,-39.534102000000004,-21.371333399999997,59.37563754,2.39496444,-38.76060870000001
1.9200000000000002,192,0.239,-0.772,-0.395,-0.572958,-40.10706,-21.7151082,59.3584488,2.38923486,-39.21324552
1.93,193,0.253,-0.753,-0.408,1.3750992,-39.8778768,-21.314037600000002,59.3584488,2.3777757,-39.66588234
1.94,194,0.23399999999999999,-0.737,-0.395,4.010706000000001,-39.7059894,-21.485925,59.38709670000001,2.37204612,-40.11851916
1.95,195,0.21,-0.715,-0.387,6.0733548,-38.61736920000001,-20.7983754,59.43293334,2.38350528,-40.55396724000001
1.96,196,0.19699999999999998,-0.7070000000000001,-0.419,6.6463128000000005,-36.898495200000006,-19.2513888,59.48449956,2.37204612,-40.97222658
1.97,197,0.209,-0.7290000000000001,-0.44299999999999995,7.734933000000002,-36.669312,-17.0741484,59.55325452,2.34339822,-41.37329718
1.98,198,0.24,-0.7609999999999999,-0.4370000000000001,9.568398599999998,-37.9298196,-14.266654199999998,59.63919822,2.28610242,-41.77436778
1.99,199,0.278,-0.7909999999999999,-0.429,11.401864199999999,-39.3622146,-10.5424272,59.74806024000001,2.19442914,-42.16397922
2.0,200,0.306,-0.8009999999999999,-0.409,14.209358400000001,-40.7373138,-6.990087599999999,59.88557016,2.0912967,-42.54786108
2.01,201,0.316,-0.782,-0.363,16.1001198,-40.7946096,-2.7501984,60.04026882,1.92513888,-42.91455420000001
2.02,202,0.314,-0.752,-0.377,18.2200644,-40.5081306,1.3750992,60.2178858,1.7246035799999997,-43.258329
2.03,203,0.303,-0.726,-0.381,20.6837838,-40.7373138,4.4690724,60.42415067999999,1.50114996,-43.59064464
2.04,204,0.295,-0.7090000000000001,-0.3720000000000001,23.9496444,-40.966497,7.161975,60.67052262,1.24904844,-43.91150112
2.05,205,0.27,-0.687,-0.344,26.1841806,-41.19568020000001,10.4278356,60.9340833,0.9912173399999998,-44.21516886
2.0599999999999996,206,0.235,-0.6759999999999999,-0.315,28.934378999999996,-44.2323576,14.667724800000002,61.23202146,0.6703608600000001,-44.53602534
2.07,207,0.22699999999999998,-0.667,-0.319,31.340802600000004,-45.034498799999994,19.136797199999997,61.55287794,0.30366774,-44.83969308
2.0799999999999996,208,0.22699999999999998,-0.6679999999999999,-0.31,33.231564,-43.7166954,23.0329116,61.89665274,-0.0859437,-45.11471292
2.09,209,0.201,-0.6709999999999999,-0.275,33.6899304,-43.4302164,27.3300966,62.24615712000001,-0.5099326200000001,-45.37254402
2.0999999999999996,210,0.171,-0.653,-0.251,35.17962120000001,-45.2063862,32.257535399999995,62.61285024,-0.9740286,-45.61891596
2.11,211,0.157,-0.636,-0.242,39.304918799999996,-44.06047020000001,36.1536498,63.02538000000001,-1.4782316400000002,-45.84809916
2.1199999999999997,212,0.134,-0.611,-0.22699999999999998,43.029145799999995,-43.1437374,38.8465524,63.47228723999999,-1.99962342,-46.06009362
2.13,213,0.105,-0.598,-0.198,46.2377106,-42.7999626,40.1643558,63.95930154,-2.53247436,-46.2663585
2.1399999999999997,214,0.085,-0.5760000000000001,-0.171,47.9565846,-40.7373138,40.680018,64.457775,-3.05386614,-46.45543464000001
2.15,215,0.065,-0.561,-0.16,49.04520479999999,-36.4401288,41.3102718,64.97343719999999,-3.5580691799999995,-46.60440372
2.1599999999999997,216,0.057,-0.541,-0.158,49.3316838,-31.22621100000001,42.62807520000001,65.4890994,-4.06227222,-46.70753616
2.17,217,0.057,-0.525,-0.162,49.7900502,-26.69984280000001,45.034498799999994,66.00476160000001,-4.56647526,-46.77056154
2.1799999999999997,218,0.061,-0.512,-0.158,50.82137460000001,-23.319390600000002,47.8992888,66.52615338000001,-5.08213746,-46.78775028
2.19,219,0.062,-0.494,-0.14400000000000002,52.7694318,-20.5691922,50.8786704,67.06473390000001,-5.6149884000000005,-46.77629112
2.1999999999999997,220,0.037000000000000005,-0.48100000000000004,-0.14400000000000002,55.4623344,-20.7410796,54.3164184,67.62623274,-6.17648724,-46.753372799999994
2.21,221,0.028999999999999998,-0.461,-0.125,58.49901179999999,-18.1054728,58.842786600000004,68.21637948,-6.77809314,-46.70180658
2.2199999999999998,222,0.025,-0.44,-0.08199999999999999,62.22323879999999,-14.7823164,64.17129600000001,68.8409037,-7.41407652,-46.59867414
2.23,223,0.0,-0.419,-0.10300000000000001,65.3745078,-13.0061466,69.8435802,69.48834624,-8.09589654,-46.47262338
2.2399999999999998,224,-0.016,-0.41200000000000003,-0.099,66.86419860000001,-12.261301199999998,75.68775179999999,70.15297752000001,-8.83501236,-46.323654299999994
2.25,225,-0.024,-0.40299999999999997,-0.10099999999999999,68.9268474,-12.318597,82.1621772,70.82906796,-9.63142398,-46.15749648
2.26,226,-0.015,-0.39299999999999996,-0.076,70.07276340000001,-12.0894138,89.3241522,71.51088797999998,-10.49659056,-45.979879499999996
2.27,227,0.002,-0.373,-0.075,71.39056679999999,-12.6623718,96.8871978,72.20416716,-11.44197126,-45.79653294000001
2.28,228,-0.004,-0.34600000000000003,-0.037000000000000005,72.70837019999998,-13.6936962,103.7626938,72.9089055,-12.45610692,-45.607456799999994
2.29,229,-0.021,-0.321,-0.016,73.1667366,-12.9488508,110.40900659999998,73.60791426,-13.52753838,-45.4069215
2.3,230,-0.013000000000000001,-0.306,-0.032,73.2240324,-11.745639,116.4823614,74.30692302,-14.66199522,-45.18919746
2.31,231,-0.006,-0.302,-0.13,73.51051140000001,-11.688343199999998,121.00872959999998,75.0002022,-15.83655912,-44.97147342
2.32,232,-0.01,-0.304,-0.242,71.90622900000002,-13.2926256,123.8735196,75.67629264,-17.05123008,-44.78239728
2.3299999999999996,233,-0.037000000000000005,-0.336,-0.516,72.93755340000001,-13.0061466,125.9934642,76.36384224,-18.28881936,-44.59332114
2.34,234,-0.008,-0.484,-0.774,69.4425096,-11.5164558,128.05611299999998,77.01128478000003,-19.54359738,-44.39851542
2.3499999999999996,235,-0.11900000000000001,-0.758,-0.823,64.8015498,-36.2682414,134.931609,77.68164564,-20.90723742,-44.45008164
2.36,236,-0.33399999999999996,-1.0270000000000001,-0.746,68.8122558,-79.5265704,148.109643,78.58118970000002,-22.47714234,-44.95428468
2.3699999999999997,237,-0.617,-1.284,-0.525,83.65186800000002,-101.986524,172.68954119999995,79.73856486,-24.31633752,-45.68194134
2.38,238,-0.965,-1.526,-0.397,95.34021120000001,-88.80849,200.0769336,80.97042456,-26.39044548,-46.27208808
2.3899999999999997,239,-1.395,-1.788,-0.3670000000000001,95.8558734,-67.7809314,214.68736260000003,82.13925888,-28.57341546,-46.6674291
2.4,240,-1.7819999999999998,-2.187,-0.53,93.4494498,-55.86340500000001,216.005166,83.25652698,-30.74492628,-46.982556
2.4099999999999997,241,-2.217,-2.767,-0.774,86.80313699999998,-38.10170700000001,212.5101222,84.23055558,-32.87060046000001,-47.14871382
2.42,242,-2.6310000000000002,-3.227,-0.733,77.17744259999998,-21.314037600000002,214.45817940000003,85.0269672,-34.99627464,-47.16017298
2.4299999999999997,243,-2.862,-3.218,-0.405,48.3003594,-17.9335854,225.9746352,85.51971108000002,-37.23654042,-47.15444340000001
2.44,244,-2.6210000000000004,-2.6710000000000003,-0.015,9.2819196,-12.4331886,248.950251,85.57127729999998,-39.7059894,-47.07422928
2.4499999999999997,245,-1.806,-2.074,0.39899999999999997,-12.0894138,7.3911582,267.3422028,85.21031375999998,-42.35305536,-46.70753616
2.46,246,-1.138,-1.571,0.573,-12.7196676,32.7159018,266.8838364,84.55714164,-44.97147342,-45.94550202
2.4699999999999998,247,-0.7340000000000001,-1.117,0.429,-6.6463128000000005,52.2537696,258.46135380000004,83.6805159,-47.48675904,-44.8339635
2.48,248,-0.585,-0.685,0.47200000000000003,-8.880849000000003,53.39968560000001,247.63244759999998,82.66638024,-49.88172348,-43.602103799999995
2.4899999999999998,249,-0.54,-0.312,0.503,-8.3651868,54.94667220000001,242.2466424,81.50900508000002,-52.20793296000001,-42.23273418
2.5,250,-0.568,-0.04,0.5329999999999999,-11.1153852,49.847346,246.20005260000002,80.24849748,-54.56851991999999,-40.7946096
2.51,251,-0.672,-0.06,0.5820000000000001,-9.568398599999998,28.877083199999998,252.15881580000004,79.08539274,-56.99213225999999,-39.51118368
2.52,252,-0.649,-0.27899999999999997,0.598,-8.651665800000002,9.3392154,256.398705,78.05406833999999,-59.473040399999995,-38.39391558
2.53,253,-0.513,-0.52,0.513,-12.891555,2.1199446,267.1130196,76.87377486,-62.06281056,-37.19070377999999
2.54,254,-0.6659999999999999,-0.5589999999999999,0.415,-20.168121600000006,6.990087599999999,275.9365728,75.24084456,-64.70987652,-35.58642138000001
2.55,255,-0.8809999999999999,-0.384,0.433,-31.1689152,20.2827132,275.99386860000004,72.83442096,-67.30537626,-33.30031896000001
2.56,256,-1.0190000000000001,-0.011000000000000001,0.273,-42.28430039999999,44.51883660000001,278.91595440000003,69.06435732,-69.80347314,-29.7078723
2.57,257,-0.99,0.245,0.244,-38.445481799999996,58.5563076,274.96254419999997,63.98794944,-72.10103472,-24.75751518
2.5799999999999996,258,-1.148,0.32,0.161,-30.93973200000001,61.4210976,267.5140902,57.65103395999999,-74.14649478,-18.46643634
2.59,259,-1.367,0.24100000000000002,0.085,-18.1054728,59.1865614,257.14355040000004,50.04788129999999,-75.88828709999999,-10.79452872
2.5999999999999996,260,-1.406,0.257,-0.075,-6.0733548,48.2430636,247.9189266,41.27589432,-77.33787084,-1.85065434
2.61,261,-1.594,0.363,-0.337,-10.1986524,50.8786704,237.77757000000003,30.88816578,-78.34054734,8.663124960000001
2.6199999999999997,262,-1.6580000000000001,0.184,-0.35600000000000004,4.1825934,57.00932099999999,208.3275288,20.44887102,-78.74161794,19.35452124
2.63,263,-1.5319999999999998,0.218,-0.32799999999999996,29.67922440000001,62.68160520000001,180.768249,11.17841058,-78.6384855,29.1062664
2.6399999999999997,264,-1.445,0.32299999999999995,-0.39399999999999996,36.4974246,71.9635248,166.73077800000004,3.02521824,-78.14001204,37.79803926
2.65,265,-1.32,0.34,-0.46399999999999997,34.5493674,69.61439700000001,146.5053606,-3.44347758,-77.44100327999998,44.77093812
2.6599999999999997,266,-1.645,0.765,-0.5539999999999999,29.9657034,50.5348956,142.3227672,-9.098573040000002,-76.79356074,50.88439998
2.67,267,-2.0,0.8590000000000001,-0.59,10.4851314,56.3790672,125.3059146,-13.64785956,-75.99714911999997,55.66859928
2.6799999999999997,268,-2.0780000000000003,1.09,-0.424,3.8961144,51.3943326,103.991877,-17.02831176,-75.23511498,59.19229098
2.69,269,-1.831,0.9129999999999999,-0.335,4.8128472,48.0138804,78.49524600000002,-19.22847048,-74.53610622,61.51277088000001
2.6999999999999997,270,-1.564,0.506,-0.22899999999999998,19.0222056,37.013086799999996,53.4569814,-20.41449354,-74.00898486,62.94516588000001
2.71,271,-1.3359999999999999,0.22,-0.166,25.9549974,24.637194,29.621928600000004,-20.82129372,-73.67666922,63.63844506
2.7199999999999998,272,-1.13,0.223,-0.157,16.558486199999994,23.204798999999998,14.381245800000002,-20.84994162,-73.40737895999997,63.83898036
2.73,273,-1.034,0.419,-0.128,13.2926256,26.4706596,6.4744254,-20.626488,-73.1380887,63.74157750000001
2.7399999999999998,274,-1.047,0.578,-0.094,22.6891368,27.7311672,2.3491277999999998,-20.17385118,-72.86306886,63.50666471999999
2.75,275,-0.9490000000000001,0.616,-0.106,28.5906042,23.2620948,0.9740286,-19.8816426,-72.63961524,63.46655766
2.76,276,-0.847,0.581,-0.126,31.1689152,15.928232399999999,-0.5156622000000001,-19.38316914,-72.48491658,63.27748152
2.77,277,-0.7609999999999999,0.507,-0.149,32.085648000000006,9.682990199999999,-3.7242269999999995,-18.844588620000003,-72.40470246,63.04829832
2.78,278,-0.738,0.45799999999999996,-0.172,28.7051958,4.4117766,-4.8128472,-18.3633039,-72.37605456,62.84776302
2.79,279,-0.7140000000000001,0.415,-0.179,26.1841806,-2.7501984,-5.5003968,-17.94504456,-72.41616162,62.69306436000001
2.8,280,-0.6990000000000001,0.385,-0.17600000000000002,26.929026,-10.5424272,-5.5576926,-17.72732052,-72.52502364,62.72171225999999
2.81,281,-0.7509999999999999,0.36,-0.177,26.9863218,-17.0741484,-5.5003968,-17.42365278,-72.70264062,62.69306436000001
2.82,282,-0.7609999999999999,0.314,-0.184,29.0489706,-20.7983754,-8.021412000000002,-17.0455005,-72.92036466,62.61285024
2.8299999999999996,283,-0.73,0.287,-0.171,26.0122932,-23.892348600000002,-12.5477802,-16.58140452,-73.18392534,62.40658536
2.84,284,-0.7190000000000001,0.27,-0.166,25.2674478,-27.960350399999996,-17.589810600000003,-15.985528200000001,-73.49905224,62.05708098
2.8499999999999996,285,-0.743,0.24600000000000002,-0.19899999999999998,26.0122932,-28.1895336,-22.1161788,-15.27506028,-73.81990872,61.58725542000001
2.86,286,-0.7340000000000001,0.24,-0.209,24.923673,-26.069589,-28.0176462,-14.27811336,-74.1407652,60.81376212
2.8699999999999997,287,-0.779,0.226,-0.191,25.3247436,-24.2361234,-32.945085,-13.051983240000002,-74.44443294,59.81108562000001
2.88,288,-0.8140000000000001,0.193,-0.155,25.6112226,-16.272007199999994,-37.6433406,-11.56802202,-74.67934572,58.53911886000001
2.8899999999999997,289,-0.83,0.155,-0.163,30.022999199999997,-9.1100322,-40.5081306,-9.84914802,-74.83977395999997,57.07807596
2.9,290,-0.812,0.092,-0.223,30.366774000000003,-7.0473834,-42.398892,-8.03860074,-74.96582472,55.5196302
2.9099999999999997,291,-0.851,0.038,-0.284,27.1582092,-5.443101,-42.05511720000001,-6.22232388,-75.06895716,53.92107738
2.92,292,-0.9279999999999999,-0.027999999999999997,-0.306,23.0329116,4.010706000000001,-40.10706,-4.48053156,-75.06322758,52.36263161999999
2.9299999999999997,293,-0.927,-0.10300000000000001,-0.335,20.2827132,17.303331600000003,-38.961144,-2.8074942000000003,-74.91425849999997,50.84429292
2.94,294,-0.863,-0.17300000000000001,-0.321,16.501190400000002,29.67922440000001,-35.0650296,-1.35218088,-74.6277795,49.5035712
2.9499999999999997,295,-0.836,-0.233,-0.305,14.0947668,35.809875,-30.4240698,-0.04583664,-74.26681596,48.3003594
2.96,296,-0.826,-0.299,-0.31,7.3911582,37.9298196,-25.668518399999996,0.87089616,-73.88866368000002,47.41800408
2.9699999999999998,297,-0.8759999999999999,-0.311,-0.324,-2.1199446,31.054323600000004,-19.194093,1.44958374,-73.57926636,46.78775028
2.98,298,-0.9440000000000001,-0.23800000000000002,-0.308,-10.599723,24.350715,-13.0061466,1.7246035799999997,-73.33862400000002,46.3809501
2.9899999999999998,299,-0.963,-0.156,-0.28800000000000003,-14.8396122,22.9756158,-9.453807,1.8334656000000005,-73.10944079999999,46.10593026
3.0,300,-0.9540000000000001,-0.07200000000000001,-0.281,-16.501190400000002,19.365980399999998,-7.6776372,1.8907614,-72.91463508000002,45.87674706
3.01,301,-0.951,-0.003,-0.242,-16.7303736,14.667724800000002,-7.161975,1.91367972,-72.77139558,45.67048218
3.02,302,-0.955,0.027999999999999997,-0.207,-17.131444199999994,12.834259199999998,-9.167328,2.005353,-72.63961524,45.38973276
3.03,303,-0.9490000000000001,0.027999999999999997,-0.223,-17.4179232,13.0634424,-11.45916,2.15432208,-72.5078349,45.04595796
3.04,304,-0.92,0.009000000000000001,-0.27699999999999997,-19.194093,9.396511199999999,-13.178034,2.3491278,-72.41616162,44.6334282
3.05,305,-0.89,0.004,-0.311,-22.1734746,3.0939732,-13.3499214,2.51528562,-72.37032497999998,44.22662802000001
3.06,306,-0.8490000000000001,-0.021,-0.32799999999999996,-22.6891368,-2.4064236,-13.178034,2.69863218,-72.3932433,43.79117994
3.07,307,-0.835,-0.042,-0.32799999999999996,-23.319390600000002,-7.7922288,-13.2926256,2.88770832,-72.46772784,43.33854312
3.08,308,-0.828,-0.052000000000000005,-0.315,-23.5485738,-14.0947668,-12.605075999999999,3.0825140400000004,-72.59950818,42.89163588
3.09,309,-0.835,-0.063,-0.299,-23.14750320000001,-18.621135,-11.9748222,3.27159018,-72.78285473999998,42.44472864
3.0999999999999996,310,-0.8420000000000001,-0.068,-0.289,-23.892348600000002,-22.1734746,-10.943497800000001,3.4663959,-72.98911962000003,41.9978214
3.11,311,-0.852,-0.063,-0.294,-24.7517856,-25.55392680000001,-10.2559482,3.62109456,-73.23549156,41.57383248
3.1199999999999997,312,-0.86,-0.06,-0.301,-24.694489800000003,-28.877083199999998,-9.453807,3.77006364,-73.51624097999998,41.16130272
3.13,313,-0.863,-0.052000000000000005,-0.302,-24.8663772,-32.945085,-8.9954406,3.9247623,-73.83709746000002,40.74304338
3.1399999999999997,314,-0.878,-0.045,-0.294,-25.4393352,-37.0703826,-9.224623800000002,4.10810886,-74.20379058,40.28467698
3.15,315,-0.9209999999999999,-0.055,-0.265,-26.069589,-38.67466500000001,-10.7716104,4.37739912,-74.57621328,39.7346373
3.1599999999999997,316,-0.975,-0.061,-0.22,-27.272800800000002,-35.9244666,-13.0634424,4.71544434,-74.92571766,39.11011308
3.17,317,-1.025,-0.035,-0.203,-27.960350399999996,-30.4813656,-13.2926256,5.04775998,-75.21219666,38.4741297
3.1799999999999997,318,-1.055,-0.046,-0.218,-23.835052800000003,-25.7258142,-13.636400400000001,5.43737142,-75.45856859999998,37.82668716
3.19,319,-1.061,-0.039,-0.217,-22.1161788,-23.7204612,-12.032118,5.7868758,-75.68202222,37.23654042
3.1999999999999997,320,-1.054,-0.037000000000000005,-0.213,-21.657812399999997,-21.829699800000004,-10.886202,6.1020027,-75.88828709999999,36.68650074
3.21,321,-1.043,-0.038,-0.222,-21.485925,-19.2513888,-10.3705398,6.39421128,-76.07163366,36.15937938
3.2199999999999998,322,-1.031,-0.028999999999999998,-0.226,-19.9962342,-17.6471064,-8.7089616,6.63485364,-76.23779148,35.70101298
3.23,323,-1.021,-0.051,-0.222,-16.501190400000002,-16.673077799999998,-7.2192707999999985,6.858307260000001,-76.39249013999998,35.30567196
3.2399999999999998,324,-1.008,-0.068,-0.215,-14.610429000000002,-15.6417534,-5.6149884000000005,7.03592424,-76.54145922000002,34.97335632
3.25,325,-0.997,-0.08199999999999999,-0.20600000000000002,-13.120738199999998,-15.183387000000002,-4.3544808,7.2307299600000015,-76.6904283,34.64104068
3.26,326,-0.992,-0.055,-0.19699999999999998,-11.3445684,-16.2147114,-2.1772404,7.31094408,-76.84512696,34.44623496
3.27,327,-0.992,-0.047,-0.184,-7.7922288,-17.0168526,-0.2291832000000001,7.3567807200000015,-77.01128478000003,34.3201842
3.28,328,-0.998,-0.044000000000000004,-0.171,-5.1566220000000005,-17.475219,-0.057295800000000015,7.42553568,-77.18317218,34.19413344
3.29,329,-1.006,-0.031,-0.157,-4.010706000000001,-17.3606274,0.40107059999999994,7.4885610599999985,-77.35505958,34.091001
3.3,330,-1.013,-0.018000000000000002,-0.14,-2.0626488000000003,-17.3606274,0.8594370000000001,7.534397699999999,-77.55559488,34.02224604
3.31,331,-1.018,-0.023,-0.129,-0.1718874,-17.303331600000003,1.6042823999999998,7.58596392,-77.72748228,33.96495024
3.32,332,-1.0170000000000001,-0.032,-0.125,1.6042823999999998,-17.303331600000003,1.3750992,7.66617804,-77.8936401,33.901924859999994
3.33,333,-1.0070000000000001,-0.03,-0.11900000000000001,2.5783110000000002,-17.0168526,0.4583664000000001,7.80368796,-78.0655275,33.79306284
3.34,334,-1.0,-0.006999999999999999,-0.11699999999999999,2.86479,-15.6990492,0.8594370000000001,7.91254998,-78.22022616,33.71284872
3.3499999999999996,335,-0.995,-0.01,-0.11900000000000001,3.7242269999999995,-14.037471,1.0313244000000001,7.9927641000000005,-78.38638397999998,33.66701208
3.36,336,-0.991,-0.013000000000000001,-0.126,3.8961144,-12.2040054,0.2291832000000001,8.12454444,-78.50670516,33.575338800000004
3.3699999999999997,337,-0.9840000000000001,-0.004,-0.129,3.8961144,-10.599723,-0.3437748,8.26778394,-78.60983759999998,33.46647678
3.38,338,-0.982,-0.004,-0.134,4.4690724,-8.9381448,-0.1718874,8.40529386,-78.6957813,33.38053308
3.3899999999999997,339,-0.98,-0.009000000000000001,-0.135,5.0993262,-7.7922288,-0.8021411999999999,8.57145168,-78.77026584,33.265941479999995
3.4,340,-0.983,-0.013000000000000001,-0.139,5.0993262,-6.4744254,-1.2032118,8.714691179999999,-78.85620954,33.16280904
3.4099999999999997,341,-0.9890000000000001,-0.02,-0.14,5.5003968,-5.1566220000000005,-1.6042823999999998,8.90376732,-78.90204618,33.03102869999999
3.42,342,-0.996,-0.023,-0.14400000000000002,5.5576926,-3.2658606,-1.7188740000000002,9.081384300000002,-78.93069408,32.91070752
3.4299999999999997,343,-1.003,-0.034,-0.145,5.844171599999999,-1.7188740000000002,-1.7761698000000001,9.24754212,-78.94215324000002,32.8018455
3.44,344,-1.008,-0.046,-0.145,5.5576926,-0.11459160000000004,-1.7761698000000001,9.3965112,-78.94215324000002,32.70444264
3.4499999999999997,345,-1.011,-0.048,-0.151,4.9847346,0.8594370000000001,-1.6615782,9.61423524,-78.95361240000003,32.544014399999995
3.46,346,-1.016,-0.049,-0.151,5.1566220000000005,1.5469866,-1.2605076000000002,9.71736768,-78.93642365999997,32.492448180000004
3.4699999999999998,347,-1.014,-0.048,-0.146,5.3285094000000015,2.3491277999999998,-0.8021411999999999,9.78612264,-78.91350534,32.46952986
3.48,348,-1.008,-0.043,-0.147,4.7555514,2.9220858,-0.3437748,9.826229699999999,-78.87912786,32.48098902
3.4899999999999998,349,-1.002,-0.036000000000000004,-0.147,4.3544808,3.0939732,-0.11459160000000004,9.84341844,-78.85047996,32.509636920000005
3.5,350,-1.0,-0.032,-0.145,4.1825934,2.86479,0.11459160000000004,9.84914802,-78.86766870000002,32.53828482
3.51,351,-0.998,-0.031,-0.142,4.010706000000001,2.6929026,0.1718874,9.86060718,-78.8390208,32.572662300000005
3.52,352,-0.996,-0.033,-0.142,3.4950437999999995,2.6356068,0.2291832000000001,9.8548776,-78.8103729,32.61276936
3.53,353,-0.996,-0.032,-0.145,2.9220858,2.5210152000000003,0.3437748,9.84341844,-78.78745458,32.658606000000006
3.54,354,-0.996,-0.035,-0.14400000000000002,2.1772404,2.7501984,0.3437748,9.82050012,-78.76453626,32.70444264
3.55,355,-0.995,-0.035,-0.14300000000000002,1.2605076000000002,3.3231564,0.40107059999999994,9.82050012,-78.79318416,32.7159018
3.56,356,-0.993,-0.035,-0.145,0.6302538000000001,3.8961144,0.4583664000000001,9.76320432,-78.7530771,32.77892718
3.57,357,-0.993,-0.034,-0.147,0.1718874,4.2398892,0.4583664000000001,9.69444936,-78.71297003999999,32.84768214
3.58,358,-0.99,-0.034,-0.154,-0.1718874,4.583664,0.40107059999999994,9.63142398,-78.6671334,32.91070752
3.59,359,-0.986,-0.033,-0.157,-0.5156622000000001,4.5263682,0.3437748,9.56266902,-78.62702634000001,32.973732899999995
3.5999999999999996,360,-0.982,-0.03,-0.158,-0.8594370000000001,4.3544808,0.2291832000000001,9.48818448,-78.62129675999998,33.03675828
3.61,361,-0.9790000000000001,-0.028999999999999998,-0.162,-1.0886202,3.8388186,0.11459160000000004,9.43088868,-78.58118970000002,33.082594920000005
3.6199999999999997,362,-0.976,-0.027999999999999997,-0.165,-1.2605076000000002,3.3231564,-0.057295800000000015,9.39078162,-78.5525418,33.10551324
3.63,363,-0.976,-0.028999999999999998,-0.16699999999999998,-1.5469866,2.8074942000000003,-0.1718874,9.36213372,-78.52389389999998,33.12270198
3.6399999999999997,364,-0.976,-0.031,-0.16699999999999998,-2.0053530000000004,2.4064236,-0.40107059999999994,9.3392154,-78.50097558,33.12843156
3.65,365,-0.976,-0.032,-0.16699999999999998,-2.2345362,2.1199446,-0.572958,9.32202666,-78.51243473999997,33.11124282
3.6599999999999997,366,-0.978,-0.034,-0.16899999999999998,-2.291832,2.1772404,-0.6302538000000001,9.3105675,-78.48951642,33.09978366
3.67,367,-0.9790000000000001,-0.035,-0.172,-2.1772404,2.1772404,-0.6302538000000001,9.29910834,-78.46659809999998,33.08832450000001
3.6799999999999997,368,-0.985,-0.037000000000000005,-0.175,-2.2345362,1.8907614,-0.572958,9.28764918,-78.44367978,33.07686534
3.69,369,-0.991,-0.038,-0.172,-2.1199446,1.7188740000000002,-0.40107059999999994,9.27046044,-78.42649104,33.07113576
3.6999999999999997,370,-0.992,-0.038,-0.16899999999999998,-2.0626488000000003,1.7188740000000002,-0.286479,9.30483792,-78.44940936,33.01383996
3.71,371,-0.992,-0.039,-0.168,-2.291832,2.291832,-0.1718874,9.27046044,-78.42649104,33.02529912
3.7199999999999998,372,-0.9890000000000001,-0.037000000000000005,-0.168,-2.4064236,2.7501984,0.0,9.21889422,-78.39784313999998,33.053947019999995
3.73,373,-0.988,-0.038,-0.16699999999999998,-2.3491277999999998,2.8074942000000003,0.11459160000000004,9.16159842,-78.37492482,33.08832450000001
3.7399999999999998,374,-0.988,-0.037000000000000005,-0.163,-2.5210152000000003,2.7501984,0.3437748,9.09284346,-78.34627692000002,33.13416114
3.75,375,-0.988,-0.035,-0.163,-2.6929026,2.4064236,0.4583664000000001,9.04700682,-78.35773608,33.145620300000004
3.76,376,-0.99,-0.035,-0.16399999999999998,-2.9793816000000004,1.6042823999999998,0.572958,8.97252228,-78.34627692000002,33.19145694
3.77,377,-0.992,-0.032,-0.16,-3.1512689999999997,0.8594370000000001,0.6302538000000001,8.90376732,-78.34054734,33.231564
3.78,378,-0.991,-0.028999999999999998,-0.158,-2.9220858,0.6875496,0.572958,8.83501236,-78.33481775999998,33.27167106
3.79,379,-0.9890000000000001,-0.027999999999999997,-0.16,-2.6929026,1.0313244000000001,0.40107059999999994,8.77771656,-78.32335859999998,33.30031896000001
3.8,380,-0.988,-0.028999999999999998,-0.162,-2.3491277999999998,1.5469866,0.0,8.7089616,-78.36346566,33.33469644
3.81,381,-0.987,-0.021,-0.16399999999999998,-2.4064236,2.0053530000000004,-0.057295800000000015,8.67458412,-78.34627692000002,33.35188518
3.82,382,-0.987,-0.026000000000000002,-0.159,-2.0053530000000004,2.1199446,-0.11459160000000004,8.640206639999999,-78.32335859999998,33.363344340000005
3.83,383,-0.985,-0.031,-0.159,-2.4064236,2.0626488000000003,-0.286479,8.61155874,-78.30044028,33.36907392
3.84,384,-0.982,-0.031,-0.159,-2.4637194,1.7761698000000001,-0.3437748,8.58864042,-78.28325154000002,33.363344340000005
3.8499999999999996,385,-0.98,-0.03,-0.16,-2.4064236,1.5469866,-0.4583664000000001,8.57718126,-78.32335859999998,33.3461556
3.86,386,-0.98,-0.028999999999999998,-0.162,-2.0053530000000004,1.3750992,-0.4583664000000001,8.565722099999999,-78.30616986,33.33469644
3.8699999999999997,387,-0.98,-0.03,-0.16699999999999998,-1.3750992,1.3178034,-0.40107059999999994,8.565722099999999,-78.29471070000002,33.32323728
3.88,388,-0.983,-0.03,-0.16899999999999998,-1.0886202,1.3750992,-0.40107059999999994,8.55999252,-78.28325154000002,33.31750770000001
3.8899999999999997,389,-0.986,-0.03,-0.168,-0.9740286,1.7761698000000001,-0.40107059999999994,8.554262940000001,-78.26033322,33.31177812
3.9,390,-0.988,-0.031,-0.171,-0.9167328000000001,2.3491277999999998,-0.5156622000000001,8.565722099999999,-78.28325154000002,33.28313022
3.9099999999999997,391,-0.987,-0.033,-0.172,-0.6875496,2.6929026,-0.4583664000000001,8.55999252,-78.25460364,33.28313022
3.92,392,-0.986,-0.034,-0.174,-0.572958,2.86479,-0.3437748,8.54853336,-78.22595574,33.2888598
3.9299999999999997,393,-0.9840000000000001,-0.033,-0.175,-0.286479,2.7501984,-0.11459160000000004,8.52561504,-78.19730784,33.31177812
3.94,394,-0.981,-0.032,-0.177,0.0,2.5210152000000003,0.0,8.5084263,-78.17438952,33.32896686
3.9499999999999997,395,-0.978,-0.031,-0.18100000000000002,0.1718874,1.9480572,0.0,8.519885460000001,-78.19730784,33.31177812
3.96,396,-0.9790000000000001,-0.034,-0.183,0.3437748,1.3178034,0.0,8.51415588,-78.18584868,33.32896686
3.9699999999999998,397,-0.9790000000000001,-0.032,-0.18,0.5156622000000001,0.8594370000000001,0.1718874,8.50269672,-78.1801191,33.34042602
3.98,398,-0.977,-0.032,-0.182,0.4583664000000001,0.572958,0.286479,8.49123756,-78.17438952,33.363344340000005
3.9899999999999998,399,-0.9790000000000001,-0.032,-0.18100000000000002,0.4583664000000001,0.40107059999999994,0.2291832000000001,8.479778399999999,-78.16865994000003,33.3748035
4.0,400,-0.986,-0.032,-0.18100000000000002,0.9740286,0.6302538000000001,0.2291832000000001,8.519885460000001,-78.20303742,33.3461556
4.01,401,-0.992,-0.039,-0.182,1.8907614,1.0313244000000001,0.40107059999999994,8.5084263,-78.19157826,33.3748035
4.02,402,-0.99,-0.044000000000000004,-0.17800000000000002,2.291832,0.8021411999999999,0.572958,8.49696714,-78.18584868,33.40918098
4.03,403,-0.981,-0.043,-0.182,1.6615782,0.057295800000000015,0.8594370000000001,8.47404882,-78.18584868,33.45501762
4.04,404,-0.9670000000000001,-0.037000000000000005,-0.198,0.40107059999999994,-0.8021411999999999,0.7448454000000001,8.451130500000001,-78.19730784,33.48366552
4.05,405,-0.951,-0.033,-0.226,-0.8594370000000001,-2.4064236,0.572958,8.393834700000001,-78.16293035999998,33.53523174
4.06,406,-0.938,-0.028999999999999998,-0.23600000000000002,-2.0053530000000004,-6.2452422,0.572958,8.39956428,-78.22595574,33.512313420000005
4.07,407,-0.932,-0.021,-0.233,-1.9480572,-8.4224826,0.286479,8.43394176,-78.30616986,33.45501762
4.08,408,-0.93,-0.013000000000000001,-0.226,-1.4896908000000002,-8.9954406,-0.1718874,8.50269672,-78.39211356000001,33.363344340000005
4.09,409,-0.929,-0.01,-0.221,-1.3750992,-9.3392154,-0.8021411999999999,8.61155874,-78.48378684000002,33.24302315999999
4.1,410,-0.937,-0.013999999999999999,-0.212,-1.0886202,-10.313244000000001,-1.3750992,8.7089616,-78.56973054,33.12843156
4.109999999999999,411,-0.9490000000000001,-0.024,-0.195,-0.6302538000000001,-11.5164558,-1.432395,8.880849000000003,-78.67859256,32.95081458
4.12,412,-0.9620000000000001,-0.036000000000000004,-0.175,-0.6302538000000001,-11.802934800000001,-1.145916,9.03554766,-78.79318416,32.784656760000004
4.13,413,-0.97,-0.043,-0.16399999999999998,-1.2032118,-11.3445684,-0.9167328000000001,9.17878716,-78.90204618,32.6299581
4.14,414,-0.975,-0.040999999999999995,-0.159,-1.8334656000000005,-10.4278356,-0.6302538000000001,9.29337876,-79.00517862,32.49817776
4.1499999999999995,415,-0.9790000000000001,-0.039,-0.153,-1.8334656000000005,-9.5111028,-0.4583664000000001,9.41942952,-79.11404064,32.34920868
4.16,416,-0.98,-0.035,-0.149,-1.7761698000000001,-8.5370742,-0.286479,9.50537322,-79.19425475999998,32.24607624
4.17,417,-0.983,-0.031,-0.145,-2.1199446,-7.8495246,-0.2291832000000001,9.57412818,-79.26873930000002,32.15440296
4.18,418,-0.988,-0.027000000000000003,-0.139,-2.4637194,-7.2765666,-0.286479,9.64288314,-79.34322384000002,32.062729680000004
4.1899999999999995,419,-0.991,-0.027000000000000003,-0.13,-2.5210152000000003,-6.417129599999999,-0.3437748,9.70017894,-79.40624921999998,31.97678598
4.2,420,-0.997,-0.025,-0.129,-2.2345362,-5.6149884000000005,-0.286479,9.746015580000002,-79.4979225,31.902301439999995
4.21,421,-1.0090000000000001,-0.026000000000000002,-0.124,-1.8907614,-6.0733548,-0.286479,9.80904096,-79.55521829999998,31.82208732
4.22,422,-1.021,-0.028999999999999998,-0.11699999999999999,-1.4896908000000002,-6.990087599999999,-0.3437748,9.8835255,-79.62397326,31.72468446
4.2299999999999995,423,-1.026,-0.028999999999999998,-0.109,-1.6042823999999998,-6.3598338,-0.40107059999999994,9.95801004,-79.68699864,31.63301118
4.24,424,-1.026,-0.028999999999999998,-0.107,-1.7761698000000001,-4.9847346,-0.40107059999999994,10.02103542,-79.73283528,31.558526640000004
4.25,425,-1.023,-0.028999999999999998,-0.107,-1.7761698000000001,-3.5523396000000003,-0.4583664000000001,10.10124954,-79.83596772,31.44966462
4.26,426,-1.023,-0.027999999999999997,-0.106,-1.5469866,-2.5783110000000002,-0.5156622000000001,10.14708618,-79.86461562,31.39236882
4.27,427,-1.021,-0.028999999999999998,-0.106,-1.3178034,-1.7761698000000001,-0.40107059999999994,10.17573408,-79.88180436,31.346532180000004
4.28,428,-1.0170000000000001,-0.027999999999999997,-0.106,-1.2605076000000002,-1.3750992,-0.40107059999999994,10.20438198,-79.89326352,31.30642512
4.29,429,-1.0170000000000001,-0.027000000000000003,-0.105,-1.3178034,-1.2605076000000002,-0.40107059999999994,10.227300300000001,-79.90472267999998,31.26631806
4.3,430,-1.02,-0.026000000000000002,-0.106,-1.2032118,-1.432395,-0.40107059999999994,10.2845961,-80.04223259999998,31.18610394
4.31,431,-1.0190000000000001,-0.027999999999999997,-0.107,-1.0313244000000001,-1.0886202,-0.5156622000000001,10.313244,-80.04796218,31.14599688
4.32,432,-1.018,-0.028999999999999998,-0.11199999999999999,-0.9167328000000001,-0.572958,-0.6302538000000001,10.34762148,-80.05369175999998,31.10016024
4.33,433,-1.0190000000000001,-0.03,-0.113,-0.8594370000000001,-0.3437748,-0.6302538000000001,10.38199896,-80.05369175999998,31.06005318
4.34,434,-1.0190000000000001,-0.03,-0.11599999999999999,-0.572958,0.11459160000000004,-0.6302538000000001,10.41064686,-80.05369175999998,31.01994612
4.35,435,-1.016,-0.03,-0.12,-0.1718874,1.2032118,-0.6302538000000001,10.49086098,-80.15109462000002,30.92827284
4.36,436,-1.012,-0.031,-0.122,0.2291832000000001,2.0626488000000003,-0.6302538000000001,10.50804972,-80.13390588000001,30.91681368
4.37,437,-1.005,-0.032,-0.12,0.2291832000000001,2.8074942000000003,-0.572958,10.513779300000001,-80.10525798,30.91681368
4.38,438,-1.001,-0.031,-0.124,0.2291832000000001,3.7242269999999995,-0.572958,10.502320139999998,-80.06515092,30.922543260000005
4.39,439,-0.997,-0.031,-0.126,0.5156622000000001,4.1825934,-0.6875496,10.502320139999998,-80.02504386000003,30.93400242
4.3999999999999995,440,-0.996,-0.034,-0.129,0.8594370000000001,4.8128472,-0.6302538000000001,10.53669762,-80.00785512,30.905354520000003
4.41,441,-0.995,-0.038,-0.129,0.7448454000000001,5.3285094000000015,-0.4583664000000001,10.50804972,-79.9562889,30.93973200000001
4.42,442,-0.997,-0.040999999999999995,-0.129,0.057295800000000015,5.958763200000001,-0.2291832000000001,10.4564835,-79.89899310000001,30.997027799999998
4.43,443,-0.996,-0.040999999999999995,-0.133,-0.11459160000000004,6.7609043999999985,0.11459160000000004,10.36481022,-79.83596772,31.082971500000006
4.4399999999999995,444,-0.995,-0.04,-0.135,-0.3437748,7.2765666,0.40107059999999994,10.25021862,-79.76148318,31.19183352
4.45,445,-0.991,-0.038,-0.141,-0.4583664000000001,7.734933000000002,0.6302538000000001,10.15854534,-79.70991696000002,31.2835068
4.46,446,-0.988,-0.035,-0.15,-0.7448454000000001,8.307891,0.6875496,10.01530584,-79.62970284,31.41528714
4.47,447,-0.985,-0.034,-0.155,-0.8594370000000001,8.3651868,0.8021411999999999,9.87206634,-79.54948872,31.55279706
4.4799999999999995,448,-0.9840000000000001,-0.032,-0.162,-0.8021411999999999,8.193299399999999,0.8594370000000001,9.72882684,-79.46927459999998,31.690306979999995
4.49,449,-0.982,-0.031,-0.165,-0.8021411999999999,8.021412000000002,1.0313244000000001,9.57985776,-79.39479005999998,31.83354648000001
4.5,450,-0.9790000000000001,-0.03,-0.16899999999999998,-0.8021411999999999,7.734933000000002,1.0313244000000001,9.43088868,-79.32603509999998,31.97678598
4.51,451,-0.977,-0.03,-0.171,-0.8594370000000001,7.5057497999999985,0.9740286,9.29337876,-79.25155056000001,32.10283674
4.52,452,-0.977,-0.028999999999999998,-0.17300000000000001,-0.9167328000000001,7.161975,0.9740286,9.16159842,-79.18279559999998,32.2288875
4.53,453,-0.9790000000000001,-0.027000000000000003,-0.17300000000000001,-0.9740286,6.703608600000001,0.9740286,9.03554766,-79.11977021999998,32.3434791
4.54,454,-0.9790000000000001,-0.026000000000000002,-0.175,-0.9167328000000001,6.1879464,0.9167328000000001,8.91522648,-79.06247442,32.45234112
4.55,455,-0.976,-0.025,-0.179,-0.9167328000000001,5.9014674000000005,0.8021411999999999,8.77771656,-79.00517862,32.57839188
4.56,456,-0.9740000000000001,-0.023,-0.182,-0.8021411999999999,5.5576926,0.6302538000000001,8.68604328,-78.95361240000003,32.66433558
4.57,457,-0.9690000000000001,-0.024,-0.184,-0.9740286,5.2139178,0.40107059999999994,8.60582916,-78.90204618,32.73882012
4.58,458,-0.9670000000000001,-0.023,-0.184,-1.0313244000000001,4.6409598,0.2291832000000001,8.5370742,-78.85620954,32.79611592
4.59,459,-0.9640000000000001,-0.025,-0.183,-0.9740286,4.0680017999999984,0.1718874,8.479778399999999,-78.81610248000001,32.84195256
4.6,460,-0.965,-0.027000000000000003,-0.184,-1.0313244000000001,3.380452200000001,0.057295800000000015,8.40529386,-78.781725,32.90497794
4.61,461,-0.9670000000000001,-0.027999999999999997,-0.182,-1.0886202,2.9220858,0.057295800000000015,8.3651868,-78.7530771,32.93935542
4.62,462,-0.968,-0.027000000000000003,-0.184,-1.2032118,2.6929026,0.0,8.325079740000001,-78.7244292,32.96227374
4.63,463,-0.9690000000000001,-0.026000000000000002,-0.18600000000000005,-1.0886202,2.4637194,0.0,8.29070226,-78.70151088,32.98519206
4.64,464,-0.9690000000000001,-0.025,-0.18600000000000005,-0.8594370000000001,1.8907614,-0.057295800000000015,8.27351352,-78.68432214,32.996651220000004
4.6499999999999995,465,-0.97,-0.025,-0.18600000000000005,-0.6302538000000001,1.2032118,-0.1718874,8.17038108,-78.6671334,33.08832450000001
4.66,466,-0.97,-0.025,-0.184,-0.572958,0.40107059999999994,-0.2291832000000001,8.17038108,-78.6671334,33.07686534
4.67,467,-0.972,-0.026000000000000002,-0.182,-0.7448454000000001,0.0,-0.40107059999999994,8.18756982,-78.6671334,33.053947019999995
4.68,468,-0.972,-0.026000000000000002,-0.17800000000000002,-0.6875496,-0.2291832000000001,-0.5156622000000001,8.204758559999998,-78.6671334,33.02529912
4.6899999999999995,469,-0.971,-0.027000000000000003,-0.17800000000000002,-0.572958,-0.286479,-0.572958,8.233406460000001,-78.6671334,32.99092164
4.7,470,-0.973,-0.027999999999999997,-0.17800000000000002,-0.40107059999999994,-0.8021411999999999,-0.6302538000000001,8.22767688,-78.70151088,32.99092164
4.71,471,-0.975,-0.027999999999999997,-0.175,-0.286479,-1.3178034,-0.572958,8.26778394,-78.71297003999999,32.945085
4.72,472,-0.978,-0.027000000000000003,-0.17300000000000001,-0.2291832000000001,-1.6615782,-0.572958,8.307891,-78.73015878,32.90497794
4.7299999999999995,473,-0.982,-0.027000000000000003,-0.17,-0.286479,-1.8907614,-0.6875496,8.353727639999999,-78.74734751999998,32.853411720000004
4.74,474,-0.986,-0.027999999999999997,-0.16899999999999998,-0.3437748,-2.0053530000000004,-0.7448454000000001,8.40529386,-78.76453626,32.79611592
4.75,475,-0.9890000000000001,-0.027999999999999997,-0.166,-0.3437748,-2.1199446,-0.6875496,8.46258966,-78.82756164,32.73309054
4.76,476,-0.99,-0.027999999999999997,-0.16399999999999998,-0.4583664000000001,-2.0053530000000004,-0.6875496,8.5084263,-78.84475038,32.68152432
4.77,477,-0.99,-0.028999999999999998,-0.163,-0.40107059999999994,-1.8334656000000005,-0.6302538000000001,8.554262940000001,-78.86193912,32.6299581
4.78,478,-0.988,-0.028999999999999998,-0.165,0.0,-1.6615782,-0.5156622000000001,8.594370000000001,-78.87912786,32.58412146
4.79,479,-0.987,-0.028999999999999998,-0.16399999999999998,0.057295800000000015,-1.3178034,-0.5156622000000001,8.634477059999998,-78.89058702,32.54974398
4.8,480,-0.986,-0.027999999999999997,-0.163,0.2291832000000001,-1.0313244000000001,-0.5156622000000001,8.65739538,-78.95934198,32.52109608
4.81,481,-0.986,-0.027999999999999997,-0.162,0.3437748,-0.9167328000000001,-0.5156622000000001,8.691772859999999,-78.97080113999998,32.486718599999996
4.82,482,-0.986,-0.027999999999999997,-0.161,0.40107059999999994,-0.9167328000000001,-0.5156622000000001,8.7376095,-78.97653072,32.45234112
4.83,483,-0.987,-0.028999999999999998,-0.159,0.40107059999999994,-0.9740286,-0.4583664000000001,8.77198698,-78.98798988,32.41796364
4.84,484,-0.9890000000000001,-0.03,-0.158,0.40107059999999994,-0.9740286,-0.3437748,8.80636446,-78.99371946,32.389315739999994
4.85,485,-0.99,-0.03,-0.156,0.40107059999999994,-0.8021411999999999,-0.286479,8.89803774,-79.11404064,32.29764246
4.86,486,-0.991,-0.031,-0.156,0.3437748,-0.3437748,-0.1718874,8.91522648,-79.11404064,32.280453720000004
4.87,487,-0.992,-0.03,-0.157,0.4583664000000001,-0.11459160000000004,-0.2291832000000001,8.93241522,-79.11977021999998,32.26326498
4.88,488,-0.991,-0.032,-0.157,0.40107059999999994,0.1718874,-0.1718874,8.949603960000003,-79.11404064,32.2575354
4.89,489,-0.9890000000000001,-0.03,-0.155,0.286479,0.40107059999999994,-0.11459160000000004,8.95533354,-79.10831106,32.25180582
4.8999999999999995,490,-0.9890000000000001,-0.031,-0.156,0.1718874,0.5156622000000001,-0.11459160000000004,9.06992514,-79.28019846,32.13148464
4.91,491,-0.9890000000000001,-0.031,-0.157,0.11459160000000004,0.6302538000000001,-0.057295800000000015,9.06419556,-79.27446888,32.13721422
4.92,492,-0.988,-0.031,-0.158,0.057295800000000015,0.8021411999999999,0.0,9.05846598,-79.26873930000002,32.142943800000005
4.93,493,-0.987,-0.03,-0.16,0.11459160000000004,0.9167328000000001,0.0,9.0527364,-79.25728014,32.14867338
4.9399999999999995,494,-0.988,-0.03,-0.161,0.057295800000000015,1.0313244000000001,0.0,9.04700682,-79.24582097999998,32.16013254
4.95,495,-0.99,-0.028999999999999998,-0.162,0.057295800000000015,1.145916,0.0,9.00689976,-79.2973872,32.19451002
4.96,496,-0.992,-0.027000000000000003,-0.166,0.2291832000000001,1.4896908000000002,0.0,8.98971102,-79.28592804,32.20596918
4.97,497,-0.991,-0.027999999999999997,-0.168,0.40107059999999994,1.8907614,0.0,8.97825186,-79.26873930000002,32.2288875
4.9799999999999995,498,-0.991,-0.028999999999999998,-0.168,0.4583664000000001,1.7188740000000002,0.0,8.9667927,-79.25155056000001,32.24607624
4.99,499,-0.987,-0.027999999999999997,-0.16399999999999998,0.2291832000000001,1.4896908000000002,0.0,8.949603960000003,-79.23436182,32.26326498
5.0,500,-0.986,-0.026000000000000002,-0.162,0.0,1.2032118,0.0,8.852201099999998,-79.29165762,32.34920868
5.01,501,-0.9840000000000001,-0.027000000000000003,-0.16399999999999998,0.057295800000000015,1.0313244000000001,-0.2291832000000001,8.857930679999997,-79.28019846,32.34920868
5.02,502,-0.985,-0.03,-0.161,-0.11459160000000004,0.8021411999999999,-0.286479,8.86366026,-79.27446888,32.33774952
5.03,503,-0.9840000000000001,-0.033,-0.159,-0.572958,1.145916,-0.1718874,8.857930679999997,-79.26300972,32.33774952
5.04,504,-0.9840000000000001,-0.034,-0.16,-0.9740286,1.432395,-0.057295800000000015,8.83501236,-79.24582097999998,32.34920868
5.05,505,-0.982,-0.033,-0.16399999999999998,-0.9167328000000001,1.432395,0.057295800000000015,8.83501236,-79.25728014,32.33774952
5.06,506,-0.98,-0.03,-0.166,-0.8594370000000001,1.5469866,0.11459160000000004,8.80636446,-79.24009140000003,32.36066784
5.07,507,-0.9790000000000001,-0.027999999999999997,-0.168,-0.8594370000000001,1.6615782,0.057295800000000015,8.77771656,-79.22290266,32.38358616
5.08,508,-0.9790000000000001,-0.027000000000000003,-0.171,-0.7448454000000001,1.6042823999999998,0.0,8.749068659999999,-79.2114435,32.4007749
5.09,509,-0.978,-0.025,-0.172,-0.6875496,1.5469866,0.0,8.72615034,-79.19425475999998,32.41796364
5.1,510,-0.978,-0.026000000000000002,-0.171,-0.572958,1.3750992,0.0,8.651665800000002,-79.19998434,32.486718599999996
5.11,511,-0.978,-0.026000000000000002,-0.172,-0.5156622000000001,1.3178034,-0.057295800000000015,8.634477059999998,-79.18852518,32.492448180000004
5.12,512,-0.98,-0.026000000000000002,-0.17300000000000001,-0.4583664000000001,1.0886202,-0.1718874,8.634477059999998,-79.17706602000001,32.492448180000004
5.13,513,-0.982,-0.026000000000000002,-0.171,-0.5156622000000001,1.0313244000000001,-0.1718874,8.62874748,-79.16560686,32.492448180000004
5.14,514,-0.9840000000000001,-0.027000000000000003,-0.172,-0.4583664000000001,0.8021411999999999,-0.286479,8.634477059999998,-79.15987728,32.48098902
5.1499999999999995,515,-0.9840000000000001,-0.026000000000000002,-0.172,-0.3437748,0.9740286,-0.40107059999999994,8.565722099999999,-79.16560686,32.53828482
5.16,516,-0.9840000000000001,-0.026000000000000002,-0.171,-0.11459160000000004,1.145916,-0.5156622000000001,8.58291084,-79.15414770000002,32.52109608
5.17,517,-0.9840000000000001,-0.027000000000000003,-0.171,-0.057295800000000015,1.145916,-0.572958,8.60009958,-79.14268854000002,32.49817776
5.18,518,-0.9840000000000001,-0.027000000000000003,-0.171,0.0,1.0313244000000001,-0.6875496,8.62874748,-79.13122938000002,32.47525944
5.1899999999999995,519,-0.983,-0.027999999999999997,-0.171,0.0,0.8594370000000001,-0.6875496,8.65739538,-79.11977021999998,32.446611540000006
5.2,520,-0.983,-0.027999999999999997,-0.17,0.0,0.6875496,-0.8021411999999999,8.663124960000001,-79.14841812,32.43515238
5.21,521,-0.982,-0.031,-0.17,0.0,0.40107059999999994,-0.8021411999999999,8.70323202,-79.14268854000002,32.395045319999994
5.22,522,-0.983,-0.031,-0.172,0.0,0.1718874,-0.8021411999999999,8.7376095,-79.13695895999999,32.35493826
5.2299999999999995,523,-0.983,-0.032,-0.172,-0.057295800000000015,0.1718874,-0.7448454000000001,8.77771656,-79.13695895999999,32.3148312
5.24,524,-0.982,-0.03,-0.172,-0.057295800000000015,0.286479,-0.6875496,8.81209404,-79.13122938000002,32.280453720000004
5.25,525,-0.982,-0.03,-0.17300000000000001,-0.11459160000000004,0.2291832000000001,-0.6302538000000001,8.81209404,-79.14841812,32.274724140000004
5.26,526,-0.981,-0.028999999999999998,-0.172,-0.057295800000000015,0.057295800000000015,-0.572958,8.84074194,-79.14841812,32.24607624
5.27,527,-0.981,-0.03,-0.171,-0.1718874,-0.1718874,-0.572958,8.86938984,-79.14841812,32.211698760000004
5.28,528,-0.982,-0.033,-0.172,-0.286479,-0.2291832000000001,-0.4583664000000001,8.89803774,-79.14841812,32.183050859999994
5.29,529,-0.982,-0.031,-0.171,-0.4583664000000001,-0.1718874,-0.4583664000000001,8.91522648,-79.15414770000002,32.16013254
5.3,530,-0.981,-0.031,-0.171,-0.4583664000000001,-0.2291832000000001,-0.3437748,8.95533354,-79.18279559999998,32.10856632
5.31,531,-0.98,-0.032,-0.172,-0.4583664000000001,-0.286479,-0.286479,8.97252228,-79.18852518,32.09137758
5.32,532,-0.978,-0.032,-0.171,-0.4583664000000001,-0.40107059999999994,-0.1718874,8.97825186,-79.18852518,32.07991842
5.33,533,-0.9790000000000001,-0.031,-0.16899999999999998,-0.572958,-0.40107059999999994,-0.11459160000000004,8.98398144,-79.19425475999998,32.068459260000004
5.34,534,-0.982,-0.031,-0.17,-0.572958,-0.286479,0.0,8.97825186,-79.19998434,32.068459260000004
5.35,535,-0.9840000000000001,-0.031,-0.16899999999999998,-0.6302538000000001,-0.40107059999999994,0.0,8.95533354,-79.23436182,32.07991842
5.36,536,-0.986,-0.032,-0.17,-0.6875496,-0.3437748,0.0,8.949603960000003,-79.24009140000003,32.07991842
5.37,537,-0.987,-0.031,-0.17,-0.7448454000000001,-0.5156622000000001,0.0,8.949603960000003,-79.24009140000003,32.07418884
5.38,538,-0.986,-0.031,-0.16899999999999998,-0.7448454000000001,-0.572958,0.0,8.949603960000003,-79.25155056000001,32.068459260000004
5.39,539,-0.9840000000000001,-0.028999999999999998,-0.17,-0.6875496,-0.40107059999999994,0.0,8.9381448,-79.25155056000001,32.062729680000004
5.3999999999999995,540,-0.9840000000000001,-0.027999999999999997,-0.16899999999999998,-0.572958,-0.286479,0.0,8.87511942,-79.2973872,32.114295899999995
5.41,541,-0.9840000000000001,-0.027999999999999997,-0.17,-0.4583664000000001,-0.11459160000000004,-0.11459160000000004,8.880849000000003,-79.2973872,32.10856632
5.42,542,-0.985,-0.027999999999999997,-0.171,-0.4583664000000001,-0.057295800000000015,0.0,8.87511942,-79.30311678,32.10856632
5.43,543,-0.987,-0.027000000000000003,-0.16899999999999998,-0.40107059999999994,-0.11459160000000004,0.0,8.87511942,-79.30311678,32.10283674
5.4399999999999995,544,-0.987,-0.027999999999999997,-0.16899999999999998,-0.40107059999999994,-0.057295800000000015,-0.057295800000000015,8.87511942,-79.30311678,32.09710716
5.45,545,-0.986,-0.027999999999999997,-0.16899999999999998,-0.286479,-0.11459160000000004,-0.11459160000000004,8.81209404,-79.34895342,32.15440296
5.46,546,-0.985,-0.027999999999999997,-0.16899999999999998,-0.40107059999999994,0.0,-0.1718874,8.81782362,-79.34895342,32.142943800000005
5.47,547,-0.983,-0.027000000000000003,-0.168,-0.4583664000000001,0.1718874,-0.1718874,8.81782362,-79.34322384000002,32.13721422
5.4799999999999995,548,-0.983,-0.028999999999999998,-0.168,-0.4583664000000001,0.1718874,-0.2291832000000001,8.82928278,-79.34322384000002,32.12575506
5.49,549,-0.983,-0.028999999999999998,-0.16699999999999998,-0.40107059999999994,0.1718874,-0.1718874,8.82928278,-79.33749426,32.114295899999995
5.5,550,-0.982,-0.027999999999999997,-0.16699999999999998,-0.5156622000000001,0.057295800000000015,-0.286479,8.783446139999999,-79.36614216000002,32.15440296
5.51,551,-0.9840000000000001,-0.027999999999999997,-0.168,-0.6875496,0.0,-0.2291832000000001,8.78917572,-79.36614216000002,32.13721422
5.52,552,-0.9840000000000001,-0.027999999999999997,-0.16699999999999998,-0.8021411999999999,0.0,-0.2291832000000001,8.794905300000002,-79.36614216000002,32.12575506
5.53,553,-0.9840000000000001,-0.027000000000000003,-0.17,-0.8021411999999999,-0.057295800000000015,-0.3437748,8.80636446,-79.36614216000002,32.10283674
5.54,554,-0.9840000000000001,-0.027999999999999997,-0.171,-0.6302538000000001,0.0,-0.3437748,8.823553200000003,-79.36614216000002,32.085648
5.55,555,-0.983,-0.028999999999999998,-0.17,-0.6302538000000001,0.11459160000000004,-0.40107059999999994,8.81209404,-79.3833309,32.07991842
5.56,556,-0.982,-0.03,-0.17,-0.6875496,0.11459160000000004,-0.4583664000000001,8.82928278,-79.3833309,32.0570001
5.57,557,-0.982,-0.028999999999999998,-0.16899999999999998,-0.6875496,0.0,-0.4583664000000001,8.84647152,-79.3833309,32.03408178
5.58,558,-0.983,-0.03,-0.168,-0.6875496,-0.11459160000000004,-0.40107059999999994,8.86366026,-79.3833309,32.01116346
5.59,559,-0.9840000000000001,-0.028999999999999998,-0.17,-0.1718874,-0.057295800000000015,-0.11459160000000004,8.86938984,-79.3833309,31.9997043
5.6,560,-0.986,-0.027000000000000003,-0.174,0.0,0.11459160000000004,-0.11459160000000004,8.7089616,-79.37760132,32.15440296
5.61,561,-0.985,-0.028999999999999998,-0.174,0.057295800000000015,0.2291832000000001,-0.1718874,8.72042076,-79.37760132,32.142943800000005
5.62,562,-0.985,-0.028999999999999998,-0.172,0.11459160000000004,0.11459160000000004,-0.1718874,8.73187992,-79.37187173999997,32.13148464
5.63,563,-0.983,-0.027000000000000003,-0.17,0.057295800000000015,0.057295800000000015,-0.2291832000000001,8.74333908,-79.37187173999997,32.120025479999995
5.64,564,-0.981,-0.027000000000000003,-0.171,0.40107059999999994,0.0,-0.286479,8.7662574,-79.37187173999997,32.10283674
5.6499999999999995,565,-0.981,-0.03,-0.171,0.4583664000000001,-0.2291832000000001,-0.40107059999999994,8.81209404,-79.38906048,32.062729680000004
5.66,566,-0.982,-0.032,-0.16399999999999998,0.11459160000000004,-0.572958,-0.3437748,8.83501236,-79.39479005999998,32.03981136
5.67,567,-0.983,-0.034,-0.162,-0.3437748,-0.6302538000000001,-0.1718874,8.852201099999998,-79.40051964,32.02262262000001
5.68,568,-0.983,-0.033,-0.165,-0.40107059999999994,-0.6302538000000001,-0.057295800000000015,8.857930679999997,-79.40624921999998,32.01116346
5.6899999999999995,569,-0.982,-0.032,-0.16399999999999998,-0.1718874,-0.6302538000000001,0.0,8.857930679999997,-79.4119788,32.005433880000005
5.7,570,-0.983,-0.031,-0.16699999999999998,0.0,-0.3437748,0.057295800000000015,8.80063488,-79.45781544,32.062729680000004
5.71,571,-0.982,-0.028999999999999998,-0.17,0.057295800000000015,-0.2291832000000001,0.0,8.80063488,-79.46354502,32.0570001
5.72,572,-0.983,-0.028999999999999998,-0.171,0.2291832000000001,-0.1718874,0.11459160000000004,8.80063488,-79.46354502,32.062729680000004
5.7299999999999995,573,-0.983,-0.027999999999999997,-0.17,0.40107059999999994,-0.1718874,0.057295800000000015,8.80063488,-79.46354502,32.068459260000004
5.74,574,-0.9840000000000001,-0.028999999999999998,-0.17,0.5156622000000001,-0.057295800000000015,0.11459160000000004,8.80063488,-79.46354502,32.07418884
5.75,575,-0.9840000000000001,-0.027999999999999997,-0.16699999999999998,0.4583664000000001,-0.11459160000000004,0.057295800000000015,8.76052782,-79.50365208,32.114295899999995
5.76,576,-0.985,-0.028999999999999998,-0.165,0.40107059999999994,-0.11459160000000004,0.0,8.7662574,-79.50365208,32.10856632
5.77,577,-0.986,-0.028999999999999998,-0.165,0.40107059999999994,0.11459160000000004,-0.057295800000000015,8.77771656,-79.50365208,32.10856632
