TimeStamp(s),FrameCounter,AccX,AccY,AccZ,GyrX,GyrY,GyrZ,EulerX,EulerY,EulerZ
0.01,1,-0.051,-1.012,0.059,1.0313244,1.2032118,-0.286479,91.12324032,-2.96792244,-39.12730182
0.02,2,-0.049,-1.012,0.058,1.0313244,1.3750992,-0.5156622000000001,91.13469948,-2.96219286,-39.11584266
0.03,3,-0.048,-1.009,0.057,1.2032118,1.5469866,-0.572958,91.14615864,-2.9564632800000004,-39.09865392
0.04,4,-0.047,-1.007,0.055,1.2605076000000002,1.6615782,-0.4010706,91.1862657,-2.93354496,-39.08719476
0.05,5,-0.047,-1.006,0.055,1.2032118,1.4896908000000002,-0.286479,91.19772486,-2.93354496,-39.0757356
0.060000000000000005,6,-0.046,-1.007,0.054000000000000006,0.9740286,1.3750992,-0.057295800000000015,91.20345444,-2.93354496,-39.05854686
0.06999999999999999,7,-0.046,-1.01,0.055,0.7448454000000001,1.3178034,0.0,91.20918402,-2.93354496,-39.04708770000001
0.08,8,-0.046,-1.011,0.056,0.6302538000000001,1.0886202,0.057295800000000015,91.2149136,-2.93354496,-39.03562854
0.09,9,-0.047,-1.01,0.058,0.6302538000000001,1.3178034,0.0,91.26647982,-2.90489706,-39.03562854
0.09999999999999999,10,-0.048,-1.009,0.058,0.7448454000000001,1.3750992,-0.11459160000000004,91.27793898,-2.90489706,-39.018439799999996
0.11,11,-0.05,-1.006,0.058,0.6875496,1.6615782,-0.286479,91.28366856,-2.90489706,-39.00125106
0.12,12,-0.049,-1.002,0.059,0.6302538000000001,1.9480572,-0.3437748,91.28939814,-2.89916748,-38.98406232000001
0.13,13,-0.048,-1.002,0.061,0.5156622000000001,2.1199446,-0.5156622000000001,91.28939814,-2.89916748,-38.961144
0.14,14,-0.045,-1.004,0.063,0.2291832000000001,2.1772404,-0.6302538000000001,91.33523478,-2.86479,-38.94968484
0.15000000000000002,15,-0.042,-1.006,0.064,0.0,2.1772404,-0.6875496,91.33523478,-2.85906042,-38.92676652
0.16,16,-0.041,-1.008,0.065,-0.572958,2.3491278,-0.8021411999999999,91.32377562,-2.85333084,-38.9038482
0.17,17,-0.04,-1.009,0.063,-0.9167328,2.6929026,-0.8594370000000001,91.31231646,-2.84760126,-38.8752003
0.18000000000000002,18,-0.039,-1.013,0.061,-1.0313244,2.86479,-0.9740286,91.3008573,-2.8361421,-38.8465524
0.19,19,-0.04,-1.013,0.059,-1.0313244,2.9220857999999996,-1.0313244,91.30658688,-2.8074942000000003,-38.82936366
0.2,20,-0.04,-1.012,0.058,-0.6875496,2.7501984,-0.9740286,91.3008573,-2.80176462,-38.80071576
0.21000000000000002,21,-0.038,-1.01,0.054000000000000006,-0.4010706,2.4637194,-0.9167328,91.29512772,-2.79030546,-38.77206786000001
0.22,22,-0.037000000000000005,-1.005,0.055,-0.11459160000000004,1.9480572,-0.8594370000000001,91.28939814,-2.78457588,-38.75487912000001
0.23,23,-0.038,-1.002,0.057,-0.057295800000000015,1.7188740000000002,-0.9167328,91.28939814,-2.7788463,-38.73769038
0.24000000000000002,24,-0.04,-1.001,0.057,-0.1718874,1.6042823999999998,-1.0313244,91.31804604,-2.73873924,-38.731960799999996
0.25,25,-0.042,-1.004,0.055,-0.4583664000000001,1.8907613999999997,-1.0886202,91.31231646,-2.72728008,-38.71477206
0.26,26,-0.043,-1.01,0.055,-0.7448454000000001,2.0626488000000003,-1.3750992,91.3008573,-2.71582092,-38.69185374
0.27,27,-0.045,-1.014,0.055,-0.7448454000000001,1.9480572,-1.6042823999999998,91.29512772,-2.69863218,-38.66893542
0.28,28,-0.046,-1.016,0.054000000000000006,-0.572958,1.4896908000000002,-1.7761698,91.28366856,-2.68144344,-38.65747626
0.29000000000000004,29,-0.044,-1.014,0.053,-0.4583664000000001,1.432395,-1.7761698,91.29512772,-2.64706596,-38.6460171
0.3,30,-0.041,-1.008,0.053,-0.4010706,1.7188740000000002,-1.7188740000000002,91.28939814,-2.6356068,-38.62882836
0.31,31,-0.04,-1.005,0.058,-0.1718874,2.1199446,-1.6615782,91.28939814,-2.61841806,-38.60591004000001
0.32,32,-0.042,-1.001,0.059,0.0,2.6929026,-1.7188740000000002,91.28366856,-2.6012293200000003,-38.58299172
0.33,33,-0.045,-1.0,0.056,0.057295800000000015,3.0366774,-1.6615782,91.28366856,-2.58404058,-38.54861424
0.34,34,-0.048,-1.0,0.054000000000000006,-0.057295800000000015,3.3231564,-1.6615782,91.29512772,-2.57258142,-38.51996634
0.35000000000000003,35,-0.05,-1.001,0.05,-0.1718874,3.6669312000000014,-1.6042823999999998,91.28939814,-2.55539268,-38.47985928
0.36000000000000004,36,-0.048,-1.004,0.049,-0.11459160000000004,3.8388186,-1.432395,91.28939814,-2.54393352,-38.445481799999996
0.37,37,-0.045,-1.007,0.049,0.0,3.9534102,-1.3178034,91.28366856,-2.53247436,-38.40537474
0.38,38,-0.042,-1.008,0.05,0.2291832000000001,3.8388186,-1.0886202,91.28366856,-2.52674478,-38.36526768
0.39,39,-0.039,-1.009,0.051,0.4583664000000001,3.6096354,-0.9740286,91.3008573,-2.49809688,-38.33661978
0.4,40,-0.034,-1.006,0.05,0.7448454000000001,3.2085648,-0.9167328,91.30658688,-2.4923673,-38.3022423
0.41000000000000003,41,-0.031,-1.003,0.051,0.8594370000000001,2.9793816000000004,-0.9167328,91.31231646,-2.48663772,-38.27359439999999
0.42000000000000004,42,-0.034,-1.003,0.051,0.8594370000000001,2.8074942000000003,-0.9167328,91.31804604,-2.47517856,-38.24494650000001
0.43,43,-0.037000000000000005,-1.002,0.052000000000000005,1.0886202,2.578311,-0.9740286,91.3295052,-2.46944898,-38.2162986
0.44,44,-0.04,-1.004,0.055,1.2032118,2.4637194,-1.0886202,91.3581531,-2.44653066,-38.19338028
0.45,45,-0.045,-1.006,0.056,1.0886202,2.2345362,-1.2605076000000002,91.36961226,-2.4350715000000003,-38.17619154000001
0.46,46,-0.046,-1.007,0.054000000000000006,0.9740286,2.4637194,-1.3178034,91.37534184,-2.42361234,-38.14754364
0.47000000000000003,47,-0.042,-1.007,0.054000000000000006,0.8021411999999999,2.7501984,-1.145916,91.38107142,-2.41215318,-38.11889574
0.48000000000000004,48,-0.04,-1.008,0.054000000000000006,0.9167328,2.86479,-1.145916,91.39253058,-2.4064236,-38.09024784
0.49,49,-0.039,-1.009,0.053,1.0313244,2.8074942000000003,-1.0313244,91.40971932,-2.38350528,-38.06732952
0.5,50,-0.037000000000000005,-1.008,0.052000000000000005,1.0313244,2.4637194,-0.8594370000000001,91.42117848,-2.37204612,-38.0444112
0.51,51,-0.037000000000000005,-1.007,0.052000000000000005,0.9167328,2.1772404,-0.6875496,91.42690806,-2.36631654,-38.02149288
0.52,52,-0.037000000000000005,-1.007,0.054000000000000006,0.9740286,1.9480572,-0.6302538000000001,91.43836722,-2.36058696,-37.99857456
0.53,53,-0.037000000000000005,-1.008,0.053,0.9740286,1.8907613999999997,-0.572958,91.44982638,-2.36058696,-37.98138582
0.54,54,-0.039,-1.01,0.054000000000000006,0.9167328,1.9480572,-0.572958,91.4727447,-2.34339822,-37.96419708000001
0.55,55,-0.041,-1.011,0.054000000000000006,0.8021411999999999,1.8907613999999997,-0.6302538000000001,91.47847428,-2.3376686399999995,-37.94700834
0.56,56,-0.04,-1.013,0.052000000000000005,0.572958,2.0626488000000003,-0.6302538000000001,91.48420386,-2.33193906,-37.92409002
0.5700000000000001,57,-0.039,-1.012,0.051,0.2291832000000001,2.0053530000000004,-0.6875496,91.48420386,-2.32620948,-37.90690128
0.5800000000000001,58,-0.038,-1.011,0.049,0.0,2.0626488000000003,-0.6875496,91.48420386,-2.3204799,-37.88398296
0.59,59,-0.037000000000000005,-1.009,0.05,-0.057295800000000015,2.0053530000000004,-0.6302538000000001,91.48993344,-2.2918320000000003,-37.872523799999996
0.6,60,-0.035,-1.007,0.05,0.0,2.1199446,-0.6302538000000001,91.48420386,-2.28610242,-37.84960548
0.61,61,-0.034,-1.006,0.05,0.0,1.9480572,-0.572958,91.48420386,-2.28037284,-37.82668716
0.62,62,-0.037000000000000005,-1.004,0.051,0.1718874,1.8907613999999997,-0.572958,91.48420386,-2.2746432600000004,-37.80949842
0.63,63,-0.039,-1.003,0.054000000000000006,0.286479,2.1199446,-0.6302538000000001,91.48993344,-2.26891368,-37.7865801
0.64,64,-0.039,-1.003,0.054000000000000006,0.4010706,2.578311,-0.6875496,91.5013926,-2.25745452,-37.76366178
0.65,65,-0.039,-1.004,0.056,0.3437748,2.7501984,-0.7448454000000001,91.5013926,-2.25172494,-37.74074346
0.66,66,-0.037000000000000005,-1.005,0.056,0.286479,2.6929026,-0.6875496,91.50712218,-2.24599536,-37.71209556
0.67,67,-0.034,-1.007,0.058,0.11459160000000004,2.6356068,-0.5156622000000001,91.50712218,-2.24026578,-37.68344766
0.68,68,-0.031,-1.007,0.057,-0.057295800000000015,2.4637194,-0.3437748,91.5013926,-2.24026578,-37.66052934
0.6900000000000001,69,-0.029,-1.005,0.056,-0.2291832000000001,2.0626488000000003,-0.286479,91.52431092,-2.20015872,-37.64907018
0.7000000000000001,70,-0.029,-1.004,0.06,-0.2291832000000001,2.0626488000000003,-0.286479,91.52431092,-2.19442914,-37.63188144
0.7100000000000001,71,-0.03,-1.004,0.059,-0.2291832000000001,2.1772404,-0.4010706,91.51858134,-2.19442914,-37.60896312
0.72,72,-0.033,-1.003,0.061,-0.4010706,2.291832,-0.6302538000000001,91.51285176,-2.18869956,-37.586044799999996
0.73,73,-0.036000000000000004,-1.0,0.06,-0.6302538000000001,2.4637194,-0.6875496,91.50712218,-2.18296998,-37.56312648
0.74,74,-0.039,-0.996,0.058,-0.7448454000000001,2.5210152000000003,-0.8021411999999999,91.51285176,-2.1772404,-37.53447858
0.75,75,-0.042,-0.991,0.056,-0.7448454000000001,2.8074942000000003,-0.8594370000000001,91.5013926,-2.1657812400000003,-37.50583068
0.76,76,-0.046,-0.986,0.056,-0.8021411999999999,3.2658606,-0.9167328,91.48993344,-2.16005166,-37.47718278000001
0.77,77,-0.047,-0.982,0.052000000000000005,-1.0313244,3.9534102,-1.0886202,91.47847428,-2.1485925000000003,-37.43707572
0.78,78,-0.045,-0.981,0.052000000000000005,-1.2032118,4.297185,-1.2605076000000002,91.46128554,-2.14286292,-37.39123908
0.79,79,-0.042,-0.985,0.052000000000000005,-1.432395,4.8128472,-1.3750992,91.44982638,-2.13140376,-37.34540244
0.8,80,-0.038,-0.99,0.052000000000000005,-2.1199446,5.443101,-1.4896908000000002,91.42690806,-2.11421502,-37.29383622
0.81,81,-0.038,-0.997,0.051,-3.0939732,5.844171599999999,-1.3750992,91.39253058,-2.10848544,-37.23081084
0.8200000000000001,82,-0.04,-1.004,0.046,-4.1825934,6.589017,-1.3750992,91.34669394,-2.09702628,-37.16778546
0.8300000000000001,83,-0.041,-1.011,0.04,-5.042030400000002,8.193299399999999,-1.5469866,91.28939814,-2.08556712,-37.08757134
0.8400000000000001,84,-0.041,-1.021,0.038,-5.5003968,10.026765,-1.9480572,91.22637276,-2.06837838,-36.99016848
0.85,85,-0.041,-1.03,0.036000000000000004,-5.6149884000000005,11.1153852,-2.4637194,91.16334738,-2.05118964,-36.87557688
0.86,86,-0.042,-1.032,0.033,-5.9014674000000005,11.917526400000002,-2.9793816000000004,91.09459242,-2.02827132,-36.76098528
0.87,87,-0.039,-1.031,0.026,-6.589017,12.7769634,-3.2658606,91.02583746,-1.99962342,-36.63493452
0.88,88,-0.037000000000000005,-1.027,0.024,-7.9641161999999985,14.32395,-3.380452200000001,90.93416418,-1.9767051,-36.49169502
0.89,89,-0.031,-1.028,0.021,-9.3392154,15.527161800000002,-3.0366774,90.83103174,-1.9480572000000005,-36.33699636
0.9,90,-0.021,-1.027,0.011,-11.4018642,16.329303,-2.3491278,90.70498098,-1.93086846,-36.17656812
0.91,91,-0.005,-1.018,-0.004,-14.4385416,16.329303,-1.432395,90.55028232,-1.92513888,-36.01613988
0.92,92,0.013,-0.998,-0.023,-17.9908812,15.6417534,-0.3437748,90.36120618,-1.93086846,-35.8671708
0.93,93,0.032,-0.959,-0.038,-21.027558600000006,13.9228794,0.3437748,90.13775256,-1.93659804,-35.72966088
0.9400000000000001,94,0.055,-0.909,-0.039,-23.835052800000003,12.891555,0.572958,89.87992145999998,-1.93659804,-35.60933970000001
0.9500000000000001,95,0.075,-0.857,-0.043,-27.8457588,12.2040054,0.11459160000000004,89.59344246,-1.94232762,-35.48901852
0.9600000000000001,96,0.08199999999999999,-0.797,-0.046,-34.1482968,10.3705398,-0.4583664000000001,89.24393807999998,-1.94232762,-35.39161566
0.97,97,0.079,-0.75,-0.051,-40.393539,8.4224826,-0.6302538000000001,88.82567874,-1.93659804,-35.31140154000001
0.98,98,0.062,-0.695,-0.07,-47.269034999999995,5.443101,-0.3437748,88.34439402000002,-1.93659804,-35.2655649
0.99,99,0.044,-0.631,-0.105,-52.0818822,3.380452200000001,0.11459160000000004,87.8058135,-1.94232762,-35.236917
1.0,100,0.024,-0.581,-0.14400000000000002,-55.748813399999996,3.2085648,0.6875496,87.23858508000002,-1.95378678,-35.20826909999999
1.01,101,-0.003,-0.5479999999999999,-0.17800000000000002,-60.67625219999999,3.151269,0.572958,86.61979044,-1.9595163600000003,-35.18535078
1.02,102,-0.022,-0.5,-0.211,-65.3745078,3.4377480000000005,0.286479,85.95515916000002,-1.97097552,-35.15670288
1.03,103,-0.046,-0.452,-0.183,-68.35388940000001,1.3750992,-0.5156622000000001,85.26187998,-1.97097552,-35.1509733
1.04,104,-0.046,-0.416,-0.107,-69.32791800000001,1.7188740000000002,-1.3178034,84.55141205999998,-1.96524594,-35.13951414
1.05,105,-0.048,-0.402,-0.075,-68.0674104,5.5003968,-2.4064236,83.85813288,-1.94232762,-35.093677500000005
1.06,106,-0.047,-0.45,-0.057,-67.322565,9.0527364,-3.380452200000001,83.17058328,-1.90795014,-35.01919296
1.07,107,-0.047,-0.5589999999999999,-0.037000000000000005,-70.0154676,9.6829902,-3.6669312000000014,82.46011536,-1.86784308,-34.933249260000004
1.08,108,-0.054000000000000006,-0.695,-0.024,-75.68775179999999,8.5370742,-3.0939732,81.68662206,-1.8334656000000005,-34.85876472
1.09,109,-0.051,-0.831,-0.038,-81.8756982,7.5630456000000015,-1.145916,80.85583296,-1.82200644,-34.79573934
1.1,110,-0.034,-0.967,-0.075,-82.04758559999998,4.8701430000000006,1.432395,80.02504386000003,-1.83919518,-34.75563228
1.11,111,-0.021,-1.099,-0.09,-70.473834,2.4064236,3.4950437999999995,79.30884636,-1.87930224,-34.73271396
1.12,112,-0.023,-1.182,-0.075,-55.5196302,-0.8021411999999999,3.151269,78.74161794,-1.91367972,-34.73844354
1.1300000000000001,113,-0.041,-1.195,-0.068,-46.00852740000001,-4.8128472,0.2291832000000001,78.27752196,-1.93086846,-34.79000976
1.1400000000000001,114,-0.064,-1.164,-0.124,-36.7839036,-5.9014674000000005,-3.8961144,77.91655842,-1.90795014,-34.85876472
1.1500000000000001,115,-0.07,-1.148,-0.172,-27.2728008,-4.7555514,-7.906820400000001,77.64153858,-1.84492476,-34.92751968
1.1600000000000001,116,-0.058,-1.161,-0.162,-20.7410796,-2.8074942000000003,-11.3445684,77.42954411999997,-1.74179232,-34.9790859
1.17,117,-0.047,-1.228,-0.166,-18.9649098,0.2291832000000001,-11.917526400000002,77.24046797999998,-1.6272007199999998,-35.00200422
1.18,118,-0.054000000000000006,-1.3430000000000002,-0.184,-19.4232762,4.6982556,-9.3965112,77.03993267999998,-1.52979786,-34.9790859
1.19,119,-0.071,-1.4469999999999998,-0.18600000000000005,-16.959556799999998,6.2452422,-4.4117766,76.86804528,-1.4782316400000002,-34.933249260000004
1.2,120,-0.096,-1.526,-0.19,-11.8602306,3.8961144,0.7448454000000001,76.7477241,-1.4782316400000002,-34.8931422
1.21,121,-0.112,-1.5659999999999998,-0.165,-6.9327918,-1.3178034,4.9274388,76.67896913999998,-1.52979786,-34.8931422
1.22,122,-0.105,-1.599,-0.158,-1.145916,-6.417129599999999,7.8495246,76.66750998,-1.6157415599999996,-34.93897884
1.23,123,-0.062,-1.65,-0.189,4.010706000000001,-10.9434978,10.0840608,76.71334662,-1.73606274,-35.02492254
1.24,124,-0.01,-1.6969999999999998,-0.181,10.026765,-15.0114996,11.45916,76.82220864,-1.87357266,-35.13951414
1.25,125,0.028,-1.7519999999999998,-0.16899999999999998,15.183387000000002,-17.131444199999994,11.8029348,76.98263688,-2.02254174,-35.28275364
1.26,126,0.043,-1.811,-0.17,17.9335854,-16.902261,10.7143146,77.17171302,-2.16005166,-35.42026356
1.27,127,0.018000000000000002,-1.88,-0.155,20.1108258,-15.3552744,7.0473834,77.38370748,-2.25172494,-35.5520439
1.28,128,-0.003,-1.943,-0.194,21.6005166,-13.2926256,2.578311,77.61289067999998,-2.30329116,-35.67236508
1.29,129,-0.03,-1.993,-0.198,23.491278,-12.1467096,-0.4583664000000001,77.85926262000002,-2.3147503200000004,-35.79268626
1.3,130,-0.071,-2.046,-0.202,25.0382646,-11.516455800000001,-1.8334656000000005,78.11709372,-2.3147503200000004,-35.90154828
1.31,131,-0.11,-2.083,-0.223,26.069589,-11.229976800000001,-1.7761698,78.38638397999998,-2.3147503200000004,-36.01613988
1.32,132,-0.145,-2.108,-0.21,28.7051958,-11.4018642,-0.9740286,78.68432214,-2.3204799,-36.1250019
1.33,133,-0.174,-2.123,-0.217,30.65325300000001,-11.1153852,0.286479,79.00517862,-2.3376686399999995,-36.22813434
1.34,134,-0.183,-2.117,-0.245,31.3980984,-10.0840608,1.4896908000000002,79.32603509999998,-2.36631654,-36.32553720000001
1.35,135,-0.18,-2.101,-0.246,32.945085,-8.4224826,2.3491278,79.66408032,-2.40069402,-36.40002174
1.36,136,-0.168,-2.074,-0.265,33.0596766,-6.703608600000001,2.291832,80.00785512,-2.42934192,-36.45731754000001
1.37,137,-0.157,-2.033,-0.289,32.31483119999999,-5.5003968,1.6615782,80.33444118,-2.45226024,-36.50315418
1.3800000000000001,138,-0.154,-1.97,-0.292,32.31483119999999,-4.4690724,0.8021411999999999,80.66675682,-2.4637194,-36.54326124
1.3900000000000001,139,-0.152,-1.877,-0.29100000000000004,32.31483119999999,-3.4377480000000005,0.286479,80.99907246000002,-2.46944898,-36.57190914
1.4000000000000001,140,-0.135,-1.736,-0.292,33.4607472,-3.380452200000001,0.7448454000000001,81.33711767999998,-2.47517856,-36.60628662000001
1.4100000000000001,141,-0.102,-1.556,-0.304,38.38818600000001,-3.8961144,2.578311,81.73245870000002,-2.50382646,-36.63493452
1.42,142,-0.038,-1.34,-0.31,46.1804148,-5.443101,5.042030400000002,82.20228426,-2.55539268,-36.67504158
1.43,143,0.026,-1.145,-0.305,55.6342218,-5.5003968,7.5630456000000015,82.76951268,-2.62987722,-36.71514864
1.44,144,0.08199999999999999,-0.941,-0.28300000000000003,64.457775,-4.3544808,8.7662574,83.40549606,-2.69863218,-36.74379654
1.45,145,0.066,-0.772,-0.257,69.8435802,-4.4690724,6.875496000000001,84.11596397999998,-2.76738714,-36.77244444
1.46,146,0.059,-0.581,-0.247,72.5364828,-5.5576926,5.9014674000000005,84.8550798,-2.82468294,-36.8125515
1.47,147,0.08199999999999999,-0.373,-0.209,73.1667366,-9.2819196,7.3911582,85.60565478000002,-2.8934379,-36.89276562
1.48,148,0.083,-0.172,-0.17800000000000002,73.2240324,-10.6570188,10.886202,86.35622975999998,-3.00229992,-36.9844389
1.49,149,0.036000000000000004,0.029,-0.174,69.15603060000001,-8.4224826,15.0114996,87.04950894,-3.14553942,-37.0417347
1.5,150,-0.018000000000000002,0.233,-0.223,61.6502808,-2.6356068,17.9335854,87.67403316,-3.31742682,-37.05319386
1.51,151,-0.04,0.364,-0.234,50.0765292,8.250595200000001,17.761698000000006,88.17823620000001,-3.48931422,-36.96152058
1.52,152,-0.027000000000000003,0.447,-0.214,36.7839036,18.621135,12.9488508,88.53347016000002,-3.61536498,-36.76671485999999
1.53,153,-0.021,0.394,-0.181,24.8090814,19.194093,7.1046792000000005,88.77411251999996,-3.68411994,-36.57190914
1.54,154,-0.015,0.29100000000000004,-0.13699999999999998,14.4385416,15.2979786,1.9480572,88.89443370000002,-3.70703826,-36.40575132
1.55,155,0.0,0.177,-0.08800000000000001,10.1413566,8.3651868,-2.1199446,88.99183656,-3.68984952,-36.31980762
1.56,156,0.03,0.09,-0.057,7.1046792000000005,4.1252976000000015,-5.9014674000000005,89.06059152,-3.62682414,-36.27970056
1.57,157,0.069,0.029,-0.052000000000000005,3.7815227999999994,3.3231564,-8.7662574,89.10069858,-3.54088044,-36.24532308
1.58,158,0.093,-0.017,-0.054000000000000006,0.2291832000000001,5.3858052,-9.8548776,89.09496899999998,-3.44347758,-36.19375686
1.59,159,0.07200000000000001,-0.053,-0.054000000000000006,-2.1199446,8.193299399999999,-8.078707799999998,89.06059152,-3.35753388,-36.11354274
1.6,160,0.006999999999999999,-0.092,-0.025,-1.6042823999999998,9.9121734,-4.010706000000001,89.03767320000001,-3.31742682,-36.01613988
1.61,161,-0.073,-0.129,0.02,1.145916,11.745639,1.0886202,89.03767320000001,-3.32888598,-35.89581869999999
1.62,162,-0.16399999999999998,-0.17800000000000002,0.054000000000000006,6.0733548,16.2147114,7.7922288,89.08923942,-3.4091001000000003,-35.73539046000001
1.6300000000000001,163,-0.222,-0.185,0.1,10.8289062,23.5485738,14.4385416,89.1809127,-3.5523396000000003,-35.50047768
1.6400000000000001,164,-0.251,-0.16899999999999998,0.136,14.2093584,32.945085,18.6784308,89.31269304,-3.75860448,-35.16243246
1.6500000000000001,165,-0.259,-0.119,0.145,15.4125702,40.6227222,19.308684600000007,89.4387438,-3.95913978,-34.75563228
1.6600000000000001,166,-0.224,-0.044,0.139,15.2406828,45.1490904,16.673077799999998,89.55333540000002,-4.131027179999999,-34.30872504
1.6700000000000002,167,-0.162,-0.001,0.108,16.042824000000003,47.7846972,13.5791046,89.67365658,-4.27426668,-33.82744032
1.68,168,-0.086,0.01,0.06,16.959556799999998,48.3576552,12.318597,89.80543692,-4.40604702,-33.3461556
1.69,169,-0.022,0.012,0.022,16.329303,46.696077,11.9748222,89.93148768,-4.53782736,-32.876330040000006
1.7,170,0.022,0.056,0.027000000000000003,13.521808800000002,43.65939960000001,10.026765,90.02889053999998,-4.65241896,-32.44088196
1.71,171,0.055,0.108,0.014,9.3965112,41.4821592,6.130650599999999,90.08618634,-4.72117392,-32.0283522
1.72,172,0.093,0.12,-0.011,6.417129599999999,39.3622146,3.151269,90.11483424,-4.76701056,-31.63874076
1.73,173,0.13,0.07,-0.011,2.4637194,40.966497,1.8334656000000005,90.0976455,-4.79565846,-31.23194058
1.74,174,0.193,-0.079,-0.211,-7.0473834,43.9458786,1.9480572,89.96013558000001,-4.812847199999998,-30.79076292
1.75,175,0.142,-0.32299999999999995,-0.237,-27.8457588,24.064235999999998,0.8594370000000001,89.65646783999998,-4.83003594,-30.55585014
1.76,176,0.009000000000000001,-0.631,-0.014,-55.748813399999996,20.1108258,-2.291832,89.07205067999998,-4.812847199999998,-30.36104442
1.77,177,-0.032,-0.954,-0.33,-75.63045600000002,24.4653066,-9.453807000000001,88.28136864,-4.7269035000000015,-30.13186122
1.78,178,-0.097,-1.4469999999999998,-0.412,-95.28291540000001,35.8671708,-21.829699800000004,87.27869214,-4.51490904,-29.793816
1.79,179,-0.083,-2.095,-0.544,-112.4143596,79.5265704,-36.898495200000006,86.06975076,-4.13675676,-29.03751144
1.8,180,-0.119,-2.873,-0.402,-117.6855732,81.5892192,-35.0077338,84.80924316,-3.75860448,-28.26974772
1.81,181,-0.044,-2.977,0.233,-53.68616460000001,32.486718599999996,-8.078707799999998,84.24201474,-3.66120162,-27.9603504
1.82,182,0.113,-3.003,-0.174,-31.913760600000003,15.756345000000001,8.479778399999999,83.90396952,-3.73568616,-27.79992216
1.83,183,0.25,-2.774,-0.515,-25.1528562,7.5057497999999985,7.6203414,83.64040884,-3.810170700000002,-27.71970804
1.84,184,0.253,-2.735,-0.35600000000000004,-6.875496000000001,6.6463128000000005,-9.568398599999998,83.5659243,-3.70703826,-27.66241224
1.85,185,-0.062,-2.756,-0.16,1.7188740000000002,-3.3231564,-29.621928600000004,83.58884262000002,-3.4148296799999995,-27.7311672
1.86,186,-0.209,-2.379,-0.033,5.72958,-28.0176462,-35.236917,83.66905674,-3.0939732,-28.0462941
1.87,187,-0.157,-1.937,0.13,21.772404,-38.10170700000001,-30.7678446,83.91542868,-2.81895336,-28.4473647
1.8800000000000001,188,-0.04,-1.685,0.181,39.877876799999996,-39.9351726,-17.18874,84.34514718,-2.6699842800000004,-28.85989446
1.8900000000000001,189,0.0,-1.595,0.236,51.2224452,-42.5707794,1.2605076000000002,84.89518686,-2.70436176,-29.27242422
1.9000000000000001,190,-0.026,-1.556,0.338,50.6494872,-45.3209778,16.329303,85.43949696000001,-2.88770832,-29.70214272
1.9100000000000001,191,-0.059,-1.5490000000000002,0.374,42.1697088,-47.7846972,21.829699800000004,85.89786336,-3.1226211000000004,-30.15477954
1.9200000000000002,192,-0.073,-1.5419999999999998,0.322,33.1742682,-47.2117392,16.2147114,86.26455648,-3.30023808,-30.607416359999995
1.93,193,-0.096,-1.5,0.223,26.5279554,-45.0344988,4.7555514,86.56822422,-3.36326346,-31.04859402
1.94,194,-0.125,-1.4269999999999998,0.14400000000000002,25.1528562,-43.0291458,-6.016058999999999,86.8604328,-3.3116972399999995,-31.47258294
1.95,195,-0.118,-1.329,0.077,29.0489706,-42.05511720000001,-13.5791046,87.18128928,-3.18564648,-31.89657186
1.96,196,-0.084,-1.207,0.032,34.8931422,-41.76863820000001,-17.246035799999998,87.56517113999998,-3.01948866,-32.30910162
1.97,197,-0.039,-1.073,0.006,39.19032720000001,-41.596750799999995,-17.303331600000003,87.98916005999996,-2.84760126,-32.72736096
1.98,198,-0.019,-0.922,-0.022,40.04976420000001,-41.3675676,-15.3552744,88.41887856000002,-2.6929026,-33.13416114
1.99,199,-0.036000000000000004,-0.785,-0.033,34.7212548,-41.6540466,-11.229976800000001,88.79703083999998,-2.5783110000000002,-33.5466909
2.0,200,-0.075,-0.6659999999999999,-0.027000000000000003,26.69984280000001,-42.28430039999999,-6.6463128000000005,89.08923942,-2.50955604,-33.95922066
2.01,201,-0.109,-0.57,-0.033,19.8243468,-41.8832298,-2.0626488000000003,89.31269304,-2.48090814,-34.37175042
2.02,202,-0.125,-0.501,-0.045,14.32395,-40.6227222,1.5469866,89.48458044,-2.48663772,-34.772821019999995
2.03,203,-0.13,-0.455,-0.06,9.740286,-37.0703826,3.7815227999999994,89.60490161999998,-2.51528562,-35.13951414
2.04,204,-0.129,-0.4270000000000001,-0.07,4.4690724,-31.51269000000001,4.6982556,89.66219742,-2.56685184,-35.44891146
2.05,205,-0.131,-0.415,-0.07200000000000001,-0.1718874,-26.69984280000001,4.5263682,89.67365658,-2.6069589,-35.71247214
2.0599999999999996,206,-0.13699999999999998,-0.426,-0.068,-3.9534102,-23.376686399999997,3.6669312000000014,89.64500868,-2.6356068,-35.94165534
2.07,207,-0.14300000000000002,-0.459,-0.06,-8.7662574,-20.340009,2.2345362,89.57052414,-2.65852512,-36.14792022
2.0799999999999996,208,-0.136,-0.528,-0.05,-12.5477802,-17.6471064,0.4583664000000001,89.45020296,-2.65852512,-36.31980762
2.09,209,-0.115,-0.631,-0.034,-17.131444199999994,-13.8655836,-1.145916,89.28404514,-2.65852512,-36.45731754000001
2.0999999999999996,210,-0.092,-0.763,-0.015,-23.6058696,-9.167328,-2.7501984,89.04913236,-2.62987722,-36.554720399999994
2.11,211,-0.069,-0.934,-0.004,-33.0596766,-4.9274388,-4.5263682,88.71681672,-2.58404058,-36.60628662000001
2.1199999999999997,212,-0.051,-1.143,-0.003,-44.690724,-1.7188740000000002,-6.4744254,88.26417990000002,-2.52674478,-36.62920494
2.13,213,-0.049,-1.328,0.006999999999999999,-51.7954032,0.9740286,-7.8495246,87.73705853999998,-2.45226024,-36.62920494
2.1399999999999997,214,-0.043,-1.435,0.013,-48.529542600000006,3.5523396000000003,-7.5630456000000015,87.24431466,-2.3777757,-36.60055704
2.15,215,-0.043,-1.435,-0.027000000000000003,-35.0650296,6.990087599999999,-5.9014674000000005,86.88335112,-2.3204799,-36.53753166
2.1599999999999997,216,-0.061,-1.356,-0.097,-21.9442914,8.078707799999998,-4.297185,86.65416791999998,-2.28037284,-36.46304712
2.17,217,-0.109,-1.264,-0.138,-10.026765,9.8548776,-2.7501984,86.55103548,-2.25172494,-36.37137384
2.1799999999999997,218,-0.19,-1.197,-0.136,-0.8021411999999999,15.2979786,-1.2605076000000002,86.53384674,-2.22880662,-36.21667518
2.19,219,-0.275,-1.141,-0.115,1.8334656000000005,22.173474600000002,-0.6875496,86.52811716,-2.2631841,-35.98749198
2.1999999999999997,220,-0.34600000000000003,-1.083,-0.086,-1.6042823999999998,27.788463,-1.432395,86.49946926,-2.24026578,-35.71247214
2.21,221,-0.377,-1.009,-0.054000000000000006,-5.3285094000000015,31.971056400000002,-2.578311,86.42498472,-2.2058883,-35.40307482
2.2199999999999998,222,-0.34700000000000003,-0.926,-0.018000000000000002,-5.1566220000000005,35.9817624,-3.4377480000000005,86.35622975999998,-2.15432208,-35.04784086
2.23,223,-0.254,-0.8740000000000001,-0.001,-2.7501984,41.539455,-3.8388186,86.30466354,-2.10275586,-34.64104068
2.2399999999999998,224,-0.14300000000000002,-0.8590000000000001,0.004,-1.7761698,44.34694920000001,-4.0680017999999984,86.27028606,-2.05691922,-34.19986302
2.25,225,-0.026,-0.863,-0.002,-1.2605076000000002,44.34694920000001,-3.8961144,86.23590858,-1.99962342,-33.76441494
2.26,226,0.084,-0.875,-0.012,-1.2032118,42.5707794,-2.9220857999999996,86.20726068,-1.9595163600000003,-33.3461556
2.27,227,0.174,-0.89,-0.013,-0.9167328,38.7319608,-1.2032118,86.17861278000002,-1.93086846,-32.968003319999994
2.28,228,0.24,-0.898,-0.015,-0.4583664000000001,32.372127,0.286479,86.15569446,-1.9194093000000003,-32.647146840000005
2.29,229,0.278,-0.8959999999999999,-0.024,-0.4010706,24.5226024,1.2605076000000002,86.1442353,-1.81627686,-32.41796364
2.3,230,0.278,-0.889,-0.046,0.0,16.329303,1.3178034,86.13850572,-1.82200644,-32.25180582
2.31,231,0.23,-0.895,-0.059,0.6302538000000001,3.7815227999999994,0.5156622000000001,86.13850572,-1.82773602,-32.217428340000005
2.32,232,0.179,-0.913,-0.066,1.3750992,-5.7868758000000025,-0.572958,86.15569446,-1.82200644,-32.274724140000004
2.3299999999999996,233,0.127,-0.944,-0.07200000000000001,2.291832,-14.2093584,-1.6042823999999998,86.19007194,-1.81054728,-32.41223406
2.34,234,0.093,-0.972,-0.07400000000000001,2.5210152000000003,-20.798375399999998,-2.5210152000000003,86.21299026,-1.76471064,-32.62422852
2.3499999999999996,235,0.033,-1.013,-0.064,2.9220857999999996,-25.2674478,-3.4377480000000005,86.25309732000002,-1.73606274,-32.876330040000006
2.36,236,-0.017,-1.045,-0.046,4.4117766,-26.5279554,-4.9847345999999995,86.31039312,-1.6959556799999995,-33.145620300000004
2.3699999999999997,237,-0.061,-1.077,-0.034,5.72958,-26.9863218,-6.760904399999999,86.37914808000002,-1.6386598799999998,-33.41491056
2.38,238,-0.106,-1.111,-0.006,7.2765666,-27.043617600000005,-7.6776372,86.46509178,-1.56990492,-33.684200819999994
2.3899999999999997,239,-0.129,-1.11,0.017,11.0007936,-25.3247436,-7.0473834,86.59687212,-1.52406828,-33.93630234
2.4,240,-0.135,-1.098,0.032,13.178034,-22.345362,-4.8128472,86.74011162,-1.4782316400000002,-34.15975596
2.4099999999999997,241,-0.119,-1.074,0.05,12.1467096,-18.8503182,-1.8334656000000005,86.87189196,-1.46677248,-34.343102519999995
2.42,242,-0.085,-1.051,0.056,9.0527364,-16.157415599999997,0.3437748,86.96929482,-1.47250206,-34.503530760000004
2.4299999999999997,243,-0.049,-1.033,0.06,6.3598338,-13.2926256,1.432395,87.03804978000002,-1.4896908000000002,-34.6353111
2.44,244,-0.022,-1.032,0.058,4.4690724,-9.9121734,1.8334656000000005,87.13545264000004,-1.50114996,-34.73271396
2.4499999999999997,245,-0.008,-1.04,0.051,2.7501984,-7.333862400000001,2.1199446,87.16983012,-1.52406828,-34.8071985
2.46,246,-0.001,-1.036,0.037000000000000005,0.286479,-6.9327918,2.4064236,87.17555970000002,-1.5469866,-34.870223880000005
2.4699999999999998,247,-0.003,-1.023,0.029,-1.3750992,-8.307891,3.2085648,87.16410053999998,-1.5813640800000002,-34.95616758
2.48,248,-0.001,-1.006,0.027000000000000003,-0.5156622000000001,-9.9121734,3.9534102,87.16410053999998,-1.6272007199999998,-35.04784086
2.4899999999999998,249,0.017,-0.997,0.01,1.3178034,-12.5477802,4.6982556,87.19274844,-1.65011904,-35.17962120000001
2.5,250,0.033,-0.979,-0.013,3.151269,-16.4438946,4.9847345999999995,87.2328555,-1.70168526,-35.34004944
2.51,251,0.042,-0.975,-0.027000000000000003,3.2658606,-21.4286292,4.9274388,87.27296256,-1.75898106,-35.54631432
2.52,252,0.044,-0.971,-0.024,3.6669312000000014,-25.78311,4.583664,87.32452878000002,-1.81054728,-35.79841584000001
2.53,253,0.043,-0.974,-0.015,5.042030400000002,-28.7051958,4.0680017999999984,87.38755416000002,-1.85065434,-36.07916526
2.54,254,0.032,-0.984,-0.017,5.958763200000001,-31.1689152,3.4377480000000005,87.46776828,-1.87930224,-36.38856258
2.55,255,0.018000000000000002,-0.992,-0.017,7.0473834,-33.9191136,2.578311,87.55371198,-1.90795014,-36.7266078
2.56,256,0.011,-0.996,-0.019,7.5057497999999985,-35.9244666,2.0626488000000003,87.64538526,-1.93659804,-37.07611218
2.57,257,0.012,-0.993,-0.014,8.136003599999999,-37.52874900000001,2.0053530000000004,87.74851770000002,-1.9595163600000003,-37.44853488
2.5799999999999996,258,0.017,-0.988,-0.01,9.2819196,-39.47680620000001,2.3491278,87.85737972,-1.98816426,-37.83814632
2.59,259,0.021,-0.985,-0.012,10.4851314,-41.4821592,3.0939732,87.98343048000002,-2.01108258,-38.24494650000001
2.5999999999999996,260,0.02,-0.985,-0.014,10.1986524,-43.20103320000001,3.8961144,88.10948124000002,-2.05118964,-38.66893542
2.61,261,0.011,-0.984,-0.008,9.224623800000002,-44.34694920000001,4.3544808,88.22407283999998,-2.09702628,-39.11011308
2.6199999999999997,262,-0.004,-0.987,0.001,8.7662574,-44.919907200000004,4.297185,88.33866443999996,-2.13713334,-39.55129074
2.63,263,-0.028,-0.997,0.01,8.651665800000002,-44.690724,3.6096354,88.44752645999998,-2.17151082,-39.9924684
2.6399999999999997,264,-0.053,-1.008,0.02,8.479778399999999,-43.3156248,2.6929026,88.56211806,-2.20015872,-40.41645732
2.65,265,-0.073,-1.018,0.028,8.250595200000001,-40.90920120000001,1.8907613999999997,88.6652505,-2.21734746,-40.8232575
2.6599999999999997,266,-0.08800000000000001,-1.024,0.035,8.250595200000001,-38.0444112,1.2032118,88.76838294000002,-2.22880662,-41.19568020000001
2.67,267,-0.101,-1.033,0.041,8.651665800000002,-35.122325399999994,0.8021411999999999,88.87724496000001,-2.2345362,-41.54518458
2.6799999999999997,268,-0.11,-1.04,0.049,9.3392154,-32.142943800000005,0.5156622000000001,88.98610698,-2.2345362,-41.86031148
2.69,269,-0.12,-1.042,0.061,9.8548776,-28.5333084,0.286479,89.11788732,-2.25172494,-42.13533132
2.6999999999999997,270,-0.129,-1.036,0.066,10.255948199999999,-24.4653066,0.0,89.23247891999998,-2.24599536,-42.38170326
2.71,271,-0.126,-1.028,0.062,11.172681,-19.8816426,0.5156622000000001,89.35852968,-2.25172494,-42.57650898
2.7199999999999998,272,-0.113,-1.025,0.058,11.688343199999998,-16.673077799999998,1.6615782,89.48458044,-2.2631841,-42.73693722
2.73,273,-0.093,-1.018,0.055,11.8602306,-13.349921400000001,3.0939732,89.6106312,-2.2918320000000003,-42.86871756
2.7399999999999998,274,-0.073,-1.009,0.056,11.5737516,-10.7716104,4.1825934,89.74814112,-2.3376686399999995,-42.97185
2.75,275,-0.057,-0.997,0.052000000000000005,10.6570188,-9.167328,4.4117766,89.86273272,-2.3777757,-43.06352328
2.76,276,-0.043,-0.985,0.05,9.453807000000001,-8.250595200000001,3.8961144,89.96586515999998,-2.41215318,-43.143737400000006
2.77,277,-0.035,-0.981,0.051,8.078707799999998,-7.3911582,3.0366774,90.05180886000002,-2.44080108,-43.21822194
2.78,278,-0.028,-0.987,0.056,6.3025379999999975,-6.130650599999999,1.8334656000000005,90.11483424,-2.45798982,-43.27551774
2.79,279,-0.028,-0.996,0.057,4.2398892,-4.4690724,0.572958,90.19504836000002,-2.44080108,-43.32708396
2.8,280,-0.036000000000000004,-1.005,0.053,3.4950437999999995,-3.6096354,-0.2291832000000001,90.23515542,-2.4350715000000003,-43.36146144
2.81,281,-0.046,-1.015,0.053,3.5523396000000003,-2.8074942000000003,-0.7448454000000001,90.2695329,-2.42934192,-43.39010934
2.82,282,-0.056,-1.023,0.055,4.1252976000000015,-2.0053530000000004,-0.7448454000000001,90.31536954,-2.41788276,-43.40729808
2.8299999999999996,283,-0.068,-1.027,0.057,4.9847345999999995,-1.5469866,-0.3437748,90.36693576,-2.41215318,-43.42448682
2.84,284,-0.075,-1.022,0.061,6.016058999999999,-0.9740286,0.0,90.46433862,-2.44653066,-43.4302164
2.8499999999999996,285,-0.076,-1.011,0.062,6.589017,-0.11459160000000004,0.11459160000000004,90.53309358,-2.44653066,-43.4302164
2.86,286,-0.076,-0.997,0.066,6.8182002000000015,0.4583664000000001,0.0,90.60184854,-2.44653066,-43.42448682
2.8699999999999997,287,-0.071,-0.986,0.063,6.8182002000000015,1.7761698,-0.057295800000000015,90.6706035,-2.44653066,-43.4015685
2.88,288,-0.065,-0.98,0.057,6.5317212,2.86479,-0.11459160000000004,90.73935846,-2.44653066,-43.3729206
2.8899999999999997,289,-0.058,-0.98,0.054000000000000006,6.3025379999999975,4.1825934,-0.057295800000000015,90.813843,-2.45226024,-43.33281354
2.9,290,-0.054000000000000006,-0.986,0.051,6.0733548,5.6722842,0.0,90.8711388,-2.45798982,-43.27551774
2.9099999999999997,291,-0.052000000000000005,-0.997,0.05,5.5003968,6.8182002000000015,0.3437748,90.92270502,-2.4637194,-43.20676278000001
2.92,292,-0.054000000000000006,-1.003,0.05,5.042030400000002,7.7922288,0.7448454000000001,90.96854166,-2.47517856,-43.12654866000001
2.9299999999999997,293,-0.054000000000000006,-1.009,0.046,4.8128472,8.479778399999999,0.9740286,91.0143783,-2.48663772,-43.04060496
2.94,294,-0.055,-1.015,0.044,4.6409598,8.880849000000003,0.9167328,91.06021494,-2.50382646,-42.95466126
2.9499999999999997,295,-0.057,-1.016,0.046,4.6409598,9.167328,0.8594370000000001,91.100322,-2.5210152000000003,-42.86298798
2.96,296,-0.058,-1.017,0.046,4.7555514,9.224623800000002,0.6875496,91.14615864,-2.52674478,-42.77131470000001
2.9699999999999998,297,-0.06,-1.018,0.048,4.583664,9.0527364,0.4010706,91.1862657,-2.53820394,-42.67964142
2.98,298,-0.06,-1.02,0.051,4.1252976000000015,9.3392154,0.1718874,91.22064318,-2.54393352,-42.58796814
2.9899999999999998,299,-0.059,-1.022,0.054000000000000006,3.5523396000000003,9.9121734,0.057295800000000015,91.26075024,-2.55539268,-42.49056528000001
3.0,300,-0.054000000000000006,-1.022,0.053,3.2085648,10.313244,0.0,91.28939814,-2.5611222600000003,-42.38743284
3.01,301,-0.049,-1.02,0.054000000000000006,3.0366774,10.5424272,0.0,91.31231646,-2.5611222600000003,-42.27857082
3.02,302,-0.045,-1.016,0.054000000000000006,3.0366774,10.7716104,-0.11459160000000004,91.33523478,-2.56685184,-42.17543838
3.03,303,-0.043,-1.012,0.054000000000000006,2.86479,11.0580894,-0.2291832000000001,91.3581531,-2.57258142,-42.06657636
3.04,304,-0.046,-1.009,0.055,2.5210152000000003,11.4018642,-0.3437748,91.386801,-2.57258142,-41.95198476
3.05,305,-0.047,-1.005,0.054000000000000006,2.1772404,11.745639,-0.4583664000000001,91.39826016,-2.57258142,-41.83166358
3.06,306,-0.048,-1.002,0.055,1.6615782,12.3758928,-0.6302538000000001,91.40971932,-2.57258142,-41.7113424
3.07,307,-0.05,-1.0,0.056,1.145916,13.120738199999998,-0.6302538000000001,91.4154489,-2.57258142,-41.57956206
3.08,308,-0.05,-1.001,0.053,0.6875496,13.6936962,-0.572958,91.4154489,-2.57258142,-41.44205214
3.09,309,-0.052000000000000005,-1.004,0.054000000000000006,0.5156622000000001,13.5791046,-0.3437748,91.4154489,-2.5783110000000002,-41.3102718
3.0999999999999996,310,-0.052000000000000005,-1.007,0.057,0.0,13.2926256,-0.2291832000000001,91.40971932,-2.58404058,-41.17849146
3.11,311,-0.051,-1.011,0.061,-0.6875496,13.5791046,-0.2291832000000001,91.39253058,-2.58977016,-41.04671112
3.1199999999999997,312,-0.047,-1.02,0.061,-1.2032118,14.5531332,-0.4583664000000001,91.37534184,-2.58977016,-40.89774204
3.13,313,-0.04,-1.031,0.06,-1.3178034,15.4125702,-0.8021411999999999,91.35242352,-2.58977016,-40.74877296
3.1399999999999997,314,-0.032,-1.037,0.061,-0.9740286,15.756345000000001,-0.9740286,91.34096436,-2.5783110000000002,-40.5940743
3.15,315,-0.027000000000000003,-1.036,0.067,-0.286479,14.896907999999998,-0.9740286,91.3295052,-2.57258142,-40.44510522
3.1599999999999997,316,-0.023,-1.027,0.07,0.1718874,13.8655836,-0.6875496,91.32377562,-2.57258142,-40.3075953
3.17,317,-0.021,-1.015,0.07200000000000001,0.3437748,13.120738199999998,-0.286479,91.31804604,-2.5783110000000002,-40.17581496
3.1799999999999997,318,-0.021,-1.005,0.071,0.5156622000000001,12.7196676,-0.057295800000000015,91.31804604,-2.58404058,-40.04976420000001
3.19,319,-0.02,-1.002,0.064,0.572958,12.2040054,-0.1718874,91.32377562,-2.56685184,-39.9351726
3.1999999999999997,320,-0.024,-1.003,0.057,0.286479,11.688343199999998,-0.286479,91.32377562,-2.57258142,-39.820581
3.21,321,-0.028,-1.003,0.052000000000000005,0.0,11.0580894,-0.3437748,91.31804604,-2.57258142,-39.71171898
3.2199999999999998,322,-0.03,-1.001,0.046,-0.286479,10.3705398,-0.286479,91.30658688,-2.57258142,-39.60858654
3.23,323,-0.034,-1.001,0.046,-0.286479,9.5111028,-0.1718874,91.29512772,-2.5783110000000002,-39.51118368
3.2399999999999998,324,-0.035,-1.002,0.046,-0.5156622000000001,8.9954406,-0.2291832000000001,91.28939814,-2.56685184,-39.42523998
3.25,325,-0.033,-1.003,0.044,-0.572958,8.479778399999999,-0.286479,91.27793898,-2.56685184,-39.33929628
3.26,326,-0.029,-1.005,0.041,-0.4583664000000001,7.7349330000000025,-0.4010706,91.26647982,-2.56685184,-39.26481174
3.27,327,-0.024,-1.005,0.041,-0.1718874,6.5317212,-0.3437748,91.26075024,-2.56685184,-39.20178636
3.28,328,-0.021,-1.004,0.041,0.11459160000000004,5.6149884000000005,-0.057295800000000015,91.26075024,-2.56685184,-39.14449056
3.29,329,-0.021,-1.004,0.041,0.286479,4.5263682,0.057295800000000015,91.25502066,-2.5210152000000003,-39.1043835
3.3,330,-0.023,-1.002,0.042,0.4010706,3.5523396000000003,0.057295800000000015,91.26075024,-2.5210152000000003,-39.07000602
3.31,331,-0.028,-1.002,0.044,0.4583664000000001,2.4064236,0.0,91.26075024,-2.5210152000000003,-39.04708770000001
3.32,332,-0.031,-1.002,0.044,0.4583664000000001,1.432395,0.0,91.26647982,-2.5210152000000003,-39.02989896
3.33,333,-0.031,-1.004,0.044,0.4010706,0.572958,0.0,91.2722094,-2.5210152000000003,-39.02416938
3.34,334,-0.031,-1.007,0.046,0.4010706,-0.057295800000000015,0.0,91.28939814,-2.33193906,-39.06427644
3.3499999999999996,335,-0.031,-1.011,0.047,0.4583664000000001,-0.6875496,0.0,91.29512772,-2.33193906,-39.07000602
3.36,336,-0.033,-1.013,0.05,0.4010706,-1.2605076000000002,0.11459160000000004,91.3008573,-2.33193906,-39.08146518
3.3699999999999997,337,-0.036000000000000004,-1.012,0.053,0.4583664000000001,-1.8907613999999997,0.3437748,91.30658688,-2.33193906,-39.09865392
3.38,338,-0.041,-1.011,0.057,0.4583664000000001,-2.3491278,0.4583664000000001,91.31231646,-2.3376686399999995,-39.12157224
3.39,339,-0.046,-1.01,0.064,0.572958,-2.4064236,0.5156622000000001,91.36388268,-2.34339822,-39.15022014
