TimeStamp(s),FrameCounter,AccX,AccY,AccZ,GyrX,GyrY,GyrZ,EulerX,EulerY,EulerZ
0.01,1,0.023,-1.004,0.062,-6.5317212,-0.057295800000000015,-0.3437748,90.57893022,0.7104679199999999,-20.884319100000006
0.02,2,0.027999999999999997,-1.006,0.075,-3.7815228,-0.057295800000000015,0.0,90.53882316,0.7104679199999999,-20.884319100000006
0.03,3,0.03,-1.0070000000000001,0.081,-3.8388186,0.2291832000000001,0.0,90.4987161,0.7104679199999999,-20.884319100000006
0.04,4,0.034,-1.0090000000000001,0.085,-3.8961144,0.2291832000000001,0.0,90.45860904,0.7104679199999999,-20.884319100000006
0.05,5,0.037000000000000005,-1.008,0.08800000000000001,-4.4117766,0.057295800000000015,0.0,90.47579778,0.75630456,-20.90723742
0.060000000000000005,6,0.042,-1.008,0.09,-4.9847346,-0.6875496,-0.057295800000000015,90.42423156,0.75630456,-20.912967
0.06999999999999999,7,0.047,-1.008,0.092,-5.5003968,-1.9480572,-0.286479,90.36693576,0.76203414,-20.93588532
0.08,8,0.048,-1.008,0.092,-6.130650599999999,-2.2345362,-0.572958,90.30391038,0.76776372,-20.95880364
0.09,9,0.048,-1.0070000000000001,0.085,-6.703608600000001,-1.2032118,-0.8594370000000001,90.23515542,0.7734933,-20.9702628
0.09999999999999999,10,0.046,-1.004,0.077,-6.7609043999999985,0.11459160000000004,-0.9740286,90.20077794,0.8136003599999999,-20.98745154
0.11,11,0.04,-0.997,0.069,-6.6463128000000005,1.432395,-0.9740286,90.13202298,0.8250595199999999,-20.9702628
0.12,12,0.035,-0.991,0.071,-6.2452422,2.6929026,-0.5156622000000001,90.06899759999996,0.8307891,-20.94734448
0.13,13,0.035,-0.988,0.073,-5.844171599999999,3.6669312000000014,-0.2291832000000001,90.00597222,0.8307891,-20.90723742
0.14,14,0.036000000000000004,-0.99,0.075,-5.3858052,4.5263682,-0.2291832000000001,89.95440599999998,0.8307891,-20.86713036
0.15000000000000002,15,0.035,-0.993,0.068,-5.2139178,5.3285094000000015,-0.6302538000000001,89.92002852,0.8537074199999999,-20.82129372
0.16,16,0.032,-0.996,0.055999999999999994,-5.3285094000000015,6.4744254,-1.432395,89.8684623,0.86516658,-20.75826834
0.17,17,0.027000000000000003,-0.995,0.043,-4.9847346,7.7922288,-2.0053530000000004,89.81689608,0.8823553199999999,-20.67805422
0.18000000000000002,18,0.023,-0.996,0.038,-4.4117766,8.7089616,-2.1199446,89.77105944,0.89954406,-20.59211052
0.19,19,0.022000000000000002,-0.9990000000000001,0.037000000000000005,-3.9534102,10.313244000000001,-1.7188740000000002,89.73095237999998,0.9167328,-20.49470766
0.2,20,0.019,-1.0,0.03,-3.6096353999999997,12.2040054,-0.6875496,89.6965749,0.92246238,-20.37438648
0.21000000000000002,21,0.013999999999999999,-1.001,0.023,-4.297185,13.521808800000002,0.2291832000000001,89.65646783999998,0.9167328,-20.23687656
0.22,22,0.009000000000000001,-0.991,0.013000000000000001,-4.9274388,14.381245800000002,1.0313244000000001,89.60490161999998,0.89954406,-20.09936664
0.23,23,0.003,-0.981,0.008,-5.1566220000000005,14.5531332,1.6615782,89.55333540000002,0.8823553199999999,-19.95612714
0.24000000000000002,24,-0.006,-0.972,0.012,-5.0993262,14.32395,2.0053530000000004,89.50176918,0.8594370000000001,-19.812887640000003
0.25,25,-0.013000000000000001,-0.972,0.027999999999999997,-4.1252976000000015,13.9228794,2.0053530000000004,89.46166212,0.8250595199999999,-19.67537772
0.26,26,-0.01,-0.982,0.034,-4.0680017999999984,13.3499214,1.7761698000000001,89.42155505999996,0.8078707799999998,-19.5378678
0.27,27,0.0,-1.004,0.032,-4.6409598,12.6623718,1.3178034,89.37571842,0.7906820400000001,-19.41754662
0.28,28,0.015,-1.036,0.039,-6.0733548,11.917526400000002,1.2605076000000002,89.31269304,0.7734933,-19.29722544
0.29000000000000004,29,0.026000000000000002,-1.068,0.035,-7.9641161999999985,11.3445684,1.7761698000000001,89.23247891999998,0.75630456,-19.18836342
0.3,30,0.028999999999999998,-1.088,0.036000000000000004,-8.8235532,9.740286,2.9793816000000004,89.14653522,0.72765666,-19.09096056
0.31,31,0.03,-1.099,0.047,-8.8235532,7.2765666,4.9847346,89.06059152,0.67609044,-19.0222056
0.32,32,0.027999999999999997,-1.101,0.055999999999999994,-9.2819196,4.583664,7.161975,88.96318865999999,0.6073354799999999,-18.97636896
0.33,33,0.017,-1.092,0.055,-9.9121734,1.432395,8.9381448,88.8657858,0.5156622000000001,-18.95918022
0.34,34,-0.002,-1.074,0.053,-10.026765,-2.2345362,10.026765,88.76265336,0.41252976,-18.982098540000006
0.35000000000000003,35,-0.024,-1.0390000000000001,0.06,-9.7975818,-5.6722842,10.313244000000001,88.67670966,0.30366774,-19.03939434
0.36000000000000004,36,-0.044000000000000004,-1.005,0.083,-8.880849000000003,-8.880849000000003,9.568398599999998,88.58503637999998,0.21199446,-19.12533804
0.37,37,-0.067,-0.98,0.11199999999999999,-8.7089616,-9.9121734,8.4224826,88.49909268,0.12605075999999998,-19.2227409
0.38,38,-0.081,-0.965,0.11800000000000001,-9.167328,-9.224623800000002,7.2765666,88.40741940000002,0.05156622,-19.31441418
0.39,39,-0.087,-0.96,0.129,-9.1100322,-7.6203414,6.3025379999999975,88.31574612,-0.00572958,-19.38889872
0.4,40,-0.09,-0.972,0.138,-8.9381448,-5.1566220000000005,5.844171599999999,88.26417990000002,-0.09167328,-19.42900578
0.41000000000000003,41,-0.096,-0.998,0.146,-8.7662574,-2.7501984,6.2452422,88.17823620000001,-0.15469866,-19.45765368
0.42000000000000004,42,-0.098,-1.026,0.149,-8.9954406,-0.572958,7.3911582,88.08656292,-0.22918320000000006,-19.46338326
0.43,43,-0.092,-1.041,0.145,-9.0527364,1.0886202,8.880849000000003,87.99488964000004,-0.32085648,-19.4519241
0.44,44,-0.083,-1.037,0.135,-9.568398599999998,2.7501984,10.1986524,87.89748678,-0.42398892,-19.41754662
0.45,45,-0.08,-1.025,0.11800000000000001,-10.1413566,2.9220858,10.7143146,87.81727266,-0.5443101,-19.38316914
0.46,46,-0.077,-1.01,0.092,-10.2559482,2.1772404,10.657018800000001,87.71414021999998,-0.65317212,-19.36025082
0.47000000000000003,47,-0.07400000000000001,-0.997,0.07400000000000001,-10.3705398,0.4583664000000001,9.9694692,87.61100778,-0.75057498,-19.35452124
0.48000000000000004,48,-0.067,-0.988,0.065,-11.0580894,-1.3750992,8.7662574,87.49641618000004,-0.8422482600000001,-19.3659804
0.49,49,-0.06,-0.981,0.055999999999999994,-11.688343199999998,-3.7815228,7.5057497999999985,87.37609499999998,-0.9167328,-19.40035788
0.5,50,-0.054000000000000006,-0.975,0.057,-11.8602306,-5.958763200000001,6.417129599999999,87.27869214,-0.9912173399999998,-19.45765368
0.51,51,-0.052000000000000005,-0.97,0.063,-12.032118,-7.3911582,5.3285094000000015,87.15837096,-1.04278356,-19.52640864
0.52,52,-0.057,-0.97,0.055999999999999994,-11.172680999999999,-9.2819196,4.3544808,87.04950894,-1.09434978,-19.61808192
0.53,53,-0.063,-0.973,0.065,-10.886202,-10.5424272,3.7242269999999995,86.94064691999998,-1.13445684,-19.72694394
0.54,54,-0.069,-0.977,0.075,-11.5737516,-11.172680999999999,3.3231564,86.82605532,-1.1688343199999998,-19.83580596
0.55,55,-0.073,-0.9790000000000001,0.07,-12.4331886,-11.5737516,3.0939732,86.72865246,-1.21467096,-19.94466798
0.56,56,-0.08199999999999999,-0.977,0.068,-12.891555,-12.0894138,2.6929026,86.59687212,-1.24904844,-20.06498916
0.5700000000000001,57,-0.086,-0.9740000000000001,0.067,-13.178034,-12.2040054,1.9480572,86.47082136,-1.27196676,-20.18531034
0.5800000000000001,58,-0.09300000000000001,-0.972,0.057999999999999996,-13.178034,-12.3758928,0.9740286,86.33904102,-1.2891555,-20.3113611
0.59,59,-0.099,-0.973,0.053,-12.9488508,-12.261301199999998,-0.057295800000000015,86.21299026,-1.29488508,-20.43168228
0.6,60,-0.107,-0.98,0.054000000000000006,-12.318597,-11.9748222,-1.3750992,86.11558740000002,-1.30634424,-20.54627388
0.61,61,-0.11199999999999999,-0.988,0.062,-11.8602306,-11.1153852,-2.5210152000000003,85.99526621999998,-1.2891555,-20.66086548
0.62,62,-0.115,-0.998,0.066,-12.1467096,-9.740286,-3.7815228,85.87494504,-1.25477802,-20.76399792
0.63,63,-0.11800000000000001,-1.004,0.077,-12.318597,-8.078707799999998,-5.1566220000000005,85.75462386000002,-1.20894138,-20.84421204
0.64,64,-0.124,-1.012,0.091,-12.0894138,-5.844171599999999,-6.3598338,85.63430267999998,-1.1459160000000002,-20.912967
0.65,65,-0.131,-1.021,0.10300000000000001,-11.6310474,-3.2085647999999996,-7.161975,85.55408856,-1.11153852,-20.9416149
0.66,66,-0.138,-1.025,0.10400000000000001,-11.172680999999999,-0.4583664000000001,-7.6203414,85.44522654,-1.03705398,-20.95307406
0.67,67,-0.138,-1.03,0.10800000000000001,-10.2559482,2.1199446,-8.136003599999999,85.33636451999998,-0.95683986,-20.9416149
0.68,68,-0.132,-1.036,0.11800000000000001,-8.7089616,5.7868758000000025,-8.250595200000001,85.24469124,-0.87089616,-20.89004868
0.6900000000000001,69,-0.132,-1.036,0.13,-7.906820400000001,9.0527364,-8.5370742,85.16447712,-0.7849524600000001,-20.80983456
0.7000000000000001,70,-0.131,-1.032,0.13699999999999998,-7.1046792000000005,12.7196676,-8.7089616,85.12437006,-0.7161975,-20.6837838
0.7100000000000001,71,-0.132,-1.028,0.138,-5.9014674000000005,16.157415599999997,-8.9954406,85.06134468,-0.61306506,-20.53481472
0.72,72,-0.134,-1.022,0.14300000000000002,-4.5263682,19.194093,-9.224623800000002,85.00977845999998,-0.5156622000000001,-20.35146816
0.73,73,-0.132,-1.018,0.153,-3.2085647999999996,22.4599536,-9.6256944,84.96967140000002,-0.40680018,-20.139473700000003
0.74,74,-0.126,-1.01,0.163,-1.8334656000000005,25.382039399999996,-10.313244000000001,84.94675308000002,-0.28647900000000004,-19.89883134
0.75,75,-0.115,-1.003,0.177,-0.572958,28.361421000000004,-11.1153852,84.96967140000002,-0.17761697999999998,-19.6238115
0.76,76,-0.10400000000000001,-1.0090000000000001,0.17300000000000001,0.572958,32.2002396,-11.5164558,84.96967140000002,-0.04583664,-19.31441418
0.77,77,-0.09699999999999999,-1.015,0.161,1.8334656000000005,34.5493674,-11.172680999999999,84.98686014,0.08021412,-18.982098540000006
0.78,78,-0.094,-1.02,0.159,2.6356068,35.0077338,-10.4278356,85.00977845999998,0.20626488,-18.64405332
0.79,79,-0.084,-1.014,0.153,3.380452200000001,33.6899304,-9.167328,85.04415594,0.31512690000000004,-18.32319684
0.8,80,-0.065,-0.9940000000000001,0.14300000000000002,4.1252976000000015,31.856464799999998,-8.307891,85.10718132,0.41252976,-18.01379952
0.81,81,-0.037000000000000005,-0.977,0.121,4.583664,29.335449600000004,-7.9641161999999985,85.15301796,0.5042030399999999,-17.72732052
0.8200000000000001,82,-0.006999999999999999,-0.9590000000000001,0.1,5.958763200000001,25.152856200000002,-8.193299399999999,85.21604334,0.6016058999999999,-17.48667816
0.8300000000000001,83,0.026000000000000002,-0.9470000000000001,0.09699999999999999,8.078707799999998,20.2254174,-8.7662574,85.29625746,0.69900876,-17.29187244
0.8400000000000001,84,0.071,-0.953,0.08,9.7975818,14.0947668,-8.8235532,85.39366032000002,0.79641162,-17.1600921
0.85,85,0.14300000000000002,-1.015,0.021,8.3651868,11.0007936,-7.161975,85.49106318,0.92246238,-17.0741484
0.86,86,0.266,-1.16,-0.040999999999999995,2.9220858,6.130650599999999,-2.2345362,85.52544065999999,0.95111028,-17.0168526
0.87,87,0.35700000000000004,-1.337,0.1,-1.7188740000000002,-15.928232399999999,6.4744254,85.50825191999998,0.87662574,-17.16582168
0.88,88,0.327,-1.3530000000000002,0.13,-1.3750992,-44.0031744,15.6417534,85.49106318,0.69900876,-17.589810600000003
0.89,89,0.177,-1.22,0.064,5.3285094000000015,-52.82672760000001,21.600516600000002,85.54835898,0.4583664000000001,-18.09401364
0.9,90,0.027999999999999997,-1.136,-0.053,10.084060800000001,-44.5761324,23.2620948,85.65149142,0.20626488,-18.518002560000006
0.91,91,-0.063,-1.1340000000000001,-0.121,15.6990492,-33.804522,18.907614,85.81764924000002,0.00572958,-18.83885904
0.92,92,-0.11699999999999999,-1.105,-0.034,21.485925,-33.3461556,10.4851314,86.04110286,-0.10886202,-19.15971552
0.93,93,-0.156,-1.0590000000000002,0.0,23.491278,-32.31483119999999,3.3231564,86.28174521999998,-0.14896908,-19.47484242
0.9400000000000001,94,-0.18,-1.023,-0.005,21.0848544,-23.491278,-2.8074942000000003,86.49946926,-0.12605075999999998,-19.704025620000003
0.9500000000000001,95,-0.17300000000000001,-0.976,-0.07,16.042824000000003,-8.250595200000001,-7.0473834,86.64843834,-0.10886202,-19.767051
0.9600000000000001,96,-0.147,-0.929,-0.11800000000000001,11.2872726,7.9641161999999985,-8.078707799999998,86.76302994,-0.02291832,-19.69256646
0.97,97,-0.13699999999999998,-0.8959999999999999,-0.142,7.3911582,21.142150199999996,-5.9014674000000005,86.83178489999996,0.03437748,-19.48630158
0.98,98,-0.126,-0.898,-0.16899999999999998,4.010706000000001,33.002380800000005,-1.9480572,86.87189196,0.06302537999999999,-19.15971552
0.99,99,-0.10099999999999999,-0.93,-0.17800000000000002,-0.5156622000000001,41.0810886,2.8074942000000003,86.8604328,0.04583664,-18.75291534
1.0,100,-0.057999999999999996,-0.9540000000000001,-0.188,-5.5576926,45.893935799999994,7.8495246,86.78021868,-0.01718874,-18.29454894
1.01,101,-0.004,-0.98,-0.196,-7.9641161999999985,46.8679644,11.401864199999999,86.69427498,-0.12032118,-17.824723380000005
1.02,102,0.044000000000000004,-1.0090000000000001,-0.201,-8.250595200000001,43.1437374,14.209358400000001,86.60260170000002,-0.24637194,-17.3892753
1.03,103,0.081,-1.021,-0.20199999999999999,-5.72958,35.9817624,15.6990492,86.53957632,-0.39534102,-17.02831176
1.04,104,0.10400000000000001,-1.006,-0.17300000000000001,-1.6042823999999998,27.960350399999996,14.9542038,86.51665799999998,-0.53285094,-16.74183276
1.05,105,0.11599999999999999,-0.982,-0.133,2.4637194,20.168121600000006,11.2299768,86.52238758000001,-0.6073354799999999,-16.54702704
1.06,106,0.11699999999999999,-0.9590000000000001,-0.096,6.2452422,12.776963400000001,5.72958,86.57968338,-0.6589017,-16.4152467
1.07,107,0.114,-0.9590000000000001,-0.063,10.1413566,7.1046792000000005,-0.40107059999999994,86.68281582,-0.65317212,-16.34076216
1.08,108,0.096,-0.9840000000000001,-0.048,12.891555,2.0053530000000004,-5.72958,86.81459616,-0.59587632,-16.323573420000002
1.09,109,0.076,-1.008,-0.031,13.8082878,-0.057295800000000015,-8.078707799999998,86.95210608,-0.5099326200000001,-16.329303000000003
1.1,110,0.061,-1.0170000000000001,-0.003,14.1520626,-1.145916,-8.9954406,87.10680474,-0.4010706000000001,-16.35222132
1.11,111,0.052000000000000005,-1.014,0.01,13.8655836,-1.6615782,-8.7662574,87.25004424,-0.31512690000000004,-16.36941006
1.12,112,0.048,-1.0,0.013999999999999999,12.5477802,-0.5156622000000001,-7.9641161999999985,87.37609499999998,-0.22918320000000006,-16.37513964
1.1300000000000001,113,0.044000000000000004,-0.981,0.015,10.4278356,1.432395,-6.5317212,87.48495702,-0.16615782,-16.36368048
1.1400000000000001,114,0.040999999999999995,-0.9620000000000001,0.006,7.906820400000001,4.1252976000000015,-5.0993262,87.56517113999998,-0.11459160000000003,-16.323573420000002
1.1500000000000001,115,0.044000000000000004,-0.9440000000000001,-0.013999999999999999,4.4690724,6.7609043999999985,-3.8961144,87.61100778,-0.04583664,-16.26627762
1.1600000000000001,116,0.057999999999999996,-0.945,-0.039,-0.057295800000000015,9.8548776,-3.0366774,87.6052782,-0.01718874,-16.16887476
1.17,117,0.076,-0.94,-0.063,-4.010706000000001,10.1413566,-2.5783110000000002,87.56517113999998,0.00572958,-16.071471900000002
1.18,118,0.095,-0.922,-0.075,-6.7609043999999985,8.651665800000002,-2.3491277999999998,87.49641618000004,0.028647900000000007,-15.985528200000001
1.19,119,0.11199999999999999,-0.895,-0.075,-7.906820400000001,5.7868758000000025,-2.4064236,87.41047248,0.05156622,-15.93396198
1.2,120,0.113,-0.868,-0.071,-7.0473834,2.1772404,-2.9793816000000004,87.32452878000002,0.12605075999999998,-15.92250282
1.21,121,0.111,-0.8490000000000001,-0.054000000000000006,-4.7555514,-1.6042823999999998,-3.8388186,87.27869214,0.16615782,-15.94542114
1.22,122,0.099,-0.8540000000000001,-0.033,-1.7761698000000001,-5.3285094000000015,-4.7555514,87.26150340000002,0.21199446,-15.99698736
1.23,123,0.07200000000000001,-0.887,0.0,1.4896908000000002,-8.3651868,-5.3858052,87.27869214,0.26356068,-16.08293106
1.24,124,0.033,-0.93,0.03,4.297185,-11.5164558,-5.7868758000000025,87.31879920000002,0.32085648,-16.197522659999994
1.25,125,0.01,-0.9670000000000001,0.054000000000000006,5.3858052,-11.745639,-5.2139178,87.4047429,0.3724227000000001,-16.323573420000002
1.26,126,0.006999999999999999,-0.9790000000000001,0.071,5.2712136,-10.657018800000001,-4.0680017999999984,87.45630911999999,0.41252976,-16.426705860000002
1.27,127,0.02,-0.981,0.08199999999999999,5.3285094000000015,-9.224623800000002,-2.5210152000000003,87.51360492,0.43544808,-16.51837914
1.28,128,0.045,-0.9840000000000001,0.087,5.0993262,-7.3911582,-0.5156622000000001,87.56517113999998,0.44117766,-16.59286368
1.29,129,0.071,-0.996,0.08800000000000001,4.4117766,-5.7868758000000025,1.8907614,87.61100778,0.42398892,-16.650159480000006
1.3,130,0.10099999999999999,-1.01,0.085,2.86479,-5.1566220000000005,4.6982555999999995,87.69122189999999,0.44117766,-16.72464402
1.31,131,0.122,-1.0170000000000001,0.073,0.9167328000000001,-5.5003968,7.2192707999999985,87.70268106,0.36669312,-16.77621024
1.32,132,0.129,-1.02,0.066,-0.6302538000000001,-7.2192707999999985,9.568398599999998,87.69695148,0.26929026,-16.844965199999994
1.33,133,0.128,-1.024,0.066,-1.0313244000000001,-10.026765,10.828906199999999,87.68549232000002,0.16042824,-16.94236806
1.34,134,0.106,-1.021,0.08199999999999999,-1.2605076000000002,-13.980175199999998,11.172680999999999,87.67403316,0.05156622,-17.0741484
1.35,135,0.095,-1.026,0.092,-1.145916,-18.277360199999997,10.886202,87.69122189999999,-0.028647900000000007,-17.26322454
1.36,136,0.083,-1.022,0.107,1.0313244000000001,-21.829699800000004,10.599723,87.70841064,-0.13750992,-17.475219
1.37,137,0.068,-1.016,0.13,3.8388186,-24.637194,10.4851314,87.74851770000002,-0.24637194,-17.715861359999995
1.3800000000000001,138,0.055,-1.005,0.151,6.7609043999999985,-26.5279554,10.3705398,87.82300224,-0.34950438,-17.973692460000006
1.3900000000000001,139,0.044000000000000004,-0.9940000000000001,0.17600000000000002,9.224623800000002,-28.0176462,10.026765,87.92613467999998,-0.4526368200000001,-18.2487123
1.4000000000000001,140,0.042,-0.9890000000000001,0.195,11.45916,-29.621928600000004,9.453807,88.07510376,-0.53858052,-18.54092088
1.4100000000000001,141,0.046,-0.985,0.205,13.3499214,-30.8251404,8.8235532,88.21834326000004,-0.62452422,-18.844588620000003
1.42,142,0.05,-0.986,0.20199999999999999,14.896907999999998,-31.51269000000001,8.193299399999999,88.3787715,-0.70473834,-19.14825636
1.43,143,0.052000000000000005,-0.995,0.20800000000000002,16.272007199999994,-30.997027799999998,7.161975,88.5506589,-0.7734933,-19.4519241
1.44,144,0.043,-1.008,0.215,16.7876694,-29.4500412,5.2712136,88.72827588,-0.8250595199999999,-19.74413268
1.45,145,0.03,-1.021,0.207,16.272007199999994,-26.241476399999996,2.7501984,88.93454076,-0.8422482600000001,-20.00769336
1.46,146,0.006999999999999999,-1.0270000000000001,0.191,14.9542038,-20.3973048,0.2291832000000001,89.08923942,-0.83651868,-20.20822866
1.47,147,-0.036000000000000004,-1.0170000000000001,0.18100000000000002,14.7250206,-13.980175199999998,-1.6615782,89.24393807999998,-0.8193299399999999,-20.34573858
1.48,148,-0.078,-0.995,0.17800000000000002,17.0168526,-4.8128472,-3.380452200000001,89.41582548,-0.7849524600000001,-20.39157522
1.49,149,-0.115,-0.978,0.222,20.9702628,4.6982555999999995,-4.5263682,89.62781994000002,-0.7391158200000001,-20.340009
1.5,150,-0.136,-0.97,0.309,19.2513888,11.5164558,-4.9847346,89.87992145999998,-0.7104679199999999,-20.2254174
1.51,151,-0.12,-0.95,0.35600000000000004,10.657018800000001,15.9855282,-4.7555514,89.98878348,-0.6703608600000001,-20.06498916
1.52,152,-0.07400000000000001,-0.9209999999999999,0.174,7.161975,14.1520626,-4.297185,90.05753844,-0.6302538000000001,-19.92174966
1.53,153,-0.091,-1.002,-0.15,20.5118964,-2.0626488000000003,-5.844171599999999,90.26380332,-0.56722842,-19.938938399999998
1.54,154,-0.145,-1.268,-0.063,36.8411994,-14.7250206,-12.5477802,90.6419556,-0.43544808,-20.0821779
1.55,155,-0.1,-1.5290000000000001,-0.044000000000000004,36.2109456,-8.8235532,-21.371333399999997,91.00864872,-0.21772404,-20.15666244
1.56,156,0.032,-1.492,-0.15,32.8877892,2.0626488000000003,-25.668518399999996,91.34096436,0.03437748,-20.12801454
1.57,157,0.158,-1.374,-0.166,30.5386614,9.568398599999998,-26.5279554,91.65036168,0.29220857999999994,-20.024882100000006
1.58,158,0.196,-1.262,-0.261,27.215505,10.4278356,-25.3247436,91.92538152,0.5443101,-19.9102905
1.59,159,0.147,-1.186,-0.275,24.809081399999997,-3.8388186,-21.657812399999997,92.17748304,0.76203414,-19.93320882
1.6,160,0.08900000000000001,-1.1440000000000001,-0.22699999999999998,17.5325148,-19.079501399999998,-17.475219,92.32645212,0.95683986,-20.11655538
1.61,161,0.10099999999999999,-1.075,-0.23399999999999999,10.7143146,-26.4706596,-13.8082878,92.43531414,1.11153852,-20.368656899999998
1.62,162,0.159,-0.985,-0.25,6.703608600000001,-32.372127,-11.0580894,92.5040691,1.24331886,-20.6837838
1.6300000000000001,163,0.207,-0.897,-0.20199999999999999,4.6409598,-38.5600734,-9.568398599999998,92.54417616,1.36936962,-21.056206500000002
1.6400000000000001,164,0.19699999999999998,-0.87,-0.125,3.2085647999999996,-44.117765999999996,-10.657018800000001,92.57282406,1.50687954,-21.485925
1.6500000000000001,165,0.142,-0.897,-0.083,2.8074942000000003,-44.8626114,-12.318597,92.57855364,1.67303736,-21.92710266
1.6600000000000001,166,0.051,-0.97,-0.059000000000000004,4.1252976000000015,-43.1437374,-11.8602306,92.61293112,1.82200644,-22.345361999999998
1.6700000000000002,167,-0.046,-1.053,-0.033,5.9014674000000005,-38.90384820000001,-8.59437,92.67022692,1.93659804,-22.72351428
1.68,168,-0.132,-1.0979999999999999,-0.003,7.6776372,-31.6845774,-3.4377480000000005,92.73898188,1.99389384,-23.03864118
1.69,169,-0.17800000000000002,-1.095,0.013000000000000001,8.651665800000002,-22.631841,1.3750992,92.82492558,1.99962342,-23.2620948
1.7,170,-0.185,-1.055,0.024,9.167328,-13.0061466,4.4690724,92.89941012,1.89649098,-23.36522724000001
1.71,171,-0.18600000000000005,-0.993,0.044000000000000004,10.943497800000001,-4.4117766,6.417129599999999,93.01400172,1.83919518,-23.41106388
1.72,172,-0.17800000000000002,-0.951,0.059000000000000004,14.037471,4.8701430000000006,7.7922288,93.15724122,1.75898106,-23.36522724000001
1.73,173,-0.161,-0.922,0.06,15.469866,10.3705398,8.479778399999999,93.31193988,1.6673077799999998,-23.26782438
1.74,174,-0.134,-0.902,0.057,15.5844576,14.0947668,8.3651868,93.47236812,1.56990492,-23.13031446
1.75,175,-0.102,-0.887,0.052000000000000005,14.9542038,17.5325148,7.448453999999999,93.6213372,1.4610428999999998,-22.95842706
1.76,176,-0.067,-0.882,0.035,14.1520626,20.7983754,5.72958,93.77030628,1.38655836,-22.75216218
1.77,177,-0.033,-0.89,0.019,11.5737516,22.86102420000001,3.6669312000000014,93.89062746,1.32926256,-22.52870856
1.78,178,-0.03,-0.895,0.01,9.682990199999999,24.7517856,1.6615782,93.9937599,1.2891555,-22.28233662
1.79,179,-0.053,-0.9009999999999999,0.006,7.3911582,27.1582092,-0.8021411999999999,94.06824444,1.27196676,-22.01304636
1.8,180,-0.08900000000000001,-0.9109999999999999,0.001,4.3544808,30.5386614,-2.9220858,94.09689233999998,1.24904844,-21.70364904
1.81,181,-0.11900000000000001,-0.9229999999999999,0.005,2.4637194,33.3461556,-4.1825934,94.12554024,1.25477802,-21.371333399999997
1.82,182,-0.135,-0.929,0.019,1.145916,36.2682414,-4.7555514,94.14272898,1.26623718,-21.01036986
1.83,183,-0.115,-0.9359999999999999,0.037000000000000005,0.7448454000000001,38.38818600000001,-3.9534102,94.15418814,1.26623718,-20.63221758
1.84,184,-0.086,-0.935,0.045,0.11459160000000004,39.47680620000001,-2.1772404,94.15991772,1.24904844,-20.23687656
1.85,185,-0.05,-0.932,0.048,-0.9167328000000001,39.0757356,-0.6875496,94.14272898,1.20894138,-19.8529947
1.86,186,-0.009000000000000001,-0.929,0.055999999999999994,-1.7188740000000002,37.586044799999996,0.0,94.13126982,1.1688343199999998,-19.480572
1.87,187,0.035,-0.934,0.053,-2.2345362,35.0650296,-0.1718874,94.1083515,1.14018642,-19.1367972
1.8800000000000001,188,0.065,-0.943,0.051,-2.2345362,29.4500412,-1.2032118,94.09116276,1.12299768,-18.844588620000003
1.8900000000000001,189,0.068,-0.955,0.065,-1.9480572,23.3766864,-2.8074942000000003,94.06824444,1.12872726,-18.61540542
1.9000000000000001,190,0.049,-0.972,0.087,-1.8907614,17.4179232,-4.583664,94.0510557,1.16310474,-18.44351802
1.9100000000000001,191,0.01,-0.982,0.106,-2.2345362,12.7196676,-6.1879464,94.03386695999998,1.21467096,-18.31173768
1.9200000000000002,192,-0.035,-0.9890000000000001,0.126,-2.8074942000000003,10.1986524,-7.734933000000002,94.00521906,1.28342592,-18.20860524
1.93,193,-0.077,-0.9890000000000001,0.147,-3.380452200000001,10.1986524,-9.3392154,93.97084158,1.36364004,-18.09974322
1.94,194,-0.11,-0.988,0.16699999999999998,-3.8961144,12.9488508,-10.886202,93.93073452,1.4610428999999998,-17.9622333
1.95,195,-0.132,-0.9840000000000001,0.177,-4.583664,17.7044022,-12.261301199999998,93.90208662,1.52979786,-17.77315716
1.96,196,-0.135,-0.981,0.18,-5.1566220000000005,24.350715,-12.776963400000001,93.85624998,1.6329303,-17.52678522
1.97,197,-0.131,-0.975,0.187,-5.2712136,29.392745399999995,-13.120738199999998,93.80468376,1.73606274,-17.22884706
1.98,198,-0.11699999999999999,-0.9640000000000001,0.2,-5.0993262,34.3201842,-13.521808800000002,93.75884712,1.83919518,-16.87934268
1.99,199,-0.102,-0.95,0.214,-4.6409598,38.5027776,-14.209358400000001,93.71874006,1.94232762,-16.48973124
2.0,200,-0.08900000000000001,-0.93,0.225,-3.8961144,41.883229799999995,-15.2406828,93.7072809,2.03973048,-16.06574232
2.01,201,-0.081,-0.914,0.228,-2.9793816000000004,45.034498799999994,-16.501190400000002,93.68436258,2.1657812400000003,-15.6131055
2.02,202,-0.075,-0.91,0.23,-2.0053530000000004,48.2430636,-17.761698000000006,93.67863300000002,2.29756158,-15.126091199999998
2.03,203,-0.069,-0.9129999999999999,0.247,-0.6302538000000001,50.8786704,-19.136797199999997,93.68436258,2.44080108,-14.610429000000002
2.04,204,-0.068,-0.9259999999999999,0.263,0.9167328000000001,52.8840234,-20.05353,93.7072809,2.58977016,-14.07184848
2.05,205,-0.064,-0.937,0.263,1.432395,54.43101,-20.05353,93.75884712,2.72728008,-13.521808800000002
2.0599999999999996,206,-0.061,-0.95,0.264,1.3750992,55.1758554,-19.652459399999998,93.79322459999999,2.87051958,-12.96603954
2.07,207,-0.059000000000000004,-0.9670000000000001,0.256,0.286479,55.1758554,-18.9649098,93.81614292,3.0080294999999997,-12.41027028
2.0799999999999996,208,-0.05,-0.981,0.24100000000000002,-0.9740286,54.25912260000001,-17.7044022,93.82760208,3.13408026,-11.860230599999998
2.09,209,-0.025,-0.9940000000000001,0.226,-2.6929026,53.1705024,-16.272007199999994,93.82760208,3.24294228,-11.327379660000002
2.0999999999999996,210,0.013999999999999999,-1.004,0.20199999999999999,-4.6982555999999995,51.68081160000001,-15.126091199999998,93.81041334,3.34607472,-10.80598788
2.11,211,0.059000000000000004,-1.012,0.158,-7.333862400000001,48.2430636,-13.9228794,93.75884712,3.4377480000000005,-10.31897358
2.1199999999999997,212,0.099,-0.996,0.135,-9.6256944,39.3622146,-12.9488508,93.67863300000002,3.52942128,-9.92363256
2.13,213,0.139,-0.9640000000000001,0.147,-8.7089616,29.0489706,-12.3758928,93.60414846,3.62682414,-9.63142398
2.1399999999999997,214,0.172,-0.925,0.183,-4.9274388,18.621135,-12.0894138,93.56404139999998,3.7299565800000014,-9.44234784
2.15,215,0.17,-0.907,0.237,0.8021411999999999,9.7975818,-11.0007936,93.64425552,3.873196080000002,-9.35640414
2.1599999999999997,216,0.128,-0.927,0.308,8.5370742,3.380452200000001,-7.2765666,93.7359288,3.94768062,-9.31629708
2.17,217,0.065,-0.965,0.358,14.9542038,-0.5156622000000001,-0.8021411999999999,93.88489788,3.9534102,-9.31629708
2.1799999999999997,218,0.019,-1.042,0.337,17.5325148,-2.1199446,7.161975,94.06251486,3.88465524,-9.3392154
2.19,219,0.10400000000000001,-1.262,0.165,10.026765,2.9793816000000004,17.3606274,94.1656473,3.71276784,-9.32202666
2.1999999999999997,220,0.33899999999999997,-1.589,0.003,-11.802934800000001,8.880849000000003,30.022999199999997,94.04532612,3.4091001000000003,-9.25900128
2.21,221,0.501,-1.9669999999999999,-0.162,-33.231564,-38.67466500000001,46.29500640000001,93.69582174,2.98511118,-9.67726062
2.2199999999999998,222,0.589,-1.806,-0.307,-30.022999199999997,-64.8015498,60.2178858,93.3635061,2.44080108,-10.35908064
2.23,223,0.395,-1.264,-0.225,-8.193299399999999,-72.70837019999998,64.22859179999999,93.26610324,1.86784308,-11.1153852
2.2399999999999998,224,0.005,-0.895,0.001,33.518043,-72.192708,56.837433600000004,93.59268929999999,1.36936962,-11.860230599999998
2.25,225,-0.187,-0.8220000000000001,0.141,57.86875799999999,-58.0979412,40.6227222,94.18283604,1.00840608,-12.44464776
2.26,226,-0.222,-0.892,0.177,56.0925882,-50.82137460000001,22.9756158,94.75006446,0.8422482600000001,-12.96030996
2.27,227,-0.243,-0.983,0.10400000000000001,31.340802600000004,-43.258328999999996,6.3025379999999975,95.07092094,0.8250595199999999,-13.38429888
2.28,228,-0.201,-1.0390000000000001,-0.034,5.1566220000000005,-12.0894138,-5.042030400000002,95.12248716,0.89381448,-13.49889048
2.29,229,-0.14300000000000002,-1.095,-0.11800000000000001,-10.828906199999999,11.45916,-8.9954406,95.01362514,0.96829902,-13.3785693
2.3,230,-0.14400000000000002,-1.0979999999999999,-0.22,-21.371333399999997,26.356068,-6.875496000000001,94.75579404,0.98548776,-13.10927904
2.31,231,-0.136,-1.0979999999999999,-0.262,-23.204798999999998,37.0703826,-0.7448454000000001,94.52088126,0.95111028,-12.7483155
2.32,232,-0.12300000000000001,-1.1159999999999999,-0.24100000000000002,-21.314037600000002,44.51883660000001,6.4744254,94.3088868,0.83651868,-12.318597
2.3299999999999996,233,-0.107,-1.115,-0.209,-20.7983754,51.9099948,11.745639,94.09689233999998,0.6703608600000001,-11.81439396
2.34,234,-0.07400000000000001,-1.102,-0.18100000000000002,-22.058882999999998,58.327124399999995,14.667724800000002,93.86770914,0.46409598,-11.25289512
2.3499999999999996,235,0.009000000000000001,-1.0859999999999999,-0.166,-25.7258142,65.14532460000001,15.126091199999998,93.58695972,0.25783110000000004,-10.6283709
2.36,236,0.122,-1.067,-0.2,-33.0596766,70.35924240000001,13.6936962,93.24318492,0.057295800000000015,-9.94655088
2.3699999999999997,237,0.231,-1.061,-0.257,-38.5600734,67.7809314,11.401864199999999,92.84211432,-0.10886202,-9.28764918
2.38,238,0.322,-1.072,-0.315,-39.5913978,59.014674,7.9641161999999985,92.43531414,-0.23491278,-8.714691179999999
2.3899999999999997,239,0.374,-1.094,-0.335,-35.2942128,45.0917946,3.7242269999999995,92.06862102,-0.30366774,-8.27351352
2.4,240,0.3670000000000001,-1.103,-0.321,-27.3873924,28.7051958,-1.2032118,91.74776454000002,-0.27501984,-7.99849368
2.4099999999999997,241,0.309,-1.0959999999999999,-0.262,-18.449247600000003,12.7196676,-6.4744254,91.5586884,-0.21772404,-7.8781725000000025
2.42,242,0.223,-1.084,-0.175,-11.802934800000001,1.8334656000000005,-11.2872726,91.43836722,-0.10886202,-7.85525418
2.4299999999999997,243,0.132,-1.074,-0.109,-11.688343199999998,-1.3178034,-15.527161800000002,91.31804604,0.04010706,-7.866713339999999
2.44,244,0.078,-1.061,-0.062,-17.131444199999994,-0.11459160000000004,-17.8189938,91.14615864,0.21772404,-7.866713339999999
2.4499999999999997,245,0.055999999999999994,-1.038,-0.038,-23.2620948,4.5263682,-17.8189938,90.8997867,0.39534102,-7.820876699999999
2.46,246,0.054000000000000006,-1.0090000000000001,-0.059000000000000004,-26.814434400000003,9.740286,-16.386598799999998,90.62476686,0.55576926,-7.72347384
2.4699999999999998,247,0.067,-0.9890000000000001,-0.095,-27.100913399999996,13.2353298,-14.209358400000001,90.34974702,0.6875496,-7.5916935
2.48,248,0.08199999999999999,-0.9740000000000001,-0.11599999999999999,-25.55392680000001,13.9228794,-12.0894138,90.08618634,0.8021412000000001,-7.459913160000001
2.4899999999999998,249,0.102,-0.966,-0.12,-23.777757,12.834259199999998,-10.4851314,89.84554397999999,0.89954406,-7.333862399999999
2.5,250,0.129,-0.958,-0.105,-23.14750320000001,10.828906199999999,-9.7975818,89.59344246,1.01986524,-7.23645954
2.51,251,0.161,-0.941,-0.08800000000000001,-22.86102420000001,7.448453999999999,-10.026765,89.35852968,1.1172681,-7.161975
2.52,252,0.191,-0.917,-0.08800000000000001,-21.199446,3.3231564,-11.45916,89.14653522,1.2318597,-7.1333271000000025
2.53,253,0.209,-0.898,-0.09699999999999999,-19.480572,-0.6875496,-12.5477802,88.94599991999998,1.35218088,-7.144786260000001
2.54,254,0.222,-0.887,-0.114,-17.475219,-5.6149884000000005,-13.120738199999998,88.76838294000002,1.48396122,-7.20208206
2.55,255,0.23199999999999998,-0.8809999999999999,-0.10800000000000001,-16.386598799999998,-11.6310474,-13.407217200000002,88.58503637999998,1.6558486199999998,-7.333862399999999
2.56,256,0.242,-0.877,-0.09300000000000001,-14.896907999999998,-18.449247600000003,-13.636400400000001,88.43033772,1.7933585399999998,-7.52293854
2.57,257,0.252,-0.877,-0.10800000000000001,-13.0634424,-23.4339822,-14.0947668,88.2928278,1.93086846,-7.75785132
2.5799999999999996,258,0.252,-0.877,-0.11,-11.0007936,-28.0176462,-14.0947668,88.17250662000002,2.06837838,-8.03860074
2.59,259,0.23,-0.877,-0.092,-7.6203414,-34.8358464,-13.2353298,88.08656292,2.20015872,-8.393834700000001
2.5999999999999996,260,0.203,-0.8809999999999999,-0.07400000000000001,-3.3231564,-40.5654264,-11.401864199999999,88.03499670000002,2.3376686399999995,-8.80063488
2.61,261,0.187,-0.89,-0.061,-1.2605076000000002,-43.3729206,-9.2819196,88.01207838,2.42361234,-9.23608296
2.6199999999999997,262,0.183,-0.895,-0.08900000000000001,0.5156622000000001,-44.404245,-6.4744254,88.00061922,2.48663772,-9.67726062
2.63,263,0.182,-0.888,-0.085,3.7242269999999995,-48.5868384,-2.9220858,88.02353753999998,2.51528562,-10.15854534
2.6399999999999997,264,0.168,-0.877,-0.06,7.5630456000000015,-55.2331512,1.0313244000000001,88.08656292,2.49809688,-10.70285544
2.65,265,0.163,-0.867,-0.04,11.802934800000001,-59.8168152,4.1252976000000015,88.18969536,2.46944898,-11.29873176
2.6599999999999997,266,0.158,-0.865,-0.006,15.068795399999999,-61.7075766,5.844171599999999,88.3214757,2.41215318,-11.90606724
2.67,267,0.14400000000000002,-0.867,0.005,16.8449652,-61.1346186,6.3598338,88.47617436,2.3491278,-12.507673139999998
2.6799999999999997,268,0.125,-0.8859999999999999,-0.003,18.506543399999998,-55.92070079999999,5.958763200000001,88.64806175999998,2.2918320000000003,-13.05771282
2.69,269,0.099,-0.919,-0.057,17.8189938,-51.9099948,5.0993262,88.81994916,2.24599536,-13.567645439999998
2.6999999999999997,270,0.048,-0.965,-0.063,18.3919518,-50.1911208,4.6409598,88.98610698,2.2058883,-14.060389320000002
2.71,271,0.0,-1.021,-0.001,17.5325148,-49.274388,5.3285094000000015,89.1522648,2.16005166,-14.54740362
2.7199999999999998,272,-0.02,-1.015,-0.01,13.6936962,-48.70143,7.6776372,89.27831556,2.0912967,-15.02295876
2.73,273,-0.032,-0.9690000000000001,-0.061,13.0634424,-49.4462754,11.745639,89.40436632,1.98243468,-15.509973059999998
2.7399999999999998,274,-0.046,-0.9470000000000001,-0.053,16.2147114,-51.10785360000001,14.9542038,89.55906498,1.84492476,-16.0141761
2.75,275,-0.043,-0.958,-0.019,18.506543399999998,-48.9306132,15.126091199999998,89.73668196000001,1.70168526,-16.495460819999998
2.76,276,-0.032,-0.9740000000000001,-0.040999999999999995,16.2147114,-44.34694920000001,12.4331886,89.89138061999998,1.5870936600000003,-16.9309089
2.77,277,-0.013999999999999999,-0.996,-0.066,15.5844576,-43.315624799999995,9.224623800000002,90.04607927999999,1.50687954,-17.354897819999998
2.78,278,-0.001,-1.0390000000000001,-0.071,17.475219,-44.2896534,5.6149884000000005,90.21796668,1.46677248,-17.7903459
2.79,279,0.006,-1.083,-0.063,19.308684600000007,-44.9199072,2.291832,90.40704282,1.4610428999999998,-18.23725314
2.8,280,0.004,-1.1,-0.053,17.9908812,-44.8626114,0.6302538000000001,90.57893022,1.46677248,-18.67270122
2.81,281,-0.016,-1.085,-0.054000000000000006,15.813640800000002,-44.0031744,0.286479,90.73362888,1.48396122,-19.1081493
2.82,282,-0.053,-1.063,-0.044000000000000004,15.756345,-42.1697088,0.1718874,90.88832754,1.50114996,-19.52067906
2.8299999999999996,283,-0.086,-1.037,-0.034,16.7876694,-38.61736920000001,-0.40107059999999994,91.05448536,1.52406828,-19.90456092
2.84,284,-0.10800000000000001,-1.001,-0.018000000000000002,17.5325148,-32.2002396,-2.0053530000000004,91.22637276,1.55844576,-20.21968782
2.8499999999999996,285,-0.113,-0.972,-0.004,17.6471064,-25.8977016,-4.010706000000001,91.39253058,1.5870936600000003,-20.46605976
2.86,286,-0.102,-0.948,-0.001,17.6471064,-19.595163600000006,-5.844171599999999,91.57014756,1.6558486199999998,-20.6551359
2.8699999999999997,287,-0.086,-0.932,-0.005,18.1054728,-15.011499599999999,-6.8182002000000015,91.75349412,1.73606274,-20.798375399999998
2.88,288,-0.07200000000000001,-0.924,-0.009000000000000001,18.793022399999998,-11.917526400000002,-6.3598338,91.94257026,1.8048177,-20.912967
2.8899999999999997,289,-0.06,-0.9229999999999999,-0.013000000000000001,18.7357266,-9.9694692,-4.9847346,92.13164640000001,1.8621134999999998,-21.00464028
2.9,290,-0.046,-0.9329999999999999,-0.013999999999999999,18.7357266,-9.3392154,-3.3231564,92.29780422000002,1.88503182,-21.09058398
2.9099999999999997,291,-0.032,-0.953,-0.005,18.7357266,-9.1100322,-2.0053530000000004,92.48688036,1.91367972,-21.17652768
2.92,292,-0.017,-0.978,0.0,18.449247600000003,-8.8235532,-1.8334656000000005,92.6759565,1.93659804,-21.26247138
2.9299999999999997,293,-0.006999999999999999,-1.005,-0.004,18.277360199999997,-8.5370742,-2.1772404,92.85930306,1.97097552,-21.3426855
2.94,294,-0.005,-1.028,-0.004,18.2200644,-8.078707799999998,-2.6929026,93.04264962,2.005353,-21.41717004
2.9499999999999997,295,-0.011000000000000001,-1.045,0.006,18.162768600000003,-7.1046792000000005,-3.1512689999999997,93.20307786,2.02827132,-21.48019542
2.96,296,-0.026000000000000002,-1.051,0.012,17.7044022,-5.6722842,-3.2658606,93.38642442,2.0626488000000003,-21.53176164
2.9699999999999998,297,-0.042,-1.053,0.019,17.18874,-4.297185,-2.4637194,93.55831182,2.09702628,-21.571868700000003
2.98,298,-0.057,-1.05,0.036000000000000004,16.959556799999998,-2.9793816000000004,-1.0313244000000001,93.73019922,2.10848544,-21.600516600000002
2.9899999999999998,299,-0.062,-1.047,0.052000000000000005,16.329303,-0.8594370000000001,0.4583664000000001,93.89635704,2.10848544,-21.60624618
3.0,300,-0.053,-1.044,0.06,15.2406828,1.7761698000000001,1.3178034,94.03386695999998,2.05691922,-21.57759828
3.01,301,-0.039,-1.038,0.061,13.636400400000001,4.0680017999999984,1.432395,94.17710646,2.03973048,-21.53749122
3.02,302,-0.019,-1.032,0.057999999999999996,11.688343199999998,6.0160589999999985,1.3178034,94.29742764,2.01681216,-21.47446584
3.03,303,-0.002,-1.021,0.059000000000000004,9.3392154,7.2192707999999985,1.3178034,94.3948305,1.99962342,-21.40571088
3.04,304,0.011000000000000001,-1.011,0.06,6.875496000000001,7.3911582,1.6615782,94.46358546,1.9767051,-21.33122634
3.05,305,0.023,-1.004,0.054000000000000006,3.7815228,6.8182002000000015,2.291832,94.46931504,1.94232762,-21.26247138
3.06,306,0.028999999999999998,-1.0,0.042,0.8021411999999999,5.3285094000000015,2.9793816000000004,94.47504462,1.90795014,-21.21663474
3.07,307,0.027999999999999997,-1.003,0.03,-1.7188740000000002,2.9220858,3.7242269999999995,94.45785588,1.86784308,-21.18798684
3.08,308,0.023,-1.014,0.025,-4.297185,-0.11459160000000004,3.9534102,94.41774882,1.82773602,-21.19371642
3.09,309,0.015,-1.0270000000000001,0.033,-5.6722842,-2.1199446,3.5523396000000003,94.35472344,1.7933585399999998,-21.21663474
3.0999999999999996,310,0.009000000000000001,-1.042,0.039,-6.875496000000001,-3.2658606,2.5783110000000002,94.251591,1.75898106,-21.25101222
3.11,311,0.008,-1.051,0.049,-7.7922288,-3.6096353999999997,1.2605076000000002,94.17137688,1.7475218999999995,-21.2853897
3.1199999999999997,312,0.017,-1.052,0.061,-7.9641161999999985,-3.6096353999999997,0.286479,94.09116276,1.7475218999999995,-21.32549676
3.13,313,0.027999999999999997,-1.043,0.077,-7.5630456000000015,-4.010706000000001,-0.286479,94.01094864,1.75325148,-21.36560382
3.1399999999999997,314,0.037000000000000005,-1.03,0.09300000000000001,-6.875496000000001,-4.3544808,-0.5156622000000001,93.94219368,1.75898106,-21.40571088
3.15,315,0.042,-1.014,0.111,-6.2452422,-4.7555514,-0.2291832000000001,93.90208662,1.78189938,-21.4572771
3.1599999999999997,316,0.04,-1.0,0.134,-5.5003968,-5.844171599999999,0.11459160000000004,93.84479082,1.78762896,-21.52030248
3.17,317,0.037000000000000005,-0.992,0.14800000000000002,-5.0993262,-6.5317212,0.3437748,93.78749502,1.78762896,-21.58332786
3.1799999999999997,318,0.035,-0.988,0.156,-5.2139178,-7.448453999999999,0.5156622000000001,93.7359288,1.78762896,-21.6578124
3.19,319,0.033,-0.987,0.159,-5.3285094000000015,-8.4224826,0.4583664000000001,93.67863300000002,1.7933585399999998,-21.743756100000002
3.1999999999999997,320,0.032,-0.988,0.159,-5.2712136,-9.224623800000002,0.286479,93.66717384,1.8048177,-21.83542938
3.21,321,0.03,-0.993,0.157,-5.0993262,-9.7975818,0.11459160000000004,93.60987804,1.81054728,-21.93283224
3.2199999999999998,322,0.027000000000000003,-0.9990000000000001,0.153,-5.042030400000002,-10.4851314,0.0,93.55831182,1.81627686,-22.03596468
3.23,323,0.02,-1.006,0.15,-4.9847346,-11.172680999999999,-0.1718874,93.50674559999999,1.82773602,-22.15055628
3.2399999999999998,324,0.015,-1.008,0.149,-4.8701430000000006,-11.401864199999999,-0.4583664000000001,93.45517938,1.84492476,-22.259418300000004
3.25,325,0.013000000000000001,-1.008,0.14800000000000002,-4.8701430000000006,-11.2299768,-0.9167328000000001,93.43226106,1.85638392,-22.3740099
3.26,326,0.013999999999999999,-1.006,0.14800000000000002,-5.2139178,-10.7143146,-1.432395,93.38069484,1.87930224,-22.47714234
3.27,327,0.019,-1.005,0.14400000000000002,-5.72958,-10.2559482,-1.7761698000000001,93.31766946,1.90795014,-22.58027478
3.28,328,0.024,-1.005,0.14300000000000002,-6.3598338,-9.9121734,-1.8334656000000005,93.24891449999998,1.93086846,-22.67767764
3.29,329,0.031,-1.0070000000000001,0.14300000000000002,-6.990087599999999,-9.682990199999999,-1.6042823999999998,93.18015954,1.95378678,-22.76935092
3.3,330,0.035,-1.0070000000000001,0.14300000000000002,-7.5057497999999985,-9.396511199999999,-1.0886202,93.12859332,1.9767051,-22.866753780000003
3.31,331,0.038,-1.008,0.14300000000000002,-7.8495246,-8.9954406,-0.3437748,93.0483792,1.98816426,-22.95842706
3.32,332,0.039,-1.01,0.145,-8.3651868,-8.59437,0.286479,92.9624355,1.99389384,-23.04437076
3.33,333,0.036000000000000004,-1.011,0.141,-8.8235532,-8.193299399999999,0.8021411999999999,92.87076222,1.98816426,-23.12458488
3.34,334,0.035,-1.011,0.138,-9.453807,-7.6203414,1.2032118,92.77335936,1.98243468,-23.19906942
3.3499999999999996,335,0.034,-1.0090000000000001,0.14,-10.313244000000001,-7.5057497999999985,1.3750992,92.69887482,1.9767051,-23.27928354
3.36,336,0.034,-1.008,0.142,-11.401864199999999,-7.3911582,1.432395,92.57855364,1.96524594,-23.35376808
3.3699999999999997,337,0.033,-1.005,0.146,-12.5477802,-7.5630456000000015,1.3750992,92.45250288,1.9595163600000003,-23.42825262
3.38,338,0.034,-1.001,0.149,-13.521808800000002,-7.734933000000002,1.2605076000000002,92.30926338,1.9480572000000005,-23.50846674
3.3899999999999997,339,0.035,-1.001,0.14800000000000002,-14.896907999999998,-7.5630456000000015,1.3178034,92.15456472,1.94232762,-23.58868086
3.4,340,0.038,-1.002,0.146,-16.673077799999998,-7.6203414,1.3178034,92.0170548,1.93659804,-23.66889498
3.4099999999999997,341,0.043,-1.005,0.14400000000000002,-17.8189938,-8.078707799999998,1.6042823999999998,91.83370824,1.92513888,-23.749109100000002
3.42,342,0.045,-1.01,0.145,-18.277360199999997,-8.7662574,1.8907614,91.6446321,1.90795014,-23.84078238
3.4299999999999997,343,0.04,-1.011,0.147,-18.793022399999998,-8.9381448,2.1199446,91.44982638,1.8907614,-23.932455659999995
3.44,344,0.031,-1.012,0.149,-19.0222056,-8.479778399999999,2.1199446,91.25502066,1.86784308,-24.01839936
3.4499999999999997,345,0.019,-1.014,0.15,-19.079501399999998,-7.2765666,2.1199446,91.09459242,1.85065434,-24.092883899999997
3.46,346,0.012,-1.012,0.14800000000000002,-19.652459399999998,-5.6149884000000005,2.0626488000000003,90.89405712,1.82773602,-24.1501797
3.4699999999999998,347,0.012,-1.0070000000000001,0.14400000000000002,-20.7410796,-3.7242269999999995,1.9480572,90.68206266,1.81054728,-24.19028676000001
3.48,348,0.016,-1.003,0.14,-21.886995600000002,-1.5469866,2.1199446,90.45860904,1.78762896,-24.2074755
3.4899999999999998,349,0.022000000000000002,-0.9990000000000001,0.133,-23.204798999999998,0.0,2.2345362,90.22369626,1.76471064,-24.21320508
3.5,350,0.028999999999999998,-0.995,0.121,-24.5798982,1.0886202,2.291832,90.00024264,1.74179232,-24.2074755
3.51,351,0.033,-0.992,0.113,-25.496631,1.4896908000000002,2.3491277999999998,89.74241154,1.71314442,-24.19028676000001
3.52,352,0.034,-0.9890000000000001,0.109,-26.1268848,1.145916,2.1772404,89.47885086,1.6902260999999998,-24.18455718
3.53,353,0.031,-0.983,0.109,-25.78311,0.286479,1.8907614,89.21529018,1.6673077799999998,-24.18455718
3.54,354,0.024,-0.985,0.114,-25.210151999999997,-0.4583664000000001,1.5469866,88.95745908,1.65011904,-24.19028676000001
3.55,355,0.016,-0.987,0.115,-25.152856200000002,0.057295800000000015,1.145916,88.73973504,1.6329303,-24.19028676000001
3.56,356,0.01,-0.988,0.11199999999999999,-25.3247436,2.1772404,0.9167328000000001,88.48190394,1.62147114,-24.17309802
3.57,357,0.01,-0.987,0.111,-25.496631,4.0680017999999984,0.8594370000000001,88.22407283999998,1.61001198,-24.13872054
3.58,358,0.01,-0.9890000000000001,0.109,-25.4393352,5.6722842,0.9740286,87.96624174,1.59855282,-24.08142474000001
3.59,359,0.015,-0.9890000000000001,0.105,-25.2674478,6.589017,1.145916,87.70841064,1.5870936600000003,-24.01839936
3.5999999999999996,360,0.021,-0.988,0.099,-25.3247436,7.6776372,1.4896908000000002,87.48495702,1.56990492,-23.94391482
3.61,361,0.025,-0.986,0.098,-25.4393352,9.0527364,1.6615782,87.22712592,1.5527161800000002,-23.85797112
3.6199999999999997,362,0.031,-0.9840000000000001,0.086,-25.8977016,10.1986524,1.6615782,86.96356524000002,1.53552744,-23.760568260000003
3.63,363,0.033,-0.986,0.076,-26.9863218,10.5424272,1.3750992,86.68854540000002,1.52406828,-23.65743582
3.6399999999999997,364,0.035,-0.99,0.07400000000000001,-28.0176462,9.9694692,1.0313244000000001,86.40779597999996,1.51260912,-23.56003296
3.65,365,0.034,-0.993,0.078,-28.4760126,9.396511199999999,0.6302538000000001,86.14996488,1.51260912,-23.474089260000003
3.6599999999999997,366,0.033,-0.99,0.09,-28.81978740000001,9.167328,0.40107059999999994,85.85775629999998,1.50687954,-23.38241598
3.67,367,0.027000000000000003,-0.986,0.09699999999999999,-29.8511118,9.568398599999998,0.3437748,85.55408856,1.50687954,-23.29074270000001
3.6799999999999997,368,0.019,-0.976,0.10099999999999999,-31.5699858,10.2559482,0.7448454000000001,85.23896166,1.50114996,-23.19333984
3.69,369,0.01,-0.966,0.1,-32.142943800000005,11.0007936,0.9740286,84.91237559999998,1.49542038,-23.090207400000004
3.6999999999999997,370,0.002,-0.956,0.105,-31.51269000000001,11.1153852,1.0313244000000001,84.62589659999998,1.48396122,-22.98134538
3.71,371,-0.003,-0.955,0.102,-31.5699858,11.401864199999999,0.9167328000000001,84.30504012,1.48396122,-22.87248336
3.7199999999999998,372,-0.006999999999999999,-0.9570000000000001,0.1,-31.9710564,12.6623718,0.9167328000000001,83.98418364,1.4782316400000002,-22.7464326
3.73,373,-0.011000000000000001,-0.9620000000000001,0.10099999999999999,-32.6013102,14.438541599999999,0.7448454000000001,83.65186800000002,1.4782316400000002,-22.60892268
3.7399999999999998,374,-0.015,-0.966,0.10099999999999999,-33.3461556,16.615782,0.40107059999999994,83.31955236,1.48396122,-22.44849444
3.75,375,-0.017,-0.9690000000000001,0.105,-33.9191136,18.907614,0.286479,83.01015504,1.4896908000000002,-22.26514788
3.76,376,-0.016,-0.968,0.11199999999999999,-34.5493674,20.7410796,0.1718874,82.66065066,1.50687954,-22.06461258
3.77,377,-0.01,-0.9690000000000001,0.11199999999999999,-35.2942128,22.91832,-0.11459160000000004,82.3054167,1.52979786,-21.84115896
3.78,378,-0.002,-0.972,0.10300000000000001,-36.2109456,24.694489800000003,-0.40107059999999994,81.93872358,1.5527161800000002,-21.600516600000002
3.79,379,0.003,-0.978,0.10800000000000001,-37.872523799999996,25.84040580000001,-0.9167328000000001,81.56057129999998,1.59282324,-21.35414466
3.8,380,0.01,-0.977,0.10099999999999999,-39.5913978,26.4706596,-1.9480572,81.18814859999998,1.6386598799999998,-21.10204314
3.81,381,0.018000000000000002,-0.975,0.095,-40.2216516,26.41336380000001,-2.86479,80.78707800000002,1.6959556799999995,-20.84994162
3.82,382,0.023,-0.975,0.092,-41.0810886,26.0122932,-3.5523396000000003,80.37454824,1.75898106,-20.60356968
3.83,383,0.027000000000000003,-0.966,0.094,-42.112413000000004,25.7258142,-4.297185,79.95055932,1.8334656000000005,-20.36292732
3.84,384,0.024,-0.9540000000000001,0.099,-42.8572584,25.6112226,-4.9847346,79.51511124,1.9194093000000003,-20.12801454
3.8499999999999996,385,0.016,-0.9440000000000001,0.111,-43.1437374,25.7258142,-5.9014674000000005,79.11977021999998,2.01108258,-19.89310176
3.86,386,0.01,-0.93,0.115,-43.831286999999996,26.642546999999997,-7.0473834,78.67859256,2.1199446,-19.64672982
3.8699999999999997,387,0.006999999999999999,-0.9179999999999999,0.109,-44.34694920000001,27.903054600000004,-7.906820400000001,78.23168532,2.24026578,-19.3946283
3.88,388,0.006999999999999999,-0.9059999999999999,0.11,-45.3782736,28.877083199999998,-8.7089616,77.7790485,2.37204612,-19.1367972
3.8899999999999997,389,0.011000000000000001,-0.894,0.12,-46.2377106,29.507337,-9.0527364,77.31495251999998,2.50955604,-18.87323652
3.9,390,0.016,-0.8809999999999999,0.11699999999999999,-47.1544434,28.9916748,-9.224623800000002,76.87950443999998,2.65279554,-18.61540542
3.9099999999999997,391,0.018000000000000002,-0.8640000000000001,0.095,-47.269035,28.6479,-9.5111028,76.40394930000002,2.79603504,-18.3633039
3.92,392,0.02,-0.846,0.08800000000000001,-46.5814854,29.1062664,-9.8548776,75.93985332,2.94500412,-18.11120238
3.9299999999999997,393,0.018000000000000002,-0.83,0.09300000000000001,-45.6647526,29.8511118,-10.313244000000001,75.4872165,3.1054323600000004,-17.85337128
3.94,394,0.013999999999999999,-0.816,0.098,-44.748019799999994,30.8251404,-11.0007936,75.04030925999999,3.27731976,-17.58408102
3.9499999999999997,395,0.011000000000000001,-0.804,0.099,-44.0031744,32.142943800000005,-11.6310474,74.63923866,3.45493674,-17.30906118
3.96,396,0.006999999999999999,-0.7909999999999999,0.092,-43.4302164,33.8618178,-12.1467096,74.20952016,3.64974246,-17.02258218
3.9699999999999998,397,0.005,-0.782,0.073,-43.1437374,35.5806918,-12.4904844,73.78553124,3.85027776,-16.71891444
3.98,398,0.006,-0.773,0.069,-41.6540466,36.6120162,-12.6623718,73.37873106,4.06227222,-16.40378754
3.9899999999999998,399,0.008,-0.769,0.065,-40.04976420000001,37.1849742,-12.834259199999998,72.98911962000003,4.27426668,-16.088660639999997
4.0,400,0.015,-0.7659999999999999,0.067,-38.38818600000001,37.81522800000001,-13.178034,72.64534482,4.49199072,-15.76780416
4.01,401,0.023,-0.757,0.07200000000000001,-36.6120162,37.9871154,-13.750992000000002,72.29584044,4.72117392,-15.452677260000002
4.02,402,0.034,-0.732,0.084,-34.5493674,38.3308902,-14.4958374,71.9635248,4.96181628,-15.131820780000002
4.03,403,0.038,-0.7020000000000001,0.09300000000000001,-32.0283522,38.38818600000001,-15.068795399999999,71.66558663999999,5.20818822,-14.81669388
4.04,404,0.036000000000000004,-0.665,0.11800000000000001,-29.736520199999998,37.9871154,-15.183387000000002,71.38483722,5.46028974,-14.50729656
4.05,405,0.026000000000000002,-0.634,0.142,-27.6738714,37.0703826,-14.896907999999998,71.1613836,5.7009320999999975,-14.20362882
4.06,406,0.013000000000000001,-0.611,0.162,-26.1841806,36.4401288,-14.610429000000002,70.92074124,5.9473040400000015,-13.90569066
4.07,407,0.0,-0.602,0.163,-25.7258142,36.669312,-14.896907999999998,70.68582846,6.19367598,-13.6077525
4.08,408,-0.01,-0.602,0.152,-26.1841806,37.9298196,-15.5844576,70.44518609999999,6.451507079999999,-13.30408476
4.09,409,-0.02,-0.599,0.139,-27.1582092,40.10706,-16.7303736,70.19881416000001,6.72652692,-12.98322828
4.1,410,-0.032,-0.579,0.124,-27.6165756,42.685371,-18.162768600000003,69.98109012,7.018735500000001,-12.63945348
4.109999999999999,411,-0.043,-0.542,0.11,-28.1895336,45.6647526,-19.480572,69.73471817999999,7.33959198,-12.278489939999998
4.12,412,-0.059000000000000004,-0.5,0.08800000000000001,-28.877083199999998,47.8992888,-19.9389384,69.48261666,7.677637200000001,-11.89460808
4.13,413,-0.073,-0.452,0.063,-29.9657034,48.9306132,-19.308684600000007,69.22478556000002,8.00995284,-11.50499664
4.14,414,-0.081,-0.40299999999999997,0.054000000000000006,-30.194886600000004,48.8733174,-18.277360199999997,68.96695446,8.3365389,-11.109655620000002
4.1499999999999995,415,-0.076,-0.35200000000000004,0.053,-30.93973200000001,46.696077,-17.5325148,68.71485294,8.640206639999999,-10.73150334
4.16,416,-0.054000000000000006,-0.295,0.049,-31.856464799999998,43.258328999999996,-17.303331600000003,68.43410352000001,8.94387438,-10.39345812
4.17,417,-0.023,-0.243,0.036000000000000004,-33.804522,40.8519054,-18.048177,68.13616535999999,9.24754212,-10.07833122
4.18,418,0.016,-0.218,0.005,-37.1849742,40.10706,-20.5691922,67.80384971999999,9.568398599999998,-9.78039306
4.1899999999999995,419,0.051,-0.23600000000000002,-0.032,-40.5654264,41.0810886,-24.637194,67.43142702,9.93509172,-9.49391406
4.2,420,0.057999999999999996,-0.28800000000000003,-0.069,-44.4615408,41.3675676,-29.4500412,67.02462684000001,10.34762148,-9.21889422
4.21,421,0.04,-0.336,-0.084,-48.70143,41.0810886,-33.2888598,66.57199002,10.79452872,-8.97252228
4.22,422,0.022000000000000002,-0.34299999999999997,-0.1,-53.0559108,41.3675676,-35.122325399999994,66.07351656,11.26435428,-8.73187992
4.2299999999999995,423,0.016,-0.29600000000000004,-0.129,-55.40503860000001,39.19032720000001,-35.0077338,65.54639519999999,11.722720679999998,-8.51415588
4.24,424,0.0,-0.214,-0.18,-57.35309579999999,34.7212548,-34.5493674,64.99635552,12.16389834,-8.34226848
4.25,425,-0.028999999999999998,-0.094,-0.233,-58.44171600000001,31.6845774,-34.60666320000001,64.40620878,12.58788726,-8.204758559999998
4.26,426,-0.052000000000000005,0.040999999999999995,-0.243,-58.38442020000001,34.091001,-34.37748,63.84470994000001,13.02333534,-8.044330319999998
4.27,427,-0.037000000000000005,0.155,-0.195,-55.6915176,42.398892,-34.0337052,63.32904774000001,13.49889048,-7.80941754
4.28,428,-0.106,0.175,-0.01,-44.5761324,37.1276784,-32.945085,62.91651798,13.94006814,-7.620341400000001
4.29,429,-0.23199999999999998,0.013999999999999999,0.257,-30.882436199999997,29.2781538,-30.8251404,62.6243094,14.335409159999998,-7.500020219999999
4.3,430,-0.332,-0.23,0.40399999999999997,-30.7678446,28.762491600000004,-28.533308399999996,62.38939661999999,14.67345438,-7.3567807200000015
4.31,431,-0.349,-0.491,0.4920000000000001,-40.2216516,38.8465524,-30.7105488,62.02843308,15.10890246,-7.15051584
4.32,432,-0.255,-0.821,0.5710000000000001,-63.25456320000001,52.9413192,-39.3622146,61.45547508000001,15.68186046,-6.86403684
4.33,433,-0.067,-1.145,0.5489999999999999,-106.1118216,54.4883058,-50.3630082,60.43560984,16.3579509,-6.623394479999999
4.34,434,0.24100000000000002,-1.207,0.032,-155.7299844,42.5707794,-64.9161414,58.85997533999999,17.09706672,-6.58328742
4.35,435,0.526,-1.124,-0.68,-201.16555380000003,24.9809688,-86.11558740000002,56.72857157999999,17.92212624,-6.8468481
4.36,436,0.6759999999999999,-1.141,-1.042,-247.00219380000001,6.3025379999999975,-106.1691174,54.03566897999999,18.7930224,-7.43699484
4.37,437,0.752,-1.021,-1.237,-292.5523548,-2.2345362,-116.65424879999999,50.80991544000001,19.65818898,-8.210488139999999
4.38,438,0.835,-0.82,-1.579,-327.84656760000007,-12.4904844,-120.89413799999998,47.15444340000001,20.44314144,-9.16159842
4.39,439,1.071,-0.696,-1.7919999999999998,-346.00933619999995,-37.1276784,-125.191323,43.21249236,21.027558600000006,-10.38772854
4.3999999999999995,440,1.436,-0.574,-1.876,-365.0315418,-56.66554620000001,-123.4151532,39.00698064,21.37706298,-11.791475639999998
4.41,441,1.82,-0.498,-2.344,-403.1332488,-57.4676874,-116.0812908,34.41758706,21.56613912,-13.160845260000002
4.42,442,1.685,-0.311,-2.5380000000000003,-421.0668342,-87.54798240000002,-109.5495696,29.60473986,21.359874240000003,-14.656265639999996
4.43,443,1.568,0.013999999999999999,-2.5380000000000003,-392.189751,-122.9567868,-110.9819646,25.04399418,20.74680918,-16.323573420000002
4.4399999999999995,444,2.009,0.47200000000000003,-2.84,-375.28749,-159.6833946,-124.50377340000001,20.597840100000006,19.74413268,-18.2200644
4.45,445,1.105,0.52,-3.6919999999999997,-340.2224604,-148.85448839999995,-121.8108708,16.5871341,18.70134912,-19.95612714
4.46,446,1.7269999999999999,0.342,-3.9960000000000004,-275.4782064,-171.8874,-108.0598788,13.321273499999998,17.31479076,-21.53749122
4.47,447,0.971,0.9790000000000001,-3.9960000000000004,-215.3749122,-173.03331599999999,-106.3410048,10.73723292,15.84801828,-23.02145244
4.4799999999999995,448,0.271,1.486,-3.995,-123.7016322,-127.8842256,-92.5900128,9.17878716,14.7536685,-24.21320508
4.49,449,1.046,1.212,-3.531,-83.19350159999998,-69.0987348,-37.9871154,8.21621772,14.12914428,-24.71740812
4.5,450,0.23800000000000002,0.9840000000000001,-2.918,-113.2737966,20.9702628,-5.9014674000000005,7.05884256,14.32967958,-24.74032644
4.51,451,0.191,0.868,-2.315,-128.629071,84.797784,-15.297978599999999,5.735309579999999,15.16046868,-24.768974340000003
4.52,452,0.636,0.298,-1.66,-101.0124954,105.8826384,-15.2406828,4.68679644,16.20325224,-24.79189266
4.53,453,0.845,-0.22899999999999998,-1.258,-81.4173318,81.07355700000002,-12.834259199999998,3.8388186000000006,16.999663860000002,-24.83199972
4.54,454,0.871,-0.48100000000000004,-0.997,-81.1308528,45.607456799999994,-14.209358400000001,2.9793816000000004,17.4465711,-24.92940258
4.55,455,0.7609999999999999,-0.524,-0.847,-82.2767688,18.048177,-19.308684600000007,2.1199446,17.65283598,-25.10701956
4.56,456,0.534,-0.32799999999999996,-0.727,-71.8489332,-4.2398892,-25.210151999999997,1.31207382,17.61272892,-25.37058024
4.57,457,0.47200000000000003,-0.073,-0.72,-57.123912600000004,-24.7517856,-28.0176462,0.64171296,17.36635698,-25.668518400000004
4.58,458,0.42100000000000004,0.187,-0.733,-45.83664,-36.7266078,-30.595957199999997,0.0859437,16.999663860000002,-25.99510446
4.59,459,0.248,0.275,-0.631,-40.6227222,-39.7059894,-26.642546999999997,-0.4010706000000001,16.604322840000002,-26.27585388
4.6,460,0.054000000000000006,0.287,-0.484,-40.4508348,-35.4088044,-19.136797199999997,-0.8880849000000001,16.23762972,-26.48211876
4.61,461,-0.07400000000000001,0.312,-0.47,-36.4401288,-28.4760126,-13.0634424,-1.2891555,15.94542114,-26.61962868
4.62,462,-0.095,0.355,-0.495,-29.621928600000004,-20.6837838,-11.0007936,-1.62147114,15.739156259999998,-26.728490700000002
4.63,463,-0.141,0.392,-0.56,-23.5485738,-11.2872726,-11.9748222,-1.8907614,15.61883508,-26.84881188
4.64,464,-0.139,0.375,-0.617,-15.6417534,-0.057295800000000015,-13.2353298,-2.08556712,15.6131055,-26.9863218
4.6499999999999995,465,-0.038,0.36200000000000004,-0.696,-11.172680999999999,12.6623718,-14.896907999999998,-2.3147503200000004,15.68759004,-27.14675004
4.66,466,0.11699999999999999,0.34600000000000003,-0.775,-6.3598338,23.777757,-17.0741484,-2.42934192,15.91677324,-27.3300966
4.67,467,0.223,0.316,-0.8220000000000001,3.3231564,26.41336380000001,-15.183387000000002,-2.44653066,16.16887476,-27.49052484
4.68,468,0.221,0.27699999999999997,-0.861,13.5791046,20.5118964,-9.568398599999998,-2.3376686399999995,16.36941006,-27.593657279999995
4.6899999999999995,469,0.22699999999999998,0.244,-0.846,15.756345,8.59437,-3.2085647999999996,-2.19442914,16.45535376,-27.62803476
4.7,470,0.14400000000000002,0.239,-0.769,13.0634424,-4.8701430000000006,0.7448454000000001,-2.1199446,16.38086922,-27.63376434000001
4.71,471,0.11,0.245,-0.665,11.0007936,-15.297978599999999,1.8334656000000005,-1.99962342,16.23190014,-27.610846020000004
4.72,472,0.10400000000000001,0.276,-0.5870000000000001,10.1986524,-26.069589,1.432395,-1.8907614,15.974069039999998,-27.59938686
4.7299999999999995,473,0.10099999999999999,0.325,-0.59,13.178034,-36.32553720000001,0.8021411999999999,-1.7475218999999995,15.61883508,-27.5879277
4.74,474,0.08199999999999999,0.371,-0.674,18.277360199999997,-42.2270046,1.8907614,-1.5527161800000002,15.20057574,-27.57073896
4.75,475,0.064,0.3670000000000001,-0.79,27.043617600000005,-46.3523022,4.6409598,-1.30634424,14.7250206,-27.5306319
4.76,476,0.081,0.32299999999999995,-0.925,35.46610020000001,-48.0138804,8.7662574,-0.9167328,14.25519504,-27.45041778
4.77,477,0.154,0.265,-1.005,41.539455,-52.425657,13.2926256,-0.4583664000000001,13.73953284,-27.32436702
4.78,478,0.20600000000000002,0.193,-1.068,45.4928652,-61.07732280000001,17.761698000000006,0.04583664,13.14365652,-27.1582092
4.79,479,0.254,0.1,-1.099,44.748019799999994,-67.2079734,21.944291399999997,0.55003968,12.48475482,-26.96340348
4.8,480,0.312,0.03,-1.073,40.6227222,-71.8489332,24.637194,1.01986524,11.78001648,-26.745679440000004
4.81,481,0.33299999999999996,-0.015,-1.153,37.0703826,-72.70837019999998,25.668518399999996,1.44958374,11.0580894,-26.527955400000003
4.82,482,0.34700000000000003,-0.023,-1.2209999999999999,32.085648000000006,-69.4998054,25.55392680000001,1.82200644,10.3705398,-26.31023136
4.83,483,0.32899999999999996,-0.01,-1.187,27.4446882,-66.00476160000001,23.2620948,2.14286292,9.7116381,-26.12115522
4.84,484,0.281,-0.01,-1.171,21.2567418,-59.7595194,20.7983754,2.39496444,9.11576178,-25.94926782
4.85,485,0.207,-0.021,-1.189,13.750992000000002,-46.696077,17.9908812,2.5611222600000003,8.64593622,-25.80602832
4.86,486,0.134,-0.061,-1.295,8.250595200000001,-29.736520199999998,14.381245800000002,2.6699842800000004,8.34799806,-25.679977560000005
4.87,487,0.009000000000000001,-0.111,-1.3230000000000002,5.844171599999999,-12.3758928,11.401864199999999,2.74446882,8.2219473,-25.57684512
4.88,488,-0.106,-0.147,-1.27,11.2299768,-4.6982555999999995,9.8548776,2.87051958,8.17038108,-25.48517184
4.89,489,-0.161,-0.174,-1.06,21.199446,-4.2398892,8.078707799999998,3.0997027800000003,8.12454444,-25.40495772
4.8999999999999995,490,-0.057,-0.20600000000000002,-0.8109999999999999,25.0382646,-1.7761698000000001,6.417129599999999,3.39764094,8.07297822,-25.33620276
4.91,491,0.08,-0.20600000000000002,-0.6709999999999999,24.2361234,4.4690724,4.4117766,3.64974246,8.11881486,-25.29036612
4.92,492,0.247,-0.17300000000000001,-0.7240000000000001,17.131444199999994,10.313244000000001,2.1199446,3.82735944,8.2219473,-25.25598864
4.93,493,0.34299999999999997,-0.105,-0.823,7.3911582,13.178034,-1.8907614,3.896114400000001,8.353727639999999,-25.2674478
4.9399999999999995,494,0.392,-0.027000000000000003,-0.856,1.0313244000000001,10.1413566,-7.2765666,3.896114400000001,8.45686008,-25.33047318
4.95,495,0.385,-0.013000000000000001,-0.865,-3.2085647999999996,3.6669312000000014,-13.0061466,3.81590028,8.61728832,-25.48517184
4.96,496,0.34299999999999997,-0.033,-0.9079999999999999,-8.9954406,-1.2605076000000002,-15.4125702,3.70130868,8.61155874,-25.639870499999997
4.97,497,0.261,-0.045,-0.977,-11.3445684,-4.010706000000001,-12.1467096,3.56952834,8.58291084,-25.76019168
4.9799999999999995,498,0.135,-0.049,-1.026,-9.9121734,-3.6096353999999997,-6.0160589999999985,3.46066632,8.54853336,-25.82321706
4.99,499,0.046,-0.042,-1.0290000000000001,-6.2452422,-2.1772404,1.6042823999999998,3.39764094,8.52561504,-25.8117579
5.0,500,0.005,-0.035,-0.9740000000000001,-0.7448454000000001,-2.7501984,5.3858052,3.35753388,8.353727639999999,-25.73727336
5.01,501,0.02,-0.02,-0.9329999999999999,4.3544808,-4.6982555999999995,7.7922288,3.4091001000000003,8.302161420000001,-25.66278882000001
5.02,502,0.059000000000000004,-0.02,-0.948,7.161975,-5.5003968,9.8548776,3.50077338,8.24486562,-25.57111554
5.03,503,0.09300000000000001,-0.048,-0.965,9.7975818,-6.703608600000001,11.8602306,3.61536498,8.17038108,-25.45652394
5.04,504,0.11699999999999999,-0.12300000000000001,-0.982,12.3758928,-10.084060800000001,13.750992000000002,3.75860448,8.067248639999999,-25.33047318
5.05,505,0.11900000000000001,-0.209,-0.9890000000000001,12.4904844,-13.980175199999998,15.011499599999999,3.94768062,7.91254998,-25.18723368
5.06,506,0.1,-0.281,-0.972,9.3392154,-16.329303,15.297978599999999,4.06227222,7.74066258,-25.04972376
5.07,507,0.091,-0.306,-0.983,3.7815228,-15.6990492,13.8082878,4.11956802,7.574504760000001,-24.92940258
5.08,508,0.08900000000000001,-0.28300000000000003,-0.982,0.6302538000000001,-12.318597,10.5424272,4.13675676,7.448453999999999,-24.8377293
5.09,509,0.102,-0.231,-0.948,-1.0313244000000001,-8.3651868,6.3025379999999975,4.13675676,7.3625102999999985,-24.7804335
5.1,510,0.13,-0.179,-0.946,-3.0366774,-4.5263682,1.9480572,4.20551172,7.32240324,-24.75751518
5.11,511,0.15,-0.145,-0.956,-5.443101,-0.4583664000000001,-0.572958,4.14821592,7.316673659999997,-24.76324476
5.12,512,0.161,-0.13699999999999998,-0.975,-8.4224826,3.8961144,-1.145916,4.06227222,7.3567807200000015,-24.768974340000003
5.13,513,0.163,-0.146,-1.002,-11.6310474,7.734933000000002,-0.286479,3.94195104,7.431265259999999,-24.76324476
5.14,514,0.157,-0.139,-0.996,-13.9228794,9.167328,0.7448454000000001,3.79871154,7.52293854,-24.74605602
5.1499999999999995,515,0.141,-0.11,-0.963,-14.32395,7.2192707999999985,0.9740286,3.666931200000001,7.5916935,-24.72886728
5.16,516,0.129,-0.084,-0.9359999999999999,-14.438541599999999,4.3544808,0.0,3.51796212,7.63180056,-24.7231377
5.17,517,0.12,-0.053,-0.9309999999999999,-15.2406828,2.2345362,-1.6042823999999998,3.36326346,7.65471888,-24.74032644
5.18,518,0.114,-0.016,-0.924,-15.2406828,0.9740286,-3.2085647999999996,3.20283522,7.66044846,-24.768974340000003
5.1899999999999995,519,0.111,0.013999999999999999,-0.922,-14.266654199999998,0.7448454000000001,-4.2398892,3.05386614,7.671907620000002,-24.809081399999997
5.2,520,0.107,0.035,-0.9159999999999999,-12.7196676,1.8907614,-4.5263682,2.85906042,7.677637200000001,-24.85491804
5.21,521,0.106,0.045,-0.922,-11.45916,3.9534102,-4.1252976000000015,2.73873924,7.717744259999999,-24.8950251
5.22,522,0.115,0.044000000000000004,-0.945,-10.2559482,5.72958,-3.380452200000001,2.62987722,7.7750400599999985,-24.923673
5.2299999999999995,523,0.135,0.039,-0.97,-8.651665800000002,7.6203414,-2.5783110000000002,2.53820394,7.8495246,-24.94086174
5.24,524,0.166,0.044000000000000004,-0.9890000000000001,-7.3911582,7.6776372,-1.8334656000000005,2.45798982,7.92400914,-24.952320900000004
5.25,525,0.18600000000000005,0.055999999999999994,-1.0,-6.2452422,7.161975,-0.8021411999999999,2.30329116,8.02714158,-24.97523922
5.26,526,0.198,0.062,-1.0070000000000001,-5.2712136,6.1879464,0.40107059999999994,2.25172494,8.09016696,-24.96378006
5.27,527,0.204,0.06,-1.008,-4.1825934,4.6982555999999995,1.2605076000000002,2.2058883,8.136003599999999,-24.946591320000003
5.28,528,0.20600000000000002,0.051,-1.0090000000000001,-3.2658606,3.3231564,2.1199446,2.1772404,8.17038108,-24.923673
5.29,529,0.201,0.033,-1.0090000000000001,-2.2345362,2.2345362,2.86479,2.16005166,8.18756982,-24.8950251
5.3,530,0.192,0.006999999999999999,-1.005,-1.432395,1.2605076000000002,3.4950437999999995,2.05691922,8.25632478,-24.87783636
5.31,531,0.177,-0.012,-0.9890000000000001,-0.572958,0.057295800000000015,3.6669312000000014,2.05691922,8.25632478,-24.843458880000004
5.32,532,0.163,-0.025,-0.9690000000000001,0.0,-0.2291832000000001,3.1512689999999997,2.05691922,8.25632478,-24.809081399999997
5.33,533,0.153,-0.033,-0.955,0.0,0.11459160000000004,2.5210152000000003,2.0626488000000003,8.25632478,-24.78616308
5.34,534,0.152,-0.039,-0.955,0.0,0.7448454000000001,1.6615782,2.0626488000000003,8.262054359999999,-24.768974340000003
5.35,535,0.156,-0.043,-0.96,0.1718874,1.3750992,1.0886202,2.0340009,8.319350159999999,-24.768974340000003
5.36,536,0.16399999999999998,-0.052000000000000005,-0.9670000000000001,0.286479,1.4896908000000002,0.6875496,2.03973048,8.33080932,-24.75751518
5.37,537,0.16699999999999998,-0.061,-0.973,-0.2291832000000001,0.6875496,0.5156622000000001,2.03973048,8.3365389,-24.7517856
5.38,538,0.16399999999999998,-0.067,-0.98,-1.0313244000000001,-0.286479,0.4583664000000001,2.02827132,8.3365389,-24.7517856
5.39,539,0.155,-0.071,-0.985,-2.0626488000000003,-1.3750992,0.286479,2.005353,8.319350159999999,-24.74605602
5.3999999999999995,540,0.147,-0.067,-0.99,-2.4637194,-1.8907614,0.057295800000000015,1.99962342,8.28497268,-24.74032644
5.41,541,0.14300000000000002,-0.057999999999999996,-0.996,-2.6356068,-1.8334656000000005,-0.286479,1.97097552,8.262054359999999,-24.74605602
5.42,542,0.145,-0.042,-0.998,-2.5783110000000002,-1.6615782,-0.6302538000000001,1.94232762,8.24486562,-24.7517856
5.43,543,0.149,-0.027999999999999997,-0.995,-2.1772404,-1.4896908000000002,-1.0313244000000001,1.9194093000000003,8.233406460000001,-24.76324476
5.4399999999999995,544,0.154,-0.023,-0.991,-1.7188740000000002,-1.7761698000000001,-1.2032118,1.90222056,8.21621772,-24.7804335
5.45,545,0.161,-0.024,-0.986,-1.5469866,-2.86479,-1.2032118,1.83919518,8.210488139999999,-24.80335182
5.46,546,0.163,-0.028999999999999998,-0.978,-1.3750992,-3.8388186,-1.0313244000000001,1.82200644,8.17038108,-24.81481098
5.47,547,0.159,-0.034,-0.972,-1.2605076000000002,-5.1566220000000005,-0.8021411999999999,1.8048177,8.11881486,-24.82627014
5.4799999999999995,548,0.152,-0.034,-0.968,-1.3178034,-5.2712136,-0.7448454000000001,1.7933585399999998,8.067248639999999,-24.8377293
5.49,549,0.147,-0.03,-0.965,-1.3750992,-4.9274388,-0.6875496,1.7761698000000001,8.015682420000001,-24.843458880000004
5.5,550,0.14400000000000002,-0.026000000000000002,-0.966,-1.432395,-4.2398892,-0.572958,1.7188740000000002,7.975575359999999,-24.86064762
5.51,551,0.139,-0.02,-0.968,-1.6615782,-3.6096353999999997,-0.6302538000000001,1.70168526,7.935468299999997,-24.8663772
5.52,552,0.13699999999999998,-0.016,-0.971,-1.8907614,-2.8074942000000003,-0.572958,1.6844965200000002,7.906820399999999,-24.87210678000001
5.53,553,0.13699999999999998,-0.012,-0.978,-2.1199446,-2.6356068,-0.5156622000000001,1.6615782,7.88390208,-24.88356594
5.54,554,0.139,-0.009000000000000001,-0.973,-2.1772404,-2.9220858,-0.5156622000000001,1.6386598799999998,7.85525418,-24.88929552
5.55,555,0.141,-0.008,-0.972,-2.0053530000000004,-2.4064236,-0.5156622000000001,1.53552744,7.82660628,-24.90075468
5.56,556,0.141,-0.011000000000000001,-0.972,-1.9480572,-2.0053530000000004,-0.4583664000000001,1.5183387000000002,7.80941754,-24.90648426000001
5.57,557,0.14,-0.013000000000000001,-0.9740000000000001,-1.9480572,-1.5469866,-0.40107059999999994,1.49542038,7.792228800000001,-24.91221384
5.58,558,0.13699999999999998,-0.013000000000000001,-0.973,-1.8334656000000005,-0.9740286,-0.4583664000000001,1.4782316400000002,7.780769640000001,-24.91794342
5.59,559,0.133,-0.013999999999999999,-0.9740000000000001,-1.7188740000000002,-0.3437748,-0.40107059999999994,1.4610428999999998,7.780769640000001,-24.923673
5.6,560,0.134,-0.016,-0.977,-1.6042823999999998,0.286479,-0.286479,1.32926256,7.746392160000001,-24.92940258
5.61,561,0.133,-0.02,-0.982,-1.7761698000000001,0.8594370000000001,-0.1718874,1.31207382,7.75785132,-24.93513216
5.62,562,0.135,-0.023,-0.987,-2.1199446,1.0886202,0.0,1.2891555,7.76931048,-24.92940258
5.63,563,0.136,-0.024,-0.991,-2.5210152000000003,1.0886202,0.11459160000000004,1.26623718,7.780769640000001,-24.92940258
5.64,564,0.136,-0.024,-0.9940000000000001,-2.6356068,0.9167328000000001,0.2291832000000001,1.23758928,7.78649922,-24.92940258
5.6499999999999995,565,0.136,-0.021,-0.991,-2.6929026,0.5156622000000001,0.11459160000000004,1.15164558,7.7750400599999985,-24.92940258
5.66,566,0.135,-0.018000000000000002,-0.986,-2.6356068,0.40107059999999994,0.0,1.12299768,7.780769640000001,-24.92940258
5.67,567,0.135,-0.015,-0.9840000000000001,-2.1199446,0.3437748,0.057295800000000015,1.10007936,7.78649922,-24.92940258
5.68,568,0.135,-0.013999999999999999,-0.9790000000000001,-1.6042823999999998,0.3437748,0.057295800000000015,1.0886202,7.78649922,-24.923673
5.6899999999999995,569,0.135,-0.017,-0.978,-1.3750992,0.6875496,0.11459160000000004,1.07143146,7.79795838,-24.923673
5.7,570,0.138,-0.021,-0.975,-1.3750992,0.9167328000000001,0.2291832000000001,1.0026765,7.792228800000001,-24.923673
5.71,571,0.138,-0.021,-0.9740000000000001,-1.3750992,0.9167328000000001,0.286479,0.98548776,7.79795838,-24.91794342
5.72,572,0.141,-0.021,-0.971,-1.3750992,0.8594370000000001,0.40107059999999994,0.9740286,7.80941754,-24.91221384
5.7299999999999995,573,0.14400000000000002,-0.02,-0.966,-1.7761698000000001,0.8594370000000001,0.3437748,0.95683986,7.815147120000002,-24.91221384
5.74,574,0.14300000000000002,-0.017,-0.965,-2.2345362,0.9167328000000001,0.2291832000000001,0.93392154,7.82660628,-24.90648426000001
5.75,575,0.149,-0.013000000000000001,-0.97,-2.5783110000000002,1.0313244000000001,0.057295800000000015,0.8479778399999999,7.85525418,-24.91794342
5.76,576,0.155,-0.012,-0.977,-2.6356068,1.145916,0.11459160000000004,0.8193299399999999,7.866713339999999,-24.91221384
5.77,577,0.158,-0.011000000000000001,-0.985,-2.6929026,0.9740286,0.11459160000000004,0.7906820400000001,7.8781725000000025,-24.91221384
5.78,578,0.159,-0.009000000000000001,-0.988,-2.7501984,0.9167328000000001,0.2291832000000001,0.76776372,7.88390208,-24.90648426000001
5.79,579,0.154,-0.01,-0.981,-2.8074942000000003,0.5156622000000001,0.40107059999999994,0.7391158200000001,7.889631660000001,-24.90075468
5.8,580,0.147,-0.013999999999999999,-0.977,-2.9793816000000004,0.5156622000000001,0.40107059999999994,0.66463128,7.89536124,-24.90075468
5.81,581,0.146,-0.013000000000000001,-0.9740000000000001,-2.9220858,0.7448454000000001,0.3437748,0.63598338,7.906820399999999,-24.90075468
5.82,582,0.14800000000000002,-0.012,-0.973,-2.8074942000000003,1.145916,0.1718874,0.6073354799999999,7.918279559999997,-24.8950251
5.83,583,0.152,-0.01,-0.9740000000000001,-2.8074942000000003,1.4896908000000002,0.057295800000000015,0.5786875800000001,7.929738719999999,-24.8950251
5.84,584,0.156,-0.008,-0.977,-2.9793816000000004,1.4896908000000002,0.057295800000000015,0.55003968,7.94692746,-24.8950251
5.85,585,0.162,-0.006,-0.975,-3.0366774,1.3750992,0.057295800000000015,0.47555514,7.9927641000000005,-24.90075468
5.86,586,0.165,-0.006999999999999999,-0.976,-2.9793816000000004,0.9167328000000001,0.11459160000000004,0.44690724,8.00422326,-24.90075468
5.87,587,0.162,-0.006999999999999999,-0.978,-2.86479,0.5156622000000001,0.1718874,0.41825934,8.00995284,-24.8950251
5.88,588,0.156,-0.006999999999999999,-0.982,-2.5783110000000002,0.11459160000000004,0.11459160000000004,0.38961144,8.00995284,-24.8950251
5.89,589,0.15,-0.009000000000000001,-0.983,-2.1772404,-0.057295800000000015,0.057295800000000015,0.36669312,8.00995284,-24.8950251
5.8999999999999995,590,0.146,-0.01,-0.983,-1.9480572,0.286479,0.0,0.29220857999999994,8.00422326,-24.90075468
5.91,591,0.145,-0.01,-0.987,-1.7761698000000001,0.572958,0.0,0.27501984,8.00995284,-24.8950251
5.92,592,0.145,-0.008,-0.9890000000000001,-1.6615782,0.4583664000000001,0.0,0.25783110000000004,8.015682420000001,-24.8950251
5.93,593,0.14800000000000002,-0.005,-0.988,-1.5469866,0.2291832000000001,0.1718874,0.24064236,8.015682420000001,-24.8950251
5.9399999999999995,594,0.149,-0.002,-0.982,-1.4896908000000002,0.057295800000000015,0.2291832000000001,0.22345362,8.015682420000001,-24.8950251
5.95,595,0.149,-0.003,-0.9790000000000001,-1.7188740000000002,0.11459160000000004,0.2291832000000001,0.14323950000000002,8.02714158,-24.90075468
5.96,596,0.147,-0.003,-0.977,-2.0053530000000004,0.11459160000000004,0.1718874,0.12032118,8.02714158,-24.8950251
5.97,597,0.147,-0.003,-0.976,-2.291832,0.057295800000000015,0.0,0.09740286,8.02714158,-24.8950251
5.9799999999999995,598,0.14800000000000002,-0.002,-0.977,-2.2345362,0.057295800000000015,0.0,0.07448454,8.02714158,-24.8950251
5.99,599,0.149,0.0,-0.977,-2.0053530000000004,0.2291832000000001,0.0,0.05156622,8.03287116,-24.8950251
6.0,600,0.151,-0.001,-0.977,-1.8907614,0.5156622000000001,0.1718874,-0.01718874,8.044330319999998,-24.90075468
6.01,601,0.15,-0.001,-0.9790000000000001,-1.7761698000000001,0.6302538000000001,0.3437748,-0.03437748,8.0500599,-24.8950251
6.02,602,0.147,-0.001,-0.98,-1.7761698000000001,0.40107059999999994,0.3437748,-0.05156622,8.05578948,-24.88929552
6.03,603,0.146,-0.001,-0.982,-1.8907614,0.2291832000000001,0.3437748,-0.06875496,8.05578948,-24.88929552
6.04,604,0.147,-0.002,-0.983,-1.8334656000000005,0.057295800000000015,0.286479,-0.09167328,8.05578948,-24.88356594
6.05,605,0.14800000000000002,-0.003,-0.98,-1.9480572,0.057295800000000015,0.2291832000000001,-0.16042824,8.06151906,-24.88929552
6.06,606,0.149,-0.004,-0.98,-1.9480572,0.057295800000000015,0.3437748,-0.18334656,8.06151906,-24.88356594
6.07,607,0.15,-0.002,-0.98,-1.8907614,0.11459160000000004,0.3437748,-0.20053530000000008,8.06151906,-24.87783636
6.08,608,0.151,0.0,-0.981,-1.8907614,0.11459160000000004,0.40107059999999994,-0.21772404,8.06151906,-24.87783636
6.09,609,0.152,0.0,-0.981,-1.7188740000000002,0.057295800000000015,0.4583664000000001,-0.23491278,8.06151906,-24.87210678000001
6.1,610,0.151,0.001,-0.983,-1.7188740000000002,0.11459160000000004,0.5156622000000001,-0.31512690000000004,8.07297822,-24.87210678000001
6.11,611,0.14800000000000002,0.0,-0.983,-1.432395,0.11459160000000004,0.5156622000000001,-0.33231564,8.07297822,-24.8663772
6.12,612,0.146,0.001,-0.983,-1.3750992,0.286479,0.40107059999999994,-0.3437748,8.07297822,-24.86064762
6.13,613,0.14400000000000002,0.0,-0.9840000000000001,-1.3178034,0.5156622000000001,0.3437748,-0.36096354,8.0787078,-24.86064762
6.14,614,0.146,0.001,-0.9840000000000001,-0.9740286,0.8021411999999999,0.3437748,-0.36669312,8.09016696,-24.85491804
6.15,615,0.149,0.0,-0.986,-0.8021411999999999,1.0313244000000001,0.3437748,-0.42398892,8.10162612,-24.85491804
6.16,616,0.151,-0.001,-0.985,-0.572958,1.3178034,0.4583664000000001,-0.4297185000000001,8.11308528,-24.84918846
6.17,617,0.153,0.0,-0.9840000000000001,-0.572958,1.2605076000000002,0.5156622000000001,-0.43544808,8.12454444,-24.84918846
6.18,618,0.153,-0.001,-0.982,-0.8594370000000001,1.0886202,0.40107059999999994,-0.44117766,8.136003599999999,-24.843458880000004
6.1899999999999995,619,0.153,0.001,-0.9790000000000001,-1.2605076000000002,0.9740286,0.286479,-0.4583664000000001,8.14746276,-24.8377293
6.2,620,0.154,0.004,-0.978,-1.2605076000000002,0.7448454000000001,0.2291832000000001,-0.52712136,8.17038108,-24.843458880000004
6.21,621,0.154,0.006999999999999999,-0.9790000000000001,-1.145916,0.9167328000000001,0.057295800000000015,-0.53858052,8.18184024,-24.843458880000004
6.22,622,0.155,0.006999999999999999,-0.9790000000000001,-0.9740286,1.0313244000000001,0.0,-0.5443101,8.193299399999999,-24.843458880000004
6.2299999999999995,623,0.155,0.008,-0.981,-0.7448454000000001,1.145916,0.0,-0.55576926,8.204758559999998,-24.843458880000004
6.24,624,0.156,0.006,-0.982,-0.4583664000000001,0.9740286,0.11459160000000004,-0.56149884,8.210488139999999,-24.8377293
6.25,625,0.155,0.002,-0.982,-0.286479,0.9167328000000001,0.1718874,-0.63598338,8.24486562,-24.84918846
6.26,626,0.154,0.0,-0.981,-0.40107059999999994,0.572958,0.1718874,-0.63598338,8.250595200000001,-24.84918846
6.27,627,0.153,-0.001,-0.981,-0.4583664000000001,0.286479,0.11459160000000004,-0.64171296,8.25632478,-24.84918846
6.28,628,0.152,0.0,-0.98,-0.5156622000000001,0.286479,0.057295800000000015,-0.64744254,8.25632478,-24.843458880000004
6.29,629,0.151,0.002,-0.978,-0.8021411999999999,0.4583664000000001,0.0,-0.65317212,8.262054359999999,-24.843458880000004
6.3,630,0.153,0.005,-0.976,-0.9167328000000001,0.5156622000000001,0.0,-0.72765666,8.27351352,-24.85491804
6.31,631,0.155,0.005,-0.977,-0.9167328000000001,0.7448454000000001,0.0,-0.7391158200000001,8.28497268,-24.85491804
6.32,632,0.157,0.006,-0.977,-0.8021411999999999,0.8594370000000001,0.0,-0.7448454000000001,8.29070226,-24.85491804
6.33,633,0.159,0.005,-0.9790000000000001,-0.8021411999999999,0.6302538000000001,0.0,-0.75630456,8.29643184,-24.85491804
6.34,634,0.159,0.004,-0.9790000000000001,-0.8021411999999999,0.3437748,0.0,-0.76203414,8.302161420000001,-24.85491804
6.35,635,0.158,0.001,-0.98,-0.7448454000000001,0.1718874,0.057295800000000015,-0.8422482600000001,8.34799806,-24.8663772
6.36,636,0.156,0.002,-0.978,-0.6875496,-0.286479,0.0,-0.8479778399999999,8.34226848,-24.8663772
6.37,637,0.154,0.002,-0.978,-0.8021411999999999,-0.572958,0.0,-0.8537074199999999,8.3365389,-24.8663772
6.38,638,0.154,0.005,-0.981,-0.6302538000000001,-0.572958,-0.11459160000000004,-0.8594370000000001,8.33080932,-24.8663772
6.39,639,0.153,0.006999999999999999,-0.982,-0.3437748,-0.40107059999999994,-0.1718874,-0.86516658,8.325079740000001,-24.87210678000001
6.4,640,0.152,0.008,-0.982,-0.286479,-0.057295800000000015,-0.286479,-0.9969469199999998,8.3365389,-24.88929552
6.41,641,0.153,0.006999999999999999,-0.98,-0.286479,0.057295800000000015,-0.1718874,-1.0026765,8.3365389,-24.88929552
6.42,642,0.154,0.005,-0.9790000000000001,-0.4583664000000001,0.1718874,-0.1718874,-1.00840608,8.3365389,-24.8950251
6.43,643,0.157,0.002,-0.978,-0.8021411999999999,0.057295800000000015,-0.11459160000000004,-1.01413566,8.3365389,-24.8950251
6.4399999999999995,644,0.159,0.003,-0.98,-0.9740286,-0.286479,-0.057295800000000015,-1.0255948199999998,8.3365389,-24.8950251
6.45,645,0.159,0.003,-0.983,-1.0886202,-0.572958,0.0,-1.06570188,8.34226848,-24.90075468
6.46,646,0.155,0.005,-0.9840000000000001,-0.9167328000000001,-0.8021411999999999,0.0,-1.07143146,8.33080932,-24.90075468
6.47,647,0.153,0.005,-0.982,-0.8594370000000001,-0.7448454000000001,-0.11459160000000004,-1.08289062,8.325079740000001,-24.90075468
6.4799999999999995,648,0.152,0.003,-0.981,-0.8021411999999999,-0.2291832000000001,-0.057295800000000015,-1.0886202,8.319350159999999,-24.90648426000001
6.49,649,0.152,0.0,-0.976,-0.8021411999999999,0.286479,-0.057295800000000015,-1.10007936,8.325079740000001,-24.90648426000001
6.5,650,0.155,-0.001,-0.9740000000000001,-1.2032118,0.3437748,0.0,-1.1172681,8.34799806,-24.90648426000001
6.51,651,0.157,0.0,-0.975,-1.5469866,0.057295800000000015,0.0,-1.13445684,8.34799806,-24.90648426000001
6.52,652,0.158,0.004,-0.975,-1.6615782,-0.3437748,0.0,-1.15164558,8.34226848,-24.90648426000001
6.53,653,0.155,0.01,-0.975,-1.6615782,-0.6875496,-0.057295800000000015,-1.1688343199999998,8.3365389,-24.91221384
6.54,654,0.151,0.012,-0.9790000000000001,-1.3178034,-0.6302538000000001,-0.2291832000000001,-1.18029348,8.33080932,-24.91221384
6.55,655,0.146,0.013000000000000001,-0.983,-0.9740286,-0.286479,-0.2291832000000001,-1.2605076000000002,8.29070226,-24.91794342
6.56,656,0.146,0.01,-0.985,-0.5156622000000001,0.1718874,-0.2291832000000001,-1.27196676,8.29070226,-24.91794342
6.57,657,0.146,0.009000000000000001,-0.986,-0.2291832000000001,0.572958,-0.11459160000000004,-1.27196676,8.29643184,-24.923673
6.58,658,0.14800000000000002,0.006999999999999999,-0.986,-0.11459160000000004,0.4583664000000001,0.0,-1.27196676,8.302161420000001,-24.923673
6.59,659,0.149,0.01,-0.985,-0.286479,0.2291832000000001,0.11459160000000004,-1.27769634,8.302161420000001,-24.91794342
6.6,660,0.149,0.013000000000000001,-0.9840000000000001,-0.3437748,-0.057295800000000015,0.057295800000000015,-1.39801752,8.262054359999999,-24.92940258
6.61,661,0.15,0.015,-0.983,-0.3437748,0.0,0.0,-1.39801752,8.262054359999999,-24.92940258
6.62,662,0.15,0.017,-0.981,-0.2291832000000001,0.2291832000000001,0.0,-1.4037471000000001,8.262054359999999,-24.92940258
6.63,663,0.149,0.013999999999999999,-0.981,0.0,0.40107059999999994,0.0,-1.4037471000000001,8.26778394,-24.92940258
6.64,664,0.152,0.011000000000000001,-0.982,0.11459160000000004,0.6875496,0.0,-1.4037471000000001,8.27351352,-24.92940258
6.65,665,0.153,0.006999999999999999,-0.983,0.057295800000000015,0.7448454000000001,0.057295800000000015,-1.42666542,8.29643184,-24.92940258
6.66,666,0.156,0.006999999999999999,-0.982,0.0,0.5156622000000001,0.11459160000000004,-1.42666542,8.302161420000001,-24.92940258
6.67,667,0.157,0.006999999999999999,-0.9840000000000001,-0.057295800000000015,0.11459160000000004,0.11459160000000004,-1.42666542,8.302161420000001,-24.92940258
6.68,668,0.158,0.009000000000000001,-0.983,-0.057295800000000015,-0.286479,0.2291832000000001,-1.42666542,8.29643184,-24.923673
6.6899999999999995,669,0.158,0.011000000000000001,-0.983,0.0,-0.3437748,0.286479,-1.42666542,8.29643184,-24.923673
6.7,670,0.157,0.012,-0.986,0.11459160000000004,-0.3437748,0.286479,-1.47250206,8.31362058,-24.92940258
6.71,671,0.157,0.012,-0.987,0.4583664000000001,-0.286479,0.286479,-1.46677248,8.307891,-24.923673
6.72,672,0.157,0.009000000000000001,-0.9840000000000001,0.572958,-0.1718874,0.2291832000000001,-1.4610428999999998,8.307891,-24.923673
6.7299999999999995,673,0.157,0.004,-0.982,0.572958,-0.11459160000000004,0.2291832000000001,-1.45531332,8.307891,-24.91794342
6.74,674,0.156,0.003,-0.9790000000000001,0.3437748,-0.286479,0.2291832000000001,-1.44958374,8.302161420000001,-24.91794342
6.75,675,0.156,0.005,-0.98,0.11459160000000004,-0.4583664000000001,0.1718874,-1.46677248,8.319350159999999,-24.91794342
6.76,676,0.154,0.008,-0.9790000000000001,0.2291832000000001,-0.6302538000000001,0.2291832000000001,-1.46677248,8.31362058,-24.91794342
6.77,677,0.152,0.01,-0.98,0.286479,-0.572958,0.1718874,-1.4610428999999998,8.307891,-24.91794342
6.78,678,0.152,0.011000000000000001,-0.981,0.4583664000000001,-0.286479,0.1718874,-1.45531332,8.307891,-24.91221384
6.79,679,0.151,0.011000000000000001,-0.981,0.6875496,0.0,0.2291832000000001,-1.44958374,8.307891,-24.91221384
6.8,680,0.151,0.01,-0.982,0.8021411999999999,0.0,0.1718874,-1.47250206,8.29643184,-24.91221384
6.81,681,0.151,0.006,-0.981,0.8594370000000001,0.0,0.1718874,-1.4610428999999998,8.29643184,-24.91221384
6.82,682,0.153,0.004,-0.9790000000000001,0.6875496,-0.1718874,0.11459160000000004,-1.45531332,8.29643184,-24.91221384
6.83,683,0.154,0.004,-0.98,0.7448454000000001,-0.40107059999999994,0.0,-1.44385416,8.29070226,-24.90648426000001
6.84,684,0.153,0.006999999999999999,-0.9790000000000001,0.6875496,-0.3437748,0.0,-1.43812458,8.28497268,-24.90648426000001
6.85,685,0.151,0.01,-0.9790000000000001,0.7448454000000001,-0.286479,0.057295800000000015,-1.46677248,8.2792431,-24.91221384
6.86,686,0.149,0.012,-0.9790000000000001,0.8594370000000001,-0.057295800000000015,0.057295800000000015,-1.45531332,8.2792431,-24.91221384
6.87,687,0.149,0.01,-0.98,0.9740286,0.11459160000000004,0.2291832000000001,-1.44385416,8.2792431,-24.90648426000001
6.88,688,0.15,0.008,-0.982,1.0313244000000001,0.057295800000000015,0.2291832000000001,-1.432395,8.2792431,-24.90648426000001
6.89,689,0.15,0.006999999999999999,-0.981,1.0313244000000001,0.057295800000000015,0.286479,-1.4209358399999998,8.2792431,-24.90075468
6.9,690,0.15,0.006999999999999999,-0.983,0.9740286,0.0,0.286479,-1.42666542,8.2792431,-24.90075468
6.91,691,0.151,0.006,-0.9840000000000001,1.0313244000000001,-0.286479,0.2291832000000001,-1.41520626,8.27351352,-24.90075468
6.92,692,0.149,0.006999999999999999,-0.9840000000000001,1.0886202,-0.3437748,0.1718874,-1.4037471000000001,8.27351352,-24.8950251
6.93,693,0.14800000000000002,0.006999999999999999,-0.982,1.0886202,-0.057295800000000015,0.057295800000000015,-1.39228794,8.26778394,-24.8950251
6.9399999999999995,694,0.149,0.006,-0.98,1.0886202,0.057295800000000015,0.11459160000000004,-1.38082878,8.27351352,-24.8950251
6.95,695,0.153,0.006,-0.982,1.0313244000000001,0.286479,0.2291832000000001,-1.3750992,8.28497268,-24.8950251
6.96,696,0.155,0.005,-0.982,1.0886202,0.4583664000000001,0.286479,-1.36364004,8.28497268,-24.88929552
6.97,697,0.156,0.003,-0.983,1.145916,0.286479,0.40107059999999994,-1.35218088,8.29070226,-24.88929552
6.9799999999999995,698,0.155,0.003,-0.981,0.9740286,0.057295800000000015,0.40107059999999994,-1.34072172,8.29070226,-24.88356594
6.99,699,0.155,0.004,-0.9790000000000001,0.8594370000000001,-0.11459160000000004,0.286479,-1.32926256,8.29070226,-24.87783636
7.0,700,0.154,0.006,-0.9790000000000001,0.7448454000000001,-0.057295800000000015,0.11459160000000004,-1.35218088,8.302161420000001,-24.88356594
7.01,701,0.155,0.01,-0.9790000000000001,0.7448454000000001,0.057295800000000015,0.1718874,-1.34072172,8.302161420000001,-24.87783636
7.02,702,0.156,0.01,-0.98,0.1718874,0.2291832000000001,0.0,-1.34072172,8.302161420000001,-24.87783636
7.03,703,0.158,0.006999999999999999,-0.981,0.3437748,0.2291832000000001,0.0,-1.3349921400000002,8.307891,-24.87783636
7.04,704,0.157,0.003,-0.983,0.572958,0.0,0.057295800000000015,-1.32926256,8.307891,-24.87783636
7.05,705,0.154,0.001,-0.9840000000000001,0.6875496,-0.1718874,0.11459160000000004,-1.3178034,8.307891,-24.87783636
7.06,706,0.152,-0.001,-0.981,0.572958,-0.3437748,0.057295800000000015,-1.31207382,8.302161420000001,-24.87783636
7.07,707,0.15,0.0,-0.9790000000000001,0.4583664000000001,-0.40107059999999994,0.057295800000000015,-1.30634424,8.29643184,-24.87783636
7.08,708,0.153,0.001,-0.977,0.40107059999999994,-0.057295800000000015,0.0,-1.30061466,8.29643184,-24.87783636
7.09,709,0.157,0.005,-0.9790000000000001,0.286479,-0.057295800000000015,0.0,-1.30061466,8.29643184,-24.87783636
7.1,710,0.159,0.006999999999999999,-0.98,0.2291832000000001,-0.11459160000000004,0.057295800000000015,-1.3464512999999998,8.34799806,-24.88929552
7.11,711,0.157,0.006999999999999999,-0.978,0.1718874,-0.11459160000000004,0.1718874,-1.34072172,8.34226848,-24.88356594
7.12,712,0.152,0.005,-0.975,0.0,-0.1718874,0.057295800000000015,-1.34072172,8.34226848,-24.88356594
7.13,713,0.149,0.002,-0.977,-0.1718874,0.0,0.0,-1.3464512999999998,8.34226848,-24.88356594
7.14,714,0.14800000000000002,-0.001,-0.975,0.0,0.057295800000000015,-0.057295800000000015,-1.3464512999999998,8.34226848,-24.88356594
7.15,715,0.151,-0.003,-0.976,0.057295800000000015,0.11459160000000004,-0.057295800000000015,-1.2891555,8.34226848,-24.87783636
7.16,716,0.154,-0.004,-0.978,0.0,0.0,0.0,-1.2891555,8.34226848,-24.87783636
7.17,717,0.157,-0.003,-0.981,-0.11459160000000004,-0.3437748,0.11459160000000004,-1.2891555,8.3365389,-24.87783636
7.18,718,0.159,0.0,-0.98,-0.286479,-0.8021411999999999,0.1718874,-1.2891555,8.33080932,-24.87783636
7.1899999999999995,719,0.156,0.002,-0.98,-0.40107059999999994,-1.0886202,0.11459160000000004,-1.29488508,8.319350159999999,-24.87210678000001
7.2,720,0.152,0.002,-0.9840000000000001,-0.40107059999999994,-0.8594370000000001,0.1718874,-1.30061466,8.307891,-24.87210678000001
7.21,721,0.14800000000000002,0.002,-0.9840000000000001,-0.40107059999999994,-0.6302538000000001,0.11459160000000004,-1.30634424,8.29643184,-24.87210678000001
7.22,722,0.14400000000000002,0.002,-0.983,-0.11459160000000004,-0.286479,0.0,-1.30634424,8.29643184,-24.87210678000001
7.2299999999999995,723,0.146,0.005,-0.983,0.057295800000000015,0.11459160000000004,0.0,-1.30634424,8.29643184,-24.87210678000001
7.24,724,0.14800000000000002,0.008,-0.981,0.11459160000000004,0.2291832000000001,-0.11459160000000004,-1.30634424,8.29643184,-24.87210678000001
7.25,725,0.151,0.009000000000000001,-0.9790000000000001,0.057295800000000015,0.1718874,0.0,-1.3579104599999998,8.29070226,-24.87783636
7.26,726,0.153,0.006999999999999999,-0.977,-0.057295800000000015,0.11459160000000004,0.0,-1.3579104599999998,8.29643184,-24.87783636
7.27,727,0.153,0.006,-0.977,-0.11459160000000004,0.057295800000000015,0.11459160000000004,-1.3579104599999998,8.29643184,-24.87783636
7.28,728,0.151,0.002,-0.977,-0.286479,0.0,0.1718874,-1.36364004,8.29643184,-24.87210678000001
7.29,729,0.149,0.0,-0.977,-0.2291832000000001,0.0,0.11459160000000004,-1.36364004,8.29643184,-24.87210678000001
7.3,730,0.14800000000000002,0.0,-0.977,-0.1718874,0.057295800000000015,0.1718874,-1.3464512999999998,8.26778394,-24.8663772
7.31,731,0.149,0.0,-0.9790000000000001,-0.286479,0.1718874,0.0,-1.35218088,8.26778394,-24.8663772
7.32,732,0.152,0.0,-0.982,-0.3437748,0.286479,0.0,-1.3579104599999998,8.27351352,-24.8663772
7.33,733,0.154,0.001,-0.98,-0.3437748,0.1718874,0.0,-1.3579104599999998,8.27351352,-24.8663772
7.34,734,0.154,-0.001,-0.978,-0.6302538000000001,-0.057295800000000015,0.0,-1.36364004,8.27351352,-24.8663772
7.35,735,0.153,-0.001,-0.978,-0.8594370000000001,0.0,0.0,-1.36364004,8.27351352,-24.8663772
7.36,736,0.151,-0.002,-0.981,-0.8594370000000001,-0.11459160000000004,0.057295800000000015,-1.3750992,8.27351352,-24.86064762
7.37,737,0.15,-0.002,-0.981,-0.7448454000000001,-0.11459160000000004,0.0,-1.38082878,8.26778394,-24.86064762
7.38,738,0.149,-0.003,-0.978,-0.572958,0.0,-0.057295800000000015,-1.38655836,8.26778394,-24.8663772
7.39,739,0.151,-0.004,-0.977,-0.572958,0.11459160000000004,-0.11459160000000004,-1.39228794,8.26778394,-24.8663772
7.4,740,0.152,-0.002,-0.978,-0.7448454000000001,0.286479,-0.2291832000000001,-1.39228794,8.2792431,-24.8663772
7.41,741,0.154,0.0,-0.978,-0.8021411999999999,0.057295800000000015,-0.11459160000000004,-1.39801752,8.2792431,-24.8663772
7.42,742,0.153,0.0,-0.9790000000000001,-0.8594370000000001,0.0,-0.11459160000000004,-1.40947668,8.2792431,-24.87210678000001
7.43,743,0.153,0.0,-0.981,-0.4583664000000001,-0.11459160000000004,-0.057295800000000015,-1.41520626,8.2792431,-24.87210678000001
7.4399999999999995,744,0.151,-0.001,-0.982,-0.3437748,-0.1718874,0.0,-1.4209358399999998,8.27351352,-24.87210678000001
7.45,745,0.15,-0.001,-0.982,-0.2291832000000001,0.0,0.0,-1.39801752,8.26778394,-24.8663772
7.46,746,0.151,0.0,-0.98,-0.1718874,0.286479,0.0,-1.4037471000000001,8.26778394,-24.8663772
7.47,747,0.153,0.001,-0.978,-0.1718874,0.4583664000000001,0.0,-1.4037471000000001,8.27351352,-24.8663772
7.4799999999999995,748,0.155,0.003,-0.976,-0.40107059999999994,0.3437748,0.0,-1.40947668,8.2792431,-24.8663772
7.49,749,0.154,0.004,-0.975,-0.6875496,0.286479,0.0,-1.41520626,8.2792431,-24.8663772
7.5,750,0.153,0.005,-0.9740000000000001,-0.8594370000000001,0.1718874,0.11459160000000004,-1.42666542,8.28497268,-24.8663772
7.51,751,0.153,0.005,-0.9740000000000001,-1.0313244000000001,0.286479,0.2291832000000001,-1.43812458,8.29070226,-24.8663772
7.52,752,0.152,0.003,-0.973,-0.8594370000000001,0.286479,0.11459160000000004,-1.44958374,8.29070226,-24.86064762
7.53,753,0.153,0.001,-0.971,-0.7448454000000001,0.2291832000000001,0.11459160000000004,-1.45531332,8.29643184,-24.86064762
7.54,754,0.151,0.0,-0.97,-0.7448454000000001,0.2291832000000001,0.11459160000000004,-1.4610428999999998,8.29643184,-24.86064762
7.55,755,0.15,0.0,-0.968,-1.0886202,0.057295800000000015,0.2291832000000001,-1.4610428999999998,8.29643184,-24.85491804
7.56,756,0.14800000000000002,-0.001,-0.968,-1.2032118,-0.11459160000000004,0.2291832000000001,-1.47250206,8.29070226,-24.85491804
7.57,757,0.147,-0.001,-0.97,-1.3178034,0.0,0.057295800000000015,-1.4896908000000002,8.29643184,-24.84918846
7.58,758,0.147,0.0,-0.972,-1.145916,0.286479,0.0,-1.50114996,8.29643184,-24.84918846
7.59,759,0.146,0.001,-0.975,-0.9740286,0.6875496,-0.11459160000000004,-1.51260912,8.302161420000001,-24.85491804
7.6,760,0.14800000000000002,0.002,-0.978,-0.8021411999999999,0.8594370000000001,-0.2291832000000001,-1.51260912,8.307891,-24.85491804
7.61,761,0.15,0.0,-0.98,-0.7448454000000001,0.8021411999999999,-0.1718874,-1.52406828,8.31362058,-24.85491804
7.62,762,0.152,-0.002,-0.983,-0.8594370000000001,0.6875496,-0.2291832000000001,-1.52979786,8.319350159999999,-24.86064762
7.63,763,0.153,-0.004,-0.982,-0.8021411999999999,0.2291832000000001,-0.2291832000000001,-1.5412570200000002,8.325079740000001,-24.86064762
7.64,764,0.151,-0.002,-0.982,-0.8594370000000001,-0.11459160000000004,-0.3437748,-1.5527161800000002,8.325079740000001,-24.8663772
