TimeStamp(s),FrameCounter,AccX,AccY,AccZ,GyrX,GyrY,GyrZ,EulerX,EulerY,EulerZ
0.01,1,0.031,-1.025,0.031,5.3285094000000015,-12.3758928,1.0313244,88.61368428,0.07448454,124.52669172
0.02,2,0.026,-1.017,0.03,4.7555514,-13.120738199999998,0.9167328,88.6652505,0.06302537999999999,124.40064096
0.03,3,0.02,-1.009,0.033,4.4117766,-13.750992000000002,0.9740286,88.71108714,0.057295800000000015,124.26313104
0.04,4,0.011,-1.004,0.041,4.1252976000000015,-13.6364004,1.0313244,88.75692378,0.04583664,124.12562112
0.05,5,0.003,-1.005,0.045,3.8388186,-12.605076,0.8594370000000001,88.8371379,0.04583664,124.00529994
0.060000000000000005,6,0.001,-1.007,0.041,3.4377480000000005,-11.516455800000001,0.6875496,88.87151537999998,0.04010706,123.89070834000002
0.06999999999999999,7,0.002,-1.009,0.036000000000000004,3.4377480000000005,-10.8289062,0.4010706,88.90589286,0.03437748,123.78757590000001
0.08,8,0.003,-1.012,0.033,3.8388186,-10.3705398,0.11459160000000004,88.9517295,0.03437748,123.68444345999998
0.09,9,0.004,-1.017,0.032,4.010706000000001,-9.797581800000001,0.0,88.99183656,0.04010706,123.5870406
0.09999999999999999,10,0.006,-1.015,0.031,3.9534102,-8.8235532,-0.11459160000000004,89.06059152,0.05156622,123.5010969
0.11,11,0.005,-1.014,0.029,3.9534102,-8.193299399999999,-0.2291832000000001,89.10069858,0.057295800000000015,123.42088278
0.12,12,0.0,-1.014,0.026,3.724227,-7.906820400000001,-0.2291832000000001,89.14080564,0.057295800000000015,123.34066866
0.13,13,-0.002,-1.012,0.028,3.3231564,-7.2192707999999985,-0.11459160000000004,89.17518312,0.06302537999999999,123.2719137
0.14,14,-0.003,-1.01,0.03,2.7501984,-6.1879464,-0.057295800000000015,89.20383102000002,0.06302537999999999,123.20888832
0.15000000000000002,15,-0.002,-1.008,0.027000000000000003,2.3491278,-5.1566220000000005,0.0,89.2668564,0.06875496,123.16305168
0.16,16,0.0,-1.01,0.027000000000000003,2.0626488000000003,-4.297185,0.057295800000000015,89.28977472,0.06875496,123.11721504
0.17,17,0.002,-1.012,0.028,1.8334656000000005,-3.4377480000000005,0.1718874,89.30696345999998,0.06875496,123.08856714
0.18000000000000002,18,0.006,-1.01,0.029,1.2605076000000002,-2.4064236,0.4010706,89.31842262,0.06302537999999999,123.05991924
0.19,19,0.01,-1.008,0.037000000000000005,0.4583664000000001,-1.8334656000000005,0.8594370000000001,89.3241522,0.057295800000000015,123.04273050000002
0.2,20,0.015,-1.003,0.039,0.11459160000000004,-1.7761698,1.145916,89.45020296,0.13750992,123.03127134
0.21000000000000002,21,0.018000000000000002,-1.0,0.038,-0.11459160000000004,-2.0053530000000004,1.3178034,89.45020296,0.12032118,123.01408259999998
0.22,22,0.022,-1.004,0.038,-0.4010706,-2.2345362,1.3178034,89.44447338,0.10886202,122.99116428
0.23,23,0.023,-1.01,0.037000000000000005,-0.8021411999999999,-2.578311,1.2605076000000002,89.4387438,0.09740286,122.96824596
0.24000000000000002,24,0.02,-1.018,0.031,-1.0313244,-2.8074942000000003,1.145916,89.42728464000002,0.0859437,122.93959806
0.25,25,0.017,-1.022,0.027000000000000003,-1.0313244,-3.151269,1.0886202,89.45593253999998,0.12032118,122.90522058000002
0.26,26,0.012,-1.018,0.031,-0.9167328,-3.151269,0.7448454000000001,89.45020296,0.11459160000000004,122.87657268
0.27,27,0.008,-1.004,0.038,-0.9167328,-2.6929026,0.4583664000000001,89.4387438,0.10886202,122.84792478
0.28,28,0.005,-0.992,0.049,-0.8021411999999999,-1.9480572,0.057295800000000015,89.43301421999998,0.10886202,122.83073604
0.29000000000000004,29,0.006,-0.985,0.052000000000000005,-0.6302538000000001,-1.0886202,0.057295800000000015,89.42155505999996,0.10886202,122.81927688
0.3,30,0.01,-0.985,0.048,0.0,-0.7448454000000001,0.2291832000000001,89.65646783999998,0.19480572,122.83073604
0.31,31,0.013,-0.994,0.044,0.6302538000000001,-0.7448454000000001,0.6302538000000001,89.66219742,0.18907614,122.81927688
0.32,32,0.017,-1.01,0.037000000000000005,1.145916,-1.0313244,1.145916,89.67365658,0.17761697999999998,122.81354729999998
0.33,33,0.022,-1.024,0.03,1.4896908000000002,-2.0626488000000003,1.6042823999999998,89.69084532,0.16042824,122.79062898
0.34,34,0.026,-1.031,0.025,1.2605076000000002,-3.6096354,1.9480572,89.70230448,0.14323950000000002,122.7562515
0.35000000000000003,35,0.022,-1.024,0.027000000000000003,1.0313244,-5.6722842,1.5469866,89.73668196000001,0.15469866,122.69895569999998
0.36000000000000004,36,0.009000000000000001,-1.011,0.037000000000000005,0.5156622000000001,-6.703608600000001,0.4010706,89.74241154,0.15469866,122.63020074
0.37,37,-0.005,-0.996,0.037000000000000005,-0.1718874,-6.130650599999999,-1.2032118,89.73668196000001,0.16615782,122.57290494000002
0.38,38,-0.015,-0.995,0.032,0.057295800000000015,-5.6149884000000005,-2.578311,89.74241154,0.19480572,122.51560914
0.39,39,-0.018000000000000002,-1.006,0.035,0.8594370000000001,-5.5576926,-3.2658606,89.74814112,0.2291832000000001,122.45831334
0.4,40,-0.011,-1.015,0.044,1.6042823999999998,-5.2139178,-3.0366774,89.79970734,0.25210152,122.4124767
0.41000000000000003,41,0.0,-1.014,0.048,2.291832,-4.9847345999999995,-2.1772404,89.82262566,0.27501984,122.36091048
0.42000000000000004,42,0.008,-1.006,0.055,3.0939732,-4.6409598,-0.9167328,89.85700313999996,0.28647900000000004,122.31507384
0.43,43,0.01,-0.999,0.062,3.6096354,-4.3544808,0.057295800000000015,89.89138061999998,0.28647900000000004,122.27496678
0.44,44,0.003,-1.0,0.064,3.2658606,-4.0680017999999984,0.6875496,89.9257581,0.28074942,122.23485972
0.45,45,-0.006,-1.01,0.062,2.4637194,-3.5523396000000003,0.7448454000000001,90.02889053999998,0.25783110000000004,122.2119414
0.46,46,-0.018000000000000002,-1.022,0.054000000000000006,1.432395,-2.6356068,0.5156622000000001,90.04034970000002,0.25210152,122.1832935
0.47000000000000003,47,-0.027000000000000003,-1.035,0.042,0.2291832000000001,-1.3750992,0.286479,90.04607927999999,0.25210152,122.17183434
0.48000000000000004,48,-0.034,-1.042,0.025,-0.9167328,0.057295800000000015,0.11459160000000004,90.03462012,0.24637194,122.17183434
0.49,49,-0.036000000000000004,-1.045,0.01,-2.2345362,1.432395,0.2291832000000001,90.0117018,0.24637194,122.1832935
0.5,50,-0.036000000000000004,-1.037,0.001,-3.4950437999999995,2.9220857999999996,0.8594370000000001,89.94294684,0.19480572,122.2119414
0.51,51,-0.033,-1.021,0.0,-3.9534102,4.4690724,1.6042823999999998,89.90283978,0.1718874,122.25777804000002
0.52,52,-0.026,-1.003,-0.001,-4.6982556,6.3598338,2.6929026,89.85700313999996,0.14323950000000002,122.32080342
0.53,53,-0.017,-0.98,0.003,-5.3858052,7.3911582,3.4377480000000005,89.79970734,0.10886202,122.39528796
0.54,54,-0.006,-0.957,0.009000000000000001,-5.6149884000000005,7.9641161999999985,3.8961144,89.74241154,0.06875496,122.4697725
0.55,55,0.005,-0.937,0.014,-5.2139178,8.4224826,4.0680017999999984,89.68511574,0.03437748,122.5557162
0.56,56,0.015,-0.932,0.025,-4.297185,8.021412000000002,4.0680017999999984,89.6392791,-0.00572958,122.63593032
0.5700000000000001,57,0.022,-0.936,0.042,-3.4950437999999995,7.5630456000000015,4.010706000000001,89.60490161999998,-0.04583664,122.71041486
0.5800000000000001,58,0.023,-0.953,0.057,-2.578311,7.2765666,3.8388186,89.57625372,-0.0859437,122.77916982
0.59,59,0.021,-0.978,0.069,-1.9480572,7.161975,3.8961144,89.55906498,-0.12605075999999998,122.85365436
0.6,60,0.016,-0.999,0.078,-0.9167328,6.5317212,4.010706000000001,89.61636078000002,-0.14323950000000002,122.92240932
0.61,61,0.012,-1.014,0.087,-0.1718874,5.5576926,3.9534102,89.61636078000002,-0.18334656,122.97397554
0.62,62,0.009000000000000001,-1.021,0.095,0.5156622000000001,4.4690724,3.8388186,89.62209035999999,-0.22345362,123.01981218
0.63,63,0.006999999999999999,-1.024,0.105,0.9167328,3.3231564,3.6669312000000014,89.62781994000002,-0.25783110000000004,123.05418966
0.64,64,0.005,-1.018,0.116,1.2605076000000002,2.3491278,3.4950437999999995,89.6392791,-0.29220857999999994,123.07710798
0.65,65,0.004,-1.01,0.124,1.7761698,1.0313244,3.0939732,89.90283978,-0.29220857999999994,123.11148546
0.66,66,0.0,-1.001,0.126,2.291832,-0.572958,2.4637194,89.9257581,-0.32085648,123.10575588
0.67,67,-0.006999999999999999,-0.993,0.129,2.4637194,-1.6042823999999998,1.432395,89.95440599999998,-0.33231564,123.08856714
0.68,68,-0.015,-0.995,0.128,2.0626488000000003,-2.0626488000000003,0.1718874,89.97732432000002,-0.33231564,123.06564882
0.6900000000000001,69,-0.02,-0.997,0.123,1.7188740000000002,-2.2345362,-0.7448454000000001,89.99451306,-0.32658606,123.04273050000002
0.7000000000000001,70,-0.016,-1.002,0.117,1.8334656000000005,-2.3491278,-1.0886202,90.2122371,-0.32085648,123.04273050000002
0.7100000000000001,71,-0.006999999999999999,-1.005,0.113,1.6042823999999998,-2.1772404,-0.9740286,90.22942584,-0.30939732,123.01981218
0.72,72,0.002,-1.008,0.105,1.2605076000000002,-1.9480572,-0.6302538000000001,90.240885,-0.30366774,123.00262344
0.73,73,0.014,-1.012,0.097,0.4583664000000001,-2.0626488000000003,-0.1718874,90.24661458,-0.29793816,122.97970512
0.74,74,0.019,-1.011,0.093,-0.6875496,-3.0366774,-0.057295800000000015,90.240885,-0.29793816,122.95105722
0.75,75,0.019,-1.006,0.083,-1.9480572,-4.8128472,-0.572958,90.2981808,-0.25210152,122.90522058000002
0.76,76,0.017,-0.994,0.075,-4.297185,-7.2192707999999985,-2.0053530000000004,90.25807374,-0.2291832000000001,122.83073604
0.77,77,0.02,-0.984,0.07,-5.7868758000000025,-8.250595200000001,-3.380452200000001,90.20077794,-0.19480572,122.75052192
0.78,78,0.022,-0.979,0.07,-6.8182002000000015,-9.2819196,-4.583664,90.13202298,-0.14323950000000002,122.65884864
0.79,79,0.019,-0.982,0.07200000000000001,-7.9641161999999985,-9.969469199999999,-5.1566220000000005,90.05180886000002,-0.09167328,122.5557162
0.8,80,0.019,-0.993,0.068,-8.651665800000002,-10.1413566,-4.7555514,89.98305390000002,-0.028647900000000007,122.45831334
0.81,81,0.02,-1.013,0.061,-8.5370742,-10.1413566,-3.5523396000000003,89.90283978,0.00572958,122.35518090000001
0.8200000000000001,82,0.024,-1.035,0.052000000000000005,-8.078707799999998,-10.313244,-1.8907613999999997,89.82262566,0.02291832,122.25204846
0.8300000000000001,83,0.026,-1.047,0.057,-7.6776372,-10.9434978,-0.057295800000000015,89.74241154,0.028647900000000007,122.14318644
0.8400000000000001,84,0.031,-1.046,0.075,-7.8495246,-11.9748222,1.2032118,89.66219742,0.01718874,122.02286526
0.85,85,0.03,-1.04,0.094,-8.7662574,-13.2353298,1.5469866,89.61636078000002,0.01718874,121.89681449999998
0.86,86,0.024,-1.035,0.099,-9.8548776,-15.126091199999998,1.5469866,89.51322834,0.00572958,121.74211584
0.87,87,0.012,-1.035,0.107,-10.599723,-17.246035799999998,1.4896908000000002,89.4100959,0.0,121.57022844
0.88,88,0.002,-1.04,0.113,-11.688343199999998,-19.1367972,1.0313244,89.29550429999998,-0.01145916,121.38115229999998
0.89,89,-0.015,-1.038,0.118,-13.6364004,-20.454600600000006,0.4010706,89.15799438,-0.01145916,121.17488742
0.9,90,-0.035,-1.033,0.132,-15.3552744,-20.511896399999998,-0.4583664000000001,89.04340278,-0.01718874,120.9800817
0.91,91,-0.055,-1.026,0.151,-16.615782,-19.1367972,-1.2032118,88.87724496000001,-0.00572958,120.78527598
0.92,92,-0.066,-1.024,0.16399999999999998,-18.3919518,-14.610429000000002,-1.4896908000000002,88.69389840000002,0.00572958,120.64203648
0.93,93,-0.063,-1.022,0.16899999999999998,-19.8816426,-10.8289062,-1.145916,88.4933631,0.01145916,120.52744488
0.9400000000000001,94,-0.052000000000000005,-1.023,0.17,-21.027558600000006,-7.2192707999999985,-0.6875496,88.28136864,0.01718874,120.45868992
0.9500000000000001,95,-0.038,-1.026,0.163,-21.7151082,-4.010706000000001,-0.057295800000000015,88.13239956,0.00572958,120.42431244
0.9600000000000001,96,-0.028,-1.034,0.153,-21.6578124,-2.291832,0.8594370000000001,87.91467551999996,0.0,120.39566454
0.97,97,-0.016,-1.047,0.14400000000000002,-21.2567418,-1.7761698,2.4064236,87.69695148,-0.02291832,120.3784758
0.98,98,-0.01,-1.064,0.134,-20.2254174,-1.9480572,4.1252976000000015,87.49068659999998,-0.06875496,120.36128706000002
0.99,99,-0.006,-1.065,0.126,-19.6524594,-2.578311,5.9014674000000005,87.29588088,-0.12605075999999998,120.33263916
1.0,100,-0.002,-1.04,0.131,-19.595163600000006,-2.8074942000000003,7.6776372,87.15264138,-0.20626488,120.30972084
1.01,101,0.0,-1.008,0.131,-20.05353,-2.4064236,8.479778399999999,86.95210608,-0.29220857999999994,120.29253210000002
1.02,102,-0.004,-0.981,0.126,-20.6837838,-2.1199446,8.7662574,86.74011162,-0.38388186,120.26961378
1.03,103,-0.006,-0.965,0.126,-21.7151082,-1.3750992,9.0527364,86.52238758000001,-0.47555514,120.25815462
1.04,104,-0.009000000000000001,-0.948,0.116,-22.8037284,-0.9740286,9.453807000000001,86.28747480000001,-0.56722842,120.25242504
1.05,105,-0.006999999999999999,-0.944,0.112,-22.8037284,-1.6615782,9.9121734,86.10412824,-0.66463128,120.24669546
1.06,106,0.009000000000000001,-0.949,0.105,-22.5745452,-3.9534102,9.969469199999999,85.88067462000002,-0.76776372,120.20658840000002
1.07,107,0.019,-0.955,0.091,-23.0902074,-6.8182002000000015,9.3965112,85.64576184,-0.86516658,120.14356302000002
1.08,108,0.016,-0.96,0.075,-21.7151082,-12.605076,8.307891,85.4280378,-0.95683986,120.02324184
1.09,109,0.004,-0.968,0.063,-19.9962342,-17.18874,7.2192707999999985,85.23323208,-1.04278356,119.85708402
1.1,110,-0.019,-0.974,0.041,-19.2513888,-21.4286292,6.130650599999999,85.06707426,-1.1172681,119.65081914
1.11,111,-0.053,-0.984,0.028,-20.05353,-24.1215318,5.0993262,84.87226854000002,-1.18602306,119.41590635999998
1.12,112,-0.095,-0.994,0.018000000000000002,-23.032911600000002,-24.694489800000003,4.1252976000000015,84.64308534,-1.24331886,119.17526399999998
1.1300000000000001,113,-0.138,-1.006,0.024,-25.0382646,-23.032911600000002,3.0366774,84.40244298,-1.2891555000000001,118.9460808
1.1400000000000001,114,-0.175,-1.013,0.052000000000000005,-27.1582092,-18.5638392,1.9480572,84.13315272,-1.32926256,118.76273424
1.1500000000000001,115,-0.191,-1.018,0.09,-29.2781538,-12.0894138,0.8594370000000001,83.88678078000002,-1.39228794,118.64814264
1.1600000000000001,116,-0.182,-1.013,0.125,-32.257535399999995,-2.7501984,0.4010706,83.56019472,-1.4037471,118.61949474
1.17,117,-0.142,-1.0,0.119,-31.79916900000001,2.4637194,0.9167328,83.23933824000002,-1.40947668,118.64241306
1.18,118,-0.094,-1.003,0.112,-28.1322378,6.0733548,2.5210152000000003,82.94712966,-1.432395,118.69970886
1.19,119,-0.061,-1.029,0.127,-23.7204612,7.333862400000001,4.3544808,82.7064873,-1.47250206,118.77992298
1.2,120,-0.045,-1.067,0.146,-21.485925,8.136003599999999,5.3285094000000015,82.55751822,-1.5183387000000002,118.86586668
1.21,121,-0.046,-1.097,0.151,-20.05353,8.7662574,5.0993262,82.35125334,-1.56417534,118.95753996
1.22,122,-0.063,-1.112,0.146,-18.2200644,9.8548776,3.724227,82.1621772,-1.59282324,119.06067240000002
1.23,123,-0.08900000000000001,-1.111,0.14300000000000002,-15.813640800000002,11.688343199999998,1.2032118,81.99601937999998,-1.59282324,119.17526399999998
1.24,124,-0.111,-1.096,0.13699999999999998,-12.318597,15.4125702,-1.7761698,81.86423904,-1.55844576,119.32423308
1.25,125,-0.123,-1.0759999999999998,0.132,-8.7662574,17.131444199999994,-3.4377480000000005,81.85850946000002,-1.5412570200000002,119.49612048000002
1.26,126,-0.12,-1.054,0.126,-5.2139178,16.329303,-3.5523396000000003,81.80121366,-1.48396122,119.65081914
1.27,127,-0.1,-1.034,0.138,-1.5469866,15.6417534,-2.2345362,81.77829534,-1.44385416,119.79978821999998
1.28,128,-0.06,-1.013,0.16,1.5469866,15.6990492,-0.286479,81.7897545,-1.42666542,119.95448688
1.29,129,-0.029,-0.994,0.163,4.6409598,14.381245800000002,1.5469866,81.82986156,-1.42666542,120.09772638
1.3,130,-0.012,-0.975,0.163,8.59437,11.516455800000001,2.9793816000000004,82.04758559999998,-1.432395,120.22377714
1.31,131,0.0,-0.956,0.159,12.7196676,8.4224826,4.1825934,82.17363636,-1.4610428999999998,120.31545042
1.32,132,0.006999999999999999,-0.955,0.16399999999999998,17.589810600000003,4.8128472,4.8701430000000006,82.34552376,-1.50114996,120.37274622
1.33,133,0.043,-0.986,0.078,16.7303736,3.4950437999999995,4.6982556,82.51741116,-1.5412570200000002,120.41285328
1.34,134,0.156,-1.078,-0.103,9.6829902,-3.724227,6.3598338,82.61481402000003,-1.61001198,120.38420538
1.35,135,0.27,-1.267,-0.086,8.021412000000002,-29.1635622,12.7769634,82.71221688,-1.74179232,120.10918554
1.36,136,0.276,-1.399,-0.092,17.8762896,-45.0917946,23.2620948,82.91848175999998,-2.01681216,119.69665578
1.37,137,0.181,-1.364,-0.136,24.637194,-35.0077338,30.5386614,83.18204244,-2.34339822,119.39298804
1.3800000000000001,138,-0.01,-1.215,-0.149,22.631841,-26.1268848,28.4760126,83.42841438,-2.64706596,119.16953442
1.3900000000000001,139,-0.259,-1.106,-0.13,26.2414764,-20.2827132,16.329303,83.70343421999998,-2.82468294,118.98618786
1.4000000000000001,140,-0.301,-1.08,-0.188,22.4026578,-2.5210152000000003,-2.3491278,83.89823994000002,-2.86479,118.96899912
1.4100000000000001,141,-0.268,-1.041,-0.265,13.5791046,15.126091199999998,-12.7769634,84.03002028,-2.7215505,119.10650904
1.42,142,-0.229,-1.023,-0.29100000000000004,9.167328,26.814434400000003,-13.8082878,84.10450482,-2.56685184,119.35861056000002
1.43,143,-0.194,-1.013,-0.28300000000000003,6.016058999999999,33.8618178,-8.3651868,84.15034145999998,-2.45798982,119.68519662
1.44,144,-0.14300000000000002,-0.998,-0.277,3.151269,38.38818600000001,0.4010706,84.16180062,-2.4350715000000003,120.06907848
1.45,145,-0.08,-0.998,-0.28300000000000003,0.9740286,39.591397799999996,9.797581800000001,84.10450482,-2.50382646,120.4644195
1.46,146,-0.01,-1.022,-0.27,0.0,37.6433406,17.5325148,84.0815865,-2.64706596,120.85403094
1.47,147,0.07400000000000001,-1.045,-0.244,0.1718874,33.231564,22.631841,84.06439776,-2.84760126,121.20353532
1.48,148,0.118,-1.045,-0.213,2.1199446,26.5279554,22.173474600000002,84.06439776,-3.04813656,121.49001432
1.49,149,0.113,-1.02,-0.185,4.010706000000001,19.0795014,17.303331600000003,84.09304566,-3.20283522,121.69627919999998
1.5,150,0.068,-0.974,-0.171,4.6982556,12.4904844,9.9121734,84.08731608000002,-3.2314831199999987,121.81660038
1.51,151,0.022,-0.949,-0.145,4.583664,8.8235532,1.432395,84.12742313999998,-3.24294228,121.90827366
1.52,152,-0.003,-0.95,-0.151,2.5210152000000003,7.3911582,-6.130650599999999,84.15034145999998,-3.1741873200000006,121.97702862
1.53,153,-0.019,-0.955,-0.16,0.3437748,7.7349330000000025,-12.032117999999999,84.15034145999998,-3.04813656,122.040054
1.54,154,-0.026,-0.957,-0.147,-0.7448454000000001,8.250595200000001,-16.1001198,84.13315272,-2.88197874,122.10307938
1.55,155,-0.031,-0.941,-0.114,0.0,9.0527364,-18.8503182,84.12169356000003,-2.68717302,122.17756392
1.56,156,-0.025,-0.904,-0.086,2.1199446,10.599723,-19.8243468,84.13888229999998,-2.48090814,122.25777804000002
1.57,157,-0.018000000000000002,-0.8540000000000001,-0.067,4.6982556,11.917526400000002,-18.9649098,84.17898936,-2.28610242,122.36091048
1.58,158,-0.006,-0.802,-0.055,8.078707799999998,13.521808800000002,-16.8449652,84.25347389999997,-2.10848544,122.47550208
1.59,159,0.015,-0.774,-0.046,11.0580894,15.6990492,-14.152062599999999,84.35660634000001,-1.95378678,122.61874158
1.6,160,0.027000000000000003,-0.769,-0.031,11.917526400000002,15.527161800000002,-11.2872726,84.47692752,-1.81627686,122.76198107999998
1.61,161,0.037000000000000005,-0.7809999999999999,-0.022,10.7716104,13.407217200000002,-8.8235532,84.58005996,-1.7188740000000002,122.88803184
1.62,162,0.054000000000000006,-0.797,-0.035,7.5057497999999985,11.1153852,-7.7349330000000025,84.6545445,-1.6329303,122.99116428
1.6300000000000001,163,0.073,-0.8340000000000001,-0.054000000000000006,4.3544808,9.9121734,-7.906820400000001,84.69465156,-1.5527161800000002,123.08283756
1.6400000000000001,164,0.073,-0.8740000000000001,-0.07200000000000001,0.6875496,9.224623800000002,-8.8235532,84.70038114,-1.45531332,123.16878126
1.6500000000000001,165,0.059,-0.912,-0.086,-1.0313244,8.8235532,-10.0840608,84.67173324000002,-1.31207382,123.23753622
1.6600000000000001,166,0.042,-0.929,-0.085,-2.1772404,8.9381448,-11.229976800000001,84.64308534,-1.19175264,123.31775034
1.6700000000000002,167,0.025,-0.93,-0.069,-2.9793816000000004,9.969469199999999,-12.032117999999999,84.60870786,-1.06570188,123.40369404
1.68,168,0.006,-0.915,-0.05,-3.0939732,11.1153852,-12.1467096,84.57433037999998,-0.93965112,123.5010969
1.69,169,-0.004,-0.9,-0.028,-2.291832,12.7196676,-11.229976800000001,84.55141205999998,-0.8193299399999999,123.6156885
1.7,170,-0.005,-0.8909999999999999,0.0,-1.8334656000000005,13.521808800000002,-9.167328,84.55714164,-0.7161975,123.74173926
1.71,171,0.002,-0.8959999999999999,0.017,-1.8334656000000005,13.521808800000002,-5.9014674000000005,84.53422332,-0.64744254,123.86779002
1.72,172,0.015,-0.924,0.03,-2.2345362,13.521808800000002,-2.3491278,84.51130500000002,-0.61879464,123.99957036
1.73,173,0.03,-0.963,0.032,-2.9220857999999996,13.2353298,0.0,84.47692752,-0.6073354799999999,124.13135069999998
1.74,174,0.05,-1.006,0.021,-4.3544808,13.407217200000002,1.432395,84.42536129999998,-0.61306506,124.26313104
1.75,175,0.075,-1.042,0.014,-5.958763200000001,13.8655836,2.3491278,84.40817256,-0.5786875800000001,124.40064096
1.76,176,0.104,-1.074,0.005,-7.0473834,13.120738199999998,3.2085648,84.33368802,-0.6016058999999999,124.53242129999998
1.77,177,0.132,-1.094,0.002,-7.161975,10.1413566,4.583664,84.25920348,-0.64171296,124.63555374
1.78,178,0.153,-1.105,0.006,-6.990087599999999,4.9274388,5.958763200000001,84.18471894,-0.69900876,124.68711996
1.79,179,0.165,-1.102,0.02,-5.3858052,-2.7501984,7.333862400000001,84.12742313999998,-0.7734933,124.66993122
1.8,180,0.16699999999999998,-1.101,0.053,-2.0626488000000003,-13.750992000000002,8.307891,84.1675302,-0.8021412000000001,124.53242129999998
1.81,181,0.146,-1.097,0.096,0.0,-21.829699800000004,8.59437,84.17325978,-0.90527364,124.32615642
1.82,182,0.114,-1.083,0.138,1.7761698,-27.8457588,8.307891,84.1961781,-1.0026765,124.05686616
1.83,183,0.08800000000000001,-1.065,0.16899999999999998,2.86479,-31.913760600000003,7.906820400000001,84.23628516,-1.10580894,123.75319842
1.84,184,0.06,-1.054,0.18600000000000005,4.1252976000000015,-33.74722620000001,7.161975,84.29358096,-1.2032117999999998,123.42661236
1.85,185,0.03,-1.047,0.192,4.9847345999999995,-34.262888399999994,5.7868758000000025,84.42536129999998,-1.27196676,123.1000263
1.86,186,0.006999999999999999,-1.053,0.192,5.5003968,-32.945085,3.8961144,84.48838668,-1.32926256,122.77916982
1.87,187,-0.005,-1.075,0.17600000000000002,4.4117766,-29.0489706,0.9167328,84.54568248000002,-1.3579104599999998,122.49269082
1.8800000000000001,188,-0.013,-1.105,0.146,2.578311,-22.8037284,-2.578311,84.58005996,-1.3464512999999998,122.26350762
1.8900000000000001,189,-0.031,-1.13,0.127,-0.1718874,-16.2147114,-5.5003968,84.58578954,-1.30634424,122.09734979999999
1.9000000000000001,190,-0.062,-1.122,0.122,-2.6356068,-8.651665800000002,-7.2765666,84.6545445,-1.2605076000000002,122.01713568
1.9100000000000001,191,-0.108,-1.092,0.13699999999999998,-3.724227,-2.578311,-7.333862400000001,84.61443744,-1.19175264,121.98275819999999
1.9200000000000002,192,-0.14800000000000002,-1.046,0.168,-2.8074942000000003,3.8388186,-5.2139178,84.58578954,-1.13445684,122.01713568
1.93,193,-0.158,-0.999,0.195,0.5156622000000001,10.886202,-2.5210152000000003,84.58578954,-1.10580894,122.12026812
1.94,194,-0.127,-0.979,0.17,4.6982556,17.18874,-1.4896908000000002,84.63162618,-1.07716104,122.29215552
1.95,195,-0.07200000000000001,-1.033,0.092,9.1100322,21.5432208,-4.2398892,84.75194736,-1.0313244,122.50414998
1.96,196,-0.093,-1.167,-0.039,5.5576926,23.491278,-10.8289062,84.79778400000002,-0.91100322,122.72760360000002
1.97,197,-0.194,-1.317,-0.054000000000000006,1.0886202,31.3980984,-20.8556712,84.80351358,-0.68182002,123.01981218
1.98,198,-0.26,-1.389,-0.085,-1.0886202,48.2430636,-33.8618178,84.78059526000001,-0.32085648,123.46671942
1.99,199,-0.205,-1.206,-0.223,0.11459160000000004,50.133825,-44.117766,84.77486567999998,0.14323950000000002,123.92508582
2.0,200,0.015,-0.991,-0.29,16.673077799999998,40.393539,-46.123119,84.91237559999998,0.64171296,124.28031978
2.01,201,0.203,-0.877,-0.203,24.5226024,31.51269000000001,-38.2162986,85.16447712,1.03705398,124.5610692
2.02,202,0.292,-0.833,-0.207,17.303331600000003,22.631841,-27.501984000000004,85.3420941,1.32353298,124.76733408
2.03,203,0.307,-0.858,-0.275,5.3858052,13.407217200000002,-20.5691922,85.39366032000002,1.53552744,124.88192568
2.04,204,0.28300000000000003,-0.962,-0.333,-7.5057497999999985,6.703608600000001,-18.1054728,85.31917578,1.7188740000000002,124.93349189999999
2.05,205,0.217,-1.026,-0.321,-13.8655836,0.057295800000000015,-18.048177,85.1129109,1.93659804,124.89911442
2.0599999999999996,206,0.152,-1.045,-0.28800000000000003,-15.0687954,-6.417129599999999,-17.6471064,84.95248266,2.10848544,124.8189003
2.07,207,0.122,-1.0590000000000002,-0.272,-11.8029348,-10.8289062,-17.4179232,84.83216148,2.2746432600000004,124.69857912
2.0799999999999996,208,0.098,-1.081,-0.257,-7.8495246,-13.349921400000001,-17.131444199999994,84.74621778000002,2.4350715000000003,124.54961004
2.09,209,0.067,-1.12,-0.228,-3.9534102,-13.6936962,-15.9282324,84.70038114,2.58404058,124.40064096
2.0999999999999996,210,0.036000000000000004,-1.154,-0.201,-1.6615782,-13.521808800000002,-13.8655836,84.6545445,2.70436176,124.25167188
2.11,211,0.011,-1.143,-0.154,-1.432395,-13.2926256,-10.886202,84.63162618,2.80176462,124.10843238
2.1199999999999997,212,0.01,-1.09,-0.126,-2.2345362,-13.0061466,-6.4744254,84.60297828,2.85906042,123.97665204
2.13,213,0.026,-1.046,-0.102,-2.6929026,-12.6623718,-2.9220857999999996,84.57433037999998,2.87624916,123.8448717
2.1399999999999997,214,0.04,-1.014,-0.078,-1.432395,-10.886202,0.8594370000000001,84.55714164,2.86479,123.74173926
2.15,215,0.053,-1.002,-0.055,0.9167328,-9.6829902,5.3858052,84.58005996,2.8074942000000003,123.65006598
2.1599999999999997,216,0.05,-0.991,-0.036000000000000004,2.0626488000000003,-8.9381448,9.8548776,84.59724870000002,2.70436176,123.56985186
2.17,217,0.05,-0.966,-0.022,2.6356068,-8.136003599999999,12.7769634,84.62016702,2.57258142,123.5010969
2.1799999999999997,218,0.055,-0.934,-0.036000000000000004,2.86479,-9.1100322,14.2093584,84.64881491999998,2.42934192,123.42661236
2.19,219,0.047,-0.8909999999999999,-0.04,1.9480572,-12.7196676,14.495837400000001,84.66600365999999,2.2746432600000004,123.31202076
2.1999999999999997,220,0.021,-0.845,-0.039,0.286479,-16.8449652,13.6936962,84.67173324000002,2.12567418,123.15732210000002
2.21,221,0.0,-0.825,-0.039,-2.1772404,-18.2773602,12.5477802,84.64881491999998,1.98816426,122.99116428
2.2199999999999998,222,-0.01,-0.8190000000000001,-0.044,-6.016058999999999,-19.1367972,10.8289062,84.58578954,1.86784308,122.80781772
2.23,223,-0.005,-0.831,-0.063,-8.9954406,-20.2827132,8.7662574,84.48838668,1.76471064,122.61874158
2.2399999999999998,224,-0.009000000000000001,-0.857,-0.087,-11.745639,-21.6005166,6.760904399999999,84.36233591999998,1.6844965200000002,122.40674712
2.25,225,-0.026,-0.893,-0.106,-13.5791046,-23.777757,5.2712136,84.21336684,1.59282324,122.17756392
2.26,226,-0.064,-0.949,-0.097,-14.152062599999999,-25.210152,4.4117766,84.06439776,1.52979786,121.93119198
2.27,227,-0.1,-1.013,-0.08800000000000001,-15.183387000000002,-22.7464326,3.4377480000000005,83.9096991,1.4782316400000002,121.70773836
2.28,228,-0.127,-1.055,-0.087,-16.7303736,-15.3552744,1.8334656000000005,83.73781170000002,1.44385416,121.55876928
2.29,229,-0.132,-1.058,-0.078,-16.558486199999994,-9.167328,0.3437748,83.5659243,1.432395,121.467096
2.3,230,-0.117,-1.035,-0.048,-14.5531332,-2.9220857999999996,-0.1718874,83.46852143999998,1.32926256,121.46136642000002
2.31,231,-0.077,-1.009,-0.015,-11.1153852,2.6356068,0.9740286,83.35392984,1.3178034,121.48428474
2.32,232,-0.03,-1.007,0.005,-8.9381448,6.9327918,3.6669312000000014,83.26798613999998,1.2891555000000001,121.55876928
2.3299999999999996,233,0.009000000000000001,-1.021,0.022,-7.906820400000001,8.880849000000003,6.589017,83.18777202,1.22613012,121.65044256
2.34,234,0.029,-1.052,0.048,-7.448453999999999,9.568398599999998,8.5370742,83.11328748,1.15164558,121.753575
2.3499999999999996,235,0.035,-1.084,0.058,-7.6203414,9.969469199999999,9.740286,83.09609874,1.07143146,121.8681666
2.36,236,0.019,-1.102,0.083,-7.6203414,10.7143146,9.6256944,83.0216142,0.98548776,121.98848778
2.3699999999999997,237,-0.006,-1.114,0.101,-8.078707799999998,13.2926256,8.4224826,82.94140008000002,0.91100322,122.1259977
2.38,238,-0.04,-1.115,0.129,-7.906820400000001,17.9908812,6.4744254,82.86118596,0.86516658,122.30934426000002
2.3899999999999997,239,-0.062,-1.109,0.13,-7.2192707999999985,24.064235999999998,4.297185,82.78670142,0.8422482600000001,122.54998662
2.4,240,-0.07200000000000001,-1.091,0.114,-5.9014674000000005,29.4500412,2.8074942000000003,82.78670142,0.8193299399999999,122.85365436
2.4099999999999997,241,-0.079,-1.056,0.083,-2.9793816000000004,33.2888598,2.578311,82.75232394,0.8250595199999999,123.18597
2.42,242,-0.076,-0.998,0.05,2.2345362,34.66395900000001,4.010706000000001,82.77524226,0.8193299399999999,123.5297448
2.4299999999999997,243,-0.071,-0.928,0.052000000000000005,8.250595200000001,34.37748,7.161975,82.86118596,0.7849524600000001,123.87924918
2.44,244,-0.08,-0.8540000000000001,0.091,13.521808800000002,33.74722620000001,10.7716104,82.99869588,0.7104679199999999,124.22875356
2.4499999999999997,245,-0.096,-0.784,0.13,15.469866,33.8618178,14.7823164,83.19350159999998,0.5786875800000001,124.58398752
2.46,246,-0.115,-0.715,0.154,16.329303,35.52339600000001,18.7930224,83.35392984,0.4297185000000001,124.95641022
2.4699999999999998,247,-0.12,-0.654,0.179,17.0168526,37.9298196,21.9442914,83.52581724,0.24637194,125.35748082
2.48,248,-0.113,-0.591,0.189,14.8396122,41.023792799999995,23.6058696,83.67478632,0.04583664,125.78719932
2.4899999999999998,249,-0.106,-0.516,0.183,12.0894138,44.4615408,23.5485738,83.78937792,-0.14323950000000002,126.25702488000002
2.5,250,-0.096,-0.435,0.17,11.172681,47.6128098,22.2307704,83.91542868,-0.33231564,126.74976876
2.51,251,-0.058,-0.35200000000000004,0.145,9.568398599999998,51.56622,19.4232762,84.00137237999998,-0.4870143000000001,127.27689012
2.52,252,-0.008,-0.27,0.078,8.307891,56.0352924,15.527161800000002,84.07585692,-0.59587632,127.84984812
2.53,253,0.037000000000000005,-0.213,0.018000000000000002,10.0840608,55.6915176,12.318597,84.16180062,-0.67609044,128.41134696
2.54,254,0.037000000000000005,-0.18,0.062,14.7823164,52.0245864,10.5424272,84.29931054,-0.7391158200000001,128.93846832000003
2.55,255,0.179,-0.336,-0.264,8.9381448,74.82831479999999,13.2353298,84.30504012,-0.7792228800000001,129.67185456
2.56,256,0.498,-0.652,-0.8059999999999999,-9.453807000000001,55.80610920000001,31.4553942,84.1961781,-1.04851314,130.25054214
2.57,257,0.476,-1.268,-0.693,-13.521808800000002,-53.285094,57.4103916,84.07585692,-1.6558486199999998,129.78071658
2.5799999999999996,258,0.452,-1.39,-0.081,28.361421000000004,-43.544808,74.65642740000001,84.38525424,-2.42361234,129.42548262
2.59,259,0.197,-1.157,-0.054000000000000006,19.4232762,19.8816426,54.4883058,84.56860079999998,-2.9507337,129.67758414
2.5999999999999996,260,-0.086,-1.204,-0.21600000000000005,-10.7143146,54.8320806,19.9962342,84.40817256,-3.11689152,130.23908298
2.61,261,-0.341,-1.4680000000000002,-0.246,-11.3445684,39.534102,-3.8961144,84.27066264,-3.05386614,130.62296483999998
2.6199999999999997,262,-0.5479999999999999,-1.912,-0.309,6.3025379999999975,35.5806918,-4.7555514,84.31076970000002,-2.9793816000000004,130.97246922000002
2.63,263,-0.453,-2.467,-0.181,26.8717302,25.55392680000001,11.688343199999998,84.56287122,-3.07678446,131.2360299
2.6399999999999997,264,-0.248,-2.264,-0.091,22.7464326,6.9327918,21.9442914,84.79205442,-3.28877892,131.32770318
2.65,265,-0.11,-1.98,-0.075,21.6578124,1.6042823999999998,18.9649098,85.00977845999998,-3.47212548,131.36208066
2.6599999999999997,266,0.035,-1.866,-0.113,11.516455800000001,-2.0626488000000003,11.8029348,85.13009964,-3.58671708,131.35062150000002
2.67,267,0.241,-1.715,-0.136,0.2291832000000001,-2.6929026,5.7868758000000025,85.13009964,-3.6440128800000013,131.33343276
2.6799999999999997,268,0.385,-1.6469999999999998,-0.113,-4.5263682,-8.3651868,0.1718874,85.08999258,-3.65547204,131.24748906
2.69,269,0.366,-1.578,-0.081,-2.3491278,-18.162768600000003,-6.589017,85.08426299999998,-3.59817624,131.0641425
2.6999999999999997,270,0.269,-1.505,-0.06,-1.2605076000000002,-29.1635622,-14.0947668,85.09572216000002,-3.46066632,130.76047476
2.71,271,0.154,-1.499,-0.019,2.2345362,-35.5806918,-19.4232762,85.1415588,-3.28877892,130.38805206
2.7199999999999998,272,-0.001,-1.491,0.01,3.724227,-35.695283399999994,-24.8090814,85.20458418000003,-3.0653253000000005,130.01562936
2.73,273,-0.09,-1.48,0.022,1.8334656000000005,-33.6326346,-31.3980984,85.24469124,-2.77311672,129.66039540000003
2.7399999999999998,274,-0.131,-1.376,-0.03,-5.6149884000000005,-35.9244666,-35.0650296,85.21031375999998,-2.44080108,129.27651354
2.75,275,-0.078,-1.275,-0.049,-5.042030400000002,-37.9298196,-35.809875,85.18739544,-2.10848544,128.86971336000002
2.76,276,0.057,-1.172,-0.055,-3.4950437999999995,-35.236917,-35.8671708,85.16447712,-1.7761698,128.49729066
2.77,277,0.16,-1.061,-0.112,-4.2398892,-30.5386614,-37.7006364,85.13582922,-1.41520626,128.15924544
2.78,278,0.202,-0.952,-0.127,-5.6149884000000005,-24.5798982,-39.19032720000001,85.08426299999998,-1.04278356,127.8842256
2.79,279,0.152,-0.853,-0.099,-8.3651868,-20.168121600000006,-37.9871154,85.00404888,-0.68182002,127.6550424
2.8,280,0.058,-0.7559999999999999,-0.115,-10.7143146,-15.2406828,-31.79916900000001,84.88945728,-0.3724227000000001,127.47169584
2.81,281,-0.044,-0.636,-0.116,-8.7089616,-8.8235532,-23.0902074,84.79778400000002,-0.14896908,127.36283382
2.82,282,-0.166,-0.496,-0.105,-3.3231564,-3.8961144,-12.9488508,84.76340652,-0.02291832,127.31699718
2.8299999999999996,283,-0.257,-0.355,-0.063,1.7761698,5.443101,-3.9534102,84.78632483999998,0.01718874,127.36283382
2.84,284,-0.276,-0.211,0.021,-1.8334656000000005,19.767051,3.0939732,84.76340652,0.0,127.56336912
2.8499999999999996,285,-0.238,-0.068,0.07,-8.880849000000003,33.804522,5.844171599999999,84.67746281999997,-0.06302537999999999,127.90714392
2.86,286,-0.145,0.11,0.097,-10.8289062,44.8053156,4.9274388,84.56287122,-0.0859437,128.34832158
2.8699999999999997,287,-0.071,0.234,0.086,-8.479778399999999,44.4615408,2.6929026,84.46546836,-0.0859437,128.78949924
2.88,288,0.001,0.289,0.078,-8.7089616,37.8725238,2.291832,84.37379508000002,-0.08021412,129.16765152
2.8899999999999997,289,0.056,0.305,0.153,-6.4744254,30.7678446,4.5263682,84.30504012,-0.10313244,129.47131926000003
2.9,290,0.081,0.257,0.197,1.9480572,26.7571386,6.8182002000000015,84.3394176,-0.14323950000000002,129.73487993999998
2.9099999999999997,291,0.092,0.158,0.136,4.8701430000000006,22.4026578,8.651665800000002,84.38525424,-0.21199446,129.96406314
2.92,292,0.05,0.067,-0.035,2.291832,9.740286,11.688343199999998,84.40817256,-0.32085648,130.07292516
2.9299999999999997,293,-0.005,0.018000000000000002,-0.136,9.2819196,-1.3750992,15.0687954,84.50557542,-0.46982556,130.07292516
2.94,294,-0.065,0.0,-0.119,21.199446,-8.307891,16.386598799999998,84.72329946,-0.63598338,130.00989978
2.9499999999999997,295,-0.112,-0.036000000000000004,-0.025,31.627281600000003,-5.7868758000000025,15.2406828,85.0269672,-0.8078707799999998,129.96979272000002
2.96,296,-0.483,-0.209,-1.097,13.2353298,-52.3683612,8.651665800000002,85.17593628,-0.92246238,129.4598601
2.9699999999999998,297,-0.472,-0.736,-0.799,-45.1490904,46.6387812,-17.303331600000003,84.70611072,-0.72765666,129.90103776
2.98,298,-0.263,-2.311,-1.477,-55.576926,223.1098452,-85.48533359999998,84.09877524000002,0.26356068,132.01525278
2.9899999999999998,299,-1.598,-2.8710000000000004,-0.28300000000000003,-32.142943800000005,91.0430262,-127.9415214,83.76645959999998,1.59282324,132.77728692
3.0,300,-0.616,-1.71,0.035,-16.7303736,9.568398599999998,-49.1597964,83.5945722,2.07410796,132.81739398
3.01,301,0.038,-1.601,-0.524,-1.9480572,1.3750992,14.037471,83.57165388,1.93659804,132.84604188
3.02,302,0.5720000000000001,-1.77,-0.6990000000000001,32.142943800000005,19.595163600000006,52.2537696,83.90396952,1.43812458,133.09814340000003
3.03,303,1.106,-2.278,-0.051,51.852699,52.54024860000001,64.22859179999999,84.43682046,0.8479778399999999,133.68829014
3.04,304,0.982,-2.459,-0.212,13.0634424,42.5134836,17.9908812,84.56860079999998,0.69900876,134.12373822
3.05,305,0.5920000000000001,-2.175,-0.29,-7.448453999999999,26.356068,-34.3201842,84.49411626,1.0599723,134.35292142
3.06,306,0.444,-1.981,-0.327,-13.6936962,12.9488508,-63.4264506,84.35087675999998,1.6959556799999995,134.4159468
3.07,307,0.311,-1.935,-0.34700000000000003,-17.3606274,-5.3285094000000015,-71.7343416,84.17325978,2.40069402,134.29562562
3.08,308,0.034,-1.784,-0.368,-23.9496444,-19.3659804,-56.72284200000001,83.91542868,2.93927454,134.04352409999998
3.09,309,-0.175,-1.561,-0.393,-24.694489800000003,-26.0122932,-28.7051958,83.65186800000002,3.20283522,133.75704509999997
3.0999999999999996,310,-0.238,-1.4780000000000002,-0.322,-20.05353,-27.3300966,-2.9793816000000004,83.42841438,3.1913760600000005,133.48202526
3.11,311,-0.154,-1.467,-0.325,-11.9748222,-25.6112226,13.0634424,83.30236362,3.04240698,133.24138290000002
3.1199999999999997,312,-0.006999999999999999,-1.4380000000000002,-0.331,-3.3231564,-19.8816426,21.0848544,83.26225656,2.81322378,133.06949550000002
3.13,313,0.168,-1.3730000000000002,-0.271,3.724227,-12.891555,20.8556712,83.29663404,2.59549974,132.96636306
3.1399999999999997,314,0.277,-1.28,-0.203,7.906820400000001,-10.1986524,15.4125702,83.37111858,2.4350715000000003,132.88041936
3.15,315,0.261,-1.158,-0.162,9.797581800000001,-10.4278356,10.026765,83.45706228,2.38923486,132.77728692
3.1599999999999997,316,0.16399999999999998,-1.04,-0.119,9.797581800000001,-9.3965112,7.1046792000000005,83.55446514,2.30902074,132.6970728
3.17,317,0.037000000000000005,-0.947,-0.118,5.443101,-7.906820400000001,6.875496000000001,83.60603136,2.2345362,132.62258826
3.1799999999999997,318,-0.097,-0.857,-0.16399999999999998,-0.9740286,-5.443101,8.5370742,83.60030178,2.1485925000000003,132.58248120000002
3.19,319,-0.225,-0.784,-0.18,-4.5263682,0.3437748,10.6570188,83.55446514,2.03973048,132.59394035999998
3.1999999999999997,320,-0.324,-0.74,-0.17,-4.8701430000000006,10.4851314,12.9488508,83.47425102000003,1.8048176999999999,132.72572069999998
3.21,321,-0.364,-0.7190000000000001,-0.123,-3.2085648,19.480572,15.0687954,83.44560312,1.67303736,132.93771516
3.2199999999999998,322,-0.308,-0.7090000000000001,-0.063,0.11459160000000004,28.81978740000001,16.902261,83.45133270000002,1.52979786,133.24138290000002
3.23,323,-0.174,-0.672,-0.051,0.9167328,37.757932200000006,18.5065434,83.46852143999998,1.38082878,133.63099434
3.2399999999999998,324,-0.035,-0.606,0.005,1.2032118,41.19568020000001,18.907614000000002,83.48571018,1.22613012,134.06071284
3.25,325,0.076,-0.534,0.039,-0.2291832000000001,42.05511720000001,16.673077799999998,83.49716934,1.11153852,134.49043134
3.26,326,0.173,-0.462,0.01,-3.3231564,37.7006364,12.891555,83.46279186000002,1.01413566,134.87431320000002
3.27,327,0.224,-0.404,0.011,-6.875496000000001,26.814434400000003,8.7662574,83.3940369,0.95111028,135.14933304000002
3.28,328,0.247,-0.35,0.029,-9.3392154,12.1467096,4.9847345999999995,83.30236362,0.91100322,135.2753838
3.29,329,0.267,-0.293,0.08900000000000001,-10.1413566,-2.86479,0.8021411999999999,83.19923118,0.89954406,135.2467359
3.3,330,0.24,-0.241,0.139,-6.8182002000000015,-15.0114996,-4.3544808,83.15339454,0.96256944,135.08630766000002
3.31,331,0.173,-0.211,0.197,0.4010706,-26.1841806,-10.4278356,83.15339454,1.03705398,134.8170174
3.32,332,0.051,-0.205,0.214,4.4117766,-33.9191136,-14.495837400000001,83.19923118,1.15164558,134.46178344
3.33,333,-0.063,-0.232,0.183,6.5317212,-31.741873200000004,-16.157415599999997,83.26225656,1.28342592,134.13519738
3.34,334,-0.156,-0.266,0.095,12.834259199999998,-18.449247600000003,-16.386598799999998,83.38830732,1.432395,133.93466208
3.3499999999999996,335,-0.224,-0.314,0.157,24.1215318,-3.151269,-16.7876694,83.66332716000002,1.56417534,133.89455502
3.36,336,-0.267,-0.3720000000000001,0.111,29.4500412,12.0894138,-19.0222056,83.96126532,1.76471064,133.99768746
3.3699999999999997,337,-0.268,-0.4,-0.236,26.1268848,17.475219,-19.308684600000007,84.23055558,1.97097552,134.15238612000002
3.38,338,-0.218,-0.446,-0.386,27.7311672,14.266654199999998,-15.6417534,84.51130500000002,2.13713334,134.27843688000002
3.3899999999999997,339,0.05,-0.6759999999999999,-0.728,25.84040580000001,15.6990492,-7.9641161999999985,84.78059526000001,2.22880662,134.43313554000002
3.4,340,0.45,-1.109,-1.176,10.026765,-5.6722842,4.7555514,84.86080938,2.18869956,134.37583974
3.4099999999999997,341,1.008,-2.217,-0.914,22.91832,-23.032911600000002,27.3300966,85.08999258,1.90795014,134.17530444
3.42,342,1.5490000000000002,-3.115,-0.202,50.993262,-19.595163600000006,52.139178,85.61138436,1.38082878,134.02633536000002
3.4299999999999997,343,0.64,-1.794,-0.13699999999999998,-10.4851314,4.9847345999999995,10.4851314,85.50252234,1.28342592,134.08363116
3.44,344,0.07400000000000001,-1.608,-0.526,-5.9014674000000005,5.5576926,-5.2712136,85.44522654,1.3349921400000002,134.13519738
3.4499999999999997,345,-0.298,-1.786,-0.522,6.0733548,-12.4331886,-0.4010706,85.49679276,1.32926256,134.0148762
3.46,346,-0.28800000000000003,-1.575,-0.429,3.9534102,-26.1841806,6.0733548,85.53689982,1.25477802,133.75704509999997
3.4699999999999998,347,-0.006999999999999999,-1.6269999999999998,-0.3720000000000001,5.042030400000002,-32.31483119999999,7.906820400000001,85.58273646,1.1573751600000002,133.44764778
3.48,348,0.188,-1.798,-0.373,-5.2712136,-36.03905820000001,7.5630456000000015,85.53117024000002,1.06570188,133.09241382
3.4899999999999998,349,0.266,-1.781,-0.422,-16.902261,-38.5600734,9.8548776,85.35355326,0.9453806999999999,132.71999112
3.5,350,0.321,-1.675,-0.506,-21.4286292,-43.65939960000001,13.120738199999998,85.13009964,0.79641162,132.2960022
3.51,351,0.329,-1.556,-0.5379999999999999,-21.3713334,-52.139178,13.464512999999998,84.91237559999998,0.6302538000000001,131.78606958
3.52,352,0.26,-1.444,-0.459,-19.0795014,-58.9573782,9.797581800000001,84.72329946,0.4984734599999999,131.21311158
3.53,353,0.142,-1.3530000000000002,-0.358,-19.480572,-58.3271244,5.2712136,84.52849374,0.40680018,130.64015358
3.54,354,0.015,-1.242,-0.293,-22.91832,-52.7694318,1.3178034,84.29931054,0.35523396,130.11876180000002
3.55,355,-0.057,-1.14,-0.263,-20.798375399999998,-48.529542600000006,-1.3750992,84.06439776,0.31512690000000004,129.63747708
3.56,356,-0.08,-1.048,-0.195,-13.8082878,-46.1804148,-2.2345362,83.92688783999998,0.30366774,129.17911067999998
3.57,357,-0.076,-0.991,-0.118,-7.7922288,-42.28430039999999,-1.9480572,83.85240329999998,0.28647900000000004,128.76085134
3.58,358,-0.078,-0.95,-0.07200000000000001,-5.042030400000002,-37.24227,-0.9167328,83.80656666,0.26929026,128.38842864
3.59,359,-0.081,-0.917,-0.07200000000000001,-3.0939732,-31.913760600000003,0.286479,83.77791876,0.24064236,128.07330174
3.5999999999999996,360,-0.076,-0.884,-0.101,-1.7188740000000002,-27.3873924,1.6615782,83.74927086,0.1718874,127.80974106
3.61,361,-0.058,-0.8440000000000001,-0.11,0.2291832000000001,-24.637194,2.1772404,83.75500044,0.13178034,127.5690987
3.6199999999999997,362,-0.04,-0.794,-0.125,1.3750992,-22.9756158,1.7761698,83.77218918,0.09740286,127.34564507999998
3.63,363,-0.033,-0.741,-0.116,2.4064236,-22.345362,0.7448454000000001,83.7951075,0.06875496,127.12792104
3.6399999999999997,364,-0.02,-0.6829999999999999,-0.113,3.6096354,-21.6005166,0.286479,83.83521456,0.05156622,126.91592658
3.65,365,-0.003,-0.63,-0.098,5.0993262,-20.6837838,0.5156622000000001,83.8810512,0.028647900000000007,126.7096617
3.6599999999999997,366,0.021,-0.593,-0.105,6.6463128000000005,-19.0222056,1.145916,83.94980616,0.00572958,126.52631514
3.67,367,0.055,-0.5710000000000001,-0.098,8.880849000000003,-17.7044022,1.4896908000000002,84.04720902,-0.01718874,126.35442774
3.6799999999999997,368,0.077,-0.5720000000000001,-0.075,11.8602306,-17.131444199999994,1.3750992,84.1675302,-0.04583664,126.18254034
3.69,369,0.086,-0.5920000000000001,-0.076,14.152062599999999,-16.558486199999994,1.2032118,84.31649927999999,-0.06875496,126.0221121
3.6999999999999997,370,0.08800000000000001,-0.612,-0.093,15.6417534,-15.813640800000002,1.145916,84.46546836,-0.06875496,125.86741344
3.71,371,0.081,-0.624,-0.095,17.0168526,-14.037471,0.8021411999999999,84.64308534,-0.0859437,125.72990352
3.7199999999999998,372,0.083,-0.637,-0.066,20.05353,-13.2353298,0.8021411999999999,84.84362064,-0.10313244,125.60385276
3.73,373,0.065,-0.649,-0.068,22.9756158,-15.813640800000002,1.5469866,85.08426299999998,-0.12605075999999998,125.4491541
3.7399999999999998,374,0.036000000000000004,-0.647,-0.061,25.78311,-19.7097552,3.4377480000000005,85.34782368,-0.16615782,125.26007796
3.75,375,0.024,-0.628,0.0,30.1375908,-21.5432208,5.958763200000001,85.66295058,-0.2291832000000001,125.05381308
3.76,376,0.031,-0.614,0.041,34.091001,-20.7410796,7.3911582,86.01245496,-0.30939732,124.85900736
3.77,377,0.046,-0.614,0.077,37.1276784,-18.048177,7.161975,86.39633682,-0.38388186,124.69284954000004
3.78,378,0.049,-0.639,0.047,39.247623,-14.495837400000001,5.6722842,86.79740741999998,-0.44117766,124.55533962
3.79,379,0.036000000000000004,-0.675,-0.029,39.820581,-7.7922288,3.4950437999999995,87.20420759999998,-0.47555514,124.48085508
3.8,380,0.022,-0.755,-0.021,40.10706,-1.9480572,3.3231564,87.61100778,-0.4984734599999999,124.46939592
3.81,381,0.006,-0.843,-0.025,37.4714532,2.4064236,5.6722842,87.98916005999996,-0.55003968,124.49804382
3.82,382,-0.047,-0.902,-0.11,32.4294228,1.2032118,10.1986524,88.3214757,-0.64744254,124.51523256
3.83,383,-0.099,-0.921,-0.104,30.366774000000003,-0.6875496,16.386598799999998,88.63087302,-0.8078707799999998,124.51523256
3.84,384,-0.166,-0.93,-0.042,29.392745399999995,-4.8128472,22.459953600000002,88.92881118,-1.0313244,124.47512550000002
3.8499999999999996,385,-0.21,-0.925,0.01,26.814434400000003,-8.7089616,26.41336380000001,89.20956059999996,-1.32926256,124.40637054
3.86,386,-0.205,-0.954,-0.128,26.5279554,-13.6364004,27.043617600000005,89.48458044,-1.59282324,124.2745902
3.8699999999999997,387,-0.264,-1.161,-0.644,19.194093,-24.2934192,20.798375399999998,89.69084532,-1.7933585399999998,124.03394784
3.88,388,-0.23,-1.705,-0.535,18.8503182,4.3544808,0.9740286,89.87992145999998,-1.8048176999999999,124.07978448
3.8899999999999997,389,-0.258,-2.177,-0.264,14.7250206,49.1597964,-31.51269000000001,90.00597222,-1.50114996,124.57252836
3.9,390,-0.315,-1.641,-0.17600000000000002,4.583664,51.1651494,-40.90920120000001,90.02316096,-1.12299768,125.08246098
3.9099999999999997,391,-0.181,-1.284,-0.237,15.813640800000002,41.8832298,-38.2162986,90.17213004,-0.75630456,125.49499074
3.92,392,-0.045,-1.209,-0.231,19.6524594,43.8885828,-27.444688199999998,90.36120618,-0.49274388,125.9361684
3.9299999999999997,393,0.029,-1.054,-0.204,16.386598799999998,48.3576552,-3.3231564,90.51590484,-0.47555514,126.41745312
3.94,394,0.045,-0.957,-0.152,21.6005166,50.5348956,18.048177,90.72216972,-0.67609044,126.91592658
3.9499999999999997,395,0.059,-1.092,-0.099,26.41336380000001,56.3217714,18.9649098,90.96281208,-0.87662574,127.47169584
3.96,396,0.038,-1.254,-0.079,21.772404,61.9940556,8.7662574,91.16907696,-0.9912173399999998,128.08476090000002
3.9699999999999998,397,-0.008,-1.3219999999999998,-0.078,16.1001198,62.5097178,-0.11459160000000004,91.31231646,-1.01986524,128.70355554
3.98,398,-0.035,-1.289,-0.087,13.407217200000002,60.9627312,-4.8128472,91.42690806,-0.9969469199999998,129.30516144
3.9899999999999998,399,-0.05,-1.216,-0.095,13.464512999999998,62.6243094,-5.6149884000000005,91.54722924,-0.9740286,129.92968566
4.0,400,-0.081,-1.148,-0.086,13.6364004,65.030733,-4.0680017999999984,91.6446321,-0.97975818,130.5771282
4.01,401,-0.122,-1.08,-0.076,12.3758928,66.5204238,-1.2032118,91.74776454000002,-1.0026765,131.23030032
4.02,402,-0.171,-1.017,-0.055,11.516455800000001,68.8122558,1.7188740000000002,91.84516740000001,-1.0599723,131.91212034
4.03,403,-0.199,-0.955,-0.033,10.4851314,75.00020219999998,3.6669312000000014,91.9311111,-1.14018642,132.65123616
4.04,404,-0.209,-0.8959999999999999,-0.02,10.0840608,80.95896540000003,4.9274388,92.00559564,-1.23758928,133.45337736000002
4.05,405,-0.207,-0.8540000000000001,-0.02,10.1413566,88.12094040000002,5.72958,92.06862102,-1.3750992,134.32427352
4.06,406,-0.182,-0.84,-0.008,9.6256944,95.6266902,6.6463128000000005,92.12591682,-1.50114996,135.26392464
4.07,407,-0.133,-0.8420000000000001,-0.003,8.880849000000003,101.8719324,7.5630456000000015,92.17748304,-1.64438946,136.27233072
4.08,408,-0.087,-0.848,-0.005,8.021412000000002,105.710751,7.906820400000001,92.21186052,-1.78762896,137.30938469999998
4.09,409,-0.056,-0.857,-0.005,6.589017,108.2317662,7.2765666,92.22904926,-1.93659804,138.37508658
4.1,410,-0.049,-0.8809999999999999,-0.023,4.8701430000000006,109.6068654,5.7868758000000025,92.2175901,-2.0626488000000003,139.45797720000002
4.109999999999999,411,-0.079,-0.92,-0.033,1.6615782,110.580894,2.8074942000000003,92.18321262,-2.1657812400000003,140.54659740000002
4.12,412,-0.119,-0.949,-0.03,-0.3437748,112.24247220000001,-0.2291832000000001,92.12018724,-2.2345362,141.65813592
4.13,413,-0.14800000000000002,-0.964,-0.012,-1.9480572,115.2218538,-3.2085648,92.03997312,-2.2746432600000004,142.79832233999997
4.14,414,-0.162,-0.973,0.004,-3.4950437999999995,119.34715140000002,-5.958763200000001,91.94257026,-2.2918320000000003,143.97861582000004
4.1499999999999995,415,-0.16,-0.974,0.015,-4.8701430000000006,123.3005616,-8.078707799999998,91.82224908,-2.29756158,145.19901636
4.16,416,-0.155,-0.971,0.033,-6.3598338,127.13938020000002,-9.6256944,91.69046874,-2.2746432600000004,146.45379438
4.17,417,-0.138,-0.967,0.043,-7.5057497999999985,131.6657484,-10.4278356,91.54149966,-2.24599536,147.76013862
4.18,418,-0.109,-0.962,0.042,-8.3651868,135.16079219999997,-10.6570188,91.386801,-2.21161788,149.09513076
4.1899999999999995,419,-0.086,-0.968,0.042,-8.479778399999999,139.2860898,-10.313244,91.22637276,-2.1772404,150.47595954000005
4.2,420,-0.064,-0.979,0.051,-8.250595200000001,142.2081756,-9.2819196,91.0716741,-2.15432208,151.87970664
4.21,421,-0.054000000000000006,-0.998,0.063,-7.161975,144.6145992,-7.448453999999999,90.92843459999999,-2.1485925000000003,153.31210163999995
4.22,422,-0.044,-1.021,0.067,-6.0733548,146.6199522,-5.72958,90.79092468,-2.15432208,154.76168538
4.2299999999999995,423,-0.037000000000000005,-1.039,0.069,-5.1566220000000005,149.14096740000005,-4.8701430000000006,90.66487392,-2.1657812400000003,156.23418744
4.24,424,-0.035,-1.05,0.07400000000000001,-3.4950437999999995,150.5160666,-5.042030400000002,90.55028232,-2.17151082,157.72387824
4.25,425,-0.034,-1.05,0.087,-1.7188740000000002,151.3182078,-5.844171599999999,90.45860904,-2.1657812400000003,159.21929862000005
4.26,426,-0.038,-1.036,0.1,-0.1718874,152.1776448,-7.333862400000001,90.3841245,-2.1485925000000003,160.72617816
4.27,427,-0.043,-1.016,0.093,0.8021411999999999,152.5214196,-9.0527364,90.31536954,-2.10848544,162.23305770000005
4.28,428,-0.046,-0.999,0.104,1.6615782,152.92249019999997,-10.5424272,90.25807374,-2.05118964,163.74566682
4.29,429,-0.051,-0.985,0.108,1.6042823999999998,154.92784319999996,-12.032117999999999,90.19504836000002,-1.98243468,165.28119426
4.3,430,-0.066,-0.971,0.107,0.8021411999999999,157.0477878,-13.407217200000002,90.13775256,-1.89649098,166.83391044
4.31,431,-0.099,-0.953,0.115,-0.4010706,158.36559119999995,-14.8396122,90.06326802,-1.7933585399999998,168.39808578
4.32,432,-0.161,-0.942,0.133,-2.1772404,157.3915626,-15.6990492,89.97159474,-1.6844965200000002,169.95653154
4.33,433,-0.201,-0.932,0.126,-5.3285094000000015,159.7979862,-15.813640800000002,89.85127356000002,-1.56990492,171.53216604
4.34,434,-0.196,-0.916,0.07400000000000001,-9.568398599999998,167.017257,-16.386598799999998,89.68511574,-1.44385416,173.18228508
4.35,435,-0.15,-0.937,0.05,-13.5791046,176.47106399999996,-17.131444199999994,89.48458044,-1.3178034,174.92980698
4.36,436,-0.08,-0.974,0.054000000000000006,-17.303331600000003,179.39314979999997,-16.673077799999998,89.24966766,-1.18602306,176.70024719999995
4.37,437,-0.033,-1.017,0.124,-17.9908812,177.96075480000005,-14.32395,89.00329572000004,-1.06570188,178.45349868
4.38,438,-0.003,-1.017,0.086,-17.3606274,181.2266154,-11.1153852,88.77411251999996,-0.9740286,-179.75411334
4.39,439,0.026,-0.978,0.037000000000000005,-17.5325148,186.497829,-8.9954406,88.53919973999999,-0.89381448,-177.91491816
4.3999999999999995,440,0.056,-0.954,0.023,-18.334656,189.07613999999998,-8.7089616,88.29855738,-0.8021412000000001,-176.04707507999996
4.41,441,0.109,-0.971,-0.021,-18.334656,190.795014,-8.651665800000002,88.0636446,-0.7104679199999999,-174.16777284
4.42,442,0.195,-1.0590000000000002,-0.064,-16.959556799999998,187.5864492,-6.0733548,87.84592056,-0.63598338,-172.3171185
4.43,443,0.253,-1.153,-0.068,-15.126091199999998,177.61698,0.5156622000000001,87.64538526,-0.61879464,-170.56386702
4.4399999999999995,444,0.277,-1.205,-0.05,-15.6990492,169.42368059999995,6.703608600000001,87.44484996,-0.66463128,-168.88510007999997
4.45,445,0.25,-1.18,-0.059,-17.5325148,165.98593259999996,9.740286,87.22712592,-0.7161975,-167.24644019999997
4.46,446,0.2,-1.121,-0.064,-19.1367972,165.01190400000004,9.740286,86.98648356,-0.7792228800000001,-165.61350990000003
4.47,447,0.14300000000000002,-1.071,-0.053,-19.0222056,162.8346636,8.250595200000001,86.75157078,-0.8193299399999999,-163.99776834000005
4.4799999999999995,448,0.093,-1.046,-0.03,-17.761698000000006,159.3969156,7.0473834,86.52811716,-0.8422482600000001,-162.42213384
4.49,449,0.067,-1.028,0.0,-16.329303,156.64671719999996,6.3598338,86.31612270000002,-0.8537074199999999,-160.87514724
4.5,450,0.066,-1.004,0.031,-15.0687954,156.01646340000005,6.130650599999999,86.12704656,-0.8479778399999999,-159.32816064
4.51,451,0.07,-0.988,0.054000000000000006,-13.464512999999998,157.62074579999995,5.5003968,85.9437,-0.8422482600000001,-157.76971488
4.52,452,0.078,-0.983,0.067,-12.032117999999999,160.7720148,4.1252976000000015,85.77754218,-0.8136003599999999,-156.18262122000004
4.53,453,0.096,-0.991,0.054000000000000006,-11.0580894,163.92328380000004,3.0366774,85.62284352,-0.76776372,-154.56115008
4.54,454,0.126,-1.0,0.045,-9.969469199999999,165.18379140000005,3.3231564,85.47387444,-0.72192708,-152.92821978
4.55,455,0.155,-1.005,0.051,-8.59437,163.6941006,4.1825934,85.35355326,-0.66463128,-151.31247822
4.56,456,0.168,-1.004,0.046,-7.2765666,161.1157896,5.3858052,85.24469124,-0.6302538000000001,-149.71965498
4.57,457,0.17800000000000002,-1.004,0.039,-5.844171599999999,158.2509996,6.8182002000000015,85.1415588,-0.61306506,-148.15547964
4.58,458,0.174,-0.993,0.034,-4.8701430000000006,154.87054740000005,7.906820400000001,85.0556151,-0.6016058999999999,-146.6199522
4.59,459,0.158,-0.971,0.036000000000000004,-3.151269,151.08902460000004,8.3651868,84.98686014,-0.59587632,-145.11880223999995
4.6,460,0.141,-0.944,0.044,-1.3750992,148.62530519999999,7.6203414,84.95248266,-0.5729580000000001,-143.65202976
4.61,461,0.129,-0.927,0.051,0.2291832000000001,147.42209340000005,5.958763200000001,84.91810518,-0.53858052,-142.19098686
4.62,462,0.118,-0.921,0.063,2.4064236,147.1356144,3.7815227999999994,84.91237559999998,-0.49274388,-140.73567354
4.63,463,0.109,-0.931,0.078,4.010706000000001,147.8804598,1.6042823999999998,84.91810518,-0.41825934,-139.27463064
4.64,464,0.108,-0.951,0.08800000000000001,4.9847345999999995,150.3441792,0.0,84.9410235,-0.32658606,-137.79066942
4.6499999999999995,465,0.12,-0.973,0.097,6.0733548,153.38085660000004,-0.286479,84.99258972,-0.21772404,-136.27806030000002
4.66,466,0.141,-0.991,0.095,7.3911582,155.3862096,0.7448454000000001,85.03842636,-0.13750992,-134.74253286
4.67,467,0.168,-0.994,0.097,9.5111028,156.18835080000005,3.151269,85.1129109,-0.07448454,-133.19554626
4.68,468,0.19,-0.987,0.102,11.172681,155.7299844,5.72958,85.20458418000003,-0.04583664,-131.65428924
4.6899999999999995,469,0.207,-0.976,0.102,12.5477802,154.92784319999996,8.136003599999999,85.30771662,-0.04010706,-130.11876180000002
4.7,470,0.215,-0.97,0.104,13.407217200000002,153.8965188,9.740286,85.43949696000001,-0.03437748,-128.59469352
4.71,471,0.223,-0.974,0.106,13.8082878,152.97978600000005,10.0840608,85.55408856,-0.057295800000000015,-127.07062524
4.72,472,0.23,-0.984,0.11,13.5791046,151.83387,9.3392154,85.67440974,-0.07448454,-125.5637457
4.7299999999999995,473,0.229,-1.006,0.109,12.6623718,150.28688340000005,7.9641161999999985,85.77754218,-0.0859437,-124.07405490000001
4.74,474,0.222,-1.04,0.092,11.4018642,148.7971926,6.3598338,85.87494504,-0.08021412,-122.60155284
4.75,475,0.214,-1.055,0.068,9.969469199999999,147.1356144,5.0993262,85.96088874,-0.04583664,-121.14050994
4.76,476,0.212,-1.054,0.068,9.740286,146.04699419999997,4.5263682,86.04110286,-0.03437748,-119.69665578
4.77,477,0.213,-1.043,0.07,9.740286,144.7291908,4.297185,86.12131698,-0.01718874,-118.26426078
4.78,478,0.217,-1.025,0.069,9.2819196,143.29679579999996,4.583664,86.19580152,-0.00572958,-116.84332494
4.79,479,0.227,-1.008,0.069,8.9381448,142.2081756,5.2712136,86.27028606,0.0,-115.43384826
4.8,480,0.237,-0.99,0.065,8.651665800000002,141.3487386,6.3025379999999975,86.34477059999998,0.00572958,-114.03583073999998
4.81,481,0.243,-0.975,0.057,8.5370742,140.71848480000003,7.2765666,86.41352556000002,-0.01145916,-112.63781322
4.82,482,0.241,-0.961,0.044,8.021412000000002,139.6298646,7.9641161999999985,86.47655094000002,-0.04583664,-111.25125486000002
4.83,483,0.243,-0.956,0.035,7.906820400000001,139.2860898,8.021412000000002,86.53957632,-0.07448454,-109.87042608
4.84,484,0.246,-0.961,0.019,8.479778399999999,138.082878,7.5630456000000015,86.60260170000002,-0.10886202,-108.50105646
4.85,485,0.247,-0.971,0.002,8.880849000000003,135.3899754,7.0473834,86.67708624000002,-0.10886202,-107.16033474
4.86,486,0.247,-0.984,-0.003,9.3965112,132.06681899999998,6.5317212,86.75157078,-0.13750992,-105.84826092
4.87,487,0.239,-0.994,0.0,10.6570188,129.20202899999998,6.3025379999999975,86.83751448000002,-0.16042824,-104.57056458
4.88,488,0.228,-0.996,-0.004,10.7716104,125.1340272,6.589017,86.92918776,-0.19480572,-103.32724572
4.89,489,0.212,-0.985,-0.005,9.5111028,120.2638842,6.6463128000000005,87.0036723,-0.2291832000000001,-102.13549308
4.8999999999999995,490,0.188,-0.982,0.002,8.021412000000002,116.1958824,5.844171599999999,87.06669767999998,-0.23491278,-100.9838475
4.91,491,0.157,-0.978,-0.008,5.844171599999999,112.013289,5.0993262,87.10680474,-0.26356068,-99.87230898
4.92,492,0.14,-0.968,-0.001,5.3858052,107.6015124,4.8701430000000006,87.14118221999998,-0.28647900000000004,-98.8066071
4.93,493,0.134,-0.961,0.006,5.72958,102.4448904,5.042030400000002,87.18128928,-0.31512690000000004,-97.78674186
4.9399999999999995,494,0.133,-0.966,0.009000000000000001,5.443101,97.40286,5.958763200000001,87.22139634,-0.34950438,-96.82417242
4.95,495,0.129,-0.967,0.011,3.380452200000001,92.1889422,6.703608600000001,87.23858508000002,-0.37815228,-95.90743962
4.96,496,0.108,-0.967,-0.022,0.4010706,85.084263,6.875496000000001,87.22712592,-0.4297185000000001,-95.06519136
4.97,497,0.054000000000000006,-0.98,-0.068,-2.7501984,77.46392159999998,5.443101,87.18128928,-0.46982556,-94.29742764
4.9799999999999995,498,-0.05,-1.05,-0.03,-4.8701430000000006,72.9948492,1.2605076000000002,87.1182639,-0.46409598,-93.57550056
4.99,499,-0.113,-1.097,0.01,-8.479778399999999,72.65107440000001,-4.5263682,87.01513145999998,-0.4010706000000001,-92.85930306
5.0,500,-0.135,-1.094,0.032,-10.026765,74.9429064,-10.0840608,86.91199902000002,-0.30366774,-92.12591682
5.01,501,-0.118,-1.043,0.038,-10.255948199999999,77.0055552,-14.2093584,86.79167784,-0.14323950000000002,-91.37534184
5.02,502,-0.069,-0.985,0.04,-8.078707799999998,79.4119788,-16.2147114,86.70000456,0.03437748,-90.59611896
5.03,503,-0.012,-0.957,0.05,-6.990087599999999,81.8756982,-15.6417534,86.61979044,0.21199446,-89.79970734
5.04,504,0.026,-0.982,0.065,-7.333862400000001,84.91237559999998,-12.834259199999998,86.53384674,0.36669312,-88.96891824000002
5.05,505,0.045,-1.048,0.055,-6.589017,87.49068659999998,-9.224623800000002,86.47655094000002,0.49274388,-88.10948124000002
5.06,506,0.048,-1.135,0.046,-4.3544808,86.0009958,-4.9847345999999995,86.42498472,0.5729580000000001,-87.26150340000002
5.07,507,0.038,-1.177,0.052000000000000005,-2.6929026,81.5892192,-0.3437748,86.39633682,0.6016058999999999,-86.4593622
5.08,508,0.033,-1.173,0.065,-1.9480572,78.2660628,3.8388186,86.37341849999999,0.59014674,-85.6858689
5.09,509,0.031,-1.137,0.07400000000000001,-2.0053530000000004,72.5937786,7.5057497999999985,86.35050018,0.5443101,-84.96394182
5.1,510,0.015,-1.103,0.07400000000000001,-2.0053530000000004,65.2599162,10.886202,86.35050018,0.4583664000000001,-84.31076970000002
5.11,511,0.001,-1.074,0.064,-1.0886202,60.332477399999995,13.2353298,86.33331144,0.34950438,-83.7091638
5.12,512,-0.006999999999999999,-1.051,0.046,0.8021411999999999,59.014674,13.464512999999998,86.33904102,0.24064236,-83.11901706
5.13,513,-0.016,-1.034,0.045,1.5469866,58.0979412,11.516455800000001,86.35050018,0.14323950000000002,-82.5345999
5.14,514,-0.025,-1.016,0.06,0.7448454000000001,56.8947294,8.651665800000002,86.35050018,0.08021412,-81.96737148
5.1499999999999995,515,-0.027000000000000003,-0.997,0.062,-0.4583664000000001,55.2331512,6.760904399999999,86.36195934,0.02291832,-81.42306138000002
5.16,516,-0.038,-0.98,0.064,-1.3750992,53.9153478,6.589017,86.34477059999998,-0.01718874,-80.88448086000002
5.17,517,-0.059,-0.962,0.064,-2.3491278,53.8007562,7.6203414,86.31039312,-0.07448454,-80.34590034
5.18,518,-0.077,-0.952,0.057,-2.4637194,54.7747848,9.1100322,86.27601564,-0.14323950000000002,-79.80159024000002
5.1899999999999995,519,-0.084,-0.953,0.046,-1.8334656000000005,56.149884,10.7143146,86.24736774,-0.2291832000000001,-79.24009140000003
5.2,520,-0.08199999999999999,-0.959,0.038,-1.2032118,56.4936588,11.4018642,86.24163816000002,-0.33804522,-78.67859256
5.21,521,-0.075,-0.972,0.036000000000000004,-0.1718874,57.4103916,11.2872726,86.23017899999998,-0.4297185000000001,-78.10563456
5.22,522,-0.063,-0.987,0.039,1.0886202,58.8427866,10.313244,86.23017899999998,-0.5099326200000001,-77.51548782
5.2299999999999995,523,-0.05,-0.995,0.036000000000000004,2.4064236,60.16059,8.59437,86.24163816000002,-0.5729580000000001,-76.91388192
5.24,524,-0.039,-1.0,0.038,3.3231564,60.44706899999999,7.1046792000000005,86.2588269,-0.61879464,-76.31227602
5.25,525,-0.028,-0.997,0.048,3.6669312000000014,60.16059,5.6722842,86.30466354,-0.65317212,-75.7163997
5.26,526,-0.019,-0.988,0.05,3.2658606,59.64492779999999,4.5263682,86.32185228,-0.67609044,-75.12625296
5.27,527,-0.009000000000000001,-0.98,0.045,2.9220857999999996,59.186561399999995,3.6669312000000014,86.33331144,-0.69327918,-74.53610622
5.28,528,0.0,-0.978,0.036000000000000004,3.151269,57.92605379999999,3.0366774,86.35622975999998,-0.70473834,-73.96314822000002
5.29,529,0.004,-0.983,0.028,3.4377480000000005,55.6915176,2.8074942000000003,86.37341849999999,-0.7104679199999999,-73.40737895999997
5.3,530,0.011,-0.989,0.025,3.2658606,52.6548402,2.6929026,86.41352556000002,-0.7104679199999999,-72.88598718
5.31,531,0.026,-0.994,0.012,3.2085648,48.5868384,1.9480572,86.43071429999998,-0.7161975,-72.40470246
5.32,532,0.038,-1.0,0.002,3.4950437999999995,44.8053156,0.8594370000000001,86.45363262000002,-0.70473834,-71.9635248
5.33,533,0.049,-1.012,-0.004,3.6096354,41.0810886,-0.11459160000000004,86.48228051999996,-0.69327918,-71.55672462
5.34,534,0.05,-1.022,-0.01,3.380452200000001,37.4714532,-0.8021411999999999,86.50519884,-0.6703608600000001,-71.18430192
5.35,535,0.039,-1.024,-0.006,3.151269,34.3201842,-1.0886202,86.5453059,-0.62452422,-70.8462567
5.36,536,0.023,-1.01,-0.003,3.0366774,31.627281600000003,-1.145916,86.56822422,-0.6016058999999999,-70.5311298
5.37,537,0.006,-0.996,-0.001,3.0366774,29.0489706,-1.0313244,86.59114253999998,-0.5844171599999999,-70.24465079999999
5.38,538,-0.006,-0.984,0.006999999999999999,2.9220857999999996,27.6165756,-0.9740286,86.61406086000002,-0.56722842,-69.96963095999999
5.39,539,-0.018000000000000002,-0.98,0.008,3.4377480000000005,26.5279554,-0.6875496,86.64270875999998,-0.55003968,-69.71179986
5.3999999999999995,540,-0.029,-0.985,0.011,4.583664,25.3247436,-0.11459160000000004,86.71146372000004,-0.55003968,-69.45969834
5.41,541,-0.039,-0.988,0.023,5.6149884000000005,25.210152,0.4010706,86.76302994,-0.55003968,-69.21332640000001
5.42,542,-0.046,-0.987,0.035,6.703608600000001,25.210152,0.7448454000000001,86.82605532,-0.55003968,-68.96122488
5.43,543,-0.051,-0.984,0.045,7.7349330000000025,25.0955604,0.6875496,86.90053986000002,-0.55003968,-68.71485294
5.4399999999999995,544,-0.056,-0.982,0.051,8.5370742,25.496631,0.4583664000000001,86.98075398,-0.5443101,-68.45702184000001
5.45,545,-0.064,-0.99,0.06,8.59437,26.1268848,-0.057295800000000015,87.10107516000002,-0.56149884,-68.20492032
5.46,546,-0.071,-0.999,0.06,7.8495246,27.444688199999998,-0.8021411999999999,87.17555970000002,-0.5443101,-67.93563006
5.47,547,-0.071,-1.009,0.057,6.417129599999999,28.762491600000004,-1.5469866,87.2328555,-0.52712136,-67.64915106
5.4799999999999995,548,-0.069,-1.02,0.052000000000000005,5.2139178,29.67922440000001,-2.3491278,87.27869214,-0.49274388,-67.35694248
5.49,549,-0.065,-1.025,0.043,4.8128472,30.0229992,-3.0366774,87.32452878000002,-0.4583664000000001,-67.05900432000001
5.5,550,-0.061,-1.025,0.041,5.443101,29.220858000000003,-3.5523396000000003,87.39901332,-0.43544808,-66.77825490000001
5.51,551,-0.051,-1.019,0.045,5.6149884000000005,28.8770832,-3.724227,87.45057954,-0.39534102,-66.49177590000001
5.52,552,-0.038,-1.013,0.052000000000000005,5.2139178,29.220858000000003,-3.8388186,87.49641618000004,-0.34950438,-66.20529690000001
5.53,553,-0.027000000000000003,-1.005,0.046,4.8128472,29.4500412,-3.8388186,87.54225282,-0.30366774,-65.91308832
5.54,554,-0.021,-1.0,0.037000000000000005,4.6982556,28.8770832,-3.8961144,87.58235988,-0.26356068,-65.62660932
5.55,555,-0.019,-1.011,0.038,4.1252976000000015,27.9603504,-3.6669312000000014,87.64538526,-0.22345362,-65.35731906
5.56,556,-0.016,-1.017,0.039,2.3491278,27.444688199999998,-3.8388186,87.66830358,-0.18334656,-65.08802879999999
5.57,557,-0.015,-1.015,0.027000000000000003,0.572958,26.069589,-3.9534102,87.66830358,-0.14323950000000002,-64.83019770000001
5.58,558,-0.015,-1.004,0.015,0.7448454000000001,24.1215318,-3.7815227999999994,87.67403316,-0.09740286,-64.58955533999999
5.59,559,-0.012,-1.002,0.005,1.8334656000000005,22.7464326,-3.380452200000001,87.68549232000002,-0.06302537999999999,-64.36610171999999
5.6,560,0.001,-1.008,-0.026,1.6042823999999998,23.0902074,-2.6929026,87.68549232000002,-0.02291832,-64.13691852000001
5.61,561,0.035,-1.026,-0.061,0.9740286,24.064235999999998,-2.1772404,87.69122189999999,0.0,-63.90200574000001
5.62,562,0.078,-1.0590000000000002,-0.065,0.9167328,23.7204612,-1.3178034,87.69695148,0.01145916,-63.66709296000001
5.63,563,0.106,-1.09,-0.05,1.4896908000000002,21.485925,-0.1718874,87.70841064,0.01718874,-63.4550985
5.64,564,0.108,-1.101,-0.034,2.291832,18.2773602,1.5469866,87.73132896,0.00572958,-63.27175193999999
5.6499999999999995,565,0.08900000000000001,-1.083,-0.025,2.2345362,14.667724800000002,3.6669312000000014,87.74851770000002,0.02291832,-63.11705328000001
5.66,566,0.052000000000000005,-1.044,-0.019,1.0313244,10.8289062,5.6722842,87.75997686000002,-0.02291832,-63.00819126
5.67,567,0.009000000000000001,-0.996,-0.006,-0.4010706,7.448453999999999,6.8182002000000015,87.75424728,-0.09167328,-62.93370672
5.68,568,-0.024,-0.954,0.001,-1.432395,6.875496000000001,6.8182002000000015,87.73705853999998,-0.16042824,-62.86495176
5.6899999999999995,569,-0.042,-0.923,-0.002,-2.4637194,9.167328,5.5576926,87.71414021999998,-0.21199446,-62.767548899999994
5.7,570,-0.042,-0.913,-0.005,-3.0939732,12.318597,2.8074942000000003,87.68549232000002,-0.26356068,-62.64722772
5.71,571,-0.031,-0.925,-0.011,-3.0366774,15.0114996,0.4010706,87.65111484,-0.26356068,-62.49825864
5.72,572,-0.014,-0.951,-0.015,-2.2345362,16.386598799999998,-1.0313244,87.62246694,-0.25210152,-62.33783040000001
5.7299999999999995,573,0.006999999999999999,-0.974,-0.02,-1.2032118,17.0741484,-1.3750992,87.61100778,-0.23491278,-62.171672580000006
5.74,574,0.026,-0.991,-0.019,-0.286479,16.902261,-0.9740286,87.59954862,-0.22345362,-62.00551476
5.75,575,0.036000000000000004,-1.001,-0.015,0.4010706,15.985528200000001,-0.286479,87.61100778,-0.17761697999999998,-61.83935694
5.76,576,0.037000000000000005,-1.006,-0.013,1.0886202,15.126091199999998,0.572958,87.61673736,-0.17761697999999998,-61.69038786
5.77,577,0.033,-1.006,-0.002,1.7188740000000002,14.896907999999998,1.3178034,87.6339261,-0.18907614,-61.54141878
5.78,578,0.029,-1.006,0.01,2.1772404,15.126091199999998,1.6615782,87.65111484,-0.20626488,-61.3924497
5.79,579,0.026,-1.006,0.016,2.5210152000000003,16.1001198,1.5469866,87.67403316,-0.21772404,-61.23202146
5.8,580,0.028,-1.01,0.011,2.6929026,16.615782,1.3178034,87.7198698,-0.20053530000000008,-61.06586364
5.81,581,0.03,-1.017,0.004,2.6356068,16.615782,1.145916,87.74851770000002,-0.21199446,-60.89970582
5.82,582,0.034,-1.02,0.0,2.6356068,16.1001198,0.8021411999999999,87.77143602000002,-0.21772404,-60.73927758000001
5.83,583,0.034,-1.017,0.0,2.6356068,15.126091199999998,0.2291832000000001,87.79435434000001,-0.21772404,-60.59030849999999
5.84,584,0.033,-1.008,0.003,2.6929026,13.980175199999998,-0.4010706,87.81727266,-0.21199446,-60.45279858
5.85,585,0.031,-0.998,0.005,2.578311,12.9488508,-1.2032118,87.8631093,-0.16042824,-60.32101824
5.86,586,0.028,-0.994,0.008,2.3491278,12.1467096,-2.0053530000000004,87.88602762000002,-0.13750992,-60.20069706
5.87,587,0.029,-1.002,0.009000000000000001,2.291832,11.6310474,-2.4064236,87.90894594,-0.11459160000000004,-60.08610546
5.88,588,0.033,-1.017,0.006,2.3491278,10.4851314,-2.5210152000000003,87.93186426,-0.0859437,-59.98297302
5.89,589,0.038,-1.034,0.006,2.291832,9.5111028,-2.4064236,87.95478258,-0.06302537999999999,-59.89129974
5.8999999999999995,590,0.046,-1.047,0.004,2.0053530000000004,8.651665800000002,-2.3491278,87.98916005999996,0.01718874,-59.79962646
5.91,591,0.047,-1.051,0.001,1.6042823999999998,8.021412000000002,-2.5210152000000003,88.0063488,0.04010706,-59.71941234
5.92,592,0.049,-1.044,0.0,0.8021411999999999,8.136003599999999,-2.7501984,88.01207838,0.06875496,-59.63919822
5.93,593,0.05,-1.032,0.002,-0.11459160000000004,8.250595200000001,-2.9793816000000004,88.01207838,0.09740286,-59.5589841
5.9399999999999995,594,0.05,-1.02,0.01,-0.7448454000000001,8.078707799999998,-3.2085648,88.00061922,0.13178034,-59.48449956
5.95,595,0.053,-1.014,0.01,-0.8594370000000001,8.651665800000002,-3.2658606,88.01780796,0.2291832000000001,-59.39282628
5.96,596,0.058,-1.015,0.003,-1.0886202,8.9381448,-3.2658606,88.0063488,0.26356068,-59.30688258
5.97,597,0.059,-1.02,0.0,-1.432395,8.193299399999999,-3.0366774,87.98916005999996,0.29793816,-59.22666846
5.9799999999999995,598,0.065,-1.029,0.002,-2.2345362,6.875496000000001,-2.578311,87.96624174,0.32085648,-59.15791349999999
5.99,599,0.071,-1.038,0.0,-3.0939732,5.5003968,-1.8907613999999997,87.93186426,0.3437748,-59.10634728
6.0,600,0.07400000000000001,-1.04,0.002,-4.0680017999999984,4.5263682,-1.2032118,87.92040510000002,0.4583664000000001,-59.04905147999999
