TimeStamp(s),FrameCounter,AccX,AccY,AccZ,GyrX,GyrY,GyrZ,EulerX,EulerY,EulerZ
0.01,1,-0.004,-0.9990000000000001,-0.10300000000000001,1.432395,-3.7815228,-1.3750992,92.12018724,0.39534102,-13.40148762
0.02,2,-0.004,-1.0,-0.10300000000000001,1.3178034,-3.8388186,-1.432395,92.13164640000001,0.41252976,-13.4358651
0.03,3,-0.003,-1.002,-0.1,1.3750992,-3.8388186,-1.432395,92.14883514,0.4297185000000001,-13.47597216
0.04,4,-0.005,-1.003,-0.099,1.2605076000000002,-3.7242269999999995,-1.3178034,92.1602943,0.44690724,-13.51034964
0.05,5,-0.006999999999999999,-1.003,-0.09699999999999999,1.145916,-3.6096353999999997,-1.3178034,92.08008018,0.4526368200000001,-13.550456700000002
0.060000000000000005,6,-0.008,-1.002,-0.09699999999999999,0.8594370000000001,-3.3231564,-1.2605076000000002,92.09153934,0.46982556,-13.584834179999998
0.06999999999999999,7,-0.006999999999999999,-1.002,-0.09699999999999999,0.8021411999999999,-2.6929026,-1.2032118,92.09726892,0.48128472,-13.6077525
0.08,8,-0.006,-1.002,-0.098,0.6875496,-2.291832,-1.0313244000000001,92.1029985,0.49274388,-13.63067082
0.09,9,-0.003,-1.003,-0.099,0.6302538000000001,-1.9480572,-0.8021411999999999,92.10872808,0.5042030399999999,-13.65358914
0.09999999999999999,10,-0.001,-1.003,-0.1,0.6302538000000001,-1.8334656000000005,-0.572958,91.93684068,0.5042030399999999,-13.67077788
0.11,11,0.0,-1.002,-0.102,0.572958,-1.8907614,-0.2291832000000001,91.94257026,0.5099326200000001,-13.6936962
0.12,12,0.0,-1.002,-0.102,0.572958,-1.7761698000000001,-0.057295800000000015,91.94829984,0.5099326200000001,-13.71088494
0.13,13,-0.001,-1.0,-0.102,0.6875496,-1.6042823999999998,0.0,91.95402942,0.5099326200000001,-13.72807368
0.14,14,-0.003,-0.998,-0.1,0.6875496,-1.2032118,-0.057295800000000015,91.95975899999999,0.5156622000000001,-13.73953284
0.15000000000000002,15,-0.003,-0.998,-0.10099999999999999,0.8021411999999999,-0.8021411999999999,-0.2291832000000001,91.65036168,0.49274388,-13.75672158
0.16,16,-0.004,-0.9990000000000001,-0.099,0.8021411999999999,-0.3437748,-0.286479,91.65609126,0.49274388,-13.75672158
0.17,17,-0.004,-1.0,-0.096,0.6875496,-0.11459160000000004,-0.3437748,91.66182084,0.4984734599999999,-13.76245116
0.18000000000000002,18,0.0,-1.001,-0.095,0.4583664000000001,0.0,-0.286479,91.66755042,0.5042030399999999,-13.76245116
0.19,19,0.0,-1.002,-0.095,0.40107059999999994,0.2291832000000001,-0.057295800000000015,91.67328,0.5042030399999999,-13.75672158
0.2,20,0.002,-1.003,-0.094,0.286479,0.5156622000000001,0.0,91.13469948,0.4984734599999999,-13.750992000000002
0.21000000000000002,21,0.003,-1.002,-0.096,0.1718874,0.8021411999999999,0.11459160000000004,91.14042906,0.4984734599999999,-13.73953284
0.22,22,0.003,-1.001,-0.095,0.286479,1.0886202,0.2291832000000001,91.14042906,0.4984734599999999,-13.72807368
0.23,23,0.003,-1.001,-0.094,0.4583664000000001,0.9740286,0.3437748,91.14615864,0.49274388,-13.722344099999999
0.24000000000000002,24,0.001,-0.9990000000000001,-0.094,0.6302538000000001,0.9167328000000001,0.286479,91.15188822,0.4870143000000001,-13.71088494
0.25,25,0.0,-0.9990000000000001,-0.092,0.8594370000000001,0.8594370000000001,0.1718874,90.91124586,0.48128472,-13.70515536
0.26,26,0.0,-0.9990000000000001,-0.092,0.8594370000000001,0.7448454000000001,0.057295800000000015,90.92270502,0.48128472,-13.6936962
0.27,27,-0.001,-0.9990000000000001,-0.092,0.9740286,0.6875496,0.0,90.9284346,0.47555514,-13.687966619999996
0.28,28,0.0,-1.003,-0.09,1.0313244000000001,1.0313244000000001,-0.057295800000000015,90.93989376,0.48128472,-13.67650746
0.29000000000000004,29,0.001,-1.002,-0.087,0.8021411999999999,1.432395,0.0,90.95135292,0.48128472,-13.6650483
0.3,30,0.003,-1.003,-0.08800000000000001,0.572958,1.6042823999999998,0.0,90.74508804,0.48128472,-13.64785956
0.31,31,0.005,-1.004,-0.091,0.4583664000000001,1.7761698000000001,0.1718874,90.75081762,0.47555514,-13.63067082
0.32,32,0.006,-1.004,-0.09300000000000001,0.3437748,1.7761698000000001,0.2291832000000001,90.7565472,0.47555514,-13.61348208
0.33,33,0.006999999999999999,-1.004,-0.094,0.286479,1.5469866,0.2291832000000001,90.7565472,0.46982556,-13.596293340000004
0.34,34,0.008,-1.004,-0.095,0.057295800000000015,1.432395,0.1718874,90.76227678,0.46982556,-13.5791046
0.35000000000000003,35,0.009000000000000001,-1.003,-0.096,0.0,1.2032118,0.057295800000000015,90.42996114,0.4870143000000001,-13.55618628
0.36000000000000004,36,0.008,-1.002,-0.098,0.0,1.2032118,0.0,90.42996114,0.4870143000000001,-13.54472712
0.37,37,0.006999999999999999,-1.002,-0.096,0.11459160000000004,0.9740286,0.0,90.42996114,0.4870143000000001,-13.53326796
0.38,38,0.005,-1.001,-0.096,0.2291832000000001,0.3437748,-0.057295800000000015,90.43569072,0.4870143000000001,-13.53326796
0.39,39,0.004,-1.0,-0.095,0.1718874,0.057295800000000015,-0.11459160000000004,90.43569072,0.4870143000000001,-13.53326796
0.4,40,0.004,-1.001,-0.094,0.11459160000000004,0.0,-0.1718874,89.36998884,0.4870143000000001,-13.52753838
0.41000000000000003,41,0.004,-1.002,-0.09300000000000001,0.11459160000000004,0.0,-0.2291832000000001,89.36998884,0.4870143000000001,-13.52753838
0.42000000000000004,42,0.004,-1.002,-0.094,0.11459160000000004,0.0,-0.286479,89.36998884,0.49274388,-13.52753838
0.43,43,0.004,-1.004,-0.094,0.1718874,0.0,-0.3437748,89.37571842,0.4984734599999999,-13.52753838
0.44,44,0.006,-1.002,-0.09300000000000001,0.11459160000000004,0.0,-0.3437748,89.37571842,0.4984734599999999,-13.52753838
0.45,45,0.006999999999999999,-1.001,-0.094,0.1718874,-0.2291832000000001,-0.3437748,88.96891824000002,0.5156622000000001,-13.521808800000002
0.46,46,0.006,-1.001,-0.09300000000000001,0.286479,-0.3437748,-0.3437748,88.97464782,0.52139178,-13.52753838
0.47000000000000003,47,0.006,-1.001,-0.092,0.286479,-0.6875496,-0.286479,88.97464782,0.52712136,-13.53326796
0.48000000000000004,48,0.005,-1.002,-0.09300000000000001,0.286479,-0.6875496,-0.3437748,88.98037740000002,0.52712136,-13.54472712
0.49,49,0.004,-1.002,-0.09300000000000001,0.4583664000000001,-0.6875496,-0.2291832000000001,88.98610698,0.53285094,-13.550456700000002
0.5,50,0.003,-1.002,-0.092,0.572958,-0.9167328000000001,-0.1718874,88.82567874,0.52712136,-13.56191586
0.51,51,0.001,-1.001,-0.092,0.572958,-1.145916,-0.2291832000000001,88.83140832000002,0.53285094,-13.57337502
0.52,52,0.001,-1.002,-0.091,0.572958,-1.0886202,-0.2291832000000001,88.8371379,0.53285094,-13.5791046
0.53,53,0.004,-1.004,-0.08900000000000001,0.3437748,-1.0313244000000001,-0.2291832000000001,88.84286748000002,0.53858052,-13.59056376
0.54,54,0.005,-1.006,-0.092,0.1718874,-0.7448454000000001,-0.2291832000000001,88.84286748000002,0.53858052,-13.60202292
0.55,55,0.006,-1.0070000000000001,-0.09300000000000001,0.286479,-0.5156622000000001,-0.1718874,88.56784764,0.55003968,-13.60202292
0.56,56,0.006999999999999999,-1.005,-0.095,0.4583664000000001,-0.8021411999999999,-0.2291832000000001,88.57357721999998,0.55003968,-13.6077525
0.5700000000000001,57,0.005,-1.004,-0.095,0.4583664000000001,-1.2032118,-0.1718874,88.57930680000004,0.55576926,-13.61921166
0.5800000000000001,58,0.006999999999999999,-1.001,-0.095,0.5156622000000001,-1.6615782,-0.2291832000000001,88.58503637999998,0.55576926,-13.636400400000001
0.59,59,0.006999999999999999,-0.998,-0.09300000000000001,0.6875496,-2.0053530000000004,-0.1718874,88.59076596,0.55576926,-13.659318719999998
0.6,60,0.005,-0.998,-0.091,0.6875496,-1.9480572,-0.2291832000000001,88.49909268,0.56149884,-13.67650746
0.61,61,0.004,-0.9990000000000001,-0.08900000000000001,0.572958,-1.6615782,-0.11459160000000004,88.50482226,0.56149884,-13.6936962
0.62,62,0.001,-1.002,-0.09,0.5156622000000001,-1.432395,-0.11459160000000004,88.51055184,0.56149884,-13.71088494
0.63,63,0.001,-1.003,-0.092,0.3437748,-1.4896908000000002,-0.1718874,88.51628142,0.56722842,-13.722344099999999
0.64,64,0.002,-1.003,-0.09300000000000001,0.3437748,-1.4896908000000002,-0.286479,88.51628142,0.56722842,-13.73953284
0.65,65,0.003,-1.002,-0.09300000000000001,0.286479,-1.5469866,-0.2291832000000001,88.37304191999998,0.56722842,-13.75672158
0.66,66,0.003,-1.003,-0.096,0.286479,-1.6615782,-0.3437748,88.3787715,0.5729580000000001,-13.77391032
0.67,67,0.003,-1.004,-0.096,0.3437748,-1.6615782,-0.40107059999999994,88.3787715,0.5786875800000001,-13.79109906
0.68,68,0.004,-1.003,-0.095,0.4583664000000001,-1.7188740000000002,-0.40107059999999994,88.38450107999998,0.5844171599999999,-13.8082878
0.6900000000000001,69,0.002,-1.002,-0.09300000000000001,0.40107059999999994,-1.9480572,-0.3437748,88.39023066,0.5844171599999999,-13.82547654
0.7000000000000001,70,0.001,-1.0,-0.09300000000000001,0.40107059999999994,-1.9480572,-0.40107059999999994,88.27563906,0.5786875800000001,-13.84839486
0.7100000000000001,71,0.0,-0.9990000000000001,-0.09300000000000001,0.40107059999999994,-1.8334656000000005,-0.40107059999999994,88.28136864,0.5844171599999999,-13.8655836
0.72,72,0.0,-1.0,-0.09300000000000001,0.2291832000000001,-1.6042823999999998,-0.40107059999999994,88.28136864,0.59014674,-13.88277234
0.73,73,0.0,-1.0,-0.09300000000000001,0.1718874,-1.6042823999999998,-0.40107059999999994,88.28709822,0.59587632,-13.89996108
0.74,74,-0.001,-1.0,-0.094,0.2291832000000001,-1.5469866,-0.40107059999999994,88.28709822,0.6016058999999999,-13.91714982
0.75,75,0.0,-1.001,-0.094,0.1718874,-1.3750992,-0.40107059999999994,88.13812913999998,0.59014674,-13.93433856
0.76,76,0.0,-1.001,-0.094,0.2291832000000001,-1.2605076000000002,-0.40107059999999994,88.13812913999998,0.59587632,-13.945797720000002
0.77,77,0.001,-1.0,-0.094,0.2291832000000001,-1.0886202,-0.40107059999999994,88.14385872,0.6016058999999999,-13.95725688
0.78,78,0.0,-1.002,-0.095,0.1718874,-0.7448454000000001,-0.40107059999999994,88.14385872,0.6073354799999999,-13.96298646
0.79,79,0.0,-1.002,-0.094,0.3437748,-0.8021411999999999,-0.3437748,88.14958829999998,0.6073354799999999,-13.97444562
0.8,80,0.0,-1.001,-0.095,0.4583664000000001,-1.0313244000000001,-0.40107059999999994,88.01780796,0.6016058999999999,-13.99163436
0.81,81,-0.002,-1.0,-0.095,0.5156622000000001,-1.0313244000000001,-0.40107059999999994,88.02353753999998,0.6016058999999999,-13.99736394
0.8200000000000001,82,0.0,-1.001,-0.09300000000000001,0.4583664000000001,-0.8594370000000001,-0.3437748,88.02926712000001,0.6073354799999999,-14.008823099999995
0.8300000000000001,83,0.0,-1.0,-0.09300000000000001,0.3437748,-0.6875496,-0.40107059999999994,88.03499670000002,0.61306506,-14.01455268
0.8400000000000001,84,0.001,-1.002,-0.09300000000000001,0.1718874,-0.3437748,-0.40107059999999994,88.03499670000002,0.61879464,-14.020282259999998
0.85,85,0.002,-1.002,-0.095,0.1718874,-0.286479,-0.40107059999999994,87.70841064,0.59587632,-14.03174142
0.86,86,0.002,-1.002,-0.095,0.286479,-0.11459160000000004,-0.3437748,87.71414021999998,0.6016058999999999,-14.03174142
0.87,87,0.002,-1.002,-0.09300000000000001,0.40107059999999994,-0.3437748,-0.3437748,87.71414021999998,0.6073354799999999,-14.037471000000002
0.88,88,0.002,-1.002,-0.092,0.3437748,-0.3437748,-0.286479,87.7198698,0.6073354799999999,-14.037471000000002
0.89,89,0.002,-1.002,-0.091,0.3437748,-0.2291832000000001,-0.2291832000000001,87.72559937999998,0.61306506,-14.04320058
0.9,90,0.003,-1.001,-0.09300000000000001,0.286479,-0.057295800000000015,-0.1718874,87.41047248,0.6016058999999999,-14.04893016
0.91,91,0.004,-1.003,-0.09300000000000001,0.3437748,-0.057295800000000015,-0.1718874,87.41620206,0.6073354799999999,-14.04893016
0.92,92,0.004,-1.005,-0.092,0.2291832000000001,-0.286479,-0.1718874,87.41620206,0.6073354799999999,-14.04893016
0.93,93,0.003,-1.004,-0.092,0.11459160000000004,-0.286479,-0.286479,87.41620206,0.6073354799999999,-14.05465974
0.9400000000000001,94,0.002,-1.003,-0.091,0.0,-0.11459160000000004,-0.286479,87.41620206,0.61306506,-14.05465974
0.9500000000000001,95,0.001,-1.002,-0.091,-0.11459160000000004,-0.11459160000000004,-0.2291832000000001,87.00940188,0.5844171599999999,-14.0661189
0.9600000000000001,96,0.001,-1.001,-0.09,-0.057295800000000015,0.0,-0.2291832000000001,87.00940188,0.59014674,-14.0661189
0.97,97,0.002,-1.002,-0.08800000000000001,-0.2291832000000001,0.0,-0.286479,87.00940188,0.59014674,-14.0661189
0.98,98,0.001,-1.002,-0.087,-0.3437748,-0.057295800000000015,-0.286479,87.0036723,0.59587632,-14.07184848
0.99,99,0.004,-1.003,-0.08800000000000001,-0.40107059999999994,0.0,-0.3437748,86.99794272,0.59587632,-14.07184848
1.0,100,0.005,-1.005,-0.08800000000000001,-0.4583664000000001,0.057295800000000015,-0.40107059999999994,86.82605532,0.6073354799999999,-14.0661189
1.01,101,0.006999999999999999,-1.004,-0.08900000000000001,-0.40107059999999994,0.057295800000000015,-0.3437748,86.82032574,0.6073354799999999,-14.0661189
1.02,102,0.006999999999999999,-1.004,-0.08800000000000001,-0.40107059999999994,-0.057295800000000015,-0.3437748,86.81459616,0.61306506,-14.0661189
1.03,103,0.006999999999999999,-1.005,-0.08900000000000001,-0.40107059999999994,-0.11459160000000004,-0.3437748,86.80886658,0.61879464,-14.07184848
1.04,104,0.006999999999999999,-1.005,-0.086,-0.40107059999999994,-0.057295800000000015,-0.3437748,86.80886658,0.61879464,-14.07184848
1.05,105,0.006,-1.003,-0.087,-0.40107059999999994,0.0,-0.286479,86.58541296,0.62452422,-14.07184848
1.06,106,0.006,-1.003,-0.087,-0.4583664000000001,0.057295800000000015,-0.286479,86.57968338,0.62452422,-14.07184848
1.07,107,0.006999999999999999,-1.001,-0.08800000000000001,-0.40107059999999994,0.2291832000000001,-0.3437748,86.5739538,0.6302538000000001,-14.0661189
1.08,108,0.006999999999999999,-1.002,-0.091,-0.286479,0.2291832000000001,-0.286479,86.5739538,0.6302538000000001,-14.0661189
1.09,109,0.008,-1.001,-0.091,-0.2291832000000001,0.0,-0.4583664000000001,86.56822422,0.63598338,-14.0661189
1.1,110,0.008,-1.003,-0.091,-0.1718874,-0.40107059999999994,-0.5156622000000001,86.43071429999998,0.64744254,-14.0661189
1.11,111,0.009000000000000001,-1.003,-0.091,-0.3437748,-0.572958,-0.4583664000000001,86.42498472,0.65317212,-14.07757806
1.12,112,0.009000000000000001,-1.005,-0.08900000000000001,-0.40107059999999994,-0.8594370000000001,-0.4583664000000001,86.41925513999998,0.65317212,-14.08330764
1.1300000000000001,113,0.009000000000000001,-1.005,-0.091,-0.5156622000000001,-0.9167328000000001,-0.5156622000000001,86.41352556000002,0.6589017,-14.0947668
1.1400000000000001,114,0.008,-1.006,-0.09,-0.6302538000000001,-0.9167328000000001,-0.572958,86.40779597999996,0.66463128,-14.10049638
1.1500000000000001,115,0.008,-1.004,-0.091,-0.7448454000000001,-0.8594370000000001,-0.4583664000000001,86.32758186,0.6703608600000001,-14.11195554
1.1600000000000001,116,0.006999999999999999,-1.002,-0.092,-0.9167328000000001,-0.8594370000000001,-0.5156622000000001,86.32185228,0.67609044,-14.123414699999998
1.17,117,0.006,-1.001,-0.091,-0.5156622000000001,-0.5156622000000001,-0.1718874,86.31612270000002,0.67609044,-14.12914428
1.18,118,0.006,-1.001,-0.092,-0.4583664000000001,-0.40107059999999994,-0.11459160000000004,86.31039312,0.68182002,-14.12914428
1.19,119,0.006999999999999999,-1.0,-0.092,-0.5156622000000001,-0.40107059999999994,-0.1718874,86.30466354,0.68182002,-14.13487386
1.2,120,0.006,-0.9990000000000001,-0.092,-0.572958,-0.4583664000000001,-0.1718874,86.16715362,0.68182002,-14.14060344
1.21,121,0.005,-1.0,-0.092,-0.6302538000000001,-0.2291832000000001,-0.1718874,86.16142404,0.6875496,-14.14060344
1.22,122,0.006,-1.002,-0.092,-0.6875496,0.0,0.0,86.15569446,0.6875496,-14.14633302
1.23,123,0.005,-1.003,-0.092,-0.6302538000000001,0.1718874,0.0,86.14996488,0.6875496,-14.14060344
1.24,124,0.005,-1.005,-0.092,-0.6302538000000001,0.3437748,0.0,86.1442353,0.6875496,-14.14060344
1.25,125,0.006999999999999999,-1.005,-0.092,-0.572958,0.40107059999999994,0.0,86.01245496,0.6875496,-14.13487386
1.26,126,0.006,-1.003,-0.095,-0.572958,0.11459160000000004,0.0,86.00672538,0.6875496,-14.12914428
1.27,127,0.006999999999999999,-1.0,-0.098,-0.2291832000000001,-0.1718874,0.057295800000000015,86.0009958,0.6875496,-14.13487386
1.28,128,0.008,-0.998,-0.098,0.0,-0.3437748,0.1718874,86.0009958,0.68182002,-14.13487386
1.29,129,0.008,-0.997,-0.09699999999999999,0.0,-0.5156622000000001,0.1718874,86.0009958,0.68182002,-14.14060344
1.3,130,0.008,-0.998,-0.096,0.0,-0.572958,0.1718874,85.82910840000002,0.68182002,-14.14633302
1.31,131,0.006,-1.001,-0.096,0.0,-0.6302538000000001,0.057295800000000015,85.82910840000002,0.68182002,-14.152062600000002
1.32,132,0.005,-1.002,-0.096,0.057295800000000015,-0.40107059999999994,0.0,85.83483798,0.68182002,-14.15779218
1.33,133,0.001,-1.002,-0.096,0.057295800000000015,-0.286479,-0.057295800000000015,85.83483798,0.68182002,-14.15779218
1.34,134,0.002,-1.0,-0.096,0.057295800000000015,-0.286479,-0.11459160000000004,85.83483798,0.68182002,-14.16352176
1.35,135,0.003,-1.001,-0.098,0.0,-0.11459160000000004,-0.11459160000000004,85.45095612,0.65317212,-14.17498092
1.36,136,0.004,-1.0,-0.09699999999999999,-0.057295800000000015,-0.11459160000000004,-0.057295800000000015,85.45095612,0.6589017,-14.17498092
1.37,137,0.004,-1.001,-0.096,0.0,0.0,-0.057295800000000015,85.44522654,0.6589017,-14.17498092
1.3800000000000001,138,0.005,-1.002,-0.096,0.0,0.286479,0.0,85.44522654,0.6589017,-14.17498092
1.3900000000000001,139,0.006,-1.002,-0.096,-0.2291832000000001,0.4583664000000001,0.0,85.44522654,0.6589017,-14.16925134
1.4000000000000001,140,0.006,-1.001,-0.09699999999999999,-0.3437748,0.6302538000000001,0.11459160000000004,85.33636451999998,0.64744254,-14.16352176
1.4100000000000001,141,0.004,-1.0,-0.1,-0.1718874,0.7448454000000001,0.1718874,85.33063494000002,0.64744254,-14.15779218
1.42,142,0.004,-0.9990000000000001,-0.1,-0.11459160000000004,0.8021411999999999,0.1718874,85.33063494000002,0.64744254,-14.152062600000002
1.43,143,0.003,-0.997,-0.1,0.0,0.8021411999999999,0.286479,85.33063494000002,0.64171296,-14.14060344
1.44,144,0.002,-0.998,-0.098,0.057295800000000015,0.6875496,0.2291832000000001,85.33063494000002,0.64171296,-14.13487386
1.45,145,0.003,-0.9990000000000001,-0.09699999999999999,0.11459160000000004,0.572958,0.2291832000000001,85.21031375999998,0.61879464,-14.13487386
1.46,146,0.002,-1.0,-0.098,0.11459160000000004,0.572958,0.057295800000000015,85.21031375999998,0.61879464,-14.12914428
1.47,147,0.003,-1.002,-0.09699999999999999,0.0,0.8021411999999999,0.057295800000000015,85.21031375999998,0.61879464,-14.123414699999998
1.48,148,0.005,-1.002,-0.09699999999999999,0.2291832000000001,0.7448454000000001,-0.057295800000000015,85.21031375999998,0.61879464,-14.11195554
1.49,149,0.006,-1.002,-0.09699999999999999,0.1718874,0.7448454000000001,0.0,85.21604334,0.61879464,-14.10622596
1.5,150,0.006,-1.0,-0.09699999999999999,0.1718874,0.8021411999999999,0.0,85.11864048,0.62452422,-14.0947668
1.51,151,0.008,-1.0,-0.1,0.11459160000000004,0.9740286,0.0,85.11864048,0.62452422,-14.08330764
1.52,152,0.008,-1.0,-0.1,0.11459160000000004,1.0313244000000001,0.057295800000000015,85.12437006,0.62452422,-14.07757806
1.53,153,0.008,-0.998,-0.1,0.1718874,1.0313244000000001,0.0,85.12437006,0.62452422,-14.0661189
1.54,154,0.008,-1.0,-0.1,0.11459160000000004,0.9167328000000001,0.057295800000000015,85.12437006,0.62452422,-14.05465974
1.55,155,0.008,-1.001,-0.1,0.1718874,0.9740286,0.057295800000000015,85.04988552,0.6302538000000001,-14.04320058
1.56,156,0.008,-1.001,-0.10099999999999999,0.286479,0.8021411999999999,0.057295800000000015,85.0556151,0.6302538000000001,-14.037471000000002
1.57,157,0.008,-1.0,-0.1,0.3437748,0.6875496,0.11459160000000004,85.0556151,0.6302538000000001,-14.02601184
1.58,158,0.009000000000000001,-0.998,-0.10099999999999999,0.40107059999999994,0.4583664000000001,0.057295800000000015,85.06134468,0.6302538000000001,-14.02601184
1.59,159,0.011000000000000001,-0.998,-0.098,0.4583664000000001,0.2291832000000001,0.057295800000000015,85.06707426,0.6302538000000001,-14.020282259999998
1.6,160,0.012,-0.9990000000000001,-0.098,0.40107059999999994,0.2291832000000001,0.11459160000000004,84.95821224,0.64744254,-14.008823099999995
1.61,161,0.012,-1.001,-0.1,0.286479,0.3437748,0.2291832000000001,84.95821224,0.64171296,-14.008823099999995
1.62,162,0.012,-1.001,-0.099,0.286479,0.4583664000000001,0.286479,84.96394182,0.64171296,-14.003093519999998
1.6300000000000001,163,0.011000000000000001,-1.001,-0.1,0.4583664000000001,0.3437748,0.3437748,84.96967140000002,0.63598338,-13.99736394
1.6400000000000001,164,0.01,-1.001,-0.099,0.5156622000000001,0.1718874,0.2291832000000001,84.97540097999997,0.63598338,-13.99736394
1.6500000000000001,165,0.01,-1.0,-0.099,0.572958,0.2291832000000001,0.1718874,84.89518686,0.64744254,-13.985904779999998
1.6600000000000001,166,0.013000000000000001,-0.9990000000000001,-0.099,0.6875496,-0.057295800000000015,0.2291832000000001,84.90664602000003,0.64744254,-13.985904779999998
1.6700000000000002,167,0.012,-0.9990000000000001,-0.10099999999999999,0.8021411999999999,-0.3437748,0.2291832000000001,84.91237559999998,0.64171296,-13.99163436
1.68,168,0.012,-0.9990000000000001,-0.102,0.8021411999999999,-0.5156622000000001,0.1718874,84.91810518,0.64171296,-13.99736394
1.69,169,0.013999999999999999,-1.0,-0.099,0.9740286,-0.6302538000000001,0.1718874,84.92956434,0.64171296,-14.003093519999998
1.7,170,0.013000000000000001,-1.0,-0.098,0.9740286,-0.6302538000000001,0.286479,84.89518686,0.64744254,-14.003093519999998
1.71,171,0.011000000000000001,-1.0,-0.098,0.9740286,-0.572958,0.2291832000000001,84.90664602000003,0.64171296,-14.008823099999995
1.72,172,0.01,-1.0,-0.099,0.9740286,-0.6302538000000001,0.1718874,84.91810518,0.64171296,-14.01455268
1.73,173,0.01,-0.9990000000000001,-0.099,0.8021411999999999,-0.572958,0.1718874,84.92383476,0.63598338,-14.020282259999998
1.74,174,0.01,-0.9990000000000001,-0.098,0.8594370000000001,-0.4583664000000001,0.1718874,84.93529392,0.63598338,-14.02601184
1.75,175,0.009000000000000001,-1.001,-0.099,0.9167328000000001,-0.40107059999999994,0.1718874,84.88945728,0.63598338,-14.03174142
1.76,176,0.008,-1.0,-0.09699999999999999,0.7448454000000001,-0.5156622000000001,0.1718874,84.89518686,0.63598338,-14.03174142
1.77,177,0.01,-1.0,-0.096,0.6875496,-0.5156622000000001,0.11459160000000004,84.90091644,0.63598338,-14.037471000000002
1.78,178,0.011000000000000001,-1.0,-0.098,0.6302538000000001,-0.40107059999999994,0.2291832000000001,84.90664602000003,0.6302538000000001,-14.04320058
1.79,179,0.012,-0.9990000000000001,-0.10099999999999999,0.8021411999999999,-0.572958,0.3437748,84.91810518,0.6302538000000001,-14.04893016
1.8,180,0.012,-0.9990000000000001,-0.102,0.9167328000000001,-0.8021411999999999,0.3437748,84.87799812,0.6302538000000001,-14.05465974
1.81,181,0.011000000000000001,-0.998,-0.102,1.2032118,-0.9740286,0.4583664000000001,84.88945728,0.62452422,-14.060389320000002
1.82,182,0.01,-0.997,-0.10099999999999999,1.3750992,-1.0886202,0.286479,84.90091644,0.62452422,-14.07184848
1.83,183,0.008,-1.0,-0.10099999999999999,1.4896908000000002,-1.2032118,0.2291832000000001,84.91810518,0.61879464,-14.08330764
1.84,184,0.006999999999999999,-1.001,-0.098,1.3750992,-1.145916,0.2291832000000001,84.92956434,0.61879464,-14.0947668
1.85,185,0.006,-1.002,-0.098,1.2605076000000002,-0.9167328000000001,0.286479,84.90664602000003,0.61306506,-14.10622596
1.86,186,0.006,-1.001,-0.099,1.2032118,-0.6302538000000001,0.286479,84.91810518,0.6073354799999999,-14.11195554
1.87,187,0.008,-1.002,-0.1,1.2032118,-0.4583664000000001,0.286479,84.92956434,0.6073354799999999,-14.11768512
1.8800000000000001,188,0.006999999999999999,-0.9990000000000001,-0.102,1.3178034,-0.40107059999999994,0.2291832000000001,84.94675308000002,0.6016058999999999,-14.11768512
1.8900000000000001,189,0.006999999999999999,-1.0,-0.10300000000000001,1.432395,-0.5156622000000001,0.2291832000000001,84.95821224,0.6016058999999999,-14.123414699999998
1.9000000000000001,190,0.006999999999999999,-0.998,-0.10300000000000001,1.6615782,-0.572958,0.1718874,84.92956434,0.6016058999999999,-14.12914428
1.9100000000000001,191,0.006999999999999999,-0.996,-0.1,1.7761698000000001,-0.6875496,0.0,84.94675308000002,0.59587632,-14.13487386
1.9200000000000002,192,0.008,-0.996,-0.098,1.7761698000000001,-0.7448454000000001,0.0,84.96967140000002,0.59587632,-14.14633302
1.93,193,0.006999999999999999,-0.998,-0.09699999999999999,1.8907614,-0.8021411999999999,0.0,84.98686014,0.59587632,-14.152062600000002
1.94,194,0.005,-0.9990000000000001,-0.096,1.7761698000000001,-0.572958,0.057295800000000015,85.00404888,0.59587632,-14.15779218
1.95,195,0.005,-1.001,-0.096,1.8334656000000005,-0.40107059999999994,0.11459160000000004,84.98113056000003,0.59587632,-14.16352176
1.96,196,0.006,-1.004,-0.096,1.7188740000000002,-0.057295800000000015,0.057295800000000015,84.99831929999998,0.59587632,-14.16352176
1.97,197,0.006999999999999999,-1.004,-0.095,1.6615782,0.11459160000000004,0.11459160000000004,85.01550804,0.59014674,-14.16352176
1.98,198,0.008,-1.003,-0.096,1.6042823999999998,0.0,0.2291832000000001,85.03269678,0.59014674,-14.15779218
1.99,199,0.009000000000000001,-1.002,-0.098,1.4896908000000002,-0.057295800000000015,0.3437748,85.04415594,0.5844171599999999,-14.15779218
2.0,200,0.009000000000000001,-0.9990000000000001,-0.1,1.4896908000000002,-0.1718874,0.40107059999999994,85.00977845999998,0.5844171599999999,-14.15779218
2.01,201,0.009000000000000001,-0.995,-0.10099999999999999,1.6042823999999998,-0.3437748,0.3437748,85.0269672,0.5844171599999999,-14.16352176
2.02,202,0.011000000000000001,-0.996,-0.099,1.0313244000000001,-0.11459160000000004,0.2291832000000001,85.03842636,0.5786875800000001,-14.16352176
2.03,203,0.011000000000000001,-0.9990000000000001,-0.1,0.6302538000000001,-0.057295800000000015,0.11459160000000004,85.04415594,0.5786875800000001,-14.16352176
2.04,204,0.009000000000000001,-1.002,-0.09699999999999999,0.7448454000000001,-0.1718874,0.0,85.04988552,0.5786875800000001,-14.16925134
2.05,205,0.008,-1.004,-0.092,0.8594370000000001,-0.2291832000000001,-0.057295800000000015,84.99258972,0.5844171599999999,-14.16925134
2.0599999999999996,206,0.006999999999999999,-1.004,-0.09,0.8021411999999999,-0.3437748,-0.11459160000000004,85.00404888,0.5844171599999999,-14.17498092
2.07,207,0.006999999999999999,-1.002,-0.09,0.7448454000000001,-0.3437748,-0.11459160000000004,85.00977845999998,0.5844171599999999,-14.17498092
2.0799999999999996,208,0.008,-1.002,-0.08800000000000001,0.6302538000000001,-0.1718874,-0.057295800000000015,85.01550804,0.5844171599999999,-14.180710500000002
2.09,209,0.008,-1.003,-0.087,0.4583664000000001,0.057295800000000015,0.057295800000000015,85.02123762,0.5844171599999999,-14.17498092
2.0999999999999996,210,0.01,-1.004,-0.08800000000000001,0.3437748,0.286479,0.057295800000000015,84.92956434,0.6016058999999999,-14.16925134
2.11,211,0.008,-1.003,-0.08800000000000001,0.11459160000000004,0.4583664000000001,0.11459160000000004,84.92956434,0.6016058999999999,-14.16352176
2.1199999999999997,212,0.008,-1.004,-0.09,-0.057295800000000015,0.6875496,0.11459160000000004,84.92956434,0.59587632,-14.15779218
2.13,213,0.006999999999999999,-1.003,-0.09,-0.1718874,0.6875496,0.1718874,84.92956434,0.59587632,-14.152062600000002
2.1399999999999997,214,0.006,-1.003,-0.08900000000000001,-0.286479,0.6302538000000001,0.2291832000000001,84.92383476,0.59587632,-14.14633302
2.15,215,0.009000000000000001,-1.002,-0.08900000000000001,-0.3437748,0.572958,0.40107059999999994,84.86080938,0.6016058999999999,-14.13487386
2.1599999999999997,216,0.008,-1.0,-0.091,-0.286479,0.4583664000000001,0.3437748,84.86080938,0.59587632,-14.12914428
2.17,217,0.008,-1.001,-0.091,-0.1718874,0.5156622000000001,0.3437748,84.86080938,0.59587632,-14.123414699999998
2.1799999999999997,218,0.008,-1.003,-0.08900000000000001,-0.1718874,0.4583664000000001,0.3437748,84.8550798,0.59014674,-14.11768512
2.19,219,0.008,-1.005,-0.08800000000000001,-0.11459160000000004,0.40107059999999994,0.2291832000000001,84.8550798,0.59014674,-14.11195554
2.1999999999999997,220,0.008,-1.0070000000000001,-0.08800000000000001,-0.1718874,0.4583664000000001,0.2291832000000001,84.80351358,0.59014674,-14.10622596
2.21,221,0.008,-1.006,-0.086,-0.286479,0.40107059999999994,0.286479,84.80351358,0.59014674,-14.10049638
2.2199999999999998,222,0.006999999999999999,-1.005,-0.087,-0.572958,0.40107059999999994,0.2291832000000001,84.79778400000002,0.5844171599999999,-14.10049638
2.23,223,0.008,-1.004,-0.087,-0.6302538000000001,0.1718874,0.1718874,84.79205442,0.5844171599999999,-14.0947668
2.2399999999999998,224,0.01,-1.003,-0.086,-0.6875496,0.3437748,0.11459160000000004,84.78059526000001,0.5844171599999999,-14.0947668
2.25,225,0.011000000000000001,-1.001,-0.086,-0.8021411999999999,0.572958,0.11459160000000004,84.74048819999999,0.59587632,-14.08330764
2.26,226,0.012,-1.002,-0.087,-0.7448454000000001,0.6302538000000001,0.11459160000000004,84.73475862000002,0.59014674,-14.07757806
2.27,227,0.011000000000000001,-1.003,-0.08800000000000001,-0.6302538000000001,0.6302538000000001,0.11459160000000004,84.72902904,0.59014674,-14.07184848
2.28,228,0.011000000000000001,-1.002,-0.08900000000000001,-0.6302538000000001,0.7448454000000001,0.057295800000000015,84.72329946,0.59014674,-14.060389320000002
2.29,229,0.01,-1.001,-0.08900000000000001,-0.4583664000000001,0.5156622000000001,0.057295800000000015,84.71756988,0.59014674,-14.05465974
2.3,230,0.008,-1.002,-0.08800000000000001,-0.4583664000000001,0.286479,0.057295800000000015,84.6545445,0.6016058999999999,-14.04893016
2.31,231,0.009000000000000001,-1.002,-0.087,-0.5156622000000001,0.40107059999999994,0.057295800000000015,84.64881491999998,0.6016058999999999,-14.04320058
2.32,232,0.009000000000000001,-1.003,-0.08800000000000001,-0.5156622000000001,0.4583664000000001,0.11459160000000004,84.64308534,0.6016058999999999,-14.037471000000002
2.3299999999999996,233,0.009000000000000001,-1.004,-0.08800000000000001,-0.286479,0.3437748,0.0,84.64308534,0.6016058999999999,-14.037471000000002
2.34,234,0.009000000000000001,-1.004,-0.08900000000000001,-0.2291832000000001,0.40107059999999994,0.057295800000000015,84.63735576,0.6016058999999999,-14.03174142
2.3499999999999996,235,0.008,-1.002,-0.08800000000000001,-0.11459160000000004,0.4583664000000001,0.057295800000000015,84.55714164,0.6073354799999999,-14.02601184
2.36,236,0.008,-1.002,-0.08900000000000001,-0.11459160000000004,0.40107059999999994,0.0,84.55714164,0.6073354799999999,-14.020282259999998
2.3699999999999997,237,0.008,-1.002,-0.08900000000000001,-0.2291832000000001,0.40107059999999994,-0.057295800000000015,84.55714164,0.61306506,-14.01455268
2.38,238,0.006999999999999999,-1.0,-0.09,-0.2291832000000001,0.2291832000000001,-0.057295800000000015,84.55141205999998,0.61306506,-14.01455268
2.3899999999999997,239,0.006999999999999999,-1.002,-0.09,-0.286479,0.057295800000000015,-0.11459160000000004,84.55141205999998,0.61306506,-14.01455268
2.4,240,0.008,-1.003,-0.09,-0.3437748,0.0,-0.11459160000000004,84.44827962000002,0.6302538000000001,-14.008823099999995
2.4099999999999997,241,0.008,-1.003,-0.09,-0.3437748,0.0,-0.11459160000000004,84.44255003999999,0.6302538000000001,-14.008823099999995
2.42,242,0.008,-1.002,-0.09,-0.3437748,-0.057295800000000015,-0.1718874,84.44255003999999,0.6302538000000001,-14.008823099999995
2.4299999999999997,243,0.008,-1.002,-0.09,-0.1718874,-0.2291832000000001,-0.11459160000000004,84.43682046,0.63598338,-14.01455268
2.44,244,0.008,-1.001,-0.08900000000000001,-0.11459160000000004,-0.40107059999999994,-0.2291832000000001,84.43682046,0.63598338,-14.020282259999998
2.4499999999999997,245,0.009000000000000001,-1.001,-0.08900000000000001,-0.2291832000000001,-0.3437748,-0.2291832000000001,84.3680655,0.64171296,-14.020282259999998
2.46,246,0.008,-1.002,-0.08900000000000001,-0.11459160000000004,-0.40107059999999994,-0.3437748,84.3680655,0.64744254,-14.02601184
2.4699999999999998,247,0.009000000000000001,-1.002,-0.09,-0.1718874,-0.40107059999999994,-0.3437748,84.3680655,0.65317212,-14.03174142
2.48,248,0.008,-1.001,-0.091,-0.057295800000000015,-0.40107059999999994,-0.40107059999999994,84.3680655,0.65317212,-14.037471000000002
2.4899999999999998,249,0.008,-1.001,-0.091,0.0,-0.5156622000000001,-0.4583664000000001,84.3680655,0.6589017,-14.037471000000002
2.5,250,0.008,-1.001,-0.08900000000000001,-0.057295800000000015,-0.6302538000000001,-0.572958,84.3394176,0.66463128,-14.04893016
2.51,251,0.006999999999999999,-1.002,-0.08800000000000001,-0.286479,-0.6875496,-0.572958,84.3394176,0.6703608600000001,-14.05465974
2.52,252,0.006,-1.002,-0.087,-0.40107059999999994,-0.572958,-0.6302538000000001,84.33368802,0.67609044,-14.060389320000002
2.53,253,0.006999999999999999,-1.002,-0.087,-0.40107059999999994,-0.40107059999999994,-0.5156622000000001,84.32795844,0.68182002,-14.0661189
2.54,254,0.008,-1.001,-0.091,-0.40107059999999994,0.0,-0.286479,84.32222886000002,0.6875496,-14.0661189
2.55,255,0.006999999999999999,-1.0,-0.095,-0.11459160000000004,0.0,-0.286479,84.21336684,0.6875496,-14.07184848
2.56,256,0.006999999999999999,-1.0,-0.095,0.1718874,0.0,-0.3437748,84.21336684,0.6875496,-14.07184848
2.57,257,0.006999999999999999,-1.0,-0.08900000000000001,0.40107059999999994,-0.2291832000000001,-0.4583664000000001,84.21909642,0.69327918,-14.07184848
2.5799999999999996,258,0.006999999999999999,-1.0,-0.087,0.40107059999999994,-0.286479,-0.40107059999999994,84.21909642,0.69900876,-14.07757806
2.59,259,0.006,-1.002,-0.087,0.1718874,-0.2291832000000001,-0.40107059999999994,84.22482600000002,0.69900876,-14.07757806
2.5999999999999996,260,0.006,-1.004,-0.087,0.1718874,0.0,-0.3437748,84.1961781,0.69327918,-14.08330764
2.61,261,0.006999999999999999,-1.005,-0.086,0.1718874,0.40107059999999994,-0.286479,84.1961781,0.69900876,-14.07757806
2.6199999999999997,262,0.006999999999999999,-1.008,-0.085,0.057295800000000015,0.6875496,-0.2291832000000001,84.1961781,0.70473834,-14.07184848
2.63,263,0.01,-1.0090000000000001,-0.084,0.0,0.9740286,-0.2291832000000001,84.1961781,0.70473834,-14.060389320000002
2.6399999999999997,264,0.01,-1.008,-0.085,-0.11459160000000004,1.0886202,0.057295800000000015,84.1961781,0.70473834,-14.04893016
2.65,265,0.01,-1.005,-0.086,-0.11459160000000004,1.0313244000000001,0.11459160000000004,84.17325978,0.70473834,-14.037471000000002
2.6599999999999997,266,0.01,-1.002,-0.087,0.0,0.8021411999999999,0.11459160000000004,84.17325978,0.70473834,-14.03174142
2.67,267,0.01,-0.998,-0.087,0.11459160000000004,0.572958,0.1718874,84.17898936,0.70473834,-14.02601184
2.6799999999999997,268,0.012,-0.998,-0.086,0.2291832000000001,0.5156622000000001,0.11459160000000004,84.17898936,0.70473834,-14.020282259999998
2.69,269,0.013000000000000001,-1.0,-0.085,0.286479,0.6302538000000001,0.057295800000000015,84.18471894,0.70473834,-14.01455268
2.6999999999999997,270,0.013000000000000001,-1.002,-0.085,0.40107059999999994,0.8594370000000001,0.11459160000000004,84.17325978,0.7104679199999999,-14.003093519999998
2.71,271,0.012,-1.003,-0.084,0.286479,0.9740286,0.11459160000000004,84.17898936,0.7104679199999999,-13.99163436
2.7199999999999998,272,0.011000000000000001,-1.004,-0.084,0.40107059999999994,1.0886202,0.1718874,84.18471894,0.7104679199999999,-13.980175199999998
2.73,273,0.011000000000000001,-1.002,-0.086,0.4583664000000001,1.2032118,0.1718874,84.19044852,0.7104679199999999,-13.96871604
2.7399999999999998,274,0.011000000000000001,-1.001,-0.087,0.5156622000000001,1.3750992,0.1718874,84.19044852,0.7104679199999999,-13.951527300000002
2.75,275,0.012,-1.0,-0.08900000000000001,0.5156622000000001,1.4896908000000002,0.1718874,84.18471894,0.7104679199999999,-13.94006814
2.76,276,0.013000000000000001,-1.001,-0.08900000000000001,0.6302538000000001,1.432395,0.2291832000000001,84.19044852,0.7104679199999999,-13.922879400000005
2.77,277,0.013000000000000001,-1.001,-0.08900000000000001,0.7448454000000001,1.4896908000000002,0.2291832000000001,84.20190768,0.7104679199999999,-13.90569066
2.78,278,0.013000000000000001,-1.001,-0.08900000000000001,0.6875496,1.6042823999999998,0.2291832000000001,84.20763725999998,0.7104679199999999,-13.88850192
2.79,279,0.013000000000000001,-1.001,-0.08800000000000001,0.6875496,1.6042823999999998,0.286479,84.21336684,0.70473834,-13.87704276
2.8,280,0.012,-1.001,-0.08900000000000001,0.6302538000000001,1.6615782,0.286479,84.20763725999998,0.7104679199999999,-13.85412444
2.81,281,0.013000000000000001,-1.0,-0.08800000000000001,0.6302538000000001,1.7761698000000001,0.40107059999999994,84.21909642,0.70473834,-13.836935700000002
2.82,282,0.011000000000000001,-0.998,-0.08900000000000001,0.8021411999999999,1.7188740000000002,0.5156622000000001,84.22482600000002,0.69900876,-13.81974696
2.8299999999999996,283,0.01,-1.0,-0.087,0.8021411999999999,1.7761698000000001,0.572958,84.23055558,0.69900876,-13.80255822
2.84,284,0.009000000000000001,-1.001,-0.086,0.8021411999999999,2.0626488000000003,0.6302538000000001,84.24201474,0.69327918,-13.779639899999998
2.8499999999999996,285,0.006999999999999999,-1.002,-0.086,0.8021411999999999,2.4637194,0.6302538000000001,84.24201474,0.6875496,-13.75672158
2.86,286,0.008,-1.002,-0.087,0.9167328000000001,2.4637194,0.6302538000000001,84.25347389999997,0.68182002,-13.72807368
2.8699999999999997,287,0.008,-1.001,-0.087,1.0886202,2.5210152000000003,0.8021411999999999,84.26493306,0.67609044,-13.70515536
2.88,288,0.009000000000000001,-1.0,-0.08800000000000001,1.0313244000000001,2.6929026,0.8021411999999999,84.27639222,0.6703608600000001,-13.67650746
2.8899999999999997,289,0.01,-0.9990000000000001,-0.087,1.0313244000000001,2.6929026,0.7448454000000001,84.28785138,0.66463128,-13.64785956
2.9,290,0.012,-0.9990000000000001,-0.08800000000000001,1.0313244000000001,2.86479,0.8021411999999999,84.28785138,0.66463128,-13.61921166
2.9099999999999997,291,0.013000000000000001,-1.0,-0.08900000000000001,1.0886202,2.86479,0.8594370000000001,84.29931054,0.6589017,-13.59056376
2.92,292,0.013999999999999999,-1.002,-0.08900000000000001,1.2032118,2.8074942000000003,0.9740286,84.31076970000002,0.64744254,-13.56191586
2.9299999999999997,293,0.012,-1.002,-0.087,1.3750992,2.6356068,1.0313244000000001,84.32795844,0.64171296,-13.53326796
2.94,294,0.012,-1.001,-0.085,1.2605076000000002,2.5783110000000002,0.9740286,84.3394176,0.6302538000000001,-13.504620060000002
2.9499999999999997,295,0.009000000000000001,-1.0,-0.085,1.2032118,2.5783110000000002,1.0313244000000001,84.34514718,0.62452422,-13.47597216
2.96,296,0.009000000000000001,-1.0,-0.086,1.3178034,2.5783110000000002,0.9740286,84.35660634000001,0.61879464,-13.45305384
2.9699999999999998,297,0.008,-1.001,-0.08199999999999999,1.2605076000000002,2.6356068,0.9167328000000001,84.37379508000002,0.61306506,-13.42440594
2.98,298,0.009000000000000001,-1.001,-0.081,1.145916,2.9793816000000004,0.9167328000000001,84.38525424,0.6016058999999999,-13.39575804
2.9899999999999998,299,0.01,-1.001,-0.08199999999999999,1.0886202,3.2085647999999996,0.9167328000000001,84.39671340000002,0.59587632,-13.361380559999995
3.0,300,0.01,-1.001,-0.084,1.2032118,3.380452200000001,0.9167328000000001,84.40244298,0.59014674,-13.32700308
3.01,301,0.01,-1.0,-0.084,1.432395,3.2658606,0.9740286,84.41390214,0.5844171599999999,-13.2926256
3.02,302,0.009000000000000001,-0.9990000000000001,-0.083,1.7188740000000002,2.9793816000000004,0.9167328000000001,84.43109088,0.5786875800000001,-13.25824812
3.03,303,0.009000000000000001,-1.0,-0.08199999999999999,1.8334656000000005,2.9793816000000004,0.9167328000000001,84.4540092,0.5729580000000001,-13.22960022
3.04,304,0.008,-0.998,-0.08199999999999999,1.8907614,2.9220858,0.9167328000000001,84.47119794,0.56149884,-13.20095232
3.05,305,0.009000000000000001,-0.997,-0.081,2.1772404,2.86479,0.9740286,84.48838668,0.55576926,-13.17230442
3.06,306,0.008,-0.9990000000000001,-0.08,2.3491277999999998,2.86479,0.9740286,84.51703458,0.55003968,-13.13792694
3.07,307,0.008,-1.0,-0.08199999999999999,2.4064236,2.8074942000000003,1.0313244000000001,84.5399529,0.5443101,-13.10927904
3.08,308,0.008,-1.001,-0.08199999999999999,2.5210152000000003,2.6929026,1.0886202,84.56287122,0.53285094,-13.08063114
3.09,309,0.006999999999999999,-1.003,-0.081,2.5783110000000002,2.6356068,1.145916,84.59151912,0.52139178,-13.05771282
3.0999999999999996,310,0.006999999999999999,-1.004,-0.08,2.6929026,2.6356068,1.3178034,84.61443744,0.5156622000000001,-13.02906492
3.11,311,0.008,-1.002,-0.079,2.6929026,2.5210152000000003,1.3178034,84.64308534,0.5042030399999999,-13.00041702
3.1199999999999997,312,0.008,-1.001,-0.077,2.8074942000000003,2.4637194,1.3178034,84.67173324000002,0.49274388,-12.977498700000002
3.13,313,0.008,-1.0,-0.077,2.86479,2.3491277999999998,1.3750992,84.70038114,0.48128472,-12.9488508
3.1399999999999997,314,0.008,-1.0,-0.076,2.8074942000000003,2.5210152000000003,1.2605076000000002,84.72902904,0.46982556,-12.920202899999998
3.15,315,0.008,-0.998,-0.079,2.86479,2.5783110000000002,1.2605076000000002,84.75194736,0.4583664000000001,-12.89728458
3.1599999999999997,316,0.008,-1.0,-0.08,3.0366774,2.5210152000000003,1.145916,84.78632483999998,0.4526368200000001,-12.86863668
3.17,317,0.008,-0.9990000000000001,-0.08,3.2085647999999996,2.291832,1.0313244000000001,84.81497274,0.44117766,-12.84571836
3.1799999999999997,318,0.009000000000000001,-0.997,-0.077,3.4377480000000005,2.1199446,1.0313244000000001,84.84935021999998,0.43544808,-12.82280004
3.19,319,0.008,-0.997,-0.076,3.4950437999999995,1.8334656000000005,0.9740286,84.88945728,0.42398892,-12.79988172
3.1999999999999997,320,0.008,-0.996,-0.076,3.4950437999999995,1.7188740000000002,0.9167328000000001,84.91810518,0.41825934,-12.782692979999998
3.21,321,0.008,-0.9990000000000001,-0.077,3.5523396000000003,1.432395,0.9167328000000001,84.95248266,0.41252976,-12.765504240000002
3.2199999999999998,322,0.008,-1.001,-0.07400000000000001,3.6669312000000014,1.2032118,0.9167328000000001,84.99258972,0.4010706000000001,-12.75404508
3.23,323,0.006,-1.004,-0.07400000000000001,3.6096353999999997,1.145916,0.8594370000000001,85.0269672,0.39534102,-12.74258592
3.2399999999999998,324,0.006,-1.0070000000000001,-0.073,3.7815228,1.0313244000000001,0.8021411999999999,85.06707426,0.38961144,-12.73112676
3.25,325,0.006999999999999999,-1.006,-0.073,3.9534102,0.9167328000000001,0.8021411999999999,85.10145173999999,0.38388186,-12.7196676
3.26,326,0.006999999999999999,-1.004,-0.071,4.1825934,0.4583664000000001,0.8021411999999999,85.1415588,0.37815228,-12.71393802
3.27,327,0.006999999999999999,-1.002,-0.07,4.1825934,0.2291832000000001,0.8021411999999999,85.18739544,0.36669312,-12.70820844
3.28,328,0.009000000000000001,-0.998,-0.069,4.3544808,0.1718874,0.8594370000000001,85.23323208,0.36096354,-12.70820844
3.29,329,0.008,-0.996,-0.067,4.4690724,0.057295800000000015,0.8021411999999999,85.27906872,0.35523396,-12.70247886
3.3,330,0.006999999999999999,-0.995,-0.066,4.5263682,0.1718874,0.7448454000000001,85.31917578,0.34950438,-12.70247886
3.31,331,0.006,-0.995,-0.066,4.6409598,0.286479,0.8594370000000001,85.36501242,0.33804522,-12.696749280000002
3.32,332,0.004,-0.997,-0.067,4.9847346,0.11459160000000004,0.8594370000000001,85.41657864,0.33231564,-12.691019699999998
3.33,333,0.002,-0.998,-0.068,5.1566220000000005,0.0,0.7448454000000001,85.46814486,0.32658606,-12.691019699999998
3.34,334,0.004,-0.9990000000000001,-0.065,5.5003968,-0.2291832000000001,0.7448454000000001,85.52544065999999,0.32085648,-12.691019699999998
3.3499999999999996,335,0.005,-1.001,-0.066,5.6722842,-0.4583664000000001,0.7448454000000001,85.57700688,0.31512690000000004,-12.696749280000002
3.36,336,0.006,-1.002,-0.066,5.72958,-0.5156622000000001,0.7448454000000001,85.63430267999998,0.30366774,-12.70247886
3.3699999999999997,337,0.006,-1.003,-0.065,5.958763200000001,-0.6875496,0.8021411999999999,85.69732806,0.29793816,-12.70820844
3.38,338,0.006999999999999999,-1.002,-0.063,6.130650599999999,-0.9167328000000001,0.7448454000000001,85.76035343999997,0.29220857999999994,-12.71393802
3.3899999999999997,339,0.006999999999999999,-1.002,-0.062,6.1879464,-1.0313244000000001,0.8021411999999999,85.82337881999999,0.28074942,-12.72539718
3.4,340,0.006,-1.002,-0.063,6.3025379999999975,-0.8021411999999999,0.8594370000000001,85.88067462000002,0.27501984,-12.73112676
3.4099999999999997,341,0.005,-1.001,-0.062,6.5317212,-0.8594370000000001,0.8594370000000001,85.94942957999999,0.26929026,-12.73685634
3.42,342,0.003,-0.998,-0.059000000000000004,6.6463128000000005,-1.2032118,0.7448454000000001,86.01245496,0.25783110000000004,-12.7483155
3.4299999999999997,343,0.004,-0.996,-0.057999999999999996,6.7609043999999985,-1.3178034,0.7448454000000001,86.08120991999998,0.25210152,-12.75977466
3.44,344,0.003,-0.997,-0.055999999999999994,6.875496000000001,-1.2605076000000002,0.7448454000000001,86.15569446,0.24637194,-12.77123382
3.4499999999999997,345,0.003,-0.998,-0.057,7.1046792000000005,-1.0313244000000001,0.8021411999999999,86.21871984,0.24064236,-12.782692979999998
3.46,346,0.004,-1.0,-0.055999999999999994,7.333862400000001,-0.9167328000000001,0.7448454000000001,86.29320437999998,0.22918320000000006,-12.78842256
3.4699999999999998,347,0.003,-1.0,-0.055,7.5630456000000015,-1.2605076000000002,0.8021411999999999,86.37341849999999,0.22345362,-12.79988172
3.48,348,0.002,-1.0,-0.051,7.8495246,-1.5469866,0.8021411999999999,86.45363262000002,0.21199446,-12.81707046
3.4899999999999998,349,0.002,-0.998,-0.049,8.021412000000002,-1.5469866,0.8021411999999999,86.53384674,0.20626488,-12.82852962
3.5,350,0.002,-0.998,-0.047,8.250595200000001,-1.4896908000000002,0.8594370000000001,86.61406086000002,0.20053530000000008,-12.839988780000002
3.51,351,0.002,-0.997,-0.046,8.4224826,-1.3178034,0.7448454000000001,86.70000456,0.18907614,-12.85144794
3.52,352,0.002,-0.996,-0.045,8.59437,-1.2032118,0.7448454000000001,86.79167784,0.18334656,-12.8629071
3.53,353,0.001,-0.997,-0.045,8.880849000000003,-1.0886202,0.6875496,86.87762153999998,0.17761697999999998,-12.87436626
3.54,354,0.0,-0.9990000000000001,-0.044000000000000004,9.224623800000002,-1.0886202,0.572958,86.97502440000002,0.1718874,-12.88582542
3.55,355,0.001,-1.001,-0.040999999999999995,9.3392154,-1.145916,0.5156622000000001,87.06669767999998,0.16615782,-12.891555
3.56,356,0.003,-1.0,-0.039,9.5111028,-1.0886202,0.572958,87.16410053999998,0.16042824,-12.903014159999998
3.57,357,0.005,-0.998,-0.04,9.7975818,-0.9167328000000001,0.7448454000000001,87.26150340000002,0.15469866,-12.91447332
3.58,358,0.004,-0.9990000000000001,-0.039,10.084060800000001,-0.8594370000000001,0.8021411999999999,87.36463583999998,0.14896908,-12.920202899999998
3.59,359,0.002,-0.9990000000000001,-0.039,10.313244000000001,-0.8021411999999999,0.9167328000000001,87.46776828,0.13750992,-12.925932479999995
3.5999999999999996,360,0.002,-0.998,-0.038,10.4851314,-0.7448454000000001,0.9167328000000001,87.57090072000004,0.13178034,-12.93166206
3.61,361,0.001,-0.9990000000000001,-0.037000000000000005,10.828906199999999,-0.6875496,0.9740286,87.67976274,0.12032118,-12.93739164
3.6199999999999997,362,0.0,-0.9990000000000001,-0.036000000000000004,11.0007936,-0.572958,0.9740286,87.79435434000001,0.11459160000000003,-12.94312122
3.63,363,0.002,-0.9990000000000001,-0.035,11.0580894,-0.572958,0.9740286,87.90321636,0.10313244,-12.9488508
3.6399999999999997,364,0.001,-0.996,-0.033,11.45916,-0.6875496,1.0313244000000001,88.02353753999998,0.09740286,-12.9488508
3.65,365,0.001,-0.996,-0.032,11.802934800000001,-1.2032118,0.9740286,88.13812913999998,0.0859437,-12.96030996
3.6599999999999997,366,0.001,-0.995,-0.027999999999999997,11.9748222,-1.2032118,0.9740286,88.25845032,0.07448454,-12.97176912
3.67,367,0.001,-0.9940000000000001,-0.027000000000000003,12.2040054,-0.9167328000000001,1.0886202,88.38450107999998,0.06875496,-12.977498700000002
3.6799999999999997,368,0.002,-0.9940000000000001,-0.027000000000000003,12.4331886,-0.6875496,1.0313244000000001,88.51055184,0.057295800000000015,-12.98322828
3.69,369,0.001,-0.993,-0.031,12.776963400000001,-0.5156622000000001,1.145916,88.63660259999996,0.04583664,-12.98895786
3.6999999999999997,370,0.002,-0.9940000000000001,-0.031,13.178034,-0.4583664000000001,1.2032118,88.76265336,0.04010706,-12.994687439999998
3.71,371,0.003,-0.9940000000000001,-0.028999999999999998,13.5791046,-0.286479,1.2032118,88.90016328,0.028647900000000007,-12.994687439999998
3.7199999999999998,372,0.004,-0.9940000000000001,-0.03,13.980175199999998,-0.2291832000000001,1.3178034,89.04340278,0.01718874,-12.994687439999998
3.73,373,0.005,-0.992,-0.03,14.438541599999999,0.0,1.432395,89.19237186000002,0.0,-12.98895786
3.7399999999999998,374,0.006,-0.995,-0.034,14.896907999999998,0.572958,1.6042823999999998,89.34134094,-0.00572958,-12.98322828
3.75,375,0.009000000000000001,-0.9940000000000001,-0.039,15.2406828,0.8021411999999999,1.9480572,89.48458044,-0.02291832,-12.97176912
3.76,376,0.011000000000000001,-0.992,-0.044000000000000004,16.042824000000003,1.0313244000000001,2.291832,89.65073826,-0.04583664,-12.96030996
3.77,377,0.013999999999999999,-0.99,-0.043,16.8449652,0.8594370000000001,2.4064236,89.81689608,-0.06875496,-12.9488508
3.78,378,0.013000000000000001,-0.9890000000000001,-0.042,17.7044022,0.6302538000000001,2.4064236,90.00024264,-0.09167328,-12.94312122
3.79,379,0.011000000000000001,-0.985,-0.045,18.334656,1.0313244000000001,2.4064236,90.1835892,-0.11459160000000003,-12.93166206
3.8,380,0.008,-0.983,-0.044000000000000004,19.2513888,1.8334656000000005,2.3491277999999998,90.36693576,-0.13178034,-12.90874374
3.81,381,0.006999999999999999,-0.988,-0.045,20.1108258,2.2345362,2.6356068,90.57320064,-0.16042824,-12.88582542
3.82,382,0.004,-0.991,-0.043,20.6837838,2.4637194,3.1512689999999997,90.78519509999998,-0.18907614,-12.857177520000002
3.83,383,0.006,-0.991,-0.04,21.2567418,3.1512689999999997,3.4950437999999995,90.99718956,-0.22345362,-12.82280004
3.84,384,0.009000000000000001,-0.982,-0.035,21.657812399999997,3.8961144,3.9534102,91.21491359999999,-0.26356068,-12.782692979999998
3.8499999999999996,385,0.011000000000000001,-0.981,-0.035,22.86102420000001,4.7555514,4.583664,91.43836722,-0.30939732,-12.73685634
3.86,386,0.013000000000000001,-0.9740000000000001,-0.028999999999999998,23.835052800000003,5.0993262,5.1566220000000005,91.67900958,-0.36096354,-12.68529012
3.8699999999999997,387,0.017,-0.9690000000000001,-0.023,24.2934192,4.2398892,5.6149884000000005,91.92538152,-0.41825934,-12.63945348
3.88,388,0.02,-0.958,-0.013000000000000001,24.637194,2.9793816000000004,6.3598338,92.17748304,-0.48128472,-12.61080558
3.8899999999999997,389,0.019,-0.958,-0.006999999999999999,25.6112226,2.2345362,7.3911582,92.43531414,-0.55576926,-12.58788726
3.9,390,0.018000000000000002,-0.955,-0.003,25.382039399999996,2.3491277999999998,8.136003599999999,92.68741566,-0.6302538000000001,-12.56496894
3.9099999999999997,391,0.021,-0.973,0.0,26.642546999999997,2.86479,8.7089616,92.95670592,-0.7161975,-12.53632104
3.92,392,0.023,-0.975,-0.003,26.41336380000001,3.0366774,9.0527364,93.2202666,-0.8078707799999998,-12.507673139999998
3.9299999999999997,393,0.028999999999999998,-0.985,0.0,26.929026,2.8074942000000003,8.9381448,93.49528644,-0.89954406,-12.48475482
3.94,394,0.028999999999999998,-0.9690000000000001,0.006999999999999999,26.9863218,0.9167328000000001,8.078707799999998,93.77030628,-0.9740286,-12.473295660000002
3.9499999999999997,395,0.025,-0.935,0.013000000000000001,27.7311672,-1.3178034,6.990087599999999,94.04532612,-1.03705398,-12.4904844
3.96,396,0.016,-0.902,0.02,28.6479,-2.2345362,5.6149884000000005,94.3375347,-1.0886202,-12.51340272
3.9699999999999998,397,0.009000000000000001,-0.894,0.034,31.455394199999997,-2.5210152000000003,4.3544808,94.65839118,-1.12872726,-12.53632104
3.98,398,0.008,-0.904,0.054000000000000006,33.4607472,-3.0366774,3.7815228,94.99643640000001,-1.1573751600000002,-12.56496894
3.9899999999999998,399,0.003,-0.93,0.067,33.6899304,-3.3231564,4.1252976000000015,95.34021120000001,-1.19175264,-12.59934642
4.0,400,-0.005,-0.9590000000000001,0.069,34.262888399999994,-3.3231564,4.8701430000000006,95.683986,-1.2318597,-12.6337239
4.01,401,-0.011000000000000001,-0.956,0.078,33.1742682,-2.5210152000000003,6.3025379999999975,96.02203122,-1.2891555,-12.6623718
4.02,402,-0.013999999999999999,-0.9440000000000001,0.08800000000000001,33.74722620000001,-2.0626488000000003,7.448453999999999,96.36580602,-1.3579104599999998,-12.68529012
4.03,403,-0.021,-0.929,0.10800000000000001,36.2682414,-1.7188740000000002,7.906820400000001,96.73822872,-1.432395,-12.70820844
4.04,404,-0.027000000000000003,-0.92,0.122,38.27359439999999,-0.8594370000000001,8.136003599999999,97.12784016,-1.50687954,-12.7196676
4.05,405,-0.035,-0.915,0.11699999999999999,40.10706,1.6615782,8.307891,97.53464034,-1.59282324,-12.70820844
4.06,406,-0.034,-0.91,0.111,41.9978214,3.4377480000000005,8.651665800000002,97.95862926,-1.6787669399999998,-12.67956054
4.07,407,-0.031,-0.897,0.11,44.34694920000001,4.7555514,8.8235532,98.4055365,-1.77044022,-12.64518306
4.08,408,-0.027999999999999997,-0.8809999999999999,0.127,47.4409224,4.9274388,8.880849000000003,98.88682122,-1.86784308,-12.59934642
4.09,409,-0.027000000000000003,-0.863,0.149,50.0765292,4.1252976000000015,8.9381448,99.39102426,-1.9595163600000003,-12.57069852
4.1,410,-0.036000000000000004,-0.846,0.16399999999999998,53.68616460000001,2.9220858,9.682990199999999,99.93533436,-2.05691922,-12.55350978
4.109999999999999,411,-0.045,-0.835,0.19,58.2125328,2.1199446,10.828906199999999,100.5254811,-2.1657812400000003,-12.54205062
4.12,412,-0.055999999999999994,-0.82,0.21100000000000002,62.16594300000001,2.291832,12.3758928,101.16146448,-2.28610242,-12.53632104
4.13,413,-0.07200000000000001,-0.807,0.225,68.2392978,3.1512689999999997,14.438541599999999,101.84901408,-2.42934192,-12.52486188
4.14,414,-0.086,-0.804,0.23,72.82296179999999,3.3231564,15.527161800000002,102.5881299,-2.58404058,-12.5191323
4.1499999999999995,415,-0.10099999999999999,-0.7979999999999999,0.228,76.9482594,4.3544808,15.756345,103.37308236,-2.74446882,-12.50194356
4.16,416,-0.11800000000000001,-0.7909999999999999,0.222,81.4173318,6.1879464,15.469866,104.1924123,-2.91062664,-12.46756608
4.17,417,-0.135,-0.775,0.22699999999999998,85.7145168,8.193299399999999,15.2406828,105.06330846,-3.07105488,-12.41599986
4.18,418,-0.14400000000000002,-0.765,0.22399999999999998,90.6419556,11.8602306,15.9855282,105.97431168,-3.25440144,-12.33578574
4.1899999999999995,419,-0.15,-0.773,0.247,96.6007188,15.756345,17.246035799999998,106.94834028,-3.4663959,-12.22119414
4.2,420,-0.159,-0.7809999999999999,0.27899999999999997,100.7260164,18.9649098,18.7357266,107.95674635999998,-3.70130868,-12.0894138
4.21,421,-0.171,-0.7759999999999999,0.307,104.4502434,22.4026578,21.199446,109.0052595,-3.97632852,-11.934715140000002
4.22,422,-0.17600000000000002,-0.765,0.33,107.4869208,23.5485738,23.835052800000003,110.08242054,-4.27999626,-11.78001648
4.2299999999999995,423,-0.165,-0.763,0.324,111.61221840000002,25.84040580000001,26.356068,111.19968864,-4.6180414800000005,-11.62531782
4.24,424,-0.11900000000000001,-0.777,0.313,115.451037,27.4446882,28.361421000000004,112.3570638,-4.97900502,-11.46488958
4.25,425,-0.057999999999999996,-0.7809999999999999,0.299,117.28450259999998,26.9863218,29.793815999999996,113.53162770000002,-5.3571573,-11.3159205
4.26,426,-0.028999999999999998,-0.7659999999999999,0.297,119.4044472,23.835052800000003,30.366774000000003,114.72910992,-5.735309579999999,-11.21278806
4.27,427,-0.028999999999999998,-0.7340000000000001,0.317,123.0713784,18.334656,29.392745399999995,115.97242878,-6.0790843799999985,-11.16122184
4.28,428,-0.059000000000000004,-0.698,0.36,127.6550424,12.891555,26.4706596,117.26158428,-6.37129296,-11.149762679999998
4.29,429,-0.106,-0.6920000000000001,0.41,136.65048299999998,9.396511199999999,22.4599536,118.64814264,-6.611935319999999,-11.15549226
4.3,430,-0.14300000000000002,-0.722,0.45,142.89572520000004,9.9694692,20.2827132,120.09772638,-6.83538894,-11.149762679999998
4.31,431,-0.174,-0.76,0.48,146.6199522,13.0634424,19.308684600000007,121.58168759999998,-7.0703017200000025,-11.1153852
4.32,432,-0.19399999999999998,-0.764,0.512,146.7918396,16.558486199999994,19.0222056,123.06564882,-7.316673659999997,-11.06381898
4.33,433,-0.192,-0.7390000000000001,0.544,146.390769,20.3973048,19.9389384,124.53815088000002,-7.59742308,-10.98360486
4.34,434,-0.20800000000000002,-0.7120000000000001,0.579,148.3388262,23.7204612,21.772404,126.02784167999998,-7.918279559999997,-10.90339074
4.35,435,-0.207,-0.691,0.615,151.7192784,26.814434400000003,24.7517856,127.55763954,-8.2792431,-10.82317662
4.36,436,-0.154,-0.66,0.638,150.6306582,29.392745399999995,27.903054600000004,129.07024866,-8.68604328,-10.74869208
4.37,437,-0.109,-0.613,0.645,151.83387,33.231564,30.252182399999995,130.59431694,-9.13295052,-10.67420754
4.38,438,-0.084,-0.595,0.6579999999999999,154.7559558,35.52339600000001,31.111619399999995,132.14703312,-9.60850566,-10.599723
4.39,439,-0.071,-0.615,0.684,157.3342668,35.4088044,30.8251404,133.72839720000002,-10.07833122,-10.53669762
4.3999999999999995,440,-0.067,-0.645,0.69,154.81325159999997,33.4607472,31.9710564,135.29257253999998,-10.54815678,-10.50804972
4.41,441,-0.086,-0.6729999999999999,0.679,150.11499600000005,31.913760600000003,33.3461556,136.81664082,-11.01225276,-10.513779300000001
4.42,442,-0.10400000000000001,-0.743,0.6809999999999999,145.53133200000005,33.002380800000005,33.74722620000001,138.28914288,-11.4878079,-10.52523846
4.43,443,-0.107,-0.782,0.633,134.5878342,37.4714532,37.757932200000006,139.6585125,-12.02638842,-10.55961594
4.4399999999999995,444,-0.094,-0.7070000000000001,0.445,126.7956054,43.48751220000001,42.8572584,140.947668,-12.63945348,-10.60545258
4.45,445,-0.105,-0.615,0.195,136.1348208,40.6227222,46.29500640000001,142.33995594,-13.25251854,-10.70858502
4.46,446,-0.113,-0.6,0.037000000000000005,149.14096740000005,29.793815999999996,46.5814854,143.89267212,-13.77391032,-10.89193158
4.47,447,-0.113,-0.578,0.013999999999999999,156.93319619999997,18.2200644,46.0658232,145.54852074,-14.19216966,-11.15549226
4.4799999999999995,448,-0.07200000000000001,-0.502,-0.015,161.97522659999996,9.740286,46.5814854,147.27312432000005,-14.541674039999998,-11.47634874
4.49,449,0.006,-0.444,-0.10300000000000001,167.017257,1.8334656000000005,48.4722468,149.06648286,-14.81669388,-11.87168976
4.5,450,0.07200000000000001,-0.35100000000000003,-0.155,172.63224540000004,-2.9220858,48.8733174,150.92286678,-15.0401475,-12.295678679999998
4.51,451,0.149,-0.27399999999999997,-0.10800000000000001,169.7101596,-6.5317212,48.529542600000006,152.76206195999995,-15.21776448,-12.74258592
4.52,452,0.166,-0.122,-0.102,167.30373600000001,-8.9381448,47.498218200000004,154.5840684,-15.355274400000004,-13.20095232
4.53,453,0.114,-0.004,-0.107,173.83545719999995,-11.172680999999999,49.1597964,156.4748298,-15.469866,-13.68223704
4.54,454,0.021,0.06,-0.096,181.2839112,-15.870936600000002,51.9099948,158.46299406,-15.53289138,-14.215087979999998
4.55,455,-0.095,0.062,-0.08800000000000001,190.0501686,-26.0122932,53.4569814,160.54856118,-15.492784320000002,-14.79377556
4.56,456,-0.179,0.0,-0.048,193.8316914,-39.9924684,50.420303999999994,162.67996494000005,-15.28651944,-15.3839223
4.57,457,-0.11,-0.138,0.027999999999999997,193.5452124,-50.24841660000001,43.7166954,164.79417996,-14.94847422,-15.92250282
4.58,458,0.094,-0.26899999999999996,0.13699999999999998,189.5345064,-55.92070079999999,36.955791,166.8453696,-14.51302614,-16.39805796
4.59,459,0.26899999999999996,-0.35700000000000004,0.16699999999999998,184.205997,-63.5410422,31.22621100000001,168.82780428,-13.980175199999998,-16.81058772
4.6,460,0.386,-0.424,0.215,177.6742758,-70.6457214,23.9496444,170.70710652,-13.33273266,-17.13717378
4.61,461,0.42200000000000004,-0.485,0.29100000000000004,171.8874,-81.360036,13.980175199999998,172.51192422000003,-12.576428100000001,-17.354897819999998
4.62,462,0.415,-0.52,0.327,171.027963,-91.78787159999999,3.380452200000001,174.28236443999995,-11.69407278,-17.45803026
4.63,463,0.162,-0.13699999999999998,0.44799999999999995,153.9538146,-105.710751,0.057295800000000015,175.8694581,-10.66274838,-17.5038669
4.64,464,-0.306,3.415,1.6540000000000001,440.49011039999993,-386.6320584,125.3059146,-179.40460896,-6.94425096,-18.7930224
4.6499999999999995,465,0.21899999999999997,0.102,1.808,130.7490156,64.744254,2.5210152000000003,-178.08107597999995,-7.59742308,-18.844588620000003
4.66,466,1.286,-2.274,1.7369999999999999,-70.4165382,156.07375919999996,-25.382039399999996,-178.83738054,-9.138680099999998,-18.67270122
4.67,467,-0.368,-1.64,3.715,51.6235158,43.831286999999996,-33.9191136,-178.37901414,-9.58558734,-18.34611516
4.68,468,-1.2,0.371,3.907,45.607456799999994,-144.958374,0.2291832000000001,-177.90918858,-8.158921920000001,-18.25444188
4.6899999999999995,469,-1.087,0.768,3.9730000000000003,47.67010560000001,-108.9766116,4.0680017999999984,-177.4164447,-7.0874904600000015,-18.2200644
4.7,470,-0.988,1.057,3.387,24.064236,-117.34179840000002,-1.8334656000000005,-177.16434318,-5.93584488,-18.11120238
4.71,471,-0.512,0.654,3.165,8.307891,-113.9040504,8.307891,-177.06694032,-4.812847199999998,-18.1054728
4.72,472,-0.311,0.48700000000000004,2.78,6.5317212,-92.99108340000001,7.448453999999999,-176.9867262,-3.89038482,-18.1054728
4.7299999999999995,473,-0.172,0.7829999999999999,2.3369999999999997,4.1252976000000015,-74.31265259999998,11.172680999999999,-176.93515998,-3.1512689999999997,-18.15703902
4.74,474,-0.027000000000000003,0.547,1.905,-17.8762896,-67.2079734,12.834259199999998,-177.1013178,-2.48090814,-18.23152356
4.75,475,0.046,0.8190000000000001,1.5619999999999998,-25.7258142,-69.38521379999999,4.1252976000000015,-177.34768974,-1.7933585399999998,-18.22579398
4.76,476,0.096,0.052000000000000005,1.382,-53.34238979999999,-69.72898860000001,-3.4377480000000005,-177.88054068,-1.10007936,-18.14557986
4.77,477,0.065,-0.073,1.3130000000000002,-61.9367598,-50.305712400000004,-17.761698000000006,-178.51079448,-0.6016058999999999,-17.94504456
4.78,478,0.046,-0.8320000000000001,1.261,-79.46927459999998,-24.4080108,-28.877083199999998,-179.31293567999995,-0.35523396,-17.65283598
4.79,479,-0.07400000000000001,-0.723,1.083,-95.1683238,1.3750992,-19.8243468,179.71400627999995,-0.36096354,-17.46375984
4.8,480,0.006,-0.017,0.82,-102.55948199999999,9.1100322,-15.469866,178.69414104,-0.44117766,-17.32052034
4.81,481,0.013000000000000001,0.406,0.721,-74.31265259999998,5.3285094000000015,13.0634424,177.94356606,-0.4870143000000001,-17.45803026
4.82,482,0.049,0.5429999999999999,0.48100000000000004,-69.38521379999999,0.0,19.652459399999998,177.23882772,-0.4870143000000001,-17.65856556
4.83,483,0.001,0.515,0.5329999999999999,-62.0513514,-4.1252976000000015,26.8717302,176.6143035,-0.4526368200000001,-17.927855819999994
4.84,484,0.073,0.653,0.562,-49.4462754,-2.8074942000000003,22.1161788,176.11583004,-0.43544808,-18.15703902
4.85,485,0.063,0.4270000000000001,0.598,-48.70143,-0.3437748,15.527161800000002,175.6402749,-0.4297185000000001,-18.31173768
4.86,486,0.10400000000000001,0.18600000000000005,0.657,-43.4302164,-2.6929026,5.958763200000001,175.19909724,-0.4010706000000001,-18.38049264
4.87,487,0.075,0.12,0.746,-33.116972399999995,-4.297185,2.8074942000000003,174.8667816,-0.36096354,-18.409140540000006
4.88,488,0.08800000000000001,0.113,0.774,-29.392745399999995,-5.2139178,1.6615782,174.56884344,-0.30366774,-18.43205886
4.89,489,0.078,0.11800000000000001,0.8220000000000001,-27.215505,-6.589017,0.6875496,174.29382360000002,-0.24064236,-18.449247600000003
4.8999999999999995,490,0.073,0.158,0.853,-26.8717302,-8.3651868,0.40107059999999994,174.05318124,-0.14323950000000002,-18.46070676
4.91,491,0.048,0.166,0.888,-27.272800800000002,-9.5111028,0.572958,173.77816140000004,-0.04583664,-18.4778955
4.92,492,-0.013000000000000001,0.004,0.9520000000000001,-28.533308399999996,-8.3651868,1.145916,173.48595282,0.028647900000000007,-18.49508424
4.93,493,0.0,-0.073,1.028,-28.81978740000001,-5.6722842,1.0886202,173.19374424,0.0859437,-18.518002560000006
4.9399999999999995,494,-0.008,-0.08,1.073,-28.934378999999996,-4.3544808,0.9740286,172.90153565999995,0.13178034,-18.5351913
4.95,495,0.001,-0.11199999999999999,1.097,-28.9916748,-4.4690724,1.145916,172.60932708,0.17761697999999998,-18.55238004
4.96,496,0.005,-0.12300000000000001,1.1179999999999999,-25.84040580000001,-5.042030400000002,1.7188740000000002,172.34576639999997,0.22918320000000006,-18.57529836
4.97,497,0.031,-0.11,1.123,-23.14750320000001,-5.2139178,2.1199446,172.11085362,0.28074942,-18.60394626
4.9799999999999995,498,0.03,-0.163,1.0,-24.809081399999997,-6.703608600000001,2.9220858,171.8587521,0.3437748,-18.64405332
4.99,499,0.048,-0.18,1.12,-26.1841806,-3.7242269999999995,4.1252976000000015,171.59519142000005,0.37815228,-18.68988996
5.0,500,0.032,-0.168,1.087,-22.6891368,-0.7448454000000001,3.5523396000000003,171.36600822,0.37815228,-18.729997020000006
5.01,501,-0.032,-0.13,0.976,-17.0741484,-9.5111028,2.0053530000000004,171.19412082000005,0.46982556,-18.7643745
5.02,502,-0.006999999999999999,-0.142,1.033,-10.599723,-15.2406828,0.11459160000000004,171.08525880000005,0.61879464,-18.78729282
5.03,503,0.008,-0.14,1.051,-4.9274388,-10.4851314,-0.5156622000000001,171.03942216000004,0.72192708,-18.7930224
5.04,504,0.01,-0.16,1.004,-1.3178034,-7.3911582,0.0,171.02223342,0.79641162,-18.80448156
5.05,505,0.019,-0.132,0.997,1.0313244000000001,-7.1046792000000005,0.286479,171.05088131999997,0.87089616,-18.81594072
5.06,506,0.025,-0.142,1.016,3.8388186,-6.3598338,0.286479,171.09098838,0.93392154,-18.82739988
5.07,507,0.033,-0.147,1.035,8.5370742,-4.0680017999999984,0.0,171.18266165999995,0.9740286,-18.83312946
5.08,508,0.027999999999999997,-0.151,1.05,12.891555,-0.9167328000000001,-0.1718874,171.314442,0.97975818,-18.82739988
5.09,509,0.028999999999999998,-0.151,1.05,14.667724800000002,2.3491277999999998,0.1718874,171.46341108,0.95683986,-18.82739988
5.1,510,0.102,-0.166,1.051,14.32395,4.0680017999999984,-0.286479,171.600921,0.95111028,-18.81021114
5.11,511,0.057999999999999996,-0.142,1.038,12.6623718,5.443101,-1.8334656000000005,171.72697176000003,0.89954406,-18.78729282
5.12,512,-0.13699999999999998,-0.11699999999999999,0.996,8.307891,3.8961144,0.3437748,171.81291546,0.8594370000000001,-18.78729282
5.13,513,-0.03,-0.131,0.9740000000000001,4.5263682,2.3491277999999998,2.6356068,171.8587521,0.8307891,-18.81021114
5.14,514,0.042,-0.162,0.961,2.4637194,3.0366774,2.7501984,171.88167042,0.79641162,-18.83312946
5.1499999999999995,515,0.045,-0.142,0.9570000000000001,-0.6302538000000001,6.8182002000000015,2.0053530000000004,171.87021126,0.7391158200000001,-18.844588620000003
5.16,516,0.045,-0.138,0.98,-0.9740286,10.084060800000001,1.3178034,171.8587521,0.63598338,-18.844588620000003
5.17,517,0.033,-0.14400000000000002,1.003,1.4896908000000002,11.8602306,1.0313244000000001,171.87594084,0.5156622000000001,-18.844588620000003
5.18,518,0.013999999999999999,-0.134,1.004,2.1199446,12.0894138,0.6875496,171.89312958,0.39534102,-18.83312946
5.1899999999999995,519,0.02,-0.134,1.001,1.5469866,12.032118,0.4583664000000001,171.91031832000004,0.28074942,-18.82739988
5.2,520,0.011000000000000001,-0.138,0.997,1.2032118,13.2353298,0.286479,171.92177748,0.14896908,-18.81594072
5.21,521,-0.004,-0.136,1.0090000000000001,1.6042823999999998,14.4958374,0.0,171.93896622,0.00572958,-18.79875198
5.22,522,0.012,-0.135,1.014,1.3750992,16.7303736,-0.057295800000000015,171.95042538,-0.15469866,-18.77583366
5.2299999999999995,523,0.008,-0.14300000000000002,1.014,1.145916,17.7044022,0.0,171.95615496,-0.32658606,-18.75864492
5.24,524,-0.057999999999999996,-0.078,1.036,0.40107059999999994,18.793022399999998,-0.2291832000000001,171.96188454,-0.5099326200000001,-18.7357266
5.25,525,-0.182,-0.055999999999999994,1.109,-3.5523396000000003,28.4760126,-0.9167328000000001,171.92177748,-0.7906820400000001,-18.69561954
5.26,526,0.297,-0.267,0.934,-4.297185,24.4080108,-0.1718874,171.87594084,-1.0313244000000001,-18.66697164
5.27,527,0.257,-0.268,0.88,-1.6615782,3.9534102,0.5156622000000001,171.8587521,-1.07143146,-18.66697164
5.28,528,-0.042,-0.114,0.93,-4.583664,1.432395,0.40107059999999994,171.80718588,-1.08289062,-18.66697164
5.29,529,-0.069,-0.086,0.9359999999999999,-8.59437,4.4117766,0.6875496,171.72124218,-1.12872726,-18.67270122
5.3,530,-0.09699999999999999,-0.09300000000000001,0.992,-9.1100322,5.844171599999999,0.8594370000000001,171.64102806,-1.22040054,-18.6784308
5.31,531,-0.075,-0.10099999999999999,1.04,-8.59437,8.250595200000001,0.6302538000000001,171.55508436,-1.30061466,-18.6784308
5.32,532,-0.025,-0.131,1.041,-8.193299399999999,10.2559482,0.40107059999999994,171.46914066,-1.39801752,-18.66697164
5.33,533,-0.006999999999999999,-0.149,1.013,-8.193299399999999,9.9694692,0.40107059999999994,171.38319696,-1.50114996,-18.66124206
5.34,534,0.009000000000000001,-0.152,0.9940000000000001,-7.6776372,7.161975,0.572958,171.30298284,-1.56990492,-18.66124206
5.35,535,0.0,-0.152,0.9840000000000001,-6.9327918,4.6409598,0.6302538000000001,171.2284983,-1.59855282,-18.66124206
5.36,536,-0.019,-0.142,0.985,-5.844171599999999,3.2085647999999996,0.6875496,171.1712025,-1.6329303,-18.66124206
5.37,537,-0.034,-0.131,0.996,-4.5263682,3.1512689999999997,0.6875496,171.12536586000004,-1.6615782,-18.66697164
5.38,538,-0.040999999999999995,-0.13,1.0170000000000001,-3.0366774,3.4377480000000005,0.5156622000000001,171.09098838,-1.6959556799999995,-18.66697164
5.39,539,-0.036000000000000004,-0.132,1.034,-2.0053530000000004,3.6096353999999997,0.5156622000000001,171.06807006,-1.73606274,-18.66697164
5.3999999999999995,540,-0.024,-0.135,1.032,-1.7761698000000001,3.4377480000000005,0.4583664000000001,171.06807006,-1.75325148,-18.66697164
5.41,541,-0.021,-0.139,1.023,-1.4896908000000002,2.8074942000000003,0.5156622000000001,171.05088131999997,-1.78189938,-18.67270122
5.42,542,-0.021,-0.14,1.015,-1.6042823999999998,2.0053530000000004,0.572958,171.03369258,-1.8048177,-18.67270122
5.43,543,-0.027000000000000003,-0.138,1.013,-1.7188740000000002,1.3178034,0.6302538000000001,171.01650383999996,-1.81627686,-18.6784308
5.4399999999999995,544,-0.028999999999999998,-0.136,1.016,-1.9480572,1.0886202,0.6302538000000001,170.9993151,-1.82773602,-18.68416038
5.45,545,-0.033,-0.13699999999999998,1.0190000000000001,-2.3491277999999998,1.3178034,0.6875496,170.99358552,-1.8334656000000005,-18.68988996
5.46,546,-0.032,-0.13,1.0190000000000001,-2.6929026,2.1199446,0.572958,170.96493762,-1.85638392,-18.68988996
5.47,547,-0.022000000000000002,-0.141,1.011,-2.9793816000000004,2.5783110000000002,0.5156622000000001,170.93628972,-1.88503182,-18.69561954
5.4799999999999995,548,-0.042,-0.126,1.005,-3.2085647999999996,2.9793816000000004,0.5156622000000001,170.90191224,-1.91367972,-18.69561954
5.49,549,-0.016,-0.14,0.991,-3.3231564,3.0939732,0.6302538000000001,170.86753475999996,-1.94232762,-18.70134912
5.5,550,0.001,-0.139,0.977,-2.8074942000000003,1.6615782,0.6302538000000001,170.85034602,-1.9194093000000003,-18.70134912
5.51,551,-0.009000000000000001,-0.138,0.9740000000000001,-2.3491277999999998,0.4583664000000001,0.5156622000000001,170.8274277,-1.92513888,-18.707078699999997
5.52,552,-0.022000000000000002,-0.128,0.977,-1.8334656000000005,0.057295800000000015,0.2291832000000001,170.81023896000005,-1.92513888,-18.707078699999997
5.53,553,-0.034,-0.134,0.986,-1.2032118,0.3437748,0.11459160000000004,170.79305022,-1.93086846,-18.707078699999997
5.54,554,-0.039,-0.127,1.001,-0.2291832000000001,1.0886202,0.11459160000000004,170.79305022,-1.94232762,-18.707078699999997
5.55,555,-0.032,-0.132,1.006,0.9167328000000001,1.6042823999999998,-0.057295800000000015,170.83315728,-1.9480572000000005,-18.707078699999997
5.56,556,-0.027000000000000003,-0.139,1.011,2.1199446,1.8907614,-0.11459160000000004,170.8560756,-1.96524594,-18.70134912
5.57,557,-0.023,-0.142,1.012,3.380452200000001,1.8907614,-0.2291832000000001,170.89045308,-1.98243468,-18.69561954
5.58,558,-0.022000000000000002,-0.14300000000000002,1.015,4.1252976000000015,1.7188740000000002,-0.286479,170.93056013999995,-1.99962342,-18.68988996
5.59,559,-0.024,-0.141,1.0170000000000001,4.6409598,1.6615782,-0.3437748,170.97639678000004,-2.01681216,-18.68416038
5.6,560,-0.026000000000000002,-0.141,1.018,4.9274388,1.6615782,-0.3437748,171.03369258,-2.02254174,-18.6784308
5.61,561,-0.027999999999999997,-0.139,1.018,4.9274388,1.7188740000000002,-0.286479,171.08525880000005,-2.03973048,-18.67270122
5.62,562,-0.026000000000000002,-0.141,1.0170000000000001,4.7555514,1.7188740000000002,-0.286479,171.13109544,-2.05691922,-18.66697164
5.63,563,-0.025,-0.139,1.016,4.4690724,1.7761698000000001,-0.3437748,171.17693208,-2.07410796,-18.65551248
5.64,564,-0.025,-0.142,1.01,3.9534102,1.4896908000000002,-0.286479,171.21703914,-2.0912967,-18.65551248
5.6499999999999995,565,-0.024,-0.142,1.004,3.1512689999999997,1.145916,-0.11459160000000004,171.25141662,-2.07983754,-18.6497829
5.66,566,-0.023,-0.139,1.004,2.5210152000000003,0.9740286,-0.057295800000000015,171.28006452,-2.0912967,-18.64405332
5.67,567,-0.023,-0.14,1.003,1.8907614,0.9167328000000001,-0.11459160000000004,171.29725326,-2.09702628,-18.64405332
5.68,568,-0.022000000000000002,-0.139,1.001,1.2032118,0.7448454000000001,0.0,171.30871242,-2.10848544,-18.64405332
5.6899999999999995,569,-0.024,-0.13699999999999998,1.002,0.6302538000000001,0.7448454000000001,0.057295800000000015,171.314442,-2.11421502,-18.64405332
5.7,570,-0.026000000000000002,-0.138,1.002,0.286479,1.145916,0.11459160000000004,171.3430899,-2.07983754,-18.63832374
5.71,571,-0.027999999999999997,-0.138,1.003,0.0,1.432395,0.2291832000000001,171.3430899,-2.09702628,-18.63832374
5.72,572,-0.028999999999999998,-0.138,1.005,-0.4583664000000001,1.5469866,0.2291832000000001,171.33736032,-2.11421502,-18.63832374
5.7299999999999995,573,-0.027000000000000003,-0.138,1.006,-1.0313244000000001,1.6615782,0.286479,171.32590116,-2.13140376,-18.63832374
5.74,574,-0.027000000000000003,-0.14,1.008,-1.3750992,1.4896908000000002,0.3437748,171.30871242,-2.14286292,-18.64405332
5.75,575,-0.027000000000000003,-0.138,1.008,-1.6615782,1.2032118,0.3437748,171.30298284,-2.13713334,-18.64405332
5.76,576,-0.028999999999999998,-0.138,1.011,-1.8334656000000005,1.2032118,0.40107059999999994,171.28579409999998,-2.1485925000000003,-18.64405332
5.77,577,-0.027999999999999997,-0.138,1.011,-1.9480572,1.2605076000000002,0.40107059999999994,171.26287578,-2.1657812400000003,-18.6497829
5.78,578,-0.028999999999999998,-0.138,1.011,-1.9480572,1.4896908000000002,0.40107059999999994,171.24568704,-2.1772404,-18.6497829
5.79,579,-0.028999999999999998,-0.138,1.008,-2.1199446,1.7188740000000002,0.40107059999999994,171.22276872,-2.19442914,-18.65551248
5.8,580,-0.028999999999999998,-0.138,1.005,-2.2345362,1.7761698000000001,0.40107059999999994,171.21130956000005,-2.20015872,-18.65551248
5.81,581,-0.028999999999999998,-0.136,1.002,-2.291832,1.6042823999999998,0.40107059999999994,171.18839124000004,-2.21734746,-18.65551248
5.82,582,-0.031,-0.135,1.003,-2.291832,1.5469866,0.286479,171.16547292,-2.2345362,-18.66124206
5.83,583,-0.032,-0.135,1.002,-2.291832,1.432395,0.4583664000000001,171.14255459999995,-2.24599536,-18.66124206
5.84,584,-0.031,-0.135,1.002,-2.4064236,1.2605076000000002,0.3437748,171.11390669999997,-2.2631841,-18.66697164
5.85,585,-0.033,-0.135,1.002,-2.4064236,1.145916,0.3437748,171.10817712,-2.2631841,-18.66697164
5.86,586,-0.034,-0.135,1.003,-2.1199446,0.9740286,0.286479,171.08525880000005,-2.2746432600000004,-18.66697164
5.87,587,-0.033,-0.135,1.004,-1.8907614,1.0313244000000001,0.286479,171.06807006,-2.28037284,-18.67270122
5.88,588,-0.034,-0.135,1.005,-1.6042823999999998,1.2032118,0.2291832000000001,171.05088131999997,-2.29756158,-18.67270122
5.89,589,-0.034,-0.135,1.006,-1.145916,1.2605076000000002,0.2291832000000001,171.03942216000004,-2.30902074,-18.67270122
5.8999999999999995,590,-0.034,-0.135,1.0070000000000001,-0.8021411999999999,1.2605076000000002,0.2291832000000001,171.06807006,-2.2918320000000003,-18.67270122
5.91,591,-0.033,-0.135,1.01,-0.4583664000000001,1.3178034,0.2291832000000001,171.06234048000005,-2.30902074,-18.67270122
5.92,592,-0.033,-0.136,1.011,-0.2291832000000001,1.3750992,0.1718874,171.06234048000005,-2.3204799,-18.67270122
5.93,593,-0.032,-0.136,1.011,0.0,1.432395,0.1718874,171.06234048000005,-2.3376686399999995,-18.67270122
5.9399999999999995,594,-0.033,-0.13699999999999998,1.008,0.1718874,1.432395,0.2291832000000001,171.06234048000005,-2.3491278,-18.67270122
5.95,595,-0.033,-0.13699999999999998,1.0090000000000001,0.2291832000000001,1.2605076000000002,0.1718874,171.10817712,-2.32620948,-18.67270122
5.96,596,-0.033,-0.135,1.0090000000000001,0.2291832000000001,1.0313244000000001,0.1718874,171.11390669999997,-2.3376686399999995,-18.67270122
5.97,597,-0.034,-0.13699999999999998,1.01,0.286479,0.7448454000000001,0.1718874,171.11390669999997,-2.34339822,-18.67270122
5.9799999999999995,598,-0.032,-0.136,1.008,0.2291832000000001,0.5156622000000001,0.1718874,171.11963628,-2.3491278,-18.6784308
5.99,599,-0.032,-0.13699999999999998,1.008,0.1718874,0.3437748,0.11459160000000004,171.11963628,-2.35485738,-18.6784308
6.0,600,-0.031,-0.13699999999999998,1.0090000000000001,0.1718874,0.286479,0.1718874,171.19412082000005,-2.2918320000000003,-18.67270122
6.01,601,-0.032,-0.138,1.0090000000000001,0.057295800000000015,0.1718874,0.2291832000000001,171.19412082000005,-2.2918320000000003,-18.6784308
6.02,602,-0.032,-0.139,1.01,0.0,0.057295800000000015,0.1718874,171.19412082000005,-2.2918320000000003,-18.6784308
6.03,603,-0.031,-0.138,1.0090000000000001,-0.057295800000000015,0.0,0.1718874,171.19412082000005,-2.2918320000000003,-18.68416038
6.04,604,-0.03,-0.138,1.008,-0.057295800000000015,-0.11459160000000004,0.2291832000000001,171.18839124000004,-2.2918320000000003,-18.68416038
6.05,605,-0.031,-0.138,1.008,-0.1718874,-0.11459160000000004,0.1718874,171.25141662,-2.2058883,-18.6784308
6.06,606,-0.03,-0.13699999999999998,1.0070000000000001,-0.1718874,-0.11459160000000004,0.2291832000000001,171.25141662,-2.2058883,-18.68416038
6.07,607,-0.03,-0.139,1.008,-0.40107059999999994,0.0,0.2291832000000001,171.24568704,-2.2058883,-18.68416038
6.08,608,-0.031,-0.138,1.0070000000000001,-0.5156622000000001,0.057295800000000015,0.2291832000000001,171.23995746,-2.2058883,-18.68988996
6.09,609,-0.031,-0.138,1.0070000000000001,-0.4583664000000001,0.2291832000000001,0.286479,171.23422788,-2.2058883,-18.68988996
6.1,610,-0.032,-0.138,1.008,-0.572958,0.5156622000000001,0.286479,171.25714620000005,-2.18296998,-18.69561954
6.11,611,-0.031,-0.13699999999999998,1.006,-0.6875496,0.8021411999999999,0.3437748,171.25141662,-2.19442914,-18.69561954
6.12,612,-0.032,-0.139,1.0070000000000001,-0.6875496,0.9740286,0.3437748,171.24568704,-2.20015872,-18.69561954
6.13,613,-0.031,-0.138,1.008,-0.7448454000000001,1.0886202,0.286479,171.23422788,-2.21161788,-18.70134912
6.14,614,-0.031,-0.138,1.0070000000000001,-0.7448454000000001,1.2605076000000002,0.286479,171.2284983,-2.22880662,-18.70134912
6.15,615,-0.032,-0.13699999999999998,1.008,-0.6875496,1.2605076000000002,0.286479,171.23995746,-2.21734746,-18.70134912
6.16,616,-0.032,-0.138,1.0090000000000001,-0.6875496,1.3750992,0.3437748,171.23422788,-2.2345362,-18.70134912
6.17,617,-0.032,-0.138,1.0090000000000001,-0.6302538000000001,1.432395,0.286479,171.2284983,-2.24599536,-18.707078699999997
6.18,618,-0.033,-0.139,1.0090000000000001,-0.5156622000000001,1.3750992,0.3437748,171.22276872,-2.2631841,-18.707078699999997
6.1899999999999995,619,-0.033,-0.13699999999999998,1.0090000000000001,-0.40107059999999994,1.4896908000000002,0.286479,171.21703914,-2.28037284,-18.707078699999997
6.2,620,-0.034,-0.138,1.008,-0.40107059999999994,1.6615782,0.286479,171.2284983,-2.28037284,-18.707078699999997
6.21,621,-0.034,-0.138,1.0070000000000001,-0.286479,1.8334656000000005,0.286479,171.2284983,-2.29756158,-18.707078699999997
6.22,622,-0.034,-0.138,1.008,-0.1718874,1.9480572,0.2291832000000001,171.22276872,-2.3147503200000004,-18.707078699999997
6.2299999999999995,623,-0.035,-0.138,1.0070000000000001,-0.11459160000000004,1.8334656000000005,0.286479,171.22276872,-2.3376686399999995,-18.707078699999997
6.24,624,-0.035,-0.13699999999999998,1.0070000000000001,-0.11459160000000004,1.8334656000000005,0.2291832000000001,171.22276872,-2.35485738,-18.71280828
6.25,625,-0.036000000000000004,-0.136,1.0070000000000001,-0.11459160000000004,1.7761698000000001,0.2291832000000001,171.23995746,-2.35485738,-18.707078699999997
6.26,626,-0.035,-0.138,1.0090000000000001,-0.11459160000000004,1.7188740000000002,0.2291832000000001,171.23422788,-2.37204612,-18.71280828
6.27,627,-0.035,-0.138,1.011,-0.1718874,1.3750992,0.2291832000000001,171.23422788,-2.38923486,-18.71280828
6.28,628,-0.036000000000000004,-0.13699999999999998,1.0090000000000001,-0.3437748,1.3178034,0.286479,171.2284983,-2.40069402,-18.71280828
6.29,629,-0.036000000000000004,-0.13699999999999998,1.0090000000000001,-0.3437748,1.0886202,0.286479,171.22276872,-2.41215318,-18.71280828
6.3,630,-0.036000000000000004,-0.13699999999999998,1.008,-0.286479,1.0886202,0.2291832000000001,171.25141662,-2.39496444,-18.71280828
6.31,631,-0.036000000000000004,-0.13699999999999998,1.008,-0.40107059999999994,0.9740286,0.2291832000000001,171.24568704,-2.4064236,-18.71280828
6.32,632,-0.036000000000000004,-0.138,1.008,-0.4583664000000001,0.8021411999999999,0.2291832000000001,171.23995746,-2.41215318,-18.71853786
6.33,633,-0.036000000000000004,-0.138,1.0070000000000001,-0.572958,0.6302538000000001,0.2291832000000001,171.23422788,-2.41788276,-18.71853786
6.34,634,-0.037000000000000005,-0.139,1.0090000000000001,-0.6875496,0.3437748,0.286479,171.2284983,-2.42361234,-18.71853786
6.35,635,-0.036000000000000004,-0.138,1.0090000000000001,-0.6302538000000001,0.0,0.1718874,171.25141662,-2.38923486,-18.71853786
6.36,636,-0.036000000000000004,-0.14,1.0070000000000001,-0.6875496,-0.1718874,0.2291832000000001,171.24568704,-2.38923486,-18.72426744
6.37,637,-0.035,-0.138,1.008,-0.8021411999999999,-0.11459160000000004,0.2291832000000001,171.23995746,-2.38350528,-18.72426744
6.38,638,-0.036000000000000004,-0.13699999999999998,1.0070000000000001,-0.8594370000000001,-0.057295800000000015,0.2291832000000001,171.2284983,-2.38350528,-18.729997020000006
6.39,639,-0.036000000000000004,-0.13699999999999998,1.004,-0.7448454000000001,0.0,0.2291832000000001,171.22276872,-2.38350528,-18.729997020000006
6.4,640,-0.036000000000000004,-0.138,1.005,-0.7448454000000001,-0.057295800000000015,0.286479,171.24568704,-2.35485738,-18.7357266
6.41,641,-0.035,-0.136,1.006,-0.7448454000000001,0.0,0.2291832000000001,171.23995746,-2.35485738,-18.7357266
6.42,642,-0.035,-0.136,1.0070000000000001,-0.6302538000000001,0.057295800000000015,0.286479,171.23422788,-2.35485738,-18.74145618
6.43,643,-0.036000000000000004,-0.138,1.008,-0.6302538000000001,0.057295800000000015,0.2291832000000001,171.2284983,-2.35485738,-18.74145618
6.4399999999999995,644,-0.035,-0.13699999999999998,1.0070000000000001,-0.572958,0.11459160000000004,0.2291832000000001,171.22276872,-2.35485738,-18.74718576
6.45,645,-0.035,-0.138,1.008,-0.4583664000000001,0.2291832000000001,0.286479,171.25141662,-2.32620948,-18.74718576
6.46,646,-0.035,-0.13699999999999998,1.008,-0.4583664000000001,0.1718874,0.2291832000000001,171.25141662,-2.33193906,-18.74718576
6.47,647,-0.035,-0.139,1.008,-0.3437748,0.286479,0.2291832000000001,171.24568704,-2.33193906,-18.75291534
6.4799999999999995,648,-0.034,-0.138,1.01,-0.3437748,0.3437748,0.286479,171.23995746,-2.3376686399999995,-18.75291534
6.49,649,-0.035,-0.138,1.0090000000000001,-0.3437748,0.40107059999999994,0.2291832000000001,171.23995746,-2.34339822,-18.75864492
6.5,650,-0.035,-0.13699999999999998,1.011,-0.3437748,0.5156622000000001,0.2291832000000001,171.26860535999995,-2.3147503200000004,-18.75864492
6.51,651,-0.035,-0.138,1.012,-0.4583664000000001,0.572958,0.2291832000000001,171.26287578,-2.32620948,-18.75864492
6.52,652,-0.035,-0.13699999999999998,1.01,-0.4583664000000001,0.6875496,0.2291832000000001,171.25714620000005,-2.33193906,-18.75864492
6.53,653,-0.035,-0.138,1.0090000000000001,-0.40107059999999994,0.8594370000000001,0.286479,171.25714620000005,-2.3376686399999995,-18.7643745
6.54,654,-0.035,-0.139,1.0070000000000001,-0.3437748,0.8021411999999999,0.286479,171.25141662,-2.3491278,-18.7643745
6.55,655,-0.036000000000000004,-0.139,1.006,-0.40107059999999994,0.9167328000000001,0.3437748,171.26287578,-2.34339822,-18.7643745
6.56,656,-0.036000000000000004,-0.138,1.005,-0.5156622000000001,0.8594370000000001,0.2291832000000001,171.25714620000005,-2.3491278,-18.77010408
6.57,657,-0.036000000000000004,-0.138,1.006,-0.5156622000000001,0.9740286,0.2291832000000001,171.25141662,-2.36058696,-18.77010408
6.58,658,-0.036000000000000004,-0.138,1.005,-0.4583664000000001,0.9167328000000001,0.286479,171.24568704,-2.37204612,-18.77010408
6.59,659,-0.034,-0.139,1.0070000000000001,-0.4583664000000001,0.8594370000000001,0.286479,171.23995746,-2.3777757,-18.77583366
6.6,660,-0.038,-0.14,1.008,-0.572958,0.9167328000000001,0.2291832000000001,171.24568704,-2.3777757,-18.77583366
6.61,661,-0.037000000000000005,-0.14,1.01,-0.5156622000000001,0.7448454000000001,0.2291832000000001,171.23995746,-2.38923486,-18.77583366
6.62,662,-0.036000000000000004,-0.139,1.0090000000000001,-0.6875496,0.8021411999999999,0.2291832000000001,171.23422788,-2.39496444,-18.77583366
6.63,663,-0.037000000000000005,-0.138,1.01,-0.8594370000000001,0.8021411999999999,0.2291832000000001,171.22276872,-2.40069402,-18.78156324
6.64,664,-0.037000000000000005,-0.138,1.008,-0.8021411999999999,0.6302538000000001,0.286479,171.21703914,-2.41215318,-18.78156324
6.65,665,-0.036000000000000004,-0.139,1.008,-0.8021411999999999,0.572958,0.2291832000000001,171.2284983,-2.39496444,-18.78156324
6.66,666,-0.037000000000000005,-0.138,1.0090000000000001,-0.8594370000000001,0.572958,0.2291832000000001,171.21703914,-2.40069402,-18.78156324
6.67,667,-0.037000000000000005,-0.138,1.008,-0.8021411999999999,0.4583664000000001,0.1718874,171.21130956000005,-2.4064236,-18.78729282
6.68,668,-0.037000000000000005,-0.138,1.0090000000000001,-0.7448454000000001,0.5156622000000001,0.1718874,171.1998504,-2.41215318,-18.78729282
6.6899999999999995,669,-0.037000000000000005,-0.138,1.008,-0.7448454000000001,0.572958,0.286479,171.19412082000005,-2.41788276,-18.78729282
6.7,670,-0.038,-0.138,1.0070000000000001,-0.1718874,0.057295800000000015,0.0,171.25141662,-2.37204612,-18.78729282
6.71,671,-0.037000000000000005,-0.139,1.0070000000000001,-0.1718874,0.057295800000000015,0.0,171.25141662,-2.37204612,-18.78729282
6.72,672,-0.037000000000000005,-0.139,1.0070000000000001,-0.1718874,0.0,0.0,171.24568704,-2.37204612,-18.78729282
6.7299999999999995,673,-0.036000000000000004,-0.138,1.0070000000000001,-0.057295800000000015,-0.057295800000000015,0.0,171.24568704,-2.37204612,-18.78729282
6.74,674,-0.037000000000000005,-0.138,1.006,0.0,-0.11459160000000004,0.0,171.24568704,-2.37204612,-18.78729282
6.75,675,-0.037000000000000005,-0.138,1.0070000000000001,0.0,-0.2291832000000001,0.0,171.314442,-2.30329116,-18.78729282
6.76,676,-0.036000000000000004,-0.139,1.0090000000000001,0.0,-0.3437748,0.0,171.314442,-2.30329116,-18.78729282
6.77,677,-0.036000000000000004,-0.139,1.008,-0.057295800000000015,-0.3437748,0.0,171.314442,-2.29756158,-18.78729282
6.78,678,-0.036000000000000004,-0.139,1.0090000000000001,-0.11459160000000004,-0.3437748,0.0,171.30871242,-2.29756158,-18.78729282
6.79,679,-0.037000000000000005,-0.139,1.008,-0.057295800000000015,-0.286479,0.0,171.30871242,-2.2918320000000003,-18.78729282
6.8,680,-0.038,-0.139,1.0070000000000001,0.11459160000000004,-0.2291832000000001,0.0,171.35454906,-2.25745452,-18.78729282
6.81,681,-0.037000000000000005,-0.139,1.005,0.057295800000000015,-0.2291832000000001,0.057295800000000015,171.35454906,-2.25745452,-18.78729282
6.82,682,-0.037000000000000005,-0.14,1.006,0.057295800000000015,-0.1718874,0.0,171.35454906,-2.25745452,-18.7930224
6.83,683,-0.037000000000000005,-0.14,1.0070000000000001,0.057295800000000015,-0.11459160000000004,0.057295800000000015,171.36027864,-2.25745452,-18.7930224
6.84,684,-0.036000000000000004,-0.139,1.0090000000000001,0.0,-0.11459160000000004,0.0,171.36027864,-2.25172494,-18.7930224
6.85,685,-0.037000000000000005,-0.14,1.008,-0.057295800000000015,-0.11459160000000004,0.0,171.41184486000003,-2.2058883,-18.7930224
6.86,686,-0.037000000000000005,-0.139,1.0090000000000001,-0.11459160000000004,-0.11459160000000004,0.0,171.41184486000003,-2.20015872,-18.7930224
6.87,687,-0.037000000000000005,-0.14,1.0070000000000001,0.0,-0.286479,0.0,171.41184486000003,-2.20015872,-18.7930224
6.88,688,-0.037000000000000005,-0.14,1.008,0.0,-0.2291832000000001,0.0,171.41184486000003,-2.19442914,-18.7930224
6.89,689,-0.037000000000000005,-0.141,1.008,-0.057295800000000015,-0.11459160000000004,0.0,171.41184486000003,-2.19442914,-18.7930224
6.9,690,-0.036000000000000004,-0.141,1.008,-0.2291832000000001,0.0,0.0,171.42330402,-2.1657812400000003,-18.7930224
6.91,691,-0.036000000000000004,-0.141,1.0090000000000001,-0.1718874,0.0,0.057295800000000015,171.41757444,-2.1657812400000003,-18.7930224
6.92,692,-0.036000000000000004,-0.141,1.011,-0.11459160000000004,-0.11459160000000004,0.0,171.41757444,-2.1657812400000003,-18.7930224
6.93,693,-0.037000000000000005,-0.142,1.012,-0.2291832000000001,-0.40107059999999994,0.0,171.41757444,-2.16005166,-18.7930224
6.9399999999999995,694,-0.037000000000000005,-0.141,1.011,-0.1718874,-0.286479,0.057295800000000015,171.41184486000003,-2.16005166,-18.7930224
6.95,695,-0.037000000000000005,-0.14,1.011,-0.11459160000000004,-0.1718874,0.0,171.44049276,-2.13713334,-18.7930224
6.96,696,-0.037000000000000005,-0.14,1.0070000000000001,-0.1718874,-0.057295800000000015,0.057295800000000015,171.44049276,-2.13713334,-18.7930224
6.97,697,-0.037000000000000005,-0.138,1.006,-0.057295800000000015,-0.057295800000000015,0.0,171.44049276,-2.13140376,-18.7930224
6.9799999999999995,698,-0.037000000000000005,-0.139,1.005,0.057295800000000015,0.0,0.0,171.44049276,-2.13140376,-18.7930224
6.99,699,-0.037000000000000005,-0.139,1.005,0.11459160000000004,0.0,0.0,171.44049276,-2.13140376,-18.79875198
7.0,700,-0.037000000000000005,-0.14,1.006,0.1718874,0.0,0.0,171.47487024,-2.11421502,-18.79875198
7.01,701,-0.037000000000000005,-0.141,1.008,0.057295800000000015,0.057295800000000015,0.0,171.47487024,-2.11421502,-18.7930224
7.02,702,-0.037000000000000005,-0.14,1.0070000000000001,0.11459160000000004,0.057295800000000015,0.0,171.47487024,-2.1199446,-18.7930224
7.03,703,-0.038,-0.141,1.0070000000000001,0.11459160000000004,0.0,0.0,171.47487024,-2.11421502,-18.7930224
7.04,704,-0.037000000000000005,-0.141,1.0070000000000001,0.11459160000000004,0.0,-0.057295800000000015,171.48059982,-2.1199446,-18.7930224
7.05,705,-0.037000000000000005,-0.141,1.008,0.11459160000000004,0.0,0.0,171.49778855999998,-2.10275586,-18.7930224
7.06,706,-0.037000000000000005,-0.14,1.0090000000000001,0.1718874,0.057295800000000015,0.0,171.49778855999998,-2.10275586,-18.7930224
7.07,707,-0.037000000000000005,-0.141,1.008,0.11459160000000004,0.057295800000000015,0.0,171.49778855999998,-2.10275586,-18.7930224
7.08,708,-0.036000000000000004,-0.141,1.0090000000000001,0.1718874,0.0,0.0,171.50351814,-2.10275586,-18.7930224
7.09,709,-0.037000000000000005,-0.142,1.0090000000000001,0.11459160000000004,-0.057295800000000015,-0.057295800000000015,171.50351814,-2.10275586,-18.7930224
7.1,710,-0.037000000000000005,-0.141,1.01,0.2291832000000001,-0.057295800000000015,0.0,171.52070687999995,-2.0912967,-18.7930224
7.11,711,-0.037000000000000005,-0.141,1.008,0.11459160000000004,-0.11459160000000004,0.0,171.52070687999995,-2.08556712,-18.7930224
7.12,712,-0.037000000000000005,-0.141,1.008,0.057295800000000015,0.0,-0.057295800000000015,171.52070687999995,-2.08556712,-18.7930224
7.13,713,-0.037000000000000005,-0.141,1.006,0.1718874,-0.057295800000000015,0.0,171.52070687999995,-2.08556712,-18.7930224
7.14,714,-0.037000000000000005,-0.141,1.006,0.2291832000000001,0.0,0.057295800000000015,171.52643646,-2.08556712,-18.7930224
7.15,715,-0.037000000000000005,-0.14,1.006,0.11459160000000004,0.0,0.0,171.53216604,-2.07410796,-18.7930224
7.16,716,-0.037000000000000005,-0.141,1.006,0.057295800000000015,-0.057295800000000015,-0.057295800000000015,171.53789562,-2.07410796,-18.7930224
7.17,717,-0.037000000000000005,-0.141,1.0070000000000001,0.057295800000000015,-0.057295800000000015,-0.057295800000000015,171.53789562,-2.07410796,-18.7930224
7.18,718,-0.037000000000000005,-0.141,1.006,0.1718874,-0.1718874,0.0,171.53789562,-2.06837838,-18.7930224
7.1899999999999995,719,-0.037000000000000005,-0.141,1.008,0.1718874,-0.286479,0.0,171.53789562,-2.06837838,-18.7930224
7.2,720,-0.037000000000000005,-0.141,1.008,0.11459160000000004,-0.1718874,-0.057295800000000015,171.54362519999995,-2.05118964,-18.78729282
7.21,721,-0.037000000000000005,-0.141,1.0090000000000001,0.057295800000000015,-0.11459160000000004,0.0,171.54362519999995,-2.05118964,-18.78729282
7.22,722,-0.037000000000000005,-0.141,1.0070000000000001,0.057295800000000015,-0.057295800000000015,0.0,171.54362519999995,-2.05118964,-18.78729282
7.2299999999999995,723,-0.037000000000000005,-0.141,1.0090000000000001,0.0,-0.057295800000000015,0.0,171.54362519999995,-2.04546006,-18.78729282
7.24,724,-0.037000000000000005,-0.14,1.0070000000000001,0.0,-0.057295800000000015,0.0,171.54362519999995,-2.04546006,-18.78729282
7.25,725,-0.037000000000000005,-0.14,1.008,0.0,0.0,0.0,171.57227310000005,-2.0340009,-18.78729282
7.26,726,-0.037000000000000005,-0.141,1.0090000000000001,0.0,0.0,0.0,171.57227310000005,-2.02827132,-18.78729282
7.27,727,-0.037000000000000005,-0.141,1.008,-0.11459160000000004,0.057295800000000015,0.0,171.57227310000005,-2.0340009,-18.78729282
7.28,728,-0.036000000000000004,-0.142,1.008,0.0,0.0,0.0,171.57227310000005,-2.0340009,-18.78729282
7.29,729,-0.037000000000000005,-0.141,1.008,0.0,0.0,0.0,171.57227310000005,-2.02827132,-18.7930224
7.3,730,-0.037000000000000005,-0.142,1.0070000000000001,0.0,0.0,0.0,171.56654352,-2.02827132,-18.7930224
7.31,731,-0.037000000000000005,-0.141,1.006,0.057295800000000015,-0.057295800000000015,0.0,171.56654352,-2.02827132,-18.78729282
7.32,732,-0.036000000000000004,-0.141,1.006,0.0,0.0,0.0,171.56654352,-2.02827132,-18.7930224
7.33,733,-0.037000000000000005,-0.141,1.008,0.0,-0.057295800000000015,0.0,171.56654352,-2.02827132,-18.7930224
7.34,734,-0.037000000000000005,-0.141,1.008,-0.11459160000000004,0.0,0.0,171.56654352,-2.02827132,-18.7930224
7.35,735,-0.037000000000000005,-0.141,1.0070000000000001,-0.11459160000000004,0.0,0.0,171.54935478,-2.02254174,-18.78729282
7.36,736,-0.036000000000000004,-0.142,1.008,-0.057295800000000015,0.0,0.0,171.54935478,-2.02254174,-18.78729282
7.37,737,-0.037000000000000005,-0.141,1.006,0.0,0.0,0.0,171.54935478,-2.02254174,-18.78729282
7.38,738,-0.037000000000000005,-0.141,1.0070000000000001,-0.057295800000000015,0.11459160000000004,0.0,171.54362519999995,-2.02254174,-18.78729282
7.39,739,-0.036000000000000004,-0.141,1.008,0.0,0.1718874,-0.057295800000000015,171.54362519999995,-2.02254174,-18.78729282
7.4,740,-0.037000000000000005,-0.142,1.0070000000000001,0.0,0.11459160000000004,0.0,171.52643646,-2.0340009,-18.78729282
7.41,741,-0.038,-0.142,1.0070000000000001,0.0,0.11459160000000004,0.0,171.52643646,-2.0340009,-18.78729282
7.42,742,-0.038,-0.142,1.0070000000000001,0.0,0.1718874,0.0,171.52643646,-2.0340009,-18.78729282
7.43,743,-0.037000000000000005,-0.142,1.0070000000000001,0.0,0.1718874,0.0,171.52643646,-2.03973048,-18.78729282
7.4399999999999995,744,-0.037000000000000005,-0.142,1.0070000000000001,0.0,0.1718874,0.0,171.52643646,-2.03973048,-18.78729282
7.45,745,-0.037000000000000005,-0.141,1.0090000000000001,-0.11459160000000004,0.1718874,0.0,171.52643646,-2.03973048,-18.78729282
7.46,746,-0.037000000000000005,-0.141,1.008,-0.2291832000000001,0.11459160000000004,0.0,171.52643646,-2.03973048,-18.78729282
7.47,747,-0.037000000000000005,-0.142,1.0090000000000001,-0.1718874,0.11459160000000004,0.0,171.52070687999995,-2.03973048,-18.78729282
7.4799999999999995,748,-0.037000000000000005,-0.142,1.0070000000000001,-0.2291832000000001,0.2291832000000001,0.0,171.52070687999995,-2.04546006,-18.78156324
7.49,749,-0.037000000000000005,-0.142,1.008,-0.2291832000000001,0.286479,0.0,171.5149773,-2.04546006,-18.78156324
7.5,750,-0.037000000000000005,-0.142,1.008,-0.2291832000000001,0.286479,0.0,171.50924772000005,-2.05118964,-18.78156324
7.51,751,-0.038,-0.142,1.008,-0.286479,0.2291832000000001,0.0,171.50924772000005,-2.05118964,-18.78156324
7.52,752,-0.037000000000000005,-0.14300000000000002,1.0070000000000001,-0.1718874,0.0,0.057295800000000015,171.50351814,-2.05118964,-18.78156324
7.53,753,-0.038,-0.142,1.006,-0.11459160000000004,-0.11459160000000004,0.0,171.50351814,-2.05118964,-18.78156324
7.54,754,-0.037000000000000005,-0.14300000000000002,1.0090000000000001,0.0,-0.286479,0.0,171.50351814,-2.04546006,-18.78156324
7.55,755,-0.038,-0.14400000000000002,1.0090000000000001,0.0,-0.2291832000000001,0.0,171.49778855999998,-2.04546006,-18.78156324
7.56,756,-0.037000000000000005,-0.14400000000000002,1.01,0.0,-0.11459160000000004,0.0,171.49778855999998,-2.03973048,-18.78156324
7.57,757,-0.036000000000000004,-0.14300000000000002,1.0070000000000001,-0.057295800000000015,-0.057295800000000015,0.0,171.49778855999998,-2.03973048,-18.78156324
7.58,758,-0.037000000000000005,-0.14300000000000002,1.0070000000000001,-0.057295800000000015,-0.11459160000000004,0.057295800000000015,171.49778855999998,-2.03973048,-18.78729282
7.59,759,-0.037000000000000005,-0.142,1.006,-0.11459160000000004,0.0,0.057295800000000015,171.49205898,-2.03973048,-18.78729282
7.6,760,-0.037000000000000005,-0.142,1.006,-0.057295800000000015,0.0,0.0,171.48059982,-2.0340009,-18.78729282
7.61,761,-0.038,-0.142,1.006,-0.057295800000000015,-0.057295800000000015,0.057295800000000015,171.48059982,-2.0340009,-18.78729282
7.62,762,-0.038,-0.14300000000000002,1.005,-0.057295800000000015,-0.057295800000000015,0.057295800000000015,171.48059982,-2.02827132,-18.78729282
7.63,763,-0.037000000000000005,-0.14300000000000002,1.005,0.0,-0.1718874,0.0,171.48059982,-2.02827132,-18.78729282
7.64,764,-0.038,-0.14300000000000002,1.006,0.0,-0.2291832000000001,0.0,171.48059982,-2.02827132,-18.78729282
7.65,765,-0.038,-0.14400000000000002,1.006,0.057295800000000015,-0.1718874,0.0,171.47487024,-2.02827132,-18.78729282
7.66,766,-0.037000000000000005,-0.14400000000000002,1.0070000000000001,0.0,-0.1718874,0.0,171.47487024,-2.02254174,-18.78729282
7.67,767,-0.037000000000000005,-0.14400000000000002,1.008,0.057295800000000015,-0.057295800000000015,0.0,171.47487024,-2.02254174,-18.78729282
7.68,768,-0.037000000000000005,-0.14300000000000002,1.0090000000000001,0.057295800000000015,-0.057295800000000015,0.057295800000000015,171.47487024,-2.02254174,-18.7930224
7.6899999999999995,769,-0.037000000000000005,-0.14300000000000002,1.0090000000000001,0.0,-0.1718874,0.0,171.47487024,-2.02254174,-18.7930224
7.7,770,-0.036000000000000004,-0.14300000000000002,1.0090000000000001,0.0,-0.11459160000000004,0.0,171.47487024,-2.01108258,-18.7930224
7.71,771,-0.037000000000000005,-0.14300000000000002,1.008,0.0,0.0,0.0,171.47487024,-2.01108258,-18.7930224
7.72,772,-0.037000000000000005,-0.14400000000000002,1.0090000000000001,0.0,-0.11459160000000004,0.0,171.47487024,-2.01108258,-18.7930224
7.7299999999999995,773,-0.037000000000000005,-0.14400000000000002,1.0070000000000001,0.057295800000000015,-0.11459160000000004,0.0,171.47487024,-2.01108258,-18.7930224
7.74,774,-0.036000000000000004,-0.14400000000000002,1.006,0.11459160000000004,0.0,0.0,171.47487024,-2.01108258,-18.7930224
7.75,775,-0.037000000000000005,-0.14400000000000002,1.006,0.11459160000000004,0.0,0.0,171.47487024,-2.005353,-18.7930224
7.76,776,-0.037000000000000005,-0.14300000000000002,1.006,0.057295800000000015,0.11459160000000004,0.057295800000000015,171.47487024,-2.005353,-18.7930224
7.77,777,-0.037000000000000005,-0.14400000000000002,1.005,0.057295800000000015,0.1718874,0.0,171.47487024,-2.01108258,-18.7930224
7.78,778,-0.037000000000000005,-0.14400000000000002,1.005,0.057295800000000015,0.11459160000000004,0.0,171.47487024,-2.01108258,-18.7930224
7.79,779,-0.037000000000000005,-0.14300000000000002,1.005,0.0,0.057295800000000015,0.0,171.48059982,-2.01108258,-18.7930224
7.8,780,-0.037000000000000005,-0.14400000000000002,1.006,0.057295800000000015,0.0,0.0,171.46914066,-2.01108258,-18.7930224
7.81,781,-0.037000000000000005,-0.145,1.006,0.11459160000000004,-0.057295800000000015,-0.057295800000000015,171.46914066,-2.01108258,-18.7930224
7.82,782,-0.037000000000000005,-0.145,1.0070000000000001,0.057295800000000015,0.0,0.0,171.46914066,-2.01108258,-18.7930224
7.83,783,-0.037000000000000005,-0.145,1.008,0.057295800000000015,0.057295800000000015,0.0,171.47487024,-2.01108258,-18.7930224
7.84,784,-0.036000000000000004,-0.14300000000000002,1.0070000000000001,0.0,0.11459160000000004,0.0,171.47487024,-2.01108258,-18.7930224
7.85,785,-0.038,-0.14300000000000002,1.0070000000000001,0.057295800000000015,0.2291832000000001,0.0,171.46914066,-2.01681216,-18.7930224
7.86,786,-0.037000000000000005,-0.14300000000000002,1.0070000000000001,0.0,0.2291832000000001,0.0,171.46914066,-2.02254174,-18.7930224
7.87,787,-0.037000000000000005,-0.14400000000000002,1.008,0.057295800000000015,0.1718874,0.0,171.46914066,-2.02254174,-18.7930224
7.88,788,-0.038,-0.14400000000000002,1.0090000000000001,0.0,0.1718874,0.0,171.46914066,-2.02254174,-18.78729282
7.89,789,-0.037000000000000005,-0.14400000000000002,1.008,0.0,0.2291832000000001,0.0,171.46914066,-2.02827132,-18.78729282
7.9,790,-0.037000000000000005,-0.14400000000000002,1.008,0.0,0.11459160000000004,0.0,171.45195192,-2.02827132,-18.78729282
7.91,791,-0.038,-0.14300000000000002,1.0070000000000001,0.11459160000000004,0.11459160000000004,0.0,171.4576815,-2.0340009,-18.78729282
7.92,792,-0.037000000000000005,-0.14300000000000002,1.0070000000000001,0.2291832000000001,0.057295800000000015,0.0,171.4576815,-2.0340009,-18.78729282
7.93,793,-0.037000000000000005,-0.14400000000000002,1.008,0.2291832000000001,0.0,0.0,171.46341108,-2.0340009,-18.78729282
7.94,794,-0.037000000000000005,-0.14400000000000002,1.008,0.1718874,0.0,0.0,171.46341108,-2.0340009,-18.78729282
7.95,795,-0.038,-0.14300000000000002,1.0070000000000001,0.11459160000000004,0.11459160000000004,0.0,171.46341108,-2.0340009,-18.78729282
7.96,796,-0.037000000000000005,-0.14400000000000002,1.006,0.1718874,0.1718874,0.0,171.46341108,-2.0340009,-18.78729282
7.97,797,-0.038,-0.14400000000000002,1.006,0.2291832000000001,0.11459160000000004,0.0,171.46914066,-2.03973048,-18.78729282
7.9799999999999995,798,-0.038,-0.14400000000000002,1.006,0.2291832000000001,0.057295800000000015,0.0,171.46914066,-2.03973048,-18.78729282
7.99,799,-0.037000000000000005,-0.14400000000000002,1.0070000000000001,0.1718874,0.057295800000000015,0.0,171.46914066,-2.03973048,-18.78729282
8.0,800,-0.038,-0.14400000000000002,1.006,0.286479,0.0,0.0,171.46341108,-2.0340009,-18.78729282
8.01,801,-0.037000000000000005,-0.14400000000000002,1.0070000000000001,0.1718874,-0.057295800000000015,0.0,171.46341108,-2.0340009,-18.78729282
8.02,802,-0.038,-0.14400000000000002,1.0070000000000001,0.1718874,0.0,0.0,171.46341108,-2.0340009,-18.78729282
8.03,803,-0.038,-0.145,1.0070000000000001,0.1718874,0.0,0.0,171.46914066,-2.0340009,-18.78729282
8.04,804,-0.038,-0.14400000000000002,1.0070000000000001,0.2291832000000001,0.0,0.0,171.46914066,-2.0340009,-18.78729282
8.05,805,-0.038,-0.145,1.0070000000000001,0.1718874,0.0,0.0,171.46914066,-2.0340009,-18.78729282
8.06,806,-0.038,-0.14400000000000002,1.006,0.2291832000000001,0.0,0.0,171.46914066,-2.0340009,-18.78729282
8.07,807,-0.038,-0.145,1.006,0.2291832000000001,-0.057295800000000015,0.0,171.47487024,-2.0340009,-18.78729282
8.08,808,-0.038,-0.14400000000000002,1.006,0.286479,-0.11459160000000004,0.0,171.47487024,-2.0340009,-18.78729282
8.09,809,-0.037000000000000005,-0.145,1.008,0.286479,-0.057295800000000015,0.0,171.48059982,-2.0340009,-18.78729282
8.1,810,-0.038,-0.14400000000000002,1.0070000000000001,0.1718874,-0.057295800000000015,0.0,171.46914066,-2.02827132,-18.78729282
8.11,811,-0.037000000000000005,-0.145,1.0070000000000001,0.1718874,0.0,0.0,171.46914066,-2.02827132,-18.78156324
8.12,812,-0.037000000000000005,-0.14400000000000002,1.0070000000000001,0.1718874,0.0,0.0,171.46914066,-2.02827132,-18.78156324
8.13,813,-0.038,-0.14400000000000002,1.0070000000000001,0.057295800000000015,0.0,-0.057295800000000015,171.47487024,-2.02827132,-18.78156324
8.14,814,-0.038,-0.14300000000000002,1.0070000000000001,0.057295800000000015,0.0,0.0,171.47487024,-2.02827132,-18.78156324
8.15,815,-0.037000000000000005,-0.14400000000000002,1.0070000000000001,0.057295800000000015,0.0,0.0,171.46341108,-2.02827132,-18.78156324
8.16,816,-0.037000000000000005,-0.14400000000000002,1.008,0.11459160000000004,0.0,0.0,171.46914066,-2.02827132,-18.78156324
8.17,817,-0.038,-0.14400000000000002,1.008,0.0,0.0,-0.057295800000000015,171.46914066,-2.02827132,-18.78156324
8.18,818,-0.039,-0.14400000000000002,1.0070000000000001,0.057295800000000015,0.0,0.0,171.46914066,-2.02827132,-18.78156324
8.19,819,-0.039,-0.14400000000000002,1.0070000000000001,0.0,0.0,-0.057295800000000015,171.46914066,-2.02827132,-18.78156324
8.2,820,-0.038,-0.14300000000000002,1.0070000000000001,0.11459160000000004,-0.11459160000000004,-0.057295800000000015,171.45195192,-2.02254174,-18.78156324
8.209999999999999,821,-0.038,-0.14300000000000002,1.006,0.057295800000000015,0.0,0.0,171.45195192,-2.01681216,-18.78156324
8.22,822,-0.038,-0.14400000000000002,1.0070000000000001,0.11459160000000004,0.0,0.0,171.45195192,-2.01681216,-18.78156324
8.23,823,-0.037000000000000005,-0.14300000000000002,1.006,0.11459160000000004,0.0,-0.057295800000000015,171.45195192,-2.01681216,-18.77583366
8.24,824,-0.039,-0.14400000000000002,1.0070000000000001,0.057295800000000015,-0.057295800000000015,0.0,171.45195192,-2.01681216,-18.77583366
8.25,825,-0.039,-0.14300000000000002,1.008,0.0,-0.057295800000000015,0.0,171.44622234,-2.0340009,-18.78156324
8.26,826,-0.038,-0.14400000000000002,1.008,0.0,-0.11459160000000004,0.0,171.44622234,-2.02827132,-18.78156324
8.27,827,-0.037000000000000005,-0.14300000000000002,1.008,0.0,0.0,0.0,171.44622234,-2.02827132,-18.78156324
8.28,828,-0.039,-0.14400000000000002,1.0070000000000001,0.0,-0.11459160000000004,0.0,171.44622234,-2.02827132,-18.77583366
8.29,829,-0.038,-0.14400000000000002,1.0070000000000001,0.0,-0.2291832000000001,0.0,171.44622234,-2.02827132,-18.77583366
8.3,830,-0.037000000000000005,-0.14400000000000002,1.008,0.0,-0.2291832000000001,0.0,171.44049276,-2.01681216,-18.77583366
8.31,831,-0.038,-0.14400000000000002,1.008,0.057295800000000015,-0.286479,0.0,171.44049276,-2.01681216,-18.78156324
8.32,832,-0.038,-0.14300000000000002,1.0070000000000001,0.057295800000000015,-0.286479,-0.057295800000000015,171.44049276,-2.01108258,-18.77583366
8.33,833,-0.037000000000000005,-0.14400000000000002,1.0070000000000001,0.057295800000000015,-0.2291832000000001,0.0,171.44049276,-2.01108258,-18.78156324
8.34,834,-0.038,-0.14400000000000002,1.0070000000000001,0.057295800000000015,-0.1718874,0.0,171.44622234,-2.005353,-18.78156324
8.35,835,-0.038,-0.14300000000000002,1.0070000000000001,0.0,-0.057295800000000015,-0.057295800000000015,171.44622234,-2.01108258,-18.78156324
8.36,836,-0.038,-0.14300000000000002,1.0070000000000001,0.0,-0.057295800000000015,0.0,171.44622234,-2.01108258,-18.78156324
8.37,837,-0.037000000000000005,-0.14300000000000002,1.0070000000000001,-0.057295800000000015,0.0,0.0,171.44622234,-2.01108258,-18.78156324
8.38,838,-0.038,-0.14400000000000002,1.0090000000000001,-0.057295800000000015,0.057295800000000015,0.0,171.44049276,-2.01108258,-18.78156324
8.39,839,-0.038,-0.14300000000000002,1.008,0.0,0.1718874,0.057295800000000015,171.44049276,-2.01681216,-18.78156324
8.4,840,-0.039,-0.14300000000000002,1.006,0.0,0.1718874,0.0,171.44049276,-2.01681216,-18.78156324
8.41,841,-0.038,-0.14400000000000002,1.005,0.0,0.3437748,0.057295800000000015,171.44049276,-2.01681216,-18.78156324
8.42,842,-0.038,-0.14300000000000002,1.0070000000000001,0.0,0.286479,0.057295800000000015,171.44049276,-2.02254174,-18.78156324
8.43,843,-0.038,-0.14400000000000002,1.0070000000000001,-0.057295800000000015,0.1718874,0.0,171.44049276,-2.02254174,-18.78156324
8.44,844,-0.038,-0.14400000000000002,1.008,-0.11459160000000004,0.11459160000000004,0.0,171.43476318,-2.02254174,-18.78156324
8.45,845,-0.039,-0.145,1.01,-0.286479,-0.11459160000000004,0.057295800000000015,171.4290336,-2.02827132,-18.78156324
8.459999999999999,846,-0.038,-0.145,1.011,-0.1718874,-0.3437748,0.0,171.4290336,-2.02254174,-18.78156324
8.47,847,-0.037000000000000005,-0.145,1.01,-0.1718874,-0.3437748,0.0,171.4290336,-2.02254174,-18.78156324
8.48,848,-0.038,-0.14400000000000002,1.01,-0.1718874,-0.11459160000000004,0.0,171.42330402,-2.02254174,-18.78156324
8.49,849,-0.038,-0.145,1.008,0.0,0.0,0.057295800000000015,171.42330402,-2.02254174,-18.78156324
8.5,850,-0.038,-0.14300000000000002,1.006,0.057295800000000015,0.0,0.0,171.43476318,-2.02827132,-18.78156324
8.51,851,-0.037000000000000005,-0.142,1.004,0.057295800000000015,0.057295800000000015,0.0,171.43476318,-2.0340009,-18.78156324
8.52,852,-0.038,-0.14400000000000002,1.003,0.0,0.11459160000000004,0.0,171.43476318,-2.0340009,-18.78156324
8.53,853,-0.038,-0.142,1.004,0.057295800000000015,0.11459160000000004,0.0,171.43476318,-2.0340009,-18.78156324
8.54,854,-0.038,-0.14300000000000002,1.006,0.057295800000000015,0.0,0.0,171.43476318,-2.0340009,-18.78156324
8.55,855,-0.038,-0.14400000000000002,1.0070000000000001,0.0,0.057295800000000015,0.0,171.43476318,-2.05118964,-18.78156324
8.56,856,-0.038,-0.14300000000000002,1.008,0.0,0.11459160000000004,0.0,171.43476318,-2.05118964,-18.78156324
8.57,857,-0.037000000000000005,-0.14400000000000002,1.0070000000000001,0.0,0.11459160000000004,0.0,171.43476318,-2.05118964,-18.78156324
8.58,858,-0.038,-0.14300000000000002,1.008,0.0,0.11459160000000004,-0.057295800000000015,171.43476318,-2.05118964,-18.78156324
8.59,859,-0.038,-0.14300000000000002,1.0070000000000001,0.057295800000000015,0.057295800000000015,0.0,171.43476318,-2.05118964,-18.78156324
8.6,860,-0.038,-0.14300000000000002,1.008,0.11459160000000004,0.11459160000000004,0.0,171.43476318,-2.05691922,-18.78156324
8.61,861,-0.038,-0.14300000000000002,1.0070000000000001,0.0,0.1718874,0.0,171.43476318,-2.05691922,-18.78156324
8.62,862,-0.038,-0.14300000000000002,1.008,0.11459160000000004,0.057295800000000015,0.0,171.44049276,-2.05691922,-18.78156324
8.63,863,-0.039,-0.14300000000000002,1.0070000000000001,0.1718874,0.0,0.0,171.44049276,-2.05691922,-18.78156324
8.64,864,-0.038,-0.14300000000000002,1.008,0.11459160000000004,0.0,0.0,171.44049276,-2.05691922,-18.78156324
8.65,865,-0.038,-0.14400000000000002,1.0070000000000001,0.11459160000000004,-0.057295800000000015,0.057295800000000015,171.44049276,-2.05118964,-18.78156324
8.66,866,-0.038,-0.14400000000000002,1.0070000000000001,0.057295800000000015,-0.057295800000000015,0.0,171.44049276,-2.05118964,-18.78156324
8.67,867,-0.038,-0.14300000000000002,1.005,0.057295800000000015,0.0,0.0,171.44049276,-2.05118964,-18.78156324
8.68,868,-0.038,-0.14300000000000002,1.0070000000000001,0.057295800000000015,0.0,0.0,171.44049276,-2.05118964,-18.78156324
8.69,869,-0.037000000000000005,-0.14300000000000002,1.0070000000000001,0.057295800000000015,0.0,0.0,171.44622234,-2.05118964,-18.78156324
8.7,870,-0.038,-0.14400000000000002,1.0070000000000001,0.057295800000000015,0.0,0.057295800000000015,171.44049276,-2.05118964,-18.78156324
8.71,871,-0.039,-0.14300000000000002,1.0070000000000001,0.0,0.0,0.0,171.44049276,-2.05118964,-18.78156324
8.72,872,-0.038,-0.14300000000000002,1.006,0.0,-0.11459160000000004,0.0,171.44049276,-2.05118964,-18.78156324
8.73,873,-0.038,-0.14400000000000002,1.008,-0.057295800000000015,-0.1718874,0.0,171.44049276,-2.04546006,-18.78156324
8.74,874,-0.038,-0.14400000000000002,1.008,-0.057295800000000015,-0.1718874,0.0,171.44049276,-2.04546006,-18.78156324
8.75,875,-0.038,-0.14400000000000002,1.0090000000000001,-0.11459160000000004,-0.057295800000000015,0.0,171.43476318,-2.03973048,-18.78156324
8.76,876,-0.038,-0.14400000000000002,1.01,-0.11459160000000004,0.0,0.0,171.43476318,-2.03973048,-18.78156324
8.77,877,-0.038,-0.14400000000000002,1.0090000000000001,-0.11459160000000004,0.0,0.057295800000000015,171.43476318,-2.03973048,-18.78156324
8.78,878,-0.038,-0.14300000000000002,1.008,-0.057295800000000015,0.0,0.0,171.4290336,-2.03973048,-18.78156324
8.79,879,-0.038,-0.14300000000000002,1.008,-0.11459160000000004,0.0,0.0,171.4290336,-2.03973048,-18.78156324
8.8,880,-0.038,-0.14400000000000002,1.0070000000000001,-0.11459160000000004,0.057295800000000015,0.0,171.4290336,-2.03973048,-18.78156324
8.81,881,-0.037000000000000005,-0.14300000000000002,1.0070000000000001,-0.057295800000000015,0.057295800000000015,0.0,171.4290336,-2.03973048,-18.78156324
8.82,882,-0.038,-0.14400000000000002,1.0070000000000001,0.0,0.11459160000000004,0.057295800000000015,171.4290336,-2.04546006,-18.78729282
8.83,883,-0.038,-0.14300000000000002,1.0070000000000001,0.0,0.057295800000000015,0.0,171.4290336,-2.04546006,-18.78729282
8.84,884,-0.038,-0.14400000000000002,1.008,0.0,0.0,0.0,171.4290336,-2.04546006,-18.78729282
8.85,885,-0.038,-0.14300000000000002,1.0070000000000001,0.0,0.0,0.0,171.43476318,-2.04546006,-18.78729282
8.86,886,-0.038,-0.14300000000000002,1.0070000000000001,0.0,0.0,-0.057295800000000015,171.43476318,-2.04546006,-18.78729282
8.87,887,-0.038,-0.14300000000000002,1.0070000000000001,0.0,0.0,0.0,171.43476318,-2.04546006,-18.78729282
8.88,888,-0.039,-0.14300000000000002,1.0070000000000001,-0.11459160000000004,0.0,0.0,171.43476318,-2.04546006,-18.78729282
8.89,889,-0.038,-0.14300000000000002,1.008,-0.057295800000000015,0.0,0.0,171.43476318,-2.04546006,-18.78156324
8.9,890,-0.039,-0.14300000000000002,1.0070000000000001,-0.11459160000000004,-0.057295800000000015,-0.057295800000000015,171.43476318,-2.03973048,-18.78156324
8.91,891,-0.038,-0.14400000000000002,1.008,-0.11459160000000004,-0.057295800000000015,0.0,171.43476318,-2.0340009,-18.78156324
8.92,892,-0.038,-0.14400000000000002,1.0070000000000001,-0.11459160000000004,-0.1718874,0.0,171.4290336,-2.0340009,-18.78156324
8.93,893,-0.038,-0.14400000000000002,1.0070000000000001,-0.1718874,-0.1718874,0.0,171.4290336,-2.0340009,-18.78156324
8.94,894,-0.038,-0.142,1.008,-0.11459160000000004,-0.2291832000000001,0.0,171.4290336,-2.02827132,-18.78156324
8.95,895,-0.038,-0.14300000000000002,1.008,-0.11459160000000004,-0.1718874,0.0,171.4290336,-2.02827132,-18.78156324
8.96,896,-0.038,-0.14300000000000002,1.008,-0.057295800000000015,-0.1718874,0.0,171.4290336,-2.02827132,-18.78156324
8.97,897,-0.038,-0.14300000000000002,1.0070000000000001,-0.057295800000000015,-0.11459160000000004,0.0,171.42330402,-2.02827132,-18.78156324
