TimeStamp(s),FrameCounter,AccX,AccY,AccZ,GyrX,GyrY,GyrZ,EulerX,EulerY,EulerZ
0.01,1,0.042,-1.002,-0.037000000000000005,-0.11459160000000004,-0.057295800000000015,-0.2291832000000001,85.1129109,2.91062664,-16.66161864
0.02,2,0.042,-1.001,-0.036000000000000004,0.0,-0.11459160000000004,-0.11459160000000004,85.1129109,2.91062664,-16.66734822
0.03,3,0.042,-1.002,-0.035,0.1718874,-0.1718874,-0.11459160000000004,85.11864048,2.91635622,-16.66734822
0.04,4,0.04,-1.004,-0.033,0.3437748,-0.286479,-0.11459160000000004,85.11864048,2.91635622,-16.66734822
0.05,5,0.040999999999999995,-1.006,-0.032,0.11459160000000004,-0.286479,-0.11459160000000004,85.27333913999998,2.88770832,-16.650159480000006
0.060000000000000005,6,0.04,-1.006,-0.032,0.0,-0.286479,-0.2291832000000001,85.27333913999998,2.88770832,-16.65588906
0.06999999999999999,7,0.040999999999999995,-1.006,-0.035,0.11459160000000004,-0.11459160000000004,-0.2291832000000001,85.27333913999998,2.8934379,-16.65588906
0.08,8,0.040999999999999995,-1.006,-0.034,0.11459160000000004,-0.11459160000000004,-0.1718874,85.27333913999998,2.8934379,-16.65588906
0.09,9,0.04,-1.0070000000000001,-0.033,0.11459160000000004,-0.2291832000000001,-0.2291832000000001,85.27906872,2.89916748,-16.66161864
0.09999999999999999,10,0.038,-1.005,-0.033,0.1718874,-0.286479,-0.2291832000000001,85.33636451999998,2.88197874,-16.650159480000006
0.11,11,0.039,-1.004,-0.034,0.1718874,-0.2291832000000001,-0.3437748,85.3420941,2.88197874,-16.65588906
0.12,12,0.04,-1.004,-0.031,0.11459160000000004,-0.057295800000000015,-0.286479,85.3420941,2.88770832,-16.65588906
0.13,13,0.04,-1.005,-0.032,0.0,-0.057295800000000015,-0.286479,85.3420941,2.88770832,-16.65588906
0.14,14,0.04,-1.005,-0.033,0.0,-0.057295800000000015,-0.2291832000000001,85.3420941,2.8934379,-16.65588906
0.15000000000000002,15,0.039,-1.005,-0.034,0.0,-0.057295800000000015,-0.11459160000000004,85.42230822,2.87051958,-16.6444299
0.16,16,0.039,-1.006,-0.034,0.057295800000000015,-0.1718874,-0.057295800000000015,85.42230822,2.87051958,-16.650159480000006
0.17,17,0.038,-1.006,-0.034,0.057295800000000015,-0.286479,-0.11459160000000004,85.42230822,2.87051958,-16.650159480000006
0.18000000000000002,18,0.037000000000000005,-1.006,-0.033,0.1718874,-0.40107059999999994,-0.11459160000000004,85.4280378,2.87051958,-16.65588906
0.19,19,0.037000000000000005,-1.005,-0.032,0.1718874,-0.3437748,-0.1718874,85.4280378,2.87624916,-16.66161864
0.2,20,0.038,-1.005,-0.031,0.11459160000000004,-0.11459160000000004,-0.1718874,85.61711394,2.82468294,-16.632970739999998
0.21000000000000002,21,0.038,-1.006,-0.033,-0.11459160000000004,0.1718874,0.0,85.61711394,2.82468294,-16.62724116
0.22,22,0.038,-1.0070000000000001,-0.034,-0.057295800000000015,0.11459160000000004,0.057295800000000015,85.61138436,2.82468294,-16.62724116
0.23,23,0.037000000000000005,-1.0070000000000001,-0.033,-0.057295800000000015,0.0,0.11459160000000004,85.61138436,2.82468294,-16.62724116
0.24000000000000002,24,0.036000000000000004,-1.006,-0.033,-0.2291832000000001,0.057295800000000015,0.0,85.61138436,2.81895336,-16.62724116
0.25,25,0.036000000000000004,-1.006,-0.034,-0.2291832000000001,0.1718874,0.0,85.67440974,2.79030546,-16.61005242
0.26,26,0.037000000000000005,-1.004,-0.035,-0.2291832000000001,0.286479,0.0,85.66868016,2.79030546,-16.61005242
0.27,27,0.037000000000000005,-1.003,-0.035,-0.2291832000000001,0.40107059999999994,-0.057295800000000015,85.66868016,2.79030546,-16.604322840000002
0.28,28,0.037000000000000005,-1.004,-0.036000000000000004,-0.057295800000000015,0.3437748,-0.057295800000000015,85.66868016,2.79030546,-16.598593259999998
0.29000000000000004,29,0.038,-1.004,-0.035,0.0,0.1718874,-0.057295800000000015,85.66868016,2.79030546,-16.598593259999998
0.3,30,0.038,-1.006,-0.034,0.0,0.2291832000000001,-0.1718874,85.74889427999999,2.76738714,-16.58140452
0.31,31,0.039,-1.005,-0.035,-0.057295800000000015,0.40107059999999994,-0.1718874,85.74889427999999,2.76738714,-16.57567494
0.32,32,0.039,-1.005,-0.035,0.0,0.4583664000000001,-0.1718874,85.74889427999999,2.76738714,-16.57567494
0.33,33,0.040999999999999995,-1.006,-0.034,0.0,0.5156622000000001,-0.057295800000000015,85.74889427999999,2.77311672,-16.56994536
0.34,34,0.040999999999999995,-1.005,-0.034,-0.057295800000000015,0.4583664000000001,-0.11459160000000004,85.74889427999999,2.77311672,-16.56421578
0.35000000000000003,35,0.040999999999999995,-1.006,-0.035,0.0,0.40107059999999994,-0.057295800000000015,85.80619008000002,2.76165756,-16.55275662
0.36000000000000004,36,0.039,-1.0070000000000001,-0.035,0.057295800000000015,0.1718874,-0.057295800000000015,85.80619008000002,2.76165756,-16.54702704
0.37,37,0.038,-1.008,-0.034,0.1718874,0.11459160000000004,0.0,85.81191966,2.76165756,-16.54702704
0.38,38,0.038,-1.0070000000000001,-0.033,0.057295800000000015,0.2291832000000001,0.0,85.81191966,2.76165756,-16.54702704
0.39,39,0.039,-1.008,-0.032,0.057295800000000015,0.2291832000000001,-0.057295800000000015,85.81191966,2.76165756,-16.541297460000006
0.4,40,0.04,-1.0070000000000001,-0.032,-0.057295800000000015,0.286479,-0.11459160000000004,85.87494504,2.7501984,-16.5298383
0.41000000000000003,41,0.042,-1.005,-0.033,-0.057295800000000015,0.2291832000000001,-0.057295800000000015,85.87494504,2.75592798,-16.5298383
0.42000000000000004,42,0.042,-1.004,-0.034,0.0,0.1718874,-0.057295800000000015,85.87494504,2.75592798,-16.524108719999994
0.43,43,0.042,-1.004,-0.032,0.1718874,0.1718874,0.0,85.87494504,2.75592798,-16.524108719999994
0.44,44,0.042,-1.004,-0.034,0.2291832000000001,0.1718874,-0.11459160000000004,85.88067462000002,2.75592798,-16.524108719999994
0.45,45,0.042,-1.004,-0.033,0.2291832000000001,0.057295800000000015,-0.057295800000000015,85.9437,2.7501984,-16.51837914
0.46,46,0.040999999999999995,-1.004,-0.032,0.057295800000000015,0.0,-0.1718874,85.9437,2.75592798,-16.51264956
0.47000000000000003,47,0.04,-1.003,-0.034,0.0,0.0,-0.11459160000000004,85.9437,2.75592798,-16.51264956
0.48000000000000004,48,0.04,-1.003,-0.034,0.057295800000000015,0.0,-0.11459160000000004,85.9437,2.75592798,-16.51264956
0.49,49,0.04,-1.004,-0.033,0.1718874,-0.057295800000000015,-0.11459160000000004,85.94942957999999,2.75592798,-16.51837914
0.5,50,0.040999999999999995,-1.005,-0.034,0.3437748,0.0,-0.057295800000000015,86.0009958,2.7501984,-16.50691998
0.51,51,0.040999999999999995,-1.006,-0.035,0.286479,0.0,0.057295800000000015,86.0009958,2.7501984,-16.50691998
0.52,52,0.040999999999999995,-1.0070000000000001,-0.035,0.286479,0.0,0.0,86.00672538,2.74446882,-16.50691998
0.53,53,0.04,-1.006,-0.034,0.286479,-0.1718874,0.11459160000000004,86.00672538,2.74446882,-16.51264956
0.54,54,0.04,-1.005,-0.033,0.286479,-0.1718874,0.11459160000000004,86.01245496,2.74446882,-16.51264956
0.55,55,0.039,-1.006,-0.033,0.1718874,-0.1718874,0.11459160000000004,86.12704656,2.69863218,-16.495460819999998
0.56,56,0.038,-1.005,-0.033,0.1718874,0.0,0.2291832000000001,86.13277614,2.69863218,-16.495460819999998
0.5700000000000001,57,0.04,-1.003,-0.033,0.11459160000000004,0.057295800000000015,0.057295800000000015,86.13277614,2.6929026,-16.495460819999998
0.5800000000000001,58,0.039,-1.002,-0.034,0.2291832000000001,0.0,0.057295800000000015,86.13277614,2.6929026,-16.495460819999998
0.59,59,0.039,-1.003,-0.035,0.40107059999999994,-0.057295800000000015,0.057295800000000015,86.13850572,2.6929026,-16.495460819999998
0.6,60,0.040999999999999995,-1.006,-0.034,0.572958,-0.11459160000000004,0.057295800000000015,86.17288319999999,2.6929026,-16.495460819999998
0.61,61,0.042,-1.0070000000000001,-0.033,0.4583664000000001,-0.3437748,0.0,86.17861278000002,2.6929026,-16.501190400000002
0.62,62,0.042,-1.0070000000000001,-0.034,0.1718874,-0.3437748,0.0,86.17861278000002,2.6929026,-16.501190400000002
0.63,63,0.042,-1.006,-0.034,0.2291832000000001,-0.4583664000000001,0.0,86.17861278000002,2.6929026,-16.50691998
0.64,64,0.042,-1.006,-0.034,0.1718874,-0.40107059999999994,0.057295800000000015,86.18434235999996,2.68717302,-16.51264956
0.65,65,0.042,-1.006,-0.033,0.1718874,-0.40107059999999994,0.11459160000000004,86.21871984,2.68144344,-16.51264956
0.66,66,0.04,-1.006,-0.031,0.2291832000000001,-0.40107059999999994,0.11459160000000004,86.21871984,2.68144344,-16.51837914
0.67,67,0.038,-1.005,-0.028999999999999998,0.0,-0.6302538000000001,0.11459160000000004,86.21871984,2.68144344,-16.524108719999994
0.68,68,0.036000000000000004,-1.005,-0.027999999999999997,0.0,-0.6875496,0.11459160000000004,86.21871984,2.67571386,-16.5298383
0.6900000000000001,69,0.035,-1.006,-0.03,-0.11459160000000004,-0.7448454000000001,0.0,86.21871984,2.67571386,-16.541297460000006
0.7000000000000001,70,0.035,-1.0070000000000001,-0.031,-0.2291832000000001,-0.5156622000000001,-0.11459160000000004,86.24163816000002,2.6642547000000003,-16.541297460000006
0.7100000000000001,71,0.035,-1.0070000000000001,-0.03,-0.2291832000000001,-0.40107059999999994,-0.2291832000000001,86.24163816000002,2.6642547000000003,-16.54702704
0.72,72,0.035,-1.0070000000000001,-0.028999999999999998,-0.286479,-0.286479,-0.286479,86.23590858,2.6699842800000004,-16.54702704
0.73,73,0.037000000000000005,-1.0070000000000001,-0.027000000000000003,-0.5156622000000001,-0.286479,-0.40107059999999994,86.23017899999998,2.67571386,-16.55275662
0.74,74,0.037000000000000005,-1.006,-0.027999999999999997,-0.8594370000000001,-0.286479,-0.4583664000000001,86.22444942,2.67571386,-16.55275662
0.75,75,0.039,-1.0070000000000001,-0.03,-0.6875496,-0.2291832000000001,-0.4583664000000001,86.23590858,2.67571386,-16.55275662
0.76,76,0.039,-1.0090000000000001,-0.03,-0.572958,0.0,-0.4583664000000001,86.23017899999998,2.68144344,-16.5584862
0.77,77,0.039,-1.01,-0.028999999999999998,-0.5156622000000001,-0.286479,-0.5156622000000001,86.22444942,2.68717302,-16.5584862
0.78,78,0.038,-1.01,-0.028999999999999998,-0.6875496,-0.286479,-0.40107059999999994,86.21871984,2.6929026,-16.56421578
0.79,79,0.037000000000000005,-1.01,-0.031,-0.6875496,-0.40107059999999994,-0.3437748,86.21299026,2.6929026,-16.56994536
0.8,80,0.034,-1.008,-0.031,-0.8021411999999999,-0.4583664000000001,-0.4583664000000001,86.21299026,2.68717302,-16.56994536
0.81,81,0.034,-1.006,-0.031,-0.9167328000000001,-0.572958,-0.5156622000000001,86.20726068,2.6929026,-16.57567494
0.8200000000000001,82,0.034,-1.004,-0.031,-0.8021411999999999,-0.3437748,-0.5156622000000001,86.19580152,2.69863218,-16.58140452
0.8300000000000001,83,0.036000000000000004,-1.005,-0.03,-0.7448454000000001,-0.286479,-0.5156622000000001,86.19007194,2.70436176,-16.58140452
0.8400000000000001,84,0.038,-1.005,-0.028999999999999998,-0.7448454000000001,-0.3437748,-0.6302538000000001,86.18434235999996,2.71009134,-16.5871341
0.85,85,0.038,-1.008,-0.03,-0.7448454000000001,-0.11459160000000004,-0.572958,86.19580152,2.71009134,-16.5871341
0.86,86,0.039,-1.0090000000000001,-0.03,-0.9167328000000001,0.0,-0.572958,86.18434235999996,2.71582092,-16.5871341
0.87,87,0.039,-1.008,-0.034,-1.0313244000000001,0.11459160000000004,-0.4583664000000001,86.17861278000002,2.7215505,-16.5871341
0.88,88,0.040999999999999995,-1.006,-0.035,-0.8594370000000001,0.11459160000000004,-0.40107059999999994,86.16715362,2.7215505,-16.5871341
0.89,89,0.04,-1.004,-0.035,-0.8021411999999999,0.0,-0.286479,86.16142404,2.72728008,-16.5871341
0.9,90,0.04,-1.003,-0.035,-0.7448454000000001,-0.11459160000000004,-0.286479,86.16715362,2.72728008,-16.5871341
0.91,91,0.040999999999999995,-1.002,-0.038,-0.572958,-0.11459160000000004,-0.3437748,86.15569446,2.72728008,-16.5871341
0.92,92,0.039,-1.002,-0.036000000000000004,-0.572958,-0.11459160000000004,-0.40107059999999994,86.14996488,2.73300966,-16.5871341
0.93,93,0.04,-1.001,-0.037000000000000005,-0.572958,-0.057295800000000015,-0.6302538000000001,86.1442353,2.73873924,-16.5871341
0.9400000000000001,94,0.040999999999999995,-1.002,-0.036000000000000004,-0.572958,0.0,-0.6302538000000001,86.13850572,2.74446882,-16.59286368
0.9500000000000001,95,0.042,-1.003,-0.038,-0.5156622000000001,0.057295800000000015,-0.6875496,86.1442353,2.7501984,-16.5871341
0.9600000000000001,96,0.043,-1.003,-0.039,-0.40107059999999994,0.057295800000000015,-0.6302538000000001,86.13850572,2.75592798,-16.5871341
0.97,97,0.044000000000000004,-1.003,-0.039,-0.3437748,0.0,-0.572958,86.13277614,2.76165756,-16.5871341
0.98,98,0.044000000000000004,-1.003,-0.04,-0.286479,-0.057295800000000015,-0.572958,86.13277614,2.76738714,-16.59286368
0.99,99,0.043,-1.004,-0.039,-0.2291832000000001,-0.2291832000000001,-0.5156622000000001,86.12704656,2.77311672,-16.59286368
1.0,100,0.042,-1.004,-0.038,-0.286479,-0.2291832000000001,-0.40107059999999994,86.14996488,2.76738714,-16.59286368
1.01,101,0.040999999999999995,-1.006,-0.034,-0.40107059999999994,0.0,-0.5156622000000001,86.1442353,2.77311672,-16.59286368
1.02,102,0.042,-1.008,-0.034,-0.7448454000000001,0.057295800000000015,-0.572958,86.13850572,2.7788463,-16.59286368
1.03,103,0.043,-1.0090000000000001,-0.034,-0.7448454000000001,0.057295800000000015,-0.5156622000000001,86.13277614,2.78457588,-16.59286368
1.04,104,0.043,-1.01,-0.03,-0.286479,0.057295800000000015,-0.2291832000000001,86.12704656,2.79030546,-16.59286368
1.05,105,0.044000000000000004,-1.0090000000000001,-0.03,-0.8021411999999999,-0.057295800000000015,-0.2291832000000001,86.1442353,2.79030546,-16.59286368
1.06,106,0.043,-1.0070000000000001,-0.033,-1.0313244000000001,0.0,-0.11459160000000004,86.13277614,2.79030546,-16.59286368
1.07,107,0.045,-1.005,-0.034,-1.0313244000000001,0.057295800000000015,0.0,86.12704656,2.79030546,-16.59286368
1.08,108,0.044000000000000004,-1.005,-0.034,-0.9167328000000001,-0.057295800000000015,0.0,86.11558740000002,2.79030546,-16.59286368
1.09,109,0.045,-1.004,-0.033,-0.572958,-0.11459160000000004,0.0,86.10985782,2.79030546,-16.59286368
1.1,110,0.044000000000000004,-1.006,-0.032,-0.40107059999999994,-0.057295800000000015,-0.057295800000000015,86.16715362,2.79603504,-16.59286368
1.11,111,0.044000000000000004,-1.005,-0.031,-0.3437748,0.0,-0.11459160000000004,86.16142404,2.79603504,-16.59286368
1.12,112,0.044000000000000004,-1.005,-0.033,-0.3437748,-0.057295800000000015,-0.11459160000000004,86.16142404,2.79603504,-16.59286368
1.1300000000000001,113,0.044000000000000004,-1.005,-0.034,-0.286479,0.057295800000000015,-0.11459160000000004,86.15569446,2.80176462,-16.59286368
1.1400000000000001,114,0.045,-1.006,-0.032,0.0,0.11459160000000004,0.0,86.15569446,2.80176462,-16.5871341
1.1500000000000001,115,0.045,-1.005,-0.032,-0.2291832000000001,0.286479,0.057295800000000015,86.2015311,2.8074942000000003,-16.58140452
1.1600000000000001,116,0.047,-1.004,-0.035,-0.286479,0.3437748,0.286479,86.19580152,2.80176462,-16.58140452
1.17,117,0.047,-1.004,-0.037000000000000005,-0.11459160000000004,0.40107059999999994,0.3437748,86.19580152,2.80176462,-16.57567494
1.18,118,0.046,-1.003,-0.035,0.0,0.3437748,0.5156622000000001,86.19580152,2.79603504,-16.56994536
1.19,119,0.047,-1.006,-0.037000000000000005,0.2291832000000001,0.2291832000000001,0.6302538000000001,86.2015311,2.79030546,-16.56994536
1.2,120,0.047,-1.006,-0.038,0.1718874,0.286479,0.6302538000000001,86.21299026,2.79030546,-16.56421578
1.21,121,0.048,-1.005,-0.037000000000000005,0.11459160000000004,0.3437748,0.6302538000000001,86.21299026,2.78457588,-16.56421578
1.22,122,0.046,-1.005,-0.04,0.057295800000000015,0.286479,0.6302538000000001,86.21299026,2.7788463,-16.5584862
1.23,123,0.046,-1.002,-0.04,0.2291832000000001,0.1718874,0.5156622000000001,86.21299026,2.77311672,-16.5584862
1.24,124,0.046,-1.003,-0.039,0.3437748,0.1718874,0.40107059999999994,86.21871984,2.76738714,-16.55275662
1.25,125,0.047,-1.003,-0.039,0.3437748,0.1718874,0.40107059999999994,86.23017899999998,2.77311672,-16.55275662
1.26,126,0.048,-1.004,-0.039,0.286479,0.1718874,0.40107059999999994,86.23017899999998,2.76738714,-16.55275662
1.27,127,0.048,-1.005,-0.04,0.2291832000000001,0.2291832000000001,0.572958,86.23590858,2.76165756,-16.54702704
1.28,128,0.049,-1.005,-0.043,0.3437748,0.11459160000000004,0.6302538000000001,86.24163816000002,2.75592798,-16.54702704
1.29,129,0.046,-1.006,-0.040999999999999995,0.3437748,0.057295800000000015,0.6875496,86.24163816000002,2.7501984,-16.54702704
1.3,130,0.046,-1.0070000000000001,-0.039,0.2291832000000001,0.0,0.6302538000000001,86.25309732000002,2.7501984,-16.54702704
1.31,131,0.046,-1.006,-0.038,0.1718874,-0.11459160000000004,0.6302538000000001,86.2588269,2.74446882,-16.54702704
1.32,132,0.045,-1.006,-0.037000000000000005,0.057295800000000015,0.0,0.572958,86.2588269,2.73873924,-16.54702704
1.33,133,0.044000000000000004,-1.004,-0.039,0.057295800000000015,0.1718874,0.6875496,86.2588269,2.73300966,-16.541297460000006
1.34,134,0.045,-1.004,-0.04,0.1718874,0.11459160000000004,0.5156622000000001,86.2588269,2.72728008,-16.541297460000006
1.35,135,0.044000000000000004,-1.004,-0.04,0.2291832000000001,0.057295800000000015,0.4583664000000001,86.27028606,2.72728008,-16.541297460000006
1.36,136,0.044000000000000004,-1.006,-0.04,0.2291832000000001,0.11459160000000004,0.4583664000000001,86.27601564,2.7215505,-16.53556788
1.37,137,0.044000000000000004,-1.006,-0.038,0.2291832000000001,0.1718874,0.5156622000000001,86.27601564,2.71582092,-16.53556788
1.3800000000000001,138,0.043,-1.0070000000000001,-0.037000000000000005,0.057295800000000015,0.057295800000000015,0.4583664000000001,86.27601564,2.71009134,-16.53556788
1.3900000000000001,139,0.042,-1.006,-0.036000000000000004,0.0,0.2291832000000001,0.4583664000000001,86.27601564,2.71009134,-16.5298383
1.4000000000000001,140,0.040999999999999995,-1.006,-0.04,0.1718874,0.286479,0.40107059999999994,86.28747480000001,2.69863218,-16.5298383
1.4100000000000001,141,0.040999999999999995,-1.008,-0.037000000000000005,0.1718874,0.286479,0.40107059999999994,86.28747480000001,2.6929026,-16.524108719999994
1.42,142,0.042,-1.0070000000000001,-0.038,0.1718874,0.40107059999999994,0.286479,86.29320437999998,2.6929026,-16.51837914
1.43,143,0.043,-1.0070000000000001,-0.04,0.286479,0.4583664000000001,0.286479,86.29320437999998,2.68717302,-16.51264956
1.44,144,0.044000000000000004,-1.0070000000000001,-0.039,0.40107059999999994,0.1718874,0.1718874,86.29893396,2.68717302,-16.51264956
1.45,145,0.043,-1.006,-0.037000000000000005,0.286479,0.0,0.1718874,86.31612270000002,2.68717302,-16.51264956
1.46,146,0.043,-1.005,-0.036000000000000004,0.1718874,0.11459160000000004,0.11459160000000004,86.32185228,2.68717302,-16.51264956
1.47,147,0.044000000000000004,-1.004,-0.037000000000000005,0.2291832000000001,0.3437748,0.1718874,86.32185228,2.68717302,-16.50691998
1.48,148,0.045,-1.0070000000000001,-0.038,0.2291832000000001,0.5156622000000001,0.286479,86.32758186,2.68144344,-16.501190400000002
1.49,149,0.044000000000000004,-1.006,-0.037000000000000005,0.286479,0.40107059999999994,0.2291832000000001,86.32758186,2.68144344,-16.495460819999998
1.5,150,0.044000000000000004,-1.0070000000000001,-0.035,0.2291832000000001,0.572958,0.40107059999999994,86.34477059999998,2.68144344,-16.48973124
1.51,151,0.045,-1.0070000000000001,-0.035,0.11459160000000004,0.6875496,0.3437748,86.34477059999998,2.67571386,-16.484001659999997
1.52,152,0.044000000000000004,-1.006,-0.038,0.11459160000000004,0.5156622000000001,0.3437748,86.35050018,2.67571386,-16.47827208
1.53,153,0.043,-1.005,-0.039,0.1718874,0.5156622000000001,0.3437748,86.35050018,2.6699842800000004,-16.4725425
1.54,154,0.042,-1.004,-0.04,0.057295800000000015,0.40107059999999994,0.286479,86.35050018,2.6699842800000004,-16.466812920000002
1.55,155,0.044000000000000004,-1.004,-0.040999999999999995,-0.057295800000000015,0.2291832000000001,0.11459160000000004,86.34477059999998,2.6699842800000004,-16.466812920000002
1.56,156,0.043,-1.003,-0.042,-0.057295800000000015,0.3437748,0.0,86.34477059999998,2.6699842800000004,-16.461083340000002
1.57,157,0.046,-1.003,-0.04,-0.057295800000000015,0.3437748,0.057295800000000015,86.34477059999998,2.6699842800000004,-16.45535376
1.58,158,0.047,-1.003,-0.043,0.0,0.2291832000000001,0.0,86.34477059999998,2.6699842800000004,-16.45535376
1.59,159,0.046,-1.005,-0.045,0.1718874,0.3437748,0.11459160000000004,86.34477059999998,2.6699842800000004,-16.44962418
1.6,160,0.044000000000000004,-1.005,-0.045,0.1718874,0.3437748,0.11459160000000004,86.33331144,2.6699842800000004,-16.44962418
1.61,161,0.042,-1.005,-0.042,-0.057295800000000015,0.4583664000000001,0.0,86.33331144,2.6699842800000004,-16.4438946
1.62,162,0.043,-1.005,-0.043,-0.057295800000000015,0.6302538000000001,0.11459160000000004,86.33331144,2.6699842800000004,-16.438165020000003
1.6300000000000001,163,0.040999999999999995,-1.006,-0.044000000000000004,-0.11459160000000004,0.6875496,0.11459160000000004,86.33331144,2.6699842800000004,-16.43243544
1.6400000000000001,164,0.042,-1.004,-0.045,-0.11459160000000004,0.5156622000000001,0.057295800000000015,86.32758186,2.6699842800000004,-16.426705860000002
1.6500000000000001,165,0.042,-1.003,-0.043,0.0,0.40107059999999994,0.0,86.32758186,2.6642547000000003,-16.420976279999998
1.6600000000000001,166,0.043,-1.004,-0.042,0.0,0.2291832000000001,-0.057295800000000015,86.32758186,2.6699842800000004,-16.4152467
1.6700000000000002,167,0.043,-1.005,-0.042,0.0,0.11459160000000004,-0.11459160000000004,86.32758186,2.6699842800000004,-16.4152467
1.68,168,0.043,-1.006,-0.042,0.0,0.0,-0.11459160000000004,86.32758186,2.6699842800000004,-16.4152467
1.69,169,0.040999999999999995,-1.0070000000000001,-0.04,-0.057295800000000015,-0.1718874,-0.057295800000000015,86.32185228,2.6699842800000004,-16.420976279999998
1.7,170,0.04,-1.0070000000000001,-0.042,-0.2291832000000001,-0.2291832000000001,-0.2291832000000001,86.31039312,2.6699842800000004,-16.420976279999998
1.71,171,0.042,-1.006,-0.043,-0.057295800000000015,-0.1718874,-0.286479,86.31039312,2.6699842800000004,-16.420976279999998
1.72,172,0.042,-1.005,-0.042,0.057295800000000015,-0.1718874,-0.1718874,86.31039312,2.67571386,-16.426705860000002
1.73,173,0.044000000000000004,-1.005,-0.04,0.0,-0.2291832000000001,0.0,86.31039312,2.67571386,-16.426705860000002
1.74,174,0.043,-1.004,-0.039,0.0,-0.286479,0.057295800000000015,86.31039312,2.6699842800000004,-16.43243544
1.75,175,0.043,-1.003,-0.039,0.0,-0.2291832000000001,0.0,86.32758186,2.67571386,-16.43243544
1.76,176,0.044000000000000004,-1.003,-0.04,0.0,-0.1718874,0.057295800000000015,86.32185228,2.67571386,-16.438165020000003
1.77,177,0.042,-1.001,-0.043,0.0,-0.11459160000000004,0.057295800000000015,86.32758186,2.67571386,-16.438165020000003
1.78,178,0.042,-1.001,-0.043,0.11459160000000004,-0.11459160000000004,0.0,86.32758186,2.67571386,-16.438165020000003
1.79,179,0.040999999999999995,-1.003,-0.044000000000000004,0.11459160000000004,-0.1718874,0.0,86.32758186,2.67571386,-16.438165020000003
1.8,180,0.042,-1.004,-0.043,0.286479,-0.11459160000000004,0.0,86.32758186,2.67571386,-16.4438946
1.81,181,0.040999999999999995,-1.004,-0.043,0.286479,0.057295800000000015,-0.057295800000000015,86.32758186,2.67571386,-16.438165020000003
1.82,182,0.040999999999999995,-1.004,-0.043,0.286479,0.1718874,-0.057295800000000015,86.33331144,2.67571386,-16.438165020000003
1.83,183,0.042,-1.003,-0.044000000000000004,0.286479,0.1718874,-0.11459160000000004,86.33904102,2.67571386,-16.438165020000003
1.84,184,0.042,-1.003,-0.045,0.286479,0.2291832000000001,-0.11459160000000004,86.33904102,2.68144344,-16.43243544
1.85,185,0.042,-1.004,-0.043,0.3437748,0.1718874,0.0,86.33904102,2.68144344,-16.43243544
1.86,186,0.042,-1.004,-0.043,0.3437748,0.11459160000000004,0.057295800000000015,86.34477059999998,2.68144344,-16.43243544
1.87,187,0.042,-1.004,-0.043,0.40107059999999994,0.0,0.0,86.35050018,2.68144344,-16.43243544
1.8800000000000001,188,0.040999999999999995,-1.006,-0.044000000000000004,0.40107059999999994,-0.11459160000000004,0.057295800000000015,86.35050018,2.68144344,-16.43243544
1.8900000000000001,189,0.04,-1.0070000000000001,-0.044000000000000004,0.40107059999999994,-0.1718874,0.0,86.35622975999998,2.68144344,-16.438165020000003
1.9000000000000001,190,0.039,-1.0070000000000001,-0.043,0.40107059999999994,-0.057295800000000015,-0.11459160000000004,86.35622975999998,2.67571386,-16.438165020000003
1.9100000000000001,191,0.04,-1.006,-0.042,0.3437748,0.2291832000000001,-0.2291832000000001,86.35622975999998,2.68144344,-16.43243544
1.9200000000000002,192,0.040999999999999995,-1.006,-0.042,0.2291832000000001,0.2291832000000001,-0.286479,86.36195934,2.68717302,-16.43243544
1.93,193,0.042,-1.005,-0.044000000000000004,0.2291832000000001,0.057295800000000015,-0.1718874,86.36195934,2.68717302,-16.43243544
1.94,194,0.043,-1.005,-0.045,0.3437748,-0.057295800000000015,-0.057295800000000015,86.36768892,2.68717302,-16.43243544
1.95,195,0.044000000000000004,-1.0070000000000001,-0.044000000000000004,0.40107059999999994,-0.2291832000000001,-0.057295800000000015,86.35622975999998,2.69863218,-16.438165020000003
1.96,196,0.043,-1.006,-0.043,0.1718874,-0.1718874,-0.057295800000000015,86.36195934,2.69863218,-16.438165020000003
1.97,197,0.045,-1.005,-0.042,0.057295800000000015,-0.11459160000000004,-0.057295800000000015,86.36195934,2.69863218,-16.438165020000003
1.98,198,0.043,-1.003,-0.042,0.057295800000000015,-0.11459160000000004,-0.11459160000000004,86.36195934,2.69863218,-16.4438946
1.99,199,0.043,-1.002,-0.043,0.057295800000000015,-0.11459160000000004,-0.2291832000000001,86.36195934,2.70436176,-16.4438946
2.0,200,0.044000000000000004,-1.003,-0.042,0.11459160000000004,-0.057295800000000015,-0.1718874,86.35050018,2.71009134,-16.4438946
2.01,201,0.042,-1.005,-0.040999999999999995,0.11459160000000004,-0.11459160000000004,-0.11459160000000004,86.35622975999998,2.71009134,-16.44962418
2.02,202,0.042,-1.004,-0.040999999999999995,0.11459160000000004,-0.057295800000000015,-0.11459160000000004,86.35622975999998,2.71009134,-16.44962418
2.03,203,0.043,-1.004,-0.040999999999999995,0.057295800000000015,-0.057295800000000015,-0.057295800000000015,86.35622975999998,2.71009134,-16.44962418
2.04,204,0.044000000000000004,-1.004,-0.040999999999999995,0.0,-0.1718874,0.0,86.35622975999998,2.71009134,-16.44962418
2.05,205,0.044000000000000004,-1.004,-0.039,0.11459160000000004,-0.1718874,0.0,86.36195934,2.7215505,-16.45535376
2.0599999999999996,206,0.042,-1.003,-0.042,0.0,-0.11459160000000004,0.0,86.36195934,2.7215505,-16.45535376
2.07,207,0.043,-1.003,-0.040999999999999995,0.0,-0.11459160000000004,0.0,86.36195934,2.7215505,-16.45535376
2.0799999999999996,208,0.042,-1.005,-0.043,0.0,-0.057295800000000015,0.0,86.36195934,2.7215505,-16.45535376
2.09,209,0.040999999999999995,-1.0070000000000001,-0.043,0.0,-0.057295800000000015,-0.057295800000000015,86.36195934,2.7215505,-16.45535376
2.0999999999999996,210,0.042,-1.0090000000000001,-0.043,0.0,0.057295800000000015,0.0,86.32758186,2.7215505,-16.461083340000002
2.11,211,0.043,-1.0070000000000001,-0.044000000000000004,-0.057295800000000015,0.0,0.0,86.32758186,2.7215505,-16.461083340000002
2.1199999999999997,212,0.044000000000000004,-1.0070000000000001,-0.042,-0.057295800000000015,0.0,0.0,86.32185228,2.7215505,-16.461083340000002
2.13,213,0.043,-1.006,-0.043,0.0,0.0,0.0,86.32185228,2.7215505,-16.461083340000002
2.1399999999999997,214,0.044000000000000004,-1.006,-0.044000000000000004,0.0,0.0,0.0,86.32185228,2.7215505,-16.461083340000002
2.15,215,0.044000000000000004,-1.006,-0.045,0.0,0.0,0.0,86.28174521999998,2.73300966,-16.466812920000002
2.1599999999999997,216,0.045,-1.006,-0.044000000000000004,0.0,-0.11459160000000004,0.0,86.28174521999998,2.73300966,-16.466812920000002
2.17,217,0.043,-1.006,-0.043,-0.11459160000000004,-0.1718874,0.0,86.27601564,2.73300966,-16.466812920000002
2.1799999999999997,218,0.042,-1.005,-0.044000000000000004,-0.11459160000000004,-0.1718874,0.0,86.27601564,2.73300966,-16.466812920000002
2.19,219,0.042,-1.005,-0.044000000000000004,-0.11459160000000004,-0.11459160000000004,0.0,86.27601564,2.73300966,-16.4725425
2.1999999999999997,220,0.040999999999999995,-1.004,-0.043,-0.1718874,-0.1718874,0.0,86.26455648,2.7215505,-16.4725425
2.21,221,0.040999999999999995,-1.004,-0.044000000000000004,-0.2291832000000001,-0.11459160000000004,0.0,86.26455648,2.7215505,-16.4725425
2.2199999999999998,222,0.040999999999999995,-1.004,-0.044000000000000004,-0.1718874,0.0,0.0,86.2588269,2.7215505,-16.4725425
2.23,223,0.042,-1.004,-0.044000000000000004,-0.057295800000000015,0.0,0.0,86.2588269,2.7215505,-16.4725425
2.2399999999999998,224,0.043,-1.003,-0.043,-0.1718874,-0.057295800000000015,0.0,86.2588269,2.7215505,-16.47827208
2.25,225,0.043,-1.003,-0.045,-0.1718874,-0.057295800000000015,0.0,86.23017899999998,2.72728008,-16.47827208
2.26,226,0.043,-1.003,-0.045,-0.057295800000000015,-0.057295800000000015,0.11459160000000004,86.23017899999998,2.72728008,-16.47827208
2.27,227,0.042,-1.003,-0.043,0.0,-0.11459160000000004,0.11459160000000004,86.23017899999998,2.7215505,-16.47827208
2.28,228,0.042,-1.004,-0.043,-0.057295800000000015,-0.057295800000000015,0.057295800000000015,86.23017899999998,2.7215505,-16.484001659999997
2.29,229,0.04,-1.005,-0.042,0.0,-0.057295800000000015,0.057295800000000015,86.23017899999998,2.7215505,-16.484001659999997
2.3,230,0.040999999999999995,-1.0070000000000001,-0.042,-0.057295800000000015,0.0,0.057295800000000015,86.22444942,2.71582092,-16.484001659999997
2.31,231,0.042,-1.008,-0.043,-0.1718874,0.0,0.057295800000000015,86.22444942,2.71009134,-16.484001659999997
2.32,232,0.043,-1.0070000000000001,-0.045,-0.11459160000000004,-0.11459160000000004,0.057295800000000015,86.21871984,2.71009134,-16.484001659999997
2.3299999999999996,233,0.043,-1.0070000000000001,-0.043,-0.2291832000000001,-0.11459160000000004,0.0,86.21871984,2.71009134,-16.484001659999997
2.34,234,0.042,-1.004,-0.043,-0.286479,-0.11459160000000004,0.057295800000000015,86.21299026,2.71009134,-16.484001659999997
2.3499999999999996,235,0.042,-1.004,-0.044000000000000004,-0.286479,-0.1718874,0.0,86.20726068,2.71582092,-16.48973124
2.36,236,0.043,-1.003,-0.044000000000000004,-0.286479,-0.057295800000000015,0.0,86.20726068,2.71582092,-16.48973124
2.3699999999999997,237,0.044000000000000004,-1.004,-0.045,0.0,-0.11459160000000004,0.0,86.2015311,2.71582092,-16.48973124
2.38,238,0.043,-1.004,-0.045,-0.057295800000000015,-0.286479,0.0,86.2015311,2.71582092,-16.495460819999998
2.3899999999999997,239,0.042,-1.005,-0.045,0.0,-0.286479,0.057295800000000015,86.2015311,2.71009134,-16.495460819999998
2.4,240,0.04,-1.006,-0.044000000000000004,-0.1718874,-0.057295800000000015,0.11459160000000004,86.19580152,2.70436176,-16.495460819999998
2.4099999999999997,241,0.04,-1.006,-0.045,-0.11459160000000004,0.057295800000000015,0.057295800000000015,86.19580152,2.70436176,-16.495460819999998
2.42,242,0.042,-1.005,-0.045,0.0,0.057295800000000015,0.057295800000000015,86.19580152,2.70436176,-16.495460819999998
2.4299999999999997,243,0.042,-1.001,-0.046,0.0,0.0,0.11459160000000004,86.19580152,2.70436176,-16.495460819999998
2.44,244,0.042,-1.0,-0.045,0.057295800000000015,-0.1718874,0.0,86.19580152,2.69863218,-16.495460819999998
2.4499999999999997,245,0.040999999999999995,-1.0,-0.045,0.057295800000000015,-0.1718874,0.0,86.19007194,2.69863218,-16.501190400000002
2.46,246,0.04,-1.002,-0.047,0.0,0.057295800000000015,0.0,86.19007194,2.69863218,-16.501190400000002
2.4699999999999998,247,0.040999999999999995,-1.005,-0.048,0.1718874,0.0,0.0,86.19007194,2.69863218,-16.501190400000002
2.48,248,0.040999999999999995,-1.0090000000000001,-0.045,0.4583664000000001,-0.2291832000000001,0.057295800000000015,86.19580152,2.69863218,-16.501190400000002
2.4899999999999998,249,0.042,-1.011,-0.042,0.3437748,-0.4583664000000001,0.0,86.2015311,2.69863218,-16.50691998
2.5,250,0.040999999999999995,-1.01,-0.043,0.1718874,-0.40107059999999994,0.0,86.19580152,2.6929026,-16.50691998
2.51,251,0.043,-1.0070000000000001,-0.046,0.0,-0.3437748,0.0,86.19580152,2.6929026,-16.51264956
2.52,252,0.044000000000000004,-1.003,-0.046,0.057295800000000015,-0.1718874,0.11459160000000004,86.19580152,2.68717302,-16.51264956
2.53,253,0.042,-1.001,-0.045,0.1718874,-0.2291832000000001,0.1718874,86.2015311,2.68717302,-16.51837914
2.54,254,0.040999999999999995,-1.001,-0.047,0.286479,-0.2291832000000001,0.1718874,86.2015311,2.68717302,-16.51837914
2.55,255,0.042,-1.002,-0.046,0.3437748,-0.11459160000000004,0.11459160000000004,86.20726068,2.68144344,-16.51837914
2.56,256,0.040999999999999995,-1.004,-0.043,0.3437748,0.0,0.057295800000000015,86.20726068,2.68144344,-16.51837914
2.57,257,0.040999999999999995,-1.005,-0.044000000000000004,0.286479,0.11459160000000004,0.0,86.21299026,2.68144344,-16.51837914
2.5799999999999996,258,0.043,-1.004,-0.046,0.1718874,0.11459160000000004,0.0,86.21299026,2.68144344,-16.51837914
2.59,259,0.044000000000000004,-1.004,-0.045,0.1718874,0.057295800000000015,0.0,86.21871984,2.68144344,-16.51837914
2.5999999999999996,260,0.042,-1.003,-0.044000000000000004,0.2291832000000001,-0.11459160000000004,0.11459160000000004,86.21871984,2.68144344,-16.51837914
2.61,261,0.042,-1.004,-0.044000000000000004,0.2291832000000001,0.0,0.1718874,86.21871984,2.67571386,-16.51837914
2.6199999999999997,262,0.040999999999999995,-1.003,-0.045,0.2291832000000001,0.11459160000000004,0.057295800000000015,86.22444942,2.67571386,-16.51837914
2.63,263,0.039,-1.003,-0.044000000000000004,0.1718874,0.286479,0.0,86.22444942,2.67571386,-16.51264956
2.6399999999999997,264,0.04,-1.003,-0.046,0.057295800000000015,0.286479,0.0,86.22444942,2.67571386,-16.51264956
2.65,265,0.040999999999999995,-1.006,-0.046,0.1718874,0.286479,0.057295800000000015,86.21871984,2.67571386,-16.50691998
2.6599999999999997,266,0.040999999999999995,-1.006,-0.045,0.1718874,0.1718874,0.057295800000000015,86.21871984,2.67571386,-16.50691998
2.67,267,0.043,-1.005,-0.045,0.057295800000000015,0.1718874,0.11459160000000004,86.21871984,2.6699842800000004,-16.50691998
2.6799999999999997,268,0.042,-1.006,-0.047,0.0,0.0,0.057295800000000015,86.21871984,2.6699842800000004,-16.50691998
2.69,269,0.042,-1.003,-0.044000000000000004,0.0,-0.057295800000000015,0.057295800000000015,86.22444942,2.6699842800000004,-16.50691998
2.6999999999999997,270,0.040999999999999995,-1.004,-0.043,0.11459160000000004,-0.057295800000000015,0.0,86.21871984,2.6699842800000004,-16.50691998
2.71,271,0.040999999999999995,-1.005,-0.044000000000000004,0.0,0.1718874,0.057295800000000015,86.21871984,2.6699842800000004,-16.50691998
2.7199999999999998,272,0.04,-1.005,-0.047,0.0,0.1718874,0.0,86.21871984,2.6699842800000004,-16.501190400000002
2.73,273,0.039,-1.005,-0.047,0.286479,0.1718874,0.11459160000000004,86.21871984,2.6699842800000004,-16.501190400000002
2.7399999999999998,274,0.038,-1.005,-0.044000000000000004,0.40107059999999994,0.057295800000000015,0.1718874,86.22444942,2.6642547000000003,-16.501190400000002
2.75,275,0.039,-1.006,-0.045,0.286479,0.057295800000000015,0.057295800000000015,86.22444942,2.65852512,-16.495460819999998
2.76,276,0.04,-1.005,-0.046,0.1718874,0.11459160000000004,0.057295800000000015,86.22444942,2.65852512,-16.495460819999998
2.77,277,0.04,-1.003,-0.045,0.11459160000000004,0.11459160000000004,0.057295800000000015,86.23017899999998,2.65852512,-16.495460819999998
2.78,278,0.040999999999999995,-1.002,-0.048,0.1718874,0.0,0.0,86.23017899999998,2.65852512,-16.495460819999998
2.79,279,0.040999999999999995,-1.002,-0.049,0.3437748,0.057295800000000015,0.057295800000000015,86.23590858,2.65852512,-16.495460819999998
2.8,280,0.040999999999999995,-1.002,-0.048,0.4583664000000001,0.057295800000000015,0.057295800000000015,86.22444942,2.65852512,-16.495460819999998
2.81,281,0.040999999999999995,-1.004,-0.048,0.4583664000000001,0.0,0.057295800000000015,86.23017899999998,2.65852512,-16.495460819999998
2.82,282,0.042,-1.003,-0.047,0.40107059999999994,0.0,0.0,86.23590858,2.65852512,-16.495460819999998
2.8299999999999996,283,0.042,-1.002,-0.047,0.4583664000000001,-0.057295800000000015,0.0,86.24163816000002,2.65852512,-16.495460819999998
2.84,284,0.042,-1.003,-0.046,0.4583664000000001,-0.057295800000000015,0.0,86.24163816000002,2.65852512,-16.495460819999998
2.8499999999999996,285,0.042,-1.003,-0.047,0.3437748,-0.11459160000000004,0.057295800000000015,86.23590858,2.65852512,-16.495460819999998
2.86,286,0.040999999999999995,-1.004,-0.045,0.40107059999999994,-0.1718874,0.057295800000000015,86.24163816000002,2.65852512,-16.501190400000002
2.8699999999999997,287,0.04,-1.005,-0.044000000000000004,0.4583664000000001,-0.4583664000000001,0.0,86.24163816000002,2.65852512,-16.501190400000002
2.88,288,0.038,-1.0070000000000001,-0.040999999999999995,0.5156622000000001,-0.6302538000000001,0.0,86.24736774,2.65852512,-16.51264956
2.8899999999999997,289,0.038,-1.008,-0.040999999999999995,0.2291832000000001,-0.5156622000000001,0.0,86.25309732000002,2.65852512,-16.51264956
2.9,290,0.038,-1.008,-0.040999999999999995,0.1718874,-0.4583664000000001,0.0,86.2588269,2.64706596,-16.51837914
2.9099999999999997,291,0.038,-1.008,-0.039,0.0,-0.5156622000000001,-0.11459160000000004,86.2588269,2.65279554,-16.524108719999994
2.92,292,0.037000000000000005,-1.008,-0.037000000000000005,-0.2291832000000001,-0.5156622000000001,-0.2291832000000001,86.2588269,2.65279554,-16.5298383
2.9299999999999997,293,0.038,-1.0090000000000001,-0.039,-0.2291832000000001,-0.572958,-0.2291832000000001,86.25309732000002,2.65279554,-16.53556788
2.94,294,0.038,-1.01,-0.036000000000000004,-0.40107059999999994,-0.6302538000000001,-0.2291832000000001,86.24736774,2.65852512,-16.541297460000006
2.9499999999999997,295,0.038,-1.011,-0.037000000000000005,-0.7448454000000001,-0.40107059999999994,-0.286479,86.24736774,2.65852512,-16.54702704
2.96,296,0.039,-1.01,-0.038,-0.8021411999999999,-0.2291832000000001,-0.2291832000000001,86.23590858,2.65852512,-16.55275662
2.9699999999999998,297,0.04,-1.0090000000000001,-0.039,-0.8021411999999999,-0.1718874,-0.1718874,86.23017899999998,2.65852512,-16.55275662
2.98,298,0.038,-1.008,-0.039,-0.572958,0.0,-0.11459160000000004,86.22444942,2.6642547000000003,-16.55275662
2.9899999999999998,299,0.038,-1.008,-0.037000000000000005,-0.4583664000000001,0.1718874,-0.057295800000000015,86.21871984,2.6642547000000003,-16.55275662
3.0,300,0.036000000000000004,-1.0070000000000001,-0.034,-0.4583664000000001,0.2291832000000001,0.0,86.24163816000002,2.65279554,-16.54702704
3.01,301,0.039,-1.004,-0.032,-0.572958,0.40107059999999994,0.0,86.23590858,2.65279554,-16.541297460000006
3.02,302,0.038,-1.0070000000000001,-0.045,-0.8021411999999999,0.6302538000000001,0.057295800000000015,86.22444942,2.65279554,-16.53556788
3.03,303,0.036000000000000004,-1.01,-0.044000000000000004,-0.8021411999999999,0.7448454000000001,0.057295800000000015,86.21871984,2.65279554,-16.5298383
3.04,304,0.037000000000000005,-1.008,-0.040999999999999995,-0.8594370000000001,0.572958,0.057295800000000015,86.21299026,2.65279554,-16.524108719999994
3.05,305,0.039,-1.005,-0.042,-0.8021411999999999,0.5156622000000001,0.11459160000000004,86.2015311,2.64706596,-16.51837914
3.06,306,0.038,-1.004,-0.044000000000000004,-0.8021411999999999,0.6875496,0.0,86.19580152,2.64706596,-16.51264956
3.07,307,0.038,-1.003,-0.046,-0.7448454000000001,0.6875496,0.0,86.19007194,2.64706596,-16.501190400000002
3.08,308,0.039,-1.001,-0.049,-0.6875496,0.8594370000000001,0.0,86.18434235999996,2.64706596,-16.495460819999998
3.09,309,0.04,-1.001,-0.049,-0.6875496,0.8021411999999999,0.0,86.17288319999999,2.64706596,-16.484001659999997
3.0999999999999996,310,0.040999999999999995,-1.002,-0.05,-0.572958,0.8021411999999999,0.11459160000000004,86.16142404,2.64706596,-16.47827208
3.11,311,0.043,-1.002,-0.051,-0.5156622000000001,0.8021411999999999,0.2291832000000001,86.15569446,2.6413363800000003,-16.466812920000002
3.1199999999999997,312,0.042,-1.003,-0.05,-0.572958,0.6875496,0.3437748,86.14996488,2.6413363800000003,-16.461083340000002
3.13,313,0.042,-1.003,-0.05,-0.572958,0.6302538000000001,0.3437748,86.1442353,2.6356068,-16.45535376
3.1399999999999997,314,0.043,-1.003,-0.049,-0.6302538000000001,0.40107059999999994,0.3437748,86.13850572,2.6356068,-16.44962418
3.15,315,0.042,-1.005,-0.045,-0.6875496,0.1718874,0.286479,86.12704656,2.62987722,-16.44962418
3.1599999999999997,316,0.04,-1.0070000000000001,-0.045,-0.9740286,0.057295800000000015,0.11459160000000004,86.11558740000002,2.62987722,-16.44962418
3.17,317,0.040999999999999995,-1.008,-0.044000000000000004,-1.3178034,0.0,0.057295800000000015,86.10412824,2.62987722,-16.44962418
3.1799999999999997,318,0.040999999999999995,-1.0090000000000001,-0.043,-1.4896908000000002,0.0,0.057295800000000015,86.0869395,2.62414764,-16.44962418
3.19,319,0.040999999999999995,-1.0090000000000001,-0.043,-1.7188740000000002,0.1718874,0.057295800000000015,86.06975076,2.62414764,-16.4438946
3.1999999999999997,320,0.040999999999999995,-1.01,-0.048,-1.8907614,0.2291832000000001,0.057295800000000015,86.04683244,2.62414764,-16.4438946
3.21,321,0.04,-1.01,-0.049,-1.7761698000000001,0.057295800000000015,0.11459160000000004,86.02964370000002,2.62414764,-16.4438946
3.2199999999999998,322,0.04,-1.0090000000000001,-0.05,-1.7188740000000002,0.11459160000000004,0.1718874,86.01245496,2.61841806,-16.4438946
3.23,323,0.04,-1.0070000000000001,-0.049,-1.4896908000000002,0.057295800000000015,0.1718874,85.99526621999998,2.61841806,-16.438165020000003
3.2399999999999998,324,0.04,-1.004,-0.046,-1.145916,0.057295800000000015,0.2291832000000001,85.98380705999998,2.61841806,-16.438165020000003
3.25,325,0.04,-1.001,-0.045,-1.2032118,0.11459160000000004,0.2291832000000001,85.9723479,2.61268848,-16.438165020000003
3.26,326,0.038,-0.9990000000000001,-0.046,-1.2032118,0.1718874,0.286479,85.96088874,2.61268848,-16.438165020000003
3.27,327,0.039,-1.0,-0.048,-1.0313244000000001,0.40107059999999994,0.286479,85.94942957999999,2.6069589,-16.43243544
3.28,328,0.038,-1.0,-0.05,-0.9740286,0.572958,0.2291832000000001,85.93797042,2.6069589,-16.426705860000002
3.29,329,0.037000000000000005,-1.0,-0.051,-0.6875496,0.572958,0.286479,85.93224083999998,2.6012293200000003,-16.420976279999998
3.3,330,0.036000000000000004,-1.001,-0.052000000000000005,-0.40107059999999994,0.5156622000000001,0.40107059999999994,85.92651126,2.58977016,-16.4152467
3.31,331,0.036000000000000004,-1.001,-0.051,-0.2291832000000001,0.3437748,0.4583664000000001,85.92078168,2.58404058,-16.409517119999997
3.32,332,0.037000000000000005,-1.0,-0.05,-0.1718874,0.40107059999999994,0.572958,85.92078168,2.578311,-16.40378754
3.33,333,0.038,-0.998,-0.049,-0.11459160000000004,0.4583664000000001,0.572958,85.92078168,2.57258142,-16.39805796
3.34,334,0.036000000000000004,-0.998,-0.049,-0.1718874,0.6302538000000001,0.5156622000000001,85.9150521,2.57258142,-16.392328380000002
3.3499999999999996,335,0.037000000000000005,-1.001,-0.043,-0.057295800000000015,0.6875496,0.5156622000000001,85.92651126,2.56685184,-16.386598799999998
3.36,336,0.04,-1.006,-0.042,-0.40107059999999994,0.8594370000000001,0.5156622000000001,85.92078168,2.5611222600000003,-16.37513964
3.3699999999999997,337,0.037000000000000005,-1.011,-0.044000000000000004,-0.8021411999999999,1.0313244000000001,0.5156622000000001,85.9150521,2.55539268,-16.36368048
3.38,338,0.035,-1.0170000000000001,-0.043,-1.3178034,1.3178034,0.4583664000000001,85.90359294,2.5496631,-16.35222132
3.3899999999999997,339,0.037000000000000005,-1.022,-0.04,-1.9480572,1.4896908000000002,0.5156622000000001,85.88067462000002,2.54393352,-16.33503258
3.4,340,0.039,-1.022,-0.042,-2.7501984,1.3750992,0.7448454000000001,85.85775629999998,2.53820394,-16.323573420000002
3.4099999999999997,341,0.040999999999999995,-1.022,-0.044000000000000004,-3.380452200000001,0.9740286,0.8021411999999999,85.82337881999999,2.53247436,-16.312114259999998
3.42,342,0.040999999999999995,-1.022,-0.04,-3.7242269999999995,0.6302538000000001,0.8021411999999999,85.78327176,2.5210152000000003,-16.30638468
3.4299999999999997,343,0.039,-1.018,-0.038,-4.0680017999999984,0.4583664000000001,0.5156622000000001,85.7431647,2.51528562,-16.3006551
3.44,344,0.038,-1.016,-0.036000000000000004,-4.297185,0.572958,0.3437748,85.70305764,2.50955604,-16.29492552
3.4499999999999997,345,0.035,-1.014,-0.036000000000000004,-4.4117766,0.572958,0.2291832000000001,85.66295058,2.50955604,-16.28919594
3.46,346,0.035,-1.014,-0.033,-4.6409598,0.572958,0.1718874,85.61711394,2.50382646,-16.28346636
3.4699999999999998,347,0.035,-1.014,-0.033,-5.042030400000002,0.5156622000000001,0.2291832000000001,85.56554772,2.50382646,-16.27773678
3.48,348,0.035,-1.015,-0.032,-5.5003968,0.5156622000000001,0.40107059999999994,85.50825191999998,2.49809688,-16.272007199999994
3.4899999999999998,349,0.034,-1.016,-0.033,-6.0733548,0.2291832000000001,0.572958,85.44522654,2.4923672999999997,-16.272007199999994
3.5,350,0.036000000000000004,-1.0190000000000001,-0.034,-6.3598338,0.2291832000000001,0.8594370000000001,85.38793074,2.48090814,-16.26627762
3.51,351,0.035,-1.021,-0.036000000000000004,-7.448453999999999,0.4583664000000001,0.8021411999999999,85.3134462,2.47517856,-16.26627762
3.52,352,0.035,-1.021,-0.035,-8.021412000000002,0.8021411999999999,0.6875496,85.23323208,2.4637194,-16.254818460000006
3.53,353,0.035,-1.026,-0.036000000000000004,-8.880849000000003,0.8021411999999999,0.6875496,85.1415588,2.45798982,-16.24908888
3.54,354,0.036000000000000004,-1.0290000000000001,-0.038,-10.2559482,1.0886202,0.5156622000000001,85.03842636,2.45226024,-16.23762972
3.55,355,0.037000000000000005,-1.03,-0.040999999999999995,-11.2872726,1.0886202,0.3437748,84.92956434,2.44653066,-16.22617056
3.56,356,0.036000000000000004,-1.031,-0.045,-12.2040054,0.6875496,0.286479,84.80351358,2.44653066,-16.22044098
3.57,357,0.038,-1.031,-0.044000000000000004,-13.120738199999998,0.0,0.286479,84.67173324000002,2.44080108,-16.22044098
3.58,358,0.04,-1.0290000000000001,-0.045,-14.266654199999998,-0.5156622000000001,0.057295800000000015,84.52849374,2.4350715000000003,-16.22617056
3.59,359,0.037000000000000005,-1.025,-0.047,-15.126091199999998,-1.0886202,0.0,84.37379508000002,2.4350715000000003,-16.243359299999998
3.5999999999999996,360,0.036000000000000004,-1.022,-0.053,-16.272007199999994,-1.432395,-0.2291832000000001,84.20763725999998,2.4350715000000003,-16.254818460000006
3.61,361,0.037000000000000005,-1.024,-0.05,-16.7876694,-1.5469866,-0.4583664000000001,84.03574986,2.4350715000000003,-16.27773678
3.6199999999999997,362,0.037000000000000005,-1.0290000000000001,-0.049,-17.7044022,-2.0626488000000003,-0.8021411999999999,83.85813288,2.44080108,-16.3006551
3.63,363,0.034,-1.031,-0.05,-19.079501399999998,-2.2345362,-0.9167328000000001,83.66332716000002,2.44653066,-16.323573420000002
3.6399999999999997,364,0.034,-1.032,-0.05,-20.2254174,-2.4637194,-1.0886202,83.45706228,2.45798982,-16.35222132
3.65,365,0.035,-1.033,-0.053,-21.2567418,-2.6356068,-1.2605076000000002,83.24506782,2.4637194,-16.38086922
3.6599999999999997,366,0.034,-1.033,-0.06,-22.4026578,-2.6929026,-1.3750992,83.01588462000002,2.47517856,-16.409517119999997
3.67,367,0.031,-1.034,-0.063,-23.319390600000002,-3.0939732,-1.5469866,82.77524226,2.48090814,-16.44962418
3.6799999999999997,368,0.03,-1.03,-0.064,-24.923673,-3.4950437999999995,-1.7188740000000002,82.52314074,2.4923672999999997,-16.48973124
3.69,369,0.028999999999999998,-1.03,-0.066,-26.1841806,-3.5523396000000003,-1.9480572,82.25385048,2.50955604,-16.5298383
3.6999999999999997,370,0.031,-1.031,-0.07200000000000001,-27.6738714,-3.2085647999999996,-2.1772404,81.97310106,2.5210152000000003,-16.56421578
3.71,371,0.03,-1.032,-0.075,-28.934378999999996,-3.1512689999999997,-2.291832,81.68089248,2.53820394,-16.604322840000002
3.7199999999999998,372,0.03,-1.032,-0.07,-30.4240698,-3.4950437999999995,-2.4637194,81.37149516,2.55539268,-16.6444299
3.73,373,0.031,-1.0390000000000001,-0.076,-31.79916900000001,-3.8961144,-2.5783110000000002,81.04490909999998,2.57258142,-16.69026654
3.7399999999999998,374,0.031,-1.043,-0.08900000000000001,-33.1742682,-4.0680017999999984,-2.4637194,80.70686388,2.58977016,-16.736103179999994
3.75,375,0.031,-1.041,-0.09300000000000001,-34.7785506,-4.1252976000000015,-2.5783110000000002,80.3573595,2.6069589,-16.781939819999998
3.76,376,0.026000000000000002,-1.0390000000000001,-0.09699999999999999,-35.9817624,-4.010706000000001,-2.4637194,79.99066638000002,2.62414764,-16.83350604
3.77,377,0.028999999999999998,-1.043,-0.10300000000000001,-37.0703826,-3.8388186,-2.86479,79.6125141,2.6413363800000003,-16.87934268
3.78,378,0.027999999999999997,-1.042,-0.105,-38.67466500000001,-3.7242269999999995,-3.1512689999999997,79.21717308,2.6642547000000003,-16.92517932
3.79,379,0.031,-1.035,-0.113,-40.2789474,-3.9534102,-3.6669312000000014,78.80464332,2.68717302,-16.976745540000003
3.8,380,0.032,-1.0290000000000001,-0.124,-41.883229799999995,-4.1252976000000015,-3.9534102,78.38065440000003,2.71582092,-17.02831176
3.81,381,0.032,-1.025,-0.129,-43.7166954,-3.9534102,-4.3544808,77.93374716000002,2.74446882,-17.07987798
3.82,382,0.028999999999999998,-1.018,-0.141,-45.4928652,-3.5523396000000003,-4.8701430000000006,77.46965118,2.78457588,-17.12571462
3.83,383,0.027999999999999997,-1.013,-0.146,-46.2377106,-3.4950437999999995,-5.5576926,76.99982562,2.82468294,-17.17728084
3.84,384,0.027000000000000003,-1.016,-0.15,-47.269035,-3.7242269999999995,-6.2452422,76.5185409,2.87051958,-17.23457664
3.8499999999999996,385,0.025,-1.015,-0.162,-49.274388,-3.7815228,-7.1046792000000005,76.02006744,2.92781538,-17.29187244
3.86,386,0.019,-1.021,-0.171,-50.24841660000001,-3.8388186,-7.8495246,75.50440524000003,2.99084076,-17.354897819999998
3.8699999999999997,387,0.013000000000000001,-1.024,-0.168,-52.48295279999999,-4.0680017999999984,-8.307891,74.97155430000002,3.05386614,-17.4179232
3.88,388,0.019,-1.024,-0.168,-55.40503860000001,-3.6669312000000014,-8.5370742,74.40432588,3.1226211000000004,-17.48094858
3.8899999999999997,389,0.021,-1.026,-0.185,-57.754166399999995,-3.3231564,-8.880849000000003,73.81417914,3.1913760600000005,-17.54397396
3.9,390,0.024,-1.0270000000000001,-0.19899999999999998,-60.3324774,-2.7501984,-9.0527364,73.20111408,3.2658606,-17.60126976
3.9099999999999997,391,0.02,-1.031,-0.2,-62.0513514,-2.5210152000000003,-9.0527364,72.57086028,3.33461556,-17.65283598
3.92,392,0.024,-1.026,-0.19899999999999998,-65.317212,-2.2345362,-8.880849000000003,71.90049941999997,3.4091001000000003,-17.71013178
3.9299999999999997,393,0.022000000000000002,-1.0190000000000001,-0.21,-68.46848100000001,-2.0053530000000004,-9.0527364,71.20722024,3.47785506,-17.761698000000006
3.94,394,0.027999999999999997,-1.015,-0.222,-70.0154676,-1.3750992,-9.396511199999999,70.49102274,3.5580691799999995,-17.81326422
3.9499999999999997,395,0.032,-1.011,-0.23600000000000002,-71.8489332,-0.6875496,-9.9694692,69.76336608,3.6382833,-17.85910086
3.96,396,0.035,-1.0070000000000001,-0.247,-72.82296179999999,-0.1718874,-10.4278356,69.01852068,3.7242269999999995,-17.899207920000006
3.9699999999999998,397,0.033,-1.002,-0.251,-74.2553568,0.0,-10.3705398,68.26221611999999,3.81590028,-17.94504456
3.98,398,0.044000000000000004,-0.998,-0.267,-75.2866812,0.6302538000000001,-10.1986524,67.49445240000001,3.90184398,-17.97942204
3.9899999999999998,399,0.047,-1.001,-0.29,-76.4325972,1.3178034,-10.2559482,66.71522952000001,3.99351726,-18.01379952
4.0,400,0.048,-1.0090000000000001,-0.312,-77.23473840000003,1.8334656000000005,-10.084060800000001,65.93600663999999,4.0794609600000005,-18.04244742
4.01,401,0.044000000000000004,-1.005,-0.327,-78.95361240000003,1.9480572,-9.7975818,65.12813586000001,4.16540466,-18.07109532
4.02,402,0.048,-0.9840000000000001,-0.335,-81.1308528,2.0053530000000004,-9.1100322,64.30307634,4.24561878,-18.09401364
4.03,403,0.033,-0.9540000000000001,-0.33799999999999997,-81.18814859999998,2.4064236,-8.7089616,63.47801682000001,4.325832900000001,-18.11693196
4.04,404,0.028999999999999998,-0.934,-0.348,-80.95896540000003,3.7242269999999995,-9.0527364,62.6529573,4.4117766000000005,-18.12839112
4.05,405,0.035,-0.935,-0.384,-79.6984578,5.6149884000000005,-9.5111028,61.84508652000001,4.50917946,-18.12839112
4.06,406,0.052000000000000005,-0.975,-0.4320000000000001,-78.5525418,6.5317212,-9.396511199999999,61.0486749,4.612311900000001,-18.12266154
4.07,407,0.075,-1.006,-0.466,-80.21412,6.990087599999999,-8.880849000000003,60.23507453999999,4.70971476,-18.1054728
4.08,408,0.08900000000000001,-1.022,-0.48700000000000004,-81.7611066,5.1566220000000005,-7.734933000000002,59.40428544,4.78992888,-18.1054728
4.09,409,0.106,-1.008,-0.502,-83.4799806,2.9793816000000004,-6.5317212,58.5563076,4.85295426,-18.11693196
4.1,410,0.10400000000000001,-0.972,-0.522,-84.68319240000002,1.8334656000000005,-6.589017,57.696870600000004,4.90452048,-18.13985028
4.109999999999999,411,0.115,-0.953,-0.531,-83.4799806,1.6615782,-7.2765666,56.84316318,4.96181628,-18.16849818
4.12,412,0.09300000000000001,-0.938,-0.5720000000000001,-81.81840240000002,1.2605076000000002,-8.7089616,56.01237408,5.03057124,-18.21433482
4.13,413,0.095,-0.93,-0.598,-80.78707800000002,0.9740286,-8.5370742,55.18731455999999,5.0993262,-18.25444188
4.14,414,0.09699999999999999,-0.924,-0.62,-79.92764100000002,0.2291832000000001,-8.136003599999999,54.36798462,5.1566220000000005,-18.3060081
4.1499999999999995,415,0.109,-0.919,-0.631,-78.8390208,-0.7448454000000001,-7.7922288,53.56584342,5.2024586400000015,-18.35757432
4.16,416,0.122,-0.91,-0.633,-77.92228800000002,-2.1199446,-7.2765666,52.76943180000001,5.23683612,-18.42632928
4.17,417,0.125,-0.894,-0.6459999999999999,-76.8336678,-2.9220858,-6.875496000000001,51.98447934000001,5.2654840200000015,-18.49508424
4.18,418,0.126,-0.8809999999999999,-0.6579999999999999,-74.9429064,-3.5523396000000003,-6.8182002000000015,51.21671562,5.28840234,-18.56956878
4.1899999999999995,419,0.127,-0.87,-0.6829999999999999,-72.82296179999999,-4.4117766,-7.1046792000000005,50.46614064,5.30559108,-18.6497829
4.2,420,0.11599999999999999,-0.8740000000000001,-0.7,-70.18735500000001,-5.6149884000000005,-7.9641161999999985,49.74994314,5.32277982,-18.74718576
4.21,421,0.105,-0.871,-0.7090000000000001,-68.6976642,-6.130650599999999,-7.734933000000002,49.03947522,5.33423898,-18.844588620000003
4.22,422,0.10099999999999999,-0.857,-0.7120000000000001,-67.609044,-6.0160589999999985,-6.875496000000001,48.34619604,5.339968560000001,-18.94199148
4.2299999999999995,423,0.10400000000000001,-0.8490000000000001,-0.7120000000000001,-66.749607,-5.6722842,-6.3025379999999975,47.66437602000001,5.339968560000001,-19.02793518
4.24,424,0.10099999999999999,-0.8340000000000001,-0.7240000000000001,-65.66098679999999,-5.2139178,-5.5003968,46.98828558,5.339968560000001,-19.1081493
4.25,425,0.106,-0.8370000000000001,-0.7090000000000001,-62.5670136,-5.2139178,-4.010706000000001,46.352302200000004,5.32277982,-19.17117468
4.26,426,0.092,-0.81,-0.713,-65.2026204,-5.5003968,-2.4064236,45.68194134,5.29413192,-19.23420006
4.27,427,0.08800000000000001,-0.778,-0.728,-63.9994086,-5.042030400000002,-1.432395,45.02876922,5.2654840200000015,-19.280036700000004
4.28,428,0.08199999999999999,-0.7659999999999999,-0.732,-60.2178858,-4.1825934,-0.9167328000000001,44.41570416,5.231106540000001,-19.32014376
4.29,429,0.08199999999999999,-0.746,-0.741,-58.78549079999999,-3.6096353999999997,-0.8594370000000001,43.81409826,5.20818822,-19.35452124
4.3,430,0.085,-0.732,-0.745,-55.86340500000001,-2.7501984,-0.8021411999999999,43.24686984,5.1852699,-19.377439560000006
4.31,431,0.09,-0.727,-0.75,-53.285093999999994,-2.0053530000000004,-0.8021411999999999,42.70255974000001,5.16808116,-19.40035788
4.32,432,0.08900000000000001,-0.718,-0.755,-51.33703679999999,-2.0053530000000004,-0.6302538000000001,42.18116796,5.15089242,-19.4232762
4.33,433,0.086,-0.708,-0.7559999999999999,-49.274388,-2.1199446,-0.286479,41.6826945,5.127974099999999,-19.44046494
4.34,434,0.078,-0.695,-0.758,-47.1544434,-2.4637194,0.11459160000000004,41.20140978,5.10505578,-19.45765368
4.35,435,0.067,-0.68,-0.77,-45.550160999999996,-2.4064236,0.5156622000000001,40.737313799999995,5.07640788,-19.46911284
4.36,436,0.062,-0.674,-0.778,-42.398892,-1.432395,0.572958,40.307595299999996,5.05348956,-19.47484242
4.37,437,0.062,-0.6729999999999999,-0.778,-39.5913978,-0.6302538000000001,0.5156622000000001,39.90079512000001,5.042030400000002,-19.47484242
4.38,438,0.063,-0.6709999999999999,-0.7879999999999999,-37.52874900000001,-0.057295800000000015,0.4583664000000001,39.52264284,5.03057124,-19.47484242
4.39,439,0.062,-0.669,-0.7909999999999999,-35.236917,0.40107059999999994,0.572958,39.1616793,5.02484166,-19.46338326
4.3999999999999995,440,0.061,-0.664,-0.7929999999999999,-33.002380800000005,1.0313244000000001,0.7448454000000001,38.82936366,5.01911208,-19.4519241
4.41,441,0.057,-0.657,-0.799,-30.93973200000001,1.6042823999999998,0.8594370000000001,38.51423676,5.02484166,-19.43473536
4.42,442,0.057,-0.649,-0.799,-28.6479,2.8074942000000003,0.7448454000000001,38.22775776,5.03630082,-19.41181704
4.43,443,0.057,-0.642,-0.792,-26.41336380000001,3.9534102,0.6302538000000001,37.9584675,5.05921914,-19.38316914
4.4399999999999995,444,0.062,-0.635,-0.79,-23.777757,5.042030400000002,0.6302538000000001,37.72355472,5.08786704,-19.34306208
4.45,445,0.068,-0.626,-0.7909999999999999,-21.371333399999997,5.3858052,0.6875496,37.50583068,5.1222445200000015,-19.308684600000007
4.46,446,0.073,-0.618,-0.785,-18.8503182,5.5003968,0.7448454000000001,37.31675454,5.1566220000000005,-19.26284796
4.47,447,0.08,-0.61,-0.778,-16.615782,5.958763200000001,0.9167328000000001,37.15059672,5.19099948,-19.2227409
4.4799999999999995,448,0.086,-0.603,-0.7709999999999999,-14.209358400000001,6.5317212,1.0886202,37.00735722,5.23683612,-19.17117468
4.49,449,0.09,-0.598,-0.77,-11.745639,7.161975,1.0313244000000001,36.89276562,5.2826727600000005,-19.11960846
4.5,450,0.095,-0.602,-0.768,-9.2819196,7.906820400000001,1.2605076000000002,36.80109234,5.33423898,-19.056583080000006
4.51,451,0.09300000000000001,-0.608,-0.7659999999999999,-7.5057497999999985,8.651665800000002,1.2605076000000002,36.73233738,5.3972643599999985,-18.9935577
4.52,452,0.096,-0.612,-0.764,-5.5003968,9.396511199999999,1.432395,36.68077116,5.46028974,-18.92480274
4.53,453,0.098,-0.616,-0.769,-3.7242269999999995,9.8548776,1.8334656000000005,36.64639368,5.52331512,-18.8503182
4.54,454,0.099,-0.619,-0.767,-2.0626488000000003,10.1413566,2.291832,36.63493452,5.5863404999999995,-18.77010408
4.55,455,0.102,-0.619,-0.755,-0.6875496,9.8548776,2.9793816000000004,36.6406641,5.64936588,-18.68416038
4.56,456,0.102,-0.618,-0.7509999999999999,0.0,9.740286,3.7815228,36.64639368,5.7009320999999975,-18.5924871
4.57,457,0.099,-0.617,-0.75,0.572958,10.084060800000001,4.583664,36.66358242,5.75249832,-18.49508424
4.58,458,0.095,-0.619,-0.738,1.3178034,10.1413566,4.9847346,36.68650074,5.80406454,-18.3919518
4.59,459,0.091,-0.625,-0.733,1.4896908000000002,10.1986524,5.3858052,36.70941906,5.849901179999999,-18.28308978
4.6,460,0.087,-0.635,-0.736,2.0053530000000004,10.7143146,5.5576926,36.74952612,5.895737819999999,-18.17422776
4.61,461,0.09,-0.643,-0.731,2.3491277999999998,11.172680999999999,5.5003968,36.78963318,5.9530336199999985,-18.05963616
4.62,462,0.094,-0.649,-0.7340000000000001,2.1199446,11.6310474,5.5576926,36.81828108000001,6.01032942,-17.94504456
4.63,463,0.105,-0.6579999999999999,-0.741,2.291832,11.5737516,5.844171599999999,36.85265856,6.06189564,-17.824723380000005
4.64,464,0.115,-0.657,-0.758,2.4064236,10.7143146,6.589017,36.89276562,6.1077322800000005,-17.704402199999997
4.6499999999999995,465,0.132,-0.653,-0.769,4.4690724,9.396511199999999,6.875496000000001,36.95006142,6.147839339999999,-17.589810600000003
4.66,466,0.152,-0.6579999999999999,-0.7659999999999999,6.589017,6.875496000000001,6.703608600000001,37.03027554000001,6.1592985,-17.498137319999998
4.67,467,0.162,-0.665,-0.755,7.7922288,4.7555514,6.2452422,37.11621924,6.1592985,-17.4179232
4.68,468,0.156,-0.6629999999999999,-0.735,9.7975818,2.4637194,5.5003968,37.21935168,6.147839339999999,-17.354897819999998
4.6899999999999995,469,0.14,-0.669,-0.701,11.802934800000001,0.572958,5.0993262,37.34540244,6.12492102,-17.31479076
4.7,470,0.121,-0.67,-0.659,12.032118,-0.7448454000000001,4.6982555999999995,37.5001011,6.09054354,-17.280413279999998
4.71,471,0.102,-0.649,-0.602,10.599723,-0.8021411999999999,4.2398892,37.60896312,6.06189564,-17.251765380000002
4.72,472,0.071,-0.615,-0.556,8.5370742,-0.2291832000000001,3.5523396000000003,37.7006364,6.03897732,-17.22311748
4.7299999999999995,473,0.036000000000000004,-0.579,-0.522,6.0160589999999985,0.572958,3.2085647999999996,37.76366178,6.02178858,-17.19446958
4.74,474,0.008,-0.534,-0.504,2.86479,1.8334656000000005,3.0939732,37.79803926,6.02178858,-17.15436252
4.75,475,-0.003,-0.46799999999999997,-0.494,0.4583664000000001,3.7242269999999995,3.1512689999999997,37.80949842,6.02178858,-17.108525880000002
4.76,476,-0.008,-0.41100000000000003,-0.491,-0.8021411999999999,6.703608600000001,1.7761698000000001,37.80376884,6.06189564,-17.05123008
4.77,477,0.005,-0.37,-0.512,-2.0053530000000004,9.9694692,0.4583664000000001,37.79230968,6.13638018,-16.98247512
4.78,478,0.037000000000000005,-0.332,-0.545,-3.2658606,13.0634424,-0.11459160000000004,37.76366178,6.2337830400000005,-16.902261000000006
4.79,479,0.086,-0.319,-0.56,-2.6356068,14.8396122,-0.572958,37.74647304,6.35410422,-16.8163173
4.8,480,0.129,-0.33299999999999996,-0.569,-2.2345362,15.011499599999999,0.0,37.72355472,6.4744253999999986,-16.71891444
4.81,481,0.152,-0.35100000000000003,-0.5770000000000001,-3.0366774,14.4958374,0.6302538000000001,37.7006364,6.57755784,-16.621511579999996
4.82,482,0.16399999999999998,-0.368,-0.591,-5.042030400000002,12.9488508,0.0,37.65479976,6.680690279999999,-16.541297460000006
4.83,483,0.161,-0.38299999999999995,-0.627,-6.9327918,11.8602306,-2.2345362,37.59177438,6.783822719999999,-16.484001659999997
4.84,484,0.158,-0.40700000000000003,-0.654,-8.651665800000002,9.9694692,-6.1879464,37.5001011,6.898414319999999,-16.4725425
4.85,485,0.149,-0.446,-0.652,-9.3392154,7.1046792000000005,-9.2819196,37.39696866,7.01300592,-16.501190400000002
4.86,486,0.14400000000000002,-0.491,-0.657,-11.172680999999999,3.9534102,-11.5737516,37.27664748,7.11040878,-16.56994536
4.87,487,0.138,-0.524,-0.6509999999999999,-13.3499214,1.6042823999999998,-13.0634424,37.1276784,7.20208206,-16.66161864
4.88,488,0.124,-0.539,-0.637,-16.7876694,0.6875496,-13.8655836,36.94433184,7.288025760000001,-16.77048066
4.89,489,0.11599999999999999,-0.542,-0.645,-20.7410796,0.4583664000000001,-15.011499599999999,36.71514864,7.37396946,-16.88507226
4.8999999999999995,490,0.111,-0.536,-0.659,-23.7204612,-0.2291832000000001,-15.527161800000002,36.46304712,7.46564274,-17.01112302
4.91,491,0.113,-0.536,-0.685,-25.78311,-0.572958,-15.469866,36.18229770000001,7.545856859999999,-17.14290336
4.92,492,0.11900000000000001,-0.547,-0.6990000000000001,-28.361421000000004,-1.3178034,-14.896907999999998,35.87862996,7.620341400000001,-17.268954119999997
4.93,493,0.12300000000000001,-0.5579999999999999,-0.6970000000000001,-29.8511118,-2.4637194,-14.1520626,35.55777348,7.677637200000001,-17.40073446
4.9399999999999995,494,0.127,-0.5720000000000001,-0.691,-31.455394199999997,-2.86479,-13.521808800000002,35.21972826,7.72920342,-17.52678522
4.95,495,0.135,-0.584,-0.69,-33.9191136,-2.2345362,-13.178034,34.864494300000004,7.780769640000001,-17.647106400000006
4.96,496,0.136,-0.595,-0.6990000000000001,-36.898495200000006,-2.1199446,-13.0061466,34.47488286,7.8323358600000015,-17.76742758
4.97,497,0.129,-0.599,-0.722,-39.7632852,-3.3231564,-12.891555,34.050893939999995,7.87244292,-17.89347834
4.9799999999999995,498,0.131,-0.613,-0.733,-41.825934000000004,-5.5576926,-12.834259199999998,33.60971628,7.89536124,-18.03098826
4.99,499,0.13699999999999998,-0.622,-0.708,-44.977203,-8.5370742,-12.4331886,33.13416114,7.889631660000001,-18.18568692
5.0,500,0.15,-0.626,-0.696,-50.305712400000004,-10.026765,-13.120738199999998,32.607039779999994,7.87244292,-18.35184474
5.01,501,0.168,-0.624,-0.6890000000000001,-56.4936588,-8.880849000000003,-13.8082878,32.01116346,7.866713339999999,-18.518002560000006
5.02,502,0.193,-0.624,-0.684,-61.07732280000001,-6.3025379999999975,-14.0947668,31.3694505,7.8781725000000025,-18.67270122
5.03,503,0.20800000000000002,-0.643,-0.7040000000000001,-66.9214944,-3.380452200000001,-12.4331886,30.67617132,7.90109082,-18.79875198
5.04,504,0.207,-0.659,-0.723,-72.5364828,0.6875496,-8.4224826,29.93132592,7.94119788,-18.86750694
5.05,505,0.188,-0.6729999999999999,-0.733,-75.1147938,5.5003968,-2.86479,29.17502136,7.99849368,-18.86177736
5.06,506,0.147,-0.662,-0.716,-77.635809,10.1986524,4.0680017999999984,28.40152806,8.0500599,-18.77010408
5.07,507,0.079,-0.631,-0.6970000000000001,-76.54718879999999,12.0894138,11.0007936,27.645223500000004,8.09589654,-18.61540542
5.08,508,0.016,-0.622,-0.718,-74.198061,14.667724800000002,16.386598799999998,26.91756684,8.136003599999999,-18.3919518
5.09,509,-0.013999999999999999,-0.624,-0.728,-73.85428619999998,16.959556799999998,18.8503182,26.20709892,8.18756982,-18.14557986
5.1,510,-0.03,-0.638,-0.747,-74.31265259999998,20.2827132,20.1108258,25.496631,8.262054359999999,-17.86483044
5.11,511,-0.011000000000000001,-0.648,-0.7709999999999999,-76.60448459999998,22.7464326,20.168121600000006,24.75751518,8.3651868,-17.57835144
5.12,512,0.055,-0.639,-0.7979999999999999,-79.46927459999998,25.496631,19.194093,23.98975146,8.50269672,-17.286142859999998
5.13,513,0.122,-0.635,-0.8140000000000001,-79.0109082,28.5906042,17.8189938,23.227717320000004,8.6803137,-16.999663860000002
5.14,514,0.141,-0.63,-0.825,-76.8336678,31.627281600000003,17.0741484,22.4886015,8.88657858,-16.707455279999998
5.1499999999999995,515,0.142,-0.619,-0.8059999999999999,-75.05749800000002,34.5493674,16.673077799999998,21.77813358,9.12722094,-16.409517119999997
5.16,516,0.152,-0.61,-0.8140000000000001,-73.625103,36.898495200000006,16.157415599999997,21.07339524,9.39078162,-16.11157896
5.17,517,0.141,-0.614,-0.812,-69.900876,36.03905820000001,13.8655836,20.40303438,9.66007188,-15.8422887
5.18,518,0.13699999999999998,-0.619,-0.797,-68.6976642,36.2109456,9.6256944,19.74413268,9.95228046,-15.6131055
5.1899999999999995,519,0.133,-0.632,-0.8190000000000001,-68.2392978,35.2942128,4.1825934,19.07377182,10.255948199999999,-15.44694768
5.2,520,0.142,-0.642,-0.8190000000000001,-68.98414319999999,33.1742682,-1.6615782,18.40341096,10.55961594,-15.33808566
5.21,521,0.16699999999999998,-0.657,-0.8370000000000001,-71.7343416,29.9084076,-7.161975,17.6757543,10.85182452,-15.303708179999996
5.22,522,0.213,-0.691,-0.861,-74.2553568,26.1268848,-10.886202,16.91372016,11.1153852,-15.32089692
5.2299999999999995,523,0.27899999999999997,-0.743,-0.863,-77.8649922,22.6891368,-13.464512999999998,16.11157896,11.35602756,-15.37819272
5.24,524,0.309,-0.785,-0.8859999999999999,-81.7611066,17.4179232,-15.756345,15.25787154,11.55656286,-15.47559558
5.25,525,0.309,-0.823,-0.851,-85.54262940000002,11.917526400000002,-16.959556799999998,14.37551622,11.699802359999998,-15.60164634
5.26,526,0.273,-0.826,-0.8190000000000001,-92.7046044,6.8182002000000015,-18.449247600000003,13.40148762,11.79720522,-15.756345000000001
5.27,527,0.23399999999999999,-0.8109999999999999,-0.7929999999999999,-99.0071424,3.3231564,-20.7983754,12.35870406,11.86596018,-15.951150719999998
5.28,528,0.201,-0.807,-0.7609999999999999,-106.6274838,1.0313244000000001,-23.7204612,11.229976800000001,11.91179682,-16.17460434
5.29,529,0.175,-0.802,-0.759,-115.1072622,-0.6875496,-26.9863218,10.00384668,11.94044472,-16.4438946
5.3,530,0.16,-0.7709999999999999,-0.7440000000000001,-122.5557162,-2.8074942000000003,-30.080295,8.714691179999999,11.946174300000001,-16.736103179999994
5.31,531,0.14300000000000002,-0.741,-0.706,-128.34259200000002,-5.042030400000002,-32.544014399999995,7.34532156,11.92325598,-17.06268924
5.32,532,0.127,-0.71,-0.67,-134.4732426,-7.1046792000000005,-34.7785506,5.90719698,11.87741934,-17.4179232
5.33,533,0.091,-0.662,-0.597,-138.2547654,-8.078707799999998,-36.554720399999994,4.42896534,11.81439396,-17.78461632
5.34,534,0.042,-0.612,-0.513,-140.7757806,-7.5057497999999985,-37.41415739999999,2.92781538,11.75136858,-18.162768600000003
5.35,535,-0.002,-0.557,-0.41700000000000004,-142.89572520000004,-5.3285094000000015,-37.1276784,1.41520626,11.69407278,-18.52373214
5.36,536,-0.045,-0.489,-0.332,-144.32812019999997,-2.8074942000000003,-35.8671708,-0.11459160000000003,11.65396572,-18.878966100000003
5.37,537,-0.08900000000000001,-0.414,-0.27,-144.5573034,-0.286479,-33.804522,-1.65011904,11.631047399999998,-19.21128174
5.38,538,-0.10099999999999999,-0.324,-0.213,-143.8697538,3.4377480000000005,-31.455394199999997,-3.1741873200000006,11.63677698,-19.51494948
5.39,539,-0.048,-0.146,-0.239,-143.525979,6.5317212,-30.4240698,-4.69252602,11.66542488,-19.812887640000003
5.3999999999999995,540,0.040999999999999995,0.013000000000000001,-0.264,-136.1921166,4.3544808,-30.7678446,-6.13638018,11.66542488,-20.11655538
5.41,541,0.182,0.171,-0.24100000000000002,-125.7069852,-0.3437748,-30.4813656,-7.47137232,11.613858660000002,-20.40876396
5.42,542,0.327,0.316,-0.24100000000000002,-114.01864199999999,-3.6669312000000014,-29.2781538,-8.68604328,11.52791496,-20.68951338
5.43,543,0.449,0.451,-0.27,-100.1530584,-9.9121734,-27.501984000000004,-9.75174516,11.37894588,-20.9416149
5.4399999999999995,544,0.535,0.5489999999999999,-0.252,-82.62054359999998,-22.7464326,-23.892348600000002,-10.6283709,11.10392604,-21.136420620000006
5.45,545,0.535,0.5660000000000001,-0.226,-64.22859179999999,-37.1276784,-18.621135,-11.32165008,10.72004418,-21.2567418
5.46,546,0.478,0.48100000000000004,-0.179,-49.3316838,-48.987909,-10.026765,-11.81439396,10.22157072,-21.26820096
5.47,547,0.3720000000000001,0.287,-0.152,-40.2789474,-56.4936588,0.6875496,-12.19827582,9.66580146,-21.15360936
5.4799999999999995,548,0.233,0.244,-0.243,-36.8411994,-58.15523699999999,10.5424272,-12.53059146,9.12149136,-20.93588532
5.49,549,0.031,0.366,-0.415,-29.9084076,-51.3943326,11.745639,-12.79415214,8.64593622,-20.71816128
5.5,550,-0.153,0.495,-0.44299999999999995,-19.8243468,-42.97185,16.615782,-12.98322828,8.24486562,-20.47751892
5.51,551,-0.27699999999999997,0.7909999999999999,-0.44299999999999995,-15.183387000000002,-39.6486936,21.886995600000002,-13.086360719999998,7.906820399999999,-20.17958076
5.52,552,-0.41,0.94,-0.479,9.6256944,-37.81522800000001,19.8243468,-12.9488508,7.58596392,-19.9102905
5.53,553,-0.41700000000000004,0.9109999999999999,-0.431,38.38818600000001,-27.043617600000005,9.9121734,-12.53632104,7.35105114,-19.767051
5.54,554,-0.382,0.7979999999999999,-0.424,58.842786600000004,-3.0939732,-1.0886202,-11.94044472,7.32240324,-19.77851016
5.55,555,-0.289,0.5670000000000001,-0.478,73.79699040000001,19.0222056,-5.5003968,-11.22424722,7.4885610599999985,-19.87591302
5.56,556,-0.196,0.41600000000000004,-0.57,78.89631659999998,25.496631,-7.734933000000002,-10.44502434,7.72920342,-20.00196378
5.57,557,-0.083,0.3720000000000001,-0.6609999999999999,85.54262940000002,13.3499214,-5.72958,-9.58558734,7.85525418,-20.08790748
5.58,558,0.048,0.40700000000000003,-0.607,103.36162320000001,-1.8334656000000005,0.057295800000000015,-8.5370742,7.8495246,-20.09363706
5.59,559,0.23399999999999999,0.34299999999999997,-0.4920000000000001,121.1233212,-3.380452200000001,7.734933000000002,-7.29948492,7.838065440000001,-20.024882100000006
5.6,560,0.331,0.319,-0.322,117.16991100000001,8.5370742,12.261301199999998,-6.1077322800000005,7.9583866200000015,-19.92174966
5.61,561,0.33899999999999997,0.397,-0.33,104.564835,15.928232399999999,16.2147114,-5.03057124,8.14173318,-19.77851016
5.62,562,0.28300000000000003,0.41200000000000003,-0.444,111.61221840000002,18.1054728,17.761698000000006,-3.87892566,8.34799806,-19.6238115
5.63,563,0.23,0.278,-0.5539999999999999,123.18597,16.157415599999997,19.079501399999998,-2.6012293200000003,8.53134462,-19.44619452
5.64,564,0.209,0.049,-0.6559999999999999,132.1814106,6.6463128000000005,24.1215318,-1.22613012,8.61728832,-19.21701132
5.6499999999999995,565,0.138,-0.196,-0.659,134.98890480000003,-9.1100322,30.65325300000001,0.19480572,8.54853336,-18.91907316
5.66,566,0.017,-0.457,-0.539,134.1294678,-27.788463,35.4088044,1.6042824000000002,8.2792431,-18.58675752
5.67,567,-0.183,-0.7,-0.3720000000000001,131.09279039999998,-42.62807520000001,35.9244666,2.99084076,7.860983760000001,-18.26590104
5.68,568,-0.425,-0.861,-0.243,115.164558,-42.7999626,32.31483119999999,4.19978214,7.431265259999999,-17.9908812
5.6899999999999995,569,-0.5479999999999999,-0.914,-0.17300000000000001,83.8810512,-20.2827132,22.517249399999997,5.08213746,7.225000379999999,-17.7903459
5.7,570,-0.531,-0.821,-0.231,35.0077338,18.793022399999998,4.583664,5.51185596,7.3567807200000015,-17.715861359999995
5.71,571,-0.474,-0.5710000000000001,-0.47,-5.5576926,70.30194660000001,-17.8762896,5.4316418399999975,8.06151906,-17.80753464
5.72,572,-0.496,-0.39899999999999997,-0.935,-9.453807,139.515273,-29.335449600000004,5.2998615,9.45953658,-17.9335854
5.7299999999999995,573,-0.318,-0.201,-1.565,-0.3437748,159.62609880000005,-37.7006364,5.23683612,11.0580894,-18.11693196
5.74,574,0.046,-0.11599999999999999,-1.96,-26.2987722,140.3174142,-41.9978214,4.898790900000002,12.473295660000002,-18.37476306
5.75,575,0.522,0.124,-2.863,-86.63124959999998,105.7680468,-38.731960799999996,3.94195104,13.53326796,-18.6497829
5.76,576,0.11900000000000001,0.5660000000000001,-3.8939999999999997,-114.70619159999998,81.7611066,-33.116972399999995,2.70436176,14.34113874,-18.907614000000002
5.77,577,0.82,1.495,-3.9960000000000004,-78.8390208,50.76407879999999,-28.3041252,1.8334656000000005,14.845341780000002,-19.15398594
5.78,578,1.768,2.61,-3.9960000000000004,-119.34715140000002,15.469866,-35.2942128,0.53285094,14.99431086,-19.50349032
5.79,579,1.5019999999999998,2.2359999999999998,-3.992,-198.9883134,38.10170700000001,-23.2620948,-1.5412570200000002,15.34954482,-19.71548478
5.8,580,0.585,1.3869999999999998,-3.577,-167.017257,66.00476160000001,-35.9244666,-3.34607472,15.96833946,-20.0821779
5.81,581,0.444,0.6759999999999999,-3.0589999999999997,-46.00852740000001,87.20420759999998,-44.8626114,-3.9648693599999993,16.79339898,-20.58065136
5.82,582,0.625,0.569,-2.594,-26.1841806,84.2821218,-43.20103320000001,-4.38885828,17.59554018,-21.06193608
5.83,583,1.173,0.6409999999999999,-2.362,-50.993262,48.9306132,-44.34694920000001,-5.05921914,18.03671784,-21.54895038
5.84,584,1.3319999999999999,0.657,-1.761,-32.830493399999995,40.2216516,-51.0505578,-5.574881339999999,18.38622222,-22.10471964000001
5.85,585,1.217,0.214,-0.865,5.2712136,46.7533728,-54.4883058,-5.71812084,18.8216703,-22.70632554
5.86,586,0.935,-0.289,-0.40700000000000003,27.3300966,14.610429000000002,-44.4615408,-5.59779966,18.92480274,-23.18188068
5.87,587,0.616,-0.106,-0.415,6.875496000000001,-20.2827132,-27.272800800000002,-5.6149884000000005,18.70134912,-23.45690052
5.88,588,0.552,0.23,-0.34600000000000003,6.1879464,-23.2620948,-13.2926256,-5.5863404999999995,18.46070676,-23.57722170000001
5.89,589,0.55,0.426,-0.285,11.2872726,-19.767051000000002,-7.0473834,-5.48893764,18.26017146,-23.64024708
5.8999999999999995,590,0.365,0.6809999999999999,-0.369,4.9847346,-15.870936600000002,-4.583664,-5.64936588,18.12266154,-23.73764994
5.91,591,0.11,0.846,-0.496,5.3858052,-3.4950437999999995,-2.8074942000000003,-5.59779966,18.08255448,-23.76629784
5.92,592,-0.079,0.8420000000000001,-0.532,7.906820400000001,13.120738199999998,-4.8128472,-5.5405038599999985,18.20860524,-23.82359364
5.93,593,-0.153,0.7340000000000001,-0.524,6.3025379999999975,23.319390600000002,-8.4224826,-5.51185596,18.43205886,-23.932455659999995
5.9399999999999995,594,-0.08900000000000001,0.57,-0.529,1.9480572,29.8511118,-10.4278356,-5.5405038599999985,18.71853786,-24.064235999999998
5.95,595,0.109,0.37,-0.561,0.3437748,29.392745399999995,-10.7716104,-5.6035292399999985,18.9935577,-24.20174592
5.96,596,0.312,0.22899999999999998,-0.59,5.3858052,19.194093,-10.4851314,-5.59207008,19.17690426,-24.32779668
5.97,597,0.42,0.158,-0.593,13.980175199999998,11.2872726,-10.599723,-5.4946672199999975,19.280036700000004,-24.448117860000004
5.9799999999999995,598,0.46399999999999997,0.131,-0.5670000000000001,22.803728399999997,4.583664,-10.657018800000001,-5.2998615,19.31441418,-24.56843904
5.99,599,0.44799999999999995,0.162,-0.524,30.7105488,-3.380452200000001,-11.2299768,-5.03057124,19.27430712,-24.68303064
6.0,600,0.384,0.159,-0.503,36.32553720000001,-11.8602306,-11.2299768,-4.703985179999999,19.165445100000003,-24.80335182
6.01,601,0.32899999999999996,0.14400000000000002,-0.502,38.8465524,-16.7876694,-8.651665800000002,-4.33729206,18.9935577,-24.88929552
6.02,602,0.313,0.171,-0.5589999999999999,35.122325399999994,-19.767051000000002,-3.6096353999999997,-3.98778768,18.80448156,-24.91794342
6.03,603,0.39799999999999996,0.23,-0.688,27.559279800000002,-22.6891368,3.2085647999999996,-3.68984952,18.58102794,-24.87783636
6.04,604,0.517,0.26,-0.878,21.944291399999997,-30.366774000000003,8.880849000000003,-3.43201842,18.28881936,-24.7804335
6.05,605,0.59,0.276,-1.053,23.777757,-42.112413000000004,14.9542038,-3.1398098400000003,17.89347834,-24.61427568
6.06,606,0.648,0.316,-1.127,31.856464799999998,-57.2385042,21.657812399999997,-2.73873924,17.33770908,-24.3793629
6.07,607,0.662,0.314,-1.102,41.1383844,-70.8176088,26.929026,-2.22307704,16.65588906,-24.08715432
6.08,608,0.595,0.23800000000000002,-1.07,44.51883660000001,-77.75040059999998,28.7051958,-1.6787669399999998,15.8995845,-23.78921616
6.09,609,0.491,0.12300000000000001,-1.122,37.52874900000001,-75.916935,26.5852512,-1.21467096,15.16046868,-23.52565548
6.1,610,0.4920000000000001,0.0,-1.305,27.1582092,-63.1972674,22.0015872,-0.87089616,14.541674039999998,-23.30220186
6.11,611,0.47100000000000003,-0.129,-1.4909999999999999,17.6471064,-45.6647526,18.277360199999997,-0.64171296,14.0947668,-23.12458488
6.12,612,0.396,-0.16699999999999998,-1.5230000000000001,10.886202,-34.4347758,16.4438946,-0.4870143000000001,13.75672158,-22.96415664
6.13,613,0.33399999999999996,-0.14400000000000002,-1.469,6.0160589999999985,-28.2468294,14.266654199999998,-0.38961144,13.48170174,-22.82664672
6.14,614,0.302,-0.07,-1.3730000000000002,1.7761698000000001,-19.8243468,11.745639,-0.3437748,13.281166440000002,-22.70632554
6.15,615,0.282,0.027000000000000003,-1.228,-3.9534102,-16.4438946,9.2819196,-0.36669312,13.120738199999998,-22.62038184
6.16,616,0.218,0.107,-1.061,-8.136003599999999,-17.5325148,6.875496000000001,-0.4297185000000001,12.94312122,-22.55162688
6.17,617,0.142,0.147,-0.9329999999999999,-9.2819196,-18.162768600000003,3.4377480000000005,-0.5156622000000001,12.765504240000002,-22.517249399999997
6.18,618,0.223,0.149,-0.818,-7.5630456000000015,-17.246035799999998,-0.6875496,-0.59587632,12.59361684,-22.52870856
6.1899999999999995,619,0.235,0.141,-0.715,-5.6149884000000005,-17.5325148,-5.443101,-0.6589017,12.41599986,-22.58600436
6.2,620,0.267,0.106,-0.6459999999999999,-2.4064236,-17.8189938,-8.7662574,-0.7104679199999999,12.25557162,-22.68340722
6.21,621,0.27,0.043,-0.607,2.0626488000000003,-21.142150199999996,-8.651665800000002,-0.7104679199999999,12.04357716,-22.775080499999998
6.22,622,0.316,-0.038,-0.596,4.9274388,-28.7051958,-5.5003968,-0.66463128,11.75709816,-22.8323763
6.2299999999999995,623,0.309,-0.175,-0.638,9.7975818,-39.9351726,-2.86479,-0.56722842,11.36748672,-22.87248336
6.24,624,0.29600000000000004,-0.341,-0.6970000000000001,14.7250206,-50.0192334,-2.6929026,-0.41825934,10.86901326,-22.90686084
6.25,625,0.22,-0.405,-0.79,12.4904844,-59.35844880000001,-0.4583664000000001,-0.25783110000000004,10.29032568,-22.92404958
6.26,626,0.122,-0.405,-0.87,7.0473834,-65.4890994,2.7501984,-0.1718874,9.64288314,-22.91259042
6.27,627,0.032,-0.34600000000000003,-0.941,-2.86479,-67.7809314,5.958763200000001,-0.18334656,8.97252228,-22.866753780000003
6.28,628,-0.09699999999999999,-0.212,-1.012,-10.4278356,-67.609044,10.1986524,-0.26929026,8.302161420000001,-22.78081008
6.29,629,-0.161,-0.114,-1.0759999999999998,-10.7143146,-62.8534926,13.120738199999998,-0.35523396,7.677637200000001,-22.6604889
6.3,630,-0.225,-0.053,-1.123,-7.7922288,-51.9672906,13.2926256,-0.40680018,7.13905668,-22.53443814
6.31,631,-0.243,-0.002,-1.122,-5.0993262,-36.38283300000001,11.172680999999999,-0.44117766,6.77809314,-22.43130570000001
6.32,632,-0.266,0.04,-1.112,-4.6982555999999995,-21.7151082,8.7662574,-0.47555514,6.566098679999999,-22.345361999999998
6.33,633,-0.259,0.04,-1.084,-2.4637194,-8.9381448,4.6409598,-0.4984734599999999,6.48015498,-22.29952536
6.34,634,-0.21,-0.006,-1.057,-0.5156622000000001,1.0313244000000001,-1.2032118,-0.5042030399999999,6.48588456,-22.3167141
6.35,635,-0.141,-0.07200000000000001,-1.022,-0.8021411999999999,8.3651868,-7.5057497999999985,-0.4984734599999999,6.5030733,-22.38546906
6.36,636,-0.055,-0.139,-0.996,-2.5783110000000002,13.6936962,-13.6936962,-0.5443101,6.63485364,-22.517249399999997
6.37,637,-0.033,-0.17800000000000002,-0.981,-3.3231564,14.037471,-16.2147114,-0.6016058999999999,6.77809314,-22.67767764
6.38,638,-0.024,-0.20199999999999999,-0.9640000000000001,-4.010706000000001,11.802934800000001,-17.4179232,-0.66463128,6.89268474,-22.84956504
6.39,639,-0.026000000000000002,-0.20600000000000002,-0.961,-5.042030400000002,7.6776372,-16.673077799999998,-0.73338624,6.96716928,-23.015722860000004
6.4,640,-0.032,-0.19,-0.96,-7.448453999999999,3.9534102,-15.011499599999999,-0.7906820400000001,6.9614397000000015,-23.15896236
6.41,641,-0.039,-0.146,-0.9640000000000001,-10.1413566,2.1772404,-12.261301199999998,-0.90527364,6.97862844,-23.27928354
6.42,642,-0.039,-0.084,-0.965,-12.0894138,2.0626488000000003,-8.8235532,-1.04278356,7.001546759999999,-23.37095682
6.43,643,-0.036000000000000004,-0.016,-0.963,-12.6623718,3.2658606,-5.5576926,-1.1745639,7.030194660000001,-23.42252304
6.4399999999999995,644,-0.032,0.054000000000000006,-0.9590000000000001,-11.9748222,5.9014674000000005,-2.1772404,-1.30061466,7.0874904600000015,-23.44544136
6.45,645,-0.024,0.1,-0.955,-10.657018800000001,8.7662574,-0.4583664000000001,-1.44385416,7.12759752,-23.45117094
6.46,646,-0.005,0.128,-0.956,-9.396511199999999,11.9748222,0.572958,-1.5412570200000002,7.2479187000000005,-23.44544136
6.47,647,0.019,0.146,-0.956,-9.0527364,15.126091199999998,1.2032118,-1.6329303,7.39688778,-23.42825262
6.4799999999999995,648,0.045,0.152,-0.958,-8.7662574,17.761698000000006,1.7188740000000002,-1.7246035799999997,7.56877518,-23.41106388
6.49,649,0.07400000000000001,0.14400000000000002,-0.958,-7.9641161999999985,19.652459399999998,1.8907614,-1.8048177,7.763580899999999,-23.39387514
6.5,650,0.102,0.129,-0.9620000000000001,-7.2765666,20.9702628,1.7761698000000001,-1.90222056,7.9641161999999985,-23.376686399999997
6.51,651,0.125,0.114,-0.97,-6.5317212,21.944291399999997,1.432395,-1.97097552,8.18184024,-23.36522724000001
6.52,652,0.149,0.10400000000000001,-0.977,-5.5003968,22.7464326,0.6302538000000001,-2.02827132,8.40529386,-23.35949766
6.53,653,0.16399999999999998,0.095,-0.976,-4.7555514,22.9756158,0.0,-2.07983754,8.634477059999998,-23.35949766
6.54,654,0.20199999999999999,0.098,-0.9740000000000001,-4.6982555999999995,23.0902074,-0.2291832000000001,-2.13140376,8.86366026,-23.36522724000001
6.55,655,0.222,0.1,-0.981,-4.583664,22.345361999999998,0.1718874,-2.20015872,9.098573040000002,-23.37095682
6.56,656,0.243,0.094,-0.985,-4.010706000000001,21.2567418,0.8594370000000001,-2.24599536,9.30483792,-23.35949766
6.57,657,0.262,0.094,-0.986,-4.5263682,19.9389384,1.7188740000000002,-2.2918320000000003,9.50537322,-23.3480385
6.58,658,0.281,0.092,-0.9940000000000001,-5.0993262,18.6784308,2.6929026,-2.3376686399999995,9.68871978,-23.3193906
6.59,659,0.299,0.085,-0.997,-5.443101,17.3606274,3.8388186,-2.38923486,9.86060718,-23.28501312
6.6,660,0.311,0.07400000000000001,-0.996,-5.443101,15.469866,5.443101,-2.45226024,10.04395374,-23.2334469
6.61,661,0.314,0.062,-0.995,-4.8701430000000006,13.3499214,6.4744254,-2.4923672999999997,10.17573408,-23.17042152
6.62,662,0.312,0.044000000000000004,-0.998,-3.8961144,10.7716104,7.3911582,-2.5210152000000003,10.29032568,-23.09593698
6.63,663,0.309,0.025,-0.997,-3.2085647999999996,8.3651868,7.906820400000001,-2.53820394,10.3705398,-23.015722860000004
6.64,664,0.301,0.012,-0.9940000000000001,-2.7501984,6.2452422,8.307891,-2.5496631,10.43929476,-22.93550874
6.65,665,0.295,0.006,-0.988,-2.2345362,4.4690724,8.3651868,-2.55539268,10.52523846,-22.84956504
6.66,666,0.285,0.002,-0.982,-1.6042823999999998,2.9220858,7.7922288,-2.55539268,10.55961594,-22.76935092
6.67,667,0.27399999999999997,0.002,-0.9740000000000001,-1.0313244000000001,1.432395,6.875496000000001,-2.55539268,10.57680468,-22.70059596
6.68,668,0.264,0.004,-0.965,-0.6875496,-0.4583664000000001,5.6149884000000005,-2.5496631,10.571075099999998,-22.64330016
6.6899999999999995,669,0.254,0.006999999999999999,-0.958,-0.6302538000000001,-2.0626488000000003,4.1825934,-2.5496631,10.55388636,-22.59746352
6.7,670,0.244,0.01,-0.9570000000000001,-0.4583664000000001,-3.4950437999999995,2.6356068,-2.53820394,10.571075099999998,-22.56881562
6.71,671,0.235,0.013000000000000001,-0.956,-0.572958,-4.583664,0.9167328000000001,-2.54393352,10.52523846,-22.56308604
6.72,672,0.225,0.013000000000000001,-0.9590000000000001,-0.6302538000000001,-5.1566220000000005,-0.7448454000000001,-2.5496631,10.47367224,-22.56881562
6.7299999999999995,673,0.215,0.012,-0.961,-0.6875496,-5.2712136,-2.291832,-2.5611222600000003,10.42210602,-22.59173394
6.74,674,0.21,0.013999999999999999,-0.965,-1.0886202,-5.3285094000000015,-3.6096353999999997,-2.578311,10.3705398,-22.62611142
6.75,675,0.20800000000000002,0.016,-0.9670000000000001,-1.3750992,-5.443101,-4.6982555999999995,-2.59549974,10.32470316,-22.67194806
6.76,676,0.20600000000000002,0.018000000000000002,-0.966,-1.432395,-6.0160589999999985,-5.443101,-2.61841806,10.26167778,-22.72351428
6.77,677,0.203,0.015,-0.9670000000000001,-1.2605076000000002,-6.875496000000001,-5.72958,-2.6413363800000003,10.18719324,-22.78081008
6.78,678,0.201,0.013000000000000001,-0.9670000000000001,-1.432395,-7.906820400000001,-5.5576926,-2.6642547000000003,10.10697912,-22.83810588
6.79,679,0.196,0.01,-0.97,-1.3178034,-8.7089616,-5.3858052,-2.68717302,10.02103542,-22.8896721
6.8,680,0.184,0.008,-0.973,-1.3178034,-9.568398599999998,-5.1566220000000005,-2.69863218,9.92363256,-22.94123832
6.81,681,0.174,0.006,-0.975,-1.4896908000000002,-10.4851314,-4.8701430000000006,-2.7215505,9.81477054,-22.98707496
6.82,682,0.162,0.009000000000000001,-0.98,-1.7761698000000001,-11.401864199999999,-4.297185,-2.74446882,9.70017894,-23.02718202
6.83,683,0.142,0.013000000000000001,-0.982,-1.6042823999999998,-12.2040054,-3.7242269999999995,-2.76738714,9.57985776,-23.0615595
6.84,684,0.122,0.018000000000000002,-0.983,-1.4896908000000002,-12.4331886,-3.4377480000000005,-2.78457588,9.453807000000001,-23.09593698
6.85,685,0.106,0.025,-0.9840000000000001,-1.3750992,-11.8602306,-3.2085647999999996,-2.8074942000000003,9.30483792,-23.12458488
6.86,686,0.094,0.036000000000000004,-0.985,-1.2032118,-10.943497800000001,-3.0366774,-2.81895336,9.1959759,-23.153232780000003
6.87,687,0.084,0.046,-0.982,-0.9740286,-9.740286,-2.7501984,-2.83041252,9.098573040000002,-23.176151100000002
6.88,688,0.079,0.052000000000000005,-0.981,-0.9740286,-8.4224826,-2.5783110000000002,-2.84760126,9.01262934,-23.204798999999998
6.89,689,0.077,0.057,-0.98,-1.2032118,-6.7609043999999985,-2.4064236,-2.85906042,8.94387438,-23.227717320000004
6.9,690,0.078,0.059000000000000004,-0.983,-1.3178034,-5.1566220000000005,-2.1772404,-2.90489706,8.823553200000003,-23.25063564
6.91,691,0.083,0.06,-0.987,-1.3178034,-3.8961144,-2.0053530000000004,-2.91635622,8.783446139999999,-23.26782438
6.92,692,0.08800000000000001,0.057,-0.992,-1.0886202,-2.4637194,-1.7761698000000001,-2.93354496,8.76052782,-23.28501312
6.93,693,0.092,0.054000000000000006,-0.995,-0.8594370000000001,-1.6042823999999998,-1.4896908000000002,-2.94500412,8.74333908,-23.30220186
6.9399999999999995,694,0.094,0.05,-0.996,-0.6875496,-0.8021411999999999,-1.3178034,-2.9507337000000002,8.73187992,-23.31366102
6.95,695,0.096,0.044000000000000004,-0.995,-0.6302538000000001,-0.1718874,-1.0886202,-3.00229992,8.49696714,-23.33084976
6.96,696,0.095,0.04,-0.991,-0.9167328000000001,0.286479,-0.9167328000000001,-3.0137590800000003,8.49696714,-23.336579340000004
6.97,697,0.095,0.037000000000000005,-0.986,-1.2605076000000002,0.6302538000000001,-0.6875496,-3.02521824,8.50269672,-23.34230892
6.9799999999999995,698,0.099,0.035,-0.977,-1.3750992,0.8021411999999999,-0.5156622000000001,-3.04240698,8.51415588,-23.3480385
6.99,699,0.10400000000000001,0.032,-0.973,-1.8334656000000005,0.8021411999999999,-0.3437748,-3.0653253000000005,8.519885460000001,-23.35376808
7.0,700,0.11,0.032,-0.973,-2.4637194,1.0313244000000001,-0.1718874,-3.0939732,8.45686008,-23.35376808
7.01,701,0.11800000000000001,0.034,-0.977,-2.5783110000000002,1.2032118,0.057295800000000015,-3.11689152,8.46831924,-23.35376808
7.02,702,0.125,0.036000000000000004,-0.9840000000000001,-2.5210152000000003,1.3750992,0.4583664000000001,-3.14553942,8.48550798,-23.3480385
7.03,703,0.133,0.039,-0.99,-2.3491277999999998,1.3750992,0.8021411999999999,-3.16845774,8.49696714,-23.34230892
7.04,704,0.13699999999999998,0.04,-0.993,-2.0626488000000003,1.4896908000000002,1.0886202,-3.18564648,8.51415588,-23.33084976
7.05,705,0.141,0.04,-0.993,-1.7188740000000002,1.6615782,1.2032118,-3.2085648000000004,8.51415588,-23.3193906
7.06,706,0.14300000000000002,0.04,-0.992,-1.6042823999999998,1.9480572,1.2032118,-3.2257535399999995,8.53134462,-23.30793144
7.07,707,0.147,0.040999999999999995,-0.9890000000000001,-1.3178034,2.291832,1.2032118,-3.2372127,8.554262940000001,-23.29647228
7.08,708,0.152,0.043,-0.9840000000000001,-1.145916,2.6929026,1.145916,-3.2486718599999995,8.58291084,-23.28501312
7.09,709,0.156,0.044000000000000004,-0.98,-1.0886202,2.8074942000000003,0.9167328000000001,-3.26013102,8.61155874,-23.27928354
7.1,710,0.162,0.045,-0.976,-0.9740286,3.0366774,0.8594370000000001,-3.28304934,8.651665800000002,-23.27355396
7.11,711,0.166,0.044000000000000004,-0.972,-1.0886202,3.0366774,0.8021411999999999,-3.2945085,8.6803137,-23.2620948
7.12,712,0.171,0.043,-0.97,-1.145916,3.0366774,0.6875496,-3.3059676599999994,8.714691179999999,-23.25636522
7.13,713,0.17300000000000001,0.043,-0.968,-1.3178034,2.86479,0.6302538000000001,-3.31742682,8.74333908,-23.25063564
7.14,714,0.177,0.042,-0.968,-1.7188740000000002,2.8074942000000003,0.572958,-3.33461556,8.7662574,-23.24490606
7.15,715,0.17800000000000002,0.042,-0.9670000000000001,-1.9480572,2.6356068,0.572958,-3.36326346,8.81782362,-23.23917648
7.16,716,0.17800000000000002,0.040999999999999995,-0.97,-2.1199446,2.2345362,0.5156622000000001,-3.380452200000001,8.84074194,-23.23917648
7.17,717,0.18,0.040999999999999995,-0.971,-2.2345362,1.9480572,0.5156622000000001,-3.40337052,8.86366026,-23.2334469
7.18,718,0.179,0.042,-0.973,-2.291832,1.6042823999999998,0.5156622000000001,-3.42628884,8.87511942,-23.227717320000004
7.1899999999999995,719,0.17800000000000002,0.043,-0.977,-2.1772404,1.3750992,0.4583664000000001,-3.4492071599999994,8.89230816,-23.22198774
7.2,720,0.177,0.046,-0.9790000000000001,-2.0053530000000004,1.145916,0.40107059999999994,-3.48358464,8.92668564,-23.22198774
7.21,721,0.175,0.046,-0.9790000000000001,-1.7761698000000001,0.7448454000000001,0.3437748,-3.50077338,8.93241522,-23.21625816
7.22,722,0.171,0.044000000000000004,-0.978,-1.6615782,0.40107059999999994,0.286479,-3.51796212,8.9381448,-23.21625816
7.2299999999999995,723,0.16899999999999998,0.044000000000000004,-0.976,-1.7188740000000002,0.1718874,0.11459160000000004,-3.5351508600000003,8.9381448,-23.21052858
7.24,724,0.166,0.044000000000000004,-0.976,-1.7188740000000002,0.0,0.11459160000000004,-3.5523396000000003,8.9381448,-23.21052858
7.25,725,0.163,0.043,-0.978,-1.7761698000000001,-0.057295800000000015,0.057295800000000015,-3.5809875,8.9381448,-23.21052858
7.26,726,0.161,0.046,-0.9790000000000001,-1.7761698000000001,-0.057295800000000015,-0.057295800000000015,-3.60390582,8.93241522,-23.21052858
7.27,727,0.158,0.045,-0.982,-1.6042823999999998,-0.1718874,-0.11459160000000004,-3.62109456,8.93241522,-23.21625816
7.28,728,0.155,0.046,-0.982,-1.432395,-0.1718874,-0.2291832000000001,-3.63255372,8.93241522,-23.21625816
7.29,729,0.153,0.047,-0.981,-1.2605076000000002,-0.3437748,-0.3437748,-3.64974246,8.92668564,-23.22198774
7.3,730,0.151,0.047,-0.981,-1.145916,-0.3437748,-0.3437748,-3.67266078,8.880849000000003,-23.227717320000004
7.31,731,0.147,0.049,-0.981,-1.145916,-0.3437748,-0.3437748,-3.68984952,8.880849000000003,-23.227717320000004
7.32,732,0.146,0.05,-0.9840000000000001,-1.145916,-0.4583664000000001,-0.40107059999999994,-3.70130868,8.87511942,-23.2334469
7.33,733,0.14400000000000002,0.05,-0.983,-0.9740286,-0.6302538000000001,-0.5156622000000001,-3.71276784,8.86938984,-23.23917648
7.34,734,0.142,0.051,-0.985,-0.8021411999999999,-0.8021411999999999,-0.5156622000000001,-3.71849742,8.857930679999997,-23.24490606
7.35,735,0.141,0.052000000000000005,-0.985,-0.7448454000000001,-0.9167328000000001,-0.5156622000000001,-3.74714532,8.794905300000002,-23.25063564
7.36,736,0.141,0.051,-0.9840000000000001,-0.7448454000000001,-1.0886202,-0.6302538000000001,-3.752874900000001,8.783446139999999,-23.25636522
7.37,737,0.141,0.05,-0.985,-0.5156622000000001,-1.2032118,-0.6302538000000001,-3.76433406,8.77198698,-23.2620948
7.38,738,0.141,0.049,-0.9890000000000001,-0.40107059999999994,-1.3178034,-0.572958,-3.76433406,8.76052782,-23.26782438
7.39,739,0.14300000000000002,0.048,-0.993,0.0,-1.2605076000000002,-0.572958,-3.77006364,8.74333908,-23.27355396
7.4,740,0.14300000000000002,0.049,-0.996,0.1718874,-1.2032118,-0.572958,-3.7815228,8.6803137,-23.27928354
7.41,741,0.142,0.05,-0.998,0.5156622000000001,-1.145916,-0.572958,-3.77579322,8.66885454,-23.28501312
7.42,742,0.14300000000000002,0.052000000000000005,-0.997,0.9167328000000001,-0.9740286,-0.6302538000000001,-3.76433406,8.663124960000001,-23.29074270000001
7.43,743,0.142,0.053,-0.996,1.2605076000000002,-0.6875496,-0.6302538000000001,-3.752874900000001,8.651665800000002,-23.29647228
7.4399999999999995,744,0.141,0.053,-0.992,1.3178034,-0.5156622000000001,-0.7448454000000001,-3.74141574,8.64593622,-23.30793144
7.45,745,0.141,0.055999999999999994,-0.988,1.2605076000000002,-0.11459160000000004,-0.8021411999999999,-3.75860448,8.60009958,-23.3193906
7.46,746,0.141,0.055,-0.983,1.145916,0.1718874,-0.8021411999999999,-3.74714532,8.60009958,-23.32512018
7.47,747,0.142,0.055,-0.98,1.145916,0.2291832000000001,-0.8594370000000001,-3.73568616,8.60582916,-23.336579340000004
7.4799999999999995,748,0.14400000000000002,0.053,-0.978,1.145916,0.40107059999999994,-0.8021411999999999,-3.7299565800000014,8.60582916,-23.34230892
7.49,749,0.145,0.051,-0.976,1.3178034,0.40107059999999994,-0.6875496,-3.71276784,8.61155874,-23.35376808
7.5,750,0.147,0.049,-0.9740000000000001,1.3750992,0.40107059999999994,-0.5156622000000001,-3.71849742,8.58864042,-23.35949766
7.51,751,0.149,0.046,-0.973,1.3750992,0.40107059999999994,-0.3437748,-3.70130868,8.594370000000001,-23.36522724000001
7.52,752,0.15,0.044000000000000004,-0.975,1.3750992,0.40107059999999994,-0.1718874,-3.68984952,8.60009958,-23.36522724000001
7.53,753,0.151,0.043,-0.973,1.2032118,0.286479,-0.057295800000000015,-3.67839036,8.60009958,-23.36522724000001
7.54,754,0.152,0.042,-0.9740000000000001,1.145916,0.11459160000000004,0.0,-3.666931200000001,8.60582916,-23.36522724000001
7.55,755,0.15,0.040999999999999995,-0.976,1.0886202,0.0,-0.057295800000000015,-3.65547204,8.57718126,-23.37095682
7.56,756,0.15,0.04,-0.977,0.8594370000000001,0.1718874,-0.1718874,-3.64974246,8.57718126,-23.37095682
7.57,757,0.151,0.04,-0.98,0.9167328000000001,0.40107059999999994,-0.11459160000000004,-3.6382833,8.58291084,-23.37095682
7.58,758,0.151,0.04,-0.983,0.8594370000000001,0.5156622000000001,-0.2291832000000001,-3.63255372,8.58864042,-23.376686399999997
7.59,759,0.152,0.04,-0.986,1.0313244000000001,0.5156622000000001,-0.1718874,-3.62109456,8.594370000000001,-23.376686399999997
7.6,760,0.153,0.039,-0.986,1.145916,0.5156622000000001,-0.1718874,-3.60390582,8.57718126,-23.376686399999997
7.61,761,0.152,0.04,-0.986,1.0886202,0.5156622000000001,-0.1718874,-3.59244666,8.58291084,-23.38241598
7.62,762,0.15,0.039,-0.985,1.0886202,0.572958,-0.1718874,-3.58671708,8.58864042,-23.38241598
7.63,763,0.15,0.039,-0.985,1.145916,0.572958,-0.2291832000000001,-3.57525792,8.60009958,-23.38814556
7.64,764,0.14800000000000002,0.042,-0.985,1.2032118,0.572958,-0.3437748,-3.5580691799999995,8.60582916,-23.38814556
7.65,765,0.14800000000000002,0.043,-0.9840000000000001,1.3750992,0.8021411999999999,-0.3437748,-3.5580691799999995,8.58864042,-23.39387514
7.66,766,0.14800000000000002,0.044000000000000004,-0.9790000000000001,1.2605076000000002,1.0313244000000001,-0.286479,-3.54088044,8.60009958,-23.39960472
7.67,767,0.149,0.045,-0.975,1.145916,1.0313244000000001,-0.286479,-3.52942128,8.61155874,-23.4053343
7.68,768,0.14800000000000002,0.044000000000000004,-0.971,0.9740286,0.9740286,-0.11459160000000004,-3.5236917,8.623017899999999,-23.4053343
7.6899999999999995,769,0.149,0.040999999999999995,-0.9670000000000001,0.8021411999999999,0.8594370000000001,-0.057295800000000015,-3.5122325400000003,8.62874748,-23.4053343
7.7,770,0.15,0.04,-0.9670000000000001,0.5156622000000001,0.7448454000000001,0.0,-3.5122325400000003,8.61728832,-23.4053343
7.71,771,0.152,0.04,-0.971,0.2291832000000001,0.7448454000000001,0.057295800000000015,-3.50650296,8.623017899999999,-23.4053343
7.72,772,0.152,0.042,-0.9790000000000001,0.1718874,0.7448454000000001,0.11459160000000004,-3.50650296,8.634477059999998,-23.4053343
7.7299999999999995,773,0.153,0.044000000000000004,-0.9840000000000001,0.4583664000000001,0.7448454000000001,0.11459160000000004,-3.50077338,8.640206639999999,-23.4053343
7.74,774,0.152,0.043,-0.988,0.8594370000000001,0.6302538000000001,0.11459160000000004,-3.48931422,8.64593622,-23.4053343
7.75,775,0.153,0.043,-0.99,1.145916,0.3437748,0.057295800000000015,-3.4950437999999995,8.62874748,-23.4053343
7.76,776,0.153,0.042,-0.991,1.3178034,0.1718874,-0.057295800000000015,-3.48358464,8.634477059999998,-23.4053343
7.77,777,0.151,0.043,-0.987,1.3178034,0.11459160000000004,-0.2291832000000001,-3.4663959,8.634477059999998,-23.41106388
7.78,778,0.15,0.043,-0.9840000000000001,1.2032118,0.11459160000000004,-0.286479,-3.45493674,8.634477059999998,-23.41106388
7.79,779,0.15,0.045,-0.982,1.2032118,0.1718874,-0.286479,-3.44347758,8.640206639999999,-23.41679346
7.8,780,0.149,0.045,-0.978,1.2032118,0.11459160000000004,-0.40107059999999994,-3.45493674,8.61155874,-23.42252304
7.81,781,0.149,0.046,-0.978,1.3178034,0.057295800000000015,-0.4583664000000001,-3.44347758,8.61155874,-23.42825262
7.82,782,0.15,0.044000000000000004,-0.978,1.3178034,0.0,-0.4583664000000001,-3.43201842,8.61155874,-23.4339822
7.83,783,0.15,0.043,-0.9790000000000001,1.3178034,0.11459160000000004,-0.4583664000000001,-3.42055926,8.61155874,-23.4339822
7.84,784,0.15,0.042,-0.98,0.572958,-0.1718874,-0.286479,-3.4148296799999995,8.61155874,-23.439711780000003
7.85,785,0.14800000000000002,0.04,-0.98,0.2291832000000001,-0.1718874,-0.3437748,-3.4148296799999995,8.54853336,-23.44544136
7.86,786,0.149,0.038,-0.978,0.2291832000000001,-0.2291832000000001,-0.3437748,-3.4148296799999995,8.54853336,-23.44544136
7.87,787,0.149,0.037000000000000005,-0.978,0.0,0.0,-0.286479,-3.4148296799999995,8.54853336,-23.45117094
7.88,788,0.149,0.036000000000000004,-0.977,-0.057295800000000015,-0.057295800000000015,-0.286479,-3.4148296799999995,8.54853336,-23.45690052
7.89,789,0.15,0.034,-0.978,-0.1718874,-0.11459160000000004,-0.2291832000000001,-3.42055926,8.542803780000002,-23.45690052
7.9,790,0.151,0.035,-0.978,-0.1718874,-0.11459160000000004,-0.1718874,-3.39764094,8.49123756,-23.45690052
7.91,791,0.151,0.034,-0.9790000000000001,0.0,-0.057295800000000015,-0.057295800000000015,-3.39764094,8.49123756,-23.45690052
7.92,792,0.151,0.033,-0.978,0.057295800000000015,-0.057295800000000015,-0.057295800000000015,-3.39764094,8.49123756,-23.45690052
7.93,793,0.151,0.032,-0.9790000000000001,0.11459160000000004,-0.057295800000000015,0.0,-3.39764094,8.48550798,-23.45690052
7.94,794,0.151,0.033,-0.978,0.11459160000000004,-0.057295800000000015,0.0,-3.39764094,8.48550798,-23.45690052
7.95,795,0.151,0.032,-0.977,0.11459160000000004,-0.1718874,0.0,-3.3116972399999995,8.43394176,-23.44544136
7.96,796,0.15,0.032,-0.9790000000000001,0.057295800000000015,-0.2291832000000001,0.0,-3.3116972399999995,8.42821218,-23.44544136
7.97,797,0.15,0.036000000000000004,-0.981,0.057295800000000015,-0.1718874,0.0,-3.3059676599999994,8.42821218,-23.44544136
7.9799999999999995,798,0.149,0.037000000000000005,-0.983,0.11459160000000004,-0.2291832000000001,0.0,-3.3059676599999994,8.422482599999999,-23.44544136
7.99,799,0.149,0.037000000000000005,-0.9840000000000001,0.2291832000000001,-0.1718874,0.0,-3.3059676599999994,8.422482599999999,-23.44544136
8.0,800,0.15,0.037000000000000005,-0.986,0.4583664000000001,-0.1718874,0.057295800000000015,-3.3059676599999994,8.39956428,-23.44544136
8.01,801,0.149,0.037000000000000005,-0.987,0.6875496,-0.11459160000000004,0.057295800000000015,-3.2945085,8.39956428,-23.44544136
8.02,802,0.152,0.036000000000000004,-0.986,0.6875496,0.0,0.057295800000000015,-3.28877892,8.39956428,-23.44544136
8.03,803,0.152,0.037000000000000005,-0.9840000000000001,0.6875496,0.057295800000000015,0.0,-3.28304934,8.39956428,-23.44544136
8.04,804,0.152,0.037000000000000005,-0.9840000000000001,0.6302538000000001,0.3437748,0.0,-3.27731976,8.40529386,-23.44544136
8.05,805,0.152,0.037000000000000005,-0.98,0.4583664000000001,0.3437748,0.057295800000000015,-3.28877892,8.393834700000001,-23.44544136
8.06,806,0.151,0.037000000000000005,-0.9790000000000001,0.40107059999999994,0.3437748,0.0,-3.28304934,8.393834700000001,-23.44544136
8.07,807,0.15,0.036000000000000004,-0.977,0.3437748,0.2291832000000001,0.0,-3.27731976,8.39956428,-23.44544136
8.08,808,0.15,0.037000000000000005,-0.977,0.40107059999999994,0.11459160000000004,0.057295800000000015,-3.27159018,8.39956428,-23.44544136
8.09,809,0.151,0.036000000000000004,-0.976,0.40107059999999994,0.057295800000000015,0.11459160000000004,-3.2658606,8.39956428,-23.439711780000003
8.1,810,0.15,0.034,-0.976,0.40107059999999994,0.057295800000000015,0.11459160000000004,-3.25440144,8.382375540000002,-23.439711780000003
8.11,811,0.15,0.033,-0.978,0.4583664000000001,0.11459160000000004,0.0,-3.2486718599999995,8.382375540000002,-23.439711780000003
8.12,812,0.149,0.033,-0.978,0.3437748,0.057295800000000015,0.0,-3.24294228,8.382375540000002,-23.439711780000003
8.13,813,0.149,0.031,-0.98,0.286479,0.1718874,0.0,-3.24294228,8.38810512,-23.439711780000003
8.14,814,0.151,0.031,-0.981,0.2291832000000001,0.2291832000000001,0.0,-3.2372127,8.38810512,-23.439711780000003
8.15,815,0.152,0.031,-0.982,0.057295800000000015,0.057295800000000015,0.0,-3.2257535399999995,8.3651868,-23.439711780000003
8.16,816,0.155,0.03,-0.982,0.11459160000000004,0.057295800000000015,0.11459160000000004,-3.22002396,8.3651868,-23.4339822
8.17,817,0.156,0.028999999999999998,-0.982,0.0,-0.057295800000000015,0.11459160000000004,-3.22002396,8.3651868,-23.4339822
8.18,818,0.154,0.028999999999999998,-0.98,0.0,-0.057295800000000015,0.1718874,-3.22002396,8.3651868,-23.4339822
8.19,819,0.151,0.027999999999999997,-0.9790000000000001,-0.057295800000000015,-0.057295800000000015,0.1718874,-3.22002396,8.3651868,-23.42825262
8.2,820,0.15,0.026000000000000002,-0.975,-0.3437748,-0.057295800000000015,0.11459160000000004,-3.18564648,8.34799806,-23.42252304
8.209999999999999,821,0.149,0.027000000000000003,-0.976,-0.4583664000000001,0.057295800000000015,0.057295800000000015,-3.1913760600000005,8.34799806,-23.42252304
8.22,822,0.149,0.027999999999999997,-0.975,-0.40107059999999994,0.1718874,0.0,-3.19710564,8.34799806,-23.42252304
8.23,823,0.151,0.027000000000000003,-0.978,-0.286479,0.1718874,0.0,-3.19710564,8.353727639999999,-23.42252304
8.24,824,0.152,0.027000000000000003,-0.981,-0.11459160000000004,0.1718874,0.0,-3.20283522,8.353727639999999,-23.42252304
8.25,825,0.153,0.026000000000000002,-0.981,0.0,0.1718874,0.0,-3.1226211000000004,8.34226848,-23.41106388
8.26,826,0.154,0.027000000000000003,-0.981,-0.057295800000000015,0.2291832000000001,0.0,-3.1226211000000004,8.34799806,-23.41106388
8.27,827,0.153,0.027000000000000003,-0.982,0.0,0.286479,0.0,-3.1226211000000004,8.34799806,-23.41106388
8.28,828,0.152,0.027999999999999997,-0.985,0.057295800000000015,0.1718874,0.0,-3.1226211000000004,8.353727639999999,-23.41106388
8.29,829,0.152,0.026000000000000002,-0.9840000000000001,0.11459160000000004,0.0,0.0,-3.1226211000000004,8.353727639999999,-23.41106388
8.3,830,0.151,0.027999999999999997,-0.982,0.11459160000000004,0.057295800000000015,-0.057295800000000015,-3.0825140400000004,8.3365389,-23.41106388
8.31,831,0.151,0.027999999999999997,-0.981,0.0,0.057295800000000015,-0.057295800000000015,-3.08824362,8.3365389,-23.41106388
8.32,832,0.153,0.027000000000000003,-0.977,-0.057295800000000015,0.2291832000000001,0.0,-3.08824362,8.34226848,-23.41106388
8.33,833,0.153,0.025,-0.975,-0.11459160000000004,0.2291832000000001,0.0,-3.08824362,8.34226848,-23.41106388
8.34,834,0.153,0.024,-0.975,-0.11459160000000004,0.1718874,-0.057295800000000015,-3.08824362,8.34226848,-23.41106388
8.35,835,0.154,0.024,-0.976,-0.1718874,0.0,0.057295800000000015,-3.05959572,8.35945722,-23.4053343
8.36,836,0.155,0.025,-0.9790000000000001,-0.40107059999999994,-0.1718874,0.11459160000000004,-3.05959572,8.35945722,-23.4053343
8.37,837,0.154,0.027000000000000003,-0.982,-0.5156622000000001,-0.40107059999999994,0.1718874,-3.0653253000000005,8.353727639999999,-23.39960472
8.38,838,0.153,0.028999999999999998,-0.986,-0.5156622000000001,-0.5156622000000001,0.11459160000000004,-3.07105488,8.34799806,-23.39960472
8.39,839,0.151,0.028999999999999998,-0.987,-0.286479,-0.4583664000000001,0.11459160000000004,-3.07678446,8.34799806,-23.39960472
8.4,840,0.15,0.027999999999999997,-0.988,0.0,-0.572958,0.0,-3.05386614,8.319350159999999,-23.39387514
8.41,841,0.15,0.027000000000000003,-0.986,0.1718874,-0.6302538000000001,-0.11459160000000004,-3.04813656,8.31362058,-23.39387514
8.42,842,0.15,0.026000000000000002,-0.981,0.11459160000000004,-0.6302538000000001,-0.1718874,-3.04813656,8.307891,-23.39960472
8.43,843,0.151,0.026000000000000002,-0.9790000000000001,-0.057295800000000015,-0.4583664000000001,-0.1718874,-3.04813656,8.302161420000001,-23.39960472
8.44,844,0.152,0.026000000000000002,-0.976,-0.286479,-0.40107059999999994,-0.286479,-3.05386614,8.29643184,-23.4053343
8.45,845,0.152,0.027000000000000003,-0.975,-0.2291832000000001,-0.286479,-0.2291832000000001,-3.03094782,8.29643184,-23.4053343
8.459999999999999,846,0.152,0.026000000000000002,-0.976,0.0,-0.11459160000000004,-0.1718874,-3.03094782,8.29643184,-23.4053343
8.47,847,0.153,0.024,-0.977,0.0,-0.057295800000000015,-0.057295800000000015,-3.03094782,8.29643184,-23.4053343
8.48,848,0.153,0.022000000000000002,-0.977,0.0,0.057295800000000015,-0.11459160000000004,-3.03094782,8.29643184,-23.4053343
8.49,849,0.153,0.02,-0.9790000000000001,-0.11459160000000004,0.2291832000000001,-0.057295800000000015,-3.03094782,8.29643184,-23.4053343
8.5,850,0.152,0.021,-0.9790000000000001,-0.1718874,0.1718874,0.0,-2.98511118,8.302161420000001,-23.39960472
8.51,851,0.152,0.02,-0.9790000000000001,-0.3437748,0.2291832000000001,0.0,-2.99084076,8.302161420000001,-23.39960472
8.52,852,0.151,0.021,-0.978,-0.572958,0.11459160000000004,0.0,-2.9965703400000003,8.302161420000001,-23.39960472
8.53,853,0.152,0.019,-0.977,-0.572958,0.0,0.0,-3.00229992,8.302161420000001,-23.39960472
8.54,854,0.154,0.02,-0.977,-0.7448454000000001,0.0,0.057295800000000015,-3.0080294999999997,8.302161420000001,-23.39960472
8.55,855,0.153,0.019,-0.977,-0.7448454000000001,0.057295800000000015,0.057295800000000015,-2.98511118,8.307891,-23.39387514
8.56,856,0.153,0.019,-0.978,-0.6302538000000001,0.057295800000000015,0.0,-2.99084076,8.307891,-23.39387514
8.57,857,0.153,0.018000000000000002,-0.976,-0.7448454000000001,0.0,0.057295800000000015,-2.9965703400000003,8.307891,-23.39387514
8.58,858,0.151,0.017,-0.9740000000000001,-0.8021411999999999,0.0,0.0,-3.0080294999999997,8.307891,-23.39387514
8.59,859,0.151,0.016,-0.973,-0.9740286,-0.11459160000000004,0.0,-3.0137590800000003,8.307891,-23.39387514
8.6,860,0.15,0.017,-0.973,-1.2032118,0.0,0.0,-3.00229992,8.307891,-23.38814556
8.61,861,0.151,0.018000000000000002,-0.973,-1.432395,0.11459160000000004,0.0,-3.01948866,8.307891,-23.38814556
8.62,862,0.153,0.02,-0.972,-1.6615782,0.1718874,0.0,-3.0366774000000003,8.307891,-23.38814556
8.63,863,0.154,0.02,-0.973,-1.8334656000000005,0.2291832000000001,0.057295800000000015,-3.05386614,8.31362058,-23.38814556
8.64,864,0.154,0.022000000000000002,-0.972,-1.8334656000000005,0.3437748,0.1718874,-3.07105488,8.319350159999999,-23.38814556
8.65,865,0.155,0.023,-0.972,-1.8334656000000005,0.4583664000000001,0.2291832000000001,-3.0825140400000004,8.325079740000001,-23.38241598
8.66,866,0.154,0.022000000000000002,-0.971,-1.9480572,0.572958,0.2291832000000001,-3.0997027800000003,8.33080932,-23.38241598
8.67,867,0.154,0.023,-0.973,-2.0053530000000004,0.5156622000000001,0.2291832000000001,-3.1226211000000004,8.3365389,-23.376686399999997
8.68,868,0.152,0.024,-0.972,-2.0626488000000003,0.4583664000000001,0.2291832000000001,-3.14553942,8.34226848,-23.376686399999997
8.69,869,0.151,0.023,-0.972,-2.1199446,0.2291832000000001,0.1718874,-3.1627281600000003,8.34226848,-23.37095682
8.7,870,0.151,0.023,-0.971,-2.2345362,0.057295800000000015,0.11459160000000004,-3.1741873200000006,8.34226848,-23.37095682
8.71,871,0.151,0.021,-0.973,-2.291832,0.0,0.1718874,-3.19710564,8.34226848,-23.36522724000001
8.72,872,0.151,0.022000000000000002,-0.973,-2.3491277999999998,-0.2291832000000001,0.2291832000000001,-3.22002396,8.34226848,-23.36522724000001
8.73,873,0.152,0.022000000000000002,-0.976,-2.3491277999999998,-0.286479,0.2291832000000001,-3.2486718599999995,8.3365389,-23.35949766
8.74,874,0.152,0.021,-0.977,-2.5210152000000003,-0.2291832000000001,0.1718874,-3.27159018,8.3365389,-23.35949766
8.75,875,0.151,0.021,-0.9790000000000001,-2.4637194,-0.286479,0.1718874,-3.28304934,8.33080932,-23.35376808
8.76,876,0.155,0.02,-0.98,-2.5783110000000002,-0.1718874,0.057295800000000015,-3.3116972399999995,8.33080932,-23.35376808
8.77,877,0.157,0.021,-0.983,-2.6356068,-0.1718874,0.11459160000000004,-3.33461556,8.325079740000001,-23.35376808
8.78,878,0.161,0.022000000000000002,-0.983,-2.6929026,-0.2291832000000001,0.11459160000000004,-3.36326346,8.325079740000001,-23.3480385
8.79,879,0.163,0.023,-0.983,-2.6356068,-0.3437748,0.2291832000000001,-3.3919113599999995,8.319350159999999,-23.3480385
8.8,880,0.162,0.023,-0.981,-2.6929026,-0.40107059999999994,0.3437748,-3.40337052,8.325079740000001,-23.34230892
8.81,881,0.16,0.023,-0.978,-2.8074942000000003,-0.572958,0.40107059999999994,-3.43201842,8.319350159999999,-23.336579340000004
8.82,882,0.155,0.025,-0.976,-2.8074942000000003,-0.5156622000000001,0.40107059999999994,-3.46066632,8.31362058,-23.33084976
8.83,883,0.152,0.025,-0.976,-2.9793816000000004,-0.286479,0.2291832000000001,-3.4950437999999995,8.307891,-23.33084976
8.84,884,0.152,0.026000000000000002,-0.977,-2.9793816000000004,-0.1718874,0.057295800000000015,-3.5236917,8.307891,-23.33084976
8.85,885,0.152,0.026000000000000002,-0.9790000000000001,-2.9220858,-0.11459160000000004,0.0,-3.54088044,8.302161420000001,-23.32512018
8.86,886,0.155,0.026000000000000002,-0.98,-2.9793816000000004,-0.11459160000000004,0.0,-3.56952834,8.302161420000001,-23.32512018
8.87,887,0.156,0.027000000000000003,-0.98,-2.9220858,-0.40107059999999994,0.11459160000000004,-3.59817624,8.29643184,-23.32512018
8.88,888,0.156,0.026000000000000002,-0.98,-3.0366774,-0.3437748,0.11459160000000004,-3.63255372,8.29643184,-23.32512018
8.89,889,0.155,0.027000000000000003,-0.98,-3.0366774,-0.2291832000000001,0.11459160000000004,-3.66120162,8.29070226,-23.3193906
8.9,890,0.154,0.027999999999999997,-0.981,-2.9220858,-0.1718874,0.057295800000000015,-3.67839036,8.29070226,-23.3193906
8.91,891,0.153,0.027999999999999997,-0.9840000000000001,-2.6356068,-0.2291832000000001,0.057295800000000015,-3.70703826,8.29070226,-23.3193906
8.92,892,0.151,0.03,-0.983,-2.5210152000000003,-0.40107059999999994,0.0,-3.7299565800000014,8.28497268,-23.3193906
8.93,893,0.15,0.03,-0.983,-2.5210152000000003,-0.3437748,0.0,-3.75860448,8.2792431,-23.3193906
8.94,894,0.15,0.03,-0.978,-2.6929026,-0.3437748,0.0,-3.7815228,8.27351352,-23.31366102
8.95,895,0.151,0.027000000000000003,-0.9740000000000001,-2.9220858,-0.286479,0.0,-3.79871154,8.27351352,-23.31366102
8.96,896,0.151,0.024,-0.973,-3.0939732,-0.286479,0.057295800000000015,-3.82735944,8.26778394,-23.31366102
8.97,897,0.154,0.022000000000000002,-0.97,-3.2085647999999996,-0.286479,0.057295800000000015,-3.86173692,8.26778394,-23.31366102
8.98,898,0.155,0.023,-0.971,-3.4377480000000005,-0.286479,0.1718874,-3.896114400000001,8.262054359999999,-23.30793144
8.99,899,0.157,0.026000000000000002,-0.976,-3.8388186,-0.2291832000000001,0.3437748,-3.93622146,8.25632478,-23.30220186
9.0,900,0.155,0.03,-0.98,-3.8388186,-0.3437748,0.40107059999999994,-3.9648693599999993,8.25632478,-23.29647228
9.01,901,0.153,0.033,-0.9840000000000001,-3.6096353999999997,-0.3437748,0.3437748,-3.99924684,8.250595200000001,-23.29647228
9.02,902,0.151,0.034,-0.985,-3.2085647999999996,-0.6875496,0.286479,-4.03362432,8.24486562,-23.29074270000001
9.03,903,0.15,0.034,-0.986,0.0,-0.40107059999999994,0.0,-4.03362432,8.23913604,-23.29074270000001
9.04,904,0.149,0.033,-0.985,0.11459160000000004,-0.286479,-0.057295800000000015,-4.03362432,8.23913604,-23.29074270000001
9.05,905,0.149,0.033,-0.983,0.11459160000000004,-0.1718874,-0.1718874,-3.94195104,8.2219473,-23.27928354
9.06,906,0.15,0.034,-0.98,0.0,-0.11459160000000004,-0.286479,-3.94768062,8.21621772,-23.28501312
9.07,907,0.152,0.036000000000000004,-0.978,-0.057295800000000015,-0.11459160000000004,-0.286479,-3.94768062,8.21621772,-23.28501312
9.08,908,0.154,0.034,-0.976,-0.057295800000000015,-0.11459160000000004,-0.2291832000000001,-3.94768062,8.21621772,-23.29074270000001
9.09,909,0.155,0.034,-0.977,0.0,-0.11459160000000004,-0.11459160000000004,-3.94768062,8.21621772,-23.29074270000001
9.1,910,0.155,0.034,-0.981,0.057295800000000015,-0.1718874,-0.057295800000000015,-3.86173692,8.24486562,-23.27928354
9.11,911,0.156,0.035,-0.982,0.2291832000000001,0.0,-0.11459160000000004,-3.86173692,8.24486562,-23.28501312
9.12,912,0.156,0.035,-0.983,0.286479,0.0,-0.11459160000000004,-3.86173692,8.24486562,-23.28501312
9.13,913,0.156,0.034,-0.982,0.3437748,0.057295800000000015,-0.057295800000000015,-3.85600734,8.250595200000001,-23.28501312
9.14,914,0.156,0.035,-0.981,0.4583664000000001,0.057295800000000015,-0.057295800000000015,-3.85027776,8.250595200000001,-23.28501312
9.15,915,0.154,0.033,-0.98,0.2291832000000001,-0.057295800000000015,-0.057295800000000015,-3.78725238,8.262054359999999,-23.27928354
9.16,916,0.154,0.034,-0.981,0.3437748,-0.1718874,0.0,-3.7815228,8.262054359999999,-23.27928354
9.17,917,0.153,0.033,-0.98,0.286479,-0.1718874,0.0,-3.77579322,8.262054359999999,-23.27928354
9.18,918,0.153,0.033,-0.981,0.286479,-0.11459160000000004,0.0,-3.77579322,8.25632478,-23.27928354
9.19,919,0.153,0.035,-0.981,0.286479,0.0,0.0,-3.77006364,8.25632478,-23.27928354
9.2,920,0.153,0.035,-0.98,0.286479,0.057295800000000015,0.0,-3.73568616,8.26778394,-23.27355396
9.21,921,0.154,0.035,-0.978,0.286479,0.0,0.0,-3.73568616,8.26778394,-23.27355396
9.22,922,0.153,0.035,-0.976,0.3437748,-0.057295800000000015,0.0,-3.7299565800000014,8.26778394,-23.27355396
9.23,923,0.153,0.036000000000000004,-0.976,0.2291832000000001,-0.2291832000000001,0.0,-3.7242269999999995,8.262054359999999,-23.27355396
9.24,924,0.153,0.036000000000000004,-0.975,0.057295800000000015,-0.1718874,0.0,-3.7242269999999995,8.262054359999999,-23.27355396
9.25,925,0.153,0.036000000000000004,-0.976,-0.057295800000000015,-0.057295800000000015,0.0,-3.67839036,8.26778394,-23.26782438
9.26,926,0.153,0.038,-0.978,-0.057295800000000015,-0.057295800000000015,0.0,-3.67839036,8.26778394,-23.26782438
9.27,927,0.152,0.037000000000000005,-0.978,-0.057295800000000015,-0.057295800000000015,0.0,-3.67839036,8.26778394,-23.26782438
9.28,928,0.153,0.039,-0.9790000000000001,0.0,0.0,0.057295800000000015,-3.67839036,8.26778394,-23.26782438
9.29,929,0.153,0.04,-0.981,0.0,0.057295800000000015,0.0,-3.67839036,8.26778394,-23.26782438
9.3,930,0.151,0.038,-0.9790000000000001,-0.057295800000000015,0.2291832000000001,0.0,-3.66120162,8.26778394,-23.26782438
9.31,931,0.151,0.038,-0.9790000000000001,0.0,0.3437748,0.057295800000000015,-3.66120162,8.27351352,-23.26782438
9.32,932,0.152,0.038,-0.978,-0.057295800000000015,0.40107059999999994,0.057295800000000015,-3.66120162,8.27351352,-23.2620948
9.33,933,0.151,0.038,-0.977,-0.11459160000000004,0.4583664000000001,0.0,-3.666931200000001,8.2792431,-23.2620948
9.34,934,0.151,0.038,-0.976,-0.286479,0.3437748,0.0,-3.666931200000001,8.28497268,-23.2620948
9.35,935,0.151,0.039,-0.975,-0.286479,0.2291832000000001,0.0,-3.666931200000001,8.27351352,-23.2620948
9.36,936,0.15,0.04,-0.976,-0.286479,0.11459160000000004,0.0,-3.666931200000001,8.27351352,-23.2620948
9.37,937,0.149,0.040999999999999995,-0.978,-0.1718874,0.0,0.0,-3.666931200000001,8.27351352,-23.2620948
9.38,938,0.149,0.040999999999999995,-0.978,-0.1718874,-0.057295800000000015,-0.057295800000000015,-3.67266078,8.27351352,-23.26782438
9.39,939,0.15,0.040999999999999995,-0.978,-0.057295800000000015,-0.057295800000000015,0.0,-3.67266078,8.27351352,-23.26782438
9.4,940,0.151,0.039,-0.98,-0.1718874,0.0,0.0,-3.65547204,8.26778394,-23.2620948
9.41,941,0.151,0.039,-0.981,-0.11459160000000004,0.0,0.0,-3.65547204,8.26778394,-23.2620948
9.42,942,0.152,0.04,-0.98,-0.286479,0.1718874,0.0,-3.65547204,8.26778394,-23.2620948
9.43,943,0.152,0.040999999999999995,-0.981,-0.40107059999999994,0.11459160000000004,0.0,-3.66120162,8.26778394,-23.2620948
9.44,944,0.15,0.040999999999999995,-0.98,-0.286479,0.11459160000000004,0.0,-3.666931200000001,8.27351352,-23.2620948
9.45,945,0.151,0.042,-0.9790000000000001,-0.40107059999999994,0.2291832000000001,0.0,-3.67266078,8.27351352,-23.2620948
9.46,946,0.151,0.043,-0.9790000000000001,-0.2291832000000001,0.2291832000000001,0.0,-3.67266078,8.2792431,-23.2620948
9.47,947,0.152,0.043,-0.978,-0.1718874,0.3437748,-0.057295800000000015,-3.67839036,8.2792431,-23.26782438
9.48,948,0.153,0.045,-0.978,-0.2291832000000001,0.3437748,0.0,-3.67839036,8.28497268,-23.26782438
9.49,949,0.154,0.046,-0.978,-0.11459160000000004,0.2291832000000001,0.0,-3.67839036,8.29070226,-23.26782438
9.5,950,0.153,0.046,-0.978,-0.1718874,0.11459160000000004,0.057295800000000015,-3.70130868,8.29070226,-23.26782438
9.51,951,0.153,0.047,-0.977,-0.2291832000000001,0.0,0.11459160000000004,-3.70703826,8.29070226,-23.26782438
9.52,952,0.152,0.048,-0.9790000000000001,-0.11459160000000004,-0.286479,0.0,-3.70703826,8.29070226,-23.26782438
9.53,953,0.152,0.047,-0.98,0.0,-0.4583664000000001,0.0,-3.70703826,8.28497268,-23.26782438
9.54,954,0.151,0.047,-0.981,0.2291832000000001,-0.572958,0.0,-3.70703826,8.2792431,-23.26782438
9.55,955,0.151,0.047,-0.982,0.3437748,-0.572958,-0.057295800000000015,-3.70703826,8.27351352,-23.26782438
9.56,956,0.152,0.045,-0.983,0.5156622000000001,-0.572958,-0.057295800000000015,-3.70130868,8.26778394,-23.26782438
9.57,957,0.152,0.044000000000000004,-0.983,0.5156622000000001,-0.572958,-0.11459160000000004,-3.6955791,8.25632478,-23.26782438
9.58,958,0.151,0.043,-0.9840000000000001,0.5156622000000001,-0.4583664000000001,-0.1718874,-3.68984952,8.25632478,-23.26782438
9.59,959,0.152,0.043,-0.982,0.4583664000000001,-0.3437748,-0.1718874,-3.68411994,8.250595200000001,-23.27355396
9.6,960,0.151,0.044000000000000004,-0.982,0.5156622000000001,-0.2291832000000001,-0.11459160000000004,-3.68984952,8.250595200000001,-23.27355396
9.61,961,0.152,0.046,-0.982,0.40107059999999994,0.0,-0.1718874,-3.68411994,8.250595200000001,-23.27928354
9.62,962,0.152,0.049,-0.983,0.4583664000000001,0.1718874,-0.2291832000000001,-3.67839036,8.250595200000001,-23.27928354
9.63,963,0.151,0.049,-0.981,0.4583664000000001,0.4583664000000001,-0.11459160000000004,-3.67266078,8.25632478,-23.27928354
9.64,964,0.151,0.049,-0.976,0.286479,0.4583664000000001,-0.057295800000000015,-3.67266078,8.262054359999999,-23.28501312
9.65,965,0.15,0.048,-0.9740000000000001,0.057295800000000015,0.3437748,0.0,-3.70130868,8.25632478,-23.28501312
