TimeStamp(s),FrameCounter,AccX,AccY,AccZ,GyrX,GyrY,GyrZ,EulerX,EulerY,EulerZ
0.01,1,0.036000000000000004,-1.01,-0.047,-0.6875496,-0.8021411999999999,1.3178034,96.46320888,1.0026765,-11.21278806
0.019999999999999997,2,0.037000000000000005,-1.008,-0.046,-0.572958,-0.6875496,1.2032118,96.45747929999999,0.9912173399999998,-11.22424722
0.03,3,0.038,-1.005,-0.047,-0.6875496,-0.7448454000000001,1.145916,96.45174972,0.97975818,-11.229976800000001
0.039999999999999994,4,0.037000000000000005,-1.005,-0.048,-0.6875496,-0.6875496,1.145916,96.44602014,0.96829902,-11.24143596
0.049999999999999996,5,0.037000000000000005,-1.006,-0.049,-0.6875496,-0.7448454000000001,1.0886202,96.15381156,0.9969469199999998,-11.258624699999999
0.05999999999999999,6,0.038,-1.0070000000000001,-0.048,-0.8021411999999999,-1.0886202,1.145916,96.14808198,0.98548776,-11.27008386
0.06999999999999999,7,0.039,-1.0070000000000001,-0.05,-0.8021411999999999,-1.2605076000000002,1.0886202,96.1423524,0.97975818,-11.28154302
0.07999999999999999,8,0.037000000000000005,-1.003,-0.051,-0.7448454000000001,-1.3750992,1.0313244000000001,96.13089324,0.96829902,-11.29873176
0.08999999999999998,9,0.032,-1.001,-0.048,-0.6875496,-1.0886202,0.9740286,96.12516366,0.96256944,-11.31019092
0.09999999999999998,10,0.03,-0.997,-0.048,-0.572958,-0.9740286,1.0886202,95.83295508,0.97975818,-11.33310924
0.10999999999999997,11,0.031,-0.9990000000000001,-0.047,-0.286479,-0.8021411999999999,1.2605076000000002,95.83295508,0.96829902,-11.33883882
0.11999999999999998,12,0.032,-1.0,-0.045,0.0,-1.0313244000000001,1.432395,95.83295508,0.95683986,-11.35029798
0.12999999999999998,13,0.035,-1.002,-0.046,0.11459160000000004,-1.2605076000000002,1.6042823999999998,95.83295508,0.9453807,-11.36748672
0.13999999999999999,14,0.037000000000000005,-1.006,-0.05,0.3437748,-1.432395,1.6042823999999998,95.83868466,0.92819196,-11.37894588
0.15,15,0.036000000000000004,-1.01,-0.048,0.2291832000000001,-1.2605076000000002,1.5469866,95.57512398,0.95111028,-11.401864199999999
0.15999999999999998,16,0.034,-1.01,-0.044000000000000004,-0.286479,-1.0886202,1.432395,95.57512398,0.93965112,-11.41332336
0.16999999999999998,17,0.031,-1.006,-0.053,-0.572958,-0.6875496,1.3750992,95.56366482,0.92819196,-11.42478252
0.18,18,0.028999999999999998,-1.003,-0.055999999999999994,-0.057295800000000015,-0.6875496,1.3178034,95.56366482,0.91100322,-11.4305121
0.18999999999999997,19,0.027999999999999997,-1.002,-0.057,0.4583664000000001,-1.0313244000000001,1.145916,95.56939440000001,0.90527364,-11.44197126
0.19999999999999998,20,0.028999999999999998,-1.005,-0.051,0.6302538000000001,-1.0886202,1.0313244000000001,95.29437456,0.92819196,-11.46488958
0.20999999999999996,21,0.032,-1.0070000000000001,-0.048,0.2291832000000001,-1.0313244000000001,0.9167328000000001,95.30010414,0.9167328,-11.47634874
0.21999999999999997,22,0.037000000000000005,-1.006,-0.045,0.0,-1.0313244000000001,1.0886202,95.30010414,0.91100322,-11.4878079
0.22999999999999998,23,0.038,-1.005,-0.046,-0.057295800000000015,-1.2032118,1.0886202,95.29437456,0.89954406,-11.49926706
0.23999999999999996,24,0.038,-1.008,-0.048,-0.1718874,-1.0886202,1.0313244000000001,95.29437456,0.89381448,-11.51072622
0.24999999999999997,25,0.034,-1.0090000000000001,-0.053,-0.286479,-0.8021411999999999,0.9740286,94.99070682,0.92246238,-11.52791496
0.25999999999999995,26,0.032,-1.004,-0.055999999999999994,-0.286479,-0.8021411999999999,1.0886202,94.99070682,0.91100322,-11.53937412
0.26999999999999996,27,0.03,-1.001,-0.057,0.057295800000000015,-0.8594370000000001,1.0886202,94.99070682,0.90527364,-11.545103700000002
0.27999999999999997,28,0.03,-1.0,-0.053,0.11459160000000004,-0.9167328000000001,1.0313244000000001,94.99070682,0.89381448,-11.55656286
0.29,29,0.033,-1.0,-0.054000000000000006,0.11459160000000004,-0.8021411999999999,1.0313244000000001,94.99070682,0.8823553199999999,-11.56802202
0.3,30,0.033,-1.001,-0.051,0.0,-1.0313244000000001,1.0313244000000001,94.68130949999998,0.92246238,-11.58521076
0.30999999999999994,31,0.035,-1.001,-0.05,0.0,-1.2032118,1.0313244000000001,94.68130949999998,0.91100322,-11.602399499999999
0.31999999999999995,32,0.034,-1.001,-0.052000000000000005,-0.057295800000000015,-1.3178034,0.9740286,94.68130949999998,0.89954406,-11.613858660000002
0.32999999999999996,33,0.034,-1.001,-0.054000000000000006,0.0,-1.145916,0.9167328000000001,94.68130949999998,0.89381448,-11.62531782
0.33999999999999997,34,0.034,-1.002,-0.057999999999999996,0.11459160000000004,-1.145916,0.8594370000000001,94.68130949999998,0.8880849000000001,-11.63677698
0.35,35,0.031,-1.0,-0.057999999999999996,0.3437748,-1.2032118,0.8021411999999999,94.40056008,0.9167328,-11.6596953
0.35999999999999993,36,0.031,-1.001,-0.054000000000000006,0.5156622000000001,-1.2032118,0.8021411999999999,94.40628966,0.91100322,-11.67115446
0.36999999999999994,37,0.033,-1.001,-0.05,0.5156622000000001,-1.2032118,0.8021411999999999,94.41201924,0.89954406,-11.68261362
0.37999999999999995,38,0.034,-1.001,-0.05,0.40107059999999994,-1.2605076000000002,0.8021411999999999,94.41774882,0.89381448,-11.699802359999998
0.38999999999999996,39,0.036000000000000004,-1.001,-0.054000000000000006,0.5156622000000001,-1.432395,0.9740286,94.42347840000001,0.8880849000000001,-11.71126152
0.39999999999999997,40,0.037000000000000005,-1.002,-0.055,0.572958,-0.7448454000000001,0.1718874,94.06251486,0.95111028,-11.72845026
0.4099999999999999,41,0.036000000000000004,-1.005,-0.055999999999999994,0.6302538000000001,-0.572958,-0.057295800000000015,94.06824444,0.95111028,-11.73417984
0.41999999999999993,42,0.033,-1.004,-0.054000000000000006,0.8021411999999999,-0.9167328000000001,0.0,94.0797036,0.95111028,-11.745639
0.42999999999999994,43,0.03,-1.002,-0.053,1.2032118,-0.8594370000000001,0.0,94.09116276,0.95111028,-11.75136858
0.43999999999999995,44,0.03,-1.005,-0.053,1.0886202,-0.6302538000000001,-0.11459160000000004,94.10262192,0.95683986,-11.75709816
0.44999999999999996,45,0.03,-1.003,-0.055,1.145916,-0.4583664000000001,-0.1718874,93.83333166,0.9912173399999998,-11.76855732
0.45999999999999996,46,0.028999999999999998,-1.004,-0.054000000000000006,1.3178034,-0.5156622000000001,-0.2291832000000001,93.85052040000001,0.9969469199999998,-11.774286900000002
0.4699999999999999,47,0.028999999999999998,-1.006,-0.051,1.3750992,-0.3437748,-0.286479,93.86197956,1.0026765,-11.78001648
0.4799999999999999,48,0.028999999999999998,-1.005,-0.051,1.145916,-0.057295800000000015,-0.4583664000000001,93.87343872,1.0026765,-11.78001648
0.48999999999999994,49,0.03,-1.003,-0.051,1.145916,0.2291832000000001,-0.6302538000000001,93.89062746,1.01413566,-11.774286900000002
0.49999999999999994,50,0.03,-1.002,-0.05,1.3178034,0.0,-0.6302538000000001,93.60987804,1.05424272,-11.78574606
0.5099999999999999,51,0.03,-1.003,-0.051,1.0886202,0.0,-0.7448454000000001,93.6213372,1.0599723,-11.78574606
0.5199999999999999,52,0.03,-1.006,-0.048,1.0886202,0.057295800000000015,-0.8594370000000001,93.63279636,1.07143146,-11.78001648
0.5299999999999999,53,0.028999999999999998,-1.006,-0.047,0.9167328000000001,-0.1718874,-0.9740286,93.64425552,1.07716104,-11.78574606
0.5399999999999999,54,0.027999999999999997,-1.006,-0.05,1.0886202,-0.4583664000000001,-1.0313244000000001,93.65571468,1.0886202,-11.78574606
0.5499999999999999,55,0.026000000000000002,-1.0090000000000001,-0.047,1.2605076000000002,-0.8021411999999999,-0.9740286,93.50101602,1.11153852,-11.802934800000001
0.5599999999999999,56,0.027000000000000003,-1.008,-0.044000000000000004,1.145916,-0.8594370000000001,-1.145916,93.51247518,1.12872726,-11.80866438
0.57,57,0.031,-1.0070000000000001,-0.043,1.145916,-0.286479,-1.145916,93.52393434,1.14018642,-11.80866438
0.58,58,0.034,-1.006,-0.045,1.2605076000000002,0.1718874,-1.145916,93.54112308,1.15164558,-11.80866438
0.59,59,0.033,-1.005,-0.046,1.3178034,0.1718874,-1.0313244000000001,93.55258224,1.16310474,-11.802934800000001
0.5999999999999999,60,0.032,-1.003,-0.047,1.4896908000000002,0.1718874,-0.8594370000000001,93.35204694,1.19175264,-11.80866438
0.6099999999999999,61,0.028999999999999998,-1.001,-0.047,1.4896908000000002,0.286479,-0.6302538000000001,93.36923568,1.2032117999999998,-11.802934800000001
0.6199999999999999,62,0.026000000000000002,-0.998,-0.047,1.3750992,0.286479,-0.5156622000000001,93.38642442,1.2032117999999998,-11.802934800000001
0.6299999999999999,63,0.027000000000000003,-0.9990000000000001,-0.046,1.6042823999999998,0.40107059999999994,-0.4583664000000001,93.39788358,1.20894138,-11.79720522
0.6399999999999999,64,0.027999999999999997,-0.9990000000000001,-0.049,1.7761698000000001,0.5156622000000001,-0.40107059999999994,93.42080190000001,1.21467096,-11.791475639999998
0.6499999999999999,65,0.031,-1.001,-0.05,1.9480572,0.4583664000000001,-0.4583664000000001,93.26037366,1.23758928,-11.791475639999998
0.6599999999999999,66,0.032,-1.003,-0.049,2.1772404,0.286479,-0.4583664000000001,93.28329198,1.24331886,-11.78574606
0.6699999999999999,67,0.032,-1.003,-0.047,2.2345362,0.2291832000000001,-0.5156622000000001,93.3062103,1.24904844,-11.78574606
0.6799999999999999,68,0.03,-1.002,-0.049,2.2345362,0.5156622000000001,-0.6302538000000001,93.32912862,1.25477802,-11.78001648
0.69,69,0.03,-1.002,-0.049,2.2345362,0.8021411999999999,-0.6302538000000001,93.35204694,1.2605076000000002,-11.76855732
0.7,70,0.032,-1.003,-0.044000000000000004,2.291832,0.7448454000000001,-0.572958,93.23745534,1.28342592,-11.76282774
0.7099999999999999,71,0.034,-1.004,-0.043,2.3491277999999998,0.8021411999999999,-0.5156622000000001,93.26037366,1.2891555,-11.75709816
0.7199999999999999,72,0.036000000000000004,-1.006,-0.046,2.2345362,0.9167328000000001,-0.4583664000000001,93.28329198,1.29488508,-11.745639
0.7299999999999999,73,0.038,-1.0070000000000001,-0.047,2.0053530000000004,0.9167328000000001,-0.40107059999999994,93.3062103,1.30061466,-11.73990942
0.7399999999999999,74,0.039,-1.004,-0.047,1.9480572,0.9740286,-0.3437748,93.32912862,1.30061466,-11.72845026
0.7499999999999999,75,0.039,-1.005,-0.047,1.8334656000000005,0.7448454000000001,-0.286479,93.15724122,1.3349921400000002,-11.722720679999998
0.7599999999999999,76,0.036000000000000004,-1.005,-0.046,1.9480572,0.11459160000000004,-0.286479,93.18015954,1.34072172,-11.722720679999998
0.7699999999999999,77,0.033,-1.006,-0.040999999999999995,2.0626488000000003,-0.286479,-0.2291832000000001,93.20307786,1.34072172,-11.722720679999998
0.7799999999999999,78,0.034,-1.008,-0.040999999999999995,1.6042823999999998,0.0,-0.3437748,93.2202666,1.3464512999999998,-11.722720679999998
0.7899999999999999,79,0.035,-1.008,-0.04,1.432395,0.286479,-0.5156622000000001,93.23172576,1.35218088,-11.722720679999998
0.7999999999999999,80,0.038,-1.0070000000000001,-0.042,1.4896908000000002,0.3437748,-0.5156622000000001,93.05410878,1.39228794,-11.722720679999998
0.8099999999999998,81,0.04,-1.006,-0.040999999999999995,1.3178034,0.3437748,-0.3437748,93.06556794,1.39228794,-11.7169911
0.8199999999999998,82,0.037000000000000005,-1.006,-0.039,1.2032118,0.11459160000000004,-0.3437748,93.0770271,1.39801752,-11.7169911
0.8299999999999998,83,0.037000000000000005,-1.004,-0.042,1.145916,0.2291832000000001,-0.2291832000000001,93.09421584,1.39801752,-11.71126152
0.8399999999999999,84,0.037000000000000005,-1.006,-0.043,1.2032118,0.2291832000000001,-0.11459160000000004,93.105675,1.4037471000000001,-11.71126152
0.8499999999999999,85,0.037000000000000005,-1.004,-0.04,1.2032118,0.11459160000000004,-0.11459160000000004,92.83065516000002,1.44958374,-11.7169911
0.8599999999999999,86,0.038,-1.004,-0.038,1.2032118,0.057295800000000015,-0.1718874,92.84211432,1.44958374,-11.7169911
0.8699999999999999,87,0.037000000000000005,-1.003,-0.037000000000000005,1.145916,0.057295800000000015,-0.1718874,92.85357348,1.44958374,-11.7169911
0.8799999999999999,88,0.037000000000000005,-1.002,-0.037000000000000005,1.145916,0.057295800000000015,-0.2291832000000001,92.87076222,1.45531332,-11.7169911
0.8899999999999999,89,0.037000000000000005,-0.9990000000000001,-0.036000000000000004,1.3178034,0.0,-0.11459160000000004,92.88222138,1.45531332,-11.7169911
0.8999999999999999,90,0.037000000000000005,-1.0,-0.036000000000000004,1.4896908000000002,0.0,-0.057295800000000015,92.64730859999999,1.49542038,-11.722720679999998
0.9099999999999999,91,0.039,-1.0,-0.037000000000000005,1.7188740000000002,0.0,-0.057295800000000015,92.66449734,1.49542038,-11.722720679999998
0.9199999999999998,92,0.038,-1.003,-0.036000000000000004,1.7188740000000002,-0.1718874,-0.057295800000000015,92.68168608,1.50114996,-11.722720679999998
0.9299999999999998,93,0.036000000000000004,-1.003,-0.036000000000000004,1.6615782,-0.5156622000000001,0.0,92.69887482,1.50114996,-11.72845026
0.9399999999999998,94,0.034,-1.005,-0.037000000000000005,1.8334656000000005,-0.6875496,-0.057295800000000015,92.71606355999998,1.50114996,-11.73990942
0.9499999999999998,95,0.033,-1.005,-0.039,1.9480572,-0.9167328000000001,-0.11459160000000004,92.59574238000002,1.5183387000000002,-11.75136858
0.9599999999999999,96,0.032,-1.0070000000000001,-0.038,1.8334656000000005,-0.9167328000000001,-0.286479,92.61293112,1.52406828,-11.75709816
0.9699999999999999,97,0.03,-1.0070000000000001,-0.035,1.7761698000000001,-0.8021411999999999,-0.40107059999999994,92.63011986,1.52406828,-11.76855732
0.9799999999999999,98,0.027999999999999997,-1.0070000000000001,-0.033,1.6042823999999998,-0.6302538000000001,-0.286479,92.64730859999999,1.52979786,-11.774286900000002
0.9899999999999999,99,0.026000000000000002,-1.006,-0.035,1.4896908000000002,-0.286479,-0.2291832000000001,92.66449734,1.53552744,-11.774286900000002
0.9999999999999999,100,0.027000000000000003,-1.006,-0.035,1.4896908000000002,-0.1718874,-0.11459160000000004,92.43531414,1.5469866,-11.78574606
1.0099999999999998,101,0.028999999999999998,-1.008,-0.034,1.4896908000000002,-0.057295800000000015,-0.11459160000000004,92.4467733,1.5527161800000002,-11.78574606
1.0199999999999998,102,0.028999999999999998,-1.011,-0.033,1.2032118,0.057295800000000015,-0.057295800000000015,92.45823246,1.5527161800000002,-11.78574606
1.0299999999999998,103,0.028999999999999998,-1.0090000000000001,-0.035,1.145916,0.1718874,0.0,92.4754212,1.5527161800000002,-11.78574606
1.0399999999999998,104,0.027000000000000003,-1.008,-0.037000000000000005,1.0313244000000001,0.2291832000000001,0.11459160000000004,92.48115077999998,1.5469866,-11.78574606
1.0499999999999998,105,0.025,-1.006,-0.039,1.145916,0.286479,0.11459160000000004,92.25769716,1.55844576,-11.791475639999998
1.0599999999999998,106,0.027999999999999997,-1.008,-0.035,1.145916,0.4583664000000001,0.057295800000000015,92.26915632,1.55844576,-11.78574606
1.0699999999999998,107,0.028999999999999998,-1.0070000000000001,-0.034,0.9740286,0.40107059999999994,0.0,92.28061548,1.5527161800000002,-11.78001648
1.0799999999999998,108,0.028999999999999998,-1.006,-0.035,0.7448454000000001,0.286479,-0.057295800000000015,92.28634506,1.55844576,-11.774286900000002
1.0899999999999999,109,0.026000000000000002,-1.005,-0.035,0.6302538000000001,0.3437748,-0.11459160000000004,92.29207464,1.55844576,-11.774286900000002
1.0999999999999999,110,0.025,-1.005,-0.035,0.5156622000000001,0.5156622000000001,-0.057295800000000015,91.95975899999999,1.56990492,-11.78001648
1.1099999999999999,111,0.025,-1.006,-0.034,0.5156622000000001,0.4583664000000001,-0.057295800000000015,91.96548857999998,1.56990492,-11.774286900000002
1.1199999999999999,112,0.027000000000000003,-1.0070000000000001,-0.033,0.572958,0.057295800000000015,0.0,91.97121816,1.56990492,-11.774286900000002
1.13,113,0.03,-1.0070000000000001,-0.03,0.572958,-0.1718874,0.0,91.97694774,1.56990492,-11.78001648
1.14,114,0.033,-1.008,-0.028999999999999998,0.2291832000000001,0.057295800000000015,-0.11459160000000004,91.98267732,1.56990492,-11.774286900000002
1.15,115,0.033,-1.0070000000000001,-0.032,0.2291832000000001,0.4583664000000001,-0.11459160000000004,91.60452504,1.61001198,-11.78574606
1.16,116,0.032,-1.008,-0.035,0.286479,0.6875496,0.0,91.61025462,1.61001198,-11.78001648
1.17,117,0.028999999999999998,-1.004,-0.036000000000000004,0.3437748,0.7448454000000001,0.057295800000000015,91.61025462,1.61001198,-11.76855732
1.18,118,0.027999999999999997,-1.004,-0.039,0.6875496,0.6875496,0.1718874,91.62171378,1.61001198,-11.76282774
1.1899999999999997,119,0.027999999999999997,-1.004,-0.038,0.8021411999999999,0.4583664000000001,0.057295800000000015,91.62744336,1.61001198,-11.75709816
1.1999999999999997,120,0.027999999999999997,-1.003,-0.035,0.8021411999999999,0.1718874,0.057295800000000015,91.30658688,1.6329303,-11.76855732
1.2099999999999997,121,0.028999999999999998,-1.003,-0.034,0.8021411999999999,0.0,-0.057295800000000015,91.31804604,1.6329303,-11.76855732
1.2199999999999998,122,0.031,-1.003,-0.032,0.8021411999999999,-0.11459160000000004,-0.2291832000000001,91.32377562,1.6386598799999998,-11.76855732
1.2299999999999998,123,0.032,-1.005,-0.031,0.8021411999999999,-0.057295800000000015,-0.286479,91.33523478,1.6386598799999998,-11.774286900000002
1.2399999999999998,124,0.031,-1.005,-0.033,0.7448454000000001,0.057295800000000015,-0.3437748,91.34096436,1.64438946,-11.76855732
1.2499999999999998,125,0.03,-1.005,-0.034,0.8021411999999999,0.0,-0.3437748,91.14042906,1.6615782,-11.78001648
1.2599999999999998,126,0.027999999999999997,-1.003,-0.034,0.9740286,0.0,-0.286479,91.15188822,1.6673077799999998,-11.78001648
1.2699999999999998,127,0.028999999999999998,-1.003,-0.035,1.0886202,0.11459160000000004,-0.40107059999999994,91.16334738,1.67303736,-11.78001648
1.2799999999999998,128,0.028999999999999998,-1.002,-0.036000000000000004,1.2032118,0.057295800000000015,-0.3437748,91.17480654,1.67303736,-11.774286900000002
1.2899999999999998,129,0.03,-1.003,-0.036000000000000004,1.3178034,-0.057295800000000015,-0.40107059999999994,91.1862657,1.6787669399999998,-11.774286900000002
1.2999999999999998,130,0.03,-1.005,-0.033,1.3750992,-0.11459160000000004,-0.286479,91.04875578,1.6902260999999998,-11.78574606
1.3099999999999998,131,0.028999999999999998,-1.004,-0.035,1.432395,-0.11459160000000004,-0.3437748,91.06021494,1.6959556799999995,-11.78574606
1.3199999999999998,132,0.027999999999999997,-1.005,-0.035,1.3750992,0.0,-0.286479,91.07740368,1.70168526,-11.78574606
1.3299999999999998,133,0.026000000000000002,-1.0070000000000001,-0.034,1.3750992,-0.11459160000000004,-0.286479,91.08886284,1.70168526,-11.78574606
1.3399999999999999,134,0.025,-1.0090000000000001,-0.033,1.3750992,-0.1718874,-0.286479,91.10605158,1.7074148399999998,-11.78574606
1.3499999999999999,135,0.024,-1.01,-0.031,1.2605076000000002,-0.1718874,-0.40107059999999994,90.96281208,1.7074148399999998,-11.79720522
1.3599999999999999,136,0.025,-1.008,-0.028999999999999998,0.9740286,-0.057295800000000015,-0.40107059999999994,90.97427124,1.71314442,-11.79720522
1.3699999999999999,137,0.026000000000000002,-1.0090000000000001,-0.03,0.057295800000000015,-0.057295800000000015,-0.3437748,90.97427124,1.7188740000000002,-11.79720522
1.38,138,0.03,-1.0070000000000001,-0.034,-0.2291832000000001,0.11459160000000004,-0.3437748,90.97427124,1.7188740000000002,-11.79720522
1.39,139,0.033,-1.005,-0.036000000000000004,-0.11459160000000004,0.2291832000000001,-0.3437748,90.96854166,1.7246035799999997,-11.791475639999998
1.3999999999999997,140,0.032,-1.006,-0.033,0.0,0.3437748,-0.2291832000000001,90.50444568,1.76471064,-11.80866438
1.4099999999999997,141,0.028999999999999998,-1.004,-0.033,0.0,0.4583664000000001,-0.11459160000000004,90.51017526,1.76471064,-11.802934800000001
1.4199999999999997,142,0.03,-1.004,-0.033,0.0,0.572958,-0.11459160000000004,90.51017526,1.76471064,-11.79720522
1.4299999999999997,143,0.03,-1.003,-0.033,0.0,0.286479,-0.057295800000000015,90.50444568,1.77044022,-11.79720522
1.4399999999999997,144,0.028999999999999998,-1.001,-0.033,-0.11459160000000004,0.1718874,-0.11459160000000004,90.50444568,1.77044022,-11.791475639999998
1.4499999999999997,145,0.027999999999999997,-1.003,-0.032,-0.11459160000000004,0.057295800000000015,-0.2291832000000001,89.98878348,1.7933585399999998,-11.81439396
1.4599999999999997,146,0.027999999999999997,-1.003,-0.033,-0.1718874,0.0,-0.1718874,89.98878348,1.7933585399999998,-11.81439396
1.4699999999999998,147,0.028999999999999998,-1.003,-0.033,0.0,-0.057295800000000015,-0.11459160000000004,89.98878348,1.7933585399999998,-11.81439396
1.4799999999999998,148,0.027999999999999997,-1.004,-0.03,0.057295800000000015,-0.1718874,0.0,89.98878348,1.7933585399999998,-11.81439396
1.4899999999999998,149,0.027999999999999997,-1.006,-0.028999999999999998,0.0,0.0,0.057295800000000015,89.98878348,1.7933585399999998,-11.81439396
1.4999999999999998,150,0.028999999999999998,-1.0070000000000001,-0.027000000000000003,-0.057295800000000015,0.1718874,0.11459160000000004,89.66219742,1.79908812,-11.831582699999998
1.5099999999999998,151,0.027999999999999997,-1.006,-0.027999999999999997,0.057295800000000015,0.2291832000000001,0.11459160000000004,89.66219742,1.79908812,-11.82585312
1.5199999999999998,152,0.027000000000000003,-1.008,-0.027999999999999997,0.057295800000000015,0.3437748,0.057295800000000015,89.66219742,1.79908812,-11.82012354
1.5299999999999998,153,0.026000000000000002,-1.008,-0.027000000000000003,-0.11459160000000004,0.6302538000000001,0.057295800000000015,89.66219742,1.79908812,-11.81439396
1.5399999999999998,154,0.031,-1.0090000000000001,-0.027999999999999997,-0.286479,0.7448454000000001,0.057295800000000015,89.66219742,1.7933585399999998,-11.80866438
1.5499999999999998,155,0.033,-1.0070000000000001,-0.031,-0.1718874,0.4583664000000001,0.1718874,89.47885086,1.82200644,-11.80866438
1.5599999999999998,156,0.033,-1.0070000000000001,-0.031,-0.11459160000000004,0.11459160000000004,0.1718874,89.47885086,1.81627686,-11.80866438
1.5699999999999998,157,0.028999999999999998,-1.006,-0.031,0.0,0.0,0.1718874,89.47885086,1.81627686,-11.80866438
1.5799999999999998,158,0.027999999999999997,-1.005,-0.028999999999999998,-0.057295800000000015,0.0,0.1718874,89.47885086,1.81054728,-11.80866438
1.5899999999999999,159,0.026000000000000002,-1.005,-0.027000000000000003,-0.11459160000000004,0.057295800000000015,0.11459160000000004,89.47312128,1.81054728,-11.80866438
1.5999999999999999,160,0.025,-1.004,-0.03,0.0,0.057295800000000015,0.1718874,89.14653522,1.79908812,-11.82585312
1.6099999999999997,161,0.025,-1.003,-0.028999999999999998,0.057295800000000015,0.0,0.11459160000000004,89.14653522,1.7933585399999998,-11.82585312
1.6199999999999997,162,0.023,-1.005,-0.027999999999999997,0.0,-0.1718874,0.057295800000000015,89.14653522,1.7933585399999998,-11.82585312
1.6299999999999997,163,0.023,-1.0070000000000001,-0.027000000000000003,-0.1718874,0.0,-0.057295800000000015,89.14653522,1.7933585399999998,-11.82585312
1.6399999999999997,164,0.025,-1.0070000000000001,-0.027000000000000003,-0.2291832000000001,0.2291832000000001,-0.11459160000000004,89.14080564,1.79908812,-11.82012354
1.6499999999999997,165,0.025,-1.006,-0.027000000000000003,-0.286479,0.40107059999999994,-0.1718874,89.03767320000001,1.79908812,-11.82585312
1.6599999999999997,166,0.026000000000000002,-1.006,-0.027000000000000003,-0.286479,0.4583664000000001,-0.2291832000000001,89.03194361999998,1.79908812,-11.82012354
1.6699999999999997,167,0.026000000000000002,-1.005,-0.03,-0.40107059999999994,0.5156622000000001,-0.1718874,89.02621404,1.8048177,-11.81439396
1.6799999999999997,168,0.027999999999999997,-1.006,-0.028999999999999998,-0.1718874,0.572958,-0.286479,89.02621404,1.8048177,-11.80866438
1.6899999999999997,169,0.028999999999999998,-1.008,-0.027999999999999997,-0.286479,0.6302538000000001,-0.286479,89.02621404,1.81054728,-11.802934800000001
1.6999999999999997,170,0.027999999999999997,-1.0090000000000001,-0.028999999999999998,-0.1718874,0.2291832000000001,-0.2291832000000001,88.84859706,1.82200644,-11.802934800000001
1.7099999999999997,171,0.027999999999999997,-1.008,-0.03,-0.286479,-0.3437748,-0.2291832000000001,88.84286748000002,1.82200644,-11.80866438
1.7199999999999998,172,0.027999999999999997,-1.004,-0.032,-0.286479,-0.7448454000000001,-0.2291832000000001,88.84286748000002,1.82200644,-11.81439396
1.7299999999999998,173,0.027999999999999997,-1.005,-0.031,-0.2291832000000001,-0.8594370000000001,-0.2291832000000001,88.8371379,1.82773602,-11.82585312
1.7399999999999998,174,0.027000000000000003,-1.006,-0.028999999999999998,-0.1718874,-0.8594370000000001,-0.4583664000000001,88.8371379,1.8334656000000005,-11.83731228
1.7499999999999998,175,0.027000000000000003,-1.0070000000000001,-0.027999999999999997,0.0,-0.9167328000000001,-0.5156622000000001,88.7798421,1.83919518,-11.84877144
1.7599999999999998,176,0.026000000000000002,-1.008,-0.027000000000000003,0.1718874,-1.0313244000000001,-0.6302538000000001,88.7798421,1.84492476,-11.860230599999998
1.7699999999999998,177,0.025,-1.008,-0.026000000000000002,0.2291832000000001,-0.9740286,-0.572958,88.78557168,1.85065434,-11.86596018
1.7799999999999998,178,0.024,-1.008,-0.024,0.11459160000000004,-0.7448454000000001,-0.572958,88.78557168,1.85638392,-11.87741934
1.7899999999999998,179,0.025,-1.0070000000000001,-0.025,-0.2291832000000001,-0.5156622000000001,-0.5156622000000001,88.78557168,1.8621134999999998,-11.88314892
1.7999999999999998,180,0.026000000000000002,-1.005,-0.026000000000000002,-0.5156622000000001,-0.5156622000000001,-0.572958,88.72827588,1.8621134999999998,-11.8888785
1.8099999999999998,181,0.027999999999999997,-1.004,-0.027000000000000003,-0.4583664000000001,-0.3437748,-0.4583664000000001,88.7225463,1.86784308,-11.89460808
1.8199999999999998,182,0.03,-1.005,-0.025,-0.40107059999999994,-0.286479,-0.4583664000000001,88.71681672,1.87357266,-11.89460808
1.8299999999999996,183,0.028999999999999998,-1.005,-0.026000000000000002,-0.286479,-0.40107059999999994,-0.572958,88.71681672,1.87930224,-11.90033766
1.8399999999999996,184,0.027999999999999997,-1.003,-0.027000000000000003,-0.2291832000000001,-0.286479,-0.572958,88.71108714,1.88503182,-11.90606724
1.8499999999999996,185,0.026000000000000002,-1.004,-0.027999999999999997,-0.11459160000000004,-0.1718874,-0.4583664000000001,88.61368428,1.88503182,-11.91179682
1.8599999999999997,186,0.027000000000000003,-1.002,-0.028999999999999998,0.0,-0.1718874,-0.4583664000000001,88.60795470000002,1.8907614,-11.91179682
1.8699999999999997,187,0.028999999999999998,-1.003,-0.026000000000000002,0.057295800000000015,-0.2291832000000001,-0.40107059999999994,88.61368428,1.89649098,-11.917526400000002
1.8799999999999997,188,0.028999999999999998,-1.002,-0.026000000000000002,0.11459160000000004,-0.2291832000000001,-0.3437748,88.61368428,1.89649098,-11.917526400000002
1.8899999999999997,189,0.028999999999999998,-1.006,-0.03,0.286479,-0.4583664000000001,-0.40107059999999994,88.61368428,1.90222056,-11.92325598
1.8999999999999997,190,0.027000000000000003,-1.008,-0.028999999999999998,0.2291832000000001,-0.6302538000000001,-0.3437748,88.5506589,1.90222056,-11.934715140000002
1.9099999999999997,191,0.026000000000000002,-1.01,-0.023,-0.1718874,-0.3437748,-0.4583664000000001,88.5506589,1.90795014,-11.934715140000002
1.9199999999999997,192,0.027000000000000003,-1.0090000000000001,-0.023,-0.2291832000000001,-0.2291832000000001,-0.40107059999999994,88.54492932000002,1.90795014,-11.94044472
1.9299999999999997,193,0.027999999999999997,-1.01,-0.027000000000000003,-0.057295800000000015,-0.3437748,-0.3437748,88.54492932000002,1.91367972,-11.946174300000001
1.9399999999999997,194,0.027999999999999997,-1.008,-0.027000000000000003,-0.1718874,-0.286479,-0.3437748,88.54492932000002,1.9194093000000003,-11.946174300000001
1.9499999999999997,195,0.027000000000000003,-1.0070000000000001,-0.027999999999999997,-0.2291832000000001,-0.2291832000000001,-0.3437748,88.44752645999998,1.91367972,-11.95763346
1.9599999999999997,196,0.027000000000000003,-1.0070000000000001,-0.027999999999999997,-0.2291832000000001,-0.1718874,-0.40107059999999994,88.44179688,1.9194093000000003,-11.95763346
1.9699999999999998,197,0.027000000000000003,-1.0070000000000001,-0.027000000000000003,-0.40107059999999994,0.0,-0.286479,88.44179688,1.9194093000000003,-11.95763346
1.9799999999999998,198,0.027999999999999997,-1.005,-0.027000000000000003,-0.2291832000000001,0.0,-0.3437748,88.43606729999998,1.92513888,-11.95763346
1.9899999999999998,199,0.028999999999999998,-1.0070000000000001,-0.026000000000000002,-0.2291832000000001,-0.057295800000000015,-0.4583664000000001,88.43606729999998,1.93086846,-11.95763346
1.9999999999999998,200,0.031,-1.006,-0.026000000000000002,-0.1718874,-0.057295800000000015,-0.4583664000000001,88.36158276,1.93659804,-11.96336304
2.01,201,0.028999999999999998,-1.006,-0.026000000000000002,-0.11459160000000004,-0.2291832000000001,-0.3437748,88.36158276,1.94232762,-11.96336304
2.0199999999999996,202,0.027999999999999997,-1.005,-0.025,0.0,-0.4583664000000001,-0.3437748,88.36158276,1.94232762,-11.96909262
2.0299999999999994,203,0.028999999999999998,-1.005,-0.024,-0.11459160000000004,-0.5156622000000001,-0.286479,88.36158276,1.9480572000000005,-11.9748222
2.0399999999999996,204,0.027999999999999997,-1.004,-0.023,-0.286479,-0.4583664000000001,-0.286479,88.35585318,1.95378678,-11.98055178
2.0499999999999994,205,0.027999999999999997,-1.005,-0.024,-0.3437748,-0.40107059999999994,-0.2291832000000001,88.29855738,1.95378678,-11.98628136
2.0599999999999996,206,0.027999999999999997,-1.005,-0.026000000000000002,-0.4583664000000001,-0.286479,-0.2291832000000001,88.2928278,1.95378678,-11.99201094
2.0699999999999994,207,0.027999999999999997,-1.006,-0.024,-0.4583664000000001,-0.2291832000000001,-0.2291832000000001,88.28709822,1.95378678,-11.99201094
2.0799999999999996,208,0.027999999999999997,-1.006,-0.023,-0.40107059999999994,0.2291832000000001,0.11459160000000004,88.28136864,1.95378678,-11.99201094
2.0899999999999994,209,0.028999999999999998,-1.005,-0.023,-0.286479,0.40107059999999994,0.2291832000000001,88.28136864,1.95378678,-11.98628136
2.0999999999999996,210,0.028999999999999998,-1.003,-0.025,-0.1718874,0.5156622000000001,0.3437748,88.22407283999998,1.9480572000000005,-11.98628136
2.1099999999999994,211,0.028999999999999998,-1.002,-0.027000000000000003,0.057295800000000015,0.286479,0.40107059999999994,88.22407283999998,1.94232762,-11.98055178
2.1199999999999997,212,0.028999999999999998,-1.003,-0.026000000000000002,0.1718874,0.0,0.40107059999999994,88.22407283999998,1.94232762,-11.98055178
2.1299999999999994,213,0.03,-1.004,-0.027999999999999997,0.1718874,-0.1718874,0.5156622000000001,88.22980242,1.93659804,-11.98055178
2.1399999999999997,214,0.03,-1.004,-0.027999999999999997,0.2291832000000001,-0.11459160000000004,0.572958,88.22980242,1.93086846,-11.98055178
2.1499999999999995,215,0.028999999999999998,-1.006,-0.027999999999999997,0.2291832000000001,-0.2291832000000001,0.5156622000000001,88.18396578000002,1.92513888,-11.98628136
2.1599999999999993,216,0.028999999999999998,-1.005,-0.027000000000000003,0.286479,-0.2291832000000001,0.572958,88.18396578000002,1.9194093000000003,-11.99201094
2.1699999999999995,217,0.026000000000000002,-1.005,-0.028999999999999998,0.5156622000000001,-0.2291832000000001,0.5156622000000001,88.18969536,1.91367972,-11.99201094
2.1799999999999993,218,0.027000000000000003,-1.005,-0.027000000000000003,0.3437748,-0.057295800000000015,0.286479,88.19542494,1.91367972,-11.99201094
2.1899999999999995,219,0.028999999999999998,-1.004,-0.027000000000000003,0.4583664000000001,0.057295800000000015,0.2291832000000001,88.20115452,1.90795014,-11.99201094
2.1999999999999993,220,0.028999999999999998,-1.006,-0.027000000000000003,0.5156622000000001,0.0,0.2291832000000001,88.13812913999998,1.90795014,-11.99201094
2.2099999999999995,221,0.03,-1.008,-0.024,0.3437748,-0.057295800000000015,0.40107059999999994,88.13812913999998,1.90222056,-11.99774052
2.2199999999999993,222,0.031,-1.008,-0.024,0.11459160000000004,-0.057295800000000015,0.40107059999999994,88.14385872,1.90222056,-11.99774052
2.2299999999999995,223,0.03,-1.008,-0.023,0.0,-0.11459160000000004,0.4583664000000001,88.14385872,1.89649098,-11.99774052
2.2399999999999993,224,0.03,-1.008,-0.023,-0.057295800000000015,0.0,0.4583664000000001,88.13812913999998,1.8907614,-11.99774052
2.2499999999999996,225,0.027999999999999997,-1.0070000000000001,-0.024,-0.1718874,0.057295800000000015,0.5156622000000001,88.09802207999998,1.88503182,-11.99774052
2.2599999999999993,226,0.026000000000000002,-1.006,-0.025,-0.286479,0.11459160000000004,0.4583664000000001,88.0922925,1.87930224,-11.99774052
2.2699999999999996,227,0.025,-1.006,-0.025,-0.2291832000000001,0.2291832000000001,0.40107059999999994,88.0922925,1.87930224,-11.99201094
2.2799999999999994,228,0.027000000000000003,-1.008,-0.025,-0.057295800000000015,0.3437748,0.2291832000000001,88.0922925,1.87357266,-11.99201094
2.2899999999999996,229,0.027999999999999997,-1.008,-0.025,0.0,0.1718874,0.11459160000000004,88.0922925,1.87357266,-11.98628136
2.2999999999999994,230,0.028999999999999998,-1.0090000000000001,-0.023,0.057295800000000015,0.1718874,0.0,87.98343048000002,1.87930224,-11.99201094
2.3099999999999996,231,0.027999999999999997,-1.008,-0.023,-0.1718874,0.0,0.0,87.98343048000002,1.87930224,-11.99201094
2.3199999999999994,232,0.027999999999999997,-1.0070000000000001,-0.021,-0.2291832000000001,-0.057295800000000015,0.0,87.9777009,1.87930224,-11.99201094
2.3299999999999996,233,0.027999999999999997,-1.005,-0.023,-0.2291832000000001,0.0,0.0,87.9777009,1.87930224,-11.99201094
2.3399999999999994,234,0.027000000000000003,-1.004,-0.023,-0.11459160000000004,-0.1718874,0.057295800000000015,87.9777009,1.87930224,-11.99201094
2.3499999999999996,235,0.027000000000000003,-1.003,-0.025,-0.11459160000000004,-0.286479,0.0,87.92040510000002,1.87930224,-11.99774052
2.3599999999999994,236,0.026000000000000002,-1.003,-0.023,0.0,-0.2291832000000001,0.0,87.91467551999996,1.87930224,-12.0034701
2.369999999999999,237,0.027000000000000003,-1.005,-0.023,0.11459160000000004,-0.3437748,0.0,87.92040510000002,1.87930224,-12.0034701
2.3799999999999994,238,0.026000000000000002,-1.0070000000000001,-0.024,0.11459160000000004,-0.1718874,0.0,87.92040510000002,1.87930224,-12.00919968
2.3899999999999992,239,0.025,-1.006,-0.024,0.11459160000000004,-0.057295800000000015,0.0,87.92040510000002,1.87930224,-12.00919968
2.3999999999999995,240,0.024,-1.006,-0.019,0.2291832000000001,-0.11459160000000004,0.057295800000000015,87.89748678,1.85065434,-12.01492926
2.4099999999999993,241,0.023,-1.006,-0.016,0.0,0.057295800000000015,0.057295800000000015,87.89748678,1.85065434,-12.00919968
2.4199999999999995,242,0.023,-1.006,-0.02,-0.2291832000000001,0.4583664000000001,0.0,87.89748678,1.85065434,-12.00919968
2.4299999999999993,243,0.026000000000000002,-1.006,-0.025,-0.1718874,0.8594370000000001,-0.057295800000000015,87.8917572,1.85065434,-11.99774052
2.4399999999999995,244,0.027999999999999997,-1.01,-0.021,-0.057295800000000015,0.6302538000000001,-0.057295800000000015,87.8917572,1.85638392,-11.99201094
2.4499999999999993,245,0.027999999999999997,-1.011,-0.018000000000000002,-0.286479,0.0,0.0,87.87456846,1.85638392,-11.99201094
2.4599999999999995,246,0.027000000000000003,-1.0070000000000001,-0.019,-0.572958,-0.5156622000000001,-0.057295800000000015,87.86883888,1.85638392,-11.99774052
2.4699999999999993,247,0.026000000000000002,-1.008,-0.021,-0.6875496,-0.4583664000000001,0.0,87.8631093,1.85638392,-12.0034701
2.4799999999999995,248,0.028999999999999998,-1.0090000000000001,-0.022000000000000002,-0.8021411999999999,-0.11459160000000004,0.057295800000000015,87.85737972,1.85638392,-12.0034701
2.4899999999999993,249,0.03,-1.01,-0.022000000000000002,-0.4583664000000001,-0.2291832000000001,0.2291832000000001,87.85165014,1.85065434,-12.00919968
2.4999999999999996,250,0.028999999999999998,-1.012,-0.019,-0.11459160000000004,-0.5156622000000001,0.11459160000000004,87.83446140000002,1.85065434,-12.01492926
2.5099999999999993,251,0.025,-1.014,-0.019,-0.11459160000000004,-0.4583664000000001,0.11459160000000004,87.82873182,1.85065434,-12.01492926
2.5199999999999996,252,0.024,-1.01,-0.021,-0.4583664000000001,-0.40107059999999994,0.1718874,87.82873182,1.85065434,-12.02065884
2.5299999999999994,253,0.024,-1.005,-0.02,-0.5156622000000001,-0.286479,0.2291832000000001,87.82300224,1.84492476,-12.02638842
2.5399999999999996,254,0.024,-1.001,-0.019,-0.4583664000000001,-0.4583664000000001,0.286479,87.81727266,1.84492476,-12.032117999999999
2.5499999999999994,255,0.025,-1.0,-0.021,-0.572958,-0.1718874,0.1718874,87.79435434000001,1.8334656000000005,-12.032117999999999
2.5599999999999996,256,0.026000000000000002,-1.0,-0.021,-0.6302538000000001,0.0,0.2291832000000001,87.78862475999998,1.8334656000000005,-12.032117999999999
2.5699999999999994,257,0.026000000000000002,-1.0,-0.022000000000000002,-0.40107059999999994,0.057295800000000015,0.2291832000000001,87.78289518,1.8334656000000005,-12.032117999999999
2.579999999999999,258,0.024,-1.002,-0.023,-0.40107059999999994,0.11459160000000004,0.11459160000000004,87.77716559999998,1.82773602,-12.032117999999999
2.5899999999999994,259,0.021,-1.004,-0.023,-0.11459160000000004,0.11459160000000004,0.057295800000000015,87.77716559999998,1.82773602,-12.02638842
2.599999999999999,260,0.021,-1.005,-0.024,0.11459160000000004,0.1718874,0.0,87.74278812,1.8048177,-12.032117999999999
2.6099999999999994,261,0.022000000000000002,-1.006,-0.022000000000000002,0.3437748,0.1718874,-0.057295800000000015,87.74851770000002,1.8048177,-12.02638842
2.619999999999999,262,0.023,-1.006,-0.022000000000000002,0.2291832000000001,0.1718874,-0.11459160000000004,87.75424728,1.8048177,-12.02638842
2.6299999999999994,263,0.025,-1.0070000000000001,-0.023,0.057295800000000015,0.1718874,-0.11459160000000004,87.75424728,1.8048177,-12.02638842
2.6399999999999992,264,0.026000000000000002,-1.006,-0.022000000000000002,0.0,0.057295800000000015,0.0,87.75424728,1.8048177,-12.02065884
2.6499999999999995,265,0.025,-1.005,-0.023,0.0,0.0,0.0,87.69122189999999,1.7933585399999998,-12.02638842
2.6599999999999993,266,0.023,-1.01,-0.023,0.0,0.40107059999999994,0.0,87.69122189999999,1.7933585399999998,-12.02065884
2.6699999999999995,267,0.023,-1.01,-0.025,-0.2291832000000001,0.6875496,0.0,87.69122189999999,1.7933585399999998,-12.01492926
2.6799999999999993,268,0.021,-1.008,-0.024,-0.40107059999999994,0.5156622000000001,0.057295800000000015,87.68549232000002,1.7933585399999998,-12.00919968
2.6899999999999995,269,0.019,-1.0070000000000001,-0.024,-0.11459160000000004,0.3437748,0.0,87.68549232000002,1.7933585399999998,-12.00919968
2.6999999999999993,270,0.019,-1.0070000000000001,-0.022000000000000002,-0.1718874,0.40107059999999994,-0.1718874,87.67403316,1.78189938,-12.0034701
2.7099999999999995,271,0.022000000000000002,-1.006,-0.021,-0.4583664000000001,0.4583664000000001,-0.3437748,87.66830358,1.78189938,-11.99774052
2.7199999999999993,272,0.027999999999999997,-1.005,-0.023,-0.3437748,0.6302538000000001,-0.286479,87.66830358,1.78762896,-11.99201094
2.7299999999999995,273,0.03,-1.008,-0.022000000000000002,-0.1718874,0.3437748,-0.1718874,87.66257399999998,1.78762896,-11.99201094
2.7399999999999993,274,0.028999999999999998,-1.0090000000000001,-0.023,-0.057295800000000015,0.1718874,-0.1718874,87.66257399999998,1.78762896,-11.98628136
2.7499999999999996,275,0.027999999999999997,-1.01,-0.023,-0.057295800000000015,0.2291832000000001,-0.2291832000000001,87.64538526,1.7933585399999998,-11.98628136
2.7599999999999993,276,0.026000000000000002,-1.008,-0.023,-0.286479,0.3437748,-0.1718874,87.64538526,1.79908812,-11.98055178
2.7699999999999996,277,0.024,-1.005,-0.023,-0.1718874,0.11459160000000004,-0.1718874,87.63965568,1.79908812,-11.98055178
2.7799999999999994,278,0.022000000000000002,-1.004,-0.024,0.0,0.0,-0.2291832000000001,87.63965568,1.79908812,-11.98055178
2.789999999999999,279,0.023,-1.003,-0.022000000000000002,-0.057295800000000015,0.0,-0.3437748,87.63965568,1.8048177,-11.98055178
2.7999999999999994,280,0.024,-1.003,-0.021,0.0,0.057295800000000015,-0.3437748,87.6339261,1.79908812,-11.98055178
2.809999999999999,281,0.024,-1.002,-0.02,0.0,0.057295800000000015,-0.286479,87.6339261,1.8048177,-11.98055178
2.8199999999999994,282,0.024,-1.003,-0.019,0.11459160000000004,-0.057295800000000015,-0.286479,87.6339261,1.8048177,-11.98055178
2.829999999999999,283,0.024,-1.004,-0.02,0.286479,-0.3437748,-0.286479,87.6339261,1.81054728,-11.98628136
2.8399999999999994,284,0.025,-1.005,-0.02,0.286479,-0.2291832000000001,-0.2291832000000001,87.63965568,1.81054728,-11.98628136
2.849999999999999,285,0.026000000000000002,-1.006,-0.021,0.057295800000000015,-0.057295800000000015,-0.2291832000000001,87.62246694,1.82200644,-11.99201094
2.8599999999999994,286,0.027000000000000003,-1.0070000000000001,-0.019,0.057295800000000015,0.0,-0.1718874,87.62819652,1.82200644,-11.99201094
2.869999999999999,287,0.027999999999999997,-1.006,-0.02,0.1718874,-0.057295800000000015,-0.057295800000000015,87.62819652,1.82200644,-11.99201094
2.8799999999999994,288,0.026000000000000002,-1.005,-0.023,0.3437748,-0.1718874,0.0,87.6339261,1.82200644,-11.99201094
2.8899999999999992,289,0.023,-1.004,-0.023,0.40107059999999994,-0.3437748,0.0,87.6339261,1.82200644,-11.99774052
2.8999999999999995,290,0.022000000000000002,-1.005,-0.023,0.2291832000000001,-0.5156622000000001,0.0,87.62246694,1.81054728,-12.0034701
2.9099999999999993,291,0.023,-1.006,-0.025,0.3437748,-0.40107059999999994,0.057295800000000015,87.62246694,1.81054728,-12.00919968
2.9199999999999995,292,0.023,-1.006,-0.023,0.286479,-0.3437748,0.057295800000000015,87.62819652,1.81054728,-12.00919968
2.9299999999999993,293,0.023,-1.0070000000000001,-0.024,0.286479,-0.286479,-0.057295800000000015,87.62819652,1.81054728,-12.01492926
2.9399999999999995,294,0.024,-1.0070000000000001,-0.023,0.3437748,-0.286479,-0.057295800000000015,87.6339261,1.81054728,-12.01492926
2.9499999999999993,295,0.025,-1.0070000000000001,-0.023,0.40107059999999994,-0.4583664000000001,0.0,87.62819652,1.8048177,-12.02065884
2.9599999999999995,296,0.024,-1.008,-0.02,0.2291832000000001,-0.1718874,0.0,87.62819652,1.8048177,-12.02638842
2.9699999999999993,297,0.023,-1.0070000000000001,-0.021,0.0,0.0,0.0,87.62819652,1.8048177,-12.02638842
2.9799999999999995,298,0.023,-1.006,-0.022000000000000002,-0.11459160000000004,0.1718874,0.0,87.62819652,1.8048177,-12.02065884
2.9899999999999993,299,0.023,-1.0070000000000001,-0.024,-0.11459160000000004,0.1718874,0.057295800000000015,87.62819652,1.8048177,-12.02065884
2.999999999999999,300,0.023,-1.006,-0.021,-0.2291832000000001,0.11459160000000004,0.11459160000000004,87.6052782,1.78762896,-12.02065884
3.0099999999999993,301,0.025,-1.005,-0.022000000000000002,-0.2291832000000001,0.057295800000000015,0.057295800000000015,87.59954862,1.78189938,-12.02065884
3.019999999999999,302,0.027000000000000003,-1.006,-0.023,-0.2291832000000001,0.0,0.0,87.59954862,1.78189938,-12.02065884
3.0299999999999994,303,0.027000000000000003,-1.006,-0.021,-0.4583664000000001,-0.057295800000000015,0.0,87.59381904,1.78189938,-12.02065884
3.039999999999999,304,0.025,-1.005,-0.022000000000000002,-0.4583664000000001,-0.1718874,-0.057295800000000015,87.58808946,1.78762896,-12.02065884
3.0499999999999994,305,0.024,-1.006,-0.024,-0.286479,-0.11459160000000004,-0.11459160000000004,87.57663029999998,1.7761698000000001,-12.02638842
3.059999999999999,306,0.022000000000000002,-1.0070000000000001,-0.024,-0.2291832000000001,-0.11459160000000004,-0.1718874,87.57090072000004,1.7761698000000001,-12.02638842
3.0699999999999994,307,0.022000000000000002,-1.0070000000000001,-0.024,-0.057295800000000015,-0.40107059999999994,-0.286479,87.57090072000004,1.78189938,-12.032117999999999
3.079999999999999,308,0.023,-1.01,-0.022000000000000002,0.0,-0.40107059999999994,-0.3437748,87.57090072000004,1.78762896,-12.03784758
3.0899999999999994,309,0.022000000000000002,-1.008,-0.019,-0.057295800000000015,-0.1718874,-0.2291832000000001,87.57090072000004,1.78762896,-12.03784758
3.099999999999999,310,0.021,-1.0090000000000001,-0.018000000000000002,-0.1718874,0.2291832000000001,-0.11459160000000004,87.57090072000004,1.77044022,-12.03784758
3.1099999999999994,311,0.02,-1.005,-0.017,-0.3437748,0.4583664000000001,-0.057295800000000015,87.57090072000004,1.77044022,-12.032117999999999
3.119999999999999,312,0.022000000000000002,-1.003,-0.018000000000000002,-0.1718874,0.6302538000000001,0.0,87.56517113999998,1.7761698000000001,-12.02638842
3.1299999999999994,313,0.024,-1.003,-0.018000000000000002,-0.40107059999999994,0.4583664000000001,-0.11459160000000004,87.56517113999998,1.7761698000000001,-12.02065884
3.1399999999999992,314,0.025,-1.002,-0.018000000000000002,-0.6302538000000001,0.6302538000000001,-0.286479,87.55944156000002,1.7761698000000001,-12.01492926
3.1499999999999995,315,0.026000000000000002,-1.001,-0.02,-0.4583664000000001,0.8021411999999999,-0.2291832000000001,87.54798240000002,1.78189938,-12.00919968
3.1599999999999993,316,0.025,-1.004,-0.025,-0.286479,0.5156622000000001,-0.11459160000000004,87.54225282,1.78189938,-12.0034701
3.1699999999999995,317,0.023,-1.011,-0.021,-0.1718874,-0.1718874,0.11459160000000004,87.54225282,1.78189938,-12.0034701
3.1799999999999993,318,0.022000000000000002,-1.014,-0.013999999999999999,-0.1718874,-0.6302538000000001,0.0,87.53652324,1.78189938,-12.00919968
3.1899999999999995,319,0.024,-1.016,-0.017,-0.2291832000000001,-0.5156622000000001,-0.057295800000000015,87.53652324,1.78189938,-12.01492926
3.1999999999999993,320,0.027999999999999997,-1.013,-0.022000000000000002,-0.40107059999999994,-0.057295800000000015,-0.11459160000000004,87.5193345,1.7933585399999998,-12.01492926
3.209999999999999,321,0.027000000000000003,-1.008,-0.023,-0.2291832000000001,0.057295800000000015,-0.057295800000000015,87.51360492,1.7933585399999998,-12.01492926
3.2199999999999993,322,0.022000000000000002,-1.003,-0.024,0.057295800000000015,0.0,0.0,87.5193345,1.7933585399999998,-12.01492926
3.229999999999999,323,0.019,-0.998,-0.024,0.2291832000000001,0.0,0.057295800000000015,87.5193345,1.7933585399999998,-12.01492926
3.2399999999999993,324,0.02,-0.995,-0.021,0.286479,0.057295800000000015,0.0,87.52506408,1.7933585399999998,-12.01492926
3.249999999999999,325,0.021,-0.997,-0.023,0.40107059999999994,0.11459160000000004,0.0,87.5193345,1.78189938,-12.01492926
3.2599999999999993,326,0.023,-1.0,-0.025,0.5156622000000001,0.057295800000000015,-0.057295800000000015,87.5193345,1.78189938,-12.00919968
3.269999999999999,327,0.025,-1.003,-0.025,0.40107059999999994,0.11459160000000004,-0.11459160000000004,87.52506408,1.78189938,-12.00919968
3.2799999999999994,328,0.025,-1.002,-0.022000000000000002,0.40107059999999994,0.0,-0.057295800000000015,87.53079366,1.78762896,-12.00919968
3.289999999999999,329,0.023,-1.002,-0.023,0.40107059999999994,0.0,-0.057295800000000015,87.53652324,1.78762896,-12.00919968
3.2999999999999994,330,0.023,-1.001,-0.024,0.2291832000000001,0.0,-0.1718874,87.50787534,1.77044022,-12.00919968
3.309999999999999,331,0.022000000000000002,-1.001,-0.026000000000000002,0.40107059999999994,0.057295800000000015,-0.057295800000000015,87.51360492,1.77044022,-12.00919968
3.3199999999999994,332,0.024,-1.003,-0.025,0.572958,0.057295800000000015,-0.11459160000000004,87.5193345,1.77044022,-12.00919968
3.329999999999999,333,0.025,-1.005,-0.026000000000000002,0.572958,0.0,-0.057295800000000015,87.52506408,1.77044022,-12.00919968
3.3399999999999994,334,0.026000000000000002,-1.006,-0.025,0.5156622000000001,-0.11459160000000004,-0.057295800000000015,87.53079366,1.7761698000000001,-12.00919968
3.349999999999999,335,0.025,-1.006,-0.024,0.40107059999999994,-0.286479,0.057295800000000015,87.5193345,1.77044022,-12.01492926
3.3599999999999994,336,0.023,-1.006,-0.022000000000000002,0.286479,-0.3437748,0.057295800000000015,87.52506408,1.77044022,-12.02065884
3.369999999999999,337,0.021,-1.0070000000000001,-0.021,0.2291832000000001,-0.057295800000000015,0.0,87.53079366,1.76471064,-12.02065884
3.3799999999999994,338,0.021,-1.0070000000000001,-0.025,0.1718874,0.11459160000000004,0.0,87.53079366,1.76471064,-12.02065884
3.3899999999999992,339,0.021,-1.0090000000000001,-0.025,0.286479,0.057295800000000015,0.0,87.53079366,1.77044022,-12.02065884
3.3999999999999995,340,0.022000000000000002,-1.01,-0.022000000000000002,0.3437748,0.0,-0.057295800000000015,87.53079366,1.75898106,-12.02065884
3.4099999999999993,341,0.023,-1.01,-0.021,0.057295800000000015,0.0,-0.1718874,87.53652324,1.75898106,-12.02065884
3.4199999999999995,342,0.027000000000000003,-1.01,-0.02,-0.057295800000000015,0.11459160000000004,-0.1718874,87.53652324,1.75898106,-12.01492926
3.4299999999999993,343,0.027999999999999997,-1.0070000000000001,-0.018000000000000002,-0.286479,0.057295800000000015,-0.11459160000000004,87.53079366,1.76471064,-12.01492926
3.439999999999999,344,0.027000000000000003,-1.005,-0.02,-0.286479,0.0,0.0,87.52506408,1.76471064,-12.01492926
3.4499999999999993,345,0.025,-1.005,-0.021,0.0,-0.1718874,0.0,87.52506408,1.75325148,-12.02065884
3.459999999999999,346,0.025,-1.005,-0.019,0.11459160000000004,-0.057295800000000015,0.0,87.52506408,1.75325148,-12.02065884
3.4699999999999993,347,0.023,-1.005,-0.02,0.11459160000000004,0.0,0.057295800000000015,87.53079366,1.75325148,-12.02065884
3.479999999999999,348,0.025,-1.006,-0.019,0.11459160000000004,0.0,0.0,87.53079366,1.75325148,-12.02065884
3.4899999999999993,349,0.025,-1.005,-0.018000000000000002,0.11459160000000004,0.0,-0.11459160000000004,87.53079366,1.75325148,-12.02065884
3.499999999999999,350,0.026000000000000002,-1.004,-0.017,0.1718874,0.0,-0.11459160000000004,87.55371198,1.75898106,-12.02065884
3.5099999999999993,351,0.025,-1.003,-0.018000000000000002,0.11459160000000004,-0.1718874,-0.057295800000000015,87.55371198,1.75898106,-12.02065884
3.519999999999999,352,0.024,-1.003,-0.019,0.057295800000000015,-0.1718874,0.0,87.55371198,1.75898106,-12.02065884
3.5299999999999994,353,0.024,-1.004,-0.017,0.1718874,-0.11459160000000004,0.0,87.55944156000002,1.75898106,-12.02638842
3.539999999999999,354,0.024,-1.004,-0.017,0.2291832000000001,0.0,0.0,87.55944156000002,1.75898106,-12.02638842
3.5499999999999994,355,0.025,-1.006,-0.021,0.3437748,0.057295800000000015,0.0,87.55944156000002,1.75325148,-12.02638842
3.559999999999999,356,0.024,-1.0070000000000001,-0.019,0.286479,0.0,0.0,87.55944156000002,1.75325148,-12.02638842
3.5699999999999994,357,0.025,-1.0070000000000001,-0.017,0.3437748,0.0,0.0,87.56517113999998,1.75325148,-12.02638842
3.579999999999999,358,0.025,-1.008,-0.017,0.286479,0.0,0.0,87.57090072000004,1.75898106,-12.02638842
3.5899999999999994,359,0.026000000000000002,-1.008,-0.016,0.2291832000000001,-0.11459160000000004,0.0,87.57090072000004,1.75325148,-12.02638842
3.599999999999999,360,0.025,-1.0070000000000001,-0.019,0.11459160000000004,-0.1718874,0.0,87.57090072000004,1.75898106,-12.02638842
3.6099999999999994,361,0.025,-1.008,-0.019,0.2291832000000001,-0.286479,0.057295800000000015,87.57663029999998,1.75325148,-12.032117999999999
3.619999999999999,362,0.024,-1.008,-0.02,0.11459160000000004,-0.1718874,0.0,87.57663029999998,1.75325148,-12.032117999999999
3.6299999999999994,363,0.024,-1.0070000000000001,-0.02,0.11459160000000004,-0.286479,0.0,87.57663029999998,1.75325148,-12.03784758
3.6399999999999992,364,0.024,-1.0090000000000001,-0.022000000000000002,0.11459160000000004,-0.2291832000000001,0.0,87.58235988,1.75325148,-12.03784758
3.649999999999999,365,0.023,-1.008,-0.021,0.0,-0.286479,-0.057295800000000015,87.57663029999998,1.7475218999999995,-12.04357716
3.6599999999999993,366,0.022000000000000002,-1.0090000000000001,-0.02,0.0,-0.057295800000000015,0.0,87.57663029999998,1.7475218999999995,-12.04357716
3.669999999999999,367,0.023,-1.008,-0.02,-0.057295800000000015,0.0,0.0,87.57663029999998,1.7475218999999995,-12.04357716
3.6799999999999993,368,0.024,-1.006,-0.022000000000000002,-0.1718874,0.1718874,0.0,87.57090072000004,1.7475218999999995,-12.04357716
3.689999999999999,369,0.023,-1.008,-0.018000000000000002,-0.057295800000000015,0.0,0.057295800000000015,87.57090072000004,1.7475218999999995,-12.04357716
3.6999999999999993,370,0.026000000000000002,-1.0070000000000001,-0.018000000000000002,-0.3437748,-0.11459160000000004,0.0,87.57090072000004,1.7475218999999995,-12.04357716
3.709999999999999,371,0.026000000000000002,-1.005,-0.021,-0.40107059999999994,-0.286479,0.0,87.56517113999998,1.7475218999999995,-12.04357716
3.7199999999999993,372,0.025,-1.006,-0.022000000000000002,-0.40107059999999994,-0.286479,0.0,87.56517113999998,1.7475218999999995,-12.049306740000002
3.729999999999999,373,0.024,-1.005,-0.018000000000000002,-0.5156622000000001,-0.286479,0.0,87.55944156000002,1.7475218999999995,-12.05503632
3.7399999999999993,374,0.023,-1.006,-0.015,-0.6302538000000001,-0.11459160000000004,0.0,87.55371198,1.7475218999999995,-12.05503632
3.749999999999999,375,0.023,-1.005,-0.017,-0.6302538000000001,0.0,0.0,87.54798240000002,1.74179232,-12.05503632
3.7599999999999993,376,0.023,-1.006,-0.019,-0.572958,0.0,0.0,87.54225282,1.73606274,-12.05503632
3.769999999999999,377,0.024,-1.0070000000000001,-0.018000000000000002,-0.4583664000000001,-0.057295800000000015,0.0,87.53652324,1.73606274,-12.05503632
3.7799999999999994,378,0.024,-1.0090000000000001,-0.021,-0.40107059999999994,-0.11459160000000004,0.057295800000000015,87.53079366,1.73606274,-12.05503632
3.789999999999999,379,0.021,-1.008,-0.019,-0.3437748,-0.057295800000000015,0.057295800000000015,87.52506408,1.73606274,-12.05503632
3.7999999999999994,380,0.02,-1.0070000000000001,-0.018000000000000002,-0.3437748,0.11459160000000004,0.0,87.53652324,1.7246035799999997,-12.05503632
3.809999999999999,381,0.022000000000000002,-1.006,-0.016,-0.2291832000000001,0.286479,0.0,87.53079366,1.7246035799999997,-12.05503632
3.8199999999999994,382,0.023,-1.006,-0.015,-0.2291832000000001,0.286479,0.0,87.53079366,1.7246035799999997,-12.049306740000002
3.829999999999999,383,0.023,-1.005,-0.017,-0.4583664000000001,0.4583664000000001,-0.11459160000000004,87.52506408,1.7246035799999997,-12.04357716
3.8399999999999994,384,0.025,-1.003,-0.019,-0.40107059999999994,0.572958,-0.1718874,87.5193345,1.7246035799999997,-12.03784758
3.849999999999999,385,0.027000000000000003,-1.003,-0.021,-0.2291832000000001,0.7448454000000001,0.0,87.51360492,1.73033316,-12.032117999999999
3.859999999999999,386,0.026000000000000002,-1.006,-0.019,0.0,0.2291832000000001,0.11459160000000004,87.51360492,1.73033316,-12.032117999999999
3.869999999999999,387,0.024,-1.01,-0.018000000000000002,-0.057295800000000015,-0.286479,0.2291832000000001,87.51360492,1.73033316,-12.032117999999999
3.879999999999999,388,0.025,-1.01,-0.013999999999999999,-0.1718874,-0.40107059999999994,0.1718874,87.50787534,1.7246035799999997,-12.03784758
3.8899999999999992,389,0.027000000000000003,-1.01,-0.018000000000000002,-0.286479,-0.1718874,0.057295800000000015,87.50787534,1.7246035799999997,-12.03784758
3.899999999999999,390,0.026000000000000002,-1.01,-0.021,-0.2291832000000001,0.11459160000000004,0.11459160000000004,87.50214575999998,1.7246035799999997,-12.03784758
3.9099999999999993,391,0.025,-1.008,-0.021,-0.11459160000000004,0.4583664000000001,0.11459160000000004,87.50214575999998,1.7246035799999997,-12.032117999999999
3.919999999999999,392,0.023,-1.005,-0.021,0.1718874,0.3437748,0.11459160000000004,87.50214575999998,1.7246035799999997,-12.02638842
3.9299999999999993,393,0.022000000000000002,-1.001,-0.019,0.11459160000000004,0.286479,0.1718874,87.50214575999998,1.7188740000000002,-12.02638842
3.939999999999999,394,0.023,-1.002,-0.017,0.0,0.286479,0.1718874,87.50214575999998,1.7188740000000002,-12.02065884
3.9499999999999993,395,0.025,-1.003,-0.019,-0.2291832000000001,0.1718874,0.057295800000000015,87.50214575999998,1.7188740000000002,-12.02065884
3.959999999999999,396,0.027000000000000003,-1.004,-0.021,-0.1718874,0.057295800000000015,0.0,87.50214575999998,1.7188740000000002,-12.02065884
3.9699999999999993,397,0.027000000000000003,-1.0070000000000001,-0.021,-0.286479,0.0,0.0,87.49641618000004,1.7188740000000002,-12.02065884
3.979999999999999,398,0.026000000000000002,-1.008,-0.019,-0.4583664000000001,0.0,0.0,87.49068659999998,1.7188740000000002,-12.02065884
3.9899999999999993,399,0.024,-1.005,-0.019,-0.5156622000000001,0.11459160000000004,-0.057295800000000015,87.48495702,1.7188740000000002,-12.01492926
3.999999999999999,400,0.023,-1.005,-0.02,-0.40107059999999994,0.3437748,0.0,87.48495702,1.7188740000000002,-12.01492926
4.01,401,0.023,-1.004,-0.021,-0.11459160000000004,0.5156622000000001,0.0,87.48495702,1.7188740000000002,-12.00919968
4.02,402,0.022000000000000002,-1.006,-0.023,0.057295800000000015,0.3437748,0.0,87.48495702,1.7188740000000002,-12.0034701
4.029999999999999,403,0.024,-1.0070000000000001,-0.02,0.2291832000000001,0.11459160000000004,0.0,87.49068659999998,1.7188740000000002,-12.0034701
4.039999999999999,404,0.025,-1.0090000000000001,-0.018000000000000002,0.11459160000000004,-0.11459160000000004,0.0,87.49068659999998,1.7188740000000002,-12.0034701
4.049999999999999,405,0.025,-1.0090000000000001,-0.019,0.057295800000000015,-0.40107059999999994,-0.057295800000000015,87.50214575999998,1.71314442,-12.00919968
4.06,406,0.025,-1.0090000000000001,-0.019,-0.057295800000000015,-0.40107059999999994,-0.057295800000000015,87.50214575999998,1.71314442,-12.01492926
4.069999999999999,407,0.023,-1.01,-0.017,-0.1718874,-0.2291832000000001,-0.057295800000000015,87.49641618000004,1.71314442,-12.01492926
4.079999999999999,408,0.022000000000000002,-1.0090000000000001,-0.016,-0.4583664000000001,0.1718874,0.0,87.49068659999998,1.71314442,-12.01492926
4.089999999999999,409,0.022000000000000002,-1.0070000000000001,-0.019,-0.40107059999999994,0.2291832000000001,0.057295800000000015,87.49068659999998,1.71314442,-12.01492926
4.099999999999999,410,0.022000000000000002,-1.0070000000000001,-0.02,-0.1718874,0.0,0.11459160000000004,87.50214575999998,1.6959556799999995,-12.01492926
4.109999999999999,411,0.021,-1.008,-0.02,-0.1718874,0.057295800000000015,0.0,87.49641618000004,1.6959556799999995,-12.00919968
4.119999999999999,412,0.022000000000000002,-1.0070000000000001,-0.018000000000000002,-0.3437748,0.0,0.057295800000000015,87.49641618000004,1.6959556799999995,-12.00919968
4.129999999999999,413,0.024,-1.005,-0.02,-0.286479,-0.057295800000000015,0.0,87.49068659999998,1.6959556799999995,-12.01492926
4.139999999999999,414,0.027000000000000003,-1.004,-0.022000000000000002,-0.057295800000000015,0.0,0.057295800000000015,87.49068659999998,1.6959556799999995,-12.01492926
4.1499999999999995,415,0.027000000000000003,-1.004,-0.02,0.0,0.0,0.057295800000000015,87.49068659999998,1.73033316,-12.00919968
4.159999999999999,416,0.025,-1.003,-0.019,0.2291832000000001,-0.11459160000000004,0.057295800000000015,87.49641618000004,1.73033316,-12.01492926
4.169999999999999,417,0.024,-1.004,-0.021,0.1718874,-0.11459160000000004,0.057295800000000015,87.49641618000004,1.7246035799999997,-12.01492926
4.179999999999999,418,0.025,-1.006,-0.02,0.11459160000000004,-0.11459160000000004,0.11459160000000004,87.49641618000004,1.7246035799999997,-12.01492926
4.1899999999999995,419,0.024,-1.005,-0.018000000000000002,0.1718874,-0.2291832000000001,0.057295800000000015,87.50214575999998,1.7246035799999997,-12.01492926
4.199999999999999,420,0.023,-1.004,-0.019,0.11459160000000004,-0.1718874,0.0,87.5193345,1.7188740000000002,-12.02065884
4.209999999999999,421,0.024,-1.005,-0.019,-0.057295800000000015,-0.11459160000000004,-0.057295800000000015,87.5193345,1.7188740000000002,-12.02065884
4.219999999999999,422,0.025,-1.006,-0.02,0.0,-0.11459160000000004,0.0,87.5193345,1.7188740000000002,-12.02065884
4.2299999999999995,423,0.024,-1.004,-0.023,0.1718874,-0.1718874,0.0,87.5193345,1.7188740000000002,-12.02638842
4.239999999999999,424,0.024,-1.005,-0.021,0.3437748,-0.057295800000000015,0.0,87.52506408,1.7188740000000002,-12.02638842
4.249999999999999,425,0.023,-1.0070000000000001,-0.018000000000000002,0.286479,-0.057295800000000015,0.0,87.54225282,1.71314442,-12.02638842
4.259999999999999,426,0.025,-1.0070000000000001,-0.019,0.2291832000000001,0.057295800000000015,0.0,87.54225282,1.71314442,-12.02638842
4.27,427,0.026000000000000002,-1.006,-0.02,0.11459160000000004,0.11459160000000004,0.0,87.54798240000002,1.71314442,-12.02638842
4.279999999999999,428,0.026000000000000002,-1.005,-0.021,0.286479,0.1718874,0.0,87.54798240000002,1.71314442,-12.02065884
4.289999999999999,429,0.025,-1.006,-0.021,0.286479,0.0,0.0,87.55371198,1.71314442,-12.02065884
4.299999999999999,430,0.026000000000000002,-1.005,-0.02,0.3437748,-0.1718874,0.057295800000000015,87.55371198,1.71314442,-12.02065884
4.309999999999999,431,0.024,-1.006,-0.02,0.40107059999999994,-0.1718874,0.057295800000000015,87.55944156000002,1.71314442,-12.02638842
4.319999999999999,432,0.024,-1.0070000000000001,-0.021,0.40107059999999994,-0.11459160000000004,0.057295800000000015,87.56517113999998,1.71314442,-12.02638842
4.329999999999999,433,0.023,-1.0070000000000001,-0.019,0.2291832000000001,0.0,0.0,87.56517113999998,1.71314442,-12.02638842
4.339999999999999,434,0.023,-1.0070000000000001,-0.02,0.1718874,0.11459160000000004,-0.057295800000000015,87.57090072000004,1.71314442,-12.02638842
4.349999999999999,435,0.022000000000000002,-1.006,-0.021,0.286479,0.057295800000000015,-0.057295800000000015,87.56517113999998,1.70168526,-12.02638842
4.359999999999999,436,0.022000000000000002,-1.005,-0.022000000000000002,0.1718874,0.057295800000000015,-0.11459160000000004,87.56517113999998,1.70168526,-12.02638842
4.369999999999999,437,0.023,-1.004,-0.02,0.2291832000000001,0.11459160000000004,-0.057295800000000015,87.57090072000004,1.7074148399999998,-12.02065884
4.379999999999999,438,0.024,-1.005,-0.02,0.286479,0.1718874,0.0,87.57090072000004,1.7074148399999998,-12.02065884
4.389999999999999,439,0.025,-1.005,-0.023,0.286479,0.1718874,0.057295800000000015,87.57663029999998,1.70168526,-12.02065884
4.3999999999999995,440,0.025,-1.005,-0.021,0.40107059999999994,0.11459160000000004,0.11459160000000004,87.57663029999998,1.70168526,-12.01492926
4.409999999999999,441,0.023,-1.005,-0.019,0.4583664000000001,-0.11459160000000004,0.057295800000000015,87.58235988,1.70168526,-12.02065884
4.419999999999999,442,0.023,-1.006,-0.018000000000000002,0.2291832000000001,0.0,0.0,87.58235988,1.70168526,-12.02065884
4.429999999999999,443,0.023,-1.005,-0.018000000000000002,0.057295800000000015,0.1718874,0.11459160000000004,87.58235988,1.70168526,-12.01492926
4.4399999999999995,444,0.024,-1.005,-0.018000000000000002,0.1718874,0.2291832000000001,0.11459160000000004,87.58808946,1.6959556799999995,-12.01492926
4.449999999999999,445,0.022000000000000002,-1.006,-0.017,0.40107059999999994,0.11459160000000004,0.1718874,87.59381904,1.6902260999999998,-12.01492926
4.459999999999999,446,0.022000000000000002,-1.005,-0.017,0.3437748,0.2291832000000001,0.2291832000000001,87.59954862,1.6844965200000002,-12.00919968
4.469999999999999,447,0.021,-1.005,-0.017,0.286479,0.5156622000000001,0.1718874,87.6052782,1.6844965200000002,-12.0034701
4.4799999999999995,448,0.023,-1.005,-0.02,0.4583664000000001,0.572958,0.2291832000000001,87.6052782,1.6844965200000002,-11.99774052
4.489999999999999,449,0.024,-1.005,-0.019,0.572958,0.40107059999999994,0.3437748,87.61673736,1.6787669399999998,-11.99201094
4.499999999999999,450,0.026000000000000002,-1.006,-0.02,0.6302538000000001,0.286479,0.3437748,87.61673736,1.6787669399999998,-11.99201094
4.509999999999999,451,0.026000000000000002,-1.0070000000000001,-0.02,0.6302538000000001,0.0,0.286479,87.62246694,1.67303736,-11.99201094
4.519999999999999,452,0.025,-1.006,-0.02,0.6302538000000001,-0.2291832000000001,0.286479,87.62819652,1.67303736,-11.99201094
4.529999999999999,453,0.023,-1.004,-0.019,0.7448454000000001,-0.40107059999999994,0.2291832000000001,87.63965568,1.6673077799999998,-11.99774052
4.539999999999999,454,0.022000000000000002,-1.004,-0.02,0.572958,-0.5156622000000001,0.057295800000000015,87.64538526,1.6673077799999998,-12.0034701
4.549999999999999,455,0.022000000000000002,-1.004,-0.019,0.572958,-0.286479,0.0,87.65111484,1.6673077799999998,-12.0034701
4.559999999999999,456,0.023,-1.006,-0.017,0.5156622000000001,-0.057295800000000015,-0.057295800000000015,87.65684442,1.6673077799999998,-12.0034701
4.569999999999999,457,0.024,-1.006,-0.019,0.40107059999999994,0.11459160000000004,0.0,87.66257399999998,1.6673077799999998,-12.0034701
4.579999999999999,458,0.024,-1.005,-0.019,0.40107059999999994,0.2291832000000001,0.0,87.66257399999998,1.6673077799999998,-12.0034701
4.589999999999999,459,0.024,-1.008,-0.019,0.3437748,0.11459160000000004,0.057295800000000015,87.66830358,1.6615782,-11.99774052
4.599999999999999,460,0.025,-1.0070000000000001,-0.017,0.286479,-0.057295800000000015,0.1718874,87.67403316,1.6673077799999998,-12.0034701
4.609999999999999,461,0.024,-1.011,-0.017,0.1718874,-0.057295800000000015,0.1718874,87.67403316,1.6615782,-12.0034701
4.619999999999999,462,0.024,-1.01,-0.015,-0.11459160000000004,-0.11459160000000004,0.1718874,87.67403316,1.6615782,-12.0034701
4.629999999999999,463,0.026000000000000002,-1.0070000000000001,-0.013000000000000001,-0.286479,-0.1718874,0.1718874,87.66830358,1.6615782,-12.0034701
4.639999999999999,464,0.027999999999999997,-1.0070000000000001,-0.016,-0.3437748,-0.11459160000000004,0.11459160000000004,87.66830358,1.6558486199999998,-12.00919968
4.6499999999999995,465,0.027000000000000003,-1.0070000000000001,-0.013000000000000001,-0.3437748,-0.3437748,0.1718874,87.67403316,1.6615782,-12.00919968
4.659999999999999,466,0.027999999999999997,-1.0090000000000001,-0.011000000000000001,-0.5156622000000001,-0.6302538000000001,0.2291832000000001,87.66830358,1.6615782,-12.01492926
4.669999999999999,467,0.027000000000000003,-1.011,-0.011000000000000001,-0.6875496,-0.7448454000000001,0.286479,87.66257399999998,1.6558486199999998,-12.02065884
4.679999999999999,468,0.025,-1.011,-0.012,-0.8021411999999999,-0.6875496,0.3437748,87.65111484,1.6558486199999998,-12.032117999999999
4.6899999999999995,469,0.024,-1.012,-0.013000000000000001,-0.9740286,-0.572958,0.3437748,87.63965568,1.65011904,-12.03784758
4.699999999999999,470,0.022000000000000002,-1.011,-0.015,-1.0886202,-0.4583664000000001,0.3437748,87.6339261,1.6386598799999998,-12.04357716
4.709999999999999,471,0.02,-1.011,-0.013000000000000001,-1.0886202,-0.057295800000000015,0.286479,87.62246694,1.6386598799999998,-12.04357716
4.719999999999999,472,0.021,-1.012,-0.013000000000000001,-0.9740286,0.0,0.286479,87.61673736,1.6329303,-12.04357716
4.729999999999999,473,0.022000000000000002,-1.01,-0.011000000000000001,-0.9740286,0.11459160000000004,0.286479,87.6052782,1.6329303,-12.03784758
4.739999999999999,474,0.024,-1.0070000000000001,-0.012,-1.0886202,0.2291832000000001,0.2291832000000001,87.59381904,1.6272007199999998,-12.03784758
4.749999999999999,475,0.025,-1.005,-0.016,-1.0886202,0.4583664000000001,0.2291832000000001,87.58235988,1.6272007199999998,-12.032117999999999
4.759999999999999,476,0.027000000000000003,-1.003,-0.016,-0.8021411999999999,0.4583664000000001,0.2291832000000001,87.57663029999998,1.6272007199999998,-12.02638842
4.769999999999999,477,0.025,-1.002,-0.017,-0.4583664000000001,0.1718874,0.3437748,87.57090072000004,1.62147114,-12.02638842
4.779999999999999,478,0.023,-1.003,-0.016,-0.4583664000000001,-0.3437748,0.5156622000000001,87.56517113999998,1.6157415599999996,-12.02638842
4.789999999999999,479,0.02,-1.001,-0.015,-0.4583664000000001,-0.7448454000000001,0.572958,87.55944156000002,1.61001198,-12.03784758
4.799999999999999,480,0.02,-1.004,-0.016,-0.4583664000000001,-0.5156622000000001,0.572958,87.55944156000002,1.6042824000000002,-12.04357716
4.809999999999999,481,0.022000000000000002,-1.0070000000000001,-0.018000000000000002,-0.572958,-0.057295800000000015,0.6302538000000001,87.55371198,1.59855282,-12.04357716
4.819999999999999,482,0.022000000000000002,-1.008,-0.018000000000000002,-0.40107059999999994,0.11459160000000004,0.7448454000000001,87.54798240000002,1.5870936600000003,-12.03784758
4.829999999999999,483,0.022000000000000002,-1.0090000000000001,-0.018000000000000002,-0.1718874,0.11459160000000004,0.6875496,87.54798240000002,1.5813640800000002,-12.03784758
4.839999999999999,484,0.021,-1.0090000000000001,-0.019,-0.1718874,0.11459160000000004,0.7448454000000001,87.54798240000002,1.5756344999999998,-12.03784758
4.849999999999999,485,0.019,-1.008,-0.021,-0.1718874,0.057295800000000015,0.8594370000000001,87.54225282,1.55844576,-12.03784758
4.859999999999999,486,0.02,-1.005,-0.021,-0.11459160000000004,0.057295800000000015,0.9167328000000001,87.53652324,1.5469866,-12.03784758
4.869999999999999,487,0.021,-1.005,-0.023,0.0,0.0,1.0886202,87.53652324,1.53552744,-12.03784758
4.879999999999999,488,0.025,-1.003,-0.022000000000000002,0.0,-0.1718874,1.0313244000000001,87.53652324,1.52979786,-12.03784758
4.889999999999999,489,0.024,-1.003,-0.022000000000000002,0.057295800000000015,-0.4583664000000001,1.145916,87.54225282,1.5183387000000002,-12.04357716
4.8999999999999995,490,0.02,-1.005,-0.021,0.0,-0.3437748,1.0886202,87.54225282,1.50114996,-12.04357716
4.909999999999999,491,0.018000000000000002,-1.002,-0.019,-0.11459160000000004,0.0,1.0886202,87.53652324,1.4896908000000002,-12.04357716
4.919999999999999,492,0.017,-1.0,-0.021,0.057295800000000015,0.1718874,1.2032118,87.54225282,1.4782316400000002,-12.04357716
4.929999999999999,493,0.016,-1.003,-0.019,0.40107059999999994,0.2291832000000001,1.0886202,87.54225282,1.46677248,-12.03784758
4.939999999999999,494,0.013999999999999999,-1.004,-0.015,0.1718874,0.286479,0.9740286,87.54798240000002,1.4610428999999998,-12.03784758
4.949999999999999,495,0.015,-1.003,-0.015,-0.1718874,0.40107059999999994,1.0313244000000001,87.54798240000002,1.44385416,-12.032117999999999
4.959999999999999,496,0.019,-1.004,-0.017,-0.5156622000000001,0.572958,0.9740286,87.54225282,1.432395,-12.02638842
4.969999999999999,497,0.021,-1.005,-0.015,-0.7448454000000001,0.1718874,1.0313244000000001,87.53652324,1.4209358399999998,-12.02065884
4.979999999999999,498,0.02,-1.008,-0.016,-0.286479,0.0,0.286479,87.53079366,1.4209358399999998,-12.02065884
4.989999999999999,499,0.018000000000000002,-1.012,-0.017,-0.3437748,0.286479,0.2291832000000001,87.53079366,1.41520626,-12.02065884
4.999999999999999,500,0.016,-1.014,-0.02,-0.5156622000000001,0.4583664000000001,0.2291832000000001,87.52506408,1.40947668,-12.01492926
5.009999999999999,501,0.015,-1.012,-0.022000000000000002,-0.40107059999999994,0.5156622000000001,0.3437748,87.5193345,1.4037471000000001,-12.00919968
5.019999999999999,502,0.013999999999999999,-1.011,-0.019,-0.057295800000000015,0.286479,0.286479,87.5193345,1.4037471000000001,-12.0034701
5.029999999999999,503,0.013999999999999999,-1.0090000000000001,-0.018000000000000002,0.0,0.286479,0.2291832000000001,87.5193345,1.39801752,-12.0034701
5.039999999999999,504,0.013000000000000001,-1.008,-0.016,0.0,0.2291832000000001,0.11459160000000004,87.5193345,1.39801752,-11.99774052
5.049999999999999,505,0.013999999999999999,-1.008,-0.016,0.11459160000000004,0.0,0.057295800000000015,87.54225282,1.36936962,-11.99774052
5.059999999999999,506,0.013999999999999999,-1.0070000000000001,-0.015,0.3437748,0.057295800000000015,0.0,87.54798240000002,1.36936962,-11.99774052
5.069999999999999,507,0.013000000000000001,-1.0070000000000001,-0.013000000000000001,0.4583664000000001,0.1718874,-0.1718874,87.55371198,1.3750992,-11.99774052
5.079999999999999,508,0.013000000000000001,-1.0070000000000001,-0.012,0.1718874,0.1718874,-0.3437748,87.55371198,1.3750992,-11.99201094
5.089999999999999,509,0.013000000000000001,-1.006,-0.013000000000000001,0.0,0.1718874,-0.286479,87.55371198,1.38082878,-11.99201094
5.099999999999999,510,0.015,-1.005,-0.015,0.0,0.1718874,-0.3437748,87.57090072000004,1.3750992,-11.99201094
5.109999999999999,511,0.015,-1.004,-0.015,0.0,0.0,-0.4583664000000001,87.57090072000004,1.38082878,-11.99201094
5.119999999999999,512,0.015,-1.002,-0.017,-0.11459160000000004,0.0,-0.572958,87.56517113999998,1.38655836,-11.99201094
5.129999999999999,513,0.016,-1.002,-0.018000000000000002,0.0,-0.11459160000000004,-0.5156622000000001,87.56517113999998,1.39228794,-11.99201094
5.139999999999999,514,0.015,-1.003,-0.018000000000000002,0.1718874,-0.1718874,-0.4583664000000001,87.57090072000004,1.39801752,-11.99201094
5.149999999999999,515,0.015,-1.005,-0.015,0.40107059999999994,-0.286479,-0.4583664000000001,87.58235988,1.39228794,-11.99774052
5.159999999999999,516,0.015,-1.005,-0.015,0.5156622000000001,-0.40107059999999994,-0.40107059999999994,87.58808946,1.39228794,-12.0034701
5.169999999999999,517,0.013000000000000001,-1.006,-0.013999999999999999,0.5156622000000001,-0.40107059999999994,-0.3437748,87.59381904,1.39801752,-12.0034701
5.179999999999999,518,0.011000000000000001,-1.006,-0.013000000000000001,0.572958,-0.4583664000000001,-0.40107059999999994,87.59954862,1.4037471000000001,-12.00919968
5.189999999999999,519,0.011000000000000001,-1.008,-0.013000000000000001,0.5156622000000001,-0.40107059999999994,-0.4583664000000001,87.6052782,1.40947668,-12.01492926
5.199999999999999,520,0.011000000000000001,-1.008,-0.013000000000000001,0.3437748,-0.1718874,-0.572958,87.62246694,1.39801752,-12.01492926
5.209999999999999,521,0.013000000000000001,-1.008,-0.013000000000000001,0.11459160000000004,-0.057295800000000015,-0.6302538000000001,87.62246694,1.40947668,-12.02065884
5.219999999999999,522,0.013999999999999999,-1.01,-0.017,0.0,0.057295800000000015,-0.40107059999999994,87.62246694,1.40947668,-12.01492926
5.229999999999999,523,0.013999999999999999,-1.0090000000000001,-0.017,0.0,0.057295800000000015,-0.3437748,87.62246694,1.41520626,-12.01492926
5.239999999999999,524,0.015,-1.0090000000000001,-0.019,-0.057295800000000015,-0.057295800000000015,-0.3437748,87.62246694,1.4209358399999998,-12.02065884
5.249999999999999,525,0.013999999999999999,-1.0090000000000001,-0.019,-0.11459160000000004,0.0,-0.3437748,87.62246694,1.39801752,-12.02065884
5.259999999999999,526,0.013000000000000001,-1.008,-0.018000000000000002,-0.057295800000000015,0.057295800000000015,-0.3437748,87.62246694,1.4037471000000001,-12.01492926
5.269999999999999,527,0.013000000000000001,-1.008,-0.019,0.0,0.1718874,-0.286479,87.62246694,1.40947668,-12.01492926
5.279999999999999,528,0.012,-1.008,-0.017,0.057295800000000015,0.11459160000000004,-0.3437748,87.62246694,1.40947668,-12.01492926
5.289999999999999,529,0.01,-1.0070000000000001,-0.018000000000000002,0.057295800000000015,0.0,-0.4583664000000001,87.62246694,1.41520626,-12.01492926
5.299999999999999,530,0.01,-1.008,-0.016,0.0,-0.11459160000000004,-0.572958,87.6339261,1.39801752,-12.01492926
5.309999999999999,531,0.009000000000000001,-1.008,-0.016,0.0,-0.4583664000000001,-0.8594370000000001,87.6339261,1.4037471000000001,-12.02065884
5.319999999999999,532,0.01,-1.0070000000000001,-0.013000000000000001,0.0,-0.8021411999999999,-0.8594370000000001,87.6339261,1.41520626,-12.032117999999999
5.329999999999999,533,0.009000000000000001,-1.005,-0.012,-0.057295800000000015,-1.0313244000000001,-0.9740286,87.6339261,1.4209358399999998,-12.03784758
5.339999999999999,534,0.008,-1.005,-0.015,-0.11459160000000004,-0.8594370000000001,-1.145916,87.62819652,1.432395,-12.049306740000002
5.349999999999999,535,0.009000000000000001,-1.005,-0.015,-0.2291832000000001,-0.4583664000000001,-1.2605076000000002,87.62819652,1.432395,-12.05503632
5.3599999999999985,536,0.01,-1.004,-0.015,-0.2291832000000001,-0.11459160000000004,-1.2032118,87.62819652,1.44958374,-12.05503632
5.369999999999999,537,0.01,-1.005,-0.013000000000000001,0.057295800000000015,0.1718874,-1.0886202,87.62819652,1.45531332,-12.05503632
5.379999999999999,538,0.012,-1.0090000000000001,-0.012,0.11459160000000004,0.4583664000000001,-1.0886202,87.62819652,1.46677248,-12.049306740000002
5.389999999999999,539,0.012,-1.008,-0.012,0.0,0.3437748,-1.0886202,87.62819652,1.4782316400000002,-12.049306740000002
5.399999999999999,540,0.012,-1.008,-0.012,0.0,0.11459160000000004,-1.0313244000000001,87.63965568,1.47250206,-12.049306740000002
5.409999999999999,541,0.011000000000000001,-1.008,-0.013000000000000001,0.1718874,-0.1718874,-1.0313244000000001,87.64538526,1.48396122,-12.049306740000002
5.419999999999999,542,0.011000000000000001,-1.0090000000000001,-0.013000000000000001,0.057295800000000015,-0.4583664000000001,-1.2605076000000002,87.64538526,1.49542038,-12.05503632
5.429999999999999,543,0.011000000000000001,-1.0090000000000001,-0.012,-0.2291832000000001,-0.40107059999999994,-1.3750992,87.63965568,1.51260912,-12.0607659
5.439999999999999,544,0.009000000000000001,-1.0090000000000001,-0.011000000000000001,-0.2291832000000001,-0.5156622000000001,-1.4896908000000002,87.63965568,1.52406828,-12.06649548
5.449999999999999,545,0.009000000000000001,-1.0090000000000001,-0.013999999999999999,-0.286479,-0.6302538000000001,-1.6042823999999998,87.63965568,1.52979786,-12.07222506
5.459999999999999,546,0.008,-1.0070000000000001,-0.013999999999999999,-0.40107059999999994,-0.40107059999999994,-1.6042823999999998,87.6339261,1.5469866,-12.07795464
5.469999999999999,547,0.01,-1.008,-0.016,-0.40107059999999994,-0.057295800000000015,-1.6042823999999998,87.62819652,1.56417534,-12.07795464
5.479999999999999,548,0.012,-1.008,-0.015,-0.4583664000000001,0.0,-1.5469866,87.62819652,1.5756344999999998,-12.07795464
5.489999999999999,549,0.012,-1.0070000000000001,-0.013999999999999999,-0.2291832000000001,-0.1718874,-1.4896908000000002,87.62246694,1.59282324,-12.08368422
5.499999999999999,550,0.012,-1.0070000000000001,-0.013999999999999999,-0.1718874,-0.1718874,-1.432395,87.62819652,1.59282324,-12.08368422
5.509999999999999,551,0.011000000000000001,-1.008,-0.015,-0.3437748,0.0,-1.4896908000000002,87.62246694,1.6042824000000002,-12.08368422
5.519999999999999,552,0.013000000000000001,-1.006,-0.016,-0.4583664000000001,0.0,-1.4896908000000002,87.61673736,1.62147114,-12.0894138
5.529999999999999,553,0.015,-1.003,-0.015,-0.286479,0.0,-1.5469866,87.61673736,1.6386598799999998,-12.0894138
5.539999999999999,554,0.016,-1.005,-0.013999999999999999,-0.286479,-0.1718874,-1.6615782,87.61100778,1.65011904,-12.0894138
5.549999999999999,555,0.017,-1.005,-0.013999999999999999,-0.4583664000000001,-0.3437748,-1.8334656000000005,87.61100778,1.6615782,-12.09514338
5.559999999999999,556,0.017,-1.004,-0.016,-0.4583664000000001,-0.5156622000000001,-1.8907614,87.6052782,1.6844965200000002,-12.10087296
5.5699999999999985,557,0.017,-1.004,-0.02,-0.3437748,-0.7448454000000001,-1.8907614,87.59954862,1.70168526,-12.11233212
5.579999999999999,558,0.017,-1.005,-0.018000000000000002,-0.3437748,-0.6302538000000001,-1.8334656000000005,87.59381904,1.7188740000000002,-12.118061700000002
5.589999999999999,559,0.017,-1.005,-0.013999999999999999,-0.2291832000000001,-0.5156622000000001,-1.8907614,87.59381904,1.73606274,-12.12379128
5.599999999999999,560,0.016,-1.006,-0.013999999999999999,-0.3437748,-0.6302538000000001,-1.9480572,87.59381904,1.75325148,-12.12952086
5.6099999999999985,561,0.018000000000000002,-1.0070000000000001,-0.013999999999999999,-0.2291832000000001,-0.8021411999999999,-1.8907614,87.59381904,1.77044022,-12.14098002
5.619999999999999,562,0.019,-1.0090000000000001,-0.017,-0.2291832000000001,-0.9740286,-1.9480572,87.58808946,1.78762896,-12.15243918
5.629999999999999,563,0.017,-1.011,-0.018000000000000002,-0.40107059999999994,-0.7448454000000001,-2.0053530000000004,87.58235988,1.81054728,-12.15816876
5.639999999999999,564,0.016,-1.011,-0.016,-0.286479,-0.2291832000000001,-2.0053530000000004,87.58235988,1.82773602,-12.16389834
5.649999999999999,565,0.015,-1.011,-0.013000000000000001,-0.286479,0.11459160000000004,-1.9480572,87.58235988,1.8334656000000005,-12.16389834
5.659999999999999,566,0.016,-1.0090000000000001,-0.013000000000000001,-0.3437748,0.2291832000000001,-2.0626488000000003,87.58235988,1.85638392,-12.15816876
5.669999999999999,567,0.017,-1.005,-0.013999999999999999,-0.5156622000000001,0.0,-2.1199446,87.57663029999998,1.87930224,-12.16389834
5.679999999999999,568,0.02,-1.003,-0.013000000000000001,-0.6302538000000001,-0.11459160000000004,-2.1772404,87.56517113999998,1.89649098,-12.16389834
5.689999999999999,569,0.023,-1.004,-0.012,-0.5156622000000001,-0.2291832000000001,-2.2345362,87.55944156000002,1.9194093000000003,-12.16962792
5.699999999999999,570,0.024,-1.006,-0.013999999999999999,-0.40107059999999994,-0.5156622000000001,-1.6615782,87.56517113999998,1.93086846,-12.1753575
5.709999999999999,571,0.023,-1.008,-0.017,-0.2291832000000001,-0.8594370000000001,-0.286479,87.56517113999998,1.93659804,-12.18108708
5.719999999999999,572,0.023,-1.0090000000000001,-0.015,-0.057295800000000015,-1.4896908000000002,-0.2291832000000001,87.55944156000002,1.93659804,-12.19827582
5.729999999999999,573,0.024,-1.013,-0.013000000000000001,0.0,-1.6615782,-0.3437748,87.55944156000002,1.94232762,-12.21546456
5.739999999999999,574,0.025,-1.013,-0.015,-0.2291832000000001,-1.2032118,-0.40107059999999994,87.55944156000002,1.94232762,-12.226923719999998
5.749999999999999,575,0.025,-1.008,-0.016,-0.3437748,-0.6302538000000001,-0.286479,87.55944156000002,1.93659804,-12.2326533
5.759999999999999,576,0.021,-1.003,-0.015,-0.3437748,-0.286479,-0.2291832000000001,87.55944156000002,1.94232762,-12.23838288
5.769999999999999,577,0.019,-1.0,-0.016,-0.1718874,-0.1718874,-0.057295800000000015,87.55371198,1.94232762,-12.23838288
5.7799999999999985,578,0.02,-1.0,-0.015,-0.11459160000000004,0.0,-0.057295800000000015,87.55371198,1.94232762,-12.23838288
5.789999999999999,579,0.023,-1.001,-0.015,-0.11459160000000004,0.0,0.0,87.55371198,1.94232762,-12.23838288
5.799999999999999,580,0.027999999999999997,-1.001,-0.016,-0.1718874,0.0,0.11459160000000004,87.55944156000002,1.93659804,-12.23838288
5.809999999999999,581,0.028999999999999998,-1.002,-0.017,-0.2291832000000001,-0.11459160000000004,0.11459160000000004,87.55944156000002,1.93659804,-12.23838288
5.8199999999999985,582,0.027999999999999997,-1.004,-0.013999999999999999,-0.286479,-0.3437748,0.11459160000000004,87.55371198,1.93659804,-12.24411246
5.829999999999999,583,0.024,-1.003,-0.013999999999999999,-0.286479,-0.4583664000000001,0.286479,87.55371198,1.93086846,-12.24411246
5.839999999999999,584,0.022000000000000002,-1.002,-0.016,0.0,-0.286479,0.11459160000000004,87.55371198,1.93086846,-12.24984204
5.849999999999999,585,0.019,-1.001,-0.016,0.286479,-0.286479,0.057295800000000015,87.56517113999998,1.90795014,-12.25557162
5.8599999999999985,586,0.019,-1.002,-0.017,0.5156622000000001,-0.3437748,0.0,87.57090072000004,1.90795014,-12.25557162
5.869999999999999,587,0.022000000000000002,-1.004,-0.019,0.8594370000000001,-0.3437748,-0.057295800000000015,87.57663029999998,1.91367972,-12.261301200000002
5.879999999999999,588,0.025,-1.006,-0.022000000000000002,1.0886202,-0.40107059999999994,0.0,87.58808946,1.91367972,-12.26703078
5.889999999999999,589,0.027000000000000003,-1.008,-0.019,1.2032118,-0.40107059999999994,0.057295800000000015,87.59954862,1.90795014,-12.26703078
5.899999999999999,590,0.027999999999999997,-1.008,-0.017,1.145916,-0.4583664000000001,0.1718874,87.61673736,1.90222056,-12.27276036
5.909999999999999,591,0.027000000000000003,-1.008,-0.018000000000000002,1.0313244000000001,-0.5156622000000001,0.3437748,87.62819652,1.90222056,-12.278489939999998
5.919999999999999,592,0.024,-1.008,-0.019,1.0886202,-0.3437748,0.4583664000000001,87.63965568,1.89649098,-12.28421952
5.929999999999999,593,0.024,-1.006,-0.018000000000000002,1.0313244000000001,0.0,0.5156622000000001,87.65111484,1.8907614,-12.278489939999998
5.939999999999999,594,0.024,-1.005,-0.02,1.2032118,-0.057295800000000015,0.572958,87.66257399999998,1.88503182,-12.28421952
5.949999999999999,595,0.024,-1.005,-0.018000000000000002,1.2032118,-0.1718874,0.5156622000000001,87.67976274,1.87930224,-12.28421952
5.959999999999999,596,0.026000000000000002,-1.006,-0.016,1.2605076000000002,0.057295800000000015,0.4583664000000001,87.69122189999999,1.87357266,-12.28421952
5.969999999999999,597,0.027000000000000003,-1.0070000000000001,-0.017,0.9167328000000001,0.40107059999999994,0.40107059999999994,87.70268106,1.86784308,-12.278489939999998
5.979999999999999,598,0.027000000000000003,-1.006,-0.017,0.8021411999999999,0.4583664000000001,0.40107059999999994,87.70841064,1.8621134999999998,-12.27276036
5.989999999999998,599,0.027000000000000003,-1.006,-0.018000000000000002,0.8021411999999999,0.4583664000000001,0.40107059999999994,87.7198698,1.8621134999999998,-12.26703078
5.999999999999999,600,0.027000000000000003,-1.004,-0.017,0.8594370000000001,0.286479,0.40107059999999994,87.72559937999998,1.85638392,-12.26703078
6.009999999999999,601,0.026000000000000002,-1.005,-0.015,0.9167328000000001,0.057295800000000015,0.5156622000000001,87.73705853999998,1.85065434,-12.261301200000002
6.019999999999999,602,0.027000000000000003,-1.005,-0.013999999999999999,0.8021411999999999,0.1718874,0.4583664000000001,87.74278812,1.84492476,-12.261301200000002
6.0299999999999985,603,0.027000000000000003,-1.005,-0.013999999999999999,0.9167328000000001,0.286479,0.40107059999999994,87.75424728,1.83919518,-12.25557162
6.039999999999999,604,0.027999999999999997,-1.005,-0.015,1.0313244000000001,0.3437748,0.286479,87.76570644,1.83919518,-12.25557162
6.049999999999999,605,0.026000000000000002,-1.006,-0.013000000000000001,1.0886202,0.40107059999999994,0.3437748,87.78289518,1.8334656000000005,-12.24984204
6.059999999999999,606,0.027000000000000003,-1.006,-0.011000000000000001,1.0313244000000001,0.3437748,0.3437748,87.79435434000001,1.82773602,-12.24411246
6.0699999999999985,607,0.027999999999999997,-1.004,-0.008,1.0313244000000001,0.5156622000000001,0.4583664000000001,87.8058135,1.82773602,-12.23838288
6.079999999999999,608,0.027999999999999997,-1.003,-0.008,1.0886202,0.572958,0.572958,87.81727266,1.82200644,-12.2326533
6.089999999999999,609,0.028999999999999998,-1.005,-0.006,1.3178034,0.4583664000000001,0.7448454000000001,87.82873182,1.81054728,-12.226923719999998
6.099999999999999,610,0.026000000000000002,-1.0070000000000001,-0.008,1.2032118,0.4583664000000001,0.8021411999999999,87.84592056,1.79908812,-12.22119414
6.1099999999999985,611,0.025,-1.008,-0.01,1.145916,0.4583664000000001,0.8021411999999999,87.8631093,1.7933585399999998,-12.21546456
6.119999999999999,612,0.025,-1.0090000000000001,-0.008,1.0886202,0.6875496,0.7448454000000001,87.87456846,1.78762896,-12.20973498
6.129999999999999,613,0.025,-1.008,-0.006,0.9167328000000001,0.9167328000000001,0.6302538000000001,87.88029803999999,1.78189938,-12.19827582
6.139999999999999,614,0.027000000000000003,-1.0070000000000001,-0.006,0.7448454000000001,1.0313244000000001,0.6875496,87.8917572,1.77044022,-12.19254624
6.149999999999999,615,0.028999999999999998,-1.005,-0.006,0.8594370000000001,0.7448454000000001,0.7448454000000001,87.90894594,1.77044022,-12.18108708
6.159999999999999,616,0.031,-1.005,-0.009000000000000001,1.0886202,0.5156622000000001,0.8021411999999999,87.92040510000002,1.75898106,-12.1753575
6.169999999999999,617,0.03,-1.0070000000000001,-0.012,1.145916,0.4583664000000001,0.9167328000000001,87.93186426,1.75325148,-12.16962792
6.179999999999999,618,0.027999999999999997,-1.0090000000000001,-0.009000000000000001,1.0313244000000001,0.3437748,1.0886202,87.94332342,1.74179232,-12.16389834
6.189999999999999,619,0.025,-1.0070000000000001,-0.008,1.145916,0.1718874,1.2032118,87.95478258,1.73033316,-12.16389834
6.199999999999998,620,0.025,-1.0090000000000001,-0.006999999999999999,1.2032118,0.1718874,1.0313244000000001,87.97197132,1.7188740000000002,-12.16389834
6.209999999999999,621,0.026000000000000002,-1.011,-0.008,0.9167328000000001,0.40107059999999994,0.9167328000000001,87.98343048000002,1.7074148399999998,-12.15816876
6.219999999999999,622,0.027000000000000003,-1.008,-0.006999999999999999,0.8021411999999999,0.6875496,0.8021411999999999,87.99488964000004,1.70168526,-12.1467096
6.229999999999999,623,0.028999999999999998,-1.006,-0.009000000000000001,0.9167328000000001,0.9167328000000001,0.7448454000000001,88.00061922,1.6959556799999995,-12.14098002
6.239999999999998,624,0.028999999999999998,-1.005,-0.011000000000000001,0.9740286,0.9740286,0.9167328000000001,88.01207838,1.6844965200000002,-12.12952086
6.249999999999999,625,0.027000000000000003,-1.005,-0.01,1.0313244000000001,0.6302538000000001,0.9167328000000001,88.02926712000001,1.6787669399999998,-12.12379128
6.259999999999999,626,0.025,-1.006,-0.006999999999999999,0.8594370000000001,0.4583664000000001,0.9167328000000001,88.04072628,1.6673077799999998,-12.118061700000002
6.269999999999999,627,0.025,-1.0070000000000001,-0.008,-0.11459160000000004,0.11459160000000004,0.4583664000000001,88.03499670000002,1.6673077799999998,-12.11233212
6.2799999999999985,628,0.027000000000000003,-1.008,-0.01,-0.572958,0.2291832000000001,0.2291832000000001,88.02926712000001,1.6615782,-12.11233212
6.289999999999999,629,0.028999999999999998,-1.008,-0.013000000000000001,-0.8021411999999999,0.11459160000000004,0.1718874,88.02353753999998,1.6615782,-12.11233212
6.299999999999999,630,0.027999999999999997,-1.006,-0.011000000000000001,-0.6875496,0.11459160000000004,0.2291832000000001,88.01780796,1.6673077799999998,-12.11233212
6.309999999999999,631,0.027000000000000003,-1.005,-0.006999999999999999,-0.6875496,0.3437748,0.286479,88.01207838,1.6615782,-12.10660254
6.3199999999999985,632,0.026000000000000002,-1.005,-0.009000000000000001,-0.6302538000000001,0.4583664000000001,0.4583664000000001,88.0063488,1.6558486199999998,-12.10087296
6.329999999999999,633,0.027000000000000003,-1.005,-0.01,-0.5156622000000001,0.3437748,0.4583664000000001,88.00061922,1.65011904,-12.09514338
6.339999999999999,634,0.027999999999999997,-1.0070000000000001,-0.008,-0.5156622000000001,0.1718874,0.5156622000000001,87.99488964000004,1.64438946,-12.09514338
6.349999999999999,635,0.028999999999999998,-1.0070000000000001,-0.006999999999999999,-0.6302538000000001,0.0,0.6302538000000001,88.00061922,1.65011904,-12.09514338
6.3599999999999985,636,0.028999999999999998,-1.006,-0.006,-0.7448454000000001,0.0,0.6302538000000001,87.98916005999996,1.64438946,-12.09514338
6.369999999999999,637,0.031,-1.006,-0.008,-0.5156622000000001,-0.11459160000000004,0.4583664000000001,87.98343048000002,1.6386598799999998,-12.09514338
6.379999999999999,638,0.03,-1.005,-0.009000000000000001,-0.286479,-0.286479,0.4583664000000001,87.98343048000002,1.6386598799999998,-12.10087296
6.389999999999999,639,0.027999999999999997,-1.006,-0.009000000000000001,-0.286479,-0.2291832000000001,0.40107059999999994,87.9777009,1.6329303,-12.10087296
6.399999999999999,640,0.025,-1.008,-0.006,-0.2291832000000001,-0.3437748,0.3437748,87.99488964000004,1.6329303,-12.10660254
6.409999999999998,641,0.026000000000000002,-1.0090000000000001,-0.005,-0.40107059999999994,-0.3437748,0.3437748,87.98916005999996,1.6272007199999998,-12.10660254
6.419999999999999,642,0.026000000000000002,-1.01,-0.006999999999999999,-0.572958,-0.286479,0.40107059999999994,87.98343048000002,1.62147114,-12.11233212
6.429999999999999,643,0.027000000000000003,-1.008,-0.006,-0.5156622000000001,-0.286479,0.5156622000000001,87.9777009,1.6157415599999996,-12.11233212
6.439999999999999,644,0.026000000000000002,-1.008,-0.006,-0.6875496,-0.11459160000000004,0.40107059999999994,87.97197132,1.6157415599999996,-12.118061700000002
6.449999999999998,645,0.027000000000000003,-1.008,-0.006999999999999999,-0.5156622000000001,0.0,0.40107059999999994,87.9777009,1.6272007199999998,-12.118061700000002
6.459999999999999,646,0.027999999999999997,-1.0090000000000001,-0.006999999999999999,-0.572958,0.057295800000000015,0.40107059999999994,87.97197132,1.62147114,-12.11233212
6.469999999999999,647,0.027000000000000003,-1.0070000000000001,-0.004,-0.6302538000000001,-0.057295800000000015,0.286479,87.96624174,1.62147114,-12.11233212
6.479999999999999,648,0.027000000000000003,-1.005,-0.004,-0.7448454000000001,0.0,0.057295800000000015,87.96051216,1.6157415599999996,-12.11233212
6.489999999999998,649,0.028999999999999998,-1.001,-0.006999999999999999,-0.6302538000000001,0.11459160000000004,0.057295800000000015,87.94905299999998,1.6157415599999996,-12.11233212
6.499999999999999,650,0.028999999999999998,-1.001,-0.01,-0.4583664000000001,0.0,0.1718874,87.94905299999998,1.6329303,-12.11233212
6.509999999999999,651,0.027000000000000003,-1.0090000000000001,-0.009000000000000001,-0.3437748,-0.572958,0.2291832000000001,87.94905299999998,1.6272007199999998,-12.118061700000002
6.519999999999999,652,0.026000000000000002,-1.0170000000000001,-0.002,-0.5156622000000001,-0.9740286,0.2291832000000001,87.94332342,1.6272007199999998,-12.12952086
6.5299999999999985,653,0.027999999999999997,-1.018,0.0,-0.7448454000000001,-0.8594370000000001,0.11459160000000004,87.93186426,1.6272007199999998,-12.135250439999998
6.539999999999999,654,0.031,-1.016,-0.004,-0.9740286,-0.6875496,0.1718874,87.92613467999998,1.62147114,-12.14098002
6.549999999999999,655,0.031,-1.014,-0.006,-1.0886202,-0.5156622000000001,0.2291832000000001,87.92613467999998,1.6272007199999998,-12.1467096
6.559999999999999,656,0.025,-1.0070000000000001,-0.006,-1.0313244000000001,-0.3437748,0.3437748,87.91467551999996,1.62147114,-12.15243918
6.5699999999999985,657,0.02,-1.003,-0.009000000000000001,-0.8021411999999999,-0.286479,0.4583664000000001,87.90894594,1.62147114,-12.15816876
6.579999999999999,658,0.018000000000000002,-1.001,-0.008,-0.40107059999999994,0.0,0.2291832000000001,87.90321636,1.6157415599999996,-12.15816876
6.589999999999999,659,0.021,-1.0,-0.006999999999999999,-0.4583664000000001,0.0,0.057295800000000015,87.89748678,1.6157415599999996,-12.15816876
6.599999999999999,660,0.025,-1.0,-0.006999999999999999,-0.40107059999999994,0.057295800000000015,0.0,87.91467551999996,1.6272007199999998,-12.15243918
6.6099999999999985,661,0.027000000000000003,-1.001,-0.008,-0.286479,0.0,-0.057295800000000015,87.91467551999996,1.6272007199999998,-12.15243918
6.619999999999999,662,0.027000000000000003,-1.001,-0.008,-0.2291832000000001,-0.11459160000000004,0.0,87.90894594,1.6272007199999998,-12.15816876
6.629999999999999,663,0.026000000000000002,-1.003,-0.008,-0.1718874,-0.057295800000000015,0.0,87.90894594,1.6272007199999998,-12.15816876
6.639999999999999,664,0.026000000000000002,-1.004,-0.009000000000000001,-0.2291832000000001,0.0,0.0,87.90321636,1.6272007199999998,-12.15816876
6.649999999999999,665,0.025,-1.003,-0.009000000000000001,-0.11459160000000004,-0.057295800000000015,0.057295800000000015,87.93759384,1.65011904,-12.15816876
6.659999999999998,666,0.024,-1.004,-0.012,0.0,-0.11459160000000004,0.11459160000000004,87.93759384,1.65011904,-12.15816876
6.669999999999999,667,0.024,-1.006,-0.012,-0.057295800000000015,-0.057295800000000015,0.11459160000000004,87.93759384,1.64438946,-12.15816876
6.679999999999999,668,0.024,-1.006,-0.01,0.057295800000000015,0.0,0.057295800000000015,87.93759384,1.64438946,-12.15816876
6.689999999999999,669,0.024,-1.0070000000000001,-0.009000000000000001,0.1718874,-0.057295800000000015,0.0,87.93759384,1.64438946,-12.15816876
6.699999999999998,670,0.024,-1.0090000000000001,-0.009000000000000001,0.1718874,-0.057295800000000015,0.057295800000000015,87.96624174,1.6558486199999998,-12.15816876
6.709999999999999,671,0.025,-1.0090000000000001,-0.011000000000000001,0.057295800000000015,0.0,0.0,87.97197132,1.6558486199999998,-12.15816876
6.719999999999999,672,0.024,-1.008,-0.01,-0.11459160000000004,0.1718874,0.0,87.96624174,1.6558486199999998,-12.15816876
6.729999999999999,673,0.023,-1.006,-0.012,-0.057295800000000015,0.572958,0.0,87.96624174,1.6558486199999998,-12.15243918
6.739999999999998,674,0.023,-1.005,-0.011000000000000001,-0.057295800000000015,0.572958,0.0,87.96624174,1.6558486199999998,-12.1467096
6.749999999999999,675,0.026000000000000002,-1.006,-0.01,-0.057295800000000015,0.3437748,0.0,87.98343048000002,1.6673077799999998,-12.14098002
6.759999999999999,676,0.027000000000000003,-1.006,-0.01,-0.11459160000000004,0.0,0.0,87.98343048000002,1.6673077799999998,-12.14098002
6.769999999999999,677,0.027999999999999997,-1.0070000000000001,-0.011000000000000001,-0.2291832000000001,-0.1718874,-0.1718874,87.9777009,1.67303736,-12.14098002
6.7799999999999985,678,0.03,-1.006,-0.012,-0.40107059999999994,-0.2291832000000001,-0.11459160000000004,87.9777009,1.67303736,-12.1467096
6.789999999999999,679,0.028999999999999998,-1.004,-0.012,-0.2291832000000001,-0.4583664000000001,-0.1718874,87.97197132,1.67303736,-12.15243918
6.799999999999999,680,0.026000000000000002,-1.004,-0.012,0.057295800000000015,-0.6875496,-0.1718874,87.97197132,1.6787669399999998,-12.15816876
6.809999999999999,681,0.024,-1.003,-0.01,0.0,-0.572958,-0.2291832000000001,87.97197132,1.6844965200000002,-12.16389834
6.8199999999999985,682,0.023,-1.0,-0.006999999999999999,0.11459160000000004,-0.5156622000000001,-0.2291832000000001,87.9777009,1.6844965200000002,-12.16962792
6.829999999999999,683,0.023,-0.9990000000000001,-0.009000000000000001,0.3437748,-0.4583664000000001,-0.3437748,87.9777009,1.6902260999999998,-12.1753575
6.839999999999999,684,0.024,-1.001,-0.01,0.4583664000000001,-0.057295800000000015,-0.40107059999999994,87.98343048000002,1.6959556799999995,-12.1753575
6.849999999999999,685,0.026000000000000002,-1.002,-0.01,0.4583664000000001,0.0,-0.286479,88.00061922,1.7074148399999998,-12.1753575
6.8599999999999985,686,0.025,-1.005,-0.009000000000000001,0.40107059999999994,-0.057295800000000015,-0.2291832000000001,88.00061922,1.7074148399999998,-12.1753575
6.869999999999998,687,0.024,-1.0070000000000001,-0.006,0.3437748,0.0,-0.2291832000000001,88.0063488,1.71314442,-12.1753575
6.879999999999999,688,0.024,-1.01,-0.006999999999999999,0.2291832000000001,-0.057295800000000015,-0.11459160000000004,88.01207838,1.71314442,-12.1753575
6.889999999999999,689,0.023,-1.013,-0.009000000000000001,0.0,-0.1718874,-0.2291832000000001,88.01207838,1.7188740000000002,-12.1753575
6.899999999999999,690,0.024,-1.012,-0.006999999999999999,0.0,-0.286479,-0.1718874,88.02926712000001,1.71314442,-12.18108708
6.909999999999998,691,0.023,-1.013,-0.004,0.0,-0.2291832000000001,-0.2291832000000001,88.02926712000001,1.7188740000000002,-12.18108708
6.919999999999999,692,0.025,-1.012,-0.006,0.0,-0.057295800000000015,-0.2291832000000001,88.02926712000001,1.7188740000000002,-12.18108708
6.929999999999999,693,0.025,-1.011,-0.006999999999999999,0.0,0.1718874,-0.2291832000000001,88.02926712000001,1.7188740000000002,-12.18108708
6.939999999999999,694,0.025,-1.0090000000000001,-0.005,-0.11459160000000004,0.286479,-0.1718874,88.02926712000001,1.7246035799999997,-12.1753575
6.949999999999998,695,0.025,-1.0070000000000001,-0.006,-0.11459160000000004,0.286479,-0.11459160000000004,88.0636446,1.7246035799999997,-12.1753575
6.959999999999999,696,0.025,-1.004,-0.006999999999999999,0.0,0.1718874,0.0,88.0636446,1.7246035799999997,-12.16962792
6.969999999999999,697,0.026000000000000002,-1.005,-0.009000000000000001,0.057295800000000015,0.0,-0.057295800000000015,88.0636446,1.7246035799999997,-12.16962792
6.979999999999999,698,0.024,-1.005,-0.008,0.057295800000000015,-0.1718874,-0.057295800000000015,88.0636446,1.7246035799999997,-12.1753575
6.989999999999998,699,0.024,-1.005,-0.006,0.1718874,-0.11459160000000004,0.0,88.0636446,1.7246035799999997,-12.1753575
6.999999999999999,700,0.025,-1.005,-0.006,0.1718874,0.0,0.0,88.08656292,1.7246035799999997,-12.1753575
7.009999999999999,701,0.026000000000000002,-1.005,-0.008,0.11459160000000004,0.1718874,0.057295800000000015,88.0922925,1.7188740000000002,-12.1753575
7.019999999999999,702,0.026000000000000002,-1.005,-0.008,0.0,0.1718874,0.057295800000000015,88.0922925,1.7188740000000002,-12.16962792
7.0299999999999985,703,0.026000000000000002,-1.004,-0.006999999999999999,0.0,0.2291832000000001,0.057295800000000015,88.0922925,1.7188740000000002,-12.16962792
7.039999999999999,704,0.027000000000000003,-1.005,-0.006,0.057295800000000015,0.2291832000000001,0.11459160000000004,88.0922925,1.7188740000000002,-12.16389834
7.049999999999999,705,0.026000000000000002,-1.006,-0.009000000000000001,0.11459160000000004,0.3437748,0.057295800000000015,88.09802207999998,1.7188740000000002,-12.16389834
7.059999999999999,706,0.026000000000000002,-1.0070000000000001,-0.011000000000000001,0.0,0.40107059999999994,0.11459160000000004,88.09802207999998,1.7188740000000002,-12.15816876
7.0699999999999985,707,0.026000000000000002,-1.008,-0.01,0.0,0.4583664000000001,0.11459160000000004,88.09802207999998,1.7188740000000002,-12.15243918
7.079999999999998,708,0.027000000000000003,-1.0090000000000001,-0.009000000000000001,0.057295800000000015,0.4583664000000001,0.057295800000000015,88.09802207999998,1.71314442,-12.1467096
7.089999999999999,709,0.027000000000000003,-1.0090000000000001,-0.009000000000000001,0.0,0.3437748,0.057295800000000015,88.09802207999998,1.71314442,-12.1467096
7.099999999999999,710,0.027999999999999997,-1.008,-0.01,-0.2291832000000001,0.2291832000000001,0.11459160000000004,88.09802207999998,1.7188740000000002,-12.14098002
7.1099999999999985,711,0.026000000000000002,-1.0070000000000001,-0.009000000000000001,-0.057295800000000015,0.0,0.11459160000000004,88.0922925,1.7188740000000002,-12.14098002
7.119999999999998,712,0.026000000000000002,-1.0070000000000001,-0.009000000000000001,0.0,-0.2291832000000001,0.057295800000000015,88.09802207999998,1.7188740000000002,-12.14098002
7.129999999999999,713,0.024,-1.008,-0.009000000000000001,0.057295800000000015,-0.11459160000000004,0.0,88.09802207999998,1.7188740000000002,-12.1467096
7.139999999999999,714,0.023,-1.0070000000000001,-0.008,0.0,0.0,0.0,88.09802207999998,1.7188740000000002,-12.1467096
7.149999999999999,715,0.024,-1.0070000000000001,-0.006999999999999999,0.0,0.0,0.0,88.13812913999998,1.7188740000000002,-12.1467096
7.159999999999998,716,0.023,-1.0070000000000001,-0.009000000000000001,-0.057295800000000015,-0.057295800000000015,0.0,88.13812913999998,1.7188740000000002,-12.1467096
7.169999999999999,717,0.023,-1.008,-0.009000000000000001,-0.11459160000000004,-0.11459160000000004,0.0,88.13812913999998,1.7188740000000002,-12.1467096
7.179999999999999,718,0.023,-1.0070000000000001,-0.01,-0.11459160000000004,-0.057295800000000015,0.057295800000000015,88.13812913999998,1.7188740000000002,-12.1467096
7.189999999999999,719,0.024,-1.008,-0.008,0.0,-0.057295800000000015,0.1718874,88.13812913999998,1.71314442,-12.1467096
7.199999999999998,720,0.024,-1.008,-0.006999999999999999,0.0,0.057295800000000015,0.2291832000000001,88.13812913999998,1.7074148399999998,-12.1467096
7.209999999999999,721,0.023,-1.004,-0.009000000000000001,-0.286479,0.286479,0.11459160000000004,88.13812913999998,1.70168526,-12.1467096
7.219999999999999,722,0.023,-1.003,-0.009000000000000001,-0.2291832000000001,0.4583664000000001,0.0,88.13239956,1.70168526,-12.14098002
7.229999999999999,723,0.022000000000000002,-1.002,-0.01,-0.1718874,0.6875496,0.0,88.13239956,1.70168526,-12.12952086
7.239999999999998,724,0.022000000000000002,-1.003,-0.01,-0.11459160000000004,0.6875496,0.0,88.13239956,1.70168526,-12.12379128
7.249999999999999,725,0.023,-1.005,-0.008,0.0,0.1718874,0.057295800000000015,88.13239956,1.6787669399999998,-12.12379128
7.259999999999999,726,0.023,-1.0070000000000001,-0.006999999999999999,-0.057295800000000015,-0.3437748,0.0,88.12666998,1.6787669399999998,-12.12952086
7.269999999999999,727,0.024,-1.006,-0.006999999999999999,0.0,-0.6302538000000001,-0.057295800000000015,88.12666998,1.6787669399999998,-12.135250439999998
7.2799999999999985,728,0.027000000000000003,-1.006,-0.01,0.0,-0.6302538000000001,-0.2291832000000001,88.12666998,1.6844965200000002,-12.14098002
7.289999999999998,729,0.027999999999999997,-1.005,-0.012,0.11459160000000004,-0.4583664000000001,-0.1718874,88.13239956,1.6844965200000002,-12.1467096
7.299999999999999,730,0.027000000000000003,-1.0070000000000001,-0.012,0.5156622000000001,-0.572958,-0.057295800000000015,88.13239956,1.6959556799999995,-12.15243918
7.309999999999999,731,0.026000000000000002,-1.008,-0.008,0.4583664000000001,-0.5156622000000001,0.0,88.13812913999998,1.6959556799999995,-12.15816876
7.3199999999999985,732,0.025,-1.008,-0.008,0.3437748,-0.286479,0.0,88.13812913999998,1.6959556799999995,-12.15816876
7.329999999999998,733,0.024,-1.01,-0.006999999999999999,0.3437748,-0.2291832000000001,0.0,88.14385872,1.6959556799999995,-12.16389834
7.339999999999999,734,0.024,-1.01,-0.008,0.11459160000000004,-0.11459160000000004,0.0,88.14385872,1.6959556799999995,-12.16389834
7.349999999999999,735,0.024,-1.0090000000000001,-0.006999999999999999,0.0,-0.11459160000000004,0.0,88.14958829999998,1.70168526,-12.16389834
7.3599999999999985,736,0.027000000000000003,-1.008,-0.006999999999999999,0.2291832000000001,-0.057295800000000015,0.0,88.15531788,1.70168526,-12.16389834
7.369999999999998,737,0.027000000000000003,-1.0070000000000001,-0.006999999999999999,0.2291832000000001,-0.057295800000000015,0.0,88.15531788,1.70168526,-12.16389834
7.379999999999999,738,0.025,-1.0070000000000001,-0.008,0.11459160000000004,-0.2291832000000001,0.0,88.16104745999998,1.70168526,-12.16962792
7.389999999999999,739,0.023,-1.006,-0.008,0.057295800000000015,-0.2291832000000001,-0.057295800000000015,88.16104745999998,1.70168526,-12.16962792
7.399999999999999,740,0.022000000000000002,-1.004,-0.008,0.0,-0.2291832000000001,-0.057295800000000015,88.16104745999998,1.6902260999999998,-12.1753575
7.409999999999998,741,0.021,-1.005,-0.01,0.0,-0.1718874,-0.2291832000000001,88.16104745999998,1.6902260999999998,-12.1753575
7.419999999999999,742,0.021,-1.005,-0.009000000000000001,0.0,-0.11459160000000004,-0.2291832000000001,88.16104745999998,1.6959556799999995,-12.1753575
7.429999999999999,743,0.02,-1.005,-0.01,0.2291832000000001,-0.1718874,-0.2291832000000001,88.16104745999998,1.6959556799999995,-12.18108708
7.439999999999999,744,0.021,-1.005,-0.008,0.40107059999999994,-0.2291832000000001,-0.11459160000000004,88.16677704,1.70168526,-12.18108708
7.449999999999998,745,0.023,-1.005,-0.006999999999999999,0.4583664000000001,-0.40107059999999994,-0.11459160000000004,88.17823620000001,1.70168526,-12.186816659999998
7.459999999999999,746,0.022000000000000002,-1.006,-0.008,0.5156622000000001,-0.40107059999999994,0.0,88.18396578000002,1.70168526,-12.186816659999998
7.469999999999999,747,0.021,-1.0090000000000001,-0.006999999999999999,0.3437748,-0.11459160000000004,-0.11459160000000004,88.18969536,1.70168526,-12.19254624
7.479999999999999,748,0.021,-1.01,-0.006,0.11459160000000004,0.0,0.0,88.18969536,1.70168526,-12.19254624
7.489999999999998,749,0.022000000000000002,-1.0090000000000001,-0.006,0.057295800000000015,0.057295800000000015,-0.057295800000000015,88.18969536,1.70168526,-12.186816659999998
7.499999999999998,750,0.022000000000000002,-1.008,-0.005,0.0,0.0,-0.057295800000000015,88.21834326000004,1.6902260999999998,-12.186816659999998
7.509999999999999,751,0.022000000000000002,-1.0070000000000001,-0.006,0.057295800000000015,-0.057295800000000015,-0.057295800000000015,88.21834326000004,1.6959556799999995,-12.186816659999998
7.519999999999999,752,0.021,-1.0070000000000001,-0.009000000000000001,0.0,0.0,0.0,88.21834326000004,1.6959556799999995,-12.186816659999998
7.5299999999999985,753,0.023,-1.008,-0.006,-0.11459160000000004,0.2291832000000001,-0.057295800000000015,88.21834326000004,1.6959556799999995,-12.186816659999998
7.539999999999998,754,0.024,-1.0070000000000001,-0.006999999999999999,0.0,0.1718874,0.0,88.21834326000004,1.6959556799999995,-12.186816659999998
7.549999999999999,755,0.024,-1.005,-0.01,0.057295800000000015,0.2291832000000001,-0.11459160000000004,88.21834326000004,1.6959556799999995,-12.18108708
7.559999999999999,756,0.022000000000000002,-1.006,-0.009000000000000001,0.11459160000000004,0.286479,-0.1718874,88.21834326000004,1.6959556799999995,-12.18108708
7.5699999999999985,757,0.022000000000000002,-1.006,-0.006999999999999999,0.11459160000000004,0.40107059999999994,-0.1718874,88.21834326000004,1.6959556799999995,-12.1753575
7.579999999999998,758,0.023,-1.004,-0.008,0.057295800000000015,0.3437748,-0.286479,88.21834326000004,1.70168526,-12.16962792
7.589999999999999,759,0.024,-1.005,-0.011000000000000001,0.057295800000000015,0.5156622000000001,-0.286479,88.21834326000004,1.7074148399999998,-12.16389834
7.599999999999999,760,0.026000000000000002,-1.006,-0.009000000000000001,0.057295800000000015,0.5156622000000001,-0.2291832000000001,88.22407283999998,1.71314442,-12.15816876
7.6099999999999985,761,0.027999999999999997,-1.0090000000000001,-0.006999999999999999,0.0,0.4583664000000001,-0.11459160000000004,88.22407283999998,1.71314442,-12.15243918
7.619999999999998,762,0.027999999999999997,-1.01,-0.006999999999999999,-0.11459160000000004,0.3437748,0.0,88.22407283999998,1.71314442,-12.15243918
7.629999999999999,763,0.027999999999999997,-1.01,-0.006999999999999999,-0.057295800000000015,0.057295800000000015,0.057295800000000015,88.21834326000004,1.71314442,-12.15243918
7.639999999999999,764,0.026000000000000002,-1.01,-0.005,-0.11459160000000004,0.057295800000000015,0.057295800000000015,88.21834326000004,1.71314442,-12.15243918
7.649999999999999,765,0.024,-1.0070000000000001,-0.003,-0.2291832000000001,0.2291832000000001,0.057295800000000015,88.23553199999998,1.71314442,-12.1467096
7.659999999999998,766,0.023,-1.0070000000000001,-0.004,0.0,0.3437748,0.0,88.23553199999998,1.71314442,-12.14098002
7.669999999999999,767,0.026000000000000002,-1.005,-0.006,0.0,0.4583664000000001,0.057295800000000015,88.23553199999998,1.7074148399999998,-12.14098002
7.679999999999999,768,0.026000000000000002,-1.004,-0.006999999999999999,0.057295800000000015,0.3437748,0.1718874,88.23553199999998,1.7074148399999998,-12.135250439999998
7.689999999999999,769,0.026000000000000002,-1.003,-0.006,0.2291832000000001,0.3437748,0.2291832000000001,88.23553199999998,1.7074148399999998,-12.12952086
7.699999999999998,770,0.025,-1.006,-0.005,0.2291832000000001,0.286479,0.2291832000000001,88.24699116,1.70168526,-12.12952086
7.709999999999998,771,0.025,-1.006,-0.005,0.2291832000000001,0.2291832000000001,0.40107059999999994,88.25272074,1.70168526,-12.12379128
7.719999999999999,772,0.026000000000000002,-1.005,-0.004,0.11459160000000004,0.3437748,0.286479,88.25272074,1.6959556799999995,-12.118061700000002
7.729999999999999,773,0.026000000000000002,-1.005,-0.005,0.11459160000000004,0.3437748,0.3437748,88.25272074,1.6902260999999998,-12.118061700000002
7.739999999999998,774,0.026000000000000002,-1.005,-0.008,0.11459160000000004,0.286479,0.3437748,88.25272074,1.6902260999999998,-12.11233212
7.749999999999998,775,0.027000000000000003,-1.006,-0.006999999999999999,0.2291832000000001,0.3437748,0.286479,88.25845032,1.6902260999999998,-12.11233212
7.759999999999999,776,0.026000000000000002,-1.0070000000000001,-0.006999999999999999,0.11459160000000004,0.2291832000000001,0.3437748,88.25845032,1.6844965200000002,-12.10660254
7.769999999999999,777,0.025,-1.0070000000000001,-0.006999999999999999,0.1718874,0.0,0.4583664000000001,88.25845032,1.6787669399999998,-12.10660254
7.7799999999999985,778,0.025,-1.006,-0.006999999999999999,0.11459160000000004,-0.057295800000000015,0.40107059999999994,88.26417990000002,1.67303736,-12.10660254
7.789999999999998,779,0.025,-1.006,-0.006999999999999999,0.057295800000000015,-0.1718874,0.286479,88.26417990000002,1.67303736,-12.11233212
7.799999999999999,780,0.025,-1.006,-0.008,0.1718874,-0.286479,0.286479,88.26417990000002,1.67303736,-12.11233212
7.809999999999999,781,0.025,-1.008,-0.006999999999999999,0.2291832000000001,-0.5156622000000001,0.0,88.26990948,1.67303736,-12.118061700000002
7.8199999999999985,782,0.024,-1.008,-0.008,0.0,-0.3437748,0.0,88.26990948,1.67303736,-12.12379128
7.829999999999998,783,0.024,-1.008,-0.008,-0.1718874,-0.11459160000000004,0.057295800000000015,88.26990948,1.67303736,-12.12379128
7.839999999999999,784,0.025,-1.008,-0.009000000000000001,-0.057295800000000015,-0.057295800000000015,0.1718874,88.26417990000002,1.6673077799999998,-12.12379128
7.849999999999999,785,0.026000000000000002,-1.008,-0.012,0.0,-0.11459160000000004,0.1718874,88.24126158,1.6787669399999998,-12.12379128
7.8599999999999985,786,0.026000000000000002,-1.008,-0.011000000000000001,0.057295800000000015,-0.286479,0.11459160000000004,88.24126158,1.6787669399999998,-12.12952086
7.869999999999998,787,0.025,-1.0070000000000001,-0.005,0.11459160000000004,-0.572958,0.286479,88.24126158,1.67303736,-12.135250439999998
7.879999999999999,788,0.022000000000000002,-1.005,-0.004,0.1718874,-0.6875496,0.286479,88.24126158,1.67303736,-12.14098002
7.889999999999999,789,0.022000000000000002,-1.004,-0.004,0.11459160000000004,-0.7448454000000001,0.286479,88.24699116,1.6673077799999998,-12.1467096
7.899999999999999,790,0.02,-1.005,-0.004,0.286479,-0.8021411999999999,0.286479,88.25845032,1.6558486199999998,-12.15816876
7.909999999999998,791,0.02,-1.005,-0.004,0.1718874,-0.5156622000000001,0.11459160000000004,88.25845032,1.6558486199999998,-12.16389834
7.919999999999998,792,0.021,-1.005,-0.004,0.1718874,-0.2291832000000001,0.057295800000000015,88.25845032,1.6558486199999998,-12.16389834
7.929999999999999,793,0.02,-1.006,-0.004,0.1718874,0.0,0.057295800000000015,88.26417990000002,1.6558486199999998,-12.16389834
7.939999999999999,794,0.021,-1.006,-0.003,0.40107059999999994,0.11459160000000004,0.11459160000000004,88.26417990000002,1.6558486199999998,-12.16389834
7.949999999999998,795,0.02,-1.006,-0.005,0.4583664000000001,0.057295800000000015,0.286479,88.27563906,1.64438946,-12.16389834
7.959999999999998,796,0.02,-1.006,-0.003,0.40107059999999994,0.057295800000000015,0.286479,88.28136864,1.64438946,-12.15816876
7.969999999999999,797,0.023,-1.0070000000000001,-0.003,0.2291832000000001,0.0,0.2291832000000001,88.28709822,1.6386598799999998,-12.15816876
7.979999999999999,798,0.023,-1.0070000000000001,-0.004,0.2291832000000001,0.0,0.2291832000000001,88.28709822,1.6386598799999998,-12.15816876
7.989999999999998,799,0.023,-1.005,-0.006,0.286479,-0.1718874,0.2291832000000001,88.2928278,1.6329303,-12.16389834
7.999999999999998,800,0.022000000000000002,-1.005,-0.006,0.40107059999999994,-0.3437748,0.2291832000000001,88.29855738,1.6329303,-12.16389834
8.01,801,0.022000000000000002,-1.005,-0.006,0.286479,-0.286479,0.1718874,88.29855738,1.6272007199999998,-12.16962792
8.019999999999998,802,0.021,-1.0070000000000001,-0.004,0.3437748,-0.4583664000000001,0.11459160000000004,88.30428696,1.6272007199999998,-12.16962792
8.03,803,0.019,-1.0070000000000001,-0.003,0.4583664000000001,-0.5156622000000001,0.0,88.31001654,1.6272007199999998,-12.1753575
8.04,804,0.018000000000000002,-1.0090000000000001,-0.001,0.4583664000000001,-0.286479,0.0,88.31574612,1.6272007199999998,-12.18108708
8.049999999999999,805,0.019,-1.01,-0.001,0.3437748,0.0,0.0,88.33293486,1.6157415599999996,-12.18108708
8.059999999999999,806,0.02,-1.008,-0.003,0.0,0.2291832000000001,-0.057295800000000015,88.33293486,1.6157415599999996,-12.1753575
8.069999999999999,807,0.022000000000000002,-1.006,-0.004,0.11459160000000004,0.286479,-0.11459160000000004,88.33866443999996,1.6157415599999996,-12.1753575
8.079999999999998,808,0.021,-1.0070000000000001,-0.003,0.286479,0.2291832000000001,0.0,88.33866443999996,1.6157415599999996,-12.16962792
8.089999999999998,809,0.021,-1.0090000000000001,-0.001,0.11459160000000004,0.2291832000000001,-0.057295800000000015,88.33866443999996,1.6157415599999996,-12.16962792
8.099999999999998,810,0.022000000000000002,-1.0090000000000001,-0.003,0.0,0.2291832000000001,0.0,88.35012359999996,1.62147114,-12.16389834
8.11,811,0.023,-1.008,-0.005,0.0,0.286479,0.057295800000000015,88.35012359999996,1.62147114,-12.16389834
8.12,812,0.021,-1.008,-0.001,-0.057295800000000015,0.4583664000000001,0.0,88.35012359999996,1.6157415599999996,-12.15816876
8.129999999999999,813,0.021,-1.008,-0.001,-0.1718874,0.7448454000000001,0.0,88.35012359999996,1.62147114,-12.15243918
8.139999999999999,814,0.021,-1.006,-0.002,-0.2291832000000001,1.0313244000000001,-0.1718874,88.34439402000002,1.62147114,-12.14098002
8.149999999999999,815,0.022000000000000002,-1.005,-0.005,-0.11459160000000004,0.8021411999999999,-0.11459160000000004,88.35012359999996,1.62147114,-12.12952086
8.159999999999998,816,0.023,-1.008,-0.004,0.0,0.286479,-0.11459160000000004,88.35012359999996,1.62147114,-12.12952086
8.169999999999998,817,0.021,-1.005,-0.001,-0.286479,-0.1718874,-0.11459160000000004,88.35012359999996,1.6272007199999998,-12.12952086
8.179999999999998,818,0.022000000000000002,-1.004,-0.003,-0.057295800000000015,-0.4583664000000001,-0.057295800000000015,88.35012359999996,1.6272007199999998,-12.135250439999998
8.189999999999998,819,0.022000000000000002,-1.0090000000000001,-0.001,-0.057295800000000015,-0.5156622000000001,-0.057295800000000015,88.34439402000002,1.6272007199999998,-12.14098002
8.2,820,0.022000000000000002,-1.0070000000000001,-0.002,-0.1718874,-0.4583664000000001,-0.057295800000000015,88.36158276,1.6329303,-12.1467096
8.209999999999999,821,0.022000000000000002,-1.008,-0.002,0.11459160000000004,-0.3437748,-0.11459160000000004,88.36731234,1.6329303,-12.1467096
8.219999999999999,822,0.02,-1.0090000000000001,-0.001,0.11459160000000004,-0.2291832000000001,-0.2291832000000001,88.36731234,1.6329303,-12.15243918
8.229999999999999,823,0.019,-1.008,0.0,-0.057295800000000015,0.0,-0.2291832000000001,88.36731234,1.6386598799999998,-12.15243918
8.239999999999998,824,0.019,-1.006,-0.002,-0.057295800000000015,0.0,-0.1718874,88.36158276,1.6386598799999998,-12.15243918
8.249999999999998,825,0.02,-1.004,-0.003,0.0,-0.2291832000000001,-0.11459160000000004,88.3787715,1.6272007199999998,-12.15243918
8.259999999999998,826,0.021,-1.003,-0.003,0.1718874,-0.286479,0.0,88.38450107999998,1.6272007199999998,-12.15816876
8.269999999999998,827,0.022000000000000002,-1.004,-0.002,0.2291832000000001,-0.40107059999999994,-0.057295800000000015,88.38450107999998,1.6272007199999998,-12.16389834
8.28,828,0.022000000000000002,-1.005,-0.002,0.3437748,-0.572958,-0.11459160000000004,88.39023066,1.6272007199999998,-12.16962792
8.29,829,0.019,-1.006,-0.001,0.40107059999999994,-0.40107059999999994,-0.2291832000000001,88.39023066,1.6329303,-12.16962792
8.299999999999999,830,0.018000000000000002,-1.0070000000000001,0.001,0.3437748,-0.11459160000000004,-0.286479,88.42460814,1.62147114,-12.16962792
8.309999999999999,831,0.018000000000000002,-1.006,0.002,0.11459160000000004,0.0,-0.3437748,88.42460814,1.62147114,-12.16962792
8.319999999999999,832,0.019,-1.004,0.003,0.0,0.2291832000000001,-0.286479,88.42460814,1.6272007199999998,-12.16962792
8.329999999999998,833,0.02,-1.005,0.002,-0.057295800000000015,0.286479,0.0,88.42460814,1.6272007199999998,-12.16389834
8.339999999999998,834,0.022000000000000002,-1.006,0.001,0.0,0.286479,0.057295800000000015,88.42460814,1.6272007199999998,-12.16389834
8.349999999999998,835,0.023,-1.0070000000000001,0.0,0.057295800000000015,0.40107059999999994,0.286479,88.43606729999998,1.62147114,-12.15816876
8.359999999999998,836,0.024,-1.0090000000000001,-0.003,0.0,0.5156622000000001,0.5156622000000001,88.43606729999998,1.6157415599999996,-12.15243918
8.37,837,0.022000000000000002,-1.0090000000000001,-0.003,0.11459160000000004,0.3437748,0.572958,88.43606729999998,1.61001198,-12.1467096
8.379999999999999,838,0.021,-1.01,-0.002,0.057295800000000015,0.2291832000000001,0.5156622000000001,88.43606729999998,1.6042824000000002,-12.1467096
8.389999999999999,839,0.02,-1.01,-0.003,-0.11459160000000004,0.286479,0.40107059999999994,88.43606729999998,1.59855282,-12.14098002
8.399999999999999,840,0.019,-1.0090000000000001,-0.004,-0.11459160000000004,0.40107059999999994,0.40107059999999994,88.43606729999998,1.59282324,-12.135250439999998
8.409999999999998,841,0.02,-1.008,-0.001,-0.1718874,0.286479,0.2291832000000001,88.43606729999998,1.5870936600000003,-12.135250439999998
8.419999999999998,842,0.02,-1.005,0.0,-0.057295800000000015,0.1718874,0.11459160000000004,88.43606729999998,1.5870936600000003,-12.12952086
8.429999999999998,843,0.019,-1.006,0.0,0.0,0.11459160000000004,0.0,88.43033772,1.5870936600000003,-12.12952086
8.439999999999998,844,0.02,-1.006,0.0,-0.11459160000000004,0.2291832000000001,0.057295800000000015,88.43033772,1.5870936600000003,-12.12952086
8.45,845,0.021,-1.005,0.0,-0.3437748,0.5156622000000001,0.057295800000000015,88.43606729999998,1.5813640800000002,-12.12379128
8.459999999999999,846,0.021,-1.006,0.001,-0.3437748,0.572958,0.057295800000000015,88.43606729999998,1.5813640800000002,-12.118061700000002
8.469999999999999,847,0.023,-1.006,0.0,-0.11459160000000004,0.4583664000000001,0.11459160000000004,88.43033772,1.5813640800000002,-12.11233212
