TimeStamp(s),FrameCounter,AccX,AccY,AccZ,GyrX,GyrY,GyrZ,EulerX,EulerY,EulerZ
0.01,1,-0.085,-1.002,0.1,-1.0313244,0.5156622000000001,-8.8235532,93.1916187,-3.62109456,-17.57262186
0.02,2,-0.08800000000000001,-1.0,0.102,-1.0313244,0.4583664000000001,-9.0527364,93.18015954,-3.52942128,-17.561162699999993
0.03,3,-0.093,-1.0,0.105,-0.8021411999999999,1.145916,-9.3392154,93.16870038,-3.4377480000000005,-17.54397396
0.04,4,-0.094,-0.999,0.104,-0.6302538000000001,2.0053530000000004,-9.3965112,93.1629708,-3.34607472,-17.52105564
0.05,5,-0.092,-0.998,0.102,-0.4583664000000001,2.6929026,-9.5111028,93.15151164,-3.25440144,-17.48667816
0.060000000000000005,6,-0.08800000000000001,-0.994,0.107,0.057295800000000015,3.0366774,-9.9121734,93.17442996,-3.1799169000000003,-17.45230068
0.06999999999999999,7,-0.08800000000000001,-0.989,0.111,0.6302538000000001,3.2658606,-10.3705398,93.18015954,-3.07678446,-17.4179232
0.08,8,-0.09,-0.99,0.112,0.8021411999999999,3.8961144,-10.886202,93.18588912,-2.9736520200000003,-17.37208656
0.09,9,-0.08900000000000001,-0.99,0.109,0.9740286,4.5263682,-11.229976800000001,93.1916187,-2.86479,-17.32052034
0.09999999999999999,10,-0.091,-0.988,0.106,1.3750992,4.7555514,-11.516455800000001,93.20307786,-2.75592798,-17.26322454
0.11,11,-0.094,-0.984,0.105,1.7188740000000002,4.7555514,-11.745639,93.23172576,-2.6642547000000003,-17.21165832
0.12,12,-0.096,-0.983,0.106,2.2345362,4.9274388,-12.0894138,93.24891449999998,-2.5496631,-17.15436252
0.13,13,-0.097,-0.983,0.1,2.9793816000000004,5.2712136,-12.4331886,93.27756240000001,-2.42934192,-17.09706672
0.14,14,-0.098,-0.982,0.099,3.380452200000001,5.2139178,-12.9488508,93.3062103,-2.30902074,-17.034041339999998
0.15000000000000002,15,-0.098,-0.985,0.107,3.5523396000000003,5.3858052,-13.120738199999998,93.34058778,-2.18296998,-16.976745540000003
0.16,16,-0.091,-0.991,0.106,3.380452200000001,5.5576926,-13.120738199999998,93.38069484,-2.07410796,-16.91372016
0.17,17,-0.083,-0.991,0.102,3.380452200000001,5.9014674000000005,-13.349921400000001,93.41507232,-1.9480572000000005,-16.844965199999994
0.18000000000000002,18,-0.083,-0.989,0.097,3.9534102,6.016058999999999,-13.980175199999998,93.4494498,-1.81627686,-16.77621024
0.19,19,-0.085,-0.992,0.08900000000000001,4.3544808,6.0733548,-14.7250206,93.48955686,-1.67303736,-16.707455279999998
0.2,20,-0.085,-0.996,0.093,4.8701430000000006,6.0733548,-15.3552744,93.54112308,-1.52406828,-16.638700319999998
0.21000000000000002,21,-0.08,-0.993,0.096,5.5003968,6.3598338,-16.157415599999997,93.5926893,-1.38655836,-16.56421578
0.22,22,-0.07200000000000001,-0.993,0.095,5.958763200000001,6.0733548,-16.7876694,93.65571468,-1.22613012,-16.48973124
0.23,23,-0.066,-0.989,0.099,6.0733548,5.0993262,-17.246035799999998,93.71301048,-1.0599723,-16.426705860000002
0.24000000000000002,24,-0.063,-0.99,0.099,6.2452422,4.5263682,-17.6471064,93.77603586,-0.8880849000000001,-16.36941006
0.25,25,-0.058,-0.99,0.1,6.5317212,3.6096354,-18.162768600000003,93.83906124,-0.7104679199999999,-16.323573420000002
0.26,26,-0.054000000000000006,-0.987,0.107,6.760904399999999,3.2658606,-19.0222056,93.91354578,-0.53858052,-16.27773678
0.27,27,-0.053,-0.99,0.107,6.990087599999999,2.6356068,-20.1108258,93.98230074,-0.33804522,-16.23190014
0.28,28,-0.053,-0.993,0.109,6.990087599999999,2.2345362,-21.1421502,94.05678528,-0.13178034,-16.197522659999994
0.29000000000000004,29,-0.05,-0.997,0.11,7.1046792000000005,2.0626488000000003,-22.0015872,94.12554024,0.08021412,-16.1574156
0.3,30,-0.049,-0.993,0.106,7.161975,1.5469866,-22.91832,94.20002478,0.30366774,-16.12303812
0.31,31,-0.05,-0.992,0.108,7.2192707999999985,0.7448454000000001,-23.835052800000003,94.27450932,0.52712136,-16.1001198
0.32,32,-0.045,-0.986,0.123,7.7349330000000025,0.1718874,-24.9809688,94.35472344,0.7734933,-16.07720148
0.33,33,-0.041,-0.989,0.125,8.479778399999999,-0.286479,-26.41336380000001,94.44066714,1.03705398,-16.05428316
0.34,34,-0.037000000000000005,-0.991,0.12,8.193299399999999,-1.5469866,-27.3300966,94.52661084,1.31207382,-16.04855358
0.35000000000000003,35,-0.034,-0.999,0.123,8.3651868,-2.4064236,-28.304125199999998,94.60682496,1.59282324,-16.04855358
0.36000000000000004,36,-0.034,-1.003,0.126,8.307891,-3.5523396000000003,-29.1062664,94.69849824,1.87357266,-16.060012739999998
0.37,37,-0.037000000000000005,-1.005,0.127,8.021412000000002,-5.3285094000000015,-29.9657034,94.77871236,2.17151082,-16.08293106
0.38,38,-0.034,-1.005,0.14,7.5630456000000015,-7.6203414,-30.5386614,94.8531969,2.48663772,-16.134497279999998
0.39,39,-0.033,-1.001,0.14400000000000002,7.0473834,-9.2819196,-30.93973200000001,94.92768144,2.80176462,-16.197522659999994
0.4,40,-0.027000000000000003,-1.001,0.141,7.0473834,-10.1986524,-31.340802600000004,94.9964364,3.1226211000000004,-16.26627762
0.41000000000000003,41,-0.012,-1.006,0.154,6.589017,-11.8602306,-31.79916900000001,95.06519136,3.44347758,-16.3579509
0.42000000000000004,42,-0.002,-1.008,0.16899999999999998,6.3025379999999975,-12.7769634,-32.372127,95.12821674,3.77579322,-16.44962418
0.43,43,0.013,-1.013,0.171,6.1879464,-13.2926256,-32.6013102,95.18551254,4.11383844,-16.55275662
0.44,44,0.02,-1.019,0.163,5.5003968,-14.5531332,-32.658606,95.23134918,4.45761324,-16.66161864
0.45,45,0.019,-1.026,0.163,5.0993262,-15.5844576,-32.945085,95.27718582,4.80138804,-16.787669400000002
0.46,46,0.018000000000000002,-1.026,0.17,5.2139178,-15.870936600000002,-33.804522,95.32875204,5.14516284,-16.90799058
0.47000000000000003,47,0.01,-1.02,0.17,5.0993262,-15.813640800000002,-35.0077338,95.3688591,5.50612638,-17.02831176
0.48000000000000004,48,0.0,-1.014,0.16899999999999998,4.6982556,-15.4125702,-36.38283300000001,95.40896616,5.88427866,-17.14863294
0.49,49,0.0,-1.009,0.159,4.5263682,-13.9228794,-37.9298196,95.44907322,6.2796196800000015,-17.246035799999998
0.5,50,0.01,-1.005,0.153,4.7555514,-13.407217200000002,-38.61736920000001,95.48345069999999,6.6749607000000015,-17.34343866
0.51,51,0.021,-1.001,0.153,5.1566220000000005,-13.521808800000002,-39.1330314,95.53501692,7.06457214,-17.435111940000002
0.52,52,0.041,-1.0,0.146,5.443101,-13.178034,-39.1330314,95.58085356,7.47137232,-17.52678522
0.53,53,0.065,-1.0,0.135,5.5003968,-13.2926256,-39.0184398,95.6266902,7.87244292,-17.6184585
0.54,54,0.086,-1.001,0.131,5.5576926,-13.8082878,-39.0757356,95.66679726,8.27351352,-17.715861359999995
0.55,55,0.097,-0.998,0.142,5.7868758000000025,-14.32395,-39.3049188,95.7126339,8.6803137,-17.818993799999994
0.56,56,0.103,-0.994,0.14800000000000002,5.6722842,-14.9542038,-39.534102,95.75847054,9.081384300000002,-17.92212624
0.5700000000000001,57,0.105,-0.985,0.154,5.042030400000002,-15.183387000000002,-39.9351726,95.7985776,9.49964364,-18.03098826
0.5800000000000001,58,0.11,-0.972,0.16399999999999998,4.9274388,-14.7250206,-40.737313799999995,95.8272255,9.91790298,-18.1341207
0.59,59,0.115,-0.968,0.161,4.8701430000000006,-14.266654199999998,-41.9978214,95.86160298,10.35335106,-18.23152356
0.6,60,0.121,-0.974,0.156,4.010706000000001,-13.407217200000002,-43.1437374,95.89025088,10.8002583,-18.31746726
0.61,61,0.13,-0.977,0.161,3.6096354,-12.5477802,-43.8885828,95.91889878,11.24143596,-18.39768138
0.62,62,0.147,-0.987,0.162,3.6096354,-11.516455800000001,-44.5761324,95.9418171,11.69407278,-18.46643634
0.63,63,0.16699999999999998,-0.999,0.158,3.0366774,-10.886202,-45.1490904,95.96473541999998,12.15243918,-18.52373214
0.64,64,0.196,-1.003,0.146,2.0626488000000003,-10.7143146,-45.4355694,95.970465,12.61653516,-18.58102794
0.65,65,0.225,-1.002,0.147,1.8334656000000005,-11.9748222,-45.6647526,95.97619458,13.086360719999998,-18.65551248
0.66,66,0.243,-0.995,0.149,1.8334656000000005,-13.521808800000002,-46.123119,95.98192416,13.56191586,-18.7357266
0.67,67,0.251,-0.987,0.142,2.0626488000000003,-14.266654199999998,-47.0971476,95.98192416,14.04320058,-18.83312946
0.68,68,0.261,-0.976,0.14300000000000002,1.9480572,-15.0114996,-48.0711762,95.97619458,14.541674039999998,-18.93053232
0.6900000000000001,69,0.265,-0.966,0.159,2.2345362,-16.386598799999998,-48.987909,95.970465,15.04587708,-19.03939434
0.7000000000000001,70,0.268,-0.964,0.16,2.5210152000000003,-16.7876694,-49.847346,95.970465,15.561539280000002,-19.15971552
0.7100000000000001,71,0.292,-0.965,0.147,1.7761698,-17.589810600000003,-50.1911208,95.95900584,16.08293106,-19.280036700000004
0.72,72,0.304,-0.959,0.163,1.3750992,-19.308684600000007,-50.1911208,95.93608752,16.604322840000002,-19.4232762
0.73,73,0.311,-0.963,0.171,1.0886202,-21.3713334,-50.1911208,95.90171004,17.12571462,-19.58370444
0.74,74,0.315,-0.971,0.17,0.0,-22.6891368,-50.133825,95.85014382,17.65283598,-19.767051000000002
0.75,75,0.31,-0.97,0.16699999999999998,-0.6875496,-23.2620948,-50.1911208,95.78711844,18.17422776,-19.950397560000006
0.76,76,0.297,-0.972,0.17,-0.8594370000000001,-22.459953600000002,-50.24841660000001,95.72982263999998,18.69561954,-20.12801454
0.77,77,0.28600000000000003,-0.974,0.17,-1.0886202,-22.0015872,-50.0765292,95.66679726,19.222740899999998,-20.29990194
0.78,78,0.278,-0.971,0.184,-1.0886202,-22.173474600000002,-49.5035712,95.5980423,19.738403100000006,-20.47751892
0.79,79,0.274,-0.961,0.203,-0.8594370000000001,-21.829699800000004,-48.8160216,95.52928733999998,20.24833572,-20.6551359
0.8,80,0.28800000000000003,-0.945,0.22,-1.0313244,-20.3973048,-48.6441342,95.46626196,20.75253876,-20.82129372
0.81,81,0.316,-0.936,0.214,-1.432395,-19.0222056,-48.7587258,95.41469573999998,21.25101222,-20.96453322
0.8200000000000001,82,0.35200000000000004,-0.936,0.19,-1.7188740000000002,-18.5065434,-48.9306132,95.3402112,21.75521526,-21.10777272
0.8300000000000001,83,0.386,-0.937,0.17600000000000002,-1.8907613999999997,-18.334656,-49.274388,95.27145624,22.26514788,-21.2567418
0.8400000000000001,84,0.415,-0.94,0.162,-1.8907613999999997,-18.7930224,-49.560867,95.1969717,22.78081008,-21.40571088
0.85,85,0.435,-0.941,0.151,-2.1199446,-19.938938399999998,-49.90464179999999,95.111028,23.29647228,-21.56613912
0.86,86,0.439,-0.935,0.142,-2.0626488000000003,-21.3140376,-49.7900502,95.0250843,23.81786406,-21.7437561
0.87,87,0.435,-0.935,0.135,-1.9480572,-22.7464326,-49.560867,94.92768144,24.33352626,-21.9442914
0.88,88,0.438,-0.934,0.138,-1.5469866,-23.835052800000003,-49.1597964,94.824549,24.843458880000004,-22.15055628
0.89,89,0.441,-0.937,0.157,-1.7188740000000002,-26.069589,-49.1597964,94.70995740000001,25.35912108,-22.39119864
0.9,90,0.444,-0.945,0.165,-2.4637194,-27.788463,-49.1597964,94.57817706,25.87478328000001,-22.64902974
0.91,91,0.446,-0.952,0.163,-2.9220857999999996,-29.2781538,-49.1025006,94.43493756,26.39044548,-22.92404958
0.92,92,0.449,-0.955,0.16399999999999998,-4.2398892,-30.3094782,-48.8733174,94.26305016,26.90610768,-23.21052858
0.93,93,0.45,-0.963,0.159,-5.6149884000000005,-31.054323600000004,-48.4722468,94.07397402,27.4160403,-23.51419632
0.9400000000000001,94,0.455,-0.965,0.149,-7.5057497999999985,-31.79916900000001,-48.0138804,93.8505204,27.92024334000001,-23.835052800000003
0.9500000000000001,95,0.456,-0.962,0.147,-8.4224826,-31.79916900000001,-47.7846972,93.6213372,28.42444638,-24.1501797
0.9600000000000001,96,0.461,-0.949,0.131,-9.224623800000002,-31.5699858,-48.529542600000006,93.38069484,28.92864942,-24.47103618
0.97,97,0.46,-0.93,0.132,-10.4851314,-31.1689152,-49.61816279999999,93.12286374,29.44431162,-24.79189266
0.98,98,0.453,-0.92,0.135,-10.7716104,-30.65325300000001,-50.1911208,92.85930306,29.9657034,-25.10701956
0.99,99,0.448,-0.909,0.123,-10.599723,-30.4240698,-49.3316838,92.5900128,30.475636020000003,-25.42787604
1.0,100,0.457,-0.909,0.12,-10.5424272,-29.5646328,-48.2430636,92.32645212,30.97410948,-25.743002940000004
1.01,101,0.473,-0.887,0.105,-10.8289062,-28.6479,-47.7846972,92.06289144000002,31.46112378,-26.04667068
1.02,102,0.493,-0.866,0.087,-11.6310474,-28.2468294,-47.841993,91.78787159999999,31.95386766,-26.356068
1.03,103,0.501,-0.858,0.099,-11.0007936,-28.6479,-47.6128098,91.50712218,32.44088196,-26.67692448
1.04,104,0.513,-0.855,0.108,-10.8289062,-29.335449600000004,-46.9252602,91.22064318,32.922166680000004,-27.009240120000005
1.05,105,0.519,-0.8340000000000001,0.098,-11.5737516,-27.9603504,-46.8106686,90.93416418,33.39772182,-27.3300966
1.06,106,0.542,-0.812,0.1,-10.7143146,-27.1009134,-47.555514,90.66487392,33.87900654,-27.63376434000001
1.07,107,0.547,-0.8290000000000001,0.1,-10.7143146,-26.642547,-47.7846972,90.3841245,34.36602084,-27.94889124
1.08,108,0.5489999999999999,-0.826,0.1,-10.886202,-26.69984280000001,-47.841993,90.09191592,34.84730556,-28.26974772
1.09,109,0.5479999999999999,-0.813,0.1,-10.6570188,-26.4706596,-47.4982182,89.80543692,35.3228607,-28.58487462
1.1,110,0.557,-0.8,0.106,-11.1153852,-26.069589,-47.8992888,89.50749876,35.80414542,-28.905731099999997
1.11,111,0.569,-0.7929999999999999,0.09,-12.1467096,-25.84040580000001,-48.8160216,89.20383102000002,36.2968893,-29.22658758
1.12,112,0.5870000000000001,-0.7859999999999999,0.059,-12.7769634,-25.8977016,-49.1597964,88.88297453999998,36.7839036,-29.55317364
1.1300000000000001,113,0.61,-0.7809999999999999,0.051,-12.6623718,-25.4393352,-49.4462754,88.55638848,37.27664748,-29.88548928
1.1400000000000001,114,0.628,-0.7809999999999999,0.05,-13.2353298,-26.1268848,-49.61816279999999,88.21834326000004,37.76939136,-30.2235345
1.1500000000000001,115,0.633,-0.782,0.036000000000000004,-13.6936962,-26.69984280000001,-49.388979600000006,87.85737972,38.25640566,-30.58449804
1.1600000000000001,116,0.64,-0.7829999999999999,0.031,-13.8655836,-27.1009134,-49.2170922,87.49641618000004,38.74341996,-30.94546158
1.17,117,0.633,-0.773,0.04,-13.349921400000001,-27.043617600000005,-49.3316838,87.12972306,39.22470468,-31.32361386
1.18,118,0.615,-0.758,0.045,-12.7769634,-28.1895336,-49.847346,86.75157078,39.71171898,-31.718954879999995
1.19,119,0.621,-0.76,0.025,-11.8029348,-27.903054600000004,-51.0505578,86.37914808000002,40.20446286,-32.114295899999995
1.2,120,0.649,-0.77,0.026,-11.688343199999998,-28.304125199999998,-52.8840234,85.99526621999998,40.72012506,-32.53255524
1.21,121,0.6409999999999999,-0.775,0.015,-11.229976800000001,-29.793816,-53.285094,85.5999252,41.23005768,-32.968003319999994
1.22,122,0.631,-0.775,-0.012,-11.1153852,-28.1895336,-53.9153478,85.20458418000003,41.74571988,-33.39772182
1.23,123,0.615,-0.762,-0.01,-10.599723,-27.1582092,-54.3737142,84.81497274,42.27284124000001,-33.82171074
1.24,124,0.601,-0.762,-0.003,-10.255948199999999,-26.2414764,-55.1758554,84.43109088,42.7999626,-34.23997008
1.25,125,0.611,-0.7559999999999999,-0.006999999999999999,-10.4278356,-24.694489800000003,-55.748813399999996,84.04720902,43.33281354,-34.652499840000004
1.26,126,0.62,-0.747,-0.019,-10.026765,-23.2620948,-56.436363,83.67478632,43.8599349,-35.04784086
1.27,127,0.627,-0.741,-0.026,-9.568398599999998,-22.058883,-57.1812084,83.3080932,44.404245,-35.4374523
1.28,128,0.614,-0.731,-0.023,-9.6256944,-21.6005166,-58.2125328,82.92994092,44.96001426,-35.83279331999999
1.29,129,0.596,-0.71,-0.041,-10.0840608,-19.0222056,-59.98870260000001,82.56897738,45.53297226,-36.20521602
1.3,130,0.579,-0.6809999999999999,-0.068,-10.0840608,-15.3552744,-61.134618599999996,82.22520258,46.11738942,-36.53753166
1.31,131,0.564,-0.6679999999999999,-0.071,-10.313244,-12.0894138,-61.9367598,81.91007568,46.70180658,-36.82974024
1.32,132,0.5660000000000001,-0.66,-0.064,-10.8289062,-8.59437,-62.3378304,81.6178671,47.30341248000001,-37.08184176
1.33,133,0.59,-0.648,-0.061,-11.745639,-5.6722842,-62.68160520000001,81.33711767999998,47.91074796,-37.30529538
1.34,134,0.626,-0.644,-0.075,-11.8029348,-3.2085648,-63.02538000000001,81.07355700000002,48.52381301999999,-37.49437152
1.35,135,0.65,-0.655,-0.081,-10.886202,-1.4896908000000002,-62.738901,80.83291464,49.13687808,-37.66625892
1.36,136,0.65,-0.669,-0.068,-10.255948199999999,-0.9740286,-61.7075766,80.60373144,49.72702482,-37.82668716
1.37,137,0.6409999999999999,-0.6759999999999999,-0.07,-9.9121734,-0.9167328,-60.44706899999999,80.37454824,50.31717156000001,-37.99284498
1.3800000000000001,138,0.629,-0.675,-0.068,-9.740286,1.4896908000000002,-59.7022236,80.17401294,50.90158872,-38.12462532
1.3900000000000001,139,0.631,-0.6679999999999999,-0.065,-10.4851314,4.5263682,-59.186561399999995,79.99639596,51.48600588000001,-38.2162986
1.4000000000000001,140,0.652,-0.66,-0.093,-12.7196676,8.078707799999998,-59.0719698,79.83596772,52.07615262,-38.25067608
1.4100000000000001,141,0.6829999999999999,-0.66,-0.114,-14.152062599999999,11.8602306,-59.014674,79.6984578,52.6548402,-38.23921692
1.42,142,0.71,-0.6659999999999999,-0.116,-15.2979786,13.9228794,-58.67089920000001,79.5838662,53.25071652000001,-38.18192112
1.43,143,0.726,-0.6579999999999999,-0.123,-16.157415599999997,15.4125702,-58.38442020000001,79.47500418000001,53.840863260000006,-38.10743658
1.44,144,0.7390000000000001,-0.642,-0.114,-15.870936600000002,17.0168526,-58.15523699999999,79.39479005999998,54.43673958,-38.00430414
1.45,145,0.7609999999999999,-0.622,-0.118,-15.6417534,18.7357266,-57.811462199999994,79.34322384000002,55.02688632,-37.872523799999996
1.46,146,0.785,-0.596,-0.109,-15.183387000000002,18.7357266,-56.66554620000001,79.2973872,55.59984432,-37.73501388
1.47,147,0.802,-0.5720000000000001,-0.098,-14.7823164,17.4179232,-55.2331512,79.24009140000003,56.16707274,-37.6146927
1.48,148,0.841,-0.5670000000000001,-0.095,-14.2093584,15.9282324,-53.9726436,79.17706602000001,56.71711241999999,-37.51156026
1.49,149,0.884,-0.563,-0.102,-14.4385416,13.5791046,-52.139178,79.08539274,57.24996336,-37.44853488
1.5,150,0.907,-0.545,-0.111,-14.381245800000002,11.1153852,-49.560867,78.95934198,57.74843682000001,-37.41988698
1.51,151,0.887,-0.521,-0.114,-13.9228794,10.255948199999999,-47.1544434,78.82183205999998,58.22399196,-37.40842782
1.52,152,0.85,-0.511,-0.103,-12.318597,11.229976800000001,-45.3782736,78.73015878,58.68808794,-37.36832076
1.53,153,0.815,-0.511,-0.08800000000000001,-11.5737516,11.45916,-44.2323576,78.64994466,59.13499518,-37.31675454
1.54,154,0.7909999999999999,-0.502,-0.068,-11.0580894,12.605076,-43.48751220000001,78.59837844,59.58190241999999,-37.24227000000001
1.55,155,0.787,-0.494,-0.049,-10.8289062,14.266654199999998,-43.1437374,78.58118970000002,60.02308008,-37.13340798
1.56,156,0.7809999999999999,-0.488,-0.03,-11.8029348,15.4125702,-42.8572584,78.58691927999998,60.45852816,-36.99016848
1.57,157,0.767,-0.49,-0.023,-12.4331886,17.761698000000006,-42.685371,78.62129675999998,60.9054354,-36.80682192
1.58,158,0.763,-0.49,-0.03,-13.407217200000002,20.798375399999998,-42.7999626,78.6957813,61.35807222,-36.56044998
1.59,159,0.76,-0.49,-0.026,-13.750992000000002,23.3193906,-42.8572584,78.81610248000001,61.810709040000006,-36.25678224
1.6,160,0.758,-0.493,-0.034,-13.980175199999998,26.4706596,-43.0291458,79.00517862,62.27480502,-35.87862996
1.61,161,0.779,-0.483,-0.054000000000000006,-14.896907999999998,28.934379,-42.8572584,79.24009140000003,62.72744184,-35.4374523
1.62,162,0.8079999999999999,-0.472,-0.041,-14.4385416,29.335449600000004,-42.2270046,79.4979225,63.18580824000001,-34.9790859
1.6300000000000001,163,0.8290000000000001,-0.468,-0.005,-14.5531332,28.5333084,-41.9405256,79.75002402,63.63844506,-34.52644908
1.6400000000000001,164,0.8390000000000001,-0.454,0.02,-15.126091199999998,27.501984000000004,-41.8832298,79.99066638000002,64.0853523,-34.079541840000005
1.6500000000000001,165,0.865,-0.453,0.033,-16.272007199999994,28.4187168,-42.7426668,80.24849748,64.5437187,-33.60971628
1.6600000000000001,166,0.8740000000000001,-0.462,0.033,-17.8189938,29.507337,-44.34694920000001,80.54643564,65.01354425999999,-33.07686534
1.6700000000000002,167,0.879,-0.445,0.033,-18.5065434,31.971056400000002,-47.0398518,80.86729212,65.51774730000001,-32.509636920000005
1.68,168,0.879,-0.428,0.044,-17.9335854,34.4347758,-49.1025006,81.26263314,66.03913908,-31.87365354
1.69,169,0.8809999999999999,-0.421,0.046,-16.8449652,35.8671708,-51.9672906,81.71526996,66.58917876000001,-31.18610394
1.7,170,0.872,-0.41,0.056,-15.183387000000002,36.8411994,-53.22779820000001,82.23093216,67.15640718,-30.4527177
1.71,171,0.858,-0.388,0.058,-14.7250206,38.8465524,-54.717489,82.84399721999998,67.72936518,-29.61619902
1.72,172,0.883,-0.378,0.047,-13.6936962,39.6486936,-55.92070079999999,83.50289891999998,68.31951192,-28.75103244
1.73,173,0.895,-0.3720000000000001,0.045,-12.9488508,39.591397799999996,-55.6342218,84.21336684,68.8981995,-27.84002922
1.74,174,0.89,-0.354,0.052000000000000005,-11.4018642,40.90920120000001,-53.9153478,85.02123762,69.45396876,-26.84881188
1.75,175,0.87,-0.328,0.058,-10.6570188,42.4561878,-52.139178,85.93224083999998,69.99254927999999,-25.7544621
1.76,176,0.866,-0.314,0.066,-9.568398599999998,43.8885828,-51.56622,86.97502440000002,70.51967064,-24.53979114
1.77,177,0.884,-0.297,0.07200000000000001,-9.2819196,45.6074568,-52.425657,88.10375166,71.04679200000002,-23.233446899999997
1.78,178,0.92,-0.275,0.07400000000000001,-8.9954406,47.2117392,-53.5142772,89.3528001,71.57391336,-21.81251106
1.79,179,0.939,-0.246,0.07,-8.7089616,47.67010560000001,-53.628868800000006,90.69352182,72.09530514000002,-20.29990194
1.8,180,0.943,-0.229,0.073,-7.448453999999999,48.5868384,-53.285094,92.1602943,72.59950818,-18.67270122
1.81,181,0.959,-0.236,0.073,-6.417129599999999,50.6494872,-52.8840234,93.81614292,73.08652248,-16.86788352
1.82,182,0.964,-0.244,0.091,-6.589017,50.133825,-52.3683612,95.52928733999998,73.55061846,-15.000040439999998
1.83,183,0.975,-0.245,0.107,-7.0473834,50.47759979999999,-51.7954032,97.35129378,73.99179612,-13.02333534
1.84,184,0.989,-0.233,0.099,-7.6203414,50.0765292,-51.9672906,99.25351434,74.41578503999997,-10.94922738
1.85,185,0.999,-0.211,0.098,-7.2192707999999985,50.3630082,-52.998615,101.29324482,74.83404438,-8.75479824
1.86,186,1.005,-0.19,0.106,-6.1879464,50.3630082,-53.858052,103.48194438,75.24084456,-6.417129600000001
1.87,187,1.007,-0.18600000000000005,0.118,-5.042030400000002,48.6441342,-53.858052,105.72221016,75.62472642,-4.0393539
1.8800000000000001,188,1.016,-0.19,0.122,-3.8961144,46.982556,-53.628868800000006,108.0312309,75.98568996,-1.61001198
1.8900000000000001,189,1.026,-0.19,0.13699999999999998,-3.151269,44.977203,-53.11320660000001,110.39181786,76.32373518,0.8537074199999999
1.9000000000000001,190,1.02,-0.193,0.15,-3.0939732,42.34159620000001,-52.3683612,112.75240482,76.64459166,3.3231564
1.9100000000000001,191,1.036,-0.196,0.133,-3.4950437999999995,41.825934,-51.5089242,115.19893548,76.93680024,5.87854908
1.9200000000000002,192,1.05,-0.183,0.103,-3.2085648,41.0810886,-50.5348956,117.69703236,77.19463134,8.479778399999999
1.93,193,1.045,-0.162,0.106,-0.7448454000000001,41.8832298,-49.5035712,120.32690958,77.41235538,11.19559932
1.94,194,1.046,-0.162,0.123,2.0053530000000004,41.9405256,-48.529542600000006,123.05418966,77.59570194,13.97444562
1.95,195,1.047,-0.18,0.149,3.151269,41.76863820000001,-46.6387812,125.81584722,77.73321186000003,16.77048066
1.96,196,1.034,-0.215,0.163,3.5523396000000003,41.9978214,-43.7166954,128.55458646,77.81342598,19.54359738
1.97,197,1.051,-0.232,0.17600000000000002,3.2658606,43.544808,-40.5654264,131.28186654,77.83634430000002,22.30525494
1.98,198,1.097,-0.227,0.163,1.9480572,44.8626114,-38.0444112,133.95758039999998,77.80196682,25.03253502
1.99,199,1.116,-0.205,0.153,0.7448454000000001,45.4355694,-36.2109456,136.55880972,77.72748228,27.69106014
2.0,200,1.114,-0.168,0.136,0.7448454000000001,44.51883660000001,-34.3201842,139.03398828,77.62434984000002,30.2235345
2.01,201,1.077,-0.131,0.14400000000000002,1.432395,42.2270046,-31.5699858,141.31436112,77.50402865999997,32.54974398
2.02,202,1.029,-0.108,0.168,3.6096354,41.023792799999995,-28.304125199999998,143.42284655999995,77.34360042,34.67541816
2.03,203,1.025,-0.12,0.185,7.161975,42.4561878,-25.2674478,145.43392913999998,77.14306512,36.67504158
2.04,204,1.018,-0.156,0.211,7.6203414,40.2789474,-22.9756158,147.25593558,76.93107066,38.46840012
2.05,205,1.024,-0.183,0.25,6.4744254,37.8725238,-21.3713334,148.90032504,76.7190762,40.09560084
2.0599999999999996,206,1.028,-0.181,0.292,5.3858052,36.8411994,-20.5691922,150.43585248,76.48989300000002,41.61966912000001
2.07,207,1.024,-0.17800000000000002,0.332,4.8128472,35.52339600000001,-20.9702628,151.90262496,76.27789854,43.08644159999999
2.0799999999999996,208,1.005,-0.17,0.345,3.9534102,35.52339600000001,-23.376686399999997,153.39804534,76.06590408,44.58759156
2.09,209,0.984,-0.152,0.35100000000000003,2.5210152000000003,37.41415739999999,-25.7258142,154.95076152,75.83672088,46.16895564
2.0999999999999996,210,0.971,-0.14400000000000002,0.343,1.9480572,39.591397799999996,-26.69984280000001,156.50920728,75.58461936,47.76177888
2.11,211,0.951,-0.118,0.355,-0.6302538000000001,39.1330314,-26.0122932,157.98170934,75.30386994,49.29157674
2.1199999999999997,212,0.934,-0.103,0.39,-1.6042823999999998,39.534102,-24.1788276,159.30524232,75.02312051999998,50.68386468
2.13,213,0.955,-0.08800000000000001,0.377,-1.8907613999999997,41.9405256,-22.0015872,160.52564286,74.70226404,51.973020180000006
2.1399999999999997,214,0.977,-0.059,0.375,-2.7501984,41.8832298,-20.340009,161.62572222,74.3699484,53.15331366
2.15,215,0.986,-0.054000000000000006,0.389,-2.5210152000000003,39.3049188,-19.0222056,162.61693956000005,74.0548215,54.21901554
2.1599999999999997,216,0.991,-0.038,0.395,-2.9220857999999996,34.3201842,-17.18874,163.52794278000005,73.76261292000002,55.19304414
2.17,217,1.014,-0.014,0.423,-2.7501984,29.4500412,-15.183387000000002,164.23841069999997,73.52197056,55.96653744
2.1799999999999997,218,1.018,-0.004,0.449,-1.7188740000000002,25.210152,-12.5477802,164.82282786000005,73.3099761,56.59679124
2.19,219,1.038,0.014,0.453,-1.432395,23.777757,-11.1153852,165.33849006,73.10944079999999,57.15829008000001
2.1999999999999997,220,1.025,0.002,0.473,-0.572958,21.9442914,-8.9954406,165.76820856,72.92036466,57.62238606
2.21,221,1.02,-0.013,0.468,-0.6302538000000001,20.168121600000006,-6.2452422,166.20365664,72.70264062,58.07502287999999
2.2199999999999998,222,1.024,-0.006999999999999999,0.474,-1.432395,18.162768600000003,-3.8961144,166.42711026,72.5364828,58.3271244
2.23,223,1.033,0.018000000000000002,0.464,-1.432395,16.042824000000003,-2.291832,166.5875385,72.38751372,58.51047096
2.2399999999999998,224,1.028,0.036000000000000004,0.463,0.6875496,12.6623718,-0.9167328,166.7021301,72.26146296,58.62506255999999
2.25,225,1.018,0.034,0.478,3.2085648,7.448453999999999,0.4583664000000001,166.76515548,72.192708,58.65944003999999
2.26,226,1.016,0.038,0.486,5.3858052,3.5523396000000003,1.0313244,167.09747112,72.08384598,58.92300072000001
2.27,227,1.013,0.025,0.488,7.5057497999999985,0.2291832000000001,1.3750992,167.13757818,72.07811640000001,58.88289365999999
2.28,228,0.998,0.015,0.488,7.5630456000000015,-1.145916,1.6042823999999998,167.16049650000005,72.08384598,58.83132744000001
2.29,229,0.997,0.009000000000000001,0.47,7.6203414,-2.1772404,2.86479,167.14330776,72.10103472,58.72819500000001
2.3,230,1.001,-0.011,0.473,8.9954406,-4.2398892,5.443101,167.0459049,72.12968262000003,58.52765970000001
2.31,231,1.003,-0.031,0.491,10.8289062,-5.1566220000000005,9.224623800000002,166.93131330000003,72.11249388,58.28701734
2.32,232,0.987,-0.051,0.478,12.1467096,-4.5263682,13.0634424,166.63910472,72.12395303999998,57.84583968000001
2.3299999999999996,233,0.962,-0.057,0.455,11.8029348,-5.72958,16.902261,166.22084538,72.14114178,57.27861126000001
2.34,234,0.938,-0.043,0.4270000000000001,10.1986524,-8.4224826,19.4232762,165.69372402000005,72.17551926,56.61397998
2.3499999999999996,235,0.94,-0.042,0.39,10.0840608,-13.2926256,20.8556712,165.08065896,72.25000379999999,55.86340500000001
2.36,236,0.969,-0.06,0.345,11.172681,-17.0741484,21.2567418,164.45613473999995,72.35886581999998,55.08418212
2.3699999999999997,237,0.999,-0.092,0.319,11.917526400000002,-19.194093,19.8243468,163.83734009999995,72.48491658,54.30495924
2.38,238,1.0,-0.121,0.358,13.521808800000002,-21.772404,17.7044022,163.27011168,72.64534482,53.56011384000001
2.3899999999999997,239,0.952,-0.149,0.376,14.2093584,-21.829699800000004,15.527161800000002,162.76017905999996,72.80577306,52.87256424
2.4,240,0.917,-0.16,0.365,13.120738199999998,-19.2513888,13.120738199999998,162.32473098,72.94901256,52.27668792000001
2.4099999999999997,241,0.889,-0.153,0.345,11.0007936,-18.3919518,12.891555,161.84917584,73.06360416,51.65789328
2.42,242,0.904,-0.14300000000000002,0.35600000000000004,8.651665800000002,-16.615782,12.7769634,161.38507986000005,73.17819576000002,51.08493528
2.4299999999999997,243,0.94,-0.136,0.366,7.0473834,-15.4125702,12.261301199999998,160.93244304,73.28705778,50.52916602000001
2.44,244,0.949,-0.155,0.339,5.0993262,-15.3552744,11.917526400000002,160.4568879,73.39019022,49.97912634000001
2.4499999999999997,245,0.933,-0.161,0.311,1.9480572,-13.8082878,9.797581800000001,160.02716940000005,73.48759308,49.50930078
2.46,246,0.8909999999999999,-0.127,0.303,0.7448454000000001,-11.516455800000001,5.7868758000000025,159.64328754000005,73.5678072,49.1025006
2.4699999999999998,247,0.932,-0.168,0.28300000000000003,4.0680017999999984,-10.886202,4.6409598,159.41983392000003,73.6537509,48.82748076
2.48,248,0.956,-0.182,0.256,3.6669312000000014,-10.4278356,3.2085648,159.24221694,73.73969459999998,48.60402714000001
2.4899999999999998,249,0.952,-0.158,0.248,1.3750992,-11.2872726,1.4896908000000002,159.08178869999998,73.83709746000002,48.42068058
2.5,250,0.934,-0.135,0.248,1.4896908000000002,-14.266654199999998,-0.4583664000000001,158.95573794,73.97460738,48.26598192
2.51,251,0.959,-0.157,0.243,4.8128472,-16.615782,-1.432395,158.76093222,74.12930604,48.01960998
2.52,252,0.933,-0.155,0.255,4.3544808,-17.9908812,-1.7188740000000002,158.65207019999997,74.30119343999998,47.85918174
2.53,253,0.92,-0.163,0.247,3.7815227999999994,-18.2200644,-1.5469866,158.52601944,74.47881042,47.68729434
2.54,254,0.909,-0.171,0.274,3.2085648,-18.2773602,-1.3750992,158.38850952,74.65642740000001,47.50394778
2.55,255,0.927,-0.199,0.289,3.5523396000000003,-18.9649098,0.0,158.1937038,74.82831479999999,47.26330542
2.56,256,0.936,-0.204,0.304,1.7188740000000002,-18.8503182,1.2605076000000002,157.7639853,74.95436556000001,46.8106686
2.57,257,0.944,-0.202,0.315,-0.3437748,-17.18874,2.6356068,157.4488584,75.10333464,46.47835296
2.5799999999999996,258,0.947,-0.181,0.298,-2.7501984,-13.980175199999998,2.86479,157.12800192,75.22365582,46.18041480000001
2.59,259,0.957,-0.16899999999999998,0.273,-3.3231564,-12.2040054,2.4064236,156.84152292,75.32678826,45.91685412
2.5999999999999996,260,0.937,-0.14800000000000002,0.272,-3.8961144,-10.4851314,0.9167328,156.62379887999995,75.41846154,45.72777798
2.61,261,0.935,-0.14,0.271,-3.2658606,-7.161975,-0.6302538000000001,156.44618190000003,75.42992070000003,45.584538480000006
2.6199999999999997,262,0.929,-0.14300000000000002,0.28,-2.4064236,-3.380452200000001,-2.0053530000000004,156.44045232,75.47002776000002,45.6074568
2.63,263,0.938,-0.147,0.281,-1.6615782,-3.2085648,-2.7501984,156.48055938,75.51586440000001,45.65902302
2.6399999999999997,264,0.961,-0.161,0.294,-2.1772404,-4.2398892,-3.0366774,156.50347770000005,75.56170104,45.70485966
2.65,265,1.006,-0.174,0.302,-4.0680017999999984,-6.990087599999999,-2.0626488000000003,156.43472274,75.63618558,45.67621176
2.6599999999999997,266,1.032,-0.157,0.292,-6.589017,-10.1986524,-1.4896908000000002,156.22272827999996,75.72212928,45.53297226
2.67,267,1.026,-0.13699999999999998,0.272,-7.0473834,-12.3758928,-1.3750992,156.01646340000005,75.84245046,45.38973276
2.6799999999999997,268,0.992,-0.124,0.263,-6.016058999999999,-12.834259199999998,-1.3750992,155.81019852,75.96277164,45.24076368
2.69,269,0.956,-0.121,0.266,-4.4117766,-11.4018642,-1.6042823999999998,155.64977028,76.07736324,45.1204425
2.6999999999999997,270,0.921,-0.13,0.266,-3.2658606,-10.7716104,-1.5469866,155.50653078,76.18049568,45.0058509
2.71,271,0.899,-0.136,0.273,-2.291832,-9.3392154,-1.0313244,155.34610254,76.20341400000002,44.86261140000001
2.7199999999999998,272,0.907,-0.134,0.267,-2.2345362,-6.6463128000000005,-0.6302538000000001,155.24297009999995,76.27216896,44.78239728
2.73,273,0.928,-0.129,0.268,-1.7188740000000002,-4.3544808,-0.6302538000000001,155.17994472,76.31227602,44.73083106
2.7399999999999998,274,0.95,-0.122,0.271,-0.6875496,-4.4117766,-1.0886202,155.14556724,76.35811265999997,44.70218316
2.75,275,0.967,-0.129,0.281,-0.2291832000000001,-5.6722842,-1.3178034,155.0997306,76.41540846000002,44.65634652
2.76,276,0.983,-0.136,0.282,-1.432395,-6.417129599999999,-1.3750992,155.00805731999995,76.42113803999997,44.58186198
2.77,277,0.993,-0.132,0.269,-2.0626488000000003,-7.9641161999999985,-1.0886202,154.89919530000003,76.49562258,44.4901887
2.78,278,0.978,-0.121,0.258,-1.4896908000000002,-9.6256944,-1.0313244,154.76741496,76.58729586000003,44.36413794
2.79,279,0.967,-0.112,0.257,-0.572958,-9.8548776,-1.145916,154.6413642,76.68469872,44.23808718
2.8,280,0.958,-0.114,0.255,-0.286479,-9.1100322,-1.432395,154.53823176,76.77064241999999,44.13495474
2.81,281,0.96,-0.12,0.242,0.057295800000000015,-8.479778399999999,-2.1772404,154.45801763999995,76.8336678,44.05474062
2.82,282,0.971,-0.122,0.234,0.7448454000000001,-8.651665800000002,-2.9220857999999996,154.43509932,76.92534108,44.02036314
2.8299999999999996,283,0.973,-0.129,0.236,1.145916,-9.797581800000001,-3.7815227999999994,154.42364016000005,77.02847352,43.99744482000001
2.84,284,0.968,-0.13699999999999998,0.25,0.7448454000000001,-11.8029348,-4.2398892,154.39499226,77.15452428,43.95733776
2.8499999999999996,285,0.97,-0.139,0.264,0.286479,-13.980175199999998,-4.3544808,154.32050772,77.30349336,43.87712364
2.86,286,0.98,-0.13,0.272,-0.3437748,-15.2406828,-4.4690724,154.24029360000003,77.42381454,43.79117994
2.8699999999999997,287,0.995,-0.129,0.268,-0.286479,-16.4438946,-4.4117766,154.11424284,77.58997236,43.66512918
2.88,288,1.009,-0.149,0.269,0.0,-17.8189938,-3.724227,153.93662586,77.76758934,43.48178262
2.8899999999999997,289,0.999,-0.159,0.277,-0.4010706,-19.3659804,-2.6929026,153.67879476000005,77.95666548,43.21822194
2.9,290,0.986,-0.152,0.278,-1.5469866,-20.2827132,-2.6356068,153.37512701999995,78.14574162,42.92601336
2.9099999999999997,291,0.971,-0.147,0.279,-2.291832,-20.2827132,-2.6929026,153.06000011999996,78.30044028,42.62234562
2.92,292,0.966,-0.152,0.271,-2.291832,-19.1367972,-2.3491278,152.74487322,78.47805725999999,42.32440746
2.9299999999999997,293,0.955,-0.151,0.265,-2.4064236,-17.8762896,-1.8907613999999997,152.42401674,78.64994466,42.01501014
2.94,294,0.959,-0.139,0.253,-3.4950437999999995,-16.7303736,-2.0053530000000004,152.10888984,78.80464332,41.72853114
2.9499999999999997,295,0.972,-0.125,0.249,-3.5523396000000003,-16.558486199999994,-2.7501984,151.82814042,78.96507156,41.47642962
2.96,296,0.978,-0.133,0.244,-3.5523396000000003,-16.7303736,-3.0939732,151.52447268,79.0968519,41.20140978
2.9699999999999998,297,0.984,-0.14300000000000002,0.239,-3.2658606,-17.5325148,-2.8074942000000003,151.20361619999997,79.26300972,40.90920120000001
2.98,298,0.978,-0.13699999999999998,0.243,-3.380452200000001,-18.449247600000003,-2.578311,150.84265266,79.4406267,40.57688556
2.9899999999999998,299,0.972,-0.124,0.245,-2.6929026,-19.0795014,-2.8074942000000003,150.47595954000005,79.61824368,40.22738118
3.0,300,0.961,-0.115,0.241,-2.2345362,-18.7357266,-3.151269,150.12072558,79.80159024000002,39.88933596
3.01,301,0.944,-0.113,0.236,-2.6929026,-17.4179232,-3.380452200000001,149.86862406,79.93337058,39.65442318
3.02,302,0.939,-0.113,0.218,-3.0366774,-15.183387000000002,-3.2658606,149.58787464,80.07661008,39.39659208
3.03,303,0.932,-0.113,0.209,-2.9220857999999996,-13.2926256,-2.8074942000000003,149.33004354,80.20839042,39.16740888
3.04,304,0.944,-0.113,0.197,-3.2658606,-11.516455800000001,-2.3491278,149.0836716,80.32298202,38.94968484
3.05,305,0.952,-0.119,0.182,-3.0939732,-10.255948199999999,-1.2605076000000002,148.8258405,80.41465529999998,38.71477206
3.06,306,0.956,-0.109,0.174,-4.6982556,-9.224623800000002,-0.6302538000000001,148.53363192,80.47768067999998,38.46840012
3.07,307,0.955,-0.092,0.166,-4.9274388,-9.167328,-0.3437748,148.22996418,80.55789480000001,38.21056902
3.08,308,0.955,-0.083,0.162,-4.9274388,-8.59437,-0.286479,147.93202602,80.63237934,37.9584675
3.09,309,0.963,-0.084,0.15,-5.443101,-7.5057497999999985,-0.6302538000000001,147.67419492000005,80.70113429999998,37.757932200000006
3.0999999999999996,310,0.961,-0.087,0.142,-5.844171599999999,-6.3025379999999975,-0.7448454000000001,147.45647088,80.7584301,37.59177438
3.11,311,0.964,-0.08900000000000001,0.14,-5.72958,-5.042030400000002,-1.0313244,147.29604264,80.8157259,37.48864194
3.1199999999999997,312,0.975,-0.085,0.14400000000000002,-5.5576926,-4.1825934,-1.3178034,147.16999188,80.86156254,37.41988698
3.13,313,0.977,-0.083,0.145,-5.443101,-3.380452200000001,-1.7761698,147.09550733999995,80.90166959999998,37.39696866
3.1399999999999997,314,0.979,-0.086,0.14300000000000002,-4.9274388,-3.151269,-1.9480572,147.04394112,80.93604708,37.39696866
3.15,315,0.976,-0.08900000000000001,0.15,-4.6409598,-2.86479,-1.9480572,147.00383406,80.97615413999998,37.40269823999999
3.1599999999999997,316,0.976,-0.093,0.158,-4.297185,-2.291832,-1.6042823999999998,147.06112986,80.98188372,37.5001011
3.17,317,0.974,-0.103,0.163,-3.5523396000000003,-1.5469866,-0.6302538000000001,147.00383406,80.99907246000002,37.48291236
3.1799999999999997,318,0.987,-0.104,0.171,-4.4117766,-0.2291832000000001,-0.6875496,146.98664532,81.00480204,37.50583068
3.19,319,0.983,-0.094,0.179,-3.8961144,0.11459160000000004,0.0,146.94653825999995,81.00480204,37.50583068
3.1999999999999997,320,0.983,-0.095,0.182,-3.7815227999999994,0.9167328,-0.057295800000000015,146.9350791,80.99907246000002,37.54020816
3.21,321,0.978,-0.101,0.185,-3.2658606,1.7188740000000002,0.286479,147.17572146,80.89594002,37.80949842
3.2199999999999998,322,0.976,-0.106,0.18600000000000005,-2.86479,2.578311,0.8594370000000001,147.18145104,80.86729212,37.84387589999999
3.23,323,0.971,-0.112,0.188,-2.5210152000000003,3.0939732,1.432395,147.17572146,80.83864422,37.86679422
3.2399999999999998,324,0.969,-0.114,0.187,-2.3491278,3.6669312000000014,1.7761698,147.16999188,80.79280758000002,37.88398296
3.25,325,0.965,-0.113,0.193,-2.1772404,4.1252976000000015,2.0053530000000004,147.17572146,80.74697094,37.91263086
3.26,326,0.967,-0.112,0.196,-1.8907613999999997,4.6409598,2.0626488000000003,147.30177222,80.63237934,38.05587036
3.27,327,0.971,-0.111,0.197,-1.4896908000000002,5.042030400000002,2.1199446,147.33042012,80.58081312,38.10170700000001
3.28,328,0.973,-0.113,0.197,-0.9167328,5.2139178,2.1772404,147.37052718,80.52351732,38.15327322
3.29,329,0.976,-0.116,0.198,-0.2291832000000001,5.2712136,2.0053530000000004,147.42782298000003,80.46622152,38.2162986
3.3,330,0.977,-0.123,0.197,0.5156622000000001,5.2139178,1.8907613999999997,147.49084836,80.41465529999998,38.27359439999999
3.31,331,0.979,-0.129,0.198,0.9740286,5.042030400000002,1.8334656000000005,147.55960332,80.28860454,38.330890200000006
3.32,332,0.981,-0.132,0.199,1.2032118,4.8128472,1.7761698,147.62835828,80.23703832,38.38818600000001
3.33,333,0.979,-0.134,0.205,1.2605076000000002,4.6409598,1.6042823999999998,147.69711324,80.18547209999998,38.445481799999996
3.34,334,0.979,-0.134,0.207,1.2032118,4.583664,1.5469866,147.76586819999997,80.13963546,38.50850718
3.3499999999999996,335,0.979,-0.135,0.208,1.3178034,4.6409598,1.432395,147.84608232,80.09379881999998,38.57726214
3.36,336,0.98,-0.13699999999999998,0.21,1.2605076000000002,4.6409598,1.2605076000000002,147.92056686,79.95055932,38.63455794
3.3699999999999997,337,0.984,-0.13699999999999998,0.215,1.2032118,4.6982556,0.9740286,148.01796972,79.90472267999998,38.72050164
3.38,338,0.992,-0.135,0.218,1.145916,4.583664,0.8021411999999999,148.12110216000005,79.85888604,38.8179045
3.3899999999999997,339,0.995,-0.133,0.22,1.2032118,4.1825934,0.6302538000000001,148.21850502,79.81877897999998,38.9038482
3.4,340,0.996,-0.134,0.217,1.145916,3.6096354,0.5156622000000001,148.30444872,79.7844015,38.98406232000001
3.4099999999999997,341,0.989,-0.131,0.215,1.4896908000000002,2.578311,0.572958,148.40758116,79.641162,39.07000602
3.42,342,0.981,-0.13,0.212,1.6615782,1.8907613999999997,0.4583664000000001,148.45914738000005,79.61824368,39.09865392
3.4299999999999997,343,0.978,-0.129,0.211,1.7761698,1.8334656000000005,0.1718874,148.51644317999995,79.60105494000003,39.14449056
3.44,344,0.976,-0.13,0.211,2.1772404,2.1199446,-0.2291832000000001,148.61384604,79.5838662,39.2189751
3.4499999999999997,345,0.976,-0.131,0.21,2.3491278,2.5210152000000003,-0.572958,148.73416722,79.56667746000002,39.31637796
3.46,346,0.979,-0.128,0.213,2.3491278,2.8074942000000003,-0.6302538000000001,148.92897294,79.45208586,39.48826536
3.4699999999999998,347,0.979,-0.123,0.215,2.3491278,2.8074942000000003,-0.572958,149.0550237,79.42916754,39.591397799999996
3.48,348,0.979,-0.119,0.213,2.3491278,2.578311,-0.572958,149.17534488,79.4119788,39.68880066
3.4899999999999998,349,0.98,-0.117,0.212,2.578311,2.291832,-0.4583664000000001,149.28420690000004,79.39479005999998,39.77474436
3.5,350,0.981,-0.121,0.211,2.6356068,2.1772404,-0.4583664000000001,149.39306892000005,79.37760132,39.86068806
3.51,351,0.982,-0.127,0.21600000000000005,2.4064236,1.8907613999999997,-0.4583664000000001,149.49620136,79.24009140000003,39.9351726
3.52,352,0.979,-0.13,0.222,1.7188740000000002,1.6615782,-0.572958,149.58214506,79.22863224,40.00965714
3.53,353,0.979,-0.13,0.227,1.4896908000000002,1.5469866,-0.6875496,149.67381834,79.21717308,40.08414168
3.54,354,0.982,-0.125,0.226,1.2605076000000002,1.3178034,-0.8594370000000001,149.75976204,79.2114435,40.15862622
3.55,355,0.979,-0.121,0.227,0.9740286,1.0886202,-0.8021411999999999,149.83424657999996,79.20571392,40.22738118
3.56,356,0.977,-0.122,0.229,0.9167328,0.8594370000000001,-0.6875496,150.14937347999995,78.96507156,40.52531934
3.57,357,0.976,-0.122,0.229,0.7448454000000001,0.9167328,-0.4583664000000001,150.2009397,78.95934198,40.57115598
3.58,358,0.978,-0.12,0.227,0.4583664000000001,1.0886202,-0.286479,150.24677634,78.95361240000003,40.61126304
3.59,359,0.98,-0.12,0.225,0.4583664000000001,0.9740286,-0.3437748,150.29261298,78.94215324000002,40.6513701
3.5999999999999996,360,0.978,-0.119,0.224,0.572958,0.572958,-0.4010706,150.33272004,78.94215324000002,40.68574758
3.61,361,0.976,-0.119,0.223,0.6302538000000001,0.286479,-0.4010706,150.68795400000005,78.62702634000001,41.02952238
3.6199999999999997,362,0.982,-0.117,0.224,0.8594370000000001,0.11459160000000004,-0.2291832000000001,150.71087232,78.62702634000001,41.04098154
3.63,363,0.995,-0.118,0.227,0.8021411999999999,0.1718874,0.0,150.72233148,78.62129675999998,41.04671112
3.6399999999999997,364,0.998,-0.12,0.231,0.8594370000000001,-0.9167328,0.286479,150.69368358,78.62702634000001,41.01233364
3.65,365,0.995,-0.121,0.235,0.8594370000000001,-2.5210152000000003,0.572958,150.61919904,78.64994466,40.92638994
3.6599999999999997,366,0.989,-0.12,0.235,0.4010706,-3.4950437999999995,0.6302538000000001,150.63638778,78.58691927999998,40.92638994
3.67,367,0.993,-0.119,0.23,-0.1718874,-3.4950437999999995,0.8594370000000001,150.5160666,78.60983759999998,40.80606876
3.6799999999999997,368,0.996,-0.123,0.221,-0.572958,-3.4377480000000005,1.2605076000000002,150.37855668,78.6384855,40.66855884
3.69,369,0.995,-0.124,0.227,-0.8021411999999999,-3.6669312000000014,1.3750992,150.22385802000005,78.66140382,40.51958976
3.6999999999999997,370,0.986,-0.124,0.226,-1.432395,-4.3544808,1.432395,150.04051146,78.69005172,40.35343194
3.71,371,0.969,-0.123,0.215,-1.6042823999999998,-3.8961144,1.432395,149.89154238,78.6671334,40.21592202
3.7199999999999998,372,0.968,-0.126,0.217,-2.1199446,-2.86479,1.2605076000000002,149.7425733,78.68432214,40.08414168
3.73,373,0.967,-0.126,0.231,-3.0366774,-2.0053530000000004,1.432395,149.5993338,78.6957813,39.96955008
3.7399999999999998,374,0.973,-0.125,0.235,-3.380452200000001,-1.3750992,1.8334656000000005,149.45036471999995,78.6957813,39.85495848000001
3.75,375,0.986,-0.131,0.243,-4.5263682,-2.1772404,2.1772404,149.24982942,78.70724046000002,39.70025982
3.76,376,0.999,-0.136,0.242,-6.8182002000000015,-4.8701430000000006,2.5210152000000003,148.96335041999995,78.70724046000002,39.47680620000001
3.77,377,1.011,-0.141,0.235,-9.0527364,-7.906820400000001,3.0366774,148.54509108,78.75880667999998,39.13876098
3.78,378,1.022,-0.136,0.236,-10.5424272,-10.9434978,3.7815227999999994,147.9950514,78.83329122,38.68612416
3.79,379,1.017,-0.126,0.223,-11.4018642,-13.349921400000001,3.8961144,147.35906802,78.9249645,38.15327322
3.8,380,1.001,-0.118,0.213,-12.261301199999998,-13.5791046,3.380452200000001,146.72308464,79.02236736,37.63188144
3.81,381,0.988,-0.11,0.179,-13.0634424,-12.9488508,2.6929026,146.12720832,79.11977021999998,37.1563263
3.82,382,0.976,-0.112,0.165,-11.45916,-11.4018642,2.6929026,145.56570947999995,79.19998434,36.70368948
3.83,383,0.945,-0.104,0.181,-10.313244,-10.255948199999999,3.2658606,145.02139938,79.26873930000002,36.25105266
3.84,384,0.939,-0.098,0.183,-9.167328,-9.3392154,3.6096354,144.49427802,79.32603509999998,35.809875
3.8499999999999996,385,0.948,-0.105,0.174,-6.8182002000000015,-9.1100322,3.4950437999999995,144.00153414,79.37760132,35.3801565
3.86,386,0.962,-0.111,0.173,-3.724227,-9.224623800000002,3.2658606,143.60046354,79.42343796,35.0077338
3.8699999999999997,387,0.961,-0.113,0.179,-2.3491278,-9.5111028,2.86479,143.15928588,79.48646334,34.58374488
3.88,388,0.953,-0.114,0.168,-1.5469866,-9.453807000000001,2.2345362,142.7524857,79.54948872,34.18267428
3.8899999999999997,389,0.938,-0.123,0.155,-0.9740286,-9.2819196,1.6042823999999998,142.38006299999995,79.6125141,33.81598116
3.9,390,0.928,-0.125,0.141,-1.145916,-7.8495246,1.0313244,142.07639526,79.66980989999998,33.512313420000005
3.9099999999999997,391,0.927,-0.134,0.128,0.0,-6.589017,0.6875496,141.69824298,79.72137612,33.13416114
3.92,392,0.93,-0.136,0.132,0.286479,-6.016058999999999,0.8021411999999999,141.46905978,79.76148318,32.89924836
3.9299999999999997,393,0.942,-0.139,0.13,-0.8021411999999999,-4.4690724,0.3437748,141.2914428,79.79586065999997,32.72736096
3.94,394,0.943,-0.136,0.126,-0.11459160000000004,-2.9793816000000004,-0.572958,141.21695826,79.82450856,32.65287642
3.9499999999999997,395,0.942,-0.149,0.124,0.3437748,-0.7448454000000001,-1.6615782,141.27425406,79.84169729999998,32.70444264
3.96,396,0.945,-0.151,0.122,0.572958,0.9167328,-2.291832,141.01642296,79.83596772,32.45234112
3.9699999999999998,397,0.958,-0.159,0.133,0.8021411999999999,2.0053530000000004,-2.6356068,141.2054991,79.83596772,32.635687680000004
3.98,398,0.962,-0.158,0.134,0.8594370000000001,3.151269,-2.1772404,141.41176398,79.82450856,32.84195256
3.9899999999999998,399,0.97,-0.158,0.131,0.572958,4.8701430000000006,-1.6615782,141.65240634,79.79586065999997,33.07686534
4.0,400,0.973,-0.151,0.127,0.3437748,6.417129599999999,-1.4896908000000002,141.93315576,79.75575359999998,33.363344340000005
4.01,401,0.971,-0.142,0.136,0.8021411999999999,7.5057497999999985,-1.7761698,142.17952770000005,79.6984578,33.6039867
4.02,402,0.966,-0.135,0.15,1.0886202,8.8235532,-2.4064236,142.58059830000005,79.641162,33.999327720000004
4.03,403,0.959,-0.136,0.149,0.6302538000000001,10.9434978,-2.6929026,143.04469428,79.57240704,34.46915328
4.04,404,0.948,-0.14300000000000002,0.14300000000000002,0.6302538000000001,12.2040054,-2.9220857999999996,143.55462690000004,79.49219292000002,34.984815479999995
4.05,405,0.941,-0.152,0.141,0.6302538000000001,13.120738199999998,-3.0939732,144.09320742,79.40051964,35.52339600000001
4.06,406,0.943,-0.152,0.135,1.4896908000000002,13.980175199999998,-3.5523396000000003,144.55157382,79.30311678,35.9817624
4.07,407,0.944,-0.156,0.138,1.8334656000000005,14.2093584,-4.0680017999999984,145.15317972,79.2114435,36.57763872
4.08,408,0.943,-0.147,0.149,2.2345362,14.0947668,-4.5263682,145.76624478,79.11977021999998,37.1849742
4.09,409,0.955,-0.133,0.168,2.5210152000000003,13.521808800000002,-5.0993262,146.38503942,79.03382652,37.7865801
4.1,410,0.948,-0.112,0.19,3.2658606,12.261301199999998,-5.2712136,146.97518616,78.95934198,38.35380852
4.109999999999999,411,0.946,-0.105,0.214,4.0680017999999984,12.6623718,-5.1566220000000005,147.62835828,78.86193912,38.97833274
4.12,412,0.975,-0.114,0.221,4.7555514,14.4385416,-4.2398892,148.22996418,78.76453626,39.54556116
4.13,413,0.973,-0.123,0.231,4.4690724,15.756345000000001,-3.4377480000000005,148.80865176,78.64421508000002,40.08987126
4.14,414,0.99,-0.139,0.255,4.297185,15.527161800000002,-2.2345362,149.32431395999996,78.52389389999998,40.57115598
4.1499999999999995,415,1.014,-0.136,0.28800000000000003,3.7815227999999994,14.7823164,-1.0313244,149.75403246000005,78.39784313999998,40.97222658
4.16,416,1.036,-0.121,0.308,4.2398892,13.980175199999998,0.3437748,150.2295876,78.2374149,41.41340424
4.17,417,1.042,-0.103,0.317,4.7555514,11.8029348,0.9167328,150.50460744,78.12855288,41.64258744
4.18,418,1.041,-0.08800000000000001,0.321,6.760904399999999,7.161975,0.9167328,150.69368358,78.05979792000002,41.76863820000001
4.1899999999999995,419,1.046,-0.094,0.335,8.250595200000001,7.0473834,0.5156622000000001,150.91140762,77.99677254,41.90614812
4.2,420,1.063,-0.101,0.314,8.8235532,7.7349330000000025,0.3437748,151.15777956000005,77.92801758,42.06657636
4.21,421,1.071,-0.114,0.293,8.8235532,5.1566220000000005,1.0886202,151.36977402,77.84780346,42.19262712
4.22,422,1.033,-0.095,0.299,8.7089616,2.291832,2.7501984,151.40415149999995,77.81342598,42.13533132
4.2299999999999995,423,1.039,-0.08800000000000001,0.297,10.7143146,1.2032118,3.6669312000000014,151.39269234,77.78477808,42.00928055999999
4.24,424,1.033,-0.084,0.303,11.2872726,0.2291832000000001,4.1825934,151.35258528,77.76185976,41.848852320000006
4.25,425,1.025,-0.076,0.314,12.4331886,-2.291832,4.6982556,151.24372326,77.76185976,41.61393954
4.26,426,1.028,-0.086,0.349,13.8082878,-4.5263682,5.5576926,151.21507536,77.73894143999998,41.42486340000001
4.27,427,1.036,-0.097,0.368,13.407217200000002,-3.4377480000000005,6.9327918,151.00881048000005,77.73321186000003,41.07535901999999
4.28,428,1.037,-0.104,0.34600000000000003,12.1467096,-1.8907613999999997,7.9641161999999985,150.77962728,77.71029354,40.71439548
4.29,429,1.036,-0.113,0.329,11.172681,-1.2032118,8.7662574,150.52179618,77.67591605999998,40.33624320000001
4.3,430,1.014,-0.104,0.315,10.4851314,-2.7501984,9.167328,150.21812844000004,77.65872732,39.91225428
4.31,431,0.989,-0.08800000000000001,0.308,9.9121734,-6.417129599999999,8.9381448,149.97175650000003,77.64153858,39.55129074
4.32,432,0.979,-0.07,0.315,11.45916,-9.167328,8.193299399999999,149.57068590000003,77.68164564,39.02416938
4.33,433,0.986,-0.084,0.32,12.7769634,-10.1413566,6.990087599999999,149.21545194,77.73321186000003,38.51996634
4.34,434,1.028,-0.118,0.317,9.797581800000001,-13.980175199999998,6.703608600000001,148.7398968,77.81915556,37.9298196
4.35,435,1.077,-0.149,0.295,5.443101,-19.480572,8.136003599999999,148.02942888,77.94520632,37.14486714
4.36,436,1.118,-0.14400000000000002,0.289,1.7188740000000002,-23.6631654,10.026765,147.12988481999997,78.07698666,36.20521602
4.37,437,1.135,-0.112,0.29100000000000004,-2.4064236,-25.9549974,11.45916,146.00688714,78.23168532,35.076488760000004
4.38,438,1.135,-0.076,0.287,-4.4117766,-27.9603504,12.891555,144.72346122000005,78.39211356000001,33.81025158
4.39,439,1.15,-0.038,0.259,-4.7555514,-29.9084076,14.381245800000002,143.28533664,78.5525418,32.389315739999994
4.3999999999999995,440,1.09,-0.028,0.247,-3.8961144,-33.6899304,16.673077799999998,141.61802885999995,78.7244292,30.72200796000001
4.41,441,1.058,-0.038,0.247,-4.297185,-34.7785506,18.3919518,139.89342528,78.87912786,28.99740438
4.42,442,1.067,-0.07200000000000001,0.227,-4.8701430000000006,-36.898495200000006,18.5638392,137.9396385,79.0395561,27.05507676
4.43,443,1.101,-0.126,0.22,-5.6149884000000005,-39.3622146,18.7930224,135.82542347999998,79.20571392,24.952320900000004
4.4399999999999995,444,1.113,-0.172,0.21,-7.1046792000000005,-40.6227222,20.168121600000006,133.53932106,79.354683,22.69486638
4.45,445,1.115,-0.187,0.196,-9.453807000000001,-40.680018,21.6578124,131.11570872,79.47500418000001,20.31709068
4.46,446,1.109,-0.163,0.17800000000000002,-11.1153852,-41.9978214,22.91832,128.53739772,79.57240704,17.80753464
4.47,447,1.086,-0.134,0.138,-11.2872726,-44.8626114,24.2934192,125.72990352,79.65835074,15.06306582
4.4799999999999995,448,1.0590000000000002,-0.117,0.106,-11.3445684,-46.409598,25.9549974,122.76771066,79.71564654,12.15816876
4.49,449,1.048,-0.097,0.08900000000000001,-10.886202,-46.8679644,26.7571386,119.73676284,79.73856486,9.19024632
4.5,450,1.041,-0.109,0.097,-8.880849000000003,-49.1597964,27.5592798,116.596953,79.73856486,6.079084379999999
4.51,451,1.039,-0.142,0.103,-8.193299399999999,-49.2170922,29.1062664,113.445684,79.6984578,2.9564632800000004
4.52,452,1.161,-0.16699999999999998,0.075,-8.307891,-49.847346,31.3980984,110.24284878,79.60678451999998,-0.21199446
4.53,453,1.042,-0.119,0.075,-11.45916,-52.82672760000001,29.7365202,106.94834028,79.50365208,-3.45493674
4.54,454,1.048,-0.165,0.08800000000000001,-8.479778399999999,-54.3737142,33.518043,103.63091346,79.34322384000002,-6.74944524
4.55,455,1.0490000000000002,-0.19,0.105,-10.4278356,-52.82672760000001,36.2682414,100.45672614,79.11404064,-9.883525500000001
4.56,456,1.012,-0.177,0.086,-11.172681,-50.6494872,37.9871154,97.52891076,78.83329122,-12.75977466
4.57,457,0.975,-0.177,0.07,-12.7769634,-50.0765292,39.877876799999996,94.73287572,78.50670516,-15.48132516
4.58,458,0.972,-0.187,0.062,-13.6936962,-49.3316838,41.7113424,92.11445766,78.13428246,-18.019529100000003
4.59,459,0.96,-0.205,0.066,-13.178034,-47.555514,43.48751220000001,89.74814112,77.7217527,-20.3113611
4.6,460,0.945,-0.221,0.054000000000000006,-12.032117999999999,-43.4302164,45.263682,87.72559937999998,77.26911588,-22.26514788
4.61,461,0.925,-0.231,0.033,-11.6310474,-41.4821592,46.409598,85.9437,76.79929032,-23.9782923
4.62,462,0.912,-0.246,0.009000000000000001,-12.261301199999998,-39.534102,47.2117392,84.34514718,76.30654644,-25.496631
4.63,463,0.935,-0.247,-0.033,-11.0580894,-37.7006364,47.67010560000001,82.94140008000002,75.80234340000001,-26.83735272
4.64,464,0.954,-0.25,-0.038,-8.5370742,-36.4401288,47.8992888,81.70954037999998,75.29241078,-28.02337578
4.6499999999999995,465,0.973,-0.257,-0.037000000000000005,-6.5317212,-34.7212548,48.4722468,80.64383849999999,74.77674858,-29.06615934
4.66,466,0.98,-0.28,-0.016,-5.3285094000000015,-33.8618178,50.3057124,79.70991696000002,74.23243848,-29.98289214
4.67,467,0.952,-0.273,0.003,-6.0733548,-34.3201842,52.3683612,78.81610248000001,73.66521005999998,-30.8537883
4.68,468,0.922,-0.28,0.012,-5.6149884000000005,-34.8931422,54.3737142,77.98531338000002,73.07506332,-31.66738866
4.6899999999999995,469,0.903,-0.284,0.002,-6.1879464,-33.2888598,55.748813399999996,77.25765672,72.47345742,-32.36639742
4.7,470,0.89,-0.306,-0.002,-5.7868758000000025,-30.7105488,56.5509546,76.66750998,71.86612194,-32.933625840000005
4.71,471,0.89,-0.315,-0.001,-6.016058999999999,-28.4187168,57.983349600000004,76.20914358,71.24732730000002,-33.357614760000004
4.72,472,0.8759999999999999,-0.328,0.003,-5.6722842,-25.55392680000001,59.4157446,75.84818004,70.61707349999998,-33.684200819999994
4.7299999999999995,473,0.875,-0.342,0.0,-6.016058999999999,-23.2620948,60.8481396,75.57316019999998,69.98109012,-33.9191136
4.74,474,0.887,-0.364,-0.004,-6.016058999999999,-22.5172494,62.738901,75.34970658,69.32791800000001,-34.09673058
4.75,475,0.8809999999999999,-0.376,-0.004,-7.7922288,-20.798375399999998,64.4004792,75.16636002,68.65755714000001,-34.21132218
4.76,476,0.905,-0.381,-0.017,-8.136003599999999,-18.6784308,65.3745078,75.06895716,67.98719628,-34.23424050000001
4.77,477,0.902,-0.386,0.002,-8.3651868,-18.162768600000003,64.9161414,74.96009513999998,67.322565,-34.262888399999994
4.78,478,0.899,-0.393,0.001,-8.880849000000003,-18.1054728,64.744254,74.85123311999997,66.65793372,-34.28580672
4.79,479,0.909,-0.416,0.002,-10.1413566,-18.2773602,64.28588760000001,74.72518235999998,65.99903202,-34.31445462
4.8,480,0.929,-0.433,0.009000000000000001,-10.9434978,-19.1367972,63.1399716,74.57621328,65.3458599,-34.36029126
4.81,481,0.928,-0.453,0.005,-11.2872726,-19.938938399999998,61.4210976,74.42151462000002,64.70987652,-34.41185748
4.82,482,0.935,-0.468,-0.019,-11.4018642,-21.0848544,60.16059,74.22097932,64.0853523,-34.51498992
4.83,483,0.93,-0.481,-0.032,-11.5737516,-22.459953600000002,59.53033620000001,73.99179612,63.46082808,-34.64104068
4.84,484,0.914,-0.483,-0.054000000000000006,-11.172681,-24.1215318,59.014674,73.73969459999998,62.83630386,-34.79573934
4.85,485,0.901,-0.475,-0.083,-10.886202,-25.55392680000001,58.0406454,73.47040434,62.21750922,-34.9790859
4.86,486,0.913,-0.487,-0.08900000000000001,-8.479778399999999,-25.6685184,56.8374336,73.23549156,61.61017374000001,-35.15670288
4.87,487,0.9,-0.484,-0.08800000000000001,-6.875496000000001,-26.7571386,56.66554620000001,73.00057878,60.99710868000001,-35.3515086
4.88,488,0.88,-0.487,-0.078,-6.3598338,-28.361421000000004,56.0925882,72.74847725999999,60.38977319999999,-35.57496222
4.89,489,0.882,-0.496,-0.058,-6.4744254,-28.8770832,55.748813399999996,72.49064616,59.78243772,-35.79841584000001
4.8999999999999995,490,0.866,-0.519,-0.034,-5.844171599999999,-29.392745399999995,56.4936588,72.25000379999999,59.16364308,-36.01613988
4.91,491,0.8540000000000001,-0.528,-0.058,-6.8182002000000015,-29.9084076,57.00932099999999,72.01509102,58.54484844,-36.22240476
4.92,492,0.8740000000000001,-0.529,-0.079,-7.2192707999999985,-29.4500412,57.86875799999999,71.78017824,57.91459464,-36.41721048
4.93,493,0.8540000000000001,-0.522,-0.092,-8.651665800000002,-29.507337,57.92605379999999,71.53953588,57.28434083999999,-36.60628662000001
4.9399999999999995,494,0.852,-0.544,-0.104,-8.7089616,-29.220858000000003,58.67089920000001,71.31035268,56.64262788,-36.77244444
4.95,495,0.861,-0.557,-0.105,-7.7349330000000025,-29.392745399999995,61.07732280000001,71.10981738,55.98372618000001,-36.9271431
4.96,496,0.8340000000000001,-0.563,-0.109,-9.0527364,-30.3094782,63.1972674,70.90928208,55.29617658,-37.0703826
4.97,497,0.8340000000000001,-0.564,-0.123,-9.6256944,-30.366774000000003,64.4004792,70.7030172,54.602897399999996,-37.20789252
4.9799999999999995,498,0.845,-0.562,-0.129,-9.453807000000001,-31.8564648,65.3745078,70.49102274,53.89242948,-37.3568616
4.99,499,0.828,-0.565,-0.127,-9.3392154,-32.8877892,65.7755784,70.27902828,53.1705024,-37.51156026
5.0,500,0.8240000000000001,-0.5579999999999999,-0.168,-9.167328,-36.4974246,66.00476160000001,70.02692676,52.44284574000001,-37.71209556
5.01,501,0.8029999999999999,-0.545,-0.189,-9.2819196,-38.8465524,66.00476160000001,69.7576365,51.70372992,-37.94700834
5.02,502,0.7979999999999999,-0.561,-0.231,-7.9641161999999985,-40.680018,64.8588456,69.48261666,50.97034368,-38.19910986
5.03,503,0.818,-0.603,-0.228,-5.958763200000001,-43.544808,64.17129600000001,69.20186724,50.23122786,-38.49131844
5.04,504,0.8190000000000001,-0.61,-0.224,-5.9014674000000005,-44.34694920000001,63.48374640000001,68.9268474,49.49784162,-38.7892566
5.05,505,0.8079999999999999,-0.599,-0.231,-4.9847345999999995,-45.263682,63.7702254,68.65755714000001,48.75299622,-39.08719476
5.06,506,0.746,-0.597,-0.26,-4.6982556,-47.4409224,65.8328742,68.37680772,47.9852325,-39.39659208
5.07,507,0.662,-0.605,-0.256,-2.4064236,-46.8679644,68.46848100000001,68.15908368000001,47.19455046,-39.67161192
5.08,508,0.599,-0.621,-0.264,0.2291832000000001,-43.48751220000001,70.9894962,68.01584418,46.38667968,-39.8778768
5.09,509,0.5920000000000001,-0.6459999999999999,-0.25,4.297185,-40.90920120000001,73.28132819999998,67.95854838,45.57307932,-40.03257546
5.1,510,0.616,-0.6859999999999999,-0.2,7.161975,-36.8411994,75.4012728,67.97573712,44.748019799999994,-40.12424874
5.11,511,0.6779999999999999,-0.6759999999999999,-0.18600000000000005,8.021412000000002,-33.8618178,77.17744259999998,68.03876249999999,43.92296028,-40.15862622
5.12,512,0.6970000000000001,-0.665,-0.171,8.4224826,-33.231564,79.354683,68.11897662,43.08071202,-40.17581496
5.13,513,0.65,-0.6579999999999999,-0.132,6.0733548,-31.51269000000001,80.1568242,68.18773158,42.23273418,-40.17581496
5.14,514,0.565,-0.6759999999999999,-0.113,3.9534102,-28.4187168,79.1254998,68.25648654,41.40767466000001,-40.14143748
5.1499999999999995,515,0.51,-0.6920000000000001,-0.117,2.1772404,-26.356068,76.77637200000002,68.31378234,40.61126304,-40.09560084
5.16,516,0.473,-0.713,-0.122,0.3437748,-21.027558600000006,73.5678072,68.40545562,39.8492289,-39.98673882
5.17,517,0.499,-0.728,-0.109,-0.7448454000000001,-17.475219,68.6403684,68.46848100000001,39.15022014,-39.87214722
5.18,518,0.5920000000000001,-0.8009999999999999,-0.133,-1.432395,-14.610429000000002,63.02538000000001,68.53150638,38.51996634,-39.75755562
5.1899999999999995,519,0.633,-0.823,-0.193,-2.86479,-14.5531332,60.0459984,68.57161344,37.91836044,-39.65442318
5.2,520,0.5429999999999999,-0.8109999999999999,-0.17600000000000002,-2.86479,-15.756345000000001,58.9000824,68.59453176,37.31675454,-39.56847947999999
5.21,521,0.458,-0.787,-0.16899999999999998,-2.9793816000000004,-13.0061466,56.3790672,68.64609798000001,36.73233738,-39.45388788
5.22,522,0.476,-0.762,-0.17,-3.2658606,-7.0473834,52.82672760000001,68.70912336,36.22240476,-39.3049188
5.2299999999999995,523,0.5489999999999999,-0.758,-0.193,-2.4637194,-2.0626488000000003,50.5921914,68.80079664,35.74684962,-39.1043835
5.24,524,0.599,-0.7829999999999999,-0.23,-1.7761698,0.057295800000000015,50.76407879999999,68.91538824,35.27702406,-38.88092988
5.25,525,0.589,-0.794,-0.249,-0.4583664000000001,-0.6302538000000001,51.9672906,69.03570942,34.79000976,-38.66320584
5.26,526,0.56,-0.7829999999999999,-0.263,1.3750992,-1.8907613999999997,52.597544400000004,69.16748976,34.291536300000004,-38.46267054
5.27,527,0.531,-0.748,-0.265,2.1199446,-3.0939732,51.6235158,69.29354052,33.80452200000001,-38.27932398
5.28,528,0.515,-0.722,-0.262,3.0366774,-3.8961144,49.90464179999999,69.41386170000001,33.32896686,-38.11316616000001
5.29,529,0.4970000000000001,-0.725,-0.274,2.8074942000000003,-4.4117766,47.9565846,69.5284533,32.86487088,-37.96419708000001
5.3,530,0.465,-0.733,-0.279,2.0626488000000003,-3.5523396000000003,47.0398518,69.63158574,32.41796364,-37.80949842
5.31,531,0.4320000000000001,-0.747,-0.272,2.2345362,-2.0626488000000003,46.696077,69.74044776000001,31.95959724,-37.64907018
5.32,532,0.408,-0.759,-0.279,2.2345362,0.4583664000000001,46.753372799999994,69.86076894,31.52987874,-37.45426446000001
5.33,533,0.407,-0.769,-0.289,2.1199446,2.86479,46.9252602,69.99827886,31.10016024,-37.23654042
5.34,534,0.428,-0.774,-0.29600000000000004,2.4637194,4.4117766,47.555514,70.14724794,30.67044174,-37.00162764
5.35,535,0.445,-0.772,-0.298,2.7501984,5.042030400000002,48.9306132,70.29621702,30.22926408,-36.755255700000006
5.36,536,0.446,-0.768,-0.299,2.7501984,5.1566220000000005,50.420304,70.43945652,29.765168100000004,-36.51461334
5.37,537,0.457,-0.7709999999999999,-0.298,3.5523396000000003,5.042030400000002,51.9099948,70.59988476,29.29534254,-36.26251182
5.38,538,0.461,-0.7879999999999999,-0.276,4.6409598,4.4117766,52.6548402,70.76604258,28.81978740000001,-36.01613988
5.39,539,0.453,-0.8,-0.261,4.297185,4.5263682,52.9413192,70.92647081999998,28.332773100000004,-35.77549752
5.3999999999999995,540,0.439,-0.815,-0.268,4.8128472,4.6409598,52.9413192,71.09262864,27.85148838,-35.52912558
5.41,541,0.426,-0.835,-0.262,5.2712136,4.9274388,52.425657,71.25878646,27.37020366,-35.28848322
5.42,542,0.418,-0.843,-0.259,4.3544808,6.417129599999999,51.68081160000001,71.41348512,26.9003781,-35.03638170000001
5.43,543,0.405,-0.843,-0.257,4.0680017999999984,9.0527364,50.6494872,71.57964294,26.447741279999995,-34.76136186
5.4399999999999995,544,0.397,-0.851,-0.263,3.8961144,12.0894138,49.7327544,71.75153034,26.01802278000001,-34.4634237
5.45,545,0.394,-0.855,-0.252,4.583664,13.750992000000002,49.388979600000006,71.93487689999998,25.58830428,-34.1482968
5.46,546,0.386,-0.853,-0.244,5.3858052,14.495837400000001,49.61816279999999,72.12395303999998,25.15858578000001,-33.82744032
5.47,547,0.38,-0.852,-0.238,6.3598338,14.32395,49.7327544,72.32448833999999,24.72886728,-33.512313420000005
5.4799999999999995,548,0.366,-0.862,-0.21600000000000005,7.6203414,13.8655836,49.560867,72.52502364,24.2934192,-33.2029161
5.49,549,0.354,-0.875,-0.21,7.7349330000000025,13.980175199999998,49.04520479999999,72.73128852,23.869430280000003,-32.89924836
5.5,550,0.35200000000000004,-0.882,-0.208,7.906820400000001,14.32395,47.4982182,72.92609424,23.45690052,-32.6013102
5.51,551,0.344,-0.888,-0.205,7.8495246,15.756345000000001,44.919907200000004,73.13235912,23.06728908,-32.29191288
5.52,552,0.333,-0.8959999999999999,-0.205,7.906820400000001,17.18874,42.28430039999999,73.33289442,22.70632554,-31.982515560000003
5.53,553,0.325,-0.904,-0.212,8.193299399999999,18.2200644,40.393539,73.53342971999999,22.36828032,-31.67311824
5.54,554,0.32,-0.909,-0.21600000000000005,8.479778399999999,18.9649098,40.04976420000001,73.73969459999998,22.03596468,-31.352261760000005
5.55,555,0.305,-0.92,-0.212,8.8235532,19.480572,40.680018,73.94595948,21.69791946,-31.03140528
5.56,556,0.31,-0.932,-0.219,8.9381448,19.7097552,41.4821592,74.15795394,21.3426855,-30.70481922
5.57,557,0.315,-0.942,-0.204,9.453807000000001,19.6524594,41.9405256,74.3699484,20.98745154,-30.38396274
5.58,558,0.31,-0.942,-0.2,9.568398599999998,19.2513888,42.1697088,74.57621328,20.63221758,-30.06310626
5.59,559,0.298,-0.946,-0.191,10.026765,18.8503182,42.05511720000001,74.78820774,20.276983620000006,-29.75370894
5.6,560,0.28,-0.953,-0.187,10.0840608,19.4232762,41.8832298,74.99447262,19.91602008,-29.43858204
5.61,561,0.267,-0.96,-0.191,10.7143146,20.1108258,42.1697088,75.21792624,19.54932696,-29.11772556
5.62,562,0.264,-0.963,-0.18,11.3445684,20.626488,42.62807520000001,75.43565028,19.18836342,-28.791139500000003
5.63,563,0.258,-0.957,-0.17600000000000002,11.917526400000002,21.0848544,43.48751220000001,75.66483348,18.81594072,-28.46455344
5.64,564,0.259,-0.955,-0.17600000000000002,12.4904844,20.9702628,44.34694920000001,75.89401668000002,18.43778844,-28.13796738
5.6499999999999995,565,0.26,-0.954,-0.161,13.0061466,21.199446,45.4928652,76.12892946000002,18.04244742,-27.805651739999995
5.66,566,0.256,-0.954,-0.157,13.464512999999998,21.5432208,46.352302200000004,76.37530140000001,17.63564724,-27.46760652
5.67,567,0.253,-0.95,-0.151,13.5791046,21.3713334,46.753372799999994,76.61021418,17.22884706,-27.14102046
5.68,568,0.243,-0.944,-0.145,13.6364004,21.3140376,47.0398518,76.83939738000002,16.8163173,-26.80870482000001
5.6899999999999995,569,0.227,-0.941,-0.142,13.8655836,21.1421502,46.8106686,77.07431016000002,16.409517119999997,-26.48784834
5.7,570,0.213,-0.945,-0.139,14.4385416,21.027558600000006,46.065823200000004,77.30349336,16.002716940000006,-26.166991860000003
5.71,571,0.212,-0.947,-0.146,14.896907999999998,21.199446,45.4928652,77.54413572000001,15.59591676,-25.85186496
5.72,572,0.215,-0.937,-0.145,15.813640800000002,20.9702628,45.1490904,77.78477808,15.20057574,-25.54246764
5.7299999999999995,573,0.212,-0.938,-0.141,16.902261,20.798375399999998,44.919907200000004,78.03687959999998,14.799505140000004,-25.23307032
5.74,574,0.207,-0.934,-0.133,17.7044022,20.626488,44.404245,78.28898111999997,14.409893700000001,-24.92940258
5.75,575,0.196,-0.93,-0.123,18.3919518,21.199446,43.3156248,78.5525418,14.02601184,-24.62573484
5.76,576,0.19,-0.931,-0.123,18.7357266,21.8869956,41.76863820000001,78.81610248000001,13.65358914,-24.3220671
5.77,577,0.195,-0.942,-0.114,19.480572,21.772404,40.4508348,79.07966316,13.2926256,-24.02412894
5.78,578,0.181,-0.958,-0.118,19.7097552,21.0848544,39.7632852,79.34895342,12.94312122,-23.73764994
5.79,579,0.177,-0.951,-0.126,19.8243468,21.0848544,38.961144,79.60678451999998,12.59361684,-23.45117094
5.8,580,0.184,-0.945,-0.126,20.9702628,20.9702628,38.27359439999999,79.88180436,12.25557162,-23.17042152
5.81,581,0.195,-0.938,-0.117,21.829699800000004,20.2254174,37.9871154,80.16255378,11.91179682,-22.90113126
5.82,582,0.196,-0.942,-0.116,22.6891368,19.4232762,37.8725238,80.44330319999997,11.5737516,-22.63757058
5.83,583,0.193,-0.942,-0.126,23.204799,17.7044022,37.757932200000006,80.72405262,11.2299768,-22.39692822
5.84,584,0.187,-0.946,-0.111,24.2361234,15.985528200000001,37.81522800000001,81.01053162,10.88047242,-22.1734746
5.85,585,0.175,-0.952,-0.08199999999999999,25.0382646,14.896907999999998,37.2995658,81.30274019999997,10.53669762,-21.96720972
5.86,586,0.161,-0.953,-0.091,25.0382646,14.495837400000001,35.8671708,81.59494878,10.1986524,-21.76667442
5.87,587,0.139,-0.97,-0.095,25.4393352,12.4904844,35.3515086,81.88142778,9.87206634,-21.58905744
5.88,588,0.145,-0.982,-0.085,25.3247436,11.5737516,35.17962120000001,82.16790678,9.5397507,-21.42289962
5.89,589,0.159,-0.98,-0.097,24.7517856,10.8289062,35.0077338,82.44292662,9.20743506,-21.26247138
5.8999999999999995,590,0.151,-0.983,-0.08900000000000001,25.210152,9.167328,34.8931422,82.72367604,8.87511942,-21.12496146
5.91,591,0.129,-0.984,-0.048,26.2414764,8.4224826,34.8931422,83.01588462000002,8.5370742,-20.99318112
5.92,592,0.103,-0.977,-0.029,25.6685184,9.453807000000001,33.9764094,83.29663404,8.21621772,-20.8556712
5.93,593,0.086,-0.994,-0.06,25.1528562,10.255948199999999,32.6013102,83.57165388,7.906820399999999,-20.71816128
5.9399999999999995,594,0.078,-0.997,-0.08900000000000001,25.3247436,8.880849000000003,32.544014399999995,83.84667372,7.5916935,-20.59211052
5.95,595,0.07400000000000001,-1.01,-0.048,26.41336380000001,8.193299399999999,33.116972399999995,84.12742313999998,7.2765666,-20.47178934
5.96,596,0.084,-1.003,-0.033,26.7571386,8.078707799999998,33.3461556,84.41963172,6.94425096,-20.35719774
5.97,597,0.086,-1.012,-0.053,27.043617600000005,6.417129599999999,34.091001,84.70611072,6.617664899999999,-20.25979488
5.9799999999999995,598,0.093,-1.023,-0.058,26.298772200000002,5.5003968,35.46610020000001,84.98686014,6.2738901,-20.168121600000006
5.99,599,0.084,-1.029,-0.029,27.2728008,4.583664,37.1849742,85.27333913999998,5.90719698,-20.08790748
6.0,600,0.054000000000000006,-1.02,-0.009000000000000001,27.444688199999998,4.1252976000000015,38.5600734,85.55408856,5.5290447,-20.01342294
6.01,601,0.031,-1.029,-0.023,27.7311672,3.7815227999999994,39.1330314,85.85202672,5.13943326,-19.94466798
6.02,602,0.009000000000000001,-1.042,-0.004,28.304125199999998,2.4637194,39.6486936,86.1442353,4.749821819999998,-19.89310176
6.03,603,-0.011,-1.048,0.014,28.81978740000001,3.151269,39.534102,86.43644388,4.36021038,-19.83007638
6.04,604,-0.032,-1.046,0.021,28.4187168,4.9274388,38.90384820000001,86.73438204,3.97632852,-19.75559184
6.05,605,-0.049,-1.032,0.034,28.074942,6.589017,37.8725238,87.02659062000002,3.60390582,-19.66964814
6.06,606,-0.058,-1.021,0.033,28.0176462,8.651665800000002,36.669312,87.32452878000002,3.2314831199999987,-19.56078612
6.07,607,-0.047,-1.017,0.027000000000000003,27.788463,10.1413566,35.7525792,87.61100778,2.88197874,-19.44619452
6.08,608,-0.033,-1.017,0.033,27.6738714,10.4278356,35.3515086,87.89748678,2.53247436,-19.32587334
6.09,609,-0.019,-1.016,0.042,27.6738714,10.026765,35.5806918,88.18396578000002,2.18296998,-19.21128174
6.1,610,-0.024,-1.007,0.083,27.3300966,8.8235532,35.3515086,88.4647152,1.8334656000000005,-19.11387888
6.11,611,-0.041,-1.004,0.08900000000000001,26.69984280000001,9.2819196,34.0337052,88.7511942,1.48396122,-19.01074644
6.12,612,-0.049,-1.013,0.056,25.3820394,9.6256944,32.142943800000005,89.00902529999998,1.1688343199999998,-18.907614
6.13,613,-0.06,-1.024,0.066,25.2674478,9.167328,30.7678446,89.2668564,0.86516658,-18.81021114
6.14,614,-0.071,-1.025,0.083,25.2674478,9.5111028,29.507337,89.5246875,0.5729580000000001,-18.7070787
6.15,615,-0.086,-1.015,0.079,24.5798982,10.1986524,28.361421000000004,89.77105944,0.28647900000000004,-18.60394626
6.16,616,-0.099,-1.011,0.094,24.8663772,10.255948199999999,27.3300966,90.04034970000002,0.0,-18.50081382
6.17,617,-0.105,-1.015,0.129,25.7258142,11.4018642,26.298772200000002,90.30391038,-0.25783110000000004,-18.38622222
6.18,618,-0.091,-1.023,0.12,25.55392680000001,13.2926256,24.637194,90.56174148,-0.5099326200000001,-18.25444188
6.1899999999999995,619,-0.085,-1.025,0.114,24.694489800000003,12.834259199999998,23.4339822,90.80811342,-0.7448454000000001,-18.12839112
6.2,620,-0.087,-1.033,0.15,24.9809688,11.8602306,22.5745452,91.06021494,-0.96829902,-18.00806994
6.21,621,-0.078,-1.044,0.154,25.0382646,12.4904844,21.6578124,91.3295052,-1.19748222,-17.88774876
6.22,622,-0.078,-1.04,0.15,23.9496444,11.9748222,20.5691922,91.57014756,-1.40947668,-17.77315716
6.2299999999999995,623,-0.086,-1.031,0.174,23.6631654,11.0580894,19.3659804,91.80506034,-1.6042824000000002,-17.66429514
6.24,624,-0.08,-1.029,0.165,23.491278,10.5424272,18.1054728,92.03997312,-1.78762896,-17.566892279999998
6.25,625,-0.078,-1.016,0.152,22.5172494,8.8235532,16.959556799999998,92.26342674,-1.9595163600000003,-17.48094858
6.26,626,-0.095,-0.995,0.181,22.058883,6.016058999999999,15.3552744,92.52125784,-2.13140376,-17.429382359999998
6.27,627,-0.111,-0.987,0.189,22.173474600000002,5.6149884000000005,13.8082878,92.74471146,-2.2746432600000004,-17.37781614
6.28,628,-0.11,-0.987,0.174,20.912967,5.5003968,12.4904844,92.95097633999998,-2.40069402,-17.326249920000002
6.29,629,-0.111,-0.987,0.159,20.1108258,3.6096354,11.8602306,93.15724122,-2.5210152000000003,-17.29760202
6.3,630,-0.113,-0.999,0.163,19.5378678,1.2605076000000002,11.745639,93.35204694,-2.6356068,-17.286142859999998
6.31,631,-0.118,-1.007,0.193,18.7357266,0.0,11.5737516,93.5926893,-2.77311672,-17.29187244
6.32,632,-0.132,-1.007,0.218,18.334656,0.4583664000000001,11.2872726,93.77603586,-2.88770832,-17.29760202
6.33,633,-0.151,-1.016,0.206,16.7303736,1.8334656000000005,11.1153852,93.94792326,-2.9965703400000003,-17.280413279999998
6.34,634,-0.16399999999999998,-1.02,0.188,13.5791046,4.6409598,10.3705398,94.0797036,-3.0997027800000003,-17.24030622
6.35,635,-0.16699999999999998,-1.021,0.162,12.7196676,7.448453999999999,9.3392154,94.20575436,-3.20283522,-17.171551259999998
6.36,636,-0.166,-1.022,0.14,10.6570188,8.880849000000003,8.5370742,94.32607554,-3.33461556,-17.09133714
6.37,637,-0.163,-1.009,0.165,9.6256944,9.797581800000001,8.078707799999998,94.41774882,-3.42628884,-16.999663860000002
6.38,638,-0.16,-0.998,0.179,10.7716104,11.4018642,7.161975,94.52088126,-3.50650296,-16.89080184
6.39,639,-0.155,-0.993,0.188,10.5424272,12.834259199999998,5.958763200000001,94.61828412,-3.5809875,-16.77048066
6.4,640,-0.14300000000000002,-0.99,0.174,9.969469199999999,14.610429000000002,4.6982556,94.70995740000001,-3.6440128800000013,-16.62724116
6.41,641,-0.134,-1.006,0.17,9.6256944,15.5844576,3.8961144,94.824549,-3.71849742,-16.47827208
6.42,642,-0.133,-1.023,0.189,7.9641161999999985,15.756345000000001,3.7815227999999994,94.89330396,-3.77579322,-16.323573420000002
6.43,643,-0.147,-1.03,0.174,6.0733548,16.329303,3.2658606,94.94487018,-3.82735944,-16.16887476
6.4399999999999995,644,-0.16399999999999998,-1.04,0.154,3.8961144,17.475219,2.4064236,94.9677885,-3.8674665,-15.99698736
6.45,645,-0.152,-1.046,0.14400000000000002,2.2345362,18.5065434,1.2605076000000002,94.97924766,-3.90184398,-15.813640799999998
6.46,646,-0.139,-1.046,0.13699999999999998,1.0886202,18.3919518,0.5156622000000001,94.98497724,-3.95913978,-15.63602382
6.47,647,-0.112,-1.041,0.138,0.057295800000000015,17.0168526,0.2291832000000001,94.97351808,-3.9820580999999997,-15.46413642
6.4799999999999995,648,-0.079,-1.029,0.134,-0.8594370000000001,14.5531332,-0.1718874,94.95059976,-3.99351726,-15.32089692
6.49,649,-0.058,-1.016,0.135,-1.9480572,11.0580894,-0.6302538000000001,94.92195186,-3.99924684,-15.212034899999995
6.5,650,-0.044,-1.017,0.156,-2.578311,6.8182002000000015,-0.11459160000000004,94.89330396,-4.00497642,-15.14327994
6.51,651,-0.043,-1.024,0.159,-3.4950437999999995,3.380452200000001,1.0886202,94.91622228,-3.97632852,-15.12036162
6.52,652,-0.058,-1.024,0.14400000000000002,-4.583664,-0.6302538000000001,2.5210152000000003,94.87038564,-3.99924684,-15.131820780000002
6.53,653,-0.084,-1.017,0.133,-5.6149884000000005,-3.2085648,3.4377480000000005,94.81308984,-4.03362432,-15.166198259999998
6.54,654,-0.115,-1.003,0.142,-6.016058999999999,-3.3231564,3.380452200000001,94.75579404,-4.06227222,-15.20057574
6.55,655,-0.133,-0.996,0.154,-5.5576926,-1.9480572,2.7501984,94.69849824,-4.09092012,-15.223494059999998
6.56,656,-0.13,-1.003,0.154,-6.016058999999999,-0.4583664000000001,1.6042823999999998,94.70995740000001,-4.17113424,-15.23495322
6.57,657,-0.118,-1.001,0.138,-7.3911582,0.0,0.3437748,94.63547286,-4.17113424,-15.23495322
6.58,658,-0.101,-0.994,0.13699999999999998,-7.8495246,-0.057295800000000015,-0.8021411999999999,94.55525874,-4.16540466,-15.240682800000002
6.59,659,-0.08800000000000001,-0.991,0.146,-7.6203414,-0.286479,-1.2605076000000002,94.47504462,-4.1539455,-15.240682800000002
6.6,660,-0.071,-0.993,0.135,-7.448453999999999,-1.6615782,-1.145916,94.40056008,-4.14248634,-15.25787154
6.61,661,-0.063,-0.993,0.138,-7.9641161999999985,-5.2712136,-0.9167328,94.36045302,-4.11383844,-15.31516734
6.62,662,-0.069,-0.991,0.161,-8.479778399999999,-8.7089616,-0.1718874,94.28596848,-4.10810886,-15.40111104
6.63,663,-0.075,-0.993,0.162,-8.479778399999999,-9.8548776,0.6875496,94.20575436,-4.102379279999999,-15.4985139
6.64,664,-0.078,-0.998,0.156,-9.6256944,-11.4018642,1.432395,94.11981066,-4.10810886,-15.6131055
6.65,665,-0.08800000000000001,-0.995,0.158,-10.7143146,-13.349921400000001,1.5469866,94.01667822,-4.11383844,-15.75061542
6.66,666,-0.112,-0.994,0.155,-11.172681,-14.667724800000002,1.9480572,93.94792326,-4.13675676,-15.8995845
6.67,667,-0.13699999999999998,-1.001,0.153,-11.3445684,-13.980175199999998,2.0626488000000003,93.84479082,-4.14248634,-16.042824
6.68,668,-0.142,-1.009,0.141,-11.6310474,-11.45916,1.6615782,93.7359288,-4.1539455,-16.1574156
6.6899999999999995,669,-0.136,-1.013,0.129,-12.1467096,-10.313244,0.9167328,93.6213372,-4.1539455,-16.26054804
6.7,670,-0.125,-1.006,0.13,-12.0894138,-10.313244,0.4010706,93.5067456,-4.14821592,-16.36368048
6.71,671,-0.095,-1.002,0.163,-11.516455800000001,-10.0840608,0.5156622000000001,93.4494498,-4.14821592,-16.4725425
6.72,672,-0.069,-0.996,0.185,-12.2040054,-11.8029348,1.3178034,93.3348582,-4.1539455,-16.5871341
6.7299999999999995,673,-0.069,-0.984,0.166,-12.605076,-13.8082878,2.291832,93.2202666,-4.16540466,-16.7303736
6.74,674,-0.077,-0.991,0.146,-13.120738199999998,-15.0687954,2.86479,93.09994542,-4.1825934,-16.87934268
6.75,675,-0.084,-1.0,0.151,-13.0061466,-15.6990492,2.7501984,92.97962424,-4.19978214,-17.039770920000002
6.76,676,-0.092,-1.008,0.146,-12.5477802,-17.475219,2.0626488000000003,92.89368054,-4.211241299999998,-17.2173879
6.77,677,-0.1,-1.004,0.132,-12.7769634,-19.8816426,0.8594370000000001,92.77908894,-4.20551172,-17.4179232
6.78,678,-0.108,-0.994,0.13699999999999998,-12.261301199999998,-21.1421502,-0.572958,92.6759565,-4.1825934,-17.62418808
6.79,679,-0.103,-0.994,0.17,-11.229976800000001,-21.4286292,-1.8334656000000005,92.57855364,-4.1539455,-17.84191212
6.8,680,-0.08900000000000001,-0.993,0.153,-11.3445684,-20.6837838,-2.4064236,92.48115077999998,-4.11383844,-18.04244742
6.81,681,-0.057,-0.982,0.103,-12.7769634,-20.6837838,-1.8334656000000005,92.37801834,-4.07373138,-18.2487123
6.82,682,-0.059,-0.962,0.101,-12.9488508,-25.0955604,0.1718874,92.26915632,-4.06227222,-18.50081382
6.83,683,-0.08800000000000001,-0.949,0.116,-10.1986524,-26.69984280000001,2.1199446,92.18321262,-4.06227222,-18.77010408
6.84,684,-0.131,-0.961,0.1,-7.9641161999999985,-25.78311,2.578311,92.12591682,-4.07373138,-19.0222056
6.85,685,-0.17800000000000002,-0.984,0.087,-7.161975,-25.0382646,0.7448454000000001,92.0743506,-4.0680017999999984,-19.27430712
6.86,686,-0.206,-1.009,0.091,-6.2452422,-22.0015872,-2.4637194,92.03997312,-4.0794609600000005,-19.492031160000003
6.87,687,-0.201,-1.031,0.086,-5.2712136,-17.761698000000006,-5.6722842,91.99986606,-4.010706,-19.66391856
6.88,688,-0.17800000000000002,-1.039,0.084,-6.130650599999999,-14.495837400000001,-7.7349330000000025,91.94829984,-3.9247623,-19.80715806
6.89,689,-0.157,-1.038,0.071,-7.1046792000000005,-11.8602306,-8.479778399999999,91.88527446,-3.83308902,-19.92174966
6.9,690,-0.149,-1.035,0.058,-8.479778399999999,-8.9381448,-7.333862400000001,91.80506034,-3.752874900000001,-20.00769336
6.91,691,-0.14300000000000002,-1.027,0.049,-9.568398599999998,-7.2192707999999985,-5.1566220000000005,91.71338706000002,-3.74141574,-20.07644832
6.92,692,-0.13699999999999998,-1.019,0.041,-10.599723,-6.1879464,-2.6356068,91.61025462,-3.70703826,-20.139473700000003
6.93,693,-0.13,-1.012,0.044,-11.516455800000001,-5.6722842,-0.4583664000000001,91.49566302,-3.70130868,-20.1967695
6.9399999999999995,694,-0.124,-1.002,0.05,-12.261301199999998,-5.6722842,0.8594370000000001,91.37534184,-3.70703826,-20.2540653
6.95,695,-0.115,-0.988,0.052000000000000005,-12.261301199999998,-5.443101,1.0313244,91.25502066,-3.71849742,-20.3113611
6.96,696,-0.106,-0.977,0.056,-12.0894138,-5.3858052,0.3437748,91.15188822,-3.74714532,-20.3686569
6.97,697,-0.097,-0.97,0.067,-11.45916,-5.443101,-1.3178034,91.03729662,-3.7299565800000014,-20.42022312
6.9799999999999995,698,-0.086,-0.974,0.07,-10.6570188,-5.1566220000000005,-2.9220857999999996,90.93416418,-3.70130868,-20.47751892
6.99,699,-0.08199999999999999,-0.976,0.07200000000000001,-10.1413566,-5.3285094000000015,-3.8388186,90.83676132,-3.66120162,-20.52908514
7.0,700,-0.08900000000000001,-0.979,0.076,-9.2819196,-5.042030400000002,-4.3544808,90.74508804,-3.61536498,-20.58065136
7.01,701,-0.095,-0.985,0.079,-8.4224826,-3.5523396000000003,-4.7555514,90.69352182,-3.58671708,-20.61502884
7.02,702,-0.103,-0.99,0.079,-7.8495246,-1.8907613999999997,-4.9847345999999995,90.61903728,-3.54088044,-20.63794716
7.03,703,-0.112,-0.991,0.081,-7.2765666,-0.6302538000000001,-4.583664,90.54455274,-3.4950437999999995,-20.64367674
7.04,704,-0.116,-0.986,0.07200000000000001,-6.5317212,0.5156622000000001,-4.1252976000000015,90.47579778,-3.45493674,-20.63794716
7.05,705,-0.108,-0.981,0.066,-5.844171599999999,1.3750992,-3.4377480000000005,90.4127724,-3.42055926,-20.626488000000002
7.06,706,-0.098,-0.978,0.078,-4.9847345999999995,1.7188740000000002,-2.8074942000000003,90.42996114,-3.43201842,-20.60929926
7.07,707,-0.091,-0.977,0.083,-4.1825934,1.6615782,-2.291832,90.3841245,-3.4148296799999995,-20.59211052
7.08,708,-0.08199999999999999,-0.975,0.083,-3.8388186,1.8334656000000005,-2.0053530000000004,90.34401744,-3.3919113599999995,-20.57492178
7.09,709,-0.07400000000000001,-0.981,0.084,-3.380452200000001,2.2345362,-1.9480572,90.30963996,-3.37472262,-20.55200346
7.1,710,-0.071,-0.989,0.08199999999999999,-3.151269,2.1199446,-2.0053530000000004,90.27526248,-3.35753388,-20.53481472
7.11,711,-0.07,-0.991,0.084,-3.0366774,1.5469866,-1.9480572,90.3554766,-3.3518043,-20.52908514
7.12,712,-0.068,-0.994,0.077,-2.6929026,1.0313244,-2.0053530000000004,90.3268287,-3.33461556,-20.51762598
7.13,713,-0.067,-1.0,0.067,-2.5210152000000003,0.4010706,-2.1199446,90.2981808,-3.3116972399999995,-20.5118964
7.14,714,-0.073,-1.003,0.065,-2.0053530000000004,-0.2291832000000001,-2.2345362,90.28099206,-3.28877892,-20.5118964
7.15,715,-0.08199999999999999,-1.005,0.066,-1.5469866,-0.5156622000000001,-2.578311,90.26380332,-3.26013102,-20.51762598
7.16,716,-0.086,-1.009,0.069,-1.432395,-0.6302538000000001,-2.9220857999999996,90.33828786,-3.28877892,-20.53481472
7.17,717,-0.087,-1.009,0.067,-1.6042823999999998,-0.6302538000000001,-2.9220857999999996,90.3268287,-3.26013102,-20.5405443
7.18,718,-0.08800000000000001,-1.01,0.061,-1.6615782,-0.4583664000000001,-2.578311,90.30963996,-3.2314831199999987,-20.54627388
7.1899999999999995,719,-0.086,-1.009,0.067,-1.7761698,-0.057295800000000015,-2.0626488000000003,90.28672164,-3.2085648000000004,-20.54627388
7.2,720,-0.081,-1.008,0.067,-1.8334656000000005,0.3437748,-1.5469866,90.2695329,-3.19710564,-20.5405443
7.21,721,-0.07200000000000001,-1.008,0.061,-2.1772404,0.3437748,-0.9167328,90.3554766,-3.22002396,-20.54627388
