TimeStamp(s),FrameCounter,AccX,AccY,AccZ,GyrX,GyrY,GyrZ,EulerX,EulerY,EulerZ
0.01,1,-0.009000000000000001,-1.002,0.094,-0.4583664000000001,-0.8021411999999999,-0.057295800000000015,96.65228502,0.04010706,-22.30525494
0.02,2,-0.008,-1.002,0.08800000000000001,-0.2291832000000001,-2.1772404,0.0,96.65228502,0.04010706,-22.32244368
0.03,3,-0.006999999999999999,-1.003,0.08800000000000001,-0.286479,-2.291832,-0.1718874,96.64655544,0.04583664,-22.345361999999998
0.04,4,-0.008,-1.005,0.08900000000000001,-0.286479,-2.2345362,-0.2291832000000001,96.64655544,0.05156622,-22.36828032
0.05,5,-0.011000000000000001,-1.008,0.08800000000000001,-0.3437748,-2.1199446,-0.40107059999999994,96.56061174,0.04583664,-22.38546906
0.060000000000000005,6,-0.011000000000000001,-1.008,0.087,-0.40107059999999994,-2.0053530000000004,-0.40107059999999994,96.55488216,0.05156622,-22.4026578
0.06999999999999999,7,-0.01,-1.0070000000000001,0.084,-0.3437748,-1.6042823999999998,-0.3437748,96.54915258,0.057295800000000015,-22.41984654
0.08,8,-0.01,-1.006,0.08199999999999999,-0.057295800000000015,-1.6615782,-0.2291832000000001,96.54915258,0.06302537999999999,-22.43703528
0.09,9,-0.011000000000000001,-1.005,0.083,-0.11459160000000004,-1.8907614,-0.1718874,96.54915258,0.06875496,-22.45422402
0.09999999999999999,10,-0.012,-1.003,0.084,-0.2291832000000001,-2.0626488000000003,-0.286479,96.45747929999999,0.057295800000000015,-22.47141276
0.11,11,-0.011000000000000001,-1.002,0.087,-0.286479,-2.2345362,-0.3437748,96.45174972,0.06302537999999999,-22.4886015
0.12,12,-0.008,-1.005,0.092,-0.7448454000000001,-1.9480572,-0.286479,96.44602014,0.06875496,-22.51151982
0.13,13,-0.009000000000000001,-1.008,0.094,-0.9167328000000001,-1.7761698000000001,-0.2291832000000001,96.43456098,0.07448454,-22.52870856
0.14,14,-0.009000000000000001,-1.0090000000000001,0.09,-1.0313244000000001,-1.6615782,-0.286479,96.4288314,0.08021412,-22.54016772
0.15000000000000002,15,-0.012,-1.008,0.08800000000000001,-0.9740286,-1.2605076000000002,-0.286479,96.33142854,0.06302537999999999,-22.5458973
0.16,16,-0.013000000000000001,-1.008,0.08900000000000001,-0.9740286,-1.145916,-0.40107059999999994,96.31996938,0.06875496,-22.55735646
0.17,17,-0.013000000000000001,-1.0070000000000001,0.09,-0.6875496,-1.2032118,-0.4583664000000001,96.3142398,0.07448454,-22.56881562
0.18000000000000002,18,-0.012,-1.0090000000000001,0.08900000000000001,-0.5156622000000001,-1.5469866,-0.4583664000000001,96.30851022,0.08021412,-22.58600436
0.19,19,-0.008,-1.01,0.087,-0.6875496,-1.6042823999999998,-0.40107059999999994,96.30278064,0.09167328,-22.603193100000002
0.2,20,-0.005,-1.0090000000000001,0.086,-0.8594370000000001,-1.432395,-0.286479,96.19391862,0.09167328,-22.61465226
0.21000000000000002,21,-0.004,-1.008,0.083,-0.6875496,-1.0886202,-0.11459160000000004,96.18818904,0.09167328,-22.62038184
0.22,22,-0.008,-1.005,0.083,-0.572958,-0.9167328000000001,-0.057295800000000015,96.18245946,0.09740286,-22.631841
0.23,23,-0.012,-1.003,0.084,-0.7448454000000001,-0.6875496,-0.11459160000000004,96.1710003,0.09740286,-22.63757058
0.24000000000000002,24,-0.013000000000000001,-1.0,0.083,-1.2032118,-0.6875496,-0.2291832000000001,96.15954114000002,0.10313244,-22.64330016
0.25,25,-0.013000000000000001,-0.9990000000000001,0.083,-1.2605076000000002,-0.7448454000000001,-0.286479,96.0564087,0.08021412,-22.64330016
0.26,26,-0.011000000000000001,-1.0,0.08199999999999999,-1.145916,-0.9167328000000001,-0.286479,96.04494954,0.0859437,-22.654759320000004
0.27,27,-0.011000000000000001,-1.0,0.085,-1.0313244000000001,-0.9740286,-0.286479,96.03349038,0.09167328,-22.66621848
0.28,28,-0.011000000000000001,-1.001,0.085,-0.7448454000000001,-0.9740286,-0.3437748,96.0277608,0.09167328,-22.67194806
0.29000000000000004,29,-0.013000000000000001,-0.9990000000000001,0.08800000000000001,-0.4583664000000001,-0.8594370000000001,-0.4583664000000001,96.02203122,0.09740286,-22.68340722
0.3,30,-0.013999999999999999,-1.001,0.091,-0.3437748,-0.8021411999999999,-0.6875496,95.93608752,0.08021412,-22.67767764
0.31,31,-0.012,-1.004,0.094,-0.4583664000000001,-0.6302538000000001,-0.8594370000000001,95.93035794,0.0859437,-22.68340722
0.32,32,-0.011000000000000001,-1.006,0.092,-0.40107059999999994,-0.40107059999999994,-0.9740286,95.92462836,0.09740286,-22.6891368
0.33,33,-0.011000000000000001,-1.008,0.092,-0.2291832000000001,-0.286479,-0.9167328000000001,95.92462836,0.10886202,-22.6891368
0.34,34,-0.013000000000000001,-1.006,0.094,-0.1718874,-0.1718874,-0.8594370000000001,95.91889878,0.11459160000000003,-22.6891368
0.35000000000000003,35,-0.013999999999999999,-1.003,0.095,-0.286479,0.057295800000000015,-0.9167328000000001,95.82149592,0.0859437,-22.67767764
0.36000000000000004,36,-0.013000000000000001,-1.0,0.095,-0.572958,0.1718874,-0.9740286,95.81576634,0.09740286,-22.67194806
0.37,37,-0.01,-1.0,0.092,-0.8021411999999999,0.2291832000000001,-1.0313244000000001,95.81003676,0.10886202,-22.67194806
0.38,38,-0.01,-1.001,0.09300000000000001,-0.7448454000000001,0.2291832000000001,-1.0313244000000001,95.80430718,0.11459160000000003,-22.66621848
0.39,39,-0.01,-1.0,0.09699999999999999,-0.9167328000000001,0.3437748,-1.0313244000000001,95.79284802,0.12605075999999998,-22.6604889
0.4,40,-0.008,-1.003,0.095,-1.6042823999999998,0.40107059999999994,-0.8594370000000001,95.72982263999998,0.12605075999999998,-22.654759320000004
0.41000000000000003,41,-0.003,-1.004,0.091,-2.0626488000000003,0.0,-0.572958,95.70690432,0.13178034,-22.654759320000004
0.42000000000000004,42,-0.001,-1.003,0.086,-2.2345362,-0.9740286,-0.1718874,95.683986,0.13750992,-22.66621848
0.43,43,-0.006999999999999999,-0.9990000000000001,0.081,-2.4064236,-1.9480572,0.0,95.66106768,0.13750992,-22.68340722
0.44,44,-0.015,-0.995,0.091,-2.1772404,-2.5210152000000003,-0.286479,95.63814936,0.14323950000000002,-22.70632554
0.45,45,-0.019,-0.997,0.09,-2.291832,-2.86479,-0.8021411999999999,95.58658314,0.14323950000000002,-22.72924386
0.46,46,-0.018000000000000002,-0.995,0.07,-2.6929026,-3.6669312000000014,-1.0313244000000001,95.55793524,0.15469866,-22.76935092
0.47000000000000003,47,-0.027000000000000003,-1.001,0.07200000000000001,-2.6929026,-5.2139178,-0.9740286,95.52928733999998,0.1718874,-22.81518756
0.48000000000000004,48,-0.032,-1.001,0.084,-3.5523396000000003,-5.3858052,-0.8594370000000001,95.49490986,0.18907614,-22.87248336
0.49,49,-0.034,-0.998,0.11,-4.2398892,-5.6722842,-0.5156622000000001,95.4548028,0.20053530000000008,-22.92404958
0.5,50,-0.025,-0.998,0.13,-5.3858052,-6.2452422,0.0,95.40896616,0.20053530000000008,-22.98707496
0.51,51,-0.003,-1.0,0.134,-6.8182002000000015,-6.6463128000000005,0.572958,95.34021120000001,0.20053530000000008,-23.05582992
0.52,52,0.01,-1.008,0.114,-8.479778399999999,-7.1046792000000005,0.8021411999999999,95.25426750000001,0.20053530000000008,-23.12458488
0.53,53,-0.001,-1.018,0.09,-9.396511199999999,-6.3598338,0.572958,95.15686464,0.20053530000000008,-23.18761026
0.54,54,-0.04,-1.022,0.087,-9.1100322,-4.4117766,0.057295800000000015,95.06519136,0.20626488,-23.2334469
0.55,55,-0.086,-1.014,0.107,-8.5370742,-1.6615782,0.2291832000000001,94.97924766,0.15469866,-23.23917648
0.56,56,-0.10099999999999999,-0.995,0.129,-8.479778399999999,-0.4583664000000001,0.7448454000000001,94.89330396,0.14896908,-23.24490606
0.5700000000000001,57,-0.096,-0.986,0.152,-8.250595200000001,-0.057295800000000015,1.145916,94.80736026,0.13178034,-23.24490606
0.5800000000000001,58,-0.084,-0.987,0.156,-8.136003599999999,0.286479,1.0313244000000001,94.72714614,0.12032118,-23.24490606
0.59,59,-0.068,-0.996,0.15,-8.021412000000002,0.5156622000000001,0.4583664000000001,94.64693201999998,0.11459160000000003,-23.23917648
0.6,60,-0.05,-1.0070000000000001,0.136,-7.6776372,0.572958,0.0,94.58390664,0.0859437,-23.227717320000004
0.61,61,-0.037000000000000005,-1.013,0.128,-6.990087599999999,0.572958,-0.2291832000000001,94.51515168,0.09167328,-23.22198774
0.62,62,-0.034,-1.012,0.136,-5.844171599999999,0.5156622000000001,-0.6875496,94.45212629999999,0.09740286,-23.21625816
0.63,63,-0.044000000000000004,-1.01,0.155,-5.042030400000002,0.1718874,-1.3750992,94.40056008,0.10886202,-23.21625816
0.64,64,-0.055999999999999994,-1.0090000000000001,0.165,-5.6149884000000005,-0.3437748,-1.9480572,94.34326428,0.12605075999999998,-23.21625816
0.65,65,-0.066,-1.011,0.16699999999999998,-7.161975,-0.8594370000000001,-2.291832,94.30315722,0.12032118,-23.21625816
0.66,66,-0.071,-1.015,0.163,-8.651665800000002,-1.0886202,-2.5210152000000003,94.21148394,0.14323950000000002,-23.227717320000004
0.67,67,-0.073,-1.0170000000000001,0.153,-9.8548776,-0.8021411999999999,-3.0366774,94.11408108,0.17761697999999998,-23.2334469
0.68,68,-0.07400000000000001,-1.016,0.146,-10.5424272,-0.1718874,-3.4950437999999995,94.00521906,0.21199446,-23.2334469
0.6900000000000001,69,-0.07400000000000001,-1.0090000000000001,0.146,-11.0007936,0.2291832000000001,-3.8961144,93.89635704,0.24637194,-23.2334469
0.7000000000000001,70,-0.071,-1.002,0.145,-11.3445684,0.9167328000000001,-4.3544808,93.79322459999999,0.26356068,-23.21625816
0.7100000000000001,71,-0.068,-0.996,0.141,-11.917526400000002,1.7761698000000001,-4.7555514,93.67290342,0.30939732,-23.19333984
0.72,72,-0.064,-0.996,0.131,-12.4331886,2.0626488000000003,-4.9847346,93.54685266,0.35523396,-23.176151100000002
0.73,73,-0.059000000000000004,-1.0,0.12300000000000001,-12.605075999999999,1.8334656000000005,-5.042030400000002,93.42080190000001,0.40680018,-23.153232780000003
0.74,74,-0.054000000000000006,-1.003,0.125,-12.4904844,1.6615782,-4.9847346,93.28902156,0.4526368200000001,-23.13604404
0.75,75,-0.049,-1.005,0.135,-12.9488508,1.2605076000000002,-4.9847346,93.17442996,0.4870143000000001,-23.1188553
0.76,76,-0.044000000000000004,-1.002,0.139,-13.3499214,0.8594370000000001,-4.8701430000000006,93.03692004,0.53285094,-23.10739614
0.77,77,-0.039,-0.993,0.14300000000000002,-13.464512999999998,0.2291832000000001,-4.7555514,92.89941012,0.5786875800000001,-23.10166656
0.78,78,-0.034,-0.993,0.15,-14.209358400000001,-0.1718874,-4.4690724,92.75617062,0.61879464,-23.10739614
0.79,79,-0.03,-1.0,0.149,-14.896907999999998,-0.1718874,-4.010706000000001,92.60720154,0.6589017,-23.10739614
0.8,80,-0.033,-1.0090000000000001,0.14400000000000002,-14.8396122,0.1718874,-3.3231564,92.4754212,0.68182002,-23.10166656
0.81,81,-0.039,-1.014,0.14,-14.896907999999998,0.5156622000000001,-2.86479,92.32645212,0.70473834,-23.09593698
0.8200000000000001,82,-0.051,-1.013,0.131,-15.2406828,0.572958,-2.6929026,92.17175346,0.73338624,-23.090207400000004
0.8300000000000001,83,-0.057,-1.002,0.12300000000000001,-15.6417534,0.9740286,-2.7501984,92.01132522,0.75630456,-23.08447782
0.8400000000000001,84,-0.055999999999999994,-0.99,0.11199999999999999,-16.4438946,1.3178034,-2.86479,91.8451674,0.7849524600000001,-23.07301866
0.85,85,-0.054000000000000006,-0.986,0.094,-17.589810600000003,1.5469866,-3.1512689999999997,91.67328,0.79641162,-23.05010034
0.86,86,-0.047,-0.98,0.087,-18.3919518,1.4896908000000002,-3.3231564,91.48993344,0.8307891,-23.03864118
0.87,87,-0.036000000000000004,-0.975,0.09,-18.3919518,0.9740286,-3.1512689999999997,91.3008573,0.8594370000000001,-23.02718202
0.88,88,-0.024,-0.966,0.08900000000000001,-17.3606274,0.6875496,-2.4064236,91.12324032,0.8823553199999999,-23.02145244
0.89,89,-0.011000000000000001,-0.965,0.083,-15.756345,1.145916,-1.2032118,90.96281208,0.89381448,-23.015722860000004
0.9,90,-0.003,-0.973,0.081,-15.297978599999999,1.5469866,0.057295800000000015,90.81957258,0.8880849000000001,-22.99853412
0.91,91,0.003,-0.983,0.077,-15.183387000000002,1.7188740000000002,1.0313244000000001,90.66487392,0.87089616,-22.98134538
0.92,92,0.009000000000000001,-0.9890000000000001,0.077,-14.7250206,2.0053530000000004,1.7761698000000001,90.51590484,0.8537074199999999,-22.96415664
0.93,93,0.009000000000000001,-0.986,0.079,-14.32395,3.2658606,2.86479,90.37266534,0.8250595199999999,-22.93550874
0.9400000000000001,94,0.012,-0.968,0.078,-14.266654199999998,5.3285094000000015,4.6982555999999995,90.22369626,0.7734933,-22.88394252
0.9500000000000001,95,0.024,-0.943,0.083,-15.6417534,8.59437,6.6463128000000005,90.07472718,0.70473834,-22.803728399999997
0.9600000000000001,96,0.051,-0.92,0.09699999999999999,-18.162768600000003,10.7716104,8.5370742,89.89138061999998,0.61879464,-22.70059596
0.97,97,0.083,-0.897,0.11699999999999999,-21.485925,12.032118,10.4851314,89.67365658,0.5099326200000001,-22.58027478
0.98,98,0.10300000000000001,-0.888,0.11900000000000001,-25.3247436,11.802934800000001,12.5477802,89.41582548,0.37815228,-22.46568318
0.99,99,0.10300000000000001,-0.9,0.092,-26.5279554,11.0007936,14.5531332,89.14653522,0.22918320000000006,-22.35682116000001
1.0,100,0.09300000000000001,-0.943,0.065,-25.4393352,10.599723,16.042824000000003,88.89443370000002,0.08021412,-22.259418300000004
1.01,101,0.08199999999999999,-1.012,0.044000000000000004,-24.923673,8.7089616,16.959556799999998,88.63660259999996,-0.0859437,-22.173474600000002
1.02,102,0.08199999999999999,-1.0859999999999999,0.05,-23.0902074,4.7555514,16.042824000000003,88.40168982,-0.24637194,-22.12190838
1.03,103,0.075,-1.138,0.071,-19.9962342,0.8594370000000001,12.5477802,88.20115452,-0.3724227000000001,-22.11044922
1.04,104,0.07,-1.145,0.094,-17.0168526,-2.0626488000000003,8.136003599999999,88.02926712000001,-0.4583664000000001,-22.13336754
1.05,105,0.07,-1.133,0.129,-15.4125702,-6.3025379999999975,3.4950437999999995,87.89748678,-0.48128472,-22.2021225
1.06,106,0.077,-1.128,0.15,-14.381245800000002,-10.1413566,-0.6875496,87.74851770000002,-0.47555514,-22.30525494
1.07,107,0.094,-1.143,0.166,-13.0061466,-12.261301199999998,-4.6409598,87.62246694,-0.4297185000000001,-22.42557612
1.08,108,0.11199999999999999,-1.186,0.18,-11.745639,-13.750992000000002,-8.4224826,87.50214575999998,-0.34950438,-22.56881562
1.09,109,0.13,-1.225,0.18899999999999997,-11.9748222,-13.178034,-12.032118,87.38755416000002,-0.23491278,-22.70632554
1.1,110,0.14400000000000002,-1.237,0.188,-13.9228794,-10.084060800000001,-15.4125702,87.25577381999999,-0.07448454,-22.81518756
1.11,111,0.14800000000000002,-1.227,0.177,-16.7303736,-6.3025379999999975,-16.501190400000002,87.089616,0.08021412,-22.8896721
1.12,112,0.142,-1.2109999999999999,0.162,-19.2513888,-4.297185,-15.527161800000002,86.89481028,0.23491278,-22.94123832
1.1300000000000001,113,0.129,-1.1909999999999998,0.132,-20.7983754,-2.9793816000000004,-13.120738199999998,86.68281582,0.36096354,-22.98134538
1.1400000000000001,114,0.109,-1.16,0.106,-20.7983754,-1.8907614,-10.4851314,86.47082136,0.46409598,-23.00999328
1.1500000000000001,115,0.09300000000000001,-1.127,0.106,-19.0222056,-0.9740286,-8.307891,86.29893396,0.55576926,-23.02718202
1.1600000000000001,116,0.069,-1.097,0.114,-17.0168526,0.0,-7.6203414,86.12704656,0.6302538000000001,-23.032911600000002
1.17,117,0.036000000000000004,-1.069,0.121,-14.7823164,1.432395,-7.906820400000001,85.97807748,0.7104679199999999,-23.02718202
1.18,118,0.0,-1.045,0.121,-11.9748222,4.1252976000000015,-9.167328,85.85202672,0.8021412000000001,-22.99280454
1.19,119,-0.025,-1.022,0.10300000000000001,-9.5111028,9.0527364,-10.7716104,85.75462386000002,0.91100322,-22.91259042
1.2,120,-0.031,-0.992,0.073,-8.250595200000001,14.610429000000002,-12.261301199999998,85.69159848,1.0313244000000001,-22.775080499999998
1.21,121,-0.033,-0.9520000000000001,0.055,-6.417129599999999,20.6837838,-13.5791046,85.62284352,1.1745639,-22.58027478
1.22,122,-0.032,-0.9079999999999999,0.055999999999999994,-5.042030400000002,25.8977016,-14.0947668,85.57700688,1.32926256,-22.33963242
1.23,123,-0.024,-0.853,0.055,-4.0680017999999984,29.9084076,-13.750992000000002,85.53689982,1.4782316400000002,-22.05315342
1.24,124,-0.003,-0.7959999999999999,0.057999999999999996,-2.4064236,32.830493399999995,-12.7196676,85.5139815,1.62147114,-21.73802652
1.25,125,0.027999999999999997,-0.741,0.047,-0.40107059999999994,34.3201842,-11.401864199999999,85.52544065999999,1.75325148,-21.40571088
1.26,126,0.07,-0.69,0.024,2.4064236,34.66395900000001,-8.880849000000003,85.55408856,1.8621134999999998,-21.07339524
1.27,127,0.113,-0.64,0.023,6.4744254,32.0283522,-5.72958,85.62284352,1.93086846,-20.75826834
1.28,128,0.141,-0.61,0.018000000000000002,8.9381448,26.2987722,-2.7501984,85.72024638,1.97097552,-20.50043724
1.29,129,0.153,-0.599,0.040999999999999995,9.3392154,21.600516600000002,-1.2605076000000002,85.82337881999999,1.99962342,-20.2827132
1.3,130,0.172,-0.574,0.042,9.167328,21.657812399999997,-0.572958,85.92078168,2.02827132,-20.07071874
1.31,131,0.182,-0.541,-0.023,12.032118,17.9335854,0.9167328000000001,86.04683244,2.02827132,-19.89310176
1.32,132,0.18100000000000002,-0.537,-0.129,15.126091199999998,10.828906199999999,2.9220858,86.20726068,1.99962342,-19.78423974
1.33,133,0.184,-0.48700000000000004,-0.07,15.756345,-2.9220858,6.4744254,86.36768892,1.93659804,-19.80715806
1.34,134,0.16699999999999998,-0.376,0.061,14.32395,-29.9084076,16.157415599999997,86.50519884,1.77044022,-20.09363706
1.35,135,0.142,-0.34,0.085,11.1153852,-58.38442020000001,24.2361234,86.61979044,1.5183387000000002,-20.6551359
1.36,136,0.124,-0.541,0.11900000000000001,5.958763200000001,-64.22859179999999,20.2827132,86.67135666,1.29488508,-21.27966012
1.37,137,0.013000000000000001,-1.058,0.027999999999999997,-1.6042823999999998,-48.128472,-0.7448454000000001,86.64843834,1.2891555,-21.75521526
1.3800000000000001,138,-0.24,-1.732,-0.115,-13.3499214,-16.615782,-33.74722620000001,86.51092842,1.62147114,-21.93856182
1.3900000000000001,139,-0.505,-1.935,-0.106,-16.558486199999994,2.0626488000000003,-50.8786704,86.34477059999998,2.1199446,-21.95002098
1.4000000000000001,140,-0.429,-1.6640000000000001,0.016,-1.9480572,2.2345362,-38.10170700000001,86.32185228,2.4923672999999997,-21.95002098
1.4100000000000001,141,-0.231,-1.41,0.006,3.8961144,4.6982555999999995,-15.6990492,86.36195934,2.65279554,-21.915643499999998
1.42,142,-0.128,-1.264,0.07200000000000001,6.589017,10.026765,7.0473834,86.43644388,2.58404058,-21.80678148
1.43,143,-0.064,-1.287,0.171,5.6722842,16.4438946,22.0015872,86.49946926,2.37204612,-21.63489408
1.44,144,-0.02,-1.429,0.203,1.5469866,17.475219,28.877083199999998,86.52238758000001,2.0912967,-21.44581794
1.45,145,0.001,-1.601,0.22399999999999998,-5.5576926,12.6623718,30.366774000000003,86.47082136,1.7933585399999998,-21.30257844
1.46,146,0.023,-1.6969999999999998,0.258,-9.5111028,7.9641161999999985,30.3094782,86.37914808000002,1.49542038,-21.20517558
1.47,147,0.03,-1.699,0.243,-11.2299768,1.9480572,30.137590799999998,86.26455648,1.19748222,-21.170798100000006
1.48,148,0.031,-1.6219999999999999,0.213,-11.3445684,-6.0733548,29.9657034,86.14996488,0.89381448,-21.21090516
1.49,149,0.024,-1.527,0.172,-11.5737516,-14.610429000000002,28.7051958,86.02964370000002,0.6073354799999999,-21.33695592
1.5,150,-0.006,-1.4709999999999999,0.109,-14.4958374,-22.058882999999998,26.069589,85.89213378,0.33231564,-21.5432208
1.51,151,-0.033,-1.432,0.057999999999999996,-15.2406828,-28.934378999999996,23.204798999999998,85.73743512,0.09167328,-21.81251106
1.52,152,-0.05,-1.3730000000000002,0.054000000000000006,-15.011499599999999,-33.403451399999994,19.9962342,85.58846604,-0.12032118,-22.12763796
1.53,153,-0.057,-1.2830000000000001,0.016,-13.464512999999998,-36.4974246,17.303331600000003,85.46241528,-0.30939732,-22.47714234
1.54,154,-0.051,-1.182,0.018000000000000002,-6.990087599999999,-38.3308902,17.0168526,85.39366032000002,-0.4984734599999999,-22.84383546
1.55,155,-0.042,-1.099,0.055,-0.2291832000000001,-38.38818600000001,18.449247600000003,85.41657864,-0.70473834,-23.21052858
1.56,156,-0.03,-1.0170000000000001,0.08,3.9534102,-37.24227,20.1108258,85.46814486,-0.92246238,-23.56003296
1.57,157,-0.013999999999999999,-0.9159999999999999,0.1,7.333862400000001,-36.096354,20.340009,85.55408856,-1.14018642,-23.90380776
1.58,158,0.0,-0.833,0.114,10.084060800000001,-35.809875,19.308684600000007,85.66868016,-1.3464512999999998,-24.24185298
1.59,159,-0.012,-0.7440000000000001,0.109,11.5164558,-37.1849742,16.7876694,85.8004605,-1.52979786,-24.59708694
1.6,160,-0.046,-0.667,0.106,14.4958374,-37.7006364,13.120738199999998,85.9723479,-1.6787669399999998,-24.95805048
1.61,161,-0.098,-0.604,0.07200000000000001,15.5844576,-37.3568616,9.3392154,86.1442353,-1.78762896,-25.31901402
1.62,162,-0.142,-0.5429999999999999,-0.022000000000000002,15.756345,-35.2942128,6.1879464,86.32185228,-1.8621134999999998,-25.66278882000001
1.6300000000000001,163,-0.157,-0.465,-0.107,16.8449652,-31.2835068,2.4637194,86.50519884,-1.89649098,-25.96645656
1.6400000000000001,164,-0.174,-0.365,-0.17300000000000001,19.9389384,-27.4446882,-1.7188740000000002,86.72292288,-1.88503182,-26.241476399999996
1.6500000000000001,165,-0.17600000000000002,-0.221,-0.213,27.4446882,-22.2880662,-5.3858052,86.99794272,-1.84492476,-26.45920044
1.6600000000000001,166,-0.17300000000000001,-0.098,-0.18100000000000002,33.74722620000001,-6.3025379999999975,-9.5111028,87.34171752,-1.7475218999999995,-26.52222582
1.6700000000000002,167,-0.133,-0.038,-0.055999999999999994,27.960350399999996,15.756345,-11.802934800000001,87.62246694,-1.6272007199999998,-26.36752716
1.68,168,-0.128,-0.047,-0.092,18.449247600000003,14.0947668,-7.0473834,87.80008391999998,-1.5527161800000002,-26.23001724
1.69,169,-0.192,0.001,0.013000000000000001,26.5852512,3.2658606,-0.7448454000000001,88.06937418,-1.5412570200000002,-26.18991018
1.7,170,-0.162,-0.004,0.45,41.539455,10.026765,-2.9220858,88.52201099999998,-1.5183387000000002,-26.08677774
1.71,171,-0.040999999999999995,-0.231,0.45799999999999996,27.7311672,38.61736920000001,-9.740286,88.78557168,-1.4209358399999998,-25.70862546
1.72,172,-0.054000000000000006,-0.574,0.321,2.2345362,63.48374640000001,-14.7250206,88.78557168,-1.27769634,-25.07837166
1.73,173,-0.312,-1.325,0.012,-21.944291399999997,69.2706222,-5.6149884000000005,88.53919973999999,-1.22613012,-24.39655164
1.74,174,-0.415,-2.291,-0.441,-58.44171600000001,64.6869582,23.2620948,87.92613467999998,-1.4610428999999998,-23.760568260000003
1.75,175,-0.11599999999999999,-2.512,-0.48100000000000004,-56.0352924,44.404245,55.11855960000001,87.33598794000002,-2.005353,-23.30220186
1.76,176,0.33799999999999997,-1.8519999999999999,-0.38299999999999995,-17.3606274,38.0444112,51.279740999999994,87.14118221999998,-2.50955604,-22.90686084
1.77,177,0.40399999999999997,-1.4380000000000002,-0.27699999999999997,1.2032118,35.17962120000001,34.091001,87.12972306,-2.84187168,-22.54016772
1.78,178,0.302,-1.167,-0.139,6.990087599999999,34.60666320000001,12.9488508,87.18128928,-2.96219286,-22.19066334
1.79,179,0.161,-1.193,-0.065,5.1566220000000005,33.116972399999995,-5.7868758000000025,87.20993718,-2.8934379,-21.86407728
1.8,180,0.039,-1.433,-0.016,-9.9121734,26.814434400000003,-16.673077799999998,87.09534558,-2.7215505,-21.61197576
1.81,181,-0.044000000000000004,-1.6030000000000002,0.046,-12.1467096,21.485925,-20.7983754,86.95783566,-2.50955604,-21.41144046
1.82,182,-0.078,-1.6219999999999999,0.13,-2.1772404,21.485925,-23.491278,86.92345818,-2.2746432600000004,-21.21090516
1.83,183,-0.079,-1.5919999999999999,0.19,5.443101,22.7464326,-25.2674478,86.96929482,-2.01681216,-20.99318112
1.84,184,-0.055,-1.5519999999999998,0.21100000000000002,9.682990199999999,23.319390600000002,-23.835052800000003,87.05523852,-1.7761698000000001,-20.77545708
1.85,185,-0.052000000000000005,-1.526,0.239,14.1520626,23.0902074,-21.314037600000002,87.19847802,-1.55844576,-20.55200346
1.86,186,-0.067,-1.504,0.21600000000000005,16.7303736,28.361421000000004,-20.626488000000002,87.35317668,-1.3464512999999998,-20.2827132
1.87,187,-0.07400000000000001,-1.4280000000000002,0.17800000000000002,20.2827132,38.67466500000001,-21.5432208,87.54798240000002,-1.12299768,-19.90456092
1.8800000000000001,188,-0.073,-1.34,0.183,23.204798999999998,47.6128098,-22.345361999999998,87.77143602000002,-0.89381448,-19.44046494
1.8900000000000001,189,-0.047,-1.219,0.18899999999999997,25.210151999999997,52.82672760000001,-22.631841,88.01207838,-0.6589017,-18.92480274
1.9000000000000001,190,-0.018000000000000002,-1.094,0.17600000000000002,29.1062664,56.149884,-23.14750320000001,88.30428696,-0.42398892,-18.36903348
1.9100000000000001,191,-0.004,-0.9640000000000001,0.16899999999999998,34.5493674,58.44171600000001,-22.803728399999997,88.64233218000004,-0.19480572,-17.79607548
1.9200000000000002,192,0.009000000000000001,-0.861,0.19,36.7839036,59.0719698,-20.340009,89.00902529999998,0.0,-17.21165832
1.93,193,0.045,-0.764,0.228,37.872523799999996,59.1292656,-16.7303736,89.38144799999998,0.16042824,-16.621511579999996
1.94,194,0.09,-0.7120000000000001,0.222,37.52874900000001,58.0979412,-12.834259199999998,89.75960028,0.28074942,-16.042824
1.95,195,0.105,-0.662,0.172,34.7785506,56.4936588,-8.59437,90.11483424,0.36096354,-15.48705474
1.96,196,0.105,-0.5920000000000001,0.086,30.366774000000003,55.1758554,-3.6669312000000014,90.41850198,0.38388186,-14.937015060000002
1.97,197,0.10400000000000001,-0.473,0.011000000000000001,26.5852512,54.08723520000001,2.0626488000000003,90.68779224,0.3437748,-14.39843454
1.98,198,0.109,-0.381,-0.012,24.9809688,50.47759979999999,5.958763200000001,90.93416418,0.26356068,-13.894231499999998
1.99,199,0.128,-0.3,-0.122,17.3606274,42.8572584,7.161975,91.11178116,0.17761697999999998,-13.47597216
2.0,200,0.162,-0.207,-0.309,10.2559482,33.0596766,7.9641161999999985,91.1862657,0.09167328,-13.1493861
2.01,201,0.223,-0.12300000000000001,-0.43,11.2872726,21.0848544,11.172680999999999,91.29512772,-0.02291832,-12.94312122
2.02,202,0.266,-0.04,-0.504,24.2361234,0.0,16.272007199999994,91.54149966,-0.17761697999999998,-12.94312122
2.03,203,0.32,0.048,-0.419,42.398892,-20.2827132,19.652459399999998,91.97694774,-0.36096354,-13.14365652
2.04,204,0.331,0.068,-0.158,44.2896534,-40.5654264,18.6784308,92.43531414,-0.5156622000000001,-13.550456700000002
2.05,205,0.287,-0.001,-0.135,30.080295,-52.3110654,9.7975818,92.74471146,-0.55576926,-14.07184848
2.0599999999999996,206,0.318,-0.191,-0.158,18.7357266,-40.2216516,-3.8388186,92.94524676,-0.48128472,-14.46145992
2.07,207,0.12300000000000001,-0.5770000000000001,0.168,14.7250206,-70.5884256,-8.5370742,93.105675,-0.3437748,-15.149009520000002
2.0799999999999996,208,-0.316,-1.527,0.0,-4.3544808,-113.9040504,-18.1054728,93.08275668,-0.06875496,-16.26054804
2.09,209,-0.467,-3.378,-0.8170000000000001,-71.2759752,-69.041439,-48.6441342,92.36655918,0.4526368200000001,-16.92517932
2.0999999999999996,210,-0.14800000000000002,-3.299,-0.341,-37.586044799999996,-47.0971476,-61.30650600000001,91.98267732,1.0886202,-17.37208656
2.11,211,-0.084,-2.083,-0.254,-6.0733548,-57.06661679999999,-55.1758554,91.91392236,1.67303736,-17.916396659999997
2.1199999999999997,212,0.275,-1.5859999999999999,-0.353,4.010706000000001,-53.68616460000001,-50.5348956,91.94257026,2.2058883,-18.42632928
2.13,213,0.41200000000000003,-1.755,-0.247,7.1046792000000005,-45.2063862,-37.1849742,92.00559564,2.6069589,-18.86177736
2.1399999999999997,214,0.244,-1.807,-0.262,2.291832,-42.2270046,-17.246035799999998,92.01132522,2.80176462,-19.268577540000006
2.15,215,0.028999999999999998,-1.6740000000000002,-0.132,-4.9847346,-39.19032720000001,0.6302538000000001,91.94829984,2.81895336,-19.65818898
2.1599999999999997,216,-0.042,-1.508,0.013000000000000001,-7.448453999999999,-37.9871154,11.9748222,91.85662656,2.7215505,-20.04207084
2.17,217,-0.022000000000000002,-1.4080000000000001,0.07400000000000001,-5.958763200000001,-37.4714532,20.626488000000002,91.78214202,2.53820394,-20.42022312
2.1799999999999997,218,-0.035,-1.415,0.054000000000000006,-2.86479,-37.586044799999996,26.9863218,91.74203496,2.2918320000000003,-20.798375399999998
2.19,219,-0.09300000000000001,-1.442,0.009000000000000001,0.5156622000000001,-33.3461556,29.67922440000001,91.74203496,2.01681216,-21.136420620000006
2.1999999999999997,220,-0.151,-1.3969999999999998,0.021,7.7922288,-31.3980984,31.9710564,91.81078992,1.7074148399999998,-21.4572771
2.21,221,-0.18100000000000002,-1.331,0.038,13.120738199999998,-33.6899304,33.8618178,91.94257026,1.39228794,-21.801051899999997
2.2199999999999998,222,-0.124,-1.251,0.068,13.980175199999998,-34.950438,32.142943800000005,92.08008018,1.10007936,-22.15628586
2.23,223,0.003,-1.12,0.054000000000000006,14.1520626,-38.67466500000001,26.1268848,92.22331968,0.86516658,-22.5458973
2.2399999999999998,224,0.095,-0.993,0.033,18.048177,-43.831286999999996,19.136797199999997,92.40666624,0.70473834,-22.98707496
2.25,225,0.14800000000000002,-0.8859999999999999,0.038,23.204798999999998,-48.4722468,14.209358400000001,92.64730859999999,0.61306506,-23.46835968
2.26,226,0.142,-0.804,0.069,25.78311,-52.54024860000001,11.401864199999999,92.91086928,0.5443101,-23.98975146
2.27,227,0.079,-0.746,0.098,25.3247436,-55.7488134,10.026765,93.16870038,0.4870143000000001,-24.53979114
2.28,228,-0.016,-0.696,0.094,23.7204612,-56.9520252,8.651665800000002,93.41507232,0.4526368200000001,-25.10701956
2.29,229,-0.092,-0.633,0.077,24.637194,-55.11855960000001,6.589017,93.66717384,0.43544808,-25.65132966
2.3,230,-0.154,-0.58,0.06,24.350715,-51.5089242,4.010706000000001,93.91927536,0.43544808,-26.1555327
2.31,231,-0.19699999999999998,-0.521,0.023,20.5118964,-46.1804148,0.8021411999999999,94.12554024,0.46982556,-26.60816952
2.32,232,-0.214,-0.47600000000000003,-0.003,18.277360199999997,-41.0237928,-2.0626488000000003,94.31461638,0.53285094,-27.009240120000005
2.3299999999999996,233,-0.209,-0.433,-0.018000000000000002,19.5378678,-36.2109456,-4.2398892,94.51515168,0.61879464,-27.3587445
2.34,234,-0.2,-0.377,-0.031,22.91832,-27.7311672,-4.8701430000000006,94.75006446,0.69900876,-27.62230518
2.3499999999999996,235,-0.20600000000000002,-0.319,-0.022000000000000002,25.3247436,-16.902261,-4.4690724,95.00216598,0.7448454000000001,-27.78273342
2.36,236,-0.23399999999999999,-0.24600000000000002,-0.01,25.0955604,-6.0733548,-3.0939732,95.25999708,0.7849524600000001,-27.83429964
2.3699999999999997,237,-0.273,-0.158,-0.016,23.0902074,2.6356068,-1.6042823999999998,95.49490986,0.79641162,-27.805651739999995
2.38,238,-0.28600000000000003,-0.065,-0.051,20.3973048,11.45916,-1.2605076000000002,95.70117474,0.79641162,-27.68533056
2.3899999999999997,239,-0.278,0.004,-0.139,18.6784308,23.491278,-0.9740286,95.89025088,0.7792228800000001,-27.45041778
2.4,240,-0.251,0.03,-0.17800000000000002,18.907614,39.7059894,0.7448454000000001,96.06786786,0.70473834,-27.06080634
2.4099999999999997,241,-0.153,-0.11,-0.157,11.45916,48.2430636,8.5370742,96.18818904,0.55576926,-26.596710360000003
2.42,242,-0.013000000000000001,-0.46,-0.17300000000000001,-17.9335854,34.8358464,26.929026,95.9991129,0.24064236,-26.28731304
2.4299999999999997,243,0.011000000000000001,-0.755,-0.307,-40.7373138,-10.026765,52.48295279999999,95.59231272,-0.25783110000000004,-26.4420117
2.44,244,0.289,-1.008,-0.179,-26.4706596,-11.802934800000001,67.895523,95.32302246,-0.9167328,-26.63108784
2.4499999999999997,245,0.687,-1.92,-0.001,-40.2216516,10.7716104,70.35924240000001,94.91622228,-1.6272007199999998,-26.59098078
2.46,246,0.556,-2.245,-0.059000000000000004,-64.5723666,31.51269000000001,42.1697088,94.24586142,-2.08556712,-26.3274201
2.4699999999999998,247,-0.028999999999999998,-1.954,0.165,-11.3445684,20.7410796,16.2147114,94.12554024,-2.2631841,-26.13261438
2.48,248,-0.478,-1.8730000000000002,0.145,21.657812399999997,8.8235532,11.745639,94.3375347,-2.38923486,-26.052400259999995
2.4899999999999998,249,-0.434,-1.595,0.16699999999999998,13.0061466,16.386598799999998,11.9748222,94.46358546,-2.52674478,-25.8977016
2.5,250,-0.311,-1.531,0.24100000000000002,21.485925,17.9335854,11.745639,94.66985034,-2.6642547000000003,-25.73154378
2.51,251,-0.16899999999999998,-1.7919999999999998,0.293,25.4393352,24.0069402,9.453807,94.91622228,-2.7788463,-25.496631
2.52,252,0.05,-1.8330000000000002,0.366,13.521808800000002,34.091001,7.0473834,95.03081388,-2.88770832,-25.17004494
2.53,253,0.23199999999999998,-1.652,0.33,-1.5469866,45.607456799999994,3.3231564,94.99070682,-2.9736520200000003,-24.7231377
2.54,254,0.27399999999999997,-1.3869999999999998,0.212,-5.3285094000000015,50.993262,-1.6615782,94.89903354,-3.0137590800000003,-24.21893466
2.55,255,0.21899999999999997,-1.141,0.163,6.7609043999999985,46.409597999999995,-6.1879464,94.94487018,-2.9736520200000003,-23.760568260000003
2.56,256,0.151,-0.996,0.222,17.8762896,36.03905820000001,-9.740286,95.10529842,-2.91635622,-23.39387514
2.57,257,0.122,-0.915,0.27699999999999997,21.4286292,29.0489706,-11.745639,95.30010414,-2.8361421,-23.09593698
2.5799999999999996,258,0.135,-0.85,0.289,21.944291399999997,26.069589,-11.2299768,95.50636902,-2.75592798,-22.82664672
2.59,259,0.155,-0.81,0.295,23.319390600000002,18.162768600000003,-8.8235532,95.73555222,-2.68717302,-22.63757058
2.5999999999999996,260,0.152,-0.804,0.252,20.340009,5.1566220000000005,-4.9847346,95.96473541999998,-2.59549974,-22.58600436
2.61,261,0.14300000000000002,-0.7709999999999999,0.193,15.6417534,-5.0993262,-0.8021411999999999,96.12516366,-2.578311,-22.63757058
2.6199999999999997,262,0.145,-0.716,0.171,14.8396122,-14.1520626,2.6356068,96.28559190000001,-2.58977016,-22.775080499999998
2.63,263,0.147,-0.653,0.151,14.0947668,-20.5691922,3.8388186,96.44029056,-2.59549974,-22.98134538
2.6399999999999997,264,0.146,-0.5820000000000001,0.121,11.5737516,-24.694489800000003,3.1512689999999997,96.5720709,-2.59549974,-23.22198774
2.65,265,0.138,-0.506,0.085,9.682990199999999,-29.4500412,1.7761698000000001,96.6866625,-2.55539268,-23.5199259
2.6599999999999997,266,0.141,-0.465,0.08900000000000001,6.130650599999999,-33.74722620000001,1.4896908000000002,96.7726062,-2.5210152000000003,-23.84651196
2.67,267,0.16,-0.445,0.07200000000000001,-1.0313244000000001,-34.8358464,2.4064236,96.77833578,-2.4923672999999997,-24.19601634
2.6799999999999997,268,0.16699999999999998,-0.441,0.031,-7.7922288,-36.6120162,3.8961144,96.72103998,-2.48090814,-24.55697988
2.69,269,0.14,-0.457,0.039,-10.943497800000001,-39.9351726,4.1252976000000015,96.63509628,-2.4637194,-24.952320900000004
2.6999999999999997,270,0.084,-0.524,0.08900000000000001,-11.917526400000002,-39.247623,1.0313244000000001,96.53769342,-2.41215318,-25.34193234
2.71,271,0.013999999999999999,-0.61,0.099,-15.3552744,-32.0283522,-4.010706000000001,96.4001835,-2.33193906,-25.65705924
2.7199999999999998,272,-0.045,-0.69,0.011000000000000001,-17.8762896,-20.6837838,-8.193299399999999,96.2282961,-2.22307704,-25.85186496
2.73,273,-0.07,-0.758,-0.079,-22.058882999999998,-9.2819196,-10.084060800000001,96.00484248,-2.10848544,-25.93207908
2.7399999999999998,274,-0.076,-0.768,-0.168,-28.6479,-5.443101,-8.4224826,95.71836348,-2.02254174,-25.9836453
2.75,275,-0.096,-0.7440000000000001,-0.09699999999999999,-26.4706596,-10.7143146,-4.0680017999999984,95.43761406,-1.98243468,-26.08677774
2.76,276,-0.13,-0.8,0.005,-22.5745452,-15.6417534,-0.9740286,95.21416044,-1.95378678,-26.241476399999996
2.77,277,-0.223,-0.973,-0.045,-28.3041252,-16.7303736,-1.8334656000000005,94.93341102,-1.9194093000000003,-26.40763422
2.78,278,-0.28,-1.054,-0.191,-36.4401288,-10.7143146,-10.1986524,94.57244748,-1.8048177,-26.510766659999994
2.79,279,-0.23199999999999998,-0.992,-0.20800000000000002,-33.1742682,-6.2452422,-17.9908812,94.23440226,-1.6272007199999998,-26.562332880000003
2.8,280,-0.102,-0.935,-0.086,-26.929026,-13.8082878,-21.5432208,93.95365284,-1.4037471000000001,-26.68265406
2.81,281,0.037000000000000005,-0.963,0.057999999999999996,-25.55392680000001,-22.345361999999998,-22.2307704,93.70155132,-1.16310474,-26.88891894
2.82,282,0.128,-0.9990000000000001,0.092,-28.418716800000002,-23.663165399999997,-16.8449652,93.42080190000001,-0.9740286,-27.11810214
2.8299999999999996,283,0.09300000000000001,-1.025,0.12,-29.1062664,-23.3766864,-6.875496000000001,93.12859332,-0.8880849000000001,-27.34728534
2.84,284,-0.054000000000000006,-1.053,0.243,-27.3873924,-23.319390600000002,3.5523396000000003,92.85930306,-0.91100322,-27.58219812
2.8499999999999996,285,-0.11699999999999999,-1.04,0.311,-24.2361234,-28.3041252,13.521808800000002,92.64730859999999,-1.0313244000000001,-27.86867712
2.86,286,-0.028999999999999998,-1.002,0.33,-22.86102420000001,-41.0810886,22.517249399999997,92.42958456,-1.22613012,-28.286936460000003
2.8699999999999997,287,0.084,-1.004,0.348,-16.902261,-53.5142772,29.5646328,92.28061548,-1.48396122,-28.83124656
2.88,288,0.151,-1.053,0.4270000000000001,-7.2192707999999985,-60.3324774,31.9710564,92.22904926,-1.76471064,-29.43858204
2.8899999999999997,289,0.16,-1.139,0.452,0.11459160000000004,-66.749607,28.81978740000001,92.26342674,-2.005353,-30.1089429
2.9,290,0.046,-1.224,0.39899999999999997,6.4744254,-75.74504759999998,21.829699800000004,92.37801834,-2.17151082,-30.87097704
2.9099999999999997,291,-0.094,-1.249,0.309,11.6310474,-83.5945722,10.886202,92.53844658,-2.21734746,-31.69603656
2.92,292,-0.139,-1.188,0.139,7.6776372,-86.63124959999998,-3.2085647999999996,92.66449734,-2.12567418,-32.54974398
2.9299999999999997,293,-0.09300000000000001,-1.089,-0.205,-2.9220858,-83.9956428,-12.776963400000001,92.6759565,-1.93659804,-33.3748035
2.94,294,-0.034,-0.986,-0.502,-14.266654199999998,-83.7091638,-14.381245800000002,92.56709448,-1.73033316,-34.19413344
2.9499999999999997,295,0.008,-0.7829999999999999,-0.8029999999999999,-29.335449600000004,-83.53727640000002,-11.8602306,92.25196758,-1.5527161800000002,-35.01919296
2.96,296,0.133,-0.502,-0.7809999999999999,-34.4347758,-84.05293859999998,-11.3445684,91.93684068,-1.39228794,-35.84425248
2.9699999999999998,297,0.24600000000000002,-0.257,-0.5920000000000001,-40.393539000000004,-84.51130500000002,-11.0580894,91.5586884,-1.2318597,-36.68077116
2.98,298,0.315,-0.09300000000000001,-0.517,-49.4462754,-82.4486562,-9.396511199999999,91.08313326,-1.10007936,-37.5001011
2.9899999999999998,299,0.331,-0.057999999999999996,-0.37799999999999995,-58.49901179999999,-88.7511942,-8.59437,90.51590484,-0.98548776,-38.38245642
3.0,300,0.32899999999999996,-0.131,-0.18899999999999997,-67.2079734,-100.09576259999999,-8.307891,89.85700313999996,-0.8594370000000001,-39.37940334
3.01,301,0.4,-0.21,0.040999999999999995,-71.1040878,-103.2470316,-8.59437,89.16372396,-0.75630456,-40.41072774
3.02,302,0.451,-0.226,0.122,-82.9643184,-103.5908064,-11.3445684,88.34439402000002,-0.64744254,-41.44778172
3.03,303,0.45399999999999996,-0.11599999999999999,0.141,-104.1637644,-116.0812908,-12.3758928,87.31879920000002,-0.5443101,-42.61088646
3.04,304,0.424,-0.047,0.166,-117.16991100000001,-128.9728458,-10.599723,86.15569446,-0.4870143000000001,-43.90577154
3.05,305,0.37799999999999995,-0.153,0.203,-136.87966619999997,-146.390769,-5.2712136,84.80924316,-0.5042030399999999,-45.37254402
3.06,306,0.431,-0.478,0.22899999999999998,-134.4732426,-166.50159480000005,0.40107059999999994,83.4799806,-0.64171296,-47.02266306
3.07,307,0.48100000000000004,-0.815,0.265,-137.7391032,-168.0485814,8.7662574,82.12779972,-0.90527364,-48.68424126
3.08,308,0.45899999999999996,-0.887,0.25,-149.4274464,-169.5382722,15.469866,80.66675682,-1.27769634,-50.34008988
3.09,309,0.396,-0.76,0.179,-149.37015060000004,-175.611627,21.027558600000006,79.21717308,-1.75325148,-52.03604556000001
3.0999999999999996,310,0.337,-0.752,-0.027000000000000003,-156.5321256,-178.8774876,31.51269000000001,77.71602312,-2.37204612,-53.73200124
3.11,311,0.20800000000000002,-0.9279999999999999,-0.319,-173.0906118,-183.2892642,48.5868384,76.06590408,-3.22002396,-55.41649776000001
3.1199999999999997,312,0.109,-1.199,-0.46299999999999997,-195.4932696,-189.649098,68.01011460000001,74.21524974,-4.325832900000001,-57.08953512000001
3.13,313,0.106,-1.4469999999999998,-0.546,-214.3435878,-196.6391856,83.8810512,72.21562631999998,-5.65509546,-58.75111332
3.1399999999999997,314,0.154,-1.614,-0.584,-220.13046359999998,-185.2373214,91.67328,70.17016626,-7.0874904600000015,-60.24080411999999
3.15,315,-0.091,-1.6480000000000001,-0.631,-231.8188068,-182.7163062,95.39750699999999,68.03303292000001,-8.594370000000001,-61.63882163999999
3.1599999999999997,316,-0.348,-1.526,-0.418,-258.3467622,-171.600921,96.829902,65.63806847999999,-10.13562702,-62.87641092
3.17,317,-0.6729999999999999,-1.338,-0.32899999999999996,-269.6340348,-153.839223,98.262297,63.11705328000001,-11.66542488,-63.88481700000001
3.1799999999999997,318,-1.016,-1.3730000000000002,-0.41700000000000004,-256.2841134,-132.2960022,105.13779299999999,60.68771136,-13.20095232,-64.60101449999999
3.19,319,-1.273,-1.672,-0.633,-255.0236058,-106.3410048,114.9926706,58.20107363999999,-14.73075018,-64.96770762
3.1999999999999997,320,-1.222,-1.881,-0.8220000000000001,-275.5355022,-88.98037740000002,133.09814340000003,55.4336865,-16.33503258,-65.01354425999999
3.21,321,-0.953,-1.959,-0.78,-278.1138132,-78.49524600000002,150.97443299999995,52.55170776,-18.02525868,-64.77863147999999
3.2199999999999998,322,-0.6859999999999999,-1.892,-0.608,-279.030546,-68.01011460000001,167.24644019999997,49.56659658,-19.76132142,-64.25151012
3.23,323,-0.46299999999999997,-1.63,-0.45399999999999996,-285.7914504000001,-57.35309579999999,177.1013178,46.39813884,-21.48019542,-63.47228723999999
3.2399999999999998,324,-0.313,-1.3430000000000002,-0.25,-277.54085519999995,-54.0299394,166.15782,43.27551774,-23.05010034,-62.63576856
3.25,325,0.155,-1.09,0.08800000000000001,-266.6546532,-48.8160216,146.4480648,40.26748824,-24.40228122000001,-61.82789778
3.26,326,0.7040000000000001,-0.845,0.354,-281.09319480000005,-67.0933818,141.74980920000004,37.11621924,-25.83467622,-61.09451154
3.27,327,0.8320000000000001,-0.595,0.425,-276.85330560000006,-88.52201099999998,150.2295876,33.9764094,-27.43895862,-60.32674782
3.28,328,0.474,-0.42200000000000004,0.38299999999999995,-243.6217416,-116.8261362,152.5214196,31.18610394,-29.24950590000001,-59.6162799
3.29,329,0.08,-0.406,0.364,-215.432208,-131.89493159999998,154.2402936,28.64217042,-31.15745604,-58.86570492
3.3,330,-0.11599999999999999,-0.483,0.321,-200.4780042,-136.93696200000002,153.8965188,26.20136934000001,-33.082594920000005,-58.0406454
3.31,331,-0.154,-0.409,-0.019,-191.4825636,-138.94231499999998,154.92784319999996,23.749109100000002,-34.99054506,-57.0952647
3.32,332,0.248,-0.27699999999999997,-0.172,-171.65821680000005,-147.8804598,153.26626499999998,21.44581794,-36.93287268,-56.09831778
3.33,333,0.78,-0.147,0.17800000000000002,-158.48018280000005,-172.80413280000005,151.9484616,19.2513888,-39.07000602,-55.10710044
3.34,334,0.7609999999999999,0.45799999999999996,0.469,-171.8874,-220.35964680000004,147.536685,16.976745540000003,-41.60248038,-54.23620428
3.3499999999999996,335,0.275,1.228,0.654,-172.05928740000004,-253.7058024,133.38462239999998,14.75939808,-44.39278584,-53.50281804
3.36,336,-0.168,1.473,0.53,-143.9270496,-270.149697,120.32118,12.8629071,-47.27476458,-52.84391634000001
3.3699999999999997,337,-0.439,1.396,0.16899999999999998,-110.867373,-270.2069928,112.01328899999999,11.24716554,-50.11663626,-52.139178
3.38,338,-1.381,1.236,-0.005,-73.85428619999998,-279.3743208,106.283709,9.95801004,-53.02153331999999,-51.40006218
3.3899999999999997,339,-2.017,0.893,-0.259,-58.6136034,-283.6715058000001,102.6167778,8.7376095,-55.94934870000001,-50.58073224
3.4,340,-3.45,1.058,-0.8959999999999999,-40.7373138,-275.1344316,125.82157679999999,7.12186794,-58.8141387,-49.11395975999999
3.4099999999999997,341,-3.9989999999999997,1.726,-1.446,-44.51883660000001,-198.07158059999998,179.622333,4.05654264,-60.94554246,-46.06009362
3.42,342,-3.9989999999999997,1.93,-0.778,-48.70143,-13.2353298,230.7301866,-0.56149884,-61.15753692,-41.33891970000001
3.4299999999999997,343,-3.7439999999999998,1.8090000000000002,0.203,-93.56404140000001,32.7159018,189.8209854,-4.91025006,-60.76219590000001,-37.45426446000001
3.44,344,-2.605,2.8710000000000004,-0.201,-75.9742308,-134.5878342,105.48156780000001,-7.78649922,-61.98259644,-35.03065212
3.4499999999999997,345,-3.56,2.572,-2.325,16.902261,-14.1520626,37.52874900000001,-8.3365389,-62.06854014,-34.21132218
3.46,346,-3.4739999999999998,1.176,0.10099999999999999,-34.4920716,103.5908064,-2.6356068,-8.43967134,-61.05440448,-34.50926034
3.4699999999999998,347,-2.839,1.16,0.156,-37.0703826,19.595163600000006,-16.615782,-8.48550798,-60.89397623999999,-34.887412620000006
3.48,348,-2.239,0.9440000000000001,-0.392,-5.72958,72.3645954,-29.507337,-7.89536124,-60.22361538,-35.64371718
3.4899999999999998,349,-1.768,0.652,0.262,-29.0489706,118.5450102,-34.950438,-7.41407652,-59.10634728,-36.56617956
3.5,350,-1.504,0.488,0.006,-9.568398599999998,109.2630906,-36.03905820000001,-6.7895523,-58.09221162,-37.43134614
3.51,351,-1.102,0.25,0.013000000000000001,-6.5317212,122.0973498,-27.960350399999996,-6.2738901,-56.91764771999999,-38.13608448
3.52,352,-0.735,0.076,0.11900000000000001,2.3491277999999998,111.440331,-9.682990199999999,-5.9931406800000016,-55.82902752,-38.46840012
3.53,353,-0.415,0.022000000000000002,0.008,0.6875496,96.14235240000001,9.8548776,-6.0332477399999975,-54.87218766,-38.42829306
3.54,354,-0.249,0.138,-0.066,-4.297185,86.0009958,22.2880662,-6.3025379999999975,-54.0012915,-38.16473238
3.55,355,-0.12,0.305,-0.086,3.3231564,74.3699484,22.803728399999997,-6.53745078,-53.23925736,-37.85533506
3.56,356,-0.03,0.419,-0.057,17.7044022,61.5356892,14.5531332,-6.48588456,-52.61473314,-37.70636598
3.57,357,-0.084,0.501,-0.021,27.960350399999996,49.7327544,6.8182002000000015,-6.23951262,-52.11053010000001,-37.66625892
3.58,358,-0.28,0.53,-0.057,35.236917,42.456187799999995,3.8961144,-5.89000824,-51.686541180000006,-37.66625892
3.59,359,-0.61,0.409,0.0,37.757932200000006,39.534102000000004,3.0366774,-5.51185596,-51.29120016,-37.66625892
3.5999999999999996,360,-0.7020000000000001,0.392,-0.136,25.55392680000001,38.159002799999996,5.6722842,-5.36861646,-50.94169578,-37.5573969
3.61,361,-0.867,0.406,-0.29100000000000004,18.5638392,47.0398518,8.021412000000002,-5.24829528,-50.46614064,-37.48291236
3.6199999999999997,362,-0.981,0.40700000000000003,-0.301,15.068795399999999,54.3164184,7.6203414,-5.15089242,-49.92183054,-37.41988698
3.63,363,-0.996,0.442,-0.42,12.7196676,61.07732280000001,2.4637194,-5.0133825000000005,-49.320224640000006,-37.43707572
3.6399999999999997,364,-0.9670000000000001,0.475,-0.461,13.120738199999998,68.98414319999999,-3.5523396000000003,-4.80138804,-48.63840462,-37.55166732
3.65,365,-0.95,0.498,-0.38299999999999995,14.266654199999998,73.51051140000001,-9.740286,-4.56074568,-47.94512544000001,-37.71782514
3.6599999999999997,366,-0.976,0.503,-0.40399999999999997,15.297978599999999,81.3027402,-17.8189938,-4.1825934,-47.14871382,-38.03868162
3.67,367,-0.963,0.511,-0.48,17.246035799999998,91.3295052,-24.522602399999997,-3.71849742,-46.26062892,-38.45121138
3.6799999999999997,368,-0.909,0.496,-0.5379999999999999,20.7983754,99.5801004,-31.111619399999995,-3.16845774,-45.2923299,-38.94395526
3.69,369,-0.8740000000000001,0.46,-0.632,22.2880662,105.0804972,-37.586044799999996,-2.5611222600000003,-44.27246466,-39.5054541
3.6999999999999997,370,-0.904,0.42100000000000004,-0.6940000000000001,21.772404,110.7527814,-42.91455420000001,-1.95378678,-43.19530362,-40.10133042
3.71,371,-0.922,0.381,-0.705,21.371333399999997,118.2585312,-46.8106686,-1.32353298,-42.03792846,-40.737313799999995
3.7199999999999998,372,-0.861,0.29,-0.8,24.0069402,125.0767314,-47.4409224,-0.6875496,-40.80606876,-41.35037885999999
3.73,373,-0.812,0.12300000000000001,-0.865,25.3247436,128.7436626,-42.97185,-0.10886202,-39.534102,-41.87750022
3.7399999999999998,374,-0.835,-0.094,-0.858,22.6891368,127.0820844,-34.950438,0.34950438,-38.27359439999999,-42.27857082
3.75,375,-0.705,-0.361,-0.8270000000000001,17.0741484,117.9720522,-25.7258142,0.69900876,-37.0990305,-42.56504982
3.76,376,-0.556,-0.655,-0.9079999999999999,1.3750992,109.721457,-11.2872726,0.75057498,-36.01613988,-42.65099352
3.77,377,-0.256,-0.893,-0.94,-29.5646328,106.3983006,4.6409598,0.3724227000000001,-34.96762674,-42.5421315
3.78,378,0.053,-0.9420000000000001,-0.91,-61.764872399999994,94.7672532,16.272007199999994,-0.39534102,-34.03943478,-42.30721872
3.79,379,0.185,-0.713,-1.018,-85.1988546,69.32791800000001,26.1841806,-1.44958374,-33.357614760000004,-41.97490308
3.8,380,0.081,-0.29600000000000004,-1.044,-84.96967140000002,49.847346,28.877083199999998,-2.49809688,-32.836222979999995,-41.636857860000006
3.81,381,-0.126,0.068,-0.858,-74.65642740000001,27.7311672,22.1161788,-3.40337052,-32.55547356,-41.37902676
3.82,382,-0.302,0.245,-0.856,-56.149884,1.145916,9.5111028,-4.03362432,-32.544014399999995,-41.25870558
3.83,383,-0.40700000000000003,0.293,-0.9129999999999999,-45.72204840000001,1.432395,1.8334656000000005,-4.51490904,-32.53255524,-41.23578726
3.84,384,-0.45,0.33399999999999996,-0.932,-39.3622146,11.172680999999999,1.2605076000000002,-4.9217092199999986,-32.429422800000005,-41.21859852
3.8499999999999996,385,-0.488,0.376,-0.941,-30.65325300000001,19.767051000000002,5.1566220000000005,-5.30559108,-32.217428340000005,-41.14984356
3.86,386,-0.523,0.39,-0.9159999999999999,-19.480572,24.4080108,8.880849000000003,-5.5519630200000005,-31.971056400000002,-41.06389986
3.8699999999999997,387,-0.515,0.34600000000000003,-0.885,-8.078707799999998,25.7258142,11.0007936,-5.6952025200000005,-31.70749572,-40.95503784
3.88,388,-0.469,0.258,-0.828,3.3231564,25.496631,11.1153852,-5.72385042,-31.443935040000003,-40.84617582
3.8899999999999997,389,-0.426,0.161,-0.768,13.3499214,25.9549974,10.4278356,-5.6436363,-31.18037436,-40.74877296
3.9,390,-0.40700000000000003,0.11,-0.754,24.923673,27.903054600000004,9.1100322,-5.43737142,-30.88816578,-40.66855884
3.9099999999999997,391,-0.376,0.09,-0.752,31.2835068,31.913760600000003,7.2765666,-5.1566220000000005,-30.56157972,-40.61126304
3.92,392,-0.31,0.07200000000000001,-0.741,36.38283300000001,34.60666320000001,5.5576926,-4.80711762,-30.212075339999995,-40.57115598
3.9299999999999997,393,-0.29600000000000004,0.061,-0.759,38.8465524,36.955791,4.2398892,-4.42896534,-29.839652640000004,-40.54823766
3.94,394,-0.275,0.034,-0.775,40.5081306,38.5600734,3.8961144,-4.03362432,-29.4500412,-40.53104892
3.9499999999999997,395,-0.27,-0.005,-0.8009999999999999,39.5913978,39.0757356,2.6929026,-3.63255372,-29.03751144,-40.52531934
3.96,396,-0.254,-0.042,-0.8220000000000001,36.03905820000001,38.5600734,1.6042823999999998,-3.27731976,-28.6479,-40.52531934
3.9699999999999998,397,-0.259,-0.068,-0.8490000000000001,32.0283522,36.4401288,0.3437748,-2.9507337000000002,-28.286936460000003,-40.5367785
3.98,398,-0.273,-0.10099999999999999,-0.88,27.215505,32.4294228,-0.572958,-2.6699842800000004,-27.96607998,-40.55396724000001
3.9899999999999998,399,-0.29,-0.12,-0.917,22.631841,28.81978740000001,-0.6302538000000001,-2.4350715000000003,-27.673871400000003,-40.57115598
4.0,400,-0.325,-0.125,-0.9470000000000001,17.9335854,23.835052800000003,0.1718874,-2.21734746,-27.404581140000005,-40.594074299999996
4.01,401,-0.37,-0.107,-0.963,12.2040054,17.0741484,1.7188740000000002,-2.10275586,-27.23269374,-40.57688556
4.02,402,-0.431,-0.065,-0.9690000000000001,6.130650599999999,9.9121734,3.6096353999999997,-2.0626488000000003,-27.13529088,-40.5367785
4.03,403,-0.505,-0.012,-0.968,-0.4583664000000001,3.7242269999999995,5.0993262,-2.0912967,-27.09518382,-40.47948270000001
4.04,404,-0.569,0.048,-0.955,-5.958763200000001,-0.8021411999999999,5.9014674000000005,-2.18296998,-27.100913400000003,-40.41645732
4.05,405,-0.625,0.11199999999999999,-0.9229999999999999,-8.9954406,-4.010706000000001,6.0160589999999985,-2.3376686399999995,-27.18112752,-40.32478404
4.06,406,-0.6559999999999999,0.165,-0.898,-10.313244000000001,-6.990087599999999,5.6149884000000005,-2.46944898,-27.249882480000004,-40.26175866
4.07,407,-0.6629999999999999,0.205,-0.868,-9.9121734,-8.3651868,4.8701430000000006,-2.59549974,-27.33582618,-40.20446286
4.08,408,-0.662,0.233,-0.845,-9.3392154,-8.078707799999998,3.2658606,-2.71009134,-27.4160403,-40.1643558
4.09,409,-0.643,0.24600000000000002,-0.83,-8.3651868,-5.6722842,0.7448454000000001,-2.79603504,-27.473336100000004,-40.15289664
4.1,410,-0.611,0.235,-0.818,-7.1046792000000005,-2.8074942000000003,-1.8907614,-3.01948866,-27.610846020000004,-40.08987126
4.109999999999999,411,-0.5760000000000001,0.205,-0.8170000000000001,-5.2712136,-0.5156622000000001,-4.010706000000001,-3.04813656,-27.62230518,-40.1357079
4.12,412,-0.547,0.17300000000000001,-0.809,-3.9534102,1.2605076000000002,-5.7868758000000025,-3.05959572,-27.610846020000004,-40.19873328
4.13,413,-0.519,0.145,-0.8029999999999999,-3.7242269999999995,2.6929026,-7.2765666,-3.05959572,-27.5879277,-40.28467698
4.14,414,-0.493,0.125,-0.797,-3.9534102,5.1566220000000005,-8.078707799999998,-3.05959572,-27.54209106,-40.37635026
4.1499999999999995,415,-0.473,0.11599999999999999,-0.8,-3.4377480000000005,7.906820400000001,-8.136003599999999,-3.0997027800000003,-27.48479526,-40.44510522
4.16,416,-0.456,0.10300000000000001,-0.804,-2.2345362,11.45916,-7.5057497999999985,-3.0825140400000004,-27.375933239999995,-40.53104892
4.17,417,-0.43799999999999994,0.091,-0.8079999999999999,-1.0313244000000001,14.7823164,-6.2452422,-3.05959572,-27.23269374,-40.60553346
4.18,418,-0.425,0.084,-0.82,-0.11459160000000004,17.0741484,-4.3544808,-3.04240698,-27.06653592,-40.66282926
4.1899999999999995,419,-0.415,0.084,-0.835,0.057295800000000015,18.048177,-2.291832,-3.02521824,-26.88891894,-40.69147716
4.2,420,-0.41700000000000004,0.087,-0.851,-0.1718874,17.7044022,-0.572958,-3.05959572,-26.71130196,-40.69147716
4.21,421,-0.42200000000000004,0.08800000000000001,-0.868,-0.1718874,16.7303736,0.6875496,-3.0653253000000005,-26.54514414,-40.68574758
4.22,422,-0.4270000000000001,0.077,-0.882,0.4583664000000001,15.297978599999999,1.7188740000000002,-3.07105488,-26.39044548,-40.67428842
4.2299999999999995,423,-0.428,0.061,-0.8959999999999999,0.8594370000000001,13.980175199999998,2.5783110000000002,-3.07105488,-26.25293556,-40.64564052
4.24,424,-0.428,0.048,-0.9109999999999999,1.0313244000000001,12.2040054,3.2658606,-3.07678446,-26.13261438,-40.61699262000001
4.25,425,-0.426,0.039,-0.922,1.2032118,10.1986524,4.010706000000001,-3.08824362,-26.0122932,-40.57115598
4.26,426,-0.426,0.037000000000000005,-0.9279999999999999,1.0313244000000001,8.136003599999999,4.583664,-3.0997027800000003,-25.93207908,-40.52531934
4.27,427,-0.426,0.040999999999999995,-0.929,0.9167328000000001,6.3598338,4.9274388,-3.11116194,-25.86332412,-40.47375312
4.28,428,-0.425,0.047,-0.9259999999999999,1.0313244000000001,4.8701430000000006,4.9847346,-3.12835068,-25.8117579,-40.4221869
4.29,429,-0.428,0.057,-0.9129999999999999,1.2605076000000002,3.6669312000000014,4.8128472,-3.13408026,-25.77165084,-40.3648911
4.3,430,-0.436,0.07,-0.899,1.432395,2.291832,4.2398892,-3.19710564,-25.76019168,-40.29613614
4.31,431,-0.444,0.08,-0.885,1.4896908000000002,1.7761698000000001,3.7242269999999995,-3.19710564,-25.73727336,-40.25602908
4.32,432,-0.456,0.091,-0.867,1.0313244000000001,1.6042823999999998,2.9793816000000004,-3.20283522,-25.72008462,-40.22738118
4.33,433,-0.46799999999999997,0.105,-0.856,0.6302538000000001,2.291832,2.4064236,-3.20283522,-25.69716630000001,-40.19873328
4.34,434,-0.474,0.115,-0.855,1.0313244000000001,2.9220858,1.7188740000000002,-3.20283522,-25.668518400000004,-40.18154454
4.35,435,-0.475,0.121,-0.858,1.432395,3.1512689999999997,1.0886202,-3.3518043,-25.73154378,-40.09560084
4.36,436,-0.474,0.122,-0.863,1.4896908000000002,3.2658606,0.6302538000000001,-3.34034514,-25.69716630000001,-40.08987126
4.37,437,-0.473,0.12,-0.872,1.7188740000000002,3.380452200000001,0.1718874,-3.3231564,-25.66278882000001,-40.08414168
4.38,438,-0.47100000000000003,0.11599999999999999,-0.873,1.7188740000000002,3.9534102,-0.1718874,-3.30023808,-25.62268176,-40.08987126
4.39,439,-0.47,0.11,-0.873,1.3178034,4.4117766,-0.4583664000000001,-3.28304934,-25.5825747,-40.09560084
4.3999999999999995,440,-0.46399999999999997,0.105,-0.877,0.6875496,4.4690724,-0.7448454000000001,-3.39764094,-25.60549302,-40.04976420000001
4.41,441,-0.45899999999999996,0.102,-0.882,0.057295800000000015,3.9534102,-0.9740286,-3.3919113599999995,-25.56538596,-40.06122336
4.42,442,-0.455,0.102,-0.889,-0.5156622000000001,3.0939732,-1.0313244000000001,-3.3919113599999995,-25.53673806,-40.07268252
4.43,443,-0.452,0.10300000000000001,-0.892,-0.7448454000000001,2.4064236,-1.0313244000000001,-3.39764094,-25.51381974,-40.08414168
4.4399999999999995,444,-0.449,0.102,-0.894,-0.6302538000000001,1.7761698000000001,-0.8021411999999999,-3.39764094,-25.496631,-40.09560084
4.45,445,-0.447,0.1,-0.894,-0.572958,1.4896908000000002,-0.7448454000000001,-3.60390582,-25.54246764,-40.01538672
4.46,446,-0.446,0.099,-0.892,-0.572958,1.5469866,-0.7448454000000001,-3.60390582,-25.5252789,-40.02684588
4.47,447,-0.44299999999999995,0.098,-0.893,-0.7448454000000001,1.7761698000000001,-0.572958,-3.6096354,-25.50809016,-40.03257546
4.4799999999999995,448,-0.44,0.09699999999999999,-0.889,-0.7448454000000001,1.9480572,-0.286479,-3.61536498,-25.49090142,-40.03830504
4.49,449,-0.436,0.098,-0.888,-0.6875496,2.0626488000000003,0.1718874,-3.62682414,-25.4679831,-40.03830504
4.5,450,-0.431,0.098,-0.8859999999999999,-0.572958,1.8907614,0.6875496,-3.79871154,-25.47371268,-39.95809092
4.51,451,-0.4270000000000001,0.099,-0.8859999999999999,-0.40107059999999994,1.8907614,1.0313244000000001,-3.810170700000002,-25.45652394,-39.94663176
4.52,452,-0.424,0.10099999999999999,-0.887,0.057295800000000015,1.8334656000000005,1.0886202,-3.81590028,-25.4393352,-39.9351726
4.53,453,-0.424,0.102,-0.887,0.6875496,1.7761698000000001,0.7448454000000001,-3.810170700000002,-25.41641688,-39.92944302
4.54,454,-0.426,0.10099999999999999,-0.882,0.9740286,1.432395,0.3437748,-3.79871154,-25.40495772,-39.92371344
4.55,455,-0.428,0.099,-0.8809999999999999,1.0886202,0.9740286,0.1718874,-4.022165159999999,-25.4393352,-39.82631058
4.56,456,-0.43,0.096,-0.8809999999999999,1.145916,0.6302538000000001,0.057295800000000015,-4.010706,-25.42787604,-39.82631058
4.57,457,-0.4320000000000001,0.092,-0.88,1.145916,0.40107059999999994,0.11459160000000004,-3.99924684,-25.42787604,-39.820581
4.58,458,-0.435,0.08800000000000001,-0.879,0.9167328000000001,0.1718874,0.1718874,-3.99351726,-25.42214646,-39.820581
4.59,459,-0.43799999999999994,0.086,-0.8809999999999999,0.8021411999999999,0.5156622000000001,0.11459160000000004,-3.9820581,-25.41641688,-39.820581
4.6,460,-0.442,0.087,-0.884,0.8021411999999999,0.8021411999999999,0.0,-4.1825934,-25.50809016,-39.72317814
4.61,461,-0.44299999999999995,0.08900000000000001,-0.885,0.6302538000000001,0.7448454000000001,-0.1718874,-4.17113424,-25.50236058,-39.72890772
4.62,462,-0.445,0.091,-0.8859999999999999,0.1718874,0.0,-0.2291832000000001,-4.17113424,-25.50236058,-39.7346373
4.63,463,-0.449,0.092,-0.884,0.057295800000000015,-0.5156622000000001,-0.2291832000000001,-4.16540466,-25.50809016,-39.7346373
4.64,464,-0.45,0.09,-0.877,-0.11459160000000004,-0.6875496,-0.286479,-4.16540466,-25.51381974,-39.74036688
4.6499999999999995,465,-0.45,0.09,-0.873,-0.3437748,-0.40107059999999994,-0.40107059999999994,-4.48626114,-25.73154378,-39.58566822
4.66,466,-0.452,0.092,-0.877,-0.2291832000000001,0.0,-0.40107059999999994,-4.48626114,-25.73154378,-39.5913978
4.67,467,-0.456,0.09300000000000001,-0.875,-0.3437748,-0.11459160000000004,-0.7448454000000001,-4.48626114,-25.73727336,-39.59712738
4.68,468,-0.45399999999999996,0.095,-0.873,-0.9740286,-0.2291832000000001,-0.9167328000000001,-4.49199072,-25.73727336,-39.60858654
4.6899999999999995,469,-0.447,0.09699999999999999,-0.875,-1.0886202,-0.3437748,-0.7448454000000001,-4.50344988,-25.743002940000004,-39.61431612
4.7,470,-0.44799999999999995,0.096,-0.877,-0.3437748,-0.3437748,-0.3437748,-5.03630082,-26.02375236,-39.36794418
4.71,471,-0.451,0.095,-0.878,0.11459160000000004,0.0,-0.057295800000000015,-5.03057124,-26.02375236,-39.37367376
4.72,472,-0.45299999999999996,0.095,-0.88,0.057295800000000015,0.2291832000000001,-0.1718874,-5.03057124,-26.01802278000001,-39.37367376
4.7299999999999995,473,-0.456,0.098,-0.882,-0.057295800000000015,0.40107059999999994,-0.3437748,-5.03057124,-26.01802278000001,-39.37940334
4.74,474,-0.461,0.099,-0.882,0.0,0.5156622000000001,-0.4583664000000001,-5.02484166,-26.0122932,-39.38513292
4.75,475,-0.46,0.098,-0.882,0.0,0.572958,-0.572958,-5.21964738,-26.14407354,-39.29345964
4.76,476,-0.45899999999999996,0.09699999999999999,-0.8809999999999999,-0.057295800000000015,0.8021411999999999,-0.572958,-5.21964738,-26.138343960000004,-39.29918922
4.77,477,-0.455,0.09300000000000001,-0.8809999999999999,-0.11459160000000004,0.9167328000000001,-0.40107059999999994,-5.21964738,-26.1268848,-39.304918799999996
4.78,478,-0.451,0.091,-0.885,0.057295800000000015,1.0313244000000001,-0.3437748,-5.2139178,-26.11542564,-39.31064838
4.79,479,-0.44799999999999995,0.08900000000000001,-0.889,0.286479,1.2605076000000002,-0.11459160000000004,-5.2139178,-26.103966480000004,-39.31064838
4.8,480,-0.446,0.09,-0.8909999999999999,0.1718874,1.2605076000000002,-0.1718874,-5.3285094000000015,-26.13261438,-39.25908216000001
4.81,481,-0.446,0.09300000000000001,-0.89,0.0,1.2032118,-0.286479,-5.3285094000000015,-26.12115522,-39.26481174
4.82,482,-0.445,0.095,-0.889,0.0,1.3750992,-0.286479,-5.3285094000000015,-26.109696060000005,-39.27054132
4.83,483,-0.44299999999999995,0.09699999999999999,-0.8859999999999999,-0.057295800000000015,1.432395,-0.286479,-5.32277982,-26.09250732000001,-39.2762709
4.84,484,-0.439,0.099,-0.885,-0.057295800000000015,1.4896908000000002,-0.286479,-5.32277982,-26.08104816,-39.2762709
4.85,485,-0.435,0.099,-0.885,0.0,1.5469866,-0.2291832000000001,-5.466019319999999,-26.07531858,-39.2189751
4.86,486,-0.435,0.10099999999999999,-0.885,0.0,1.3178034,-0.286479,-5.466019319999999,-26.05812984,-39.22470468
4.87,487,-0.435,0.102,-0.883,0.0,1.3178034,-0.40107059999999994,-5.466019319999999,-26.04667068,-39.23043426
4.88,488,-0.434,0.10099999999999999,-0.88,-0.057295800000000015,1.0886202,-0.572958,-5.46028974,-26.03521152,-39.23616384
4.89,489,-0.434,0.10099999999999999,-0.879,-0.2291832000000001,0.9740286,-0.6875496,-5.46028974,-26.02948194,-39.247623
4.8999999999999995,490,-0.435,0.099,-0.879,-0.2291832000000001,1.2032118,-0.7448454000000001,-5.54623344,-26.02948194,-39.2189751
4.91,491,-0.434,0.099,-0.88,-0.2291832000000001,1.432395,-0.8021411999999999,-5.54623344,-26.0122932,-39.22470468
4.92,492,-0.434,0.099,-0.8809999999999999,-0.11459160000000004,1.5469866,-0.7448454000000001,-5.5405038599999985,-26.00083404,-39.23616384
4.93,493,-0.4320000000000001,0.099,-0.8859999999999999,0.1718874,1.3178034,-0.6302538000000001,-5.5405038599999985,-25.9836453,-39.247623
4.9399999999999995,494,-0.433,0.09699999999999999,-0.89,0.572958,0.6875496,-0.7448454000000001,-5.5290447,-25.97791572,-39.25335258
4.95,495,-0.436,0.095,-0.89,0.572958,0.1718874,-0.9740286,-5.6149884000000005,-25.98937488,-39.22470468
4.96,496,-0.439,0.095,-0.888,0.4583664000000001,0.057295800000000015,-1.0886202,-5.6035292399999985,-25.98937488,-39.23616384
4.97,497,-0.441,0.09300000000000001,-0.883,0.2291832000000001,0.2291832000000001,-1.2032118,-5.59207008,-25.98937488,-39.247623
4.9799999999999995,498,-0.44,0.09300000000000001,-0.88,-0.057295800000000015,0.3437748,-1.3178034,-5.5863404999999995,-25.98937488,-39.26481174
4.99,499,-0.441,0.094,-0.88,-0.057295800000000015,0.5156622000000001,-1.2032118,-5.58061092,-25.9836453,-39.28200048
5.0,500,-0.442,0.09300000000000001,-0.882,0.1718874,0.572958,-1.0886202,-5.64936588,-26.01802278000001,-39.25908216000001
5.01,501,-0.446,0.09300000000000001,-0.882,0.40107059999999994,0.7448454000000001,-1.0313244000000001,-5.6436363,-26.0122932,-39.27054132
5.02,502,-0.446,0.09300000000000001,-0.882,0.6875496,1.2605076000000002,-0.8594370000000001,-5.62644756,-26.00083404,-39.28200048
5.03,503,-0.442,0.092,-0.883,0.6875496,1.3178034,-0.8594370000000001,-5.6149884000000005,-25.98937488,-39.29345964
5.04,504,-0.439,0.09,-0.879,0.6875496,1.2605076000000002,-0.9167328000000001,-5.6035292399999985,-25.97791572,-39.304918799999996
5.05,505,-0.4370000000000001,0.09,-0.878,0.40107059999999994,1.3178034,-0.9167328000000001,-5.6436363,-25.9836453,-39.29345964
5.06,506,-0.436,0.08900000000000001,-0.877,0.286479,1.3178034,-1.0313244000000001,-5.63217714,-25.97218614,-39.304918799999996
5.07,507,-0.435,0.091,-0.8759999999999999,0.11459160000000004,1.3750992,-0.9740286,-5.62644756,-25.96072698,-39.31637796
5.08,508,-0.435,0.09300000000000001,-0.877,0.1718874,1.2605076000000002,-0.9740286,-5.62071798,-25.94353824,-39.32783712
5.09,509,-0.439,0.094,-0.8759999999999999,0.0,1.0886202,-0.9740286,-5.6149884000000005,-25.93780866,-39.33929628
5.1,510,-0.442,0.095,-0.877,-0.1718874,1.0313244000000001,-0.9740286,-5.6837433599999985,-25.96645656,-39.31637796
5.11,511,-0.44299999999999995,0.096,-0.879,-0.1718874,0.9740286,-0.9167328000000001,-5.67801378,-25.96072698,-39.32783712
5.12,512,-0.444,0.096,-0.88,-0.286479,0.9740286,-1.0313244000000001,-5.67801378,-25.94926782,-39.33929628
5.13,513,-0.446,0.09699999999999999,-0.883,-0.40107059999999994,0.9740286,-0.9740286,-5.67801378,-25.94353824,-39.35648502
5.14,514,-0.44299999999999995,0.098,-0.884,-0.4583664000000001,1.0313244000000001,-1.0313244000000001,-5.67801378,-25.93207908,-39.36794418
5.1499999999999995,515,-0.44,0.09699999999999999,-0.885,-0.286479,0.8021411999999999,-0.6875496,-5.94157446,-26.0122932,-39.25335258
5.16,516,-0.4370000000000001,0.095,-0.89,0.11459160000000004,0.1718874,0.0,-5.94157446,-26.0122932,-39.25335258
5.17,517,-0.429,0.092,-0.894,0.40107059999999994,0.3437748,0.0,-5.93584488,-26.00656362,-39.25335258
5.18,518,-0.425,0.09,-0.892,0.5156622000000001,0.286479,0.057295800000000015,-5.930115299999999,-26.00656362,-39.25335258
5.1899999999999995,519,-0.426,0.09,-0.888,0.286479,-0.11459160000000004,0.11459160000000004,-5.92438572,-26.00656362,-39.25335258
5.2,520,-0.4270000000000001,0.08900000000000001,-0.882,0.057295800000000015,-0.6302538000000001,0.2291832000000001,-5.99887026,-26.01802278000001,-39.2189751
5.21,521,-0.426,0.09,-0.875,-0.40107059999999994,-0.6875496,0.40107059999999994,-6.00459984,-26.02375236,-39.21324552
5.22,522,-0.425,0.08800000000000001,-0.875,-0.40107059999999994,-0.572958,0.6302538000000001,-6.01032942,-26.02948194,-39.20751594
5.2299999999999995,523,-0.428,0.08900000000000001,-0.882,0.0,-0.4583664000000001,0.6875496,-6.016058999999999,-26.03521152,-39.196056780000006
5.24,524,-0.434,0.091,-0.885,0.286479,-0.4583664000000001,0.6302538000000001,-6.016058999999999,-26.0409411,-39.19032720000001
5.25,525,-0.44,0.09,-0.88,-0.1718874,-0.40107059999999994,0.40107059999999994,-6.0733548000000015,-26.08104816,-39.1616793
5.26,526,-0.44,0.09300000000000001,-0.88,-0.5156622000000001,-0.286479,0.4583664000000001,-6.0790843799999985,-26.08104816,-39.15594972
5.27,527,-0.4370000000000001,0.094,-0.883,-0.11459160000000004,0.0,0.4583664000000001,-6.08481396,-26.08104816,-39.15022014
5.28,528,-0.433,0.095,-0.885,0.286479,0.40107059999999994,0.4583664000000001,-6.08481396,-26.08104816,-39.14449056
5.29,529,-0.43,0.096,-0.885,0.2291832000000001,0.286479,0.286479,-6.08481396,-26.07531858,-39.13876098
5.3,530,-0.426,0.098,-0.8859999999999999,0.057295800000000015,0.057295800000000015,0.286479,-6.3770225400000005,-26.00083404,-39.0184398
5.31,531,-0.428,0.10099999999999999,-0.887,0.057295800000000015,-0.286479,0.3437748,-6.3770225400000005,-26.00083404,-39.01271022
5.32,532,-0.429,0.099,-0.884,0.11459160000000004,-0.572958,0.286479,-6.3770225400000005,-26.00656362,-39.00698064
5.33,533,-0.428,0.09699999999999999,-0.883,0.1718874,-0.6875496,0.3437748,-6.3770225400000005,-26.0122932,-39.00698064
5.34,534,-0.428,0.096,-0.884,0.2291832000000001,-0.5156622000000001,0.2291832000000001,-6.3770225400000005,-26.01802278000001,-39.00125106
5.35,535,-0.429,0.095,-0.884,0.2291832000000001,-0.40107059999999994,0.2291832000000001,-6.4228591800000014,-26.01802278000001,-38.97833274
5.36,536,-0.428,0.09699999999999999,-0.8859999999999999,0.286479,-0.2291832000000001,0.2291832000000001,-6.4228591800000014,-26.01802278000001,-38.97260316
5.37,537,-0.428,0.096,-0.889,0.4583664000000001,-0.6302538000000001,0.3437748,-6.4228591800000014,-26.02375236,-38.97260316
5.38,538,-0.429,0.094,-0.887,0.3437748,-1.145916,0.286479,-6.417129600000001,-26.03521152,-38.96687358000001
5.39,539,-0.429,0.092,-0.885,0.0,-1.2605076000000002,0.286479,-6.4228591800000014,-26.04667068,-38.961144
5.3999999999999995,540,-0.429,0.091,-0.885,-0.11459160000000004,-1.0313244000000001,0.2291832000000001,-6.451507079999999,-26.052400259999995,-38.94395526
5.41,541,-0.43,0.09300000000000001,-0.884,-0.057295800000000015,-0.9740286,0.2291832000000001,-6.45723666,-26.05812984,-38.94395526
5.42,542,-0.43,0.094,-0.884,-0.1718874,-1.0313244000000001,0.1718874,-6.45723666,-26.069589,-38.93822568
5.43,543,-0.43,0.095,-0.882,-0.2291832000000001,-1.0313244000000001,0.2291832000000001,-6.462966239999997,-26.08104816,-38.9324961
5.4399999999999995,544,-0.43,0.094,-0.882,-0.057295800000000015,-1.0886202,0.286479,-6.462966239999997,-26.09250732000001,-38.9324961
5.45,545,-0.431,0.092,-0.882,0.11459160000000004,-0.9167328000000001,0.3437748,-6.49161414,-26.098236899999996,-38.91530736
5.46,546,-0.4320000000000001,0.091,-0.882,0.0,-0.9167328000000001,0.286479,-6.49161414,-26.103966480000004,-38.90957778
5.47,547,-0.431,0.092,-0.879,-0.2291832000000001,-0.9740286,0.2291832000000001,-6.497343719999999,-26.11542564,-38.9038482
5.4799999999999995,548,-0.429,0.092,-0.878,-0.40107059999999994,-0.8594370000000001,0.2291832000000001,-6.5030733,-26.12115522,-38.9038482
5.49,549,-0.4270000000000001,0.09,-0.877,-0.4583664000000001,-0.8021411999999999,0.2291832000000001,-6.5088028799999975,-26.13261438,-38.89811862
5.5,550,-0.428,0.092,-0.8809999999999999,-0.6302538000000001,-0.9740286,0.3437748,-6.53745078,-26.13261438,-38.88665946
5.51,551,-0.43,0.091,-0.887,-0.3437748,-1.2605076000000002,0.286479,-6.543180359999999,-26.14407354,-38.88092988
5.52,552,-0.431,0.09,-0.887,-0.2291832000000001,-1.7188740000000002,0.286479,-6.54890994,-26.16126228,-38.875200299999996
5.53,553,-0.429,0.08900000000000001,-0.8859999999999999,-0.2291832000000001,-1.8907614,0.40107059999999994,-6.5546395199999985,-26.17845102,-38.86947072
5.54,554,-0.425,0.08900000000000001,-0.8859999999999999,-0.2291832000000001,-1.8907614,0.572958,-6.560369099999999,-26.19563976,-38.85801156
5.55,555,-0.42,0.095,-0.888,-0.1718874,-1.8907614,0.6875496,-6.58328742,-26.18991018,-38.8465524
5.56,556,-0.41600000000000004,0.1,-0.889,0.057295800000000015,-1.8907614,0.6875496,-6.589017,-26.20709892,-38.83509324
5.57,557,-0.41600000000000004,0.10400000000000001,-0.889,0.2291832000000001,-2.2345362,0.8594370000000001,-6.589017,-26.23001724,-38.82363408
5.58,558,-0.418,0.107,-0.883,0.3437748,-2.5210152000000003,0.8021411999999999,-6.589017,-26.25293556,-38.81217492
5.59,559,-0.42100000000000004,0.106,-0.88,0.6875496,-2.6356068,0.7448454000000001,-6.589017,-26.27585388,-38.80071576
5.6,560,-0.419,0.10300000000000001,-0.8740000000000001,0.9740286,-2.9220858,0.572958,-6.5947465800000025,-26.29304262,-38.78352702
5.61,561,-0.41700000000000004,0.094,-0.872,1.0313244000000001,-3.1512689999999997,0.40107059999999994,-6.589017,-26.3274201,-38.77779744
5.62,562,-0.413,0.09,-0.8740000000000001,1.0313244000000001,-3.3231564,0.286479,-6.58328742,-26.356068,-38.77206786000001
5.63,563,-0.41100000000000003,0.087,-0.8759999999999999,1.2032118,-3.4377480000000005,0.2291832000000001,-6.5718282599999975,-26.39044548,-38.76633828
5.64,564,-0.414,0.087,-0.877,1.2032118,-3.7242269999999995,0.11459160000000004,-6.560369099999999,-26.43055254,-38.76060870000001
5.6499999999999995,565,-0.418,0.08900000000000001,-0.877,0.9167328000000001,-4.010706000000001,0.0,-6.560369099999999,-26.45920044,-38.75487912000001
5.66,566,-0.4270000000000001,0.094,-0.879,0.6875496,-4.1252976000000015,0.0,-6.5546395199999985,-26.4993075,-38.74914954000001
5.67,567,-0.436,0.096,-0.882,0.8021411999999999,-4.0680017999999984,-0.1718874,-6.543180359999999,-26.53941456,-38.74914954000001
5.68,568,-0.441,0.094,-0.884,1.0313244000000001,-3.7242269999999995,-0.3437748,-6.5317212,-26.57379204,-38.74914954000001
5.6899999999999995,569,-0.444,0.087,-0.885,1.0313244000000001,-3.3231564,-0.5156622000000001,-6.52026204,-26.60816952,-38.75487912000001
5.7,570,-0.445,0.084,-0.885,0.6302538000000001,-3.0366774,-0.5156622000000001,-6.5030733,-26.63681742,-38.75487912000001
5.71,571,-0.444,0.08199999999999999,-0.887,0.5156622000000001,-2.9793816000000004,-0.40107059999999994,-6.497343719999999,-26.671194899999996,-38.76060870000001
5.72,572,-0.447,0.08199999999999999,-0.888,0.5156622000000001,-3.0366774,-0.1718874,-6.49161414,-26.69984280000001,-38.76060870000001
5.7299999999999995,573,-0.451,0.084,-0.883,0.2291832000000001,-3.2085647999999996,0.11459160000000004,-6.49161414,-26.73422028,-38.75487912000001
5.74,574,-0.451,0.08800000000000001,-0.883,0.11459160000000004,-2.9220858,0.3437748,-6.49161414,-26.762868180000005,-38.74914954000001
5.75,575,-0.451,0.091,-0.883,0.286479,-2.4064236,0.4583664000000001,-6.5030733,-26.79151608,-38.7319608
5.76,576,-0.45299999999999996,0.09,-0.882,0.572958,-2.1772404,0.6302538000000001,-6.5030733,-26.8144344,-38.72623122
5.77,577,-0.45899999999999996,0.092,-0.8809999999999999,0.4583664000000001,-2.2345362,0.6875496,-6.5030733,-26.83735272,-38.71477206
5.78,578,-0.46,0.095,-0.877,0.2291832000000001,-2.1199446,0.7448454000000001,-6.5030733,-26.85454146,-38.70331289999999
5.79,579,-0.456,0.096,-0.871,0.2291832000000001,-2.0053530000000004,0.9167328000000001,-6.5030733,-26.8717302,-38.69185374
5.8,580,-0.44799999999999995,0.092,-0.867,0.1718874,-1.6615782,1.0886202,-6.52026204,-26.9003781,-38.67466500000001
5.81,581,-0.449,0.087,-0.875,0.2291832000000001,-1.2605076000000002,1.145916,-6.525991620000001,-26.91183726,-38.65747626
5.82,582,-0.45399999999999996,0.085,-0.8759999999999999,0.2291832000000001,-0.9740286,1.0313244000000001,-6.525991620000001,-26.92329642,-38.6460171
5.83,583,-0.455,0.086,-0.873,-0.3437748,-0.9167328000000001,0.9740286,-6.53745078,-26.929026,-38.63455794
5.84,584,-0.451,0.08900000000000001,-0.873,-0.4583664000000001,-0.6875496,1.0886202,-6.54890994,-26.934755579999994,-38.61736920000001
5.85,585,-0.445,0.08900000000000001,-0.879,-0.11459160000000004,-0.3437748,1.2605076000000002,-6.566098679999999,-26.934755579999994,-38.60018046
5.86,586,-0.44,0.08800000000000001,-0.883,0.0,0.0,1.145916,-6.5718282599999975,-26.934755579999994,-38.588721299999996
5.87,587,-0.439,0.08800000000000001,-0.885,-0.057295800000000015,0.0,0.9740286,-6.57755784,-26.929026,-38.57726214
5.88,588,-0.439,0.09,-0.885,-0.3437748,0.0,0.8021411999999999,-6.58328742,-26.929026,-38.56580298
5.89,589,-0.44,0.09,-0.885,-0.40107059999999994,-0.057295800000000015,0.8594370000000001,-6.5947465800000025,-26.929026,-38.56007340000001
5.8999999999999995,590,-0.44,0.091,-0.887,-0.3437748,-0.1718874,0.8021411999999999,-6.623394479999999,-26.89464852,-38.54288466000001
5.91,591,-0.435,0.092,-0.8859999999999999,-0.2291832000000001,-0.3437748,0.7448454000000001,-6.62912406,-26.9003781,-38.5314255
5.92,592,-0.4320000000000001,0.092,-0.883,-0.1718874,-0.286479,0.8021411999999999,-6.63485364,-26.9003781,-38.52569592
5.93,593,-0.428,0.092,-0.885,-0.057295800000000015,-0.40107059999999994,0.9167328000000001,-6.640583220000001,-26.90610768,-38.51423676
5.9399999999999995,594,-0.425,0.092,-0.885,0.0,-0.572958,1.0313244000000001,-6.6463128,-26.91183726,-38.49704802
5.95,595,-0.425,0.09699999999999999,-0.888,0.0,-0.7448454000000001,1.145916,-6.680690279999999,-26.86600062,-38.47985928
5.96,596,-0.426,0.099,-0.887,0.0,-1.0313244000000001,1.145916,-6.686419860000001,-26.8717302,-38.46267054
5.97,597,-0.429,0.102,-0.884,0.0,-1.0886202,1.0886202,-6.69214944,-26.88318936,-38.45121138
5.9799999999999995,598,-0.431,0.10099999999999999,-0.8809999999999999,0.057295800000000015,-1.0886202,0.9167328000000001,-6.69787902,-26.89464852,-38.43975222
5.99,599,-0.4320000000000001,0.10099999999999999,-0.883,0.11459160000000004,-0.9167328000000001,0.7448454000000001,-6.69787902,-26.9003781,-38.42829306
6.0,600,-0.431,0.1,-0.883,0.11459160000000004,-0.6875496,0.6875496,-6.7379860800000015,-26.86027104,-38.40537474
6.01,601,-0.43,0.099,-0.883,0.1718874,-0.7448454000000001,0.6875496,-6.743715660000001,-26.86600062,-38.39964516
6.02,602,-0.429,0.09699999999999999,-0.884,0.2291832000000001,-0.7448454000000001,0.6302538000000001,-6.743715660000001,-26.87745978,-38.38818600000001
6.03,603,-0.4270000000000001,0.095,-0.885,0.2291832000000001,-1.0313244000000001,0.572958,-6.743715660000001,-26.88318936,-38.38245642
6.04,604,-0.429,0.09300000000000001,-0.885,0.2291832000000001,-1.3178034,0.5156622000000001,-6.743715660000001,-26.89464852,-38.37672684
6.05,605,-0.43,0.094,-0.884,0.057295800000000015,-1.5469866,0.4583664000000001,-6.7609043999999985,-26.87745978,-38.36526768
6.06,606,-0.434,0.095,-0.884,0.0,-1.7188740000000002,0.286479,-6.7609043999999985,-26.89464852,-38.3595381
6.07,607,-0.4370000000000001,0.096,-0.883,0.057295800000000015,-1.8334656000000005,0.286479,-6.76663398,-26.91183726,-38.35380852
6.08,608,-0.44,0.09699999999999999,-0.884,0.1718874,-1.7188740000000002,0.1718874,-6.7609043999999985,-26.929026,-38.34807894
6.09,609,-0.439,0.095,-0.884,0.2291832000000001,-1.6615782,0.0,-6.7609043999999985,-26.94621474,-38.34807894
6.1,610,-0.43799999999999994,0.094,-0.882,0.11459160000000004,-1.7188740000000002,0.0,-6.76663398,-26.95194432000001,-38.34234936
6.11,611,-0.4370000000000001,0.09,-0.879,0.0,-1.8907614,-0.11459160000000004,-6.76663398,-26.96913306,-38.34234936
6.12,612,-0.44,0.086,-0.8759999999999999,-0.40107059999999994,-2.1772404,-0.1718874,-6.77236356,-26.992051380000003,-38.34234936
6.13,613,-0.445,0.087,-0.878,-0.8594370000000001,-2.3491277999999998,-0.286479,-6.77809314,-27.014969699999998,-38.34234936
6.14,614,-0.45,0.08900000000000001,-0.8759999999999999,-0.8594370000000001,-2.2345362,-0.11459160000000004,-6.7895523,-27.037888020000004,-38.34234936
6.15,615,-0.449,0.09300000000000001,-0.877,-0.7448454000000001,-2.0626488000000003,0.0,-6.80674104,-27.05507676,-38.33661978
6.16,616,-0.446,0.098,-0.882,-0.572958,-1.7188740000000002,0.11459160000000004,-6.812470620000001,-27.072265500000004,-38.330890200000006
6.17,617,-0.439,0.098,-0.883,-0.286479,-1.432395,0.2291832000000001,-6.8182002000000015,-27.08945424,-38.32516062000001
6.18,618,-0.435,0.095,-0.882,0.057295800000000015,-1.2605076000000002,0.5156622000000001,-6.82392978,-27.100913400000003,-38.31943104
6.1899999999999995,619,-0.435,0.091,-0.882,0.2291832000000001,-1.145916,0.6875496,-6.82392978,-27.11237256,-38.31370146
6.2,620,-0.4370000000000001,0.09,-0.883,0.3437748,-1.0886202,0.7448454000000001,-6.82392978,-27.100913400000003,-38.302242299999996
6.21,621,-0.44,0.091,-0.884,0.5156622000000001,-1.0886202,0.7448454000000001,-6.82392978,-27.11237256,-38.29078314
6.22,622,-0.44299999999999995,0.09,-0.885,0.7448454000000001,-0.9167328000000001,0.8594370000000001,-6.82392978,-27.11810214,-38.27932398
6.2299999999999995,623,-0.444,0.091,-0.884,0.6875496,-0.8021411999999999,0.8594370000000001,-6.8182002000000015,-27.12383172,-38.26786482
6.24,624,-0.44299999999999995,0.091,-0.882,0.572958,-0.7448454000000001,0.8594370000000001,-6.8182002000000015,-27.129561300000002,-38.26213524
