TimeStamp(s),FrameCounter,AccX,AccY,AccZ,GyrX,GyrY,GyrZ,EulerX,EulerY,EulerZ
0.01,1,-0.098,-0.996,0.204,0.286479,-0.057295800000000015,-0.572958,101.2989744,-6.743715660000001,-36.14792022
0.02,2,-0.1,-0.995,0.203,0.1718874,0.0,-0.6875496,101.2989744,-6.7322565,-36.14792022
0.03,3,-0.098,-0.992,0.204,0.0,0.057295800000000015,-0.7448454000000001,101.22448986,-6.57755784,-36.14219064
0.04,4,-0.096,-0.988,0.205,-0.1718874,0.1718874,-0.6875496,101.21876028,-6.5718282599999975,-36.13646106
0.05,5,-0.094,-0.985,0.204,-0.1718874,0.1718874,-0.6875496,101.21876028,-6.566098679999999,-36.13646106
0.060000000000000005,6,-0.09,-0.983,0.206,-0.2291832000000001,0.057295800000000015,-0.6302538000000001,101.2130307,-6.560369099999999,-36.13073148
0.06999999999999999,7,-0.091,-0.981,0.208,-0.2291832000000001,0.0,-0.572958,101.2130307,-6.554639519999999,-36.13073148
0.08,8,-0.08800000000000001,-0.98,0.212,-0.4010706,0.1718874,-0.4583664000000001,101.19584196,-6.40567044,-36.1250019
0.09,9,-0.08800000000000001,-0.979,0.212,-0.6302538000000001,0.2291832000000001,-0.4583664000000001,101.19011238,-6.39994086,-36.11927232
0.09999999999999999,10,-0.091,-0.979,0.213,-0.6302538000000001,0.057295800000000015,-0.4010706,101.1843828,-6.39421128,-36.11927232
0.11,11,-0.092,-0.981,0.211,-0.572958,0.11459160000000004,-0.3437748,101.17865322,-6.39421128,-36.11927232
0.12,12,-0.097,-0.982,0.209,-0.4583664000000001,0.11459160000000004,-0.4010706,101.17292364,-6.3884817000000025,-36.11354274
0.13,13,-0.1,-0.983,0.21,-0.2291832000000001,0.286479,-0.4010706,101.13281658,-6.2738901,-36.10781315999999
0.14,14,-0.102,-0.984,0.21,-0.286479,0.6302538000000001,-0.4010706,101.127087,-6.2738901,-36.10208358
0.15000000000000002,15,-0.1,-0.984,0.211,-0.3437748,0.9167328,-0.572958,101.12135742,-6.26816052,-36.09062442
0.16,16,-0.093,-0.982,0.218,-0.8021411999999999,1.7188740000000002,-0.6875496,101.11562784,-6.26816052,-36.07343568
0.17,17,-0.08,-0.98,0.221,-1.2605076000000002,2.3491278,-0.9740286,101.0984391,-6.26243094,-36.05051736
0.18000000000000002,18,-0.07400000000000001,-0.982,0.218,-1.2605076000000002,2.2345362,-1.0886202,101.08697994,-6.1994055600000015,-36.02186946
0.19,19,-0.073,-0.985,0.214,-1.0313244,2.4064236,-1.2605076000000002,101.07552078,-6.19367598,-35.99895114
0.2,20,-0.078,-0.988,0.21,-1.0313244,3.0939732,-1.5469866,101.05833204,-6.1879464,-35.96457366
0.21000000000000002,21,-0.093,-0.992,0.206,-1.0886202,3.8388186,-1.8907613999999997,101.04114330000002,-6.17648724,-35.9244666
0.22,22,-0.106,-0.995,0.21,-1.432395,4.8128472,-2.5210152000000003,101.01822498,-6.1592985,-35.87290038
0.23,23,-0.112,-0.993,0.209,-1.6042823999999998,6.016058999999999,-3.380452200000001,100.99530666,-6.14210976,-35.80414542
0.24000000000000002,24,-0.117,-0.992,0.204,-1.7188740000000002,7.2192707999999985,-4.4117766,100.96665876,-6.113461859999999,-35.72966088
0.25,25,-0.119,-0.992,0.204,-1.6615782,8.479778399999999,-5.0993262,100.93801086,-6.079084379999999,-35.63798759999999
0.26,26,-0.114,-0.995,0.201,-1.4896908000000002,9.568398599999998,-5.9014674000000005,100.90936295999998,-6.0447069,-35.52912558
0.27,27,-0.11,-1.002,0.2,-1.8334656000000005,10.1413566,-6.8182002000000015,100.87498548,-5.99887026,-35.42026356
0.28,28,-0.111,-1.002,0.193,-2.0626488000000003,10.4851314,-7.6776372,100.83487842,-5.9473040400000015,-35.30567196
0.29000000000000004,29,-0.115,-1.008,0.192,-2.0053530000000004,10.7143146,-8.479778399999999,100.80050094,-5.89000824,-35.18535078
0.3,30,-0.119,-1.005,0.191,-2.1772404,11.0580894,-9.224623800000002,100.76612346,-5.82125328,-35.05930002
0.31,31,-0.123,-0.996,0.188,-1.9480572,11.172681,-9.969469199999999,100.73174598,-5.746768739999999,-34.933249260000004
0.32,32,-0.122,-0.987,0.189,-2.1199446,10.886202,-10.8289062,100.6973685,-5.66655462,-34.8071985
0.33,33,-0.12,-0.978,0.192,-2.1199446,10.4278356,-11.516455800000001,100.65726144,-5.58061092,-34.68114774
0.34,34,-0.115,-0.972,0.193,-2.3491278,9.969469199999999,-11.917526400000002,100.62288396,-5.48320806,-34.560826559999995
0.35000000000000003,35,-0.112,-0.971,0.18600000000000005,-2.3491278,9.5111028,-12.3758928,100.5827769,-5.38007562,-34.44623496
0.36000000000000004,36,-0.109,-0.97,0.183,-2.0626488000000003,9.224623800000002,-12.9488508,100.54839942,-5.27694318,-34.33164336
0.37,37,-0.108,-0.971,0.183,-1.6615782,9.167328,-13.5791046,100.51975152,-5.16235158,-34.22278134
0.38,38,-0.108,-0.971,0.183,-1.2032118,9.2819196,-14.266654199999998,100.49110362000002,-5.04775998,-34.10246016
0.39,39,-0.107,-0.973,0.181,-0.6302538000000001,8.5370742,-14.7823164,100.47391488,-4.921709219999999,-33.99359814
0.4,40,-0.106,-0.974,0.181,-0.3437748,7.8495246,-15.2979786,100.46245572,-4.784199299999999,-33.8904657
0.41000000000000003,41,-0.104,-0.975,0.182,0.286479,7.7349330000000025,-15.813640800000002,100.45672614,-4.64668938,-33.787333260000004
0.42000000000000004,42,-0.105,-0.975,0.181,0.7448454000000001,8.250595200000001,-16.558486199999994,100.45099656,-4.50344988,-33.67274166
0.43,43,-0.104,-0.969,0.18600000000000005,0.8594370000000001,8.9954406,-17.589810600000003,100.44526698,-4.3544808,-33.55242048
0.44,44,-0.102,-0.964,0.188,1.2032118,9.740286,-18.5638392,100.45099656,-4.19405256,-33.42636972
0.45,45,-0.098,-0.963,0.187,1.8334656000000005,9.568398599999998,-19.0222056,100.45672614,-4.02789474,-33.294589380000005
0.46,46,-0.09,-0.967,0.187,2.3491278,8.7089616,-19.194093,100.4681853,-3.85600734,-33.1742682
0.47000000000000003,47,-0.075,-0.971,0.192,2.6929026,7.906820400000001,-19.1367972,100.49110362000002,-3.68411994,-33.06540618
0.48000000000000004,48,-0.059,-0.975,0.19,2.9793816000000004,6.417129599999999,-19.0222056,100.50829236,-3.5122325400000003,-32.968003319999994
0.49,49,-0.045,-0.977,0.189,3.2658606,4.8128472,-19.0222056,100.53694026,-3.33461556,-32.88205962
0.5,50,-0.04,-0.985,0.189,3.8388186,3.2658606,-19.2513888,100.57131774,-3.151269,-32.81903423999999
0.51,51,-0.042,-0.99,0.19,3.9534102,1.7188740000000002,-19.6524594,100.6114248,-2.96219286,-32.76173844
0.52,52,-0.043,-0.989,0.191,4.010706000000001,0.6875496,-20.168121600000006,100.64580228,-2.76738714,-32.7159018
0.53,53,-0.038,-0.987,0.193,4.297185,-0.057295800000000015,-20.6837838,100.68590934,-2.5611222600000003,-32.68152432
0.54,54,-0.029,-0.985,0.194,4.297185,-1.4896908000000002,-21.027558600000006,100.7260164,-2.35485738,-32.65287642
0.55,55,-0.018000000000000002,-0.985,0.203,4.010706000000001,-3.2658606,-21.4286292,100.77185304,-2.13713334,-32.647146840000005
0.56,56,-0.004,-0.989,0.209,3.8388186,-4.297185,-22.058883,100.80623052,-1.91367972,-32.647146840000005
0.5700000000000001,57,0.0,-0.993,0.208,3.8388186,-5.0993262,-22.5172494,100.84633758,-1.6787669399999998,-32.65287642
0.5800000000000001,58,-0.002,-0.997,0.204,4.010706000000001,-5.3285094000000015,-22.86102420000001,100.88644464,-1.44385416,-32.658606000000006
0.59,59,-0.006,-1.0,0.208,4.010706000000001,-5.0993262,-23.2620948,100.93228128,-1.2032117999999998,-32.66433558
0.6,60,-0.006999999999999999,-0.999,0.209,3.7815227999999994,-4.583664,-23.777757,100.96665876,-0.96256944,-32.66433558
0.61,61,-0.01,-0.997,0.21,3.4950437999999995,-4.1252976000000015,-24.2934192,101.00676582,-0.7161975,-32.65287642
0.62,62,-0.009000000000000001,-0.993,0.212,3.3231564,-3.7815227999999994,-24.8663772,101.04114330000002,-0.46409598,-32.641417260000004
0.63,63,-0.006,-0.996,0.213,3.5523396000000003,-2.9793816000000004,-25.4393352,101.07552078,-0.20626488,-32.62422852
0.64,64,0.002,-0.997,0.209,3.4950437999999995,-1.3178034,-26.356068,101.10989826,0.04583664,-32.58412146
0.65,65,0.008,-0.996,0.204,3.6669312000000014,0.4010706,-27.2728008,101.14427573999998,0.30939732,-32.52682566
0.66,66,0.011,-0.991,0.201,3.6096354,1.3178034,-28.1322378,101.1843828,0.5844171599999999,-32.4580707
0.67,67,0.013,-0.985,0.201,3.8388186,1.6042823999999998,-28.5333084,101.22448986,0.8594370000000001,-32.38358616
0.68,68,0.019,-0.987,0.196,4.0680017999999984,1.8907613999999997,-29.1062664,101.25886734,1.14018642,-32.30910162
0.6900000000000001,69,0.029,-0.991,0.192,4.2398892,1.9480572,-29.67922440000001,101.30470398,1.42666542,-32.23461708000001
0.7000000000000001,70,0.041,-0.994,0.191,4.2398892,1.8907613999999997,-30.3094782,101.35054062,1.71314442,-32.15440296
0.7100000000000001,71,0.055,-0.996,0.194,4.1825934,1.7188740000000002,-30.8824362,101.39637726,2.01108258,-32.07418884
0.72,72,0.067,-0.99,0.2,4.1825934,1.7188740000000002,-31.741873200000004,101.43648432,2.3204799,-31.99397472
0.73,73,0.076,-0.985,0.195,4.9274388,1.3750992,-32.6013102,101.48805054,2.6413363800000003,-31.913760600000003
0.74,74,0.077,-0.985,0.19,5.2712136,0.4583664000000001,-33.231564,101.54534634,2.96219286,-31.84500564
0.75,75,0.076,-0.985,0.191,5.9014674000000005,-0.1718874,-33.8618178,101.60837172,3.2945085,-31.776250680000004
0.76,76,0.068,-0.982,0.18600000000000005,6.589017,-0.6302538000000001,-34.60666320000001,101.67712668,3.63255372,-31.70749572
0.77,77,0.062,-0.981,0.184,6.990087599999999,-1.2605076000000002,-35.52339600000001,101.75161122,3.97632852,-31.65019992
0.78,78,0.055,-0.976,0.184,7.2192707999999985,-2.1772404,-36.4401288,101.82609576,4.33729206,-31.592904120000004
0.79,79,0.062,-0.972,0.188,7.8495246,-2.578311,-37.52874900000001,101.90630988,4.70971476,-31.541337899999995
0.8,80,0.079,-0.967,0.194,8.59437,-1.4896908000000002,-39.0757356,101.99798316,5.0935966200000005,-31.47258294
0.81,81,0.1,-0.962,0.195,9.8548776,-0.6875496,-41.0810886,102.10684518,5.4946672199999975,-31.39236882
0.8200000000000001,82,0.106,-0.959,0.193,10.599723,-0.9740286,-42.7426668,102.22143678,5.9129265600000025,-31.30642512
0.8300000000000001,83,0.11,-0.956,0.192,12.3758928,-1.3750992,-44.34694920000001,102.35321712,6.34264506,-31.226211
0.8400000000000001,84,0.096,-0.959,0.182,14.037471,-3.5523396000000003,-46.065823200000004,102.50218620000001,6.8010114600000025,-31.15745604
0.85,85,0.086,-0.95,0.184,15.2979786,-5.042030400000002,-47.8992888,102.66261444,7.2765666,-31.10016024
0.86,86,0.084,-0.946,0.189,17.0168526,-6.1879464,-49.560867,102.845961,7.7750400599999985,-31.04859402
0.87,87,0.09,-0.945,0.195,17.475219,-8.078707799999998,-51.2224452,103.02930756,8.29070226,-31.00848696
0.88,88,0.107,-0.945,0.206,18.2773602,-10.026765,-52.9413192,103.21265412,8.82928278,-30.97983906
0.89,89,0.127,-0.944,0.219,19.1367972,-12.2040054,-55.2331512,103.41318942,9.39078162,-30.9683799
0.9,90,0.149,-0.943,0.225,20.2254174,-13.178034,-57.1812084,103.6194543,9.98092836,-30.95692074
0.91,91,0.165,-0.948,0.231,21.027558600000006,-13.980175199999998,-59.186561399999995,103.83717834,10.58826384,-30.94546158
0.92,92,0.173,-0.958,0.235,21.829699800000004,-14.7250206,-61.30650600000001,104.06063196,11.21851764,-30.93400242
0.93,93,0.168,-0.974,0.229,22.631841,-15.469866,-62.96808420000001,104.28981516000002,11.86596018,-30.922543260000005
0.9400000000000001,94,0.154,-0.984,0.232,23.0902074,-16.157415599999997,-63.9994086,104.53045752,12.52486188,-30.91681368
0.9500000000000001,95,0.135,-0.99,0.211,23.204799,-16.042824000000003,-64.8015498,104.77109988,13.19522274,-30.89962494
0.9600000000000001,96,0.11,-0.986,0.199,23.0902074,-15.9282324,-65.030733,105.00601266,13.8655836,-30.8824362
0.97,97,0.081,-0.981,0.212,23.8923486,-15.3552744,-65.317212,105.25811417999998,14.53594446,-30.84805872
0.98,98,0.07200000000000001,-0.975,0.22,24.0069402,-14.495837400000001,-66.00476160000001,105.51021570000002,15.19484616,-30.80795166
0.99,99,0.087,-0.955,0.236,23.9496444,-13.407217200000002,-66.86419860000001,105.7680468,15.876666179999996,-30.75065586
1.0,100,0.121,-0.936,0.254,24.1788276,-11.516455800000001,-67.7236356,106.03733706,16.5584862,-30.66471216
1.01,101,0.172,-0.921,0.265,24.0069402,-9.224623800000002,-68.58307260000001,106.31808648,17.24030622,-30.55585014
1.02,102,0.2,-0.915,0.273,24.694489800000003,-8.7662574,-69.041439,106.60456548000002,17.92212624,-30.42979938
1.03,103,0.21600000000000005,-0.916,0.246,25.1528562,-9.2819196,-68.9268474,106.89104447999998,18.60394626,-30.3094782
1.04,104,0.238,-0.922,0.238,24.8090814,-10.6570188,-68.182002,107.18325306,19.28576628,-30.20061618
1.05,105,0.245,-0.928,0.259,25.0955604,-11.45916,-66.86419860000001,107.46973206,19.95612714,-30.10321332
1.06,106,0.231,-0.926,0.285,25.84040580000001,-10.4278356,-66.176649,107.77339979999999,20.62075842,-29.98862172
1.07,107,0.214,-0.923,0.297,25.84040580000001,-8.479778399999999,-66.69231119999999,108.08279712,21.27393054,-29.84538222
1.08,108,0.218,-0.924,0.3,25.9549974,-5.0993262,-67.66633979999999,108.41511276,21.92137308,-29.66776524
1.09,109,0.243,-0.915,0.313,25.8977016,0.572958,-69.38521379999999,108.77034672000002,22.5745452,-29.4213933
1.1,110,0.28800000000000003,-0.909,0.313,26.9863218,5.5003968,-70.87490460000002,109.15995816,23.22198774,-29.1062664
1.11,111,0.338,-0.903,0.267,28.1322378,7.7922288,-71.33327100000002,109.58394708,23.86370070000001,-28.76822118
1.12,112,0.38,-0.878,0.251,28.1322378,7.8495246,-70.6457214,110.00793600000002,24.4939545,-28.4187168
1.1300000000000001,113,0.407,-0.8540000000000001,0.259,28.991674800000002,5.958763200000001,-69.55710119999999,110.43192492,25.11847872,-28.09213074
1.1400000000000001,114,0.412,-0.8420000000000001,0.247,30.5959572,4.8128472,-68.46848100000001,110.87883216,25.73727336,-27.77127426
1.1500000000000001,115,0.404,-0.8320000000000001,0.254,32.085648000000006,3.8961144,-68.01011460000001,111.34292814,26.356068,-27.45614736
1.1600000000000001,116,0.388,-0.826,0.28,32.486718599999996,3.724227,-68.35388940000001,111.81848327999998,26.96913306,-27.1295613
1.17,117,0.371,-0.821,0.304,32.7731976,4.7555514,-69.15603060000001,112.30549758,27.5879277,-26.7857865
1.18,118,0.362,-0.805,0.297,32.945085,6.4744254,-70.07276340000001,112.80970062,28.20099276,-26.41336380000001
1.19,119,0.383,-0.79,0.276,32.257535399999995,8.193299399999999,-70.87490460000002,113.33109240000002,28.81405782,-26.00656362
1.2,120,0.406,-0.774,0.268,32.7731976,8.880849000000003,-71.1613836,113.86394334000002,29.42712288,-25.5825747
1.21,121,0.4320000000000001,-0.752,0.28300000000000003,34.7785506,9.797581800000001,-70.9894962,114.43117176,30.02872878,-25.14139704
1.22,122,0.478,-0.728,0.295,35.4088044,11.172681,-71.04679200000002,115.02704808,30.61887552,-24.67730106
1.23,123,0.517,-0.7020000000000001,0.272,36.38283300000001,12.2040054,-71.5624542,115.63438356,31.20902226,-24.19601634
1.24,124,0.5379999999999999,-0.6829999999999999,0.289,37.81522800000001,12.1467096,-71.9635248,116.28182610000002,31.799169,-23.6918133
1.25,125,0.555,-0.672,0.299,37.1849742,11.4018642,-71.2759752,116.91780948,32.37785658,-23.19333984
1.26,126,0.5479999999999999,-0.6629999999999999,0.293,38.1590028,10.1413566,-70.18735500000001,117.57098159999998,32.945085,-22.70059596
1.27,127,0.534,-0.6759999999999999,0.307,40.2216516,9.3965112,-69.9581718,118.24707204,33.518043,-22.20785208
1.28,128,0.529,-0.6779999999999999,0.344,40.2789474,10.6570188,-71.33327100000002,118.9460808,34.08527142,-21.68073072
1.29,129,0.5429999999999999,-0.6629999999999999,0.392,41.9405256,13.2926256,-73.73969459999998,119.69665578,34.658229420000005,-21.10204314
1.3,130,0.564,-0.6509999999999999,0.422,44.8626114,15.2406828,-75.9742308,120.51025614,35.23118742,-20.47178934
1.31,131,0.595,-0.6609999999999999,0.411,44.1750618,16.959556799999998,-77.0055552,121.34104524,35.79268626,-19.80715806
1.32,132,0.596,-0.6779999999999999,0.414,41.4248634,15.5844576,-75.2866812,122.14318644,36.34272594,-19.14825636
1.33,133,0.602,-0.6809999999999999,0.421,39.6486936,14.0947668,-71.79163740000001,122.91667974,36.869847299999996,-18.52373214
1.34,134,0.644,-0.669,0.399,38.10170700000001,14.2093584,-69.21332640000001,123.67871388,37.36259118,-17.89347834
1.35,135,0.688,-0.624,0.398,36.669312,14.5531332,-69.21332640000001,124.44074802,37.84387589999999,-17.251765380000002
1.36,136,0.7290000000000001,-0.565,0.417,37.81522800000001,15.813640800000002,-70.9894962,125.24288922,38.330890200000006,-16.56994536
1.37,137,0.7609999999999999,-0.541,0.435,40.164355799999996,16.042824000000003,-72.5364828,126.08513748,38.8179045,-15.86520702
1.3800000000000001,138,0.769,-0.546,0.435,42.1697088,15.469866,-73.45321560000002,126.9674928,39.31637796,-15.13755036
1.3900000000000001,139,0.75,-0.542,0.431,42.28430039999999,14.381245800000002,-74.65642740000001,127.86703686,39.81485142,-14.39843454
1.4000000000000001,140,0.7440000000000001,-0.518,0.4370000000000001,43.48751220000001,14.8396122,-76.2607098,128.8009584,40.31332488,-13.63067082
1.4100000000000001,141,0.7390000000000001,-0.494,0.455,46.5241896,16.501190400000002,-78.60983759999998,129.80363490000002,40.81179834,-12.8056113
1.42,142,0.716,-0.471,0.453,46.4668938,17.3606274,-81.1308528,130.84641846,41.30454222,-11.934715140000002
1.43,143,0.69,-0.441,0.448,42.7426668,17.589810600000003,-82.39136040000002,131.87774285999998,41.80874526,-11.0294415
1.44,144,0.6809999999999999,-0.415,0.445,41.7113424,15.870936600000002,-81.7611066,132.8976081,42.29575956,-10.12989744
1.45,145,0.7120000000000001,-0.423,0.46,42.62807520000001,13.2926256,-80.90166959999998,133.9289325,42.78277386,-9.24181254
1.46,146,0.7290000000000001,-0.417,0.519,43.6021038,11.172681,-81.1308528,134.97171606,43.27551774,-8.353727639999999
1.47,147,0.7390000000000001,-0.407,0.544,45.9512316,11.0007936,-82.7351352,136.07179542,43.76826162,-7.431265259999999
1.48,148,0.7040000000000001,-0.425,0.5670000000000001,49.1025006,11.2872726,-84.68319240000002,137.24635932,44.261005499999996,-6.462966239999997
1.49,149,0.6609999999999999,-0.419,0.5770000000000001,44.919907200000004,12.7769634,-85.77181259999998,138.40373448,44.73083106,-5.44883058
1.5,150,0.639,-0.3720000000000001,0.596,43.6021038,15.756345000000001,-85.65722099999998,139.59548712,45.16627914,-4.39458786
1.51,151,0.65,-0.28,0.635,42.28430039999999,20.3973048,-87.37609499999998,140.82734682,45.56162016,-3.25440144
1.52,152,0.6940000000000001,-0.211,0.6679999999999999,41.6540466,22.631841,-89.7252228,142.10504315999995,45.93404286,-2.05691922
1.53,153,0.782,-0.235,0.636,40.5654264,17.18874,-87.83446140000002,143.35982117999995,46.3236543,-0.8880849000000001
1.54,154,0.88,-0.289,0.626,37.2995658,10.1986524,-82.8497268,144.50573718,46.71899532,0.16042824
1.55,155,0.949,-0.304,0.5920000000000001,35.17962120000001,5.0993262,-77.5785132,145.57143906,47.12006592,1.13445684
1.56,156,0.955,-0.28300000000000003,0.5429999999999999,38.67466500000001,0.9167328,-74.42724419999998,146.64287052,47.51540694,2.05691922
1.57,157,0.934,-0.267,0.585,42.7999626,0.7448454000000001,-72.76566600000002,147.75440903999996,47.8992888,2.9793816000000004
1.58,158,0.938,-0.222,0.5820000000000001,41.7113424,3.4377480000000005,-71.21867940000001,148.88313630000005,48.24879317999999,3.9190327200000006
1.59,159,0.941,-0.174,0.614,39.7059894,4.9847345999999995,-68.2965936,149.97748608,48.54673134,4.84722468
1.6,160,0.975,-0.152,0.637,34.2055926,4.9274388,-61.7075766,150.95724426,48.79883286,5.6952025200000005
1.61,161,1.021,-0.139,0.672,30.4240698,2.9220857999999996,-57.06661679999999,151.85678832000005,49.04520480000001,6.48015498
1.62,162,1.036,-0.117,0.644,31.741873200000004,0.3437748,-56.608250399999996,152.76206195999995,49.29730632,7.25364828
1.6300000000000001,163,1.002,-0.134,0.574,35.52339600000001,-1.8907613999999997,-58.2125328,153.73609056,49.58378532,8.0500599
1.6400000000000001,164,0.954,-0.163,0.589,39.19032720000001,-6.130650599999999,-58.67089920000001,154.72730789999997,49.88745306,8.83501236
1.6500000000000001,165,0.879,-0.2,0.597,45.4928652,-10.7716104,-57.983349600000004,155.77582103999995,50.22549828,9.59131692
1.6600000000000001,166,0.809,-0.237,0.5760000000000001,49.4462754,-12.7769634,-56.2644756,156.8472525,50.5635435,10.33043274
1.6700000000000002,167,0.8320000000000001,-0.182,0.597,47.4409224,-8.59437,-54.889376399999996,157.91295438,50.84429292,11.0867373
1.68,168,0.885,-0.111,0.615,45.83664,-2.4064236,-53.7434604,159.00157458,51.06774654,11.88314892
1.69,169,0.918,-0.04,0.637,41.8832298,0.7448454000000001,-51.1651494,160.02716940000005,51.23390436,12.65664222
1.7,170,0.958,0.013,0.647,41.0810886,2.2345362,-48.0711762,161.02411632,51.3656847,13.39575804
1.71,171,0.951,0.014,0.551,45.83664,1.6615782,-45.6074568,162.03825197999996,51.48600588000001,14.10049638
1.72,172,0.845,-0.044,0.498,53.22779820000001,-6.875496000000001,-43.1437374,163.08103554000004,51.67508202000001,14.74220934
1.73,173,0.794,-0.099,0.481,59.58763199999999,-13.120738199999998,-41.596750799999995,164.15819658,51.92145396,15.33808566
1.74,174,0.784,-0.154,0.441,70.93220040000001,-14.8396122,-40.7946096,165.34421964,52.16209632,15.93396198
1.75,175,0.727,-0.175,0.568,68.98414319999999,-11.4018642,-40.90920120000001,166.53597227999995,52.3683612,16.54702704
1.76,176,0.731,-0.103,0.647,60.10329419999999,-1.4896908000000002,-38.5027776,167.63032206,52.46003448,17.16582168
1.77,177,0.825,-0.053,0.727,54.6601932,7.2765666,-34.3201842,168.64445772000005,52.4543049,17.74450926
1.78,178,0.932,-0.012,0.779,51.9672906,12.7196676,-29.9084076,169.595568,52.37409078,18.27163062
1.79,179,1.003,-0.014,0.7979999999999999,49.2170922,15.2406828,-27.1009134,170.46646416,52.26522876,18.75291534
1.8,180,0.993,-0.013,0.69,49.5035712,14.4385416,-26.1268848,171.33163073999995,52.16209632,19.21128174
1.81,181,0.907,-0.046,0.605,53.8007562,8.9381448,-27.501984000000004,172.24263396,52.10480051999999,19.67537772
1.82,182,0.8540000000000001,-0.056,0.662,53.7434604,3.2658606,-30.4240698,173.18228508,52.10480051999999,20.17958076
1.83,183,0.851,-0.042,0.733,51.4516284,0.8021411999999999,-32.2002396,174.12766577999997,52.12198926,20.70670212
1.84,184,0.856,-0.024,0.825,40.2789474,7.2765666,-33.74722620000001,174.97564362,52.07615262,21.26820096
1.85,185,0.8909999999999999,-0.008,0.8809999999999999,29.9657034,13.6364004,-31.51269000000001,175.69184112,51.96156102,21.78959274
1.86,186,0.93,-0.024,0.897,21.6005166,19.0222056,-28.5906042,176.28198786000004,51.78967362,22.26514788
1.87,187,0.925,-0.03,0.8490000000000001,13.750992000000002,21.4286292,-25.3820394,176.74608383999995,51.59486790000001,22.68340722
1.8800000000000001,188,0.894,-0.058,0.79,7.8495246,22.058883,-21.6005166,177.09558822,51.37714386,23.03864118
1.8900000000000001,189,0.831,-0.069,0.696,5.72958,19.0222056,-17.9335854,177.38206722,51.19952688,23.33084976
1.9000000000000001,190,0.782,-0.086,0.636,9.2819196,10.0840608,-15.813640800000002,177.66854622,51.10212402000001,23.58295128
1.9100000000000001,191,0.743,-0.073,0.701,12.5477802,0.3437748,-15.870936600000002,177.99513227999995,51.10212402000001,23.835052800000003
1.9200000000000002,192,0.792,-0.019,0.747,14.495837400000001,-4.4117766,-17.5325148,178.3618254,51.15369024,24.11580222
1.93,193,0.848,-0.024,0.8009999999999999,14.152062599999999,-4.3544808,-18.2200644,178.72851852,51.18233814,24.4080108
1.94,194,0.861,-0.019,0.838,7.6203414,-1.0313244,-17.0168526,179.0207271,51.19952688,24.67730106
1.95,195,0.846,-0.017,0.841,0.4010706,0.572958,-14.266654199999998,179.19834408,51.1937973,24.90648426000001
1.96,196,0.8270000000000001,-0.005,0.7659999999999999,-4.4117766,0.3437748,-11.3445684,179.29574694000004,51.1937973,25.08410124000001
1.97,197,0.809,-0.029,0.645,-4.6982556,-0.1718874,-8.4224826,179.35304274,51.1937973,25.21588158
1.98,198,0.794,-0.047,0.589,-4.4117766,-1.6615782,-6.8182002000000015,179.35304274,51.23390436,25.2960957
1.99,199,0.773,-0.006999999999999999,0.599,-4.3544808,-4.6982556,-7.3911582,179.40460896,51.279741,25.41641688
2.0,200,0.757,0.032,0.552,0.6875496,-7.5630456000000015,-9.0527364,179.52493013999995,51.35995512000001,25.56538596
2.01,201,0.757,0.054000000000000006,0.5670000000000001,0.8594370000000001,-8.59437,-9.8548776,179.66244006,51.44589881999999,25.7258142
2.02,202,0.7909999999999999,0.099,0.632,-2.6356068,-9.2819196,-11.3445684,179.77703165999995,51.5375721,25.90916076
2.03,203,0.8390000000000001,0.113,0.648,-3.8961144,-10.1413566,-10.9434978,179.93745990000005,51.64070454,26.13261438
2.04,204,0.853,0.093,0.654,-4.4117766,-12.032117999999999,-8.880849000000003,-179.98902612,51.761025720000006,26.27585388
2.05,205,0.853,0.069,0.6659999999999999,-5.042030400000002,-13.5791046,-6.417129599999999,-179.94891906,51.89853564,26.384715900000003
2.0599999999999996,206,0.858,0.031,0.645,-5.6149884000000005,-14.7250206,-3.2658606,-179.96037822,52.04177514000001,26.447741279999995
2.07,207,0.862,0.026,0.652,-8.136003599999999,-18.449247600000003,0.0,179.96037822,52.2251217,26.45347086
2.0799999999999996,208,0.853,0.042,0.618,-6.2452422,-24.9809688,3.4950437999999995,179.88016409999997,52.48295279999999,26.41909338
2.09,209,0.85,0.049,0.5820000000000001,-5.0993262,-28.5906042,6.0733548,179.75984291999995,52.76943180000001,26.33314968
2.0999999999999996,210,0.841,0.07,0.578,-5.0993262,-32.085648000000006,8.479778399999999,179.61087384,53.0845587,26.20136934000001
2.11,211,0.855,0.085,0.597,-3.5523396000000003,-34.091001,9.797581800000001,179.45617518,53.42260391999999,26.052400259999995
2.1199999999999997,212,0.884,0.087,0.613,-2.1199446,-35.2942128,11.229976800000001,179.29574694000004,53.7721083,25.87478328000001
2.13,213,0.901,0.08199999999999999,0.634,-1.7188740000000002,-35.8671708,12.0894138,179.14677786,54.12734226,25.69716630000001
2.1399999999999997,214,0.8909999999999999,0.064,0.617,-1.3178034,-36.5547204,12.7769634,178.96916088,54.4883058,25.48517184
2.15,215,0.871,0.046,0.586,-2.3491278,-36.4974246,12.891555,178.77435516,54.84926934,25.2674478
2.1599999999999997,216,0.8490000000000001,0.041,0.564,-3.0366774,-37.0703826,12.834259199999998,178.56809028,55.21023288,25.04399418
2.17,217,0.8420000000000001,0.021,0.541,-1.2605076000000002,-38.7319608,13.407217200000002,178.36755498,55.59411474,24.8090814
2.1799999999999997,218,0.8240000000000001,0.019,0.537,-2.578311,-40.2789474,14.266654199999998,178.14983094,55.98945576,24.56843904
2.19,219,0.831,0.029,0.5720000000000001,-2.4637194,-42.7426668,15.3552744,177.89772942,56.407715100000004,24.28768962
2.1999999999999997,220,0.8420000000000001,0.031,0.586,-2.2345362,-43.3156248,16.902261,177.61697999999996,56.83170402,23.97256272000001
2.21,221,0.865,0.032,0.565,-3.6669312000000014,-42.62807520000001,18.449247600000003,177.29039394,57.24423378,23.62305834
2.2199999999999998,222,0.883,0.029,0.5539999999999999,-4.297185,-42.05511720000001,19.480572,176.93515998,57.65103395999999,23.24490606
2.23,223,0.899,0.018000000000000002,0.5329999999999999,-4.5263682,-41.539455,20.2827132,176.56846686,58.05783414,22.85529462
2.2399999999999998,224,0.882,0.004,0.541,-4.3544808,-39.7059894,20.626488,176.17312584,58.43598641999999,22.43703528
2.25,225,0.862,-0.011,0.53,-4.8701430000000006,-37.9871154,20.6837838,175.76632566,58.796949960000006,22.01304636
2.26,226,0.847,-0.023,0.514,-6.2452422,-37.5860448,20.2254174,175.34233674,59.15791349999999,21.58905744
2.27,227,0.8440000000000001,-0.034,0.4970000000000001,-6.760904399999999,-38.5027776,19.5378678,174.91261823999997,59.52460662,21.16506852
2.28,228,0.868,-0.037000000000000005,0.503,-8.651665800000002,-37.52874900000001,18.5065434,174.48289974,59.87984058000001,20.75253876
2.29,229,0.914,-0.021,0.503,-11.229976800000001,-37.3568616,17.8762896,174.01880376,60.22934496000001,20.34573858
2.3,230,0.944,-0.018000000000000002,0.51,-11.4018642,-39.7059894,17.8189938,173.53751904,60.60749724,19.92174966
2.31,231,0.962,-0.025,0.503,-12.2040054,-41.539455,18.048177,173.03331599999999,60.99710868000001,19.480572
2.32,232,0.957,-0.041,0.471,-12.7196676,-41.4248634,18.5065434,172.50046505999995,61.38099053999999,19.01647602
2.3299999999999996,233,0.935,-0.052000000000000005,0.444,-12.318597,-41.1383844,18.334656,171.96761411999995,61.77060198,18.54092088
2.34,234,0.909,-0.061,0.419,-11.0580894,-41.76863820000001,17.131444199999994,171.45195192,62.16021342000001,18.0768249
2.3499999999999996,235,0.89,-0.07,0.408,-9.453807000000001,-42.398892,15.5844576,170.96493762,62.55555444,17.62991766
2.36,236,0.877,-0.078,0.399,-8.8235532,-41.19568020000001,14.152062599999999,170.50657122,62.93370672,17.20592874
2.3699999999999997,237,0.861,-0.078,0.392,-8.9381448,-39.247623,12.5477802,170.06539356,63.30039984,16.81058772
2.38,238,0.872,-0.083,0.37,-8.5370742,-36.7839036,10.8289062,169.65859338,63.6556338,16.4438946
2.3899999999999997,239,0.8740000000000001,-0.079,0.378,-7.5057497999999985,-36.955791,9.568398599999998,169.27471152,63.9994086,16.1001198
2.4,240,0.88,-0.08800000000000001,0.375,-6.1879464,-39.0757356,8.307891,168.91947756,64.36610171999999,15.76780416
2.4099999999999997,241,0.902,-0.095,0.3670000000000001,-5.042030400000002,-40.6227222,7.6203414,168.57570276,64.744254,15.435488519999998
2.42,242,0.919,-0.101,0.3720000000000001,-4.297185,-42.5134836,7.6776372,168.22046880000005,65.14532460000001,15.08598414
2.4299999999999997,243,0.94,-0.102,0.371,-3.724227,-43.8885828,8.3651868,167.82512778,65.56931352000001,14.69064312
2.44,244,0.921,-0.107,0.35600000000000004,-2.6356068,-44.117766,9.5111028,167.4183276,65.97611370000001,14.266654199999998
2.4499999999999997,245,0.902,-0.114,0.334,-1.8907613999999997,-42.91455420000001,10.1986524,166.99433868,66.37145472,13.81401738
2.46,246,0.8590000000000001,-0.124,0.326,-1.5469866,-40.737313799999995,10.7716104,166.55316102,66.73814784,13.3499214
2.4699999999999998,247,0.804,-0.121,0.312,-2.578311,-37.0130868,10.5424272,166.11198336,67.07619306000001,12.891555
2.48,248,0.795,-0.114,0.303,-3.724227,-30.93973200000001,9.453807000000001,165.68799443999995,67.35694248,12.473295660000002
2.4899999999999998,249,0.794,-0.105,0.29600000000000004,-3.724227,-25.8977016,8.3651868,165.32130132,67.58612568,12.11233212
2.5,250,0.8,-0.093,0.29,-3.8388186,-21.7151082,7.2765666,164.99471526,67.77520182,11.79720522
2.51,251,0.816,-0.083,0.3,-4.010706000000001,-17.9908812,6.3598338,164.70250668,67.93563006,11.52218538
2.52,252,0.846,-0.081,0.301,-3.8388186,-14.7823164,5.7868758000000025,164.438946,68.06168081999999,11.27581344
2.53,253,0.872,-0.08900000000000001,0.304,-2.3491278,-10.886202,5.443101,164.22122196,68.17627242,11.06381898
2.54,254,0.901,-0.099,0.298,-0.572958,-7.3911582,4.6409598,164.05506413999996,68.23356822000001,10.89766116
2.55,255,0.919,-0.121,0.299,0.4583664000000001,-5.6722842,3.6669312000000014,163.94047254,68.27367527999999,10.76015124
2.56,256,0.93,-0.122,0.305,0.4583664000000001,-4.9274388,2.1199446,163.86025841999995,68.31951192,10.67420754
2.57,257,0.944,-0.121,0.32,0.6875496,-5.443101,0.3437748,163.82588094,68.37107814,10.6283709
2.5799999999999996,258,0.953,-0.117,0.33,0.572958,-7.2765666,-1.0886202,163.79150346,68.47421058,10.58253426
2.59,259,0.965,-0.11,0.343,0.7448454000000001,-8.7089616,-2.4064236,163.80296262,68.56588386000001,10.58826384
2.5999999999999996,260,0.975,-0.103,0.35600000000000004,1.3178034,-9.8548776,-3.7815227999999994,163.84879926000005,68.6690163,10.62264132
2.61,261,0.987,-0.103,0.36,2.0053530000000004,-11.45916,-5.1566220000000005,163.92901338,68.79506706,10.679937120000002
2.6199999999999997,262,0.986,-0.1,0.359,2.8074942000000003,-13.178034,-6.1879464,164.02641624,68.93830656,10.75442166
2.63,263,0.978,-0.096,0.36,3.3231564,-14.266654199999998,-6.9327918,164.15819658,69.0987348,10.8575541
2.6399999999999997,264,0.967,-0.092,0.34700000000000003,3.8388186,-14.8396122,-7.3911582,164.28997692000004,69.25916304,10.95495696
2.65,265,0.951,-0.08800000000000001,0.33,4.297185,-15.3552744,-7.5057497999999985,164.43321642,69.42532086,11.0580894
2.6599999999999997,266,0.943,-0.08,0.329,4.1252976000000015,-14.9542038,-7.333862400000001,164.57072634,69.59147868,11.15549226
2.67,267,0.936,-0.067,0.33,4.3544808,-13.8082878,-6.875496000000001,164.70823625999995,69.74044776000001,11.25289512
2.6799999999999997,268,0.92,-0.053,0.332,5.0993262,-12.3758928,-6.3025379999999975,164.90304197999995,69.88368726,11.396134620000002
2.69,269,0.911,-0.043,0.328,5.72958,-10.886202,-5.6149884000000005,165.0405519,69.99827886,11.48207832
2.6999999999999997,270,0.905,-0.04,0.326,6.1879464,-8.7662574,-5.042030400000002,165.18952098,70.09568172,11.56802202
2.71,271,0.909,-0.036000000000000004,0.316,6.875496000000001,-6.417129599999999,-4.6982556,165.34421964,70.17016626,11.66542488
2.7199999999999998,272,0.918,-0.041,0.308,7.9641161999999985,-4.4117766,-4.2398892,165.51610704,70.22173248,11.75709816
2.73,273,0.933,-0.05,0.29600000000000004,8.4224826,-2.8074942000000003,-3.7815227999999994,165.73956066,70.29048744,11.89460808
2.7399999999999998,274,0.943,-0.057,0.29600000000000004,8.4224826,-1.8907613999999997,-3.4950437999999995,165.91144806,70.31340576,11.98628136
2.75,275,0.949,-0.061,0.3,7.906820400000001,-1.2032118,-3.380452200000001,166.07760588000005,70.33632408,12.07795464
2.76,276,0.959,-0.06,0.303,6.990087599999999,-0.4010706,-3.3231564,166.23803412,70.34778324,12.1753575
2.77,277,0.972,-0.058,0.305,6.130650599999999,0.1718874,-3.2658606,166.39273278000005,70.34778324,12.27276036
2.78,278,0.981,-0.055,0.307,4.8701430000000006,0.0,-3.2658606,166.6161864,70.41080862,12.44464776
2.79,279,0.979,-0.05,0.312,3.724227,-0.6302538000000001,-2.8074942000000003,166.72504842,70.42226778,12.52486188
2.8,280,0.974,-0.046,0.311,2.4637194,-1.2605076000000002,-2.291832,166.81099212,70.43945652,12.58215768
2.81,281,0.972,-0.045,0.308,1.7188740000000002,-1.0313244,-2.0053530000000004,166.87401749999995,70.45664526,12.6337239
2.82,282,0.97,-0.048,0.302,1.4896908000000002,-0.6302538000000001,-1.6615782,166.93704287999995,70.46810442,12.67956054
2.8299999999999996,283,0.964,-0.052000000000000005,0.301,1.0886202,-0.6302538000000001,-1.432395,167.17195566,70.59988476,12.89728458
2.84,284,0.959,-0.05,0.306,0.572958,-0.572958,-1.2032118,167.20633314,70.60561434,12.925932479999995
2.8499999999999996,285,0.957,-0.048,0.315,0.0,-0.057295800000000015,-1.0886202,167.24071062000004,70.61134392,12.96030996
2.86,286,0.96,-0.045,0.319,-0.572958,0.6302538000000001,-0.9740286,167.26362894000005,70.60561434,12.994687439999998
2.8699999999999997,287,0.963,-0.042,0.321,-0.8021411999999999,1.145916,-0.6875496,167.28081768,70.59415518,13.01760576
2.88,288,0.963,-0.045,0.319,-0.8021411999999999,1.0313244,-0.057295800000000015,167.64751080000005,70.7030172,13.3785693
2.8899999999999997,289,0.955,-0.047,0.317,-0.9167328,1.3178034,0.6875496,167.62459248,70.69155803999998,13.36711014
2.9,290,0.95,-0.05,0.314,-0.8021411999999999,1.7188740000000002,1.2032118,167.59594458,70.66863972,13.34419182
2.9099999999999997,291,0.947,-0.051,0.311,-0.572958,2.0626488000000003,1.6042823999999998,167.55010794,70.6457214,13.30408476
2.92,292,0.943,-0.052000000000000005,0.319,-0.4583664000000001,2.291832,1.9480572,167.50427130000003,70.61707349999998,13.25824812
2.9299999999999997,293,0.939,-0.051,0.32,-0.4010706,2.578311,2.3491278,167.56729667999997,70.61707349999998,13.31554392
2.94,294,0.941,-0.051,0.327,-0.057295800000000015,3.2658606,2.5210152000000003,167.51000088,70.57696644,13.263977700000002
2.9499999999999997,295,0.95,-0.055,0.334,-0.057295800000000015,4.0680017999999984,2.578311,167.46416424,70.53685938,13.206681900000001
2.96,296,0.961,-0.058,0.333,-0.2291832000000001,4.9274388,2.6929026,167.40686843999995,70.47956358,13.15511568
2.9699999999999998,297,0.968,-0.06,0.331,0.0,4.6982556,2.86479,167.35530222,70.42799735999998,13.10354946
2.98,298,0.972,-0.064,0.334,0.057295800000000015,4.010706000000001,3.0366774,167.35530222,70.39934946000002,13.0920903
2.9899999999999998,299,0.972,-0.066,0.339,0.2291832000000001,3.151269,3.151269,167.28654726,70.36497198,13.01760576
3.0,300,0.971,-0.069,0.337,0.1718874,2.6356068,2.9220857999999996,167.22352188,70.33059449999999,12.9488508
3.01,301,0.97,-0.068,0.335,0.11459160000000004,2.0053530000000004,2.6356068,167.16049650000005,70.30767618000002,12.88582542
3.02,302,0.967,-0.07,0.332,0.0,1.2605076000000002,2.1772404,167.10893028,70.29048744,12.82852962
3.03,303,0.963,-0.07,0.334,-0.286479,0.572958,1.7188740000000002,167.1891444,70.33059449999999,12.903014159999998
3.04,304,0.959,-0.07,0.333,-0.572958,0.1718874,1.3750992,167.14903734,70.32486492,12.8629071
3.05,305,0.957,-0.069,0.33,-0.572958,-0.1718874,1.2605076000000002,167.1032007,70.31913534,12.82280004
3.06,306,0.958,-0.071,0.33,-0.4583664000000001,-0.4583664000000001,1.2032118,167.06309364,70.32486492,12.782692979999998
3.07,307,0.956,-0.07200000000000001,0.335,-0.572958,-0.6302538000000001,1.0886202,167.02298658,70.33059449999999,12.7483155
3.08,308,0.957,-0.071,0.33,-0.4010706,-0.5156622000000001,0.8021411999999999,167.11465986000005,70.42226778,12.834259200000002
3.09,309,0.961,-0.07200000000000001,0.329,-0.1718874,-0.4583664000000001,0.6302538000000001,167.09174154,70.42799735999998,12.81134088
3.0999999999999996,310,0.96,-0.07,0.328,-0.11459160000000004,-0.6302538000000001,0.3437748,167.07455280000005,70.43372694,12.79415214
3.11,311,0.957,-0.067,0.329,-0.057295800000000015,-0.8594370000000001,0.11459160000000004,167.06882321999996,70.44518609999999,12.78842256
3.1199999999999997,312,0.955,-0.065,0.328,0.11459160000000004,-1.0313244,0.0,167.06309364,70.45091568,12.782692979999998
3.13,313,0.956,-0.063,0.326,0.11459160000000004,-1.2605076000000002,-0.057295800000000015,167.30946558,70.56550728,13.011876179999998
3.1399999999999997,314,0.954,-0.064,0.32,0.2291832000000001,-1.3178034,0.0,167.30373600000001,70.57696644,13.0061466
3.15,315,0.953,-0.068,0.317,0.572958,-1.4896908000000002,0.0,167.30373600000001,70.59415518,12.994687439999998
3.1599999999999997,316,0.951,-0.07,0.319,0.572958,-1.4896908000000002,0.0,167.30373600000001,70.61134392,12.98895786
3.17,317,0.953,-0.067,0.324,0.2291832000000001,-1.3178034,-0.2291832000000001,167.30373600000001,70.62280308000003,12.98895786
3.1799999999999997,318,0.956,-0.062,0.32299999999999995,0.286479,-1.0313244,-0.2291832000000001,167.52718962,70.71447636,13.20095232
3.19,319,0.957,-0.06,0.32299999999999995,0.4583664000000001,-0.8594370000000001,-0.4583664000000001,167.54437836,70.72593552,13.206681900000001
3.1999999999999997,320,0.958,-0.058,0.319,0.5156622000000001,-0.4583664000000001,-0.3437748,167.55583752,70.72593552,13.21814106
3.21,321,0.957,-0.058,0.319,0.4583664000000001,-0.3437748,-0.057295800000000015,167.5615671,70.7316651,13.21814106
3.2199999999999998,322,0.957,-0.059,0.317,0.4583664000000001,-0.3437748,0.057295800000000015,167.5615671,70.73739468,13.21241148
3.23,323,0.956,-0.06,0.312,0.7448454000000001,-0.6302538000000001,0.2291832000000001,167.72199533999995,70.84052712,13.3499214
3.2399999999999998,324,0.954,-0.06,0.317,0.8594370000000001,-0.8594370000000001,0.3437748,167.71626576,70.8462567,13.338462239999998
3.25,325,0.953,-0.059,0.318,0.8021411999999999,-0.6875496,0.3437748,167.71053618000005,70.85198627999998,13.321273499999998
3.26,326,0.953,-0.06,0.316,0.9167328,-0.1718874,0.11459160000000004,167.71053618000005,70.85198627999998,13.31554392
3.27,327,0.951,-0.062,0.319,0.9740286,0.057295800000000015,0.0,167.72199533999995,70.85198627999998,13.31554392
3.28,328,0.95,-0.061,0.32,0.9167328,0.6302538000000001,0.0,167.92826022000003,70.90928208,13.504620060000002
3.29,329,0.951,-0.059,0.317,1.0886202,1.4896908000000002,0.11459160000000004,167.94544896,70.89209334,13.51034964
3.3,330,0.95,-0.058,0.316,1.4896908000000002,2.2345362,0.3437748,167.95690812,70.86917502,13.51034964
3.31,331,0.949,-0.059,0.313,1.8334656000000005,3.0939732,0.5156622000000001,167.97982644,70.84052712,13.51034964
3.32,332,0.948,-0.059,0.306,2.1772404,3.724227,0.6875496,168.00274475999996,70.80042006,13.51034964
3.33,333,0.946,-0.06,0.313,2.3491278,4.0680017999999984,0.8021411999999999,168.06004056,70.78323132,13.54472712
3.34,334,0.946,-0.058,0.316,2.4637194,4.583664,0.7448454000000001,168.08868846,70.73739468,13.550456700000002
3.3499999999999996,335,0.948,-0.055,0.318,2.5210152000000003,5.1566220000000005,0.6875496,168.12306594,70.68009888,13.55618628
3.36,336,0.955,-0.057,0.324,2.0053530000000004,5.5003968,0.572958,168.15171384,70.62853265999998,13.567645439999998
3.3699999999999997,337,0.958,-0.057,0.322,1.432395,5.6149884000000005,0.6302538000000001,168.17463216000004,70.57123686,13.5791046
3.38,338,0.96,-0.057,0.32299999999999995,0.8594370000000001,5.3285094000000015,0.6875496,168.24338712000005,70.54258896,13.63067082
3.3899999999999997,339,0.959,-0.058,0.329,0.286479,4.8701430000000006,0.8021411999999999,168.2491167,70.49102274,13.6364004
3.4,340,0.956,-0.059,0.325,0.057295800000000015,4.5263682,0.8021411999999999,168.24338712000005,70.44518609999999,13.6364004
3.4099999999999997,341,0.954,-0.061,0.319,-0.1718874,3.8961144,0.9167328,168.23765754,70.40507904,13.624941240000002
3.42,342,0.951,-0.062,0.32,-0.286479,3.4950437999999995,0.8594370000000001,168.22619838,70.37070156,13.61921166
3.4299999999999997,343,0.949,-0.061,0.324,-0.286479,3.2658606,0.7448454000000001,168.27776459999995,70.37070156,13.67077788
3.44,344,0.947,-0.062,0.328,-0.057295800000000015,3.151269,0.572958,168.27776459999995,70.33632408,13.67077788
3.4499999999999997,345,0.948,-0.062,0.333,0.4010706,3.2658606,0.4010706,168.28349418,70.30767618000002,13.67077788
3.46,346,0.949,-0.062,0.336,0.6302538000000001,3.4950437999999995,0.286479,168.29495334,70.26756911999999,13.68223704
3.4699999999999998,347,0.952,-0.064,0.344,0.5156622000000001,3.724227,0.2291832000000001,168.31214208,70.23319164,13.6936962
3.48,348,0.958,-0.062,0.348,0.11459160000000004,4.297185,0.1718874,168.3923562,70.19881416000001,13.77391032
3.4899999999999998,349,0.961,-0.061,0.34700000000000003,0.2291832000000001,4.4690724,0.286479,168.40954494,70.15297752000001,13.78536948
3.5,350,0.96,-0.062,0.348,0.3437748,4.1825934,0.5156622000000001,168.4210041,70.11287046,13.79109906
3.51,351,0.956,-0.062,0.34700000000000003,0.5156622000000001,4.010706000000001,0.6875496,168.42673368,70.07276340000001,13.79109906
3.52,352,0.954,-0.063,0.34600000000000003,0.7448454000000001,3.6669312000000014,0.8021411999999999,168.42673368,70.03265634,13.78536948
3.53,353,0.953,-0.065,0.341,0.9740286,3.2658606,0.7448454000000001,168.46684074,70.0154676,13.81974696
3.54,354,0.952,-0.067,0.341,1.145916,2.8074942000000003,0.7448454000000001,168.47257032,69.9868197,13.81401738
3.55,355,0.949,-0.065,0.34,1.2605076000000002,2.6356068,0.572958,168.48402948,69.9581718,13.8082878
3.56,356,0.947,-0.068,0.34,1.6042823999999998,2.9220857999999996,0.4010706,168.50121822,69.9295239,13.81401738
3.57,357,0.945,-0.07,0.34,1.4896908000000002,3.151269,0.057295800000000015,168.52986612,69.89514642,13.82547654
3.58,358,0.944,-0.065,0.338,1.2032118,3.2658606,-0.11459160000000004,168.62153940000005,69.88941684,13.89996108
3.59,359,0.937,-0.063,0.337,1.3750992,2.7501984,-0.2291832000000001,168.65591688,69.86076894,13.922879400000005
3.5999999999999996,360,0.943,-0.063,0.34,0.2291832000000001,2.7501984,-0.4010706,168.6788352,69.83785062,13.945797720000002
3.61,361,0.947,-0.066,0.327,0.6875496,2.7501984,-0.286479,168.7074831,69.80920272,13.96871604
3.6199999999999997,362,0.946,-0.071,0.328,0.9740286,2.86479,-0.286479,168.74186058,69.78055481999999,13.99163436
3.63,363,0.946,-0.069,0.337,0.286479,3.380452200000001,-0.4010706,168.79915638,69.78055481999999,14.04893016
3.6399999999999997,364,0.944,-0.065,0.339,0.0,3.724227,-0.286479,168.8220747,69.74044776000001,14.07757806
3.65,365,0.94,-0.06,0.342,-0.057295800000000015,3.380452200000001,-0.11459160000000004,168.83926344,69.71179986,14.0947668
3.6599999999999997,366,0.935,-0.057,0.339,-0.8021411999999999,3.724227,0.11459160000000004,168.84499302,69.6716928,14.10622596
3.67,367,0.936,-0.056,0.334,-0.8594370000000001,4.6409598,0.3437748,168.84499302,69.62585616,14.11768512
3.6799999999999997,368,0.94,-0.057,0.33,-0.6875496,4.9274388,0.4010706,168.89082966,69.60866741999999,14.16925134
3.69,369,0.946,-0.057,0.335,-0.9167328,4.583664,0.4010706,168.89082966,69.56283078,14.180710500000002
3.6999999999999997,370,0.947,-0.054000000000000006,0.34,-0.9740286,4.1252976000000015,0.572958,168.87937050000005,69.51699414,14.180710500000002
3.71,371,0.948,-0.053,0.343,-0.9740286,3.724227,0.7448454000000001,168.86791134,69.48261666,14.180710500000002
3.7199999999999998,372,0.95,-0.047,0.355,-1.2032118,3.6669312000000014,0.8594370000000001,168.84499302,69.4425096,14.16925134
3.73,373,0.957,-0.037000000000000005,0.363,-1.3178034,3.6669312000000014,1.2032118,168.9366663,69.41386170000001,14.266654199999998
3.7399999999999998,374,0.961,-0.037000000000000005,0.359,-1.432395,3.5523396000000003,1.6615782,168.89082966,69.37948422,14.2380063
3.75,375,0.961,-0.043,0.35700000000000004,-1.432395,3.151269,2.5210152000000003,168.8220747,69.33937716,14.180710500000002
3.76,376,0.956,-0.048,0.361,-1.2032118,2.5210152000000003,2.9793816000000004,168.74759016000004,69.31072925999999,14.11195554
3.77,377,0.954,-0.055,0.354,-1.3178034,2.291832,3.3231564,168.65591688,69.28208136,14.03174142
3.78,378,0.949,-0.061,0.34600000000000003,-1.5469866,1.6042823999999998,3.7815227999999994,168.58716192,69.28208136,13.96871604
3.79,379,0.949,-0.06,0.34,-2.1199446,0.572958,4.1825934,168.45538158,69.26489262,13.85412444
3.8,380,0.944,-0.054000000000000006,0.317,-1.8907613999999997,-0.572958,4.8128472,168.30641250000005,69.25916304,13.716614520000002
3.81,381,0.933,-0.053,0.334,-1.3178034,-1.432395,5.5576926,168.14598426,69.26489262,13.55618628
3.82,382,0.934,-0.052000000000000005,0.355,-1.3178034,-1.8907613999999997,5.844171599999999,167.97409686,69.2706222,13.38429888
3.83,383,0.947,-0.055,0.358,-2.0053530000000004,-3.9534102,6.589017,167.80220946,69.29927009999999,13.21814106
3.84,384,0.972,-0.053,0.389,-4.3544808,-5.3858052,8.078707799999998,167.52146004,69.33364758,12.96603954
3.8499999999999996,385,0.99,-0.055,0.41,-4.9847345999999995,-5.958763200000001,9.8548776,167.18341482,69.37375464,12.6623718
3.86,386,1.003,-0.064,0.399,-5.844171599999999,-6.589017,11.229976800000001,166.79953296,69.40813212,12.31286742
3.8699999999999997,387,1.007,-0.077,0.38,-6.9327918,-8.479778399999999,11.8602306,166.37554404,69.46542792,11.934715140000002
3.88,388,1.007,-0.093,0.3670000000000001,-8.3651868,-11.688343199999998,11.688343199999998,165.92290722,69.5571012,11.53937412
3.8899999999999997,389,1.006,-0.108,0.361,-9.740286,-14.2093584,10.8289062,165.45881124,69.66596322000001,11.1440331
3.9,390,1.003,-0.119,0.35,-10.4278356,-15.2406828,9.6256944,165.00617442,69.79201398,10.77733998
3.9099999999999997,391,0.99,-0.12,0.353,-12.4904844,-16.615782,8.193299399999999,164.55926718,69.9295239,10.4278356
3.92,392,0.988,-0.119,0.359,-13.407217200000002,-18.9649098,7.448453999999999,164.09517119999995,70.09568172,10.0840608
3.9299999999999997,393,0.983,-0.118,0.366,-13.5791046,-20.6837838,6.703608600000001,163.63680480000005,70.27329870000001,9.73455642
3.94,394,0.956,-0.109,0.3720000000000001,-13.6936962,-22.6891368,5.5003968,163.18416798,70.473834,9.40224078
3.9499999999999997,395,0.934,-0.101,0.371,-14.5531332,-24.2361234,4.1825934,162.74299032,70.69728762,9.081384300000002
3.96,396,0.913,-0.096,0.364,-16.1001198,-24.4080108,3.380452200000001,162.29035349999995,70.92074124,8.77771656
3.9699999999999998,397,0.919,-0.07400000000000001,0.345,-18.8503182,-23.204799,3.3231564,161.82052793999995,71.13273569999998,8.479778399999999
3.98,398,0.934,-0.059,0.333,-19.1367972,-22.86102420000001,4.1252976000000015,161.33924322,71.333271,8.17038108
3.9899999999999998,399,0.962,-0.056,0.34600000000000003,-18.5638392,-23.2620948,5.5003968,160.78920354,71.53953588,7.78649922
4.0,400,0.981,-0.052000000000000005,0.362,-16.673077799999998,-24.0069402,6.703608600000001,160.21051596,71.74580076,7.35105114
4.01,401,0.983,-0.051,0.37,-15.126091199999998,-24.2934192,8.021412000000002,159.59172131999995,71.94633606,6.858307260000001
4.02,402,0.984,-0.054000000000000006,0.378,-14.037471,-24.637194,9.167328,158.93854919999995,72.14687136,6.31399716
4.03,403,0.991,-0.059,0.378,-14.4385416,-25.2674478,10.313244,158.26245876000004,72.34167708,5.7582279000000005
4.04,404,1.019,-0.063,0.375,-15.3552744,-25.78311,11.5737516,157.48323588,72.5364828,5.0993262
4.05,405,1.056,-0.055,0.375,-15.527161800000002,-27.1582092,12.4331886,156.64098761999998,72.74274768000002,4.3831287
4.06,406,1.07,-0.052000000000000005,0.364,-14.7250206,-30.3094782,13.120738199999998,155.73571398,72.9662013,3.58671708
4.07,407,1.04,-0.059,0.355,-13.120738199999998,-36.096354,13.6936962,154.73303748,73.24122114,2.6699842800000004
4.08,408,1.02,-0.056,0.34600000000000003,-12.3758928,-40.8519054,13.8082878,153.67306518,73.54488888,1.6902260999999998
4.09,409,1.03,-0.056,0.32,-10.6570188,-40.6227222,13.9228794,152.55579708,73.84855662,0.6302538000000001
4.1,410,1.05,-0.068,0.325,-8.7089616,-39.591397799999996,14.4385416,151.41561066,74.13503562,-0.4583664000000001
4.109999999999999,411,1.0759999999999998,-0.07400000000000001,0.338,-8.3651868,-38.5027776,15.813640800000002,150.21812844000004,74.39286672,-1.62147114
4.12,412,1.105,-0.066,0.336,-9.3392154,-37.7006364,17.303331600000003,148.9404321,74.63350908,-2.85906042
4.13,413,1.103,-0.067,0.281,-8.7089616,-39.7059894,19.0222056,147.56533290000004,74.87988102,-4.19405256
4.14,414,1.07,-0.086,0.251,-7.5057497999999985,-42.28430039999999,21.3713334,146.00688714,75.12052338000002,-5.735309579999999
4.1499999999999995,415,1.055,-0.101,0.233,-7.5630456000000015,-42.4561878,23.376686399999997,144.33384977999995,75.34397700000002,-7.39688778
4.16,416,1.052,-0.11,0.223,-8.250595200000001,-41.9405256,24.694489800000003,142.57486871999996,75.53878272,-9.13295052
4.17,417,1.054,-0.109,0.206,-8.307891,-42.5134836,25.6112226,140.72994396,75.7163997,-10.95495696
4.18,418,1.077,-0.119,0.198,-8.7662574,-43.258329,26.69984280000001,138.7990755,75.88255752,-12.8629071
4.1899999999999995,419,1.105,-0.134,0.196,-10.313244,-44.0031744,27.8457588,136.73642669999998,76.03152659999998,-14.88544884
4.2,420,1.134,-0.142,0.17600000000000002,-13.8655836,-46.2377106,29.220858000000003,134.5018905,76.16330694,-17.05123008
4.21,421,1.136,-0.151,0.158,-16.7876694,-50.47759979999999,30.9970278,132.02098236,76.28935770000002,-19.44046494
4.22,422,1.129,-0.177,0.136,-19.2513888,-53.628868800000006,32.31483119999999,129.33953892000002,76.40394930000002,-22.0015872
4.2299999999999995,423,1.123,-0.198,0.108,-23.204799,-54.6601932,33.518043,126.50339682,76.48989300000002,-24.68303064
4.24,424,1.114,-0.196,0.084,-25.6685184,-54.7747848,34.1482968,123.60995892,76.53572964,-27.398851560000004
4.25,425,1.101,-0.192,0.085,-26.5852512,-54.54560160000001,34.8358464,120.68214354,76.54145922000002,-30.137590799999998
4.26,426,1.089,-0.185,0.093,-27.043617600000005,-53.68616460000001,36.38283300000001,117.75432816,76.50135216,-32.876330040000006
4.27,427,1.082,-0.174,0.079,-26.69984280000001,-51.6235158,38.1590028,114.90099732,76.39821972,-35.53485516
4.28,428,1.0590000000000002,-0.16699999999999998,0.069,-25.6685184,-49.560867,40.393539,112.15079892,76.24352106,-38.11316616000001
4.29,429,1.028,-0.157,0.059,-25.78311,-48.529542600000006,43.0291458,109.46362590000001,76.02579702,-40.61699262000001
4.3,430,1.009,-0.142,0.08199999999999999,-26.1268848,-46.982556,45.9512316,106.87958532,75.75077718,-43.01195706
4.31,431,1.001,-0.136,0.107,-24.0069402,-44.0031744,48.8733174,104.49608004,75.41273196,-45.22930452
4.32,432,0.984,-0.14800000000000002,0.085,-22.2307704,-40.5081306,52.2537696,102.34175796,75.01166136,-47.23465752
4.33,433,0.954,-0.16699999999999998,0.069,-21.7151082,-37.5860448,55.40503860000001,100.38797118,74.55902454,-49.03374564
4.34,434,0.927,-0.171,0.092,-20.6837838,-34.0337052,58.2125328,98.65190844,74.0548215,-50.62083930000001
4.35,435,0.932,-0.175,0.07200000000000001,-19.194093,-29.2781538,60.44706899999999,97.18513596,73.50478182,-51.95583144
4.36,436,0.958,-0.18600000000000005,0.047,-17.9908812,-27.3300966,62.3951262,95.86733256,72.92609424,-53.1418545
4.37,437,0.993,-0.199,0.04,-17.4179232,-27.3873924,65.08802879999999,94.63547286,72.31302918,-54.25339302
4.38,438,1.022,-0.221,0.019,-15.985528200000001,-27.8457588,68.01011460000001,93.47236812,71.67131622000002,-55.30763574
4.39,439,1.032,-0.25,0.002,-13.8655836,-29.220858000000003,70.07276340000001,92.36655918,71.00095536,-56.33323056
4.3999999999999995,440,1.013,-0.276,-0.004,-12.1467096,-31.2835068,71.1613836,91.29512772,70.31340576,-57.34163663999999
4.41,441,0.975,-0.294,-0.003,-11.1153852,-32.7159018,71.8489332,90.26380332,69.60866741999999,-58.3271244
4.42,442,0.958,-0.324,0.0,-8.7662574,-29.793816,72.13541219999998,89.40436632,68.8981995,-59.15791349999999
4.43,443,0.95,-0.333,-0.024,-8.193299399999999,-25.1528562,71.79163740000001,88.69962798,68.19346116,-59.82827436
4.4399999999999995,444,0.923,-0.34700000000000003,-0.033,-5.443101,-24.064235999999998,70.9894962,88.10948124000002,67.48872281999999,-60.41269152
4.45,445,0.914,-0.35200000000000004,0.003,-6.4744254,-23.376686399999997,69.900876,87.55371198,66.78971406,-60.94554246
4.46,446,0.932,-0.368,-0.032,-6.8182002000000015,-25.84040580000001,70.30194660000001,86.96929482,66.0907053,-61.51277088000001
4.47,447,0.938,-0.388,-0.031,-7.2765666,-30.9970278,71.8489332,86.31039312,65.36304864,-62.16021342000001
4.4799999999999995,448,0.956,-0.396,-0.038,-7.3911582,-34.2055926,72.4218912,85.61138436,64.63539198000001,-62.8534926
4.49,449,0.972,-0.424,-0.055,-7.161975,-35.52339600000001,72.5364828,84.93529392,63.89627615999999,-63.52958304
4.5,450,0.934,-0.408,-0.056,-11.0580894,-36.4974246,72.25000379999999,84.23628516,63.15716034,-64.19421432
4.51,451,0.879,-0.376,-0.052000000000000005,-11.0007936,-35.9817624,71.39056679999999,83.57738346,62.4237741,-64.81300896
4.52,452,0.8270000000000001,-0.38,-0.054000000000000006,-8.9381448,-33.8618178,70.5311298,83.01015504,61.69611744,-65.35731906
4.53,453,0.789,-0.391,-0.025,-10.3705398,-30.0229992,69.7862844,82.52887032,60.98564952,-65.79276714
4.54,454,0.762,-0.41,-0.026,-10.4851314,-24.7517856,69.0987348,82.15071803999999,60.275181599999996,-66.11362362
4.55,455,0.7490000000000001,-0.426,-0.018000000000000002,-8.8235532,-21.3140376,68.0674104,81.85850946000002,59.58190241999999,-66.3485364
4.56,456,0.763,-0.448,-0.053,-6.9327918,-17.303331600000003,67.1506776,81.66370374,58.9000824,-66.49750548
4.57,457,0.795,-0.467,-0.075,-4.8128472,-15.985528200000001,66.6350154,81.51473466,58.22972154,-66.61782666
4.58,458,0.828,-0.477,-0.083,-3.7815227999999994,-17.0168526,66.6350154,81.360036,57.55936068,-66.75533657999999
4.59,459,0.866,-0.465,-0.092,-4.0680017999999984,-17.303331600000003,66.5204238,81.21106692,56.88327024,-66.89284649999999
4.6,460,0.878,-0.457,-0.085,-4.0680017999999984,-17.475219,65.94746579999999,81.06209784,56.21290938,-67.02462684000001
4.61,461,0.8390000000000001,-0.481,-0.084,-2.4637194,-17.6471064,64.744254,80.9303175,55.55400768,-67.15640718
4.62,462,0.816,-0.519,-0.068,-0.6875496,-16.673077799999998,62.051351399999994,80.82718506,54.92375388000001,-67.27672836
4.63,463,0.8140000000000001,-0.5379999999999999,-0.094,0.0,-17.246035799999998,58.2698286,80.71832304,54.33360714000001,-67.41423827999999
4.64,464,0.8029999999999999,-0.528,-0.123,-0.4583664000000001,-18.7930224,55.1758554,80.58081312,53.76637872,-67.58039609999999
4.6499999999999995,465,0.789,-0.518,-0.145,1.145916,-20.511896399999998,53.0559108,80.43757362,53.21633904,-67.77520182
4.66,466,0.767,-0.528,-0.166,2.9220857999999996,-20.9702628,51.7381074,80.31152286,52.68348810000001,-67.97573712
4.67,467,0.737,-0.52,-0.18,3.2085648,-21.6005166,50.82137460000001,80.18547209999998,52.15636674,-68.182002
4.68,468,0.6779999999999999,-0.4920000000000001,-0.175,3.7815227999999994,-21.3713334,49.274388,80.04796218,51.64643412,-68.40545562
4.6899999999999995,469,0.621,-0.508,-0.165,5.72958,-17.3606274,46.9252602,79.99639596,51.15941982,-68.54869512
4.7,470,0.589,-0.519,-0.131,6.8182002000000015,-13.750992000000002,44.690724,79.99639596,50.70105342,-68.6403684
4.71,471,0.555,-0.517,-0.117,10.5424272,-10.9434978,43.48751220000001,80.0708805,50.26560533999999,-68.69193462000001
4.72,472,0.5579999999999999,-0.53,-0.108,11.9748222,-5.958763200000001,41.9978214,80.20839042,49.84161642,-68.6690163
4.7299999999999995,473,0.607,-0.557,-0.128,11.8029348,-1.7188740000000002,41.023792799999995,80.37454824,49.43481624,-68.60026134
4.74,474,0.65,-0.579,-0.14800000000000002,10.4278356,-0.2291832000000001,40.33624320000001,80.55789480000001,49.03947522,-68.50285848
4.75,475,0.687,-0.59,-0.166,10.1986524,1.432395,39.9924684,80.75270051999998,48.65559336000001,-68.3825373
4.76,476,0.684,-0.604,-0.181,10.313244,3.5523396000000003,39.591397799999996,80.96469498,48.2717115,-68.2392978
4.77,477,0.665,-0.621,-0.142,10.8289062,5.7868758000000025,39.0184398,81.20533734,47.89355922,-68.06168081999999
4.78,478,0.636,-0.631,-0.114,10.7716104,7.7922288,38.0444112,81.45170928,47.5268661,-67.87260468
4.79,479,0.613,-0.637,-0.11,12.4331886,8.7089616,36.7266078,81.73245870000002,47.17736172,-67.66633979999999
4.8,480,0.601,-0.6459999999999999,-0.059,15.2406828,9.9121734,34.60666320000001,82.04185602,46.85077566,-67.44861576
4.81,481,0.599,-0.633,-0.031,15.6990492,11.688343199999998,31.5699858,82.36844208,46.5528375,-67.21943256
4.82,482,0.581,-0.632,-0.039,18.1054728,15.527161800000002,28.4187168,82.75232394,46.28927682000001,-66.94441271999999
4.83,483,0.561,-0.662,-0.022,21.027558600000006,20.7410796,25.9549974,83.21641991999998,46.04290488,-66.59490833999999
4.84,484,0.556,-0.706,-0.005,22.058883,26.1841806,25.3247436,83.73781170000002,45.81945126,-66.18237858
4.85,485,0.564,-0.747,-0.027000000000000003,22.0015872,30.7105488,27.5592798,84.29931054,45.57307932,-65.70109386
4.86,486,0.597,-0.775,-0.027000000000000003,22.459953600000002,31.79916900000001,33.403451399999994,84.87226854000002,45.263682,-65.20834998000001
4.87,487,0.639,-0.778,-0.006999999999999999,22.0015872,31.2835068,40.966497,85.43949696000001,44.87980014,-64.72133568
4.88,488,0.6659999999999999,-0.782,-0.009000000000000001,21.199446,32.257535399999995,47.0398518,86.0009958,44.42143374000001,-64.22286222
4.89,489,0.6809999999999999,-0.805,-0.035,20.8556712,35.17962120000001,50.706783,86.57968338,43.93441944,-63.69001128
4.8999999999999995,490,0.672,-0.828,-0.034,18.8503182,36.096354,53.22779820000001,87.14118221999998,43.41875724000001,-63.15716034
4.91,491,0.625,-0.838,-0.03,16.1001198,36.955791,54.94667220000001,87.66257399999998,42.88017672,-62.6243094
4.92,492,0.601,-0.841,-0.044,13.178034,39.534102,55.5196302,88.17250662000002,42.33586662,-62.06281056
4.93,493,0.619,-0.831,-0.086,11.3445684,42.34159620000001,54.7747848,88.6652505,41.78582694,-61.48985256
4.9399999999999995,494,0.638,-0.8079999999999999,-0.097,9.3965112,42.05511720000001,53.285094,89.12934648,41.252976000000004,-60.91689456
4.95,495,0.667,-0.7909999999999999,-0.077,9.2819196,41.1383844,52.139178,89.5819833,40.73158422,-60.37258446000001
4.96,496,0.7020000000000001,-0.795,-0.052000000000000005,9.9121734,40.6227222,52.2537696,90.01743138,40.20446286,-59.8454631
4.97,497,0.708,-0.81,-0.038,8.9381448,40.10706,53.456981400000004,90.43569072,39.66015276,-59.329800899999995
4.9799999999999995,498,0.698,-0.8240000000000001,-0.032,6.5317212,40.33624320000001,54.94667220000001,90.813843,39.09865392,-58.82559786
4.99,499,0.6609999999999999,-0.825,-0.019,3.4950437999999995,40.10706,56.3217714,91.1576178,38.52569592,-58.33285398
5.0,500,0.627,-0.816,-0.018000000000000002,1.8334656000000005,40.04976420000001,57.63957480000001,91.4727447,37.9298196,-57.84583968000001
5.01,501,0.6,-0.804,-0.027000000000000003,0.572958,40.2216516,59.014674,91.76495328,37.32248412,-57.37028454
5.02,502,0.5579999999999999,-0.784,-0.012,0.4583664000000001,39.0757356,59.98870260000001,92.03997312,36.70368948,-56.91191814
5.03,503,0.546,-0.775,0.001,1.9480572,38.1590028,59.7022236,92.30926338,36.08489484,-56.47647006
5.04,504,0.55,-0.769,0.033,2.0626488000000003,37.9298196,58.67089920000001,92.57855364,35.47755936,-56.04675156
5.05,505,0.569,-0.7659999999999999,0.037000000000000005,2.578311,40.2789474,57.2958,92.86503264,34.88168304,-55.59411474
5.06,506,0.581,-0.7759999999999999,0.041,2.2345362,42.7999626,55.9779966,93.15151164,34.291536300000004,-55.11855959999999
5.07,507,0.5820000000000001,-0.782,0.051,1.6615782,44.0031744,55.5196302,93.43226106,33.70138956,-54.63727487999999
5.08,508,0.581,-0.795,0.065,1.8907613999999997,43.3156248,56.3790672,93.7072809,33.11124282,-54.16744932
5.09,509,0.568,-0.809,0.084,2.1199446,41.6540466,58.613603399999995,93.95938242,32.492448180000004,-53.72627166000001
5.1,510,0.563,-0.8220000000000001,0.097,3.380452200000001,41.19568020000001,61.1919144,94.21721352,31.84500564,-53.30228274000001
5.11,511,0.5589999999999999,-0.835,0.094,3.6669312000000014,41.76863820000001,63.1399716,94.47504462,31.17464478,-52.87829382
5.12,512,0.5589999999999999,-0.8420000000000001,0.079,4.6409598,42.112413,63.3691548,94.73287572,30.50428392,-52.4543049
5.13,513,0.546,-0.85,0.097,4.6982556,43.1437374,62.051351399999994,94.99070682,29.84538222,-52.0245864
5.14,514,0.528,-0.856,0.108,5.5576926,44.06047020000001,60.332477399999995,95.25999708,29.19793968,-51.58913832
5.1499999999999995,515,0.512,-0.858,0.114,5.3285094000000015,44.6334282,59.0719698,95.51782818,28.561956300000002,-51.15369024
5.16,516,0.516,-0.865,0.114,4.5263682,45.263682,58.2125328,95.7699297,27.931702500000004,-50.71824216
5.17,517,0.514,-0.875,0.114,4.010706000000001,44.0031744,57.983349600000004,95.99911290000001,27.301448699999998,-50.29998282
5.18,518,0.511,-0.888,0.11,4.297185,42.398892,58.2698286,96.21683694,26.67692448,-49.89891222
5.1899999999999995,519,0.528,-0.897,0.107,5.042030400000002,40.8519054,58.8427866,96.4288314,26.0409411,-49.52648952
5.2,520,0.525,-0.902,0.108,4.8128472,39.19032720000001,58.72819499999999,96.6293667,25.40495772,-49.17698514
5.21,521,0.517,-0.901,0.121,4.583664,38.3308902,57.63957480000001,96.81271325999998,24.78616308,-48.83893992
5.22,522,0.502,-0.895,0.13,4.297185,37.5860448,56.2071798,96.99033024,24.17309802,-48.50662428
5.2299999999999995,523,0.483,-0.887,0.128,4.1252976000000015,36.4974246,54.717489,97.15648806,23.58868086,-48.19149738
5.24,524,0.473,-0.8859999999999999,0.128,4.7555514,35.9817624,53.5142772,97.32264588,23.00999328,-47.88210005999999
5.25,525,0.448,-0.882,0.138,4.5263682,35.6379876,52.425657,97.48307412,22.43703528,-47.57843232000001
5.26,526,0.411,-0.8809999999999999,0.126,5.0993262,37.2995658,51.33703679999999,97.64923194,21.87553644,-47.25757584
5.27,527,0.376,-0.88,0.126,4.8128472,39.6486936,50.0765292,97.82111934,21.31976718,-46.91380104
5.28,528,0.364,-0.8859999999999999,0.13,4.1825934,39.534102,49.61816279999999,97.98154758,20.7697275,-46.57575582
5.29,529,0.377,-0.899,0.13,3.5523396000000003,36.7839036,50.24841660000001,98.1190575,20.21395824,-46.2663585
5.3,530,0.397,-0.913,0.138,3.7815227999999994,32.830493399999995,51.6235158,98.24510826,19.6524594,-46.0085274
5.31,531,0.42,-0.93,0.13699999999999998,5.2139178,29.507337,52.597544400000004,98.37115902,19.08523098,-45.78507378
5.32,532,0.4270000000000001,-0.938,0.165,5.5576926,26.8717302,52.597544400000004,98.48575062,18.52373214,-45.59026806
5.33,533,0.411,-0.946,0.172,7.1046792000000005,25.4393352,51.33703679999999,98.61180138,17.98515162,-45.4069215
5.34,534,0.379,-0.952,0.185,6.9327918,25.1528562,49.4462754,98.73785214,17.45230068,-45.22930452
5.35,535,0.338,-0.941,0.196,6.417129599999999,25.9549974,46.5241896,98.85244374,16.95382722,-45.04022838
5.36,536,0.303,-0.935,0.191,6.2452422,27.6165756,44.34694920000001,98.97849449999998,16.466812920000002,-44.82823392
5.37,537,0.289,-0.932,0.192,5.042030400000002,29.220858000000003,43.65939960000001,99.08735652,15.9855282,-44.6047803
5.38,538,0.298,-0.938,0.174,3.8961144,30.252182399999995,44.4615408,99.18475938,15.4985139,-44.36986752
5.39,539,0.312,-0.943,0.16899999999999998,2.1199446,28.8770832,46.6387812,99.25924392,14.98858128,-44.15787306
5.3999999999999995,540,0.319,-0.937,0.159,1.3178034,25.7258142,50.0765292,99.31653972,14.450000759999998,-43.98598566
5.41,541,0.315,-0.944,0.14400000000000002,1.0886202,21.485925,53.456981400000004,99.35664678,13.88850192,-43.8599349
5.42,542,0.308,-0.956,0.13699999999999998,1.9480572,18.162768600000003,55.06126379999999,99.39675384,13.30981434,-43.76826162
5.43,543,0.299,-0.971,0.147,2.1772404,17.18874,53.858052,99.43113132,12.75977466,-43.69377708
5.4399999999999995,544,0.295,-0.98,0.145,2.0626488000000003,19.8243468,50.8786704,99.47696796,12.226923719999998,-43.57918548
5.45,545,0.282,-0.981,0.147,0.9167328,23.0902074,47.7274014,99.51134544,11.7169911,-43.4302164
5.46,546,0.248,-0.966,0.16,-0.2291832000000001,25.7258142,45.3209778,99.53999334,11.22424722,-43.25259942
5.47,547,0.212,-0.951,0.16399999999999998,0.0,28.1322378,44.2323576,99.5801004,10.73723292,-43.05206412
5.4799999999999995,548,0.185,-0.947,0.165,0.0,30.7105488,44.06047020000001,99.61447788,10.24448904,-42.82288092
5.49,549,0.17,-0.946,0.161,-0.6875496,32.257535399999995,44.51883660000001,99.64312578,9.746015580000002,-42.58223856
5.5,550,0.168,-0.945,0.151,-1.2032118,31.4553942,45.6647526,99.6660441,9.24181254,-42.35305536
5.51,551,0.175,-0.941,0.166,-0.8021411999999999,29.5646328,46.8106686,99.68896242,8.72615034,-42.1410609
5.52,552,0.198,-0.943,0.17600000000000002,0.2291832000000001,28.7051958,46.6387812,99.71761032,8.210488139999999,-41.9405256
5.53,553,0.215,-0.946,0.17800000000000002,1.6042823999999998,27.215505,45.0917946,99.75771738,7.72920342,-41.75144946
5.54,554,0.226,-0.957,0.192,2.578311,25.2674478,42.7426668,99.80355402,7.265107439999999,-41.57956206
5.55,555,0.227,-0.972,0.197,2.7501984,23.8923486,39.9924684,99.84939066,6.82392978,-41.41340424
5.56,556,0.211,-0.999,0.173,3.7815227999999994,21.5432208,37.81522800000001,99.90095688,6.411400019999999,-41.27016474
5.57,557,0.175,-1.031,0.16899999999999998,3.4950437999999995,19.0795014,36.32553720000001,99.9525231,6.02178858,-41.14411398
5.58,558,0.128,-1.055,0.168,2.7501984,17.9908812,35.5806918,99.981171,5.63790672,-41.03525196
5.59,559,0.085,-1.078,0.168,1.0886202,17.475219,35.6379876,100.00408932,5.25402486,-40.92638994
5.6,560,0.061,-1.086,0.161,0.0,16.4438946,36.2682414,100.0098189,4.8701430000000006,-40.82898708000001
5.61,561,0.046,-1.084,0.162,-0.5156622000000001,14.5531332,37.4714532,100.0098189,4.4748019800000005,-40.75450254
5.62,562,0.036000000000000004,-1.074,0.181,-1.0886202,12.9488508,39.19032720000001,99.99835974,4.06227222,-40.69720674
5.63,563,0.035,-1.054,0.198,-1.9480572,12.4331886,41.023792799999995,99.981171,3.63255372,-40.64564052
5.64,564,0.032,-1.032,0.207,-1.8907613999999997,10.3705398,42.7426668,99.96398226,3.19710564,-40.6227222
5.6499999999999995,565,0.024,-1.015,0.217,-1.0313244,7.906820400000001,44.0031744,99.9525231,2.7501984,-40.6227222
5.66,566,0.011,-1.01,0.224,0.0,6.130650599999999,44.06047020000001,99.9525231,2.30902074,-40.63991094
5.67,567,-0.009000000000000001,-1.005,0.218,2.3491278,5.1566220000000005,41.9405256,99.97544142,1.88503182,-40.66282926
5.68,568,-0.033,-1.014,0.209,3.4377480000000005,6.1879464,39.0757356,100.0098189,1.4782316400000002,-40.66855884
5.6899999999999995,569,-0.051,-1.011,0.2,3.8388186,8.307891,36.03905820000001,100.04992596,1.11153852,-40.6513701
5.7,570,-0.065,-1.002,0.201,4.010706000000001,11.172681,33.74722620000001,100.09003302,0.76203414,-40.60553346
5.71,571,-0.068,-0.988,0.201,3.5523396000000003,14.037471,32.486718599999996,100.1244105,0.41252976,-40.52531934
5.72,572,-0.056,-0.97,0.201,3.151269,15.4125702,32.142943800000005,100.15878798,0.06875496,-40.43364606
5.7299999999999995,573,-0.037000000000000005,-0.956,0.191,3.151269,13.9228794,32.658606,100.18743588,-0.27501984,-40.35343194
5.74,574,-0.022,-0.953,0.173,3.9534102,10.9434978,33.403451399999994,100.22754294,-0.62452422,-40.3075953
5.75,575,-0.024,-0.965,0.17,4.583664,7.1046792000000005,33.5753388,100.27337958,-0.96829902,-40.30186572
5.76,576,-0.048,-0.977,0.171,4.8128472,4.583664,33.3461556,100.3249458,-1.30061466,-40.31332488
5.77,577,-0.083,-0.983,0.175,4.8701430000000006,2.5210152000000003,33.3461556,100.37078244,-1.6329303,-40.34770236
5.78,578,-0.117,-0.983,0.185,4.8701430000000006,1.3178034,33.8618178,100.42234866,-1.98816426,-40.39926858
5.79,579,-0.141,-0.982,0.197,5.0993262,0.9167328,34.8931422,100.47391488,-2.32620948,-40.4508348
5.8,580,-0.159,-0.982,0.21,5.6149884000000005,1.6615782,35.9817624,100.53694026,-2.68144344,-40.50240102
5.81,581,-0.158,-0.976,0.222,6.3025379999999975,3.2085648,37.0130868,100.59996564,-3.04813656,-40.5367785
5.82,582,-0.145,-0.972,0.21600000000000005,7.448453999999999,5.1566220000000005,37.2995658,100.68017976,-3.42628884,-40.55396724000001
5.83,583,-0.127,-0.976,0.222,8.250595200000001,9.0527364,35.9244666,100.76612346,-3.80444112,-40.5367785
5.84,584,-0.118,-0.984,0.22,8.59437,11.5737516,33.4607472,100.84633758,-4.1539455,-40.48521228
5.85,585,-0.124,-0.993,0.211,8.7662574,12.318597,30.8824362,100.93228128,-4.48053156,-40.4221869
5.86,586,-0.139,-1.002,0.213,9.3392154,12.4904844,28.762491600000004,101.01822498,-4.78992888,-40.35916152
5.87,587,-0.152,-1.012,0.214,9.5111028,12.891555,27.1582092,101.10989826,-5.08213746,-40.28467698
5.88,588,-0.155,-1.012,0.21,9.224623800000002,13.178034,26.4706596,101.19011238,-5.37434604,-40.20446286
5.89,589,-0.151,-1.007,0.211,9.0527364,12.891555,26.5852512,101.27605608,-5.66082504,-40.12997832
5.8999999999999995,590,-0.13699999999999998,-0.996,0.221,8.9381448,12.4904844,26.9863218,101.35627020000001,-5.953033619999999,-40.06122336
5.91,591,-0.125,-0.987,0.23,8.7089616,11.8602306,26.69984280000001,101.44221389999998,-6.23951262,-40.00392756
5.92,592,-0.118,-0.98,0.239,8.3651868,11.229976800000001,25.210152,101.51669844,-6.5088028799999975,-39.94090218
5.93,593,-0.111,-0.976,0.239,8.136003599999999,10.8289062,22.7464326,101.59691256,-6.74944524,-39.88360638
5.9399999999999995,594,-0.108,-0.974,0.233,8.250595200000001,9.969469199999999,19.7097552,101.6713971,-6.9614397000000015,-39.82631058
5.95,595,-0.11,-0.971,0.225,7.7922288,8.8235532,16.7876694,101.74588164,-7.144786260000001,-39.77474436
5.96,596,-0.115,-0.968,0.21600000000000005,8.136003599999999,7.2192707999999985,14.4385416,101.82036618,-7.305214500000001,-39.72890772
5.97,597,-0.121,-0.97,0.211,8.59437,5.6722842,13.178034,101.90630988,-7.4427244199999985,-39.70025982
5.9799999999999995,598,-0.128,-0.974,0.203,8.7662574,5.0993262,12.7196676,101.98079442,-7.574504760000001,-39.6773415
5.99,599,-0.136,-0.973,0.2,9.167328,5.0993262,12.6623718,102.0724677,-7.71201468,-39.65442318
6.0,600,-0.146,-0.974,0.204,9.0527364,5.844171599999999,12.5477802,102.1584114,-7.8495246,-39.625775280000006
6.01,601,-0.151,-0.968,0.203,8.7089616,6.589017,12.2040054,102.23862552,-7.9813049399999985,-39.58566822
6.02,602,-0.153,-0.963,0.203,8.3651868,6.990087599999999,11.688343199999998,102.31883964,-8.11308528,-39.53983158
6.03,603,-0.149,-0.957,0.203,7.906820400000001,7.333862400000001,11.0007936,102.38186502,-8.23913604,-39.49399494
6.04,604,-0.145,-0.954,0.205,7.906820400000001,7.5057497999999985,10.255948199999999,102.45634956,-8.353727639999999,-39.44242872
6.05,605,-0.141,-0.958,0.207,7.906820400000001,7.8495246,9.6256944,102.52510452,-8.46831924,-39.38513292
6.06,606,-0.139,-0.966,0.212,7.5057497999999985,8.136003599999999,9.224623800000002,102.59385948,-8.57718126,-39.32210754000001
6.07,607,-0.14300000000000002,-0.976,0.211,7.0473834,7.6203414,8.8235532,102.65688486000002,-8.6803137,-39.27054132
6.08,608,-0.14,-0.985,0.211,6.2452422,7.2192707999999985,8.7662574,102.69699192,-8.77198698,-39.2189751
6.09,609,-0.133,-0.988,0.215,5.5003968,6.703608600000001,8.5370742,102.74282856,-8.86938984,-39.16740888
6.1,610,-0.131,-0.987,0.219,5.042030400000002,6.3598338,8.307891,102.7886652,-8.9667927,-39.12730182
6.11,611,-0.126,-0.987,0.227,4.8701430000000006,6.2452422,8.078707799999998,102.82877226,-9.05846598,-39.08146518
6.12,612,-0.121,-0.987,0.23,4.5263682,5.72958,7.8495246,102.86887932,-9.15013926,-39.04708770000001
6.13,613,-0.114,-0.991,0.235,4.3544808,5.0993262,7.6776372,102.9032568,-9.20743506,-39.01271022
6.14,614,-0.1,-0.998,0.245,4.0680017999999984,4.3544808,7.448453999999999,102.93763428,-9.28764918,-38.98406232000001
6.15,615,-0.096,-1.002,0.248,3.8388186,3.0366774,7.2765666,102.97774134,-9.3678633,-38.97260316
6.16,616,-0.099,-1.003,0.25,3.7815227999999994,1.7761698,7.2192707999999985,103.0178484,-9.44234784,-38.96687358000001
6.17,617,-0.101,-0.996,0.257,3.380452200000001,1.2605076000000002,6.990087599999999,103.05222588,-9.5111028,-38.97260316
6.18,618,-0.105,-0.987,0.255,3.4950437999999995,0.11459160000000004,6.589017,103.09233293999998,-9.51683238,-38.98406232000001
6.1899999999999995,619,-0.112,-0.979,0.247,3.4950437999999995,-1.0313244,6.3025379999999975,103.13244,-9.57985776,-39.00698064
6.2,620,-0.118,-0.974,0.247,3.8388186,-2.0626488000000003,6.130650599999999,103.17827664,-9.63142398,-39.04135812
6.21,621,-0.117,-0.97,0.247,3.6096354,-2.7501984,5.9014674000000005,103.2183837,-9.682990199999999,-39.08146518
6.22,622,-0.115,-0.963,0.245,3.6096354,-3.5523396000000003,5.5003968,103.26422034,-9.72309726,-39.12730182
6.2299999999999995,623,-0.116,-0.96,0.244,3.8961144,-4.9274388,5.0993262,103.31578656,-9.72309726,-39.19032720000001
6.24,624,-0.123,-0.956,0.248,4.1252976000000015,-6.3025379999999975,4.7555514,103.37308236,-9.75747474,-39.25908216000001
6.25,625,-0.131,-0.956,0.248,4.3544808,-7.2765666,4.583664,103.43037816,-9.78039306,-39.33929628
6.26,626,-0.135,-0.957,0.242,4.6409598,-8.307891,4.5263682,103.49340354,-9.80331138,-39.43096956
6.27,627,-0.133,-0.958,0.243,4.8128472,-8.9381448,4.6982556,103.56215849999998,-9.8262297,-39.52837242
6.28,628,-0.119,-0.959,0.257,4.3544808,-8.7089616,4.7555514,103.63091346,-9.81477054,-39.625775280000006
6.29,629,-0.11,-0.957,0.253,4.010706000000001,-9.3965112,4.9847345999999995,103.68820926,-9.83768886,-39.72890772
6.3,630,-0.115,-0.956,0.25,4.0680017999999984,-10.313244,5.1566220000000005,103.75123464,-9.86060718,-39.83776974
6.31,631,-0.127,-0.957,0.253,4.6982556,-11.1153852,5.1566220000000005,103.8199896,-9.883525500000001,-39.95809092
6.32,632,-0.14400000000000002,-0.961,0.252,4.8701430000000006,-11.3445684,4.6409598,103.89447414,-9.90071424,-40.0784121
6.33,633,-0.161,-0.968,0.251,5.0993262,-10.255948199999999,3.6669312000000014,103.95749951999998,-9.90071424,-40.18727412
6.34,634,-0.171,-0.974,0.254,5.2139178,-8.59437,2.5210152000000003,104.03198405999998,-9.90071424,-40.27894740000001
6.35,635,-0.17600000000000002,-0.975,0.256,5.2712136,-6.760904399999999,1.4896908000000002,104.09500943999998,-9.89498466,-40.34770236
6.36,636,-0.177,-0.974,0.254,5.2139178,-5.2712136,0.8021411999999999,104.15803481999998,-9.88925508,-40.39926858
6.37,637,-0.17600000000000002,-0.974,0.257,5.0993262,-4.010706000000001,0.3437748,104.22106020000001,-9.883525500000001,-40.43937564
6.38,638,-0.168,-0.972,0.257,4.6409598,-2.86479,0.11459160000000004,104.25543768,-9.86060718,-40.46229396
6.39,639,-0.161,-0.972,0.254,4.5263682,-2.578311,0.3437748,104.3070039,-9.8548776,-40.49094186
6.4,640,-0.155,-0.973,0.252,4.4690724,-2.7501984,0.6302538000000001,104.35857012,-9.8548776,-40.51958976
6.41,641,-0.151,-0.974,0.251,4.583664,-3.0939732,0.6875496,104.41013633999998,-9.8548776,-40.54823766
6.42,642,-0.147,-0.975,0.252,4.4117766,-3.5523396000000003,0.4010706,104.46170256,-9.84914802,-40.58261514
6.43,643,-0.14400000000000002,-0.973,0.257,4.2398892,-3.2658606,-0.057295800000000015,104.49608004,-9.7975818,-40.61126304
6.4399999999999995,644,-0.142,-0.969,0.259,3.9534102,-2.86479,-0.6302538000000001,104.54191668,-9.78039306,-40.63991094
6.45,645,-0.142,-0.964,0.259,4.1252976000000015,-2.8074942000000003,-1.0313244,104.58775332,-9.76320432,-40.66282926
6.46,646,-0.151,-0.962,0.262,4.0680017999999984,-2.6356068,-1.4896908000000002,104.63358996,-9.740286,-40.680018
6.47,647,-0.147,-0.957,0.267,3.9534102,-1.7761698,-1.2605076000000002,104.6794266,-9.72309726,-40.69720674
6.4799999999999995,648,-0.147,-0.963,0.265,3.9534102,-1.6615782,-1.0886202,104.7080745,-9.67153104,-40.7086659
6.49,649,-0.15,-0.966,0.263,4.010706000000001,-1.4896908000000002,-1.0313244,104.74818156,-9.6543423,-40.72012506
6.5,650,-0.151,-0.969,0.264,3.9534102,-0.9740286,-1.2032118,104.7940182,-9.64288314,-40.72585464
6.51,651,-0.154,-0.967,0.265,3.724227,-0.572958,-1.5469866,104.82839568,-9.6256944,-40.72585464
6.52,652,-0.158,-0.965,0.27,3.6669312000000014,-0.1718874,-2.1199446,104.86850274,-9.60277608,-40.72012506
6.53,653,-0.158,-0.966,0.277,3.2085648,0.286479,-2.578311,104.89715064,-9.55693944,-40.7086659
6.54,654,-0.156,-0.967,0.275,3.0366774,0.6302538000000001,-3.2085648,104.92579854,-9.52829154,-40.69720674
6.55,655,-0.15,-0.969,0.274,2.578311,0.6875496,-3.724227,104.94871686,-9.49391406,-40.680018
6.56,656,-0.14300000000000002,-0.972,0.271,2.578311,0.6302538000000001,-3.9534102,104.97163518,-9.45953658,-40.66282926
6.57,657,-0.136,-0.973,0.274,2.4637194,0.8594370000000001,-4.010706000000001,104.9945535,-9.41942952,-40.63991094
6.58,658,-0.132,-0.972,0.279,2.1199446,0.9167328,-4.0680017999999984,105.01174224,-9.33348582,-40.61699262000001
6.59,659,-0.133,-0.97,0.279,2.0626488000000003,0.6875496,-4.010706000000001,105.02893098,-9.29910834,-40.59980388
6.6,660,-0.13699999999999998,-0.968,0.28,1.8907613999999997,0.057295800000000015,-3.8388186,105.04611972,-9.26473086,-40.58834472
6.61,661,-0.13699999999999998,-0.968,0.278,1.5469866,-0.1718874,-3.8388186,105.06330846,-9.224623800000002,-40.58261514
6.62,662,-0.134,-0.968,0.276,1.2605076000000002,-0.6302538000000001,-3.8961144,105.07476762,-9.18451674,-40.57688556
6.63,663,-0.133,-0.967,0.277,1.0313244,-0.9167328,-3.9534102,105.0804972,-9.09284346,-40.57115598
6.64,664,-0.13,-0.966,0.277,1.145916,-0.9740286,-4.0680017999999984,105.09195636,-9.04700682,-40.57115598
6.65,665,-0.131,-0.965,0.279,1.2605076000000002,-0.572958,-4.3544808,105.10341552,-9.00689976,-40.5654264
6.66,666,-0.133,-0.965,0.277,1.145916,0.11459160000000004,-4.7555514,105.11487468,-8.96106312,-40.55396724000001
6.67,667,-0.136,-0.964,0.278,1.145916,0.6302538000000001,-5.1566220000000005,105.12060426,-8.91522648,-40.53104892
6.68,668,-0.138,-0.963,0.276,0.8594370000000001,1.0313244,-5.5003968,105.12060426,-8.83501236,-40.50240102
6.6899999999999995,669,-0.136,-0.963,0.276,0.6302538000000001,1.3750992,-5.5576926,105.12060426,-8.78917572,-40.47948270000001
6.7,670,-0.133,-0.961,0.274,0.6302538000000001,1.0886202,-5.2712136,105.12633384,-8.7376095,-40.4508348
6.71,671,-0.128,-0.964,0.272,0.7448454000000001,0.3437748,-4.9847345999999995,105.13206342,-8.691772859999999,-40.43364606
6.72,672,-0.121,-0.967,0.271,0.8021411999999999,0.286479,-4.6409598,105.13779300000002,-8.64593622,-40.4221869
6.7299999999999995,673,-0.114,-0.968,0.271,0.6302538000000001,0.1718874,-4.583664,105.12633384,-8.53134462,-40.40499816
6.74,674,-0.11,-0.968,0.274,0.6302538000000001,0.0,-4.6982556,105.13206342,-8.48550798,-40.38780942
6.75,675,-0.108,-0.969,0.275,0.4583664000000001,-0.057295800000000015,-4.8701430000000006,105.13206342,-8.43967134,-40.37635026
