TimeStamp(s),FrameCounter,AccX,AccY,AccZ,GyrX,GyrY,GyrZ,EulerX,EulerY,EulerZ
0.01,1,-0.08,-0.9990000000000001,-0.07,-1.0313244000000001,-0.2291832000000001,0.0,85.82910840000002,-4.2398892,-20.00769336
0.02,2,-0.08,-0.998,-0.07200000000000001,-1.432395,-0.2291832000000001,0.0,85.81191966,-4.2398892,-20.01342294
0.03,3,-0.079,-0.998,-0.07200000000000001,-1.5469866,-0.2291832000000001,0.11459160000000004,85.79473092,-4.2398892,-20.01342294
0.04,4,-0.08,-0.998,-0.073,-1.6042823999999998,-0.40107059999999994,0.057295800000000015,85.77754218,-4.24561878,-20.01915252
0.05,5,-0.08,-1.0,-0.07400000000000001,-1.6615782,-0.3437748,0.057295800000000015,85.73170554,-4.24561878,-20.01342294
0.060000000000000005,6,-0.079,-1.002,-0.073,-1.7188740000000002,-0.40107059999999994,0.057295800000000015,85.7145168,-4.25134836,-20.01915252
0.06999999999999999,7,-0.076,-1.001,-0.07200000000000001,-1.7761698000000001,-0.286479,0.057295800000000015,85.69732806,-4.25134836,-20.024882100000006
0.08,8,-0.077,-1.001,-0.07200000000000001,-1.8907614,-0.3437748,0.057295800000000015,85.67440974,-4.25134836,-20.024882100000006
0.09,9,-0.079,-1.002,-0.073,-2.0053530000000004,-0.286479,0.057295800000000015,85.65722099999998,-4.25134836,-20.03061168
0.09999999999999999,10,-0.08,-1.0,-0.07400000000000001,-2.0053530000000004,-0.1718874,0.11459160000000004,85.61138436,-4.25707794,-20.03061168
0.11,11,-0.08199999999999999,-1.001,-0.07200000000000001,-2.1199446,0.0,0.057295800000000015,85.58846604,-4.25707794,-20.03061168
0.12,12,-0.086,-1.001,-0.07400000000000001,-2.1199446,0.057295800000000015,0.1718874,85.56554772,-4.26280752,-20.024882100000006
0.13,13,-0.086,-1.0,-0.07400000000000001,-2.0053530000000004,0.11459160000000004,0.2291832000000001,85.54835898,-4.26280752,-20.024882100000006
0.14,14,-0.084,-1.0,-0.07400000000000001,-1.8334656000000005,0.2291832000000001,0.286479,85.52544065999999,-4.2685371,-20.024882100000006
0.15000000000000002,15,-0.081,-0.9990000000000001,-0.075,-1.7188740000000002,0.5156622000000001,0.3437748,85.47960402,-4.27426668,-20.01342294
0.16,16,-0.078,-0.997,-0.073,-1.8907614,0.6875496,0.2291832000000001,85.46241528,-4.27426668,-20.00769336
0.17,17,-0.077,-0.998,-0.076,-2.1772404,0.7448454000000001,0.286479,85.43949696000001,-4.27999626,-19.9962342
0.18000000000000002,18,-0.077,-0.9990000000000001,-0.077,-2.1772404,0.6875496,0.286479,85.41657864,-4.27999626,-19.99050462
0.19,19,-0.078,-1.001,-0.078,-2.1199446,0.572958,0.3437748,85.39366032000002,-4.28572584,-19.98477504
0.2,20,-0.079,-1.001,-0.08,-2.1772404,0.4583664000000001,0.286479,85.3420941,-4.29145542,-19.97331588
0.21000000000000002,21,-0.08,-1.002,-0.081,-2.291832,0.3437748,0.286479,85.31917578,-4.29145542,-19.97331588
0.22,22,-0.083,-1.002,-0.083,-2.4637194,0.40107059999999994,0.2291832000000001,85.29625746,-4.297185000000002,-19.9675863
0.23,23,-0.084,-1.003,-0.084,-2.6356068,0.6302538000000001,0.1718874,85.26760956,-4.297185000000002,-19.96185672
0.24000000000000002,24,-0.084,-1.004,-0.084,-2.6929026,0.8594370000000001,0.11459160000000004,85.23896166,-4.297185000000002,-19.950397560000006
0.25,25,-0.083,-1.003,-0.085,-2.6929026,1.2605076000000002,0.057295800000000015,85.18739544,-4.30291458,-19.93320882
0.26,26,-0.085,-1.004,-0.085,-2.9220858,1.7188740000000002,0.0,85.15874754000002,-4.30291458,-19.92174966
0.27,27,-0.08199999999999999,-1.003,-0.083,-2.9793816000000004,2.0053530000000004,0.11459160000000004,85.12437006,-4.30291458,-19.89883134
0.28,28,-0.084,-1.002,-0.08900000000000001,-3.2085647999999996,2.3491277999999998,0.2291832000000001,85.08999258,-4.30291458,-19.87591302
0.29000000000000004,29,-0.084,-1.001,-0.09,-3.0939732,2.3491277999999998,0.286479,85.0556151,-4.30864416,-19.8529947
0.3,30,-0.08199999999999999,-1.0,-0.091,-2.86479,2.1199446,0.286479,85.00977845999998,-4.30864416,-19.8243468
0.31,31,-0.081,-0.996,-0.09300000000000001,-2.5783110000000002,1.9480572,0.11459160000000004,84.98113056000003,-4.31437374,-19.80715806
0.32,32,-0.078,-0.9940000000000001,-0.09300000000000001,-2.4637194,1.7188740000000002,0.0,84.95248266,-4.30864416,-19.78996932
0.33,33,-0.076,-0.9940000000000001,-0.094,-2.5210152000000003,1.6042823999999998,-0.057295800000000015,84.92383476,-4.30864416,-19.77278058
0.34,34,-0.07400000000000001,-0.9940000000000001,-0.09,-2.4637194,1.2605076000000002,0.057295800000000015,84.90091644,-4.30864416,-19.76132142
0.35000000000000003,35,-0.075,-0.9990000000000001,-0.09,-2.4064236,0.6875496,0.11459160000000004,84.84935021999998,-4.30291458,-19.74986226
0.36000000000000004,36,-0.076,-1.002,-0.091,-2.3491277999999998,0.11459160000000004,-0.057295800000000015,84.82070232,-4.30291458,-19.74986226
0.37,37,-0.077,-0.996,-0.09,-2.1772404,0.0,-0.286479,84.79778400000002,-4.30291458,-19.74986226
0.38,38,-0.077,-0.9890000000000001,-0.09300000000000001,-1.8907614,-0.11459160000000004,-0.3437748,84.78059526000001,-4.297185000000002,-19.75559184
0.39,39,-0.079,-0.983,-0.094,-1.6042823999999998,-0.057295800000000015,-0.3437748,84.76340652,-4.297185000000002,-19.75559184
0.4,40,-0.081,-0.982,-0.09300000000000001,-1.3750992,-0.11459160000000004,-0.2291832000000001,84.70038114,-4.30291458,-19.74986226
0.41000000000000003,41,-0.084,-0.985,-0.09300000000000001,-1.2032118,-0.1718874,-0.057295800000000015,84.68892198,-4.30291458,-19.74986226
0.42000000000000004,42,-0.085,-0.99,-0.091,-1.2032118,-0.057295800000000015,-0.11459160000000004,84.67746281999997,-4.30291458,-19.74986226
0.43,43,-0.086,-0.991,-0.087,-1.0313244000000001,-0.1718874,-0.286479,84.66600365999999,-4.297185000000002,-19.75559184
0.44,44,-0.087,-0.9940000000000001,-0.086,-0.9740286,-0.2291832000000001,-0.6875496,84.6545445,-4.29145542,-19.75559184
0.45,45,-0.085,-0.9990000000000001,-0.08800000000000001,-1.0313244000000001,0.0,-0.8594370000000001,84.60870786,-4.29145542,-19.74986226
0.46,46,-0.08199999999999999,-1.001,-0.092,-1.145916,-0.1718874,-1.3178034,84.59724870000002,-4.27999626,-19.74986226
0.47000000000000003,47,-0.079,-0.998,-0.094,-1.0313244000000001,-0.286479,-1.9480572,84.59151912,-4.26280752,-19.75559184
0.48000000000000004,48,-0.076,-0.995,-0.09,-0.8021411999999999,-0.11459160000000004,-2.4637194,84.58005996,-4.2398892,-19.76132142
0.49,49,-0.079,-0.991,-0.094,-0.7448454000000001,0.0,-3.0939732,84.57433037999998,-4.20551172,-19.767051
0.5,50,-0.083,-0.988,-0.092,-0.3437748,0.5156622000000001,-3.9534102,84.55141205999998,-4.17686382,-19.76132142
0.51,51,-0.084,-0.9990000000000001,-0.09300000000000001,0.0,1.3178034,-4.8701430000000006,84.55141205999998,-4.1252976000000015,-19.74986226
0.52,52,-0.08199999999999999,-1.014,-0.10099999999999999,-1.0313244000000001,3.0366774,-6.0160589999999985,84.5399529,-4.06227222,-19.72694394
0.53,53,-0.078,-1.037,-0.10099999999999999,-2.1199446,4.9847346,-7.0473834,84.51703458,-3.98778768,-19.6811073
0.54,54,-0.08,-1.054,-0.10099999999999999,-2.9793816000000004,7.448453999999999,-8.021412000000002,84.47692752,-3.90757356,-19.61808192
0.55,55,-0.07400000000000001,-1.056,-0.092,-3.0939732,9.9121734,-8.7089616,84.43682046,-3.810170700000002,-19.52640864
0.56,56,-0.064,-1.04,-0.078,-2.7501984,11.917526400000002,-8.8235532,84.40244298,-3.71849742,-19.41754662
0.5700000000000001,57,-0.051,-1.012,-0.068,-2.1199446,14.209358400000001,-8.250595200000001,84.3680655,-3.62682414,-19.28576628
0.5800000000000001,58,-0.034,-0.985,-0.055999999999999994,-0.9740286,16.272007199999994,-7.0473834,84.34514718,-3.54088044,-19.13106762
0.59,59,-0.018000000000000002,-0.9640000000000001,-0.033,0.6875496,18.162768600000003,-5.2712136,84.3394176,-3.47785506,-18.95345064
0.6,60,-0.002,-0.9570000000000001,-0.021,2.291832,19.9962342,-3.0366774,84.35660634000001,-3.42055926,-18.7643745
0.61,61,0.01,-0.9570000000000001,-0.011000000000000001,2.6929026,20.3973048,-1.145916,84.37379508000002,-3.39764094,-18.5638392
0.62,62,0.026000000000000002,-0.9590000000000001,-0.002,3.2085647999999996,19.9389384,0.3437748,84.39098382,-3.38618178,-18.3633039
0.63,63,0.045,-0.968,0.006999999999999999,3.2085647999999996,18.621135,1.4896908000000002,84.40817256,-3.38618178,-18.17995734
0.64,64,0.063,-0.976,0.011000000000000001,2.9220858,16.902261,2.291832,84.42536129999998,-3.39764094,-18.00806994
0.65,65,0.075,-0.986,0.012,2.8074942000000003,15.126091199999998,2.86479,84.45973878,-3.38618178,-17.86483044
0.66,66,0.083,-0.992,0.013999999999999999,2.86479,13.407217200000002,3.3231564,84.4826571,-3.4091001000000003,-17.72732052
0.67,67,0.081,-1.003,0.011000000000000001,2.9220858,11.688343199999998,3.4950437999999995,84.49984584,-3.4377480000000005,-17.606999339999994
0.68,68,0.07,-1.01,0.009000000000000001,2.5210152000000003,9.8548776,3.5523396000000003,84.52276416000002,-3.4663959,-17.50959648
0.6900000000000001,69,0.055,-1.015,0.001,2.2345362,9.1100322,3.7815228,84.5399529,-3.50077338,-17.412193620000004
0.7000000000000001,70,0.037000000000000005,-1.014,-0.002,1.8334656000000005,9.1100322,4.1252976000000015,84.56860079999998,-3.50650296,-17.326249920000002
0.7100000000000001,71,0.02,-1.01,-0.013000000000000001,1.6042823999999998,9.3392154,4.5263682,84.57433037999998,-3.54661002,-17.22884706
0.72,72,-0.001,-1.012,-0.03,0.8021411999999999,9.453807,4.583664,84.58005996,-3.58671708,-17.131444199999994
0.73,73,-0.016,-1.014,-0.047,0.1718874,9.396511199999999,4.0680017999999984,84.57433037999998,-3.62109456,-17.034041339999998
0.74,74,-0.019,-1.015,-0.065,-0.7448454000000001,8.9954406,3.6096353999999997,84.55714164,-3.64974246,-16.94236806
0.75,75,-0.016,-1.016,-0.087,-1.145916,8.193299399999999,3.2085647999999996,84.53422332,-3.65547204,-16.86215394
0.76,76,-0.01,-1.015,-0.10099999999999999,-2.5783110000000002,6.0733548,3.2085647999999996,84.50557542,-3.68411994,-16.79912856
0.77,77,0.0,-1.014,-0.11699999999999999,-4.5263682,4.1825934,3.0366774,84.4540092,-3.71276784,-16.753291920000002
0.78,78,0.015,-1.003,-0.136,-6.4744254,2.4637194,2.5783110000000002,84.38525424,-3.73568616,-16.7303736
0.79,79,0.023,-0.9740000000000001,-0.14300000000000002,-8.307891,0.9167328000000001,1.2605076000000002,84.29931054,-3.752874900000001,-16.71891444
0.8,80,0.016,-0.9229999999999999,-0.157,-10.026765,-0.40107059999999994,-0.9167328000000001,84.17898936,-3.7242269999999995,-16.72464402
0.81,81,-0.011000000000000001,-0.861,-0.168,-9.682990199999999,-2.1199446,-4.297185,84.0815865,-3.68411994,-16.753291920000002
0.8200000000000001,82,-0.052000000000000005,-0.802,-0.161,-7.6203414,-4.0680017999999984,-8.8235532,84.00710196,-3.59817624,-16.80485814
0.8300000000000001,83,-0.099,-0.779,-0.14300000000000002,-7.6776372,-5.844171599999999,-13.407217200000002,83.938347,-3.47212548,-16.873613100000004
0.8400000000000001,84,-0.11900000000000001,-0.82,-0.138,-12.6623718,-8.021412000000002,-17.6471064,83.81229624,-3.3059676599999994,-16.976745540000003
0.85,85,-0.111,-0.909,-0.134,-17.8189938,-10.084060800000001,-19.4232762,83.63467926,-3.12835068,-17.09706672
0.86,86,-0.1,-1.02,-0.14,-20.05353,-13.120738199999998,-19.767051000000002,83.43987354000002,-2.94500412,-17.251765380000002
0.87,87,-0.09,-1.126,-0.111,-19.136797199999997,-15.297978599999999,-19.308684600000007,83.25652698,-2.77311672,-17.42365278
0.88,88,-0.10300000000000001,-1.186,-0.061,-15.928232399999999,-15.6417534,-17.761698000000006,83.1075579,-2.61268848,-17.60126976
0.89,89,-0.128,-1.204,-0.003,-10.657018800000001,-13.750992000000002,-14.7250206,83.00442546000002,-2.48090814,-17.755968420000006
0.9,90,-0.15,-1.19,0.026000000000000002,-7.448453999999999,-12.1467096,-11.5737516,82.94712966,-2.38923486,-17.88774876
0.91,91,-0.17300000000000001,-1.129,0.051,-6.703608600000001,-11.0580894,-8.250595200000001,82.88410428,-2.3147503200000004,-18.00806994
0.92,92,-0.18,-1.0959999999999999,0.073,-5.958763200000001,-9.8548776,-4.583664,82.83253806,-2.28037284,-18.11120238
0.93,93,-0.172,-1.097,0.094,-7.448453999999999,-8.307891,-1.7188740000000002,82.75805352,-2.2746432600000004,-18.197146080000003
0.9400000000000001,94,-0.155,-1.113,0.10099999999999999,-9.9694692,-6.990087599999999,0.8021411999999999,82.66065066,-2.28610242,-18.26590104
0.9500000000000001,95,-0.13,-1.135,0.096,-12.9488508,-6.2452422,2.6929026,82.55751822,-2.33193906,-18.32892642
0.9600000000000001,96,-0.102,-1.143,0.078,-15.9855282,-6.0160589999999985,4.6409598,82.39708998,-2.38350528,-18.38049264
0.97,97,-0.078,-1.133,0.059000000000000004,-18.907614,-6.6463128000000005,6.589017,82.20801384,-2.45798982,-18.44351802
0.98,98,-0.06,-1.119,0.033,-21.0848544,-8.136003599999999,8.651665800000002,82.00174896,-2.55539268,-18.51227298
0.99,99,-0.052000000000000005,-1.084,0.023,-21.485925,-8.9954406,10.7143146,81.78402492,-2.6699842800000004,-18.58675752
1.0,100,-0.057,-1.03,0.032,-20.912967000000002,-9.2819196,11.802934800000001,81.59494878,-2.80176462,-18.66697164
1.01,101,-0.069,-0.98,0.028999999999999998,-20.2827132,-9.568398599999998,12.0894138,81.39441348,-2.93354496,-18.74718576
1.02,102,-0.092,-0.93,0.027999999999999997,-20.1108258,-9.9121734,11.917526400000002,81.19387818,-3.0653253000000005,-18.82739988
1.03,103,-0.11,-0.892,0.021,-20.05353,-10.1986524,11.45916,80.99907246000002,-3.1913760600000005,-18.91334358
1.04,104,-0.132,-0.867,0.013999999999999999,-19.480572,-9.9694692,10.886202,80.80426674,-3.3116972399999995,-18.9935577
1.05,105,-0.149,-0.852,0.015,-18.277360199999997,-9.3392154,10.084060800000001,80.63810892000002,-3.4377480000000005,-19.07377182
1.06,106,-0.162,-0.845,0.022000000000000002,-17.5325148,-8.021412000000002,9.2819196,80.46622152,-3.54088044,-19.14252678
1.07,107,-0.16899999999999998,-0.847,0.03,-16.501190400000002,-6.5317212,7.9641161999999985,80.30579328,-3.63255372,-19.194093
1.08,108,-0.174,-0.856,0.033,-14.0947668,-4.3544808,6.130650599999999,80.16255378,-3.70130868,-19.22847048
1.09,109,-0.17300000000000001,-0.8640000000000001,0.038,-11.688343199999998,-3.0366774,4.4690724,80.04796218,-3.74714532,-19.2513888
1.1,110,-0.174,-0.875,0.049,-9.5111028,-1.3178034,2.6356068,79.99639596,-3.810170700000002,-19.26284796
1.11,111,-0.177,-0.884,0.049,-8.250595200000001,0.6302538000000001,1.3750992,79.91045226,-3.82162986,-19.2513888
1.12,112,-0.177,-0.899,0.063,-7.5057497999999985,2.8074942000000003,0.5156622000000001,79.83023813999998,-3.82162986,-19.2227409
1.1300000000000001,113,-0.17600000000000002,-0.914,0.068,-7.734933000000002,5.042030400000002,0.0,79.75002402,-3.81590028,-19.17690426
1.1400000000000001,114,-0.16899999999999998,-0.93,0.063,-7.5057497999999985,6.4744254,0.0,79.66980989999998,-3.810170700000002,-19.11387888
1.1500000000000001,115,-0.157,-0.951,0.057,-6.5317212,7.448453999999999,-0.11459160000000004,79.65835074,-3.82162986,-19.04512392
1.1600000000000001,116,-0.142,-0.961,0.049,-5.72958,8.479778399999999,-0.5156622000000001,79.59532535999998,-3.80444112,-18.95918022
1.17,117,-0.128,-0.9670000000000001,0.045,-4.9847346,9.2819196,-1.0313244000000001,79.53802956,-3.7815228,-18.87323652
1.18,118,-0.11599999999999999,-0.973,0.047,-4.8701430000000006,10.2559482,-1.7761698000000001,79.48073375999998,-3.74714532,-18.77583366
1.19,119,-0.113,-0.977,0.048,-5.6722842,11.401864199999999,-2.6929026,79.4119788,-3.70703826,-18.66697164
1.2,120,-0.11800000000000001,-0.983,0.045,-6.875496000000001,12.4904844,-3.5523396000000003,79.37187173999997,-3.66120162,-18.55810962
1.21,121,-0.122,-0.987,0.038,-7.9641161999999985,13.2926256,-4.5263682,79.28019846,-3.59817624,-18.43778844
1.22,122,-0.13,-0.995,0.027999999999999997,-8.193299399999999,12.834259199999998,-5.2712136,79.18852518,-3.5236917,-18.32319684
1.23,123,-0.136,-1.008,0.013999999999999999,-8.193299399999999,12.2040054,-5.5003968,79.0968519,-3.45493674,-18.21433482
1.24,124,-0.14,-1.023,0.009000000000000001,-7.906820400000001,11.745639,-5.3285094000000015,79.00517862,-3.380452200000001,-18.11120238
1.25,125,-0.151,-1.04,0.011000000000000001,-8.651665800000002,11.8602306,-5.2712136,78.94215324000002,-3.32888598,-18.002340359999994
1.26,126,-0.171,-1.051,0.016,-8.9381448,13.3499214,-5.0993262,78.84475038,-3.25440144,-17.88201918
1.27,127,-0.20199999999999999,-1.065,0.031,-9.2819196,14.667724800000002,-5.3858052,78.73588836,-3.1799169000000003,-17.75023884
1.28,128,-0.228,-1.083,0.059000000000000004,-8.8235532,16.4438946,-6.5317212,78.6384855,-3.08824362,-17.606999339999994
1.29,129,-0.248,-1.113,0.076,-7.2765666,18.277360199999997,-8.193299399999999,78.5525418,-2.9793816000000004,-17.44084152
1.3,130,-0.255,-1.141,0.099,-5.0993262,20.2827132,-9.7975818,78.51243473999997,-2.86479,-17.26322454
1.31,131,-0.257,-1.195,0.066,-4.8128472,21.829699800000004,-10.7716104,78.44940936,-2.7215505,-17.0741484
1.32,132,-0.221,-1.251,0.028999999999999998,-5.5003968,19.8243468,-9.9694692,78.38065440000003,-2.58977016,-16.89653142
1.33,133,-0.153,-1.3119999999999998,-0.047,-7.5630456000000015,14.9542038,-6.990087599999999,78.30044028,-2.49809688,-16.77048066
1.34,134,-0.057,-1.382,-0.10800000000000001,-10.828906199999999,5.2139178,-2.0053530000000004,78.18584868,-2.46944898,-16.72464402
1.35,135,0.048,-1.4409999999999998,-0.127,-12.318597,-8.59437,3.380452200000001,78.0655275,-2.51528562,-16.79912856
1.36,136,0.131,-1.454,-0.142,-11.5737516,-21.944291399999997,8.7089616,77.96239505999998,-2.6413363800000003,-16.999663860000002
1.37,137,0.19399999999999998,-1.389,-0.195,-7.6203414,-26.929026,13.8655836,77.89936967999998,-2.82468294,-17.23457664
1.3800000000000001,138,0.21100000000000002,-1.3,-0.265,-0.9740286,-25.78311,17.18874,77.90509926,-3.04240698,-17.45230068
1.3900000000000001,139,0.165,-1.2409999999999999,-0.304,6.4744254,-24.809081399999997,15.6990492,77.98531338000002,-3.2372127,-17.65856556
1.4000000000000001,140,0.062,-1.207,-0.276,11.5737516,-26.9863218,13.464512999999998,78.11709372,-3.4091001000000003,-17.89347834
1.4100000000000001,141,-0.08900000000000001,-1.158,-0.26,13.636400400000001,-25.2674478,11.3445684,78.27179238,-3.56379876,-18.11693196
1.42,142,-0.218,-1.123,-0.24600000000000002,17.18874,-21.5432208,6.0160589999999985,78.46659809999998,-3.65547204,-18.31173768
1.43,143,-0.285,-1.097,-0.263,16.1001198,-16.4438946,0.057295800000000015,78.6384855,-3.68411994,-18.47216592
1.44,144,-0.273,-1.075,-0.309,12.4904844,-11.0007936,-2.3491277999999998,78.77599542,-3.67839036,-18.58102794
1.45,145,-0.21600000000000005,-1.042,-0.38,9.6256944,-6.703608600000001,-0.057295800000000015,78.8390208,-3.71276784,-18.63832374
1.46,146,-0.134,-0.987,-0.40700000000000003,9.5111028,-2.86479,3.8961144,78.93642365999997,-3.752874900000001,-18.66124206
1.47,147,-0.09,-0.912,-0.414,8.021412000000002,0.6875496,7.333862400000001,79.01663778,-3.82735944,-18.63832374
1.48,148,-0.09699999999999999,-0.863,-0.423,5.2139178,4.8128472,10.1986524,79.06247442,-3.91330314,-18.56956878
1.49,149,-0.078,-0.845,-0.39899999999999997,4.5263682,5.042030400000002,11.401864199999999,79.10831106,-4.01643558,-18.50081382
1.5,150,-0.04,-0.848,-0.359,4.6982555999999995,3.1512689999999997,11.2299768,79.10258148,-4.11383844,-18.44351802
1.51,151,0.01,-0.8420000000000001,-0.325,4.9274388,1.7188740000000002,9.8548776,79.14841812,-4.20551172,-18.40341096
1.52,152,0.028999999999999998,-0.8390000000000001,-0.29600000000000004,7.0473834,0.9167328000000001,7.6776372,79.22290266,-4.27999626,-18.38049264
1.53,153,0.027999999999999997,-0.862,-0.264,9.9694692,-0.1718874,5.0993262,79.32030552,-4.325832900000001,-18.37476306
1.54,154,0.019,-0.887,-0.24,12.1467096,-2.0053530000000004,1.8907614,79.44635628,-4.34875122,-18.38622222
1.55,155,0.002,-0.919,-0.222,15.2406828,-3.2085647999999996,-1.7188740000000002,79.58959578,-4.3201033199999985,-18.4205997
1.56,156,-0.013999999999999999,-0.9440000000000001,-0.201,17.5325148,-4.4690724,-5.5003968,79.77294234,-4.2685371,-18.47216592
1.57,157,-0.024,-0.9540000000000001,-0.195,18.334656,-4.9847346,-7.7922288,79.96201848,-4.19978214,-18.5351913
1.58,158,-0.032,-0.9440000000000001,-0.19,18.5638392,-4.6982555999999995,-8.9954406,80.1568242,-4.11383844,-18.5924871
1.59,159,-0.027000000000000003,-0.9279999999999999,-0.17600000000000002,18.6784308,-4.4690724,-8.9954406,80.35162992,-4.03362432,-18.6497829
1.6,160,-0.022000000000000002,-0.9109999999999999,-0.168,17.8189938,-3.4950437999999995,-8.078707799999998,80.5292469,-3.94768062,-18.69561954
1.61,161,-0.023,-0.889,-0.16699999999999998,15.928232399999999,-2.0626488000000003,-6.4744254,80.69540472,-3.88465524,-18.729997020000006
1.62,162,-0.024,-0.8740000000000001,-0.166,13.464512999999998,-1.4896908000000002,-4.5263682,80.83291464,-3.84454818,-18.74718576
1.6300000000000001,163,-0.02,-0.865,-0.16,10.313244000000001,-1.5469866,-2.6356068,80.94177666,-3.81590028,-18.77010408
1.6400000000000001,164,-0.009000000000000001,-0.8640000000000001,-0.153,6.4744254,-2.6929026,-0.9167328000000001,81.00480204,-3.810170700000002,-18.7930224
1.6500000000000001,165,0.006,-0.863,-0.15,4.1825934,-3.9534102,-0.286479,81.03917952,-3.78725238,-18.83885904
1.6600000000000001,166,0.012,-0.863,-0.152,2.4064236,-4.8701430000000006,-0.286479,81.06782741999999,-3.79298196,-18.88469568
1.6700000000000002,167,0.017,-0.858,-0.154,1.5469866,-5.6149884000000005,-0.6875496,81.09074574,-3.79298196,-18.94199148
1.68,168,0.022000000000000002,-0.851,-0.14800000000000002,0.572958,-6.4744254,-1.145916,81.10220489999998,-3.78725238,-19.00501686
1.69,169,0.023,-0.838,-0.142,0.286479,-7.1046792000000005,-1.8334656000000005,81.11366405999998,-3.77579322,-19.079501399999998
1.7,170,0.018000000000000002,-0.838,-0.128,0.6302538000000001,-7.734933000000002,-2.291832,81.11939364,-3.74714532,-19.165445100000003
1.71,171,0.017,-0.838,-0.114,0.572958,-8.078707799999998,-2.4064236,81.13658238,-3.7299565800000014,-19.24565922
1.72,172,0.008,-0.845,-0.096,1.0313244000000001,-8.7089616,-2.1772404,81.15377112,-3.71849742,-19.337332500000002
1.73,173,0.001,-0.857,-0.083,1.7188740000000002,-8.479778399999999,-1.9480572,81.17668943999998,-3.71276784,-19.4232762
1.74,174,-0.001,-0.87,-0.063,2.5783110000000002,-8.078707799999998,-1.2032118,81.21106692,-3.70703826,-19.50349032
1.75,175,-0.002,-0.877,-0.048,3.3231564,-7.8495246,-0.11459160000000004,81.26836272,-3.70130868,-19.58370444
1.76,176,-0.012,-0.879,-0.037000000000000005,3.4950437999999995,-6.990087599999999,1.0886202,81.30846978000002,-3.71849742,-19.652459399999998
1.77,177,-0.023,-0.875,-0.02,3.6669312000000014,-6.130650599999999,2.0626488000000003,81.34857683999998,-3.74714532,-19.7097552
1.78,178,-0.040999999999999995,-0.867,-0.013999999999999999,3.4950437999999995,-5.042030400000002,2.8074942000000003,81.3886839,-3.7815228,-19.75559184
1.79,179,-0.062,-0.852,-0.016,2.6929026,-3.4950437999999995,3.0939732,81.42306138000002,-3.81590028,-19.78423974
1.8,180,-0.068,-0.843,-0.017,2.1199446,-1.432395,3.3231564,81.46889802,-3.85600734,-19.7956989
1.81,181,-0.06,-0.84,-0.02,1.432395,0.0,3.5523396000000003,81.48035718,-3.89038482,-19.78996932
1.82,182,-0.036000000000000004,-0.855,-0.012,1.2605076000000002,0.6875496,4.583664,81.49181634,-3.93049188,-19.77851016
1.83,183,0.005,-0.879,0.005,1.9480572,0.286479,6.2452422,81.51473466,-3.99351726,-19.76132142
1.84,184,0.04,-0.9109999999999999,0.027000000000000003,2.8074942000000003,-1.8334656000000005,8.651665800000002,81.54338256,-4.0794609600000005,-19.77278058
1.85,185,0.069,-0.951,0.036000000000000004,3.3231564,-4.5263682,11.1153852,81.6178671,-4.1539455,-19.812887640000003
1.86,186,0.085,-0.9840000000000001,0.049,4.3544808,-7.1046792000000005,12.7196676,81.66943332,-4.28572584,-19.86445386
1.87,187,0.08199999999999999,-1.014,0.052000000000000005,4.7555514,-8.9954406,12.9488508,81.72672911999999,-4.42896534,-19.93320882
1.8800000000000001,188,0.065,-1.035,0.037000000000000005,3.8388186,-10.3705398,12.0894138,81.77256575999998,-4.5550161000000005,-20.01915252
1.8900000000000001,189,0.04,-1.041,0.01,2.4064236,-11.1153852,10.5424272,81.80694324,-4.675337279999999,-20.1108258
1.9000000000000001,190,0.018000000000000002,-1.035,-0.017,2.0626488000000003,-12.4904844,8.8235532,81.85850946000002,-4.749821819999998,-20.23114698
1.9100000000000001,191,0.004,-1.031,-0.039,2.3491277999999998,-13.464512999999998,6.9327918,81.89288694,-4.83003594,-20.35146816
1.9200000000000002,192,-0.006999999999999999,-1.044,-0.03,3.0939732,-12.834259199999998,4.9847346,81.93872358,-4.898790900000002,-20.47178934
1.93,193,-0.031,-1.085,-0.025,2.9793816000000004,-10.084060800000001,2.9793816000000004,81.97883064,-4.93889796,-20.5691922
1.94,194,-0.071,-1.12,-0.016,1.7761698000000001,-6.3598338,1.145916,82.00174896,-4.9560867,-20.626488
1.95,195,-0.12,-1.15,0.019,1.0313244000000001,-4.1252976000000015,-0.1718874,82.05904475999998,-4.96181628,-20.67232464
1.96,196,-0.136,-1.158,0.055,0.0,-3.5523396000000003,-1.0886202,82.06477434,-4.9560867,-20.712431700000003
1.97,197,-0.133,-1.1420000000000001,0.092,0.7448454000000001,-5.2712136,-2.0053530000000004,82.0762335,-4.94462754,-20.76399792
1.98,198,-0.11699999999999999,-1.123,0.092,2.291832,-7.2765666,-3.2658606,82.11061098,-4.91597964,-20.84421204
1.99,199,-0.1,-1.16,0.09,1.8907614,-8.250595200000001,-5.6149884000000005,82.13925888,-4.8701430000000006,-20.93015574
2.0,200,-0.127,-1.26,0.09300000000000001,-9.2819196,-2.291832,-9.568398599999998,82.05904475999998,-4.77846972,-20.9702628
2.01,201,-0.134,-1.337,0.026000000000000002,-25.55392680000001,11.9748222,-14.610429000000002,81.7897545,-4.62377106,-20.87285994
2.02,202,-0.147,-1.348,-0.14400000000000002,-29.0489706,23.777757,-20.2254174,81.47462759999998,-4.40031744,-20.67232464
2.03,203,-0.162,-1.3419999999999999,-0.26,-18.7357266,29.67922440000001,-26.2987722,81.26263314,-4.10810886,-20.42022312
2.04,204,-0.184,-1.361,-0.301,-2.5783110000000002,34.2055926,-31.627281600000003,81.21106692,-3.752874900000001,-20.13374412
2.05,205,-0.19899999999999998,-1.327,-0.355,7.6203414,36.03905820000001,-34.0337052,81.25690356,-3.380452200000001,-19.8243468
2.0599999999999996,206,-0.2,-1.265,-0.355,11.5164558,35.46610020000001,-34.4920716,81.35430642,-2.9965703400000003,-19.52640864
2.07,207,-0.139,-1.151,-0.32299999999999995,12.7196676,34.3201842,-33.804522,81.46316844,-2.61841806,-19.23992964
2.0799999999999996,208,-0.062,-1.02,-0.395,10.7716104,34.2055926,-31.9710564,81.55484172,-2.2631841,-18.94772106
2.09,209,-0.006,-0.925,-0.466,10.828906199999999,33.6326346,-29.5646328,81.65224458,-1.93086846,-18.65551248
2.0999999999999996,210,0.019,-0.882,-0.483,9.9121734,29.5646328,-29.163562199999998,81.7038108,-1.61001198,-18.40341096
2.11,211,0.001,-0.843,-0.504,6.0733548,20.2827132,-29.5646328,81.76110659999998,-1.29488508,-18.24298272
2.1199999999999997,212,0.033,-0.882,-0.469,3.3231564,8.078707799999998,-29.9657034,81.7897545,-0.9912173399999998,-18.20860524
2.13,213,0.10800000000000001,-0.966,-0.436,-0.8021411999999999,-0.9740286,-28.2468294,81.78402492,-0.7104679199999999,-18.25444188
2.1399999999999997,214,0.145,-1.033,-0.39899999999999997,1.3178034,-6.5317212,-25.152856200000002,81.80121366,-0.46982556,-18.35757432
2.15,215,0.19,-1.1179999999999999,-0.35100000000000003,-0.6302538000000001,-8.4224826,-22.2307704,81.77256575999998,-0.24637194,-18.47216592
2.1599999999999997,216,0.195,-1.145,-0.318,-1.0313244000000001,-9.167328,-18.793022399999998,81.76683618000001,-0.06875496,-18.58675752
2.17,217,0.157,-1.143,-0.298,0.40107059999999994,-9.396511199999999,-15.297978599999999,81.77256575999998,0.06302537999999999,-18.70134912
2.1799999999999997,218,0.107,-1.1079999999999999,-0.266,2.1199446,-8.9381448,-10.5424272,81.79548408,0.16042824,-18.80448156
2.19,219,0.022000000000000002,-1.062,-0.23199999999999998,6.417129599999999,-8.307891,-4.2398892,81.85850946000002,0.18907614,-18.89042526
2.1999999999999997,220,-0.031,-1.032,-0.20800000000000002,5.9014674000000005,-7.0473834,2.6356068,81.89861652,0.14323950000000002,-18.95345064
2.21,221,-0.079,-0.986,-0.183,5.2712136,-5.0993262,8.3651868,81.95018274,0.05156622,-18.9935577
2.2199999999999998,222,-0.121,-0.935,-0.162,4.2398892,-3.9534102,12.834259199999998,81.99601937999998,-0.06875496,-19.01647602
2.23,223,-0.152,-0.879,-0.149,3.0366774,-3.2658606,15.870936600000002,82.02466728,-0.22918320000000006,-19.0222056
2.2399999999999998,224,-0.172,-0.836,-0.139,1.7761698000000001,-2.3491277999999998,17.3606274,82.04758559999998,-0.40680018,-19.0222056
2.25,225,-0.182,-0.8170000000000001,-0.133,0.6302538000000001,-0.4583664000000001,16.902261,82.04185602,-0.6073354799999999,-18.99928728
2.26,226,-0.182,-0.792,-0.11800000000000001,-1.5469866,3.5523396000000003,14.5531332,82.03039686,-0.75057498,-18.94772106
2.27,227,-0.17800000000000002,-0.758,-0.114,-3.3231564,8.307891,10.5424272,81.9902898,-0.8422482600000001,-18.8503182
2.28,228,-0.172,-0.7559999999999999,-0.125,-4.2398892,13.3499214,5.72958,81.94445316,-0.8880849000000001,-18.71280828
2.29,229,-0.163,-0.7490000000000001,-0.124,-4.6409598,17.131444199999994,2.6356068,81.89288694,-0.89381448,-18.54092088
2.3,230,-0.15,-0.764,-0.114,-4.583664,21.027558600000006,1.2032118,81.83559113999998,-0.89954406,-18.32892642
2.31,231,-0.14800000000000002,-0.7909999999999999,-0.11,-4.6982555999999995,25.152856200000002,1.145916,81.77829534,-0.8880849000000001,-18.0768249
2.32,232,-0.147,-0.8220000000000001,-0.098,-5.72958,29.220858000000003,2.2345362,81.71526996,-0.87662574,-17.7903459
2.3299999999999996,233,-0.14300000000000002,-0.843,-0.08900000000000001,-6.3025379999999975,32.257535399999995,3.2085647999999996,81.64078542,-0.87089616,-17.46948942
2.34,234,-0.136,-0.862,-0.085,-7.448453999999999,34.2055926,4.4117766,81.55484172,-0.87662574,-17.12571462
2.3499999999999996,235,-0.129,-0.878,-0.075,-8.4224826,34.60666320000001,4.8701430000000006,81.46316844,-0.89381448,-16.781939819999998
2.36,236,-0.11900000000000001,-0.88,-0.069,-8.9381448,34.7212548,4.3544808,81.360036,-0.89381448,-16.43243544
2.3699999999999997,237,-0.107,-0.878,-0.061,-8.9381448,34.1482968,2.6356068,81.26263314,-0.8823553199999999,-16.09439022
2.38,238,-0.077,-0.872,-0.055999999999999994,-8.136003599999999,33.231564,0.572958,81.17095986,-0.8479778399999999,-15.76780416
2.3899999999999997,239,-0.055,-0.866,-0.047,-7.906820400000001,32.31483119999999,-1.432395,81.07928658,-0.7906820400000001,-15.452677260000002
2.4,240,-0.035,-0.856,-0.049,-7.5057497999999985,30.997027799999998,-3.5523396000000003,81.00480204,-0.72192708,-15.16046868
2.4099999999999997,241,-0.015,-0.841,-0.049,-6.1879464,29.5646328,-5.1566220000000005,80.9303175,-0.63598338,-14.87398968
2.42,242,0.002,-0.8340000000000001,-0.040999999999999995,-4.010706000000001,28.1895336,-5.9014674000000005,80.88448086000002,-0.53858052,-14.610429000000002
2.4299999999999997,243,0.017,-0.848,-0.024,-3.2658606,27.1582092,-6.1879464,80.8443738,-0.44117766,-14.3525979
2.44,244,0.024,-0.866,-0.033,-4.010706000000001,25.152856200000002,-6.4744254,80.79853716,-0.34950438,-14.11768512
2.4499999999999997,245,0.02,-0.8809999999999999,-0.047,-3.5523396000000003,22.631841,-6.875496000000001,80.76988926,-0.24637194,-13.90569066
2.46,246,0.006999999999999999,-0.9009999999999999,-0.054000000000000006,-1.7188740000000002,20.626488000000002,-7.5630456000000015,80.74697094,-0.14323950000000002,-13.716614520000002
2.4699999999999998,247,-0.006999999999999999,-0.91,-0.066,-0.2291832000000001,18.7357266,-7.8495246,80.74124136,-0.04010706,-13.54472712
2.48,248,-0.023,-0.914,-0.057999999999999996,2.5210152000000003,17.246035799999998,-7.734933000000002,80.76415968,0.05156622,-13.390028460000002
2.4899999999999998,249,-0.039,-0.946,-0.051,4.8701430000000006,16.8449652,-6.990087599999999,80.8157259,0.14323950000000002,-13.2353298
2.5,250,-0.055,-1.0,-0.037000000000000005,5.2712136,17.0741484,-5.5003968,80.89021044,0.20626488,-13.07490156
2.51,251,-0.077,-1.079,-0.023,3.5523396000000003,16.386598799999998,-3.7242269999999995,80.92458792,0.26356068,-12.920202899999998
2.52,252,-0.092,-1.143,-0.02,0.057295800000000015,13.8655836,-2.0626488000000003,80.92458792,0.30366774,-12.782692979999998
2.53,253,-0.091,-1.183,-0.013000000000000001,-3.0939732,11.2872726,-1.2032118,80.89021044,0.32658606,-12.67383096
2.54,254,-0.078,-1.192,-0.015,-5.958763200000001,9.0527364,-0.6875496,80.83291464,0.34950438,-12.58788726
2.55,255,-0.063,-1.179,-0.004,-7.5630456000000015,6.9327918,0.057295800000000015,80.78134842,0.3437748,-12.5191323
2.56,256,-0.022000000000000002,-1.1640000000000001,-0.008,-7.734933000000002,4.8701430000000006,1.5469866,80.70113429999998,0.33804522,-12.473295660000002
2.57,257,0.027000000000000003,-1.175,-0.024,-6.9327918,0.1718874,4.6409598,80.63237934,0.28647900000000004,-12.4618365
2.5799999999999996,258,0.077,-1.216,-0.035,-7.906820400000001,-7.7922288,9.0527364,80.55216521999998,0.18907614,-12.52486188
2.59,259,0.145,-1.314,-0.087,-15.068795399999999,-18.8503182,13.6936962,80.40319614,0.028647900000000007,-12.691019699999998
2.5999999999999996,260,0.195,-1.4280000000000002,-0.207,-25.4393352,-37.757932200000006,18.793022399999998,80.14536504,-0.20053530000000008,-13.02906492
2.61,261,0.25,-1.5619999999999998,-0.358,-27.903054600000004,-56.0352924,22.86102420000001,79.87607478,-0.5099326200000001,-13.54472712
2.6199999999999997,262,0.337,-1.614,-0.424,-23.14750320000001,-66.3485364,28.074942,79.65835074,-0.8880849000000001,-14.14633302
2.63,263,0.377,-1.496,-0.39799999999999996,-7.5630456000000015,-66.4058322,35.809875,79.60105494000003,-1.3349921400000002,-14.73075018
2.6399999999999997,264,0.26,-1.425,-0.465,4.7555514,-70.0154676,41.1383844,79.67553948,-1.84492476,-15.34381524
2.65,265,0.08900000000000001,-1.376,-0.429,6.130650599999999,-74.5418358,43.9458786,79.77294234,-2.38350528,-15.99698736
2.6599999999999997,266,-0.055,-1.226,-0.299,11.45916,-71.1613836,44.34694920000001,79.92764100000002,-2.9220857999999996,-16.615782
2.67,267,-0.262,-1.02,-0.235,6.6463128000000005,-62.738901,36.4974246,80.03077343999998,-3.3689930400000003,-17.16582168
2.6799999999999997,268,-0.44799999999999995,-0.9570000000000001,-0.255,2.5783110000000002,-47.326330799999994,21.829699800000004,80.09379881999998,-3.64974246,-17.589810600000003
2.69,269,-0.547,-0.9390000000000001,-0.27899999999999997,-1.7188740000000002,-32.257535399999995,10.4851314,80.09952840000003,-3.79871154,-17.89347834
2.6999999999999997,270,-0.535,-0.912,-0.337,-10.026765,-20.3973048,0.9740286,79.97347764,-3.91330314,-18.0768249
2.71,271,-0.45299999999999996,-0.884,-0.41,-14.037471,-9.8548776,-4.5263682,79.84169729999998,-3.88465524,-18.17995734
2.7199999999999998,272,-0.387,-0.87,-0.4320000000000001,-15.6990492,-1.7761698000000001,-7.161975,79.68126906,-3.81590028,-18.21433482
2.73,273,-0.29600000000000004,-0.861,-0.442,-17.4179232,3.5523396000000003,-6.589017,79.50365208,-3.74714532,-18.191416500000006
2.7399999999999998,274,-0.201,-0.867,-0.434,-17.9908812,6.130650599999999,-4.5263682,79.31457594,-3.6955791,-18.13985028
2.75,275,-0.067,-0.858,-0.40399999999999997,-17.589810600000003,5.5003968,-2.4064236,79.06247442,-3.65547204,-18.08828406
2.76,276,0.009000000000000001,-0.8540000000000001,-0.37799999999999995,-14.610429000000002,1.432395,-0.3437748,78.91350534,-3.65547204,-18.0768249
2.77,277,0.062,-0.865,-0.35100000000000003,-11.172680999999999,-2.0626488000000003,0.9167328000000001,78.80464332,-3.666931200000001,-18.09401364
2.78,278,0.053,-0.853,-0.307,-7.5057497999999985,-4.2398892,1.0886202,78.73015878,-3.68411994,-18.1341207
2.79,279,0.046,-0.855,-0.281,-4.9847346,-4.9274388,0.2291832000000001,78.68432214,-3.6955791,-18.18568692
2.8,280,0.027000000000000003,-0.818,-0.285,-5.958763200000001,-4.4690724,-2.6929026,78.58691927999998,-3.65547204,-18.23152356
2.81,281,0.019,-0.7909999999999999,-0.298,-5.3285094000000015,-2.86479,-6.875496000000001,78.53535306,-3.59244666,-18.2773602
2.82,282,0.018000000000000002,-0.792,-0.304,-4.6409598,-2.0626488000000003,-11.3445684,78.48951642,-3.48931422,-18.31746726
2.8299999999999996,283,0.025,-0.8140000000000001,-0.307,-4.4690724,-2.4064236,-14.5531332,78.44367978,-3.3518043,-18.36903348
2.84,284,0.032,-0.8370000000000001,-0.297,-4.9274388,-3.1512689999999997,-16.1001198,78.39784313999998,-3.19710564,-18.43205886
2.8499999999999996,285,0.019,-0.866,-0.29,-5.5576926,-4.1825934,-15.527161800000002,78.31762902,-3.04240698,-18.506543399999998
2.86,286,0.004,-0.888,-0.282,-6.4744254,-4.9847346,-13.636400400000001,78.25460364,-2.91635622,-18.58102794
2.8699999999999997,287,-0.012,-0.888,-0.26,-6.130650599999999,-5.443101,-11.0580894,78.19730784,-2.81895336,-18.65551248
2.88,288,-0.032,-0.8959999999999999,-0.23800000000000002,-5.5003968,-5.3285094000000015,-9.2819196,78.14574162,-2.73873924,-18.729997020000006
2.8899999999999997,289,-0.053,-0.899,-0.226,-5.7868758000000025,-4.6982555999999995,-7.8495246,78.08844581999998,-2.6699842800000004,-18.7930224
2.9,290,-0.063,-0.904,-0.226,-6.3598338,-4.1252976000000015,-6.8182002000000015,78.00823170000002,-2.61841806,-18.844588620000003
2.9099999999999997,291,-0.059000000000000004,-0.912,-0.225,-6.990087599999999,-4.010706000000001,-5.9014674000000005,77.93947674,-2.57258142,-18.89615484
2.92,292,-0.039,-0.92,-0.218,-7.5630456000000015,-3.3231564,-4.9274388,77.86499219999997,-2.52674478,-18.94199148
2.9299999999999997,293,-0.008,-0.927,-0.20800000000000002,-7.448453999999999,-2.1772404,-3.9534102,77.79050766,-2.4923672999999997,-18.97063938
2.94,294,0.01,-0.945,-0.193,-7.1046792000000005,-1.2032118,-2.3491277999999998,77.7217527,-2.47517856,-18.98782812
2.9499999999999997,295,0.022000000000000002,-0.9570000000000001,-0.184,-6.875496000000001,-0.2291832000000001,-1.0313244000000001,77.65299774,-2.4064236,-18.99928728
2.96,296,0.021,-0.968,-0.17300000000000001,-6.417129599999999,0.40107059999999994,0.0,77.58997236,-2.4064236,-18.99928728
2.9699999999999998,297,0.015,-0.9840000000000001,-0.17600000000000002,-7.1046792000000005,0.9740286,0.5156622000000001,77.51548782,-2.41215318,-18.98782812
2.98,298,0.016,-0.988,-0.17,-8.021412000000002,1.6042823999999998,0.7448454000000001,77.43527370000002,-2.41788276,-18.97063938
2.9899999999999998,299,0.013000000000000001,-0.9790000000000001,-0.158,-8.136003599999999,2.0053530000000004,0.7448454000000001,77.34933000000002,-2.42361234,-18.94772106
3.0,300,0.008,-0.971,-0.153,-8.021412000000002,2.5210152000000003,0.6875496,77.2920342,-2.39496444,-18.93053232
3.01,301,-0.004,-0.958,-0.125,-7.9641161999999985,2.1772404,0.286479,77.21182008000002,-2.39496444,-18.907614000000002
3.02,302,-0.005,-0.9540000000000001,-0.109,-8.7089616,1.7188740000000002,-0.057295800000000015,77.12014680000001,-2.39496444,-18.89042526
3.03,303,-0.008,-0.9620000000000001,-0.165,-10.7143146,3.5523396000000003,-0.11459160000000004,77.01128478000003,-2.38350528,-18.85604778
3.04,304,-0.019,-0.9540000000000001,-0.155,-11.6310474,8.479778399999999,0.0,76.88523402000001,-2.37204612,-18.77583366
3.05,305,0.040999999999999995,-0.9179999999999999,-0.055999999999999994,-7.906820400000001,7.9641161999999985,0.3437748,76.84512696,-2.33193906,-18.707078699999997
3.06,306,0.077,-0.847,-0.036000000000000004,-9.167328,3.0939732,2.1199446,76.75345368,-2.3491278,-18.67270122
3.07,307,0.07400000000000001,-0.778,-0.023,-10.886202,-7.5057497999999985,5.7868758000000025,76.64459166,-2.41788276,-18.729997020000006
3.08,308,0.094,-0.799,-0.053,-10.828906199999999,-19.194093,8.021412000000002,76.54718879999999,-2.53820394,-18.90188442
3.09,309,0.086,-0.848,-0.038,-12.4904844,-20.5691922,6.8182002000000015,76.42686762000002,-2.64706596,-19.08523098
3.0999999999999996,310,0.064,-0.929,-0.024,-14.381245800000002,-17.9335854,3.3231564,76.32946476,-2.6929026,-19.25711838
3.11,311,0.027000000000000003,-1.016,-0.057,-18.9649098,-14.9542038,-0.5156622000000001,76.14611819999998,-2.7215505,-19.40608746
3.1199999999999997,312,-0.008,-1.082,-0.057,-22.86102420000001,-15.2406828,-3.0939732,75.92266457999997,-2.72728008,-19.5665157
3.13,313,-0.008,-1.117,-0.028999999999999998,-24.923673,-15.870936600000002,-5.6722842,75.67629264,-2.71009134,-19.73267352
3.1399999999999997,314,0.006,-1.0979999999999999,-0.011000000000000001,-26.7571386,-15.2406828,-8.136003599999999,75.41846154,-2.6699842800000004,-19.90456092
3.15,315,0.009000000000000001,-1.018,0.02,-27.3873924,-14.9542038,-8.9381448,75.18354876,-2.61268848,-20.07644832
3.1599999999999997,316,-0.004,-0.9390000000000001,0.065,-29.0489706,-12.776963400000001,-7.2192707999999985,74.89706976,-2.57258142,-20.21968782
3.17,317,-0.036000000000000004,-0.855,0.071,-34.4347758,-7.8495246,-3.0939732,74.55329496,-2.56685184,-20.3113611
3.1799999999999997,318,-0.068,-0.787,0.037000000000000005,-38.0444112,-2.6929026,2.7501984,74.16368352,-2.6012293200000003,-20.32854984
3.19,319,-0.09699999999999999,-0.733,0.011000000000000001,-38.90384820000001,3.3231564,9.9694692,73.76834249999997,-2.6929026,-20.276983620000006
3.1999999999999997,320,-0.129,-0.684,-0.043,-39.9924684,6.990087599999999,16.157415599999997,73.36154232,-2.84760126,-20.168121600000006
3.21,321,-0.179,-0.634,-0.134,-39.820581,5.1566220000000005,20.626488000000002,72.95474214000002,-3.03094782,-20.05925958
3.2199999999999998,322,-0.207,-0.596,-0.158,-37.299565799999996,2.4064236,21.600516600000002,72.57086028,-3.2372127,-19.97904546
3.23,323,-0.196,-0.5579999999999999,-0.17,-32.142943800000005,0.40107059999999994,20.2827132,72.23854464,-3.43201842,-19.91602008
3.2399999999999998,324,-0.146,-0.59,-0.092,-23.9496444,-2.5783110000000002,19.652459399999998,71.99790228,-3.62682414,-19.8816426
3.25,325,-0.077,-0.64,-0.04,-21.600516600000002,-1.3178034,20.3973048,71.78590782,-3.82735944,-19.83580596
3.26,326,-0.008,-0.695,-0.040999999999999995,-22.1734746,1.0313244000000001,22.1734746,71.55672462,-4.03362432,-19.76132142
3.27,327,0.027000000000000003,-0.7190000000000001,0.013000000000000001,-21.142150199999996,5.3285094000000015,23.892348600000002,71.333271,-4.24561878,-19.63527066
3.28,328,0.059000000000000004,-0.75,0.006999999999999999,-21.0848544,11.688343199999998,24.2934192,71.1040878,-4.44615408,-19.4519241
3.29,329,0.059000000000000004,-0.752,-0.02,-21.027558600000006,15.5844576,23.0902074,70.86917502,-4.6180414800000005,-19.22847048
3.3,330,0.043,-0.726,0.006999999999999999,-17.18874,16.959556799999998,20.7983754,70.69728762,-4.7555514,-19.00501686
3.31,331,0.051,-0.6890000000000001,0.04,-12.318597,16.7876694,18.5638392,70.55404812,-4.87587258,-18.78729282
3.32,332,0.044000000000000004,-0.657,0.066,-9.453807,15.6990492,17.0168526,70.43945652,-4.99046418,-18.58102794
3.33,333,0.01,-0.632,0.085,-6.875496000000001,15.5844576,15.6990492,70.34778324,-5.0935966200000005,-18.38622222
3.34,334,-0.008,-0.603,0.114,-2.5210152000000003,15.6990492,13.8082878,70.3019466,-5.17381074,-18.191416500000006
3.3499999999999996,335,-0.035,-0.5670000000000001,0.157,4.1252976000000015,13.980175199999998,11.802934800000001,70.35924240000001,-5.23683612,-18.02525868
3.36,336,-0.021,-0.603,0.201,6.417129599999999,10.1986524,9.453807,70.41080862,-5.29413192,-17.89347834
3.3699999999999997,337,-0.016,-0.645,0.217,0.1718874,4.9274388,6.703608600000001,70.40507904,-5.3456981400000005,-17.824723380000005
3.38,338,-0.032,-0.6629999999999999,0.19399999999999998,-2.8074942000000003,-1.2032118,3.8961144,70.37643114,-5.385805199999999,-17.824723380000005
3.3899999999999997,339,-0.016,-0.711,0.203,-3.5523396000000003,-10.2559482,-0.2291832000000001,70.35351282,-5.4144530999999985,-17.92212624
3.4,340,-0.006999999999999999,-0.757,0.121,-5.2712136,-17.18874,-7.161975,70.35924240000001,-5.39153478,-18.11693196
3.4099999999999997,341,0.061,-0.807,-0.033,-2.0053530000000004,-20.454600600000006,-14.667724800000002,70.36497198,-5.31705024,-18.35757432
3.42,342,0.18899999999999997,-0.8440000000000001,-0.156,4.8701430000000006,-26.5279554,-24.0069402,70.44518609999999,-5.16808116,-18.68988996
3.4299999999999997,343,0.3,-0.7759999999999999,-0.177,9.1100322,-34.2055926,-32.4867186,70.58269602,-4.96754586,-19.11960846
3.44,344,0.371,-0.626,-0.261,8.9381448,-41.4821592,-36.4401288,70.72020594,-4.749821819999998,-19.629541080000006
3.4499999999999997,345,0.39399999999999996,-0.5,-0.385,4.010706000000001,-45.2063862,-35.8671708,70.7889609,-4.51490904,-20.17385118
3.46,346,0.406,-0.4370000000000001,-0.434,-1.6615782,-44.8626114,-30.5386614,70.81760879999999,-4.36021038,-20.70097254
3.4699999999999998,347,0.289,-0.483,-0.54,-18.793022399999998,-40.2789474,-22.6891368,70.66863972,-4.2685371,-21.15360936
3.48,348,0.10400000000000001,-0.45899999999999996,-0.732,-45.7793442,-33.5753388,-15.3552744,70.23319164,-4.23415962,-21.52603206
3.4899999999999998,349,-0.039,-0.389,-0.787,-56.0925882,-33.9764094,-7.5630456000000015,69.69461112,-4.27426668,-21.87553644
3.5,350,-0.124,-0.311,-0.8190000000000001,-69.041439,-38.8465524,-2.6356068,68.98414319999999,-4.38885828,-22.25368872
3.51,351,-0.14400000000000002,-0.182,-0.818,-82.7351352,-42.456187799999995,-1.3750992,68.182002,-4.53209778,-22.6604889
3.52,352,-0.122,-0.075,-0.701,-90.1835892,-40.8519054,-2.6929026,67.30537626,-4.65814854,-23.05582992
3.53,353,-0.084,0.032,-0.5770000000000001,-98.548776,-32.544014399999995,-6.1879464,66.33707724,-4.73263308,-23.38814556
3.54,354,-0.08199999999999999,0.132,-0.47600000000000003,-105.9399342,-21.944291399999997,-10.7716104,65.28283452000001,-4.7269035000000015,-23.64024708
3.55,355,-0.129,0.16699999999999998,-0.275,-112.586247,-4.5263682,-13.178034,64.13118893999999,-4.65241896,-23.74337952
3.56,356,-0.251,0.19,-0.24600000000000002,-125.0194356,19.194093,-11.2299768,62.853492599999996,-4.48626114,-23.62878792
3.57,357,-0.451,0.139,-0.23,-133.4419182,34.8931422,-3.3231564,61.47266382,-4.3201033199999985,-23.34230892
3.58,358,-0.613,-0.035,0.004,-141.6352176,36.38283300000001,7.2765666,60.00589134000001,-4.23415962,-22.99280454
3.59,359,-0.708,-0.409,0.124,-161.80333919999995,27.3300966,15.870936600000002,58.33285398,-4.26280752,-22.6891368
3.5999999999999996,360,-0.6759999999999999,-0.992,-0.155,-191.5971552,36.03905820000001,20.3973048,56.36187846,-4.27999626,-22.28233662
3.61,361,-0.706,-1.8630000000000002,-0.486,-247.3459686,56.436363,23.605869600000002,53.8007562,-4.19978214,-21.69218988
3.6199999999999997,362,-0.86,-3.313,-0.81,-293.4690876,63.3691548,17.18874,50.76980838000001,-4.00497642,-21.09058398
3.63,363,-0.469,-3.7430000000000003,-0.242,-207.6399792,21.199446,15.469866,48.6441342,-4.01643558,-20.83848246
3.6399999999999997,364,-0.409,-2.674,0.35100000000000003,-164.09517119999995,33.002380800000005,20.454600600000006,46.948178520000006,-3.9820581,-20.454600600000006
3.65,365,-0.327,-2.405,-0.217,-242.1893466,43.48751220000001,27.6738714,44.45008164,-3.9190327200000006,-19.950397560000006
3.6599999999999997,366,-0.233,-2.246,-0.46,-239.496444,38.7892566,29.67922440000001,41.98636224,-3.88465524,-19.46911284
3.67,367,-0.085,-2.039,-0.47700000000000004,-235.3138506,40.5654264,27.3873924,39.55702032,-3.79871154,-18.99928728
3.6799999999999997,368,-0.015,-1.861,-0.40299999999999997,-260.0083404,42.5707794,23.319390600000002,36.88703604,-3.65547204,-18.54665046
3.69,369,-0.06,-1.554,-0.284,-279.317025,42.2270046,15.2406828,34.02224604,-3.4492071599999994,-18.17422776
3.6999999999999997,370,-0.06,-1.175,-0.126,-275.2490232,36.554720399999994,5.5003968,31.226211,-3.22002396,-17.92212624
3.71,371,0.12,-0.698,0.0,-259.7218614,21.7151082,-7.6776372,28.58487462,-3.0366774000000003,-17.8762896
3.7199999999999998,372,0.304,-0.45299999999999996,0.16,-245.39791140000003,19.767051000000002,-12.2040054,26.09250732000001,-2.84187168,-17.88201918
3.73,373,0.424,-0.151,0.21,-241.0434306,18.7357266,-15.5844576,23.64597666,-2.6413363800000003,-17.9335854
3.7399999999999998,374,0.311,0.151,0.192,-241.6736844,18.162768600000003,-17.246035799999998,21.19371642,-2.44653066,-18.01379952
3.75,375,0.19699999999999998,0.44,0.01,-241.10072639999999,12.7196676,-17.475219,18.729997020000006,-2.29756158,-18.11693196
3.76,376,0.131,0.768,-0.266,-227.00595959999998,6.130650599999999,-15.3552744,16.43243544,-2.22307704,-18.23725314
3.77,377,0.062,1.064,-0.467,-205.17625980000003,5.6722842,-11.401864199999999,14.3525979,-2.1657812400000003,-18.31746726
3.78,378,0.016,1.296,-0.688,-173.83545719999995,-9.568398599999998,-11.0580894,12.59361684,-2.25172494,-18.44351802
3.79,379,-0.034,1.683,-0.951,-154.2402936,-34.091001,-7.0473834,11.03517108,-2.58977016,-18.58102794
3.8,380,-0.106,1.979,-1.082,-149.65662959999997,-45.3782736,2.8074942000000003,9.52256196,-3.05386614,-18.63259416
3.81,381,-0.152,1.871,-1.207,-149.48474219999997,-28.9916748,11.45916,8.00422326,-3.3689930400000003,-18.5638392
3.82,382,-0.24100000000000002,1.4480000000000002,-1.3880000000000001,-151.3182078,-14.381245800000002,13.980175199999998,6.462966239999997,-3.54661002,-18.43778844
3.83,383,-0.41600000000000004,1.1179999999999999,-1.621,-142.7238378,16.157415599999997,17.18874,5.0019233399999985,-3.42055926,-18.23725314
3.84,384,-0.8540000000000001,1.0,-2.502,-170.0539344,61.8221682,19.480572,3.25440144,-2.84760126,-17.973692460000006
3.8499999999999996,385,-1.11,1.245,-3.835,-178.18993799999996,85.084263,18.5638392,1.4209358399999998,-2.03973048,-17.715861359999995
3.86,386,-0.778,2.282,-3.9960000000000004,-116.1385866,54.8893764,5.9014674000000005,0.23491278,-1.51260912,-17.62418808
3.8699999999999997,387,0.085,2.63,-3.9960000000000004,-81.07355700000002,35.122325399999994,15.928232399999999,-0.59587632,-1.1745639,-17.45230068
3.88,388,0.285,1.55,-3.765,-127.196676,72.4218912,31.3980984,-1.89649098,-0.46409598,-17.12571462
3.8899999999999997,389,0.40299999999999997,1.386,-3.262,-119.1179682,63.88481700000001,26.8717302,-3.11689152,0.15469866,-16.86215394
3.9,390,0.226,1.02,-2.822,-89.3241522,74.65642740000001,22.631841,-4.03362432,0.89954406,-16.65588906
3.9099999999999997,391,0.09,0.813,-2.3930000000000002,-90.240885,79.46927459999998,12.9488508,-4.9560867,1.6844965200000002,-16.5584862
3.92,392,0.046,0.7340000000000001,-1.9369999999999998,-101.9292282,67.895523,5.5576926,-5.99887026,2.3491278,-16.53556788
3.9299999999999997,393,0.209,0.642,-1.536,-96.3142398,58.0406454,3.6096353999999997,-6.98435802,2.91062664,-16.541297460000006
3.94,394,0.39799999999999996,0.449,-1.168,-79.24009140000003,46.7533728,6.4744254,-7.792228800000001,3.37472262,-16.51837914
3.9499999999999997,395,0.5589999999999999,0.261,-0.94,-58.842786600000004,34.091001,8.9381448,-8.39956428,3.75860448,-16.466812920000002
3.96,396,0.6,0.20600000000000002,-0.782,-32.658606,24.1215318,10.313244000000001,-8.73187992,4.00497642,-16.392328380000002
3.9699999999999998,397,0.5379999999999999,0.228,-0.722,-11.745639,17.8189938,14.209358400000001,-8.84647152,4.19978214,-16.272007199999994
3.98,398,0.408,0.319,-0.679,-0.9740286,11.3445684,18.277360199999997,-8.84074194,4.33729206,-16.105849380000002
3.9899999999999998,399,0.29100000000000004,0.47200000000000003,-0.608,2.9793816000000004,8.078707799999998,18.449247600000003,-8.80063488,4.44615408,-15.93396198
4.0,400,0.17600000000000002,0.628,-0.552,5.72958,9.6256944,15.527161800000002,-8.86938984,4.5836640000000015,-15.80218164
4.01,401,0.11699999999999999,0.747,-0.502,5.1566220000000005,10.1413566,12.0894138,-8.80636446,4.6982556,-15.69331962
4.02,402,0.12300000000000001,0.81,-0.489,0.572958,10.313244000000001,8.9954406,-8.794905300000002,4.81857678,-15.61883508
4.03,403,0.158,0.816,-0.501,-0.6302538000000001,9.224623800000002,5.2139178,-8.80063488,4.91597964,-15.57872802
4.04,404,0.174,0.754,-0.523,2.9793816000000004,5.72958,0.1718874,-8.77198698,4.97327544,-15.584457600000002
4.05,405,0.19399999999999998,0.654,-0.557,4.4117766,3.1512689999999997,-4.7555514,-8.9381448,5.042030400000002,-15.65321256
4.06,406,0.193,0.539,-0.617,2.4064236,1.8334656000000005,-8.078707799999998,-8.92095606,5.04775998,-15.73342668
4.07,407,0.201,0.46799999999999997,-0.682,-0.9740286,-0.9167328000000001,-7.6203414,-8.9381448,5.02484166,-15.80791122
4.08,408,0.201,0.435,-0.727,-2.291832,-6.9327918,-2.9220858,-8.96106312,4.9560867,-15.83082954
4.09,409,0.172,0.41600000000000004,-0.746,-3.6096353999999997,-11.5164558,3.8388186,-8.9954406,4.84722468,-15.77353374
4.1,410,0.16399999999999998,0.39899999999999997,-0.762,-4.297185,-15.469866,11.5164558,-9.08711388,4.7269035000000015,-15.647482979999998
4.109999999999999,411,0.08900000000000001,0.38799999999999996,-0.802,-3.1512689999999997,-17.7044022,18.048177,-9.098573040000002,4.5836640000000015,-15.44694768
4.12,412,0.024,0.386,-0.855,2.6356068,-17.303331600000003,20.168121600000006,-9.0527364,4.4404245000000016,-15.223494059999998
4.13,413,0.0,0.366,-0.898,8.078707799999998,-14.8396122,17.761698000000006,-8.949603960000003,4.325832900000001,-15.028688340000002
4.14,414,-0.034,0.304,-0.978,8.880849000000003,-11.45916,12.776963400000001,-8.84647152,4.23415962,-14.89117842
4.1499999999999995,415,-0.09,0.223,-1.08,3.6669312000000014,-11.6310474,7.2192707999999985,-8.81782362,4.07373138,-14.799505140000004
4.16,416,-0.09,0.22699999999999998,-1.0190000000000001,1.8907614,-11.401864199999999,2.5783110000000002,-8.794905300000002,3.9648693599999993,-14.75939808
4.17,417,-0.034,0.20199999999999999,-1.028,-3.6096353999999997,-6.4744254,-0.6302538000000001,-8.83501236,3.90184398,-14.75939808
4.18,418,-0.013000000000000001,0.192,-1.14,-13.3499214,-6.1879464,-1.0886202,-8.9667927,3.8388186000000006,-14.75939808
4.1899999999999995,419,0.04,0.225,-1.061,-19.8243468,-2.86479,-3.2658606,-9.17305758,3.79871154,-14.78804598
4.2,420,0.109,0.262,-0.993,-11.5737516,0.11459160000000004,-5.1566220000000005,-9.34494498,3.810170700000002,-14.8396122
4.21,421,0.08800000000000001,0.254,-0.9259999999999999,-7.5057497999999985,-1.9480572,-6.9327918,-9.4251591,3.77579322,-14.90836716
4.22,422,0.10800000000000001,0.192,-0.924,-14.7250206,-2.6356068,-9.5111028,-9.57985776,3.73568616,-14.99431086
4.2299999999999995,423,0.14400000000000002,0.106,-0.987,-24.522602399999997,-6.1879464,-7.734933000000002,-9.83195928,3.66120162,-15.05733624
4.24,424,0.18600000000000005,0.077,-1.024,-29.736520199999998,-15.870936600000002,-5.5003968,-10.13562702,3.48931422,-15.08598414
4.25,425,0.20600000000000002,0.096,-1.0190000000000001,-25.7258142,-27.272800800000002,-5.72958,-10.38199896,3.2314831199999987,-15.10317288
4.26,426,0.20800000000000002,0.092,-0.992,-13.521808800000002,-34.66395900000001,-6.3025379999999975,-10.51950888,2.88197874,-15.10890246
4.27,427,0.17,0.048,-0.94,-3.1512689999999997,-36.554720399999994,-3.3231564,-10.5424272,2.51528562,-15.08598414
4.28,428,0.07,0.02,-0.903,-0.8594370000000001,-33.4607472,1.3178034,-10.54815678,2.19442914,-15.02295876
4.29,429,-0.012,0.036000000000000004,-0.89,-1.6042823999999998,-27.559279800000002,4.2398892,-10.55388636,1.93086846,-14.937015060000002
4.3,430,-0.09,0.055999999999999994,-0.902,1.4896908000000002,-19.079501399999998,5.9014674000000005,-10.50804972,1.70168526,-14.845341780000002
4.31,431,-0.16899999999999998,0.068,-0.9159999999999999,7.5057497999999985,-8.651665800000002,6.0733548,-10.4278356,1.6329303,-14.770857239999998
4.32,432,-0.183,0.062,-0.9420000000000001,10.657018800000001,1.7188740000000002,5.2712136,-10.31897358,1.6615782,-14.7250206
4.33,433,-0.193,0.07400000000000001,-0.9670000000000001,10.313244000000001,10.7716104,3.6669312000000014,-10.215841139999998,1.77044022,-14.707831860000002
4.34,434,-0.179,0.095,-1.003,8.9954406,18.334656,1.9480572,-10.12416786,1.95378678,-14.71356144
4.35,435,-0.127,0.115,-1.0270000000000001,9.167328,22.86102420000001,0.11459160000000004,-10.026765,2.14286292,-14.74220934
4.36,436,-0.078,0.127,-1.024,10.1986524,24.4080108,-1.6042823999999998,-9.92936214,2.38350528,-14.799505140000004
4.37,437,-0.037000000000000005,0.113,-1.011,11.172680999999999,24.064236,-2.3491277999999998,-9.82050012,2.61268848,-14.85680094
4.38,438,0.006999999999999999,0.081,-1.001,9.568398599999998,23.835052800000003,-2.6356068,-9.72882684,2.84187168,-14.914096740000002
4.39,439,0.047,0.055999999999999994,-0.998,5.443101,23.4339822,-2.9220858,-9.6829902,3.07105488,-14.97712212
4.3999999999999995,440,0.081,0.040999999999999995,-1.002,1.145916,22.6891368,-3.4377480000000005,-9.64288314,3.2945085,-15.04587708
4.41,441,0.106,0.042,-0.998,-1.6615782,20.7410796,-3.7815228,-9.66580146,3.48931422,-15.10890246
4.42,442,0.12,0.054000000000000006,-0.991,-2.9220858,17.131444199999994,-3.8388186,-9.70017894,3.65547204,-15.17192784
4.43,443,0.125,0.083,-0.982,-3.7242269999999995,12.3758928,-3.6096353999999997,-9.740286,3.77006364,-15.223494059999998
4.4399999999999995,444,0.12300000000000001,0.10800000000000001,-0.97,-3.3231564,6.0160589999999985,-3.0939732,-9.78039306,3.82162986,-15.26360112
4.45,445,0.11599999999999999,0.124,-0.9640000000000001,-2.5783110000000002,1.432395,-2.2345362,-9.77466348,3.90757356,-15.29224902
4.46,446,0.115,0.14,-0.968,-2.1199446,-1.8907614,-1.3178034,-9.797581800000001,3.88465524,-15.303708179999996
4.47,447,0.098,0.16399999999999998,-0.968,-1.4896908000000002,-3.9534102,-0.8594370000000001,-9.81477054,3.84454818,-15.30943776
4.4799999999999995,448,0.081,0.184,-0.9670000000000001,-0.9740286,-5.5003968,-0.6302538000000001,-9.82050012,3.78725238,-15.303708179999996
4.49,449,0.062,0.204,-0.97,-1.6615782,-6.5317212,-0.6875496,-9.83768886,3.7242269999999995,-15.303708179999996
4.5,450,0.053,0.23199999999999998,-0.9740000000000001,-2.7501984,-6.8182002000000015,-1.0313244000000001,-9.92936214,3.6382833,-15.303708179999996
4.51,451,0.053,0.262,-0.973,-3.0939732,-6.3598338,-1.9480572,-9.95801004,3.56952834,-15.31516734
4.52,452,0.055999999999999994,0.28,-0.973,-1.8334656000000005,-4.7555514,-3.2085647999999996,-9.98092836,3.51796212,-15.33808566
4.53,453,0.06,0.285,-0.9740000000000001,-0.11459160000000004,-2.9220858,-4.0680017999999984,-9.98092836,3.48358464,-15.37246314
4.54,454,0.07,0.285,-0.965,1.7188740000000002,-0.9167328000000001,-4.297185,-9.969469199999999,3.4663959,-15.4125702
4.55,455,0.08,0.28,-0.9570000000000001,3.3231564,0.572958,-3.7242269999999995,-10.06114248,3.47785506,-15.45840684
4.56,456,0.08900000000000001,0.271,-0.9570000000000001,4.1825934,1.8334656000000005,-2.4637194,-10.01530584,3.4950437999999995,-15.48705474
4.57,457,0.096,0.264,-0.958,4.1825934,2.7501984,-0.7448454000000001,-9.97519878,3.51796212,-15.498513899999999
4.58,458,0.10300000000000001,0.262,-0.96,3.4950437999999995,3.5523396000000003,1.145916,-9.9408213,3.5580691799999995,-15.492784320000002
4.59,459,0.10400000000000001,0.268,-0.963,2.9220858,4.1825934,2.9220858,-9.9121734,3.60390582,-15.469866
4.6,460,0.1,0.272,-0.971,2.86479,4.9274388,3.8961144,-9.95228046,3.67266078,-15.441218099999999
4.61,461,0.094,0.26899999999999996,-0.975,2.86479,4.9274388,4.2398892,-9.92363256,3.7299565800000014,-15.40684062
4.62,462,0.087,0.262,-0.971,2.6356068,4.4117766,3.9534102,-9.89498466,3.7815228,-15.37246314
4.63,463,0.081,0.248,-0.965,2.0626488000000003,3.6669312000000014,3.4950437999999995,-9.87206634,3.82162986,-15.34381524
4.64,464,0.078,0.228,-0.9670000000000001,1.145916,3.4377480000000005,3.2658606,-9.86060718,3.86173692,-15.32089692
4.6499999999999995,465,0.079,0.20199999999999999,-0.973,0.057295800000000015,3.3231564,3.2658606,-9.906443820000002,3.90184398,-15.29224902
4.66,466,0.08199999999999999,0.182,-0.972,-1.0886202,2.3491277999999998,3.4377480000000005,-9.91790298,3.93049188,-15.26360112
4.67,467,0.083,0.166,-0.972,-1.7188740000000002,0.7448454000000001,3.6096353999999997,-9.93509172,3.94195104,-15.22922364
4.68,468,0.081,0.158,-0.973,-1.2605076000000002,-1.0886202,3.2085647999999996,-9.94655088,3.93622146,-15.19484616
4.6899999999999995,469,0.076,0.157,-0.975,-0.572958,-1.6615782,2.5783110000000002,-9.94655088,3.9247623,-15.166198259999998
4.7,470,0.07,0.158,-0.972,0.286479,-1.6042823999999998,1.6615782,-9.963739620000002,3.89038482,-15.14327994
4.71,471,0.064,0.16,-0.973,0.6302538000000001,-1.2605076000000002,0.7448454000000001,-9.95228046,3.87892566,-15.13755036
4.72,472,0.06,0.161,-0.97,1.145916,-1.145916,0.0,-9.9408213,3.8674665,-15.13755036
4.7299999999999995,473,0.059000000000000004,0.16,-0.966,1.6042823999999998,-0.7448454000000001,-0.9167328000000001,-9.92936214,3.86173692,-15.14327994
4.74,474,0.06,0.16,-0.96,1.8334656000000005,-0.057295800000000015,-1.6615782,-9.906443820000002,3.85600734,-15.16046868
4.75,475,0.062,0.158,-0.9540000000000001,1.5469866,0.286479,-2.0626488000000003,-9.9121734,3.8388186000000006,-15.17765742
4.76,476,0.066,0.154,-0.955,0.6302538000000001,0.7448454000000001,-2.0053530000000004,-9.906443820000002,3.84454818,-15.20057574
4.77,477,0.071,0.156,-0.96,-0.11459160000000004,1.0313244000000001,-1.6042823999999998,-9.9121734,3.85027776,-15.21776448
4.78,478,0.075,0.159,-0.97,-0.6302538000000001,0.8594370000000001,-1.145916,-9.91790298,3.85600734,-15.22922364
4.79,479,0.078,0.162,-0.978,-0.9167328000000001,0.6302538000000001,-0.7448454000000001,-9.92936214,3.86173692,-15.240682800000002
4.8,480,0.078,0.165,-0.985,-0.9167328000000001,0.286479,-0.4583664000000001,-10.00957626,3.8674665,-15.24641238
4.81,481,0.076,0.16899999999999998,-0.986,-0.6875496,-0.11459160000000004,-0.40107059999999994,-10.01530584,3.8674665,-15.25214196
4.82,482,0.07400000000000001,0.17,-0.983,-0.4583664000000001,-0.286479,-0.572958,-10.02103542,3.86173692,-15.25787154
4.83,483,0.073,0.16899999999999998,-0.977,-0.3437748,-0.40107059999999994,-0.7448454000000001,-10.026765,3.85600734,-15.26360112
4.84,484,0.07200000000000001,0.175,-0.976,-0.3437748,-0.1718874,-1.145916,-10.026765,3.85600734,-15.27506028
4.85,485,0.071,0.18,-0.977,-0.057295800000000015,0.0,-1.145916,-10.21011156,3.82162986,-15.29224902
4.86,486,0.069,0.188,-0.978,0.40107059999999994,0.2291832000000001,-1.0886202,-10.20438198,3.82162986,-15.2979786
4.87,487,0.068,0.19399999999999998,-0.9790000000000001,0.7448454000000001,0.6302538000000001,-0.9740286,-10.1986524,3.82735944,-15.30943776
4.88,488,0.066,0.20199999999999999,-0.9740000000000001,1.0313244000000001,0.572958,-0.6875496,-10.18719324,3.83308902,-15.32089692
4.89,489,0.067,0.205,-0.9670000000000001,0.9740286,0.5156622000000001,-0.4583664000000001,-10.17573408,3.8388186000000006,-15.326626499999998
4.8999999999999995,490,0.068,0.207,-0.966,0.8021411999999999,0.6875496,-0.2291832000000001,-10.36481022,3.81590028,-15.33235608
4.91,491,0.07200000000000001,0.21100000000000002,-0.966,0.9167328000000001,0.9740286,0.0,-10.35335106,3.82735944,-15.33235608
4.92,492,0.073,0.21100000000000002,-0.9670000000000001,1.0313244000000001,1.145916,0.3437748,-10.34762148,3.8388186000000006,-15.33235608
4.93,493,0.07200000000000001,0.21,-0.9690000000000001,0.9740286,1.2605076000000002,0.572958,-10.33616232,3.85027776,-15.326626499999998
4.9399999999999995,494,0.07200000000000001,0.209,-0.972,0.9740286,1.2605076000000002,0.6302538000000001,-10.32470316,3.8674665,-15.326626499999998
4.95,495,0.071,0.207,-0.972,0.9740286,1.0313244000000001,0.572958,-10.43929476,3.85600734,-15.32089692
4.96,496,0.071,0.20600000000000002,-0.9740000000000001,0.9740286,0.7448454000000001,0.4583664000000001,-10.4278356,3.8674665,-15.32089692
4.97,497,0.07200000000000001,0.204,-0.975,1.0886202,0.6302538000000001,0.1718874,-10.41637644,3.873196080000002,-15.32089692
4.9799999999999995,498,0.07200000000000001,0.2,-0.975,1.145916,0.572958,0.057295800000000015,-10.40491728,3.87892566,-15.32089692
4.99,499,0.071,0.195,-0.973,1.2605076000000002,0.4583664000000001,-0.057295800000000015,-10.39345812,3.88465524,-15.32089692
5.0,500,0.069,0.19,-0.9690000000000001,0.9740286,0.2291832000000001,-0.1718874,-10.53669762,3.85027776,-15.326626499999998
5.01,501,0.07,0.185,-0.968,0.572958,0.2291832000000001,-0.286479,-10.53096804,3.85027776,-15.326626499999998
5.02,502,0.07200000000000001,0.183,-0.9690000000000001,0.572958,0.286479,-0.11459160000000004,-10.52523846,3.85600734,-15.33235608
5.03,503,0.07400000000000001,0.182,-0.97,0.8021411999999999,0.2291832000000001,-0.057295800000000015,-10.51950888,3.85600734,-15.33235608
5.04,504,0.076,0.183,-0.9690000000000001,1.0313244000000001,0.3437748,0.11459160000000004,-10.50804972,3.86173692,-15.33235608
5.05,505,0.078,0.183,-0.97,1.3178034,0.4583664000000001,0.286479,-10.55961594,3.873196080000002,-15.33235608
5.06,506,0.079,0.183,-0.968,1.4896908000000002,0.5156622000000001,0.4583664000000001,-10.5424272,3.87892566,-15.326626499999998
5.07,507,0.08,0.18,-0.9670000000000001,1.4896908000000002,0.3437748,0.572958,-10.52523846,3.88465524,-15.32089692
5.08,508,0.078,0.177,-0.965,1.3178034,0.057295800000000015,0.5156622000000001,-10.513779300000001,3.88465524,-15.31516734
5.09,509,0.077,0.174,-0.965,1.0886202,0.0,0.286479,-10.502320139999998,3.88465524,-15.31516734
5.1,510,0.075,0.171,-0.966,0.8021411999999999,-0.2291832000000001,0.2291832000000001,-10.5424272,3.87892566,-15.31516734
5.11,511,0.075,0.171,-0.968,0.6302538000000001,-0.3437748,-0.057295800000000015,-10.53669762,3.873196080000002,-15.31516734
5.12,512,0.076,0.171,-0.971,0.8021411999999999,-0.2291832000000001,-0.2291832000000001,-10.53096804,3.8674665,-15.31516734
5.13,513,0.075,0.172,-0.973,1.0313244000000001,-0.3437748,-0.3437748,-10.51950888,3.8674665,-15.32089692
5.14,514,0.073,0.174,-0.971,1.145916,-0.572958,-0.3437748,-10.50804972,3.85600734,-15.32089692
5.1499999999999995,515,0.07200000000000001,0.17600000000000002,-0.973,1.2032118,-0.4583664000000001,-0.2291832000000001,-10.54815678,3.83308902,-15.326626499999998
5.16,516,0.071,0.17800000000000002,-0.973,1.432395,-0.572958,-0.1718874,-10.53096804,3.82735944,-15.326626499999998
5.17,517,0.07200000000000001,0.18,-0.972,1.5469866,-0.572958,-0.1718874,-10.513779300000001,3.82162986,-15.326626499999998
5.18,518,0.07,0.183,-0.973,1.432395,-0.286479,-0.1718874,-10.502320139999998,3.81590028,-15.326626499999998
5.1899999999999995,519,0.071,0.18600000000000005,-0.972,1.432395,-0.3437748,-0.2291832000000001,-10.4851314,3.810170700000002,-15.33235608
5.2,520,0.07400000000000001,0.19,-0.9670000000000001,1.0886202,-0.6302538000000001,-0.2291832000000001,-10.57680468,3.80444112,-15.33808566
5.21,521,0.076,0.192,-0.9640000000000001,0.6875496,-0.5156622000000001,-0.286479,-10.571075099999998,3.79871154,-15.33808566
5.22,522,0.076,0.191,-0.963,0.40107059999999994,-0.3437748,-0.286479,-10.56534552,3.79871154,-15.33808566
5.2299999999999995,523,0.077,0.18600000000000005,-0.9590000000000001,0.0,0.2291832000000001,-0.1718874,-10.56534552,3.79871154,-15.34381524
5.24,524,0.076,0.18,-0.96,-0.286479,0.2291832000000001,0.0,-10.571075099999998,3.80444112,-15.34381524
5.25,525,0.076,0.17600000000000002,-0.96,-0.11459160000000004,-0.4583664000000001,0.057295800000000015,-10.66274838,3.810170700000002,-15.34381524
5.26,526,0.077,0.174,-0.9640000000000001,0.11459160000000004,-0.6302538000000001,0.0,-10.657018800000001,3.80444112,-15.34381524
5.27,527,0.076,0.174,-0.9690000000000001,0.286479,-0.2291832000000001,0.0,-10.657018800000001,3.79871154,-15.34381524
5.28,528,0.07400000000000001,0.177,-0.971,0.572958,-0.11459160000000004,0.0,-10.65128922,3.79871154,-15.34381524
5.29,529,0.07200000000000001,0.183,-0.975,0.6875496,-0.11459160000000004,0.0,-10.64555964,3.79871154,-15.34381524
5.3,530,0.07400000000000001,0.19,-0.977,0.8021411999999999,-0.11459160000000004,0.0,-10.76015124,3.7815228,-15.34954482
5.31,531,0.076,0.19399999999999998,-0.978,1.0886202,-0.286479,0.11459160000000004,-10.74869208,3.7815228,-15.34381524
5.32,532,0.07400000000000001,0.193,-0.977,1.3178034,-0.5156622000000001,0.057295800000000015,-10.73723292,3.77579322,-15.34381524
5.33,533,0.071,0.193,-0.977,1.432395,-0.6302538000000001,0.11459160000000004,-10.72004418,3.77006364,-15.34381524
5.34,534,0.068,0.191,-0.975,1.432395,-0.4583664000000001,0.057295800000000015,-10.70858502,3.76433406,-15.33808566
5.35,535,0.065,0.18899999999999997,-0.9740000000000001,1.3750992,-0.2291832000000001,-0.057295800000000015,-10.77733998,3.7299565800000014,-15.34381524
5.36,536,0.064,0.187,-0.971,1.2032118,0.0,-0.11459160000000004,-10.76015124,3.7299565800000014,-15.34381524
5.37,537,0.066,0.183,-0.9690000000000001,1.0886202,0.11459160000000004,-0.057295800000000015,-10.74869208,3.7299565800000014,-15.34381524
5.38,538,0.069,0.182,-0.971,1.0313244000000001,0.40107059999999994,0.0,-10.7429625,3.73568616,-15.34381524
5.39,539,0.07200000000000001,0.182,-0.97,1.2605076000000002,0.3437748,0.0,-10.72577376,3.73568616,-15.34381524
5.3999999999999995,540,0.07200000000000001,0.18100000000000002,-0.9690000000000001,1.2032118,0.1718874,0.0,-10.77733998,3.73568616,-15.34954482
5.41,541,0.07200000000000001,0.179,-0.9690000000000001,0.9740286,0.11459160000000004,0.0,-10.76588082,3.73568616,-15.34954482
5.42,542,0.071,0.17800000000000002,-0.968,0.7448454000000001,-0.057295800000000015,-0.057295800000000015,-10.76015124,3.73568616,-15.34954482
5.43,543,0.07200000000000001,0.179,-0.97,0.572958,-0.11459160000000004,-0.11459160000000004,-10.75442166,3.7299565800000014,-15.34954482
5.4399999999999995,544,0.073,0.177,-0.972,0.6302538000000001,-0.2291832000000001,-0.11459160000000004,-10.74869208,3.7299565800000014,-15.34954482
5.45,545,0.07400000000000001,0.17800000000000002,-0.973,0.8594370000000001,-0.057295800000000015,-0.11459160000000004,-10.78879914,3.7299565800000014,-15.355274400000004
5.46,546,0.075,0.179,-0.972,1.2605076000000002,-0.2291832000000001,-0.1718874,-10.77733998,3.7242269999999995,-15.355274400000004
5.47,547,0.076,0.177,-0.972,1.3178034,-0.286479,0.0,-10.76015124,3.7242269999999995,-15.355274400000004
5.4799999999999995,548,0.075,0.179,-0.971,1.432395,-0.572958,0.0,-10.7429625,3.71849742,-15.355274400000004
5.49,549,0.07200000000000001,0.17800000000000002,-0.9690000000000001,1.5469866,-0.572958,0.0,-10.73150334,3.71276784,-15.34954482
5.5,550,0.07200000000000001,0.17600000000000002,-0.9670000000000001,1.432395,-0.5156622000000001,0.0,-10.73723292,3.70703826,-15.34954482
5.51,551,0.071,0.171,-0.966,1.2032118,-0.6302538000000001,0.0,-10.72577376,3.70130868,-15.34954482
5.52,552,0.07200000000000001,0.16899999999999998,-0.966,0.8594370000000001,-0.4583664000000001,-0.11459160000000004,-10.7143146,3.6955791,-15.34954482
5.53,553,0.07200000000000001,0.168,-0.968,0.8594370000000001,-0.5156622000000001,-0.2291832000000001,-10.70858502,3.68984952,-15.355274400000004
5.54,554,0.07200000000000001,0.168,-0.97,0.9740286,-0.5156622000000001,-0.286479,-10.69712586,3.68411994,-15.355274400000004
5.55,555,0.07200000000000001,0.172,-0.971,1.0313244000000001,-0.5156622000000001,-0.3437748,-10.70858502,3.67266078,-15.36100398
5.56,556,0.07200000000000001,0.17600000000000002,-0.972,1.0886202,-0.6302538000000001,-0.3437748,-10.69712586,3.666931200000001,-15.36100398
5.57,557,0.07200000000000001,0.179,-0.972,1.145916,-0.7448454000000001,-0.3437748,-10.685666699999999,3.65547204,-15.36673356
5.58,558,0.07,0.183,-0.972,1.145916,-0.572958,-0.3437748,-10.67420754,3.64974246,-15.36673356
5.59,559,0.069,0.185,-0.971,1.2032118,-0.286479,-0.3437748,-10.66274838,3.64974246,-15.37246314
5.6,560,0.07,0.18600000000000005,-0.97,1.0886202,0.0,-0.40107059999999994,-10.72004418,3.644012880000001,-15.37819272
5.61,561,0.071,0.183,-0.971,0.9740286,0.0,-0.2291832000000001,-10.70858502,3.6382833,-15.37819272
5.62,562,0.071,0.18100000000000002,-0.97,0.9167328000000001,-0.1718874,-0.2291832000000001,-10.70285544,3.6382833,-15.3839223
5.63,563,0.071,0.18,-0.968,0.8021411999999999,-0.2291832000000001,-0.2291832000000001,-10.69139628,3.6382833,-15.3839223
5.64,564,0.073,0.17800000000000002,-0.966,0.7448454000000001,-0.2291832000000001,-0.11459160000000004,-10.685666699999999,3.63255372,-15.3839223
5.6499999999999995,565,0.07200000000000001,0.17600000000000002,-0.9670000000000001,0.4583664000000001,-0.40107059999999994,0.0,-10.75442166,3.62109456,-15.38965188
5.66,566,0.07,0.175,-0.963,-0.4583664000000001,-0.1718874,0.0,-10.76015124,3.62109456,-15.3839223
5.67,567,0.068,0.175,-0.961,-0.9740286,0.0,0.057295800000000015,-10.771610399999998,3.62109456,-15.3839223
5.68,568,0.067,0.174,-0.961,-1.145916,0.057295800000000015,0.0,-10.78306956,3.62109456,-15.3839223
5.6899999999999995,569,0.067,0.17300000000000001,-0.961,-1.3750992,0.1718874,0.0,-10.79452872,3.62109456,-15.3839223
5.7,570,0.068,0.172,-0.963,-1.4896908000000002,0.2291832000000001,0.0,-10.8289062,3.61536498,-15.3839223
5.71,571,0.066,0.172,-0.9640000000000001,-1.5469866,0.11459160000000004,0.0,-10.84609494,3.61536498,-15.38965188
5.72,572,0.067,0.172,-0.9670000000000001,-1.5469866,0.286479,-0.11459160000000004,-10.86328368,3.61536498,-15.38965188
5.7299999999999995,573,0.068,0.17300000000000001,-0.971,-1.3750992,0.1718874,-0.11459160000000004,-10.87474284,3.62109456,-15.38965188
5.74,574,0.068,0.171,-0.976,-1.2032118,0.11459160000000004,-0.11459160000000004,-10.886202,3.62109456,-15.38965188
5.75,575,0.068,0.172,-0.977,-0.9740286,0.2291832000000001,0.0,-10.90912032,3.6096354,-15.38965188
5.76,576,0.068,0.17300000000000001,-0.9790000000000001,-0.7448454000000001,0.6875496,0.11459160000000004,-10.914849900000002,3.61536498,-15.38965188
5.77,577,0.069,0.17300000000000001,-0.977,-0.6875496,0.6875496,0.1718874,-10.92057948,3.62682414,-15.38965188
5.78,578,0.07200000000000001,0.17600000000000002,-0.973,-1.0313244000000001,0.286479,0.1718874,-10.932038639999998,3.62682414,-15.38965188
5.79,579,0.075,0.179,-0.9740000000000001,-1.3178034,0.6302538000000001,0.2291832000000001,-10.943497800000001,3.63255372,-15.38965188
5.8,580,0.076,0.179,-0.9740000000000001,-1.2032118,1.145916,0.3437748,-10.972145699999999,3.64974246,-15.3839223
5.81,581,0.077,0.17600000000000002,-0.9690000000000001,-1.2605076000000002,1.4896908000000002,0.40107059999999994,-10.98933444,3.666931200000001,-15.3839223
5.82,582,0.076,0.17300000000000001,-0.966,-1.6042823999999998,0.9740286,0.4583664000000001,-11.0007936,3.67839036,-15.37819272
5.83,583,0.073,0.17,-0.963,-1.432395,0.0,0.5156622000000001,-11.01798234,3.67839036,-15.37246314
5.84,584,0.071,0.16699999999999998,-0.966,-1.3750992,-0.1718874,0.286479,-11.029441499999999,3.67839036,-15.37246314
5.85,585,0.071,0.168,-0.971,-1.6042823999999998,0.11459160000000004,0.11459160000000004,-11.04663024,3.67839036,-15.37246314
5.86,586,0.07,0.17300000000000001,-0.973,-1.4896908000000002,0.1718874,0.11459160000000004,-11.0580894,3.67839036,-15.36673356
5.87,587,0.07400000000000001,0.17800000000000002,-0.976,-1.6042823999999998,0.11459160000000004,0.11459160000000004,-11.07527814,3.67839036,-15.36673356
5.88,588,0.076,0.188,-0.982,-1.2605076000000002,0.057295800000000015,0.1718874,-11.09246688,3.68411994,-15.36673356
5.89,589,0.078,0.19399999999999998,-0.98,-0.8021411999999999,0.057295800000000015,0.3437748,-11.09819646,3.68411994,-15.36100398
5.8999999999999995,590,0.075,0.196,-0.978,-0.286479,0.057295800000000015,0.40107059999999994,-11.22424722,3.68984952,-15.36100398
5.91,591,0.073,0.19399999999999998,-0.973,-0.1718874,0.057295800000000015,0.40107059999999994,-11.22424722,3.68984952,-15.355274400000004
5.92,592,0.069,0.191,-0.9690000000000001,-0.1718874,0.057295800000000015,0.40107059999999994,-11.22424722,3.68984952,-15.355274400000004
5.93,593,0.067,0.18600000000000005,-0.968,-0.3437748,0.1718874,0.2291832000000001,-11.229976800000001,3.6955791,-15.34954482
5.9399999999999995,594,0.066,0.183,-0.966,-0.6302538000000001,0.286479,0.057295800000000015,-11.23570638,3.6955791,-15.34954482
5.95,595,0.066,0.18,-0.968,-0.7448454000000001,0.286479,0.0,-11.26435428,3.67266078,-15.34954482
5.96,596,0.069,0.17600000000000002,-0.9670000000000001,-1.0886202,0.4583664000000001,0.0,-11.27581344,3.67839036,-15.34954482
5.97,597,0.07200000000000001,0.174,-0.9690000000000001,-1.3178034,0.3437748,0.0,-11.2872726,3.68411994,-15.355274400000004
5.9799999999999995,598,0.071,0.175,-0.97,-1.3750992,0.1718874,0.0,-11.30446134,3.68411994,-15.355274400000004
5.99,599,0.071,0.17600000000000002,-0.973,-1.4896908000000002,0.11459160000000004,0.0,-11.3159205,3.68411994,-15.34954482
6.0,600,0.07200000000000001,0.177,-0.9740000000000001,-1.4896908000000002,0.057295800000000015,0.057295800000000015,-11.33883882,3.68411994,-15.34954482
6.01,601,0.071,0.17800000000000002,-0.9740000000000001,-1.2032118,-0.057295800000000015,0.057295800000000015,-11.35029798,3.68411994,-15.34954482
6.02,602,0.071,0.177,-0.973,-0.9740286,-0.11459160000000004,0.0,-11.36175714,3.68411994,-15.34954482
6.03,603,0.07,0.17600000000000002,-0.9740000000000001,-0.8594370000000001,0.057295800000000015,0.0,-11.36748672,3.68411994,-15.34954482
6.04,604,0.071,0.17300000000000001,-0.972,-0.5156622000000001,0.1718874,0.057295800000000015,-11.3732163,3.68411994,-15.34954482
6.05,605,0.07200000000000001,0.17300000000000001,-0.972,-0.4583664000000001,0.1718874,0.057295800000000015,-11.35029798,3.68984952,-15.34954482
6.06,606,0.07200000000000001,0.172,-0.9690000000000001,-0.057295800000000015,0.057295800000000015,0.0,-11.35029798,3.68984952,-15.34954482
6.07,607,0.073,0.172,-0.9690000000000001,0.2291832000000001,-0.11459160000000004,0.0,-11.35029798,3.68984952,-15.34954482
6.08,608,0.07200000000000001,0.17,-0.9690000000000001,0.11459160000000004,-0.11459160000000004,0.0,-11.35029798,3.68984952,-15.34954482
6.09,609,0.07200000000000001,0.16899999999999998,-0.971,0.0,-0.057295800000000015,0.057295800000000015,-11.35029798,3.68984952,-15.34381524
6.1,610,0.071,0.16899999999999998,-0.973,-0.057295800000000015,0.0,0.0,-11.22424722,3.64974246,-15.33808566
6.11,611,0.07,0.171,-0.975,0.057295800000000015,0.057295800000000015,0.057295800000000015,-11.22424722,3.64974246,-15.33808566
6.12,612,0.07,0.174,-0.977,0.1718874,0.1718874,0.0,-11.22424722,3.64974246,-15.33808566
6.13,613,0.07,0.179,-0.978,0.40107059999999994,0.286479,0.057295800000000015,-11.21851764,3.65547204,-15.33808566
6.14,614,0.07200000000000001,0.184,-0.976,0.4583664000000001,0.2291832000000001,0.057295800000000015,-11.21278806,3.65547204,-15.33808566
6.15,615,0.071,0.187,-0.976,0.6302538000000001,0.11459160000000004,0.11459160000000004,-11.25289512,3.65547204,-15.33808566
6.16,616,0.071,0.18899999999999997,-0.975,0.7448454000000001,-0.11459160000000004,0.11459160000000004,-11.24716554,3.65547204,-15.33808566
6.17,617,0.071,0.188,-0.9740000000000001,0.7448454000000001,-0.2291832000000001,0.057295800000000015,-11.24143596,3.65547204,-15.33808566
6.18,618,0.07,0.188,-0.971,0.7448454000000001,-0.3437748,0.057295800000000015,-11.229976800000001,3.64974246,-15.33235608
6.1899999999999995,619,0.069,0.184,-0.97,0.572958,-0.40107059999999994,0.0,-11.22424722,3.644012880000001,-15.33235608
6.2,620,0.069,0.182,-0.97,0.7448454000000001,-0.286479,0.0,-11.24143596,3.63255372,-15.33235608
6.21,621,0.071,0.18,-0.971,0.7448454000000001,-0.286479,0.0,-11.23570638,3.63255372,-15.33235608
6.22,622,0.07200000000000001,0.18,-0.968,0.6875496,-0.286479,0.0,-11.229976800000001,3.62682414,-15.33235608
6.2299999999999995,623,0.071,0.18,-0.97,0.572958,-0.1718874,0.0,-11.22424722,3.62682414,-15.33235608
6.24,624,0.07200000000000001,0.18100000000000002,-0.971,0.4583664000000001,-0.1718874,0.0,-11.21851764,3.62109456,-15.33235608
6.25,625,0.071,0.18,-0.972,0.286479,-0.2291832000000001,-0.057295800000000015,-11.24716554,3.61536498,-15.33235608
6.26,626,0.07,0.17800000000000002,-0.972,0.2291832000000001,-0.1718874,0.0,-11.24143596,3.61536498,-15.33235608
6.27,627,0.07200000000000001,0.17600000000000002,-0.971,0.11459160000000004,-0.1718874,-0.057295800000000015,-11.24143596,3.61536498,-15.33235608
6.28,628,0.071,0.175,-0.971,0.057295800000000015,-0.2291832000000001,-0.1718874,-11.24143596,3.6096354,-15.33808566
6.29,629,0.07400000000000001,0.175,-0.971,0.057295800000000015,-0.2291832000000001,-0.2291832000000001,-11.24143596,3.6096354,-15.33808566
6.3,630,0.07400000000000001,0.175,-0.971,0.11459160000000004,-0.3437748,-0.2291832000000001,-11.23570638,3.6096354,-15.33808566
6.31,631,0.073,0.175,-0.97,0.057295800000000015,-0.3437748,-0.2291832000000001,-11.23570638,3.6096354,-15.34381524
6.32,632,0.07200000000000001,0.172,-0.971,0.1718874,-0.286479,-0.1718874,-11.23570638,3.60390582,-15.34381524
6.33,633,0.069,0.172,-0.972,0.40107059999999994,-0.3437748,-0.057295800000000015,-11.229976800000001,3.59817624,-15.34381524
6.34,634,0.068,0.171,-0.971,0.2291832000000001,-0.2291832000000001,-0.057295800000000015,-11.229976800000001,3.59817624,-15.34381524
6.35,635,0.067,0.16899999999999998,-0.973,0.1718874,0.057295800000000015,-0.057295800000000015,-11.2013289,3.5809875,-15.34381524
6.36,636,0.067,0.172,-0.972,0.057295800000000015,0.11459160000000004,-0.057295800000000015,-11.2013289,3.5809875,-15.34381524
6.37,637,0.067,0.17300000000000001,-0.971,-0.1718874,-0.286479,-0.1718874,-11.2013289,3.5809875,-15.34954482
6.38,638,0.068,0.175,-0.97,-0.5156622000000001,-0.4583664000000001,-0.3437748,-11.20705848,3.57525792,-15.34954482
6.39,639,0.067,0.17600000000000002,-0.971,-0.40107059999999994,-0.057295800000000015,-0.40107059999999994,-11.21278806,3.56952834,-15.355274400000004
6.4,640,0.068,0.174,-0.9690000000000001,-0.2291832000000001,0.40107059999999994,-0.40107059999999994,-11.21851764,3.56952834,-15.36100398
6.41,641,0.068,0.172,-0.9640000000000001,-0.4583664000000001,0.40107059999999994,-0.1718874,-11.22424722,3.57525792,-15.36100398
6.42,642,0.066,0.17,-0.963,-0.5156622000000001,-0.286479,-0.057295800000000015,-11.229976800000001,3.56952834,-15.36100398
6.43,643,0.066,0.16899999999999998,-0.963,-0.40107059999999994,-0.6302538000000001,0.0,-11.23570638,3.56379876,-15.36100398
6.4399999999999995,644,0.066,0.165,-0.9690000000000001,-0.6302538000000001,0.0,0.11459160000000004,-11.24143596,3.56379876,-15.36100398
6.45,645,0.067,0.16699999999999998,-0.971,-0.7448454000000001,0.3437748,0.11459160000000004,-11.23570638,3.56379876,-15.355274400000004
6.46,646,0.07,0.171,-0.973,-0.8594370000000001,0.4583664000000001,0.1718874,-11.24716554,3.56952834,-15.355274400000004
6.47,647,0.073,0.17800000000000002,-0.9790000000000001,-0.6875496,0.4583664000000001,0.286479,-11.25289512,3.57525792,-15.355274400000004
6.4799999999999995,648,0.07400000000000001,0.185,-0.981,-0.057295800000000015,0.1718874,0.286479,-11.25289512,3.57525792,-15.34954482
6.49,649,0.073,0.18899999999999997,-0.98,0.5156622000000001,0.1718874,0.286479,-11.24716554,3.5809875,-15.34954482
6.5,650,0.07200000000000001,0.19,-0.9740000000000001,0.8594370000000001,-0.057295800000000015,0.3437748,-11.28154302,3.57525792,-15.34381524
6.51,651,0.07,0.18899999999999997,-0.972,0.7448454000000001,-0.3437748,0.3437748,-11.27581344,3.56952834,-15.34381524
6.52,652,0.068,0.185,-0.97,0.572958,-0.1718874,0.40107059999999994,-11.26435428,3.56952834,-15.33808566
6.53,653,0.068,0.183,-0.97,0.5156622000000001,-0.11459160000000004,0.3437748,-11.258624699999999,3.56952834,-15.33235608
6.54,654,0.068,0.18,-0.971,0.286479,-0.11459160000000004,0.11459160000000004,-11.258624699999999,3.56952834,-15.33235608
6.55,655,0.068,0.179,-0.975,0.057295800000000015,0.0,0.11459160000000004,-11.29300218,3.54661002,-15.33235608
6.56,656,0.07,0.18100000000000002,-0.975,0.057295800000000015,0.0,0.0,-11.2872726,3.54661002,-15.33235608
6.57,657,0.071,0.179,-0.972,0.1718874,-0.11459160000000004,-0.057295800000000015,-11.2872726,3.54661002,-15.33235608
6.58,658,0.071,0.17800000000000002,-0.977,0.286479,-0.057295800000000015,-0.057295800000000015,-11.28154302,3.54661002,-15.33235608
6.59,659,0.073,0.17800000000000002,-0.978,0.40107059999999994,0.11459160000000004,-0.1718874,-11.28154302,3.54661002,-15.33235608
6.6,660,0.073,0.17800000000000002,-0.972,0.9740286,0.11459160000000004,-0.1718874,-11.28154302,3.5523396000000003,-15.33808566
6.61,661,0.07400000000000001,0.179,-0.965,1.7188740000000002,0.0,-0.2291832000000001,-11.26435428,3.5523396000000003,-15.33808566
6.62,662,0.076,0.175,-0.9590000000000001,2.291832,-0.40107059999999994,-0.11459160000000004,-11.23570638,3.54661002,-15.33808566
6.63,663,0.068,0.17300000000000001,-0.9470000000000001,2.4637194,-0.6302538000000001,-0.057295800000000015,-11.21278806,3.54088044,-15.33808566
6.64,664,0.065,0.188,-0.89,4.9847346,-2.0053530000000004,-0.11459160000000004,-11.16122184,3.51796212,-15.33808566
6.65,665,0.069,0.19399999999999998,-0.8390000000000001,6.8182002000000015,-4.010706000000001,-0.3437748,-11.09819646,3.48358464,-15.33808566
6.66,666,0.073,0.183,-0.8140000000000001,6.9327918,-5.0993262,-1.2032118,-11.029441499999999,3.43201842,-15.34381524
6.67,667,0.06,0.161,-0.8140000000000001,6.4744254,-5.2139178,-2.5210152000000003,-10.96068654,3.37472262,-15.355274400000004
6.68,668,0.047,0.139,-0.8190000000000001,6.875496000000001,-4.297185,-3.8961144,-10.89193158,3.3231564,-15.38965188
6.6899999999999995,669,0.054000000000000006,0.11900000000000001,-0.86,7.2192707999999985,-2.86479,-3.9534102,-10.82317662,3.28877892,-15.42402936
6.7,670,0.08199999999999999,0.122,-0.9129999999999999,8.193299399999999,-2.3491277999999998,-2.7501984,-10.73150334,3.27159018,-15.44694768
