TimeStamp(s),FrameCounter,AccX,AccY,AccZ,GyrX,GyrY,GyrZ,EulerX,EulerY,EulerZ
0.01,1,-0.056,-1.031,-0.009000000000000001,-12.4904844,4.4117766,0.4010706,87.07815683999998,-2.4923673,-40.81752792
0.02,2,-0.059,-1.026,-0.015,-11.917526400000002,4.4690724,1.2605076000000002,86.95210608,-2.50382646,-40.77742086
0.03,3,-0.059,-1.017,-0.017,-11.4018642,4.8701430000000006,1.6615782,86.84324405999998,-2.52674478,-40.72585464
0.04,4,-0.057,-1.004,-0.019,-11.5737516,5.2139178,1.7188740000000002,86.72292288,-2.54393352,-40.67428842
0.05,5,-0.049,-0.99,-0.027000000000000003,-11.8029348,5.2139178,1.4896908000000002,86.59687212,-2.55539268,-40.6227222
0.060000000000000005,6,-0.041,-0.979,-0.032,-10.886202,4.8128472,1.145916,86.48228051999996,-2.56685184,-40.57688556
0.06999999999999999,7,-0.036000000000000004,-0.974,-0.034,-9.3965112,4.297185,0.8594370000000001,86.38487766,-2.5783110000000002,-40.5367785
0.08,8,-0.038,-0.972,-0.031,-7.6776372,3.8961144,0.572958,86.31612270000002,-2.5783110000000002,-40.49667144
0.09,9,-0.043,-0.972,-0.021,-6.3598338,3.8961144,0.11459160000000004,86.24736774,-2.5783110000000002,-40.46229396
0.09999999999999999,10,-0.047,-0.979,-0.008,-6.130650599999999,4.2398892,-0.11459160000000004,86.18434235999996,-2.57258142,-40.4221869
0.11,11,-0.047,-0.99,0.0,-6.589017,4.2398892,-0.2291832000000001,86.10985782,-2.57258142,-40.37635026
0.12,12,-0.042,-1.002,-0.003,-6.8182002000000015,4.1252976000000015,0.0,86.04110286,-2.57258142,-40.33624320000001
0.13,13,-0.034,-1.009,0.0,-6.589017,4.010706000000001,0.286479,86.01245496,-2.5611222600000003,-40.30186572
0.14,14,-0.025,-1.009,0.005,-6.4744254,3.7815227999999994,0.4583664000000001,85.9437,-2.5611222600000003,-40.26175866
0.15000000000000002,15,-0.018000000000000002,-1.003,0.006999999999999999,-6.3598338,3.4950437999999995,0.5156622000000001,85.87494504,-2.56685184,-40.22738118
0.16,16,-0.014,-0.999,0.004,-5.844171599999999,3.3231564,0.6875496,85.81191966,-2.57258142,-40.1930037
0.17,17,-0.019,-0.998,0.006999999999999999,-4.6982556,3.2658606,0.7448454000000001,85.76608302,-2.5783110000000002,-40.164355799999996
0.18000000000000002,18,-0.025,-1.002,0.01,-3.6669312000000014,2.86479,0.6875496,85.80619008000002,-2.5611222600000003,-40.14143748
0.19,19,-0.032,-1.002,0.011,-3.0366774,2.3491278,0.6302538000000001,85.77181259999998,-2.56685184,-40.11851916
0.2,20,-0.035,-1.004,0.011,-2.578311,1.8334656000000005,0.4583664000000001,85.74889427999999,-2.57258142,-40.09560084
0.21000000000000002,21,-0.036000000000000004,-1.004,0.013,-2.2345362,1.432395,0.1718874,85.72024638,-2.57258142,-40.08414168
0.22,22,-0.033,-1.003,0.014,-2.1772404,1.3178034,0.0,85.69732806,-2.57258142,-40.07268252
0.23,23,-0.025,-1.0,0.013,-2.1199446,1.2605076000000002,-0.2291832000000001,85.83483798,-2.50382646,-40.07268252
0.24000000000000002,24,-0.019,-0.998,0.009000000000000001,-1.9480572,0.8594370000000001,-0.1718874,85.81764924000002,-2.49809688,-40.06122336
0.25,25,-0.015,-0.996,0.006999999999999999,-1.4896908000000002,0.11459160000000004,0.1718874,85.8004605,-2.50382646,-40.06122336
0.26,26,-0.016,-0.996,0.01,-0.6875496,-0.8594370000000001,0.7448454000000001,85.79473092,-2.50955604,-40.06695294000001
0.27,27,-0.022,-1.0,0.016,0.11459160000000004,-2.0626488000000003,1.2605076000000002,85.79473092,-2.5210152000000003,-40.08987126
0.28,28,-0.026,-1.005,0.018000000000000002,0.8594370000000001,-3.0939732,1.4896908000000002,85.90359294,-2.50955604,-40.12424874
0.29000000000000004,29,-0.029,-1.008,0.019,1.432395,-3.724227,1.432395,85.92078168,-2.5210152000000003,-40.15862622
0.3,30,-0.031,-1.006,0.016,1.7188740000000002,-4.010706000000001,1.3178034,85.9437,-2.53820394,-40.19873328
0.31,31,-0.034,-1.0,0.014,1.9480572,-4.1252976000000015,1.0886202,85.96661832,-2.5496631,-40.23884034
0.32,32,-0.039,-0.992,0.011,2.1199446,-4.3544808,0.8594370000000001,85.98953664,-2.5611222600000003,-40.28467698
0.33,33,-0.042,-0.988,0.01,2.1199446,-4.5263682,0.572958,86.08120991999998,-2.5611222600000003,-40.33051362
0.34,34,-0.042,-0.989,0.009000000000000001,2.0053530000000004,-4.5263682,0.572958,86.10412824,-2.56685184,-40.37635026
0.35000000000000003,35,-0.041,-0.99,0.009000000000000001,1.4896908000000002,-4.583664,0.8594370000000001,86.12131698,-2.5783110000000002,-40.41645732
0.36000000000000004,36,-0.037000000000000005,-0.994,0.01,1.145916,-4.7555514,1.145916,86.13850572,-2.59549974,-40.46229396
0.37,37,-0.037000000000000005,-0.996,0.009000000000000001,0.9740286,-4.7555514,1.2605076000000002,86.14996488,-2.6069589,-40.51386018
0.38,38,-0.039,-0.997,0.012,1.145916,-5.1566220000000005,1.3178034,86.23017899999998,-2.61268848,-40.5654264
0.39,39,-0.04,-0.994,0.017,1.432395,-5.5003968,1.2032118,86.24736774,-2.62414764,-40.61699262000001
0.4,40,-0.038,-0.992,0.028,1.7761698,-5.5003968,0.9740286,86.27028606,-2.6413363800000003,-40.67428842
0.41000000000000003,41,-0.036000000000000004,-0.994,0.044,2.1199446,-5.443101,0.6875496,86.29320437999998,-2.64706596,-40.72585464
0.42000000000000004,42,-0.037000000000000005,-0.996,0.054000000000000006,2.4637194,-5.042030400000002,0.4010706,86.32185228,-2.65279554,-40.77742086
0.43,43,-0.039,-0.997,0.061,2.6356068,-4.3544808,0.4583664000000001,86.47655094000002,-2.64706596,-40.8232575
0.44,44,-0.041,-0.998,0.071,3.380452200000001,-3.8961144,0.572958,86.51092842,-2.65279554,-40.85763498
0.45,45,-0.044,-0.999,0.083,4.1252976000000015,-3.4377480000000005,0.6302538000000001,86.55676506,-2.65852512,-40.89201246
0.46,46,-0.049,-1.004,0.096,4.8128472,-2.4637194,0.6875496,86.60833127999999,-2.6699842800000004,-40.91493078
0.47000000000000003,47,-0.052000000000000005,-1.014,0.107,4.9847345999999995,-1.2032118,0.6302538000000001,86.6598975,-2.67571386,-40.92638994
0.48000000000000004,48,-0.054000000000000006,-1.023,0.108,4.4690724,0.4583664000000001,0.6875496,86.88908070000002,-2.68717302,-40.92066036
0.49,49,-0.056,-1.029,0.105,3.6669312000000014,2.0053530000000004,0.9167328,86.92918776,-2.6929026,-40.90347162
0.5,50,-0.056,-1.033,0.106,2.578311,3.8388186,1.5469866,86.95210608,-2.71009134,-40.86336456
0.51,51,-0.055,-1.028,0.108,0.9740286,5.9014674000000005,1.8907613999999997,86.95783566,-2.72728008,-40.80033918
0.52,52,-0.054000000000000006,-1.018,0.105,-0.11459160000000004,8.5370742,2.0626488000000003,86.95210608,-2.74446882,-40.72012506
0.53,53,-0.056,-1.009,0.098,-1.6615782,10.1413566,2.291832,86.99794272,-2.76738714,-40.61699262000001
0.54,54,-0.06,-0.999,0.084,-3.0939732,10.8289062,2.4064236,86.95783566,-2.79030546,-40.5081306
0.55,55,-0.064,-0.985,0.077,-2.6356068,11.5737516,2.6356068,86.92345818,-2.81322378,-40.393539
0.56,56,-0.058,-0.983,0.073,-2.0626488000000003,12.605076,3.2658606,86.89481028,-2.84187168,-40.26748824
0.5700000000000001,57,-0.041,-0.987,0.064,-2.6356068,12.6623718,4.2398892,86.8604328,-2.88197874,-40.14143748
0.5800000000000001,58,-0.041,-1.009,0.048,-3.4950437999999995,10.255948199999999,5.844171599999999,86.84897364,-2.93354496,-40.03830504
0.59,59,-0.038,-1.033,0.02,-6.703608600000001,8.479778399999999,6.760904399999999,86.7744891,-2.9965703400000003,-39.94663176
0.6,60,-0.027000000000000003,-1.026,-0.019,-11.172681,6.3025379999999975,6.8182002000000015,86.6598975,-3.0653253000000005,-39.88360638
0.61,61,-0.012,-0.991,-0.056,-14.5531332,3.8388186,6.3025379999999975,86.50519884,-3.12835068,-39.84349932
0.62,62,0.0,-0.935,-0.084,-16.615782,0.0,5.3858052,86.33904102,-3.18564648,-39.84349932
0.63,63,0.002,-0.88,-0.097,-16.959556799999998,-5.958763200000001,3.4950437999999995,86.15569446,-3.2085648000000004,-39.90079512000001
0.64,64,0.001,-0.841,-0.092,-16.558486199999994,-12.4904844,0.6302538000000001,85.99526621999998,-3.22002396,-40.02684588
0.65,65,-0.004,-0.821,-0.073,-17.18874,-17.761698000000006,-3.3231564,85.83483798,-3.19710564,-40.21019244
0.66,66,-0.008,-0.818,-0.062,-20.511896399999998,-22.4026578,-8.7089616,85.64003226,-3.1226211000000004,-40.43937564
0.67,67,0.001,-0.8390000000000001,-0.064,-24.7517856,-23.0902074,-12.9488508,85.40511948000002,-3.0080295,-40.680018
0.68,68,0.01,-0.898,-0.061,-28.4760126,-23.14750320000001,-15.6990492,85.13009964,-2.85906042,-40.92638994
0.6900000000000001,69,0.006999999999999999,-0.995,-0.054000000000000006,-31.4553942,-22.4026578,-16.386598799999998,84.8264319,-2.71582092,-41.1670323
0.7000000000000001,70,0.001,-1.096,-0.055,-31.22621100000001,-22.1161788,-15.126091199999998,84.52276416000002,-2.5783110000000002,-41.40194508
0.7100000000000001,71,0.01,-1.168,-0.044,-25.9549974,-22.8037284,-12.261301199999998,84.27066264,-2.47517856,-41.64258744
0.72,72,0.01,-1.194,-0.005,-18.6784308,-24.2934192,-8.9954406,84.09304566,-2.4064236,-41.88895938
0.73,73,0.003,-1.159,0.026,-13.0634424,-25.6112226,-6.3025379999999975,83.9956428,-2.36058696,-42.15252006
0.74,74,0.0,-1.087,0.041,-7.3911582,-26.69984280000001,-4.6982556,83.93261742,-2.33193906,-42.42181032
0.75,75,-0.016,-1.023,0.051,-5.2712136,-27.3873924,-4.297185,83.89823994000002,-2.30902074,-42.69683016000001
0.76,76,-0.029,-0.978,0.051,-5.5003968,-26.929026,-4.1825934,83.85240329999998,-2.2918320000000003,-42.96612042
0.77,77,-0.05,-0.943,0.053,-5.6149884000000005,-25.78311,-4.297185,83.81229624,-2.26891368,-43.2296811
0.78,78,-0.073,-0.928,0.08,-4.010706000000001,-24.5798982,-4.583664,83.82948498,-2.25745452,-43.47032346
0.79,79,-0.099,-0.923,0.127,-3.151269,-22.1161788,-4.9274388,83.81229624,-2.22307704,-43.69950666
0.8,80,-0.129,-0.922,0.155,-5.3285094000000015,-17.761698000000006,-5.0993262,83.76645959999998,-2.18869956,-43.87712364
0.81,81,-0.158,-0.902,0.161,-8.8235532,-13.178034,-5.042030400000002,83.6805159,-2.1485925000000003,-44.01463356000001
0.8200000000000001,82,-0.175,-0.873,0.171,-10.3705398,-7.6203414,-4.1825934,83.57738346,-2.11421502,-44.09484768
0.8300000000000001,83,-0.188,-0.848,0.16899999999999998,-10.6570188,-1.3178034,-3.4950437999999995,83.57165388,-2.1485925000000003,-44.10057726
0.8400000000000001,84,-0.196,-0.8240000000000001,0.162,-10.1986524,4.583664,-3.2658606,83.46279186000002,-2.10848544,-44.06047020000001
0.85,85,-0.194,-0.8029999999999999,0.155,-7.5630456000000015,10.1413566,-3.4377480000000005,83.38257774,-2.06837838,-43.96306734
0.86,86,-0.192,-0.794,0.156,-3.5523396000000003,14.667724800000002,-4.1825934,83.3367411,-2.01681216,-43.82555742
0.87,87,-0.19,-0.7929999999999999,0.161,0.572958,18.7930224,-5.72958,83.3367411,-1.94232762,-43.64794044
0.88,88,-0.187,-0.797,0.16399999999999998,4.8701430000000006,23.14750320000001,-7.8495246,83.4226848,-1.87357266,-43.41875724000001
0.89,89,-0.191,-0.7909999999999999,0.177,8.8235532,27.5592798,-10.313244,83.49716934,-1.7475218999999995,-43.15519656
0.9,90,-0.16899999999999998,-0.7759999999999999,0.175,13.0634424,32.4294228,-12.6623718,83.61749052,-1.59282324,-42.85152882
0.91,91,-0.13,-0.757,0.184,14.266654199999998,35.809875,-13.407217200000002,83.74927086,-1.432395,-42.50775402
0.92,92,-0.078,-0.745,0.185,15.2406828,38.5027776,-14.32395,83.89251035999997,-1.25477802,-42.1410609
0.93,93,-0.039,-0.7340000000000001,0.193,16.558486199999994,39.6486936,-15.0687954,84.07012734,-1.07716104,-41.76290862
0.9400000000000001,94,-0.004,-0.728,0.197,16.1001198,39.7632852,-14.896907999999998,84.22482600000002,-0.89954406,-41.38475634
0.9500000000000001,95,0.021,-0.726,0.194,15.5844576,39.19032720000001,-14.0947668,84.37379508000002,-0.72765666,-41.01233364
0.9600000000000001,96,0.038,-0.7290000000000001,0.18600000000000005,16.1001198,38.2162986,-12.834259199999998,84.52849374,-0.5729580000000001,-40.64564052
0.97,97,0.042,-0.76,0.175,15.6990492,37.4714532,-11.688343199999998,84.67746281999997,-0.43544808,-40.28467698
0.98,98,0.031,-0.8,0.154,13.178034,35.9244666,-10.7143146,84.83216148,-0.29793816,-39.9351726
0.99,99,0.016,-0.831,0.139,10.7143146,34.5493674,-9.9121734,84.93529392,-0.17761697999999998,-39.60285696
1.0,100,-0.003,-0.851,0.115,7.5630456000000015,33.6326346,-8.7662574,85.00977845999998,-0.06875496,-39.2762709
1.01,101,-0.02,-0.8370000000000001,0.104,3.8961144,32.2002396,-6.5317212,85.04415594,0.00572958,-38.96687358000001
1.02,102,-0.03,-0.7929999999999999,0.112,1.2605076000000002,29.7365202,-3.4377480000000005,85.04988552,0.057295800000000015,-38.67466500000001
1.03,103,-0.03,-0.747,0.11,-1.2032118,26.0122932,0.4010706,85.06134468,0.06875496,-38.4168339
1.04,104,-0.015,-0.71,0.107,-4.6409598,21.3713334,3.724227,85.00977845999998,0.04010706,-38.19910986
1.05,105,0.011,-0.688,0.109,-8.651665800000002,16.615782,5.7868758000000025,84.92383476,0.0,-38.03295204
1.06,106,0.016,-0.708,0.116,-11.9748222,11.917526400000002,5.7868758000000025,84.79778400000002,-0.05156622,-37.91263086
1.07,107,-0.006,-0.754,0.105,-16.7876694,9.9121734,4.297185,84.62589659999998,-0.09167328,-37.80949842
1.08,108,-0.059,-0.82,0.018000000000000002,-24.7517856,10.3705398,2.9220857999999996,84.37952466,-0.13178034,-37.70636598
1.09,109,-0.12,-0.903,-0.102,-36.898495200000006,12.2040054,3.4377480000000005,84.00137237999998,-0.16042824,-37.586044799999996
1.1,110,-0.141,-0.97,-0.214,-46.8106686,12.032117999999999,6.875496000000001,83.52581724,-0.22345362,-37.46572362
1.11,111,-0.125,-0.998,-0.318,-54.54560160000001,9.224623800000002,11.8029348,82.97004798,-0.33804522,-37.36832076
1.12,112,-0.08,-0.991,-0.308,-54.602897399999996,2.4637194,16.615782,82.41427872,-0.5042030399999999,-37.328213700000006
1.1300000000000001,113,-0.026,-0.9,-0.152,-46.8679644,-4.4117766,19.767051,81.93872358,-0.7104679199999999,-37.34540244
1.1400000000000001,114,-0.024,-0.78,-0.04,-46.409598,-13.521808800000002,18.5638392,81.46889802,-0.91100322,-37.45999404000001
1.1500000000000001,115,-0.008,-0.7140000000000001,0.005,-55.290447,-17.18874,16.157415599999997,80.91312875999998,-1.09434978,-37.60896312
1.1600000000000001,116,0.052000000000000005,-0.703,-0.054000000000000006,-54.889376399999996,-19.1367972,17.131444199999994,80.36308908,-1.29488508,-37.77512094
1.17,117,0.125,-0.7559999999999999,-0.036000000000000004,-42.5707794,-19.9962342,19.2513888,79.93910016,-1.5183387000000002,-37.94127876
1.18,118,0.127,-0.7879999999999999,-0.02,-37.9298196,-17.8189938,19.194093,79.57240704,-1.7188740000000002,-38.09024784
1.19,119,0.064,-0.7659999999999999,-0.04,-39.47680620000001,-13.8655836,16.157415599999997,79.17706602000001,-1.90222056,-38.19910986
1.2,120,-0.019,-0.77,-0.123,-40.90920120000001,-12.1467096,12.7769634,78.77026584,-2.05118964,-38.3022423
1.21,121,-0.053,-0.818,-0.188,-39.9924684,-13.5791046,10.4278356,78.36919524,-2.1772404,-38.4168339
1.22,122,-0.06,-0.875,-0.16699999999999998,-39.19032720000001,-14.5531332,6.9327918,77.9795838,-2.28037284,-38.54861424
1.23,123,-0.039,-0.951,-0.263,-41.6540466,-14.32395,2.6356068,77.54413572000001,-2.33193906,-38.68612416
1.24,124,-0.014,-1.04,-0.337,-38.8465524,-14.266654199999998,-2.578311,77.16025386,-2.3376686399999995,-38.83509324
1.25,125,0.038,-1.155,-0.391,-36.7266078,-15.9282324,-6.4744254,76.79356074,-2.30902074,-39.00698064
1.26,126,0.093,-1.217,-0.438,-37.9871154,-17.246035799999998,-6.8182002000000015,76.42113803999997,-2.28037284,-39.196056780000006
1.27,127,0.121,-1.205,-0.461,-36.38283300000001,-16.959556799999998,-5.0993262,76.0601745,-2.26891368,-39.37367376
1.28,128,0.097,-1.182,-0.525,-33.6899304,-16.386598799999998,-2.7501984,75.70494054,-2.2746432600000004,-39.53983158
1.29,129,0.028,-1.188,-0.516,-27.6738714,-15.6417534,-0.11459160000000004,75.43565028,-2.30902074,-39.69453024
1.3,130,-0.034,-1.226,-0.531,-25.4393352,-15.527161800000002,1.0313244,75.18354876,-2.36058696,-39.84349932
1.31,131,-0.081,-1.213,-0.4320000000000001,-24.9809688,-13.8655836,0.7448454000000001,74.93717682,-2.40069402,-39.98100924
1.32,132,-0.101,-1.223,-0.377,-32.2002396,-13.349921400000001,1.8334656000000005,74.61632033999999,-2.45226024,-40.10706
1.33,133,-0.094,-1.227,-0.428,-41.8832298,-14.896907999999998,2.6929026,74.19233141999999,-2.5210152000000003,-40.24456992
1.34,134,-0.069,-1.262,-0.4320000000000001,-43.7166954,-16.673077799999998,1.8334656000000005,73.75688333999999,-2.58404058,-40.40499816
1.35,135,-0.022,-1.279,-0.477,-51.9099948,-17.8189938,-1.0313244,73.24122114,-2.62414764,-40.58261514
1.36,136,0.027000000000000003,-1.256,-0.5329999999999999,-55.86340500000001,-19.2513888,-5.72958,72.68545188,-2.62987722,-40.78888002
1.37,137,0.059,-1.202,-0.5489999999999999,-56.0352924,-19.3659804,-11.688343199999998,72.12968262000003,-2.57258142,-41.01233364
1.3800000000000001,138,0.059,-1.121,-0.584,-57.811462199999994,-18.2200644,-15.0114996,71.53953588,-2.48663772,-41.23578726
1.3900000000000001,139,0.061,-1.077,-0.5489999999999999,-56.0925882,-15.9282324,-16.7876694,70.98376662,-2.3777757,-41.44778172
1.4000000000000001,140,0.017,-1.08,-0.514,-54.54560160000001,-12.9488508,-16.8449652,70.43372694,-2.2631841,-41.62539870000001
1.4100000000000001,141,-0.035,-1.083,-0.542,-57.4103916,-9.797581800000001,-14.610429000000002,69.86076894,-2.1657812400000003,-41.77436778
1.42,142,-0.084,-1.095,-0.471,-55.06126379999999,-4.9847345999999995,-12.1467096,69.30499968000001,-2.07410796,-41.86604106
1.43,143,-0.113,-1.132,-0.516,-57.52498320000001,-3.8961144,-10.255948199999999,68.71485294,-2.005353,-41.9405256
1.44,144,-0.102,-1.16,-0.555,-56.9520252,-2.9793816000000004,-9.797581800000001,68.14189494000001,-1.93086846,-42.00928055999999
1.45,145,-0.062,-1.154,-0.565,-52.54024860000001,-3.151269,-10.8289062,67.60904400000001,-1.84492476,-42.0837651
1.46,146,-0.016,-1.142,-0.579,-50.24841660000001,-2.7501984,-12.605076,67.09911138,-1.7475218999999995,-42.16397922
1.47,147,0.018000000000000002,-1.138,-0.5579999999999999,-49.1597964,-0.9740286,-14.5531332,66.6063675,-1.62147114,-42.23273418
1.48,148,0.024,-1.104,-0.557,-49.7327544,0.572958,-15.6990492,66.09643487999999,-1.4782316400000002,-42.29002998
1.49,149,0.018000000000000002,-1.093,-0.537,-48.5868384,1.7761698,-14.610429000000002,65.603691,-1.3464512999999998,-42.33586662
1.5,150,0.01,-1.105,-0.516,-48.128471999999995,3.7815227999999994,-13.120738199999998,65.11094712,-1.22040054,-42.35878494
1.51,151,0.001,-1.091,-0.5329999999999999,-51.7954032,4.9274388,-10.4851314,64.58382576,-1.11153852,-42.36451452
1.52,152,-0.005,-1.062,-0.529,-52.54024860000001,5.6722842,-8.078707799999998,64.05097482,-1.01986524,-42.35305536
1.53,153,-0.004,-1.044,-0.531,-51.33703679999999,5.2139178,-6.3025379999999975,63.52385346,-0.9453806999999999,-42.33586662
1.54,154,0.0,-1.019,-0.513,-52.48295279999999,4.297185,-5.2139178,62.99100252,-0.8880849000000001,-42.32440746
1.55,155,0.018000000000000002,-0.977,-0.512,-53.39968560000001,4.010706000000001,-5.2139178,62.44669242,-0.8307891,-42.3129483
1.56,156,0.015,-0.938,-0.52,-52.7694318,4.583664,-5.72958,61.91384148,-0.76776372,-42.30148914
1.57,157,0.003,-0.914,-0.525,-52.597544400000004,5.2139178,-6.016058999999999,61.37526096000001,-0.69900876,-42.29002998
1.58,158,0.0,-0.906,-0.522,-52.19647379999999,6.3598338,-6.3025379999999975,60.83668044,-0.61879464,-42.26711166
1.59,159,-0.008,-0.8690000000000001,-0.541,-52.82672760000001,7.5057497999999985,-6.4744254,60.303829500000006,-0.53285094,-42.23273418
1.6,160,-0.005,-0.862,-0.5379999999999999,-49.1597964,8.078707799999998,-5.5576926,59.79962646,-0.4526368200000001,-42.19262712
1.61,161,-0.006,-0.862,-0.502,-43.3729206,8.078707799999998,-3.4377480000000005,59.3584488,-0.38961144,-42.14679048
1.62,162,0.001,-0.872,-0.49,-41.7113424,7.8495246,-2.2345362,58.93445988,-0.33804522,-42.08949468
1.6300000000000001,163,0.008,-0.8859999999999999,-0.49,-39.4195104,8.7089616,-1.3750992,58.53338928,-0.28647900000000004,-42.0264693
1.6400000000000001,164,0.002,-0.887,-0.478,-38.1590028,10.8289062,-1.2605076000000002,58.14377784,-0.2291832000000001,-41.9405256
1.6500000000000001,165,-0.013,-0.8690000000000001,-0.48,-37.2995658,12.5477802,-1.6615782,57.76562556,-0.15469866,-41.848852320000006
1.6600000000000001,166,-0.013,-0.83,-0.503,-36.8411994,13.2353298,-1.3750992,57.38747328,-0.08021412,-41.74571988
1.6700000000000002,167,0.013,-0.795,-0.516,-34.0337052,12.4331886,-1.3178034,57.04369848,-0.01145916,-41.64831702
1.68,168,0.05,-0.7759999999999999,-0.518,-31.1689152,10.9434978,-1.7188740000000002,56.71711241999999,0.06875496,-41.5681029
1.69,169,0.081,-0.7829999999999999,-0.515,-26.41336380000001,9.797581800000001,-1.8334656000000005,56.44782216,0.13178034,-41.49934794
1.7,170,0.097,-0.7979999999999999,-0.501,-23.4339822,9.8548776,-2.1772404,56.20717980000001,0.20053530000000008,-41.43059298
1.71,171,0.091,-0.8079999999999999,-0.605,-25.0382646,12.1467096,-2.578311,55.94934870000001,0.28074942,-41.34464928
1.72,172,-0.383,-1.116,-1.62,-34.3201842,44.690724,-11.8602306,55.59984432,0.61306506,-41.03525196
1.73,173,-0.5539999999999999,-1.455,-0.552,6.5317212,54.3164184,-26.356068,55.69151760000001,1.10580894,-40.72585464
1.74,174,-0.359,-1.362,0.042,-17.246035799999998,37.9871154,-24.5226024,55.51390062,1.50687954,-40.54823766
1.75,175,0.07400000000000001,-1.12,-0.847,-72.82296179999999,36.955791,-12.3758928,54.7747848,1.79908812,-40.31905446
1.76,176,0.145,-0.954,-0.5760000000000001,-37.7006364,24.7517856,-3.4377480000000005,54.39663252,1.9595163600000003,-40.1357079
1.77,177,0.079,-0.981,-0.62,-23.8923486,24.8090814,2.0053530000000004,54.15599016,2.07983754,-39.92371344
1.78,178,0.09,-0.852,-0.584,-38.7319608,26.1841806,3.4950437999999995,53.76637872,2.20015872,-39.68880066
1.79,179,0.087,-0.774,-0.573,-32.142943800000005,25.84040580000001,0.8021411999999999,53.44552223999999,2.33193906,-39.47680620000001
1.8,180,0.059,-0.8029999999999999,-0.617,-25.4393352,27.903054600000004,-2.6356068,53.193420720000006,2.50955604,-39.27054132
1.81,181,0.08,-0.8540000000000001,-0.609,-22.345362,27.3300966,-5.2139178,52.9699671,2.70436176,-39.08146518
1.82,182,0.12,-0.909,-0.5870000000000001,-20.05353,22.7464326,-4.583664,52.76943180000001,2.87051958,-38.92676652
1.83,183,0.125,-0.931,-0.599,-21.772404,18.1054728,-1.7761698,52.56316691999999,3.00229992,-38.7892566
1.84,184,0.123,-0.917,-0.597,-22.173474600000002,12.7769634,2.3491278,52.33971329999999,3.05386614,-38.67466500000001
1.85,185,0.113,-0.883,-0.585,-21.027558600000006,8.5370742,6.417129599999999,52.13344842,3.04813656,-38.57153256
1.86,186,0.119,-0.82,-0.578,-22.9756158,5.2712136,9.568398599999998,51.90426521999999,3.00229992,-38.46840012
1.87,187,0.126,-0.755,-0.58,-23.2620948,2.8074942000000003,11.3445684,51.67508202000001,2.92781538,-38.37672684
1.8800000000000001,188,0.126,-0.716,-0.5920000000000001,-19.767051,0.5156622000000001,11.2872726,51.46308756,2.86479,-38.30797188
1.8900000000000001,189,0.113,-0.7170000000000001,-0.5870000000000001,-15.9282324,-1.145916,10.5424272,51.30265932,2.77311672,-38.25640566
1.9000000000000001,190,0.093,-0.7440000000000001,-0.586,-12.5477802,-2.4064236,9.568398599999998,51.17660856,2.68144344,-38.2162986
1.9100000000000001,191,0.069,-0.77,-0.5760000000000001,-10.4851314,-2.8074942000000003,8.193299399999999,51.07347612,2.6012293200000003,-38.187650700000006
1.9200000000000002,192,0.052000000000000005,-0.809,-0.5760000000000001,-8.651665800000002,-2.4637194,6.6463128000000005,50.98753242,2.53247436,-38.16473238
1.93,193,0.047,-0.828,-0.5720000000000001,-8.651665800000002,-1.7761698,5.1566220000000005,50.93023662,2.48090814,-38.14754364
1.94,194,0.035,-0.825,-0.579,-9.797581800000001,-1.2605076000000002,4.0680017999999984,50.83283376,2.44080108,-38.1303549
1.95,195,0.026,-0.8109999999999999,-0.588,-9.6829902,-1.3750992,3.380452200000001,50.7354309,2.4064236,-38.11889574
1.96,196,0.014,-0.792,-0.598,-9.797581800000001,-2.0626488000000003,2.6356068,50.63802804,2.37204612,-38.11889574
1.97,197,0.004,-0.785,-0.597,-9.224623800000002,-2.3491278,1.3750992,50.54062518,2.34339822,-38.1303549
1.98,198,0.0,-0.785,-0.602,-9.5111028,-2.0626488000000003,-0.2291832000000001,50.4489519,2.29756158,-38.14181406
1.99,199,-0.001,-0.779,-0.604,-10.313244,-1.6615782,-1.5469866,50.34581946000001,2.30329116,-38.16473238
2.0,200,-0.006,-0.773,-0.609,-10.026765,-1.2605076000000002,-2.2345362,50.24268702,2.30902074,-38.187650700000006
2.01,201,-0.005,-0.775,-0.616,-10.0840608,-1.0886202,-2.2345362,50.13955458,2.3204799,-38.2162986
2.02,202,0.004,-0.777,-0.609,-9.6256944,-0.8021411999999999,-1.7761698,50.03642214,2.32620948,-38.23348734
2.03,203,0.015,-0.7809999999999999,-0.6,-8.4224826,-0.5156622000000001,-0.6875496,49.97339676,2.30329116,-38.23921692
2.04,204,0.024,-0.785,-0.601,-7.9641161999999985,-0.2291832000000001,0.0,49.893182640000006,2.30329116,-38.23921692
2.05,205,0.032,-0.7909999999999999,-0.598,-6.760904399999999,0.0,0.286479,49.82442768,2.29756158,-38.23921692
2.0599999999999996,206,0.033,-0.7859999999999999,-0.59,-7.1046792000000005,0.8021411999999999,0.286479,49.74994314,2.30329116,-38.22775776
2.07,207,0.029,-0.769,-0.596,-7.448453999999999,1.6615782,-0.057295800000000015,49.6754586,2.30902074,-38.2162986
2.0799999999999996,208,0.025,-0.759,-0.6,-6.5317212,2.4637194,-0.4010706,49.61243322,2.3147503200000004,-38.19910986
2.09,209,0.027000000000000003,-0.763,-0.607,-5.0993262,2.7501984,-0.2291832000000001,49.560867,2.33193906,-38.17619154000001
2.0999999999999996,210,0.034,-0.778,-0.608,-4.0680017999999984,2.6356068,0.11459160000000004,49.52075994000001,2.3491277999999998,-38.1590028
2.11,211,0.043,-0.7959999999999999,-0.616,-3.8388186,2.4637194,0.6302538000000001,49.48065288,2.36058696,-38.13608448
2.1199999999999997,212,0.048,-0.805,-0.617,-4.010706000000001,2.0626488000000003,1.3178034,49.44054582,2.36058696,-38.10743658
2.13,213,0.051,-0.813,-0.621,-4.1825934,1.5469866,2.0053530000000004,49.44054582,2.36631654,-38.08451826
2.1399999999999997,214,0.052000000000000005,-0.815,-0.616,-4.3544808,1.145916,2.6929026,49.39470918,2.35485738,-38.05587036
2.15,215,0.05,-0.8140000000000001,-0.611,-4.7555514,0.8594370000000001,3.151269,49.34887254,2.33193906,-38.02722246
2.1599999999999997,216,0.049,-0.81,-0.607,-5.2712136,0.6875496,3.2658606,49.29730632,2.3147503200000004,-38.00430414
2.17,217,0.047,-0.805,-0.602,-5.5576926,0.6302538000000001,2.86479,49.24001052,2.29756158,-37.98138582
2.1799999999999997,218,0.049,-0.799,-0.599,-6.0733548,0.3437748,2.4637194,49.22282178,2.2918320000000003,-37.9584675
2.19,219,0.053,-0.794,-0.603,-6.6463128000000005,0.1718874,2.0626488000000003,49.1597964,2.2746432600000004,-37.94700834
2.1999999999999997,220,0.059,-0.7929999999999999,-0.601,-6.5317212,0.057295800000000015,1.7188740000000002,49.09104144,2.2631841,-37.93554918
2.21,221,0.056,-0.795,-0.598,-6.1879464,-0.057295800000000015,1.4896908000000002,49.02801606000001,2.24599536,-37.92409002
2.2199999999999998,222,0.051,-0.795,-0.603,-6.703608600000001,-0.057295800000000015,1.3750992,48.959261100000006,2.2345362,-37.91836044
2.23,223,0.044,-0.789,-0.605,-6.9327918,-0.1718874,1.432395,48.9306132,2.22880662,-37.90690128
2.2399999999999998,224,0.042,-0.784,-0.6,-6.417129599999999,-0.057295800000000015,1.2605076000000002,48.86758782,2.21734746,-37.901171700000006
2.25,225,0.048,-0.7829999999999999,-0.608,-6.2452422,-0.3437748,0.9167328,48.80456244000001,2.2058883,-37.89544212
2.26,226,0.055,-0.785,-0.612,-5.72958,-0.6875496,0.6302538000000001,48.74726663999999,2.19442914,-37.901171700000006
2.27,227,0.062,-0.7879999999999999,-0.619,-5.6722842,-0.9740286,0.2291832000000001,48.68997084,2.18869956,-37.90690128
2.28,228,0.067,-0.787,-0.623,-5.6149884000000005,-1.2032118,0.057295800000000015,48.66705252,2.21734746,-37.91836044
2.29,229,0.064,-0.785,-0.62,-4.9847345999999995,-1.4896908000000002,0.0,48.61548629999999,2.2058883,-37.9298196
2.3,230,0.055,-0.785,-0.62,-4.9847345999999995,-1.6615782,0.0,48.56392008,2.19442914,-37.94127876
2.31,231,0.048,-0.784,-0.619,-4.8128472,-1.6615782,-0.1718874,48.51235386000001,2.18869956,-37.9584675
2.32,232,0.046,-0.8009999999999999,-0.615,-3.7815227999999994,-1.4896908000000002,-0.4010706,48.47224680000001,2.1772404,-37.96992666
2.3299999999999996,233,0.045,-0.775,-0.612,-6.1879464,-1.145916,-0.1718874,48.43786932,2.18296998,-37.98138582
2.34,234,0.051,-0.765,-0.624,-5.2712136,-0.9740286,-0.057295800000000015,48.386303100000006,2.1772404,-37.99284498
2.3499999999999996,235,0.057,-0.772,-0.628,-4.0680017999999984,-1.0313244,-0.1718874,48.34046646,2.17151082,-37.99857456
2.36,236,0.062,-0.773,-0.625,-4.297185,-1.0313244,-0.286479,48.3003594,2.1657812400000003,-38.01003372
2.3699999999999997,237,0.062,-0.77,-0.628,-4.583664,-0.9740286,-0.4583664000000001,48.24879317999999,2.1657812400000003,-38.02149288
2.38,238,0.055,-0.7709999999999999,-0.625,-4.6409598,-1.3178034,-0.8021411999999999,48.23160444,2.18296998,-38.03868162
2.3899999999999997,239,0.048,-0.7759999999999999,-0.622,-4.4690724,-1.4896908000000002,-1.2032118,48.1857678,2.1772404,-38.05587036
2.4,240,0.047,-0.7859999999999999,-0.626,-5.042030400000002,-1.6615782,-1.432395,48.13420158,2.1772404,-38.07878868
2.4099999999999997,241,0.047,-0.7929999999999999,-0.63,-5.2712136,-1.7761698,-1.6615782,48.08263536,2.1772404,-38.10743658
2.42,242,0.05,-0.812,-0.629,-4.5263682,-2.0053530000000004,-2.1772404,48.03106913999999,2.18296998,-38.13608448
2.4299999999999997,243,0.051,-0.804,-0.622,-5.6722842,-2.1199446,-1.9480572,48.01388040000001,2.19442914,-38.16473238
2.44,244,0.049,-0.774,-0.625,-6.760904399999999,-2.4637194,-1.2605076000000002,47.94512544000001,2.18296998,-38.19338028
2.4499999999999997,245,0.048,-0.764,-0.627,-4.8701430000000006,-2.7501984,-0.6875496,47.89355922,2.17151082,-38.2162986
2.46,246,0.045,-0.773,-0.617,-3.8961144,-2.7501984,-0.572958,47.85345216,2.15432208,-38.24494650000001
2.4699999999999998,247,0.043,-0.779,-0.615,-4.7555514,-2.7501984,-0.5156622000000001,47.80188594,2.14286292,-38.26786482
2.48,248,0.043,-0.782,-0.619,-4.7555514,-2.9220857999999996,-0.286479,47.80188594,2.13140376,-38.29078314
2.4899999999999998,249,0.042,-0.784,-0.621,-4.6409598,-3.2658606,0.0,47.75604930000001,2.10848544,-38.31370146
2.5,250,0.042,-0.7879999999999999,-0.617,-4.5263682,-3.151269,0.4583664000000001,47.71021266,2.08556712,-38.33661978
2.51,251,0.042,-0.7909999999999999,-0.62,-4.5263682,-2.9220857999999996,0.7448454000000001,47.66437602000001,2.0626488000000003,-38.35380852
2.52,252,0.04,-0.79,-0.62,-4.6409598,-2.7501984,0.9740286,47.61853938,2.0340008999999997,-38.36526768
2.53,253,0.036000000000000004,-0.7859999999999999,-0.616,-4.6409598,-2.578311,1.0886202,47.62426896,2.01108258,-38.37672684
2.54,254,0.036000000000000004,-0.785,-0.628,-5.1566220000000005,-2.578311,0.9740286,47.57270274,1.98243468,-38.38818600000001
2.55,255,0.037000000000000005,-0.7829999999999999,-0.622,-5.1566220000000005,-2.6356068,0.6302538000000001,47.51540694,1.9595163600000003,-38.40537474
2.56,256,0.032,-0.784,-0.619,-5.1566220000000005,-2.291832,0.4010706,47.46384072,1.94232762,-38.42256348
2.57,257,0.028,-0.7829999999999999,-0.621,-5.72958,-1.9480572,0.11459160000000004,47.40654492,1.92513888,-38.43402264
2.5799999999999996,258,0.022,-0.784,-0.614,-5.2139178,-1.8334656000000005,0.0,47.42946324,1.89649098,-38.43975222
2.59,259,0.018000000000000002,-0.7859999999999999,-0.614,-5.5003968,-1.5469866,0.2291832000000001,47.37216744000001,1.88503182,-38.45121138
2.5999999999999996,260,0.022,-0.7809999999999999,-0.617,-5.6722842,-1.2605076000000002,0.5156622000000001,47.31487163999999,1.86784308,-38.45694096
2.61,261,0.028,-0.7809999999999999,-0.62,-5.443101,-0.9740286,0.7448454000000001,47.25757584,1.85638392,-38.46267054
2.6199999999999997,262,0.032,-0.7809999999999999,-0.62,-5.3858052,-0.8594370000000001,0.8594370000000001,47.20028004,1.84492476,-38.46267054
2.63,263,0.038,-0.779,-0.626,-5.3285094000000015,-0.9740286,0.8021411999999999,47.20600962,1.84492476,-38.46267054
2.6399999999999997,264,0.041,-0.7759999999999999,-0.629,-5.3285094000000015,-1.0886202,0.4010706,47.14871382,1.8334656000000005,-38.46840012
2.65,265,0.044,-0.7759999999999999,-0.63,-5.5003968,-1.4896908000000002,0.0,47.09141802,1.82200644,-38.47985928
2.6599999999999997,266,0.043,-0.7709999999999999,-0.631,-5.844171599999999,-1.6615782,-0.286479,47.03412222,1.81054728,-38.49704802
2.67,267,0.04,-0.765,-0.633,-6.016058999999999,-1.6615782,-0.5156622000000001,46.97109684,1.8048176999999999,-38.50850718
2.6799999999999997,268,0.039,-0.763,-0.637,-5.5576926,-1.9480572,-0.4583664000000001,46.9539081,1.8048176999999999,-38.5314255
2.69,269,0.039,-0.767,-0.64,-5.2712136,-2.1772404,-0.4583664000000001,46.8966123,1.7933585399999998,-38.54861424
2.6999999999999997,270,0.036000000000000004,-0.769,-0.639,-5.3285094000000015,-2.4064236,-0.6302538000000001,46.84504608,1.78189938,-38.57153256
2.71,271,0.033,-0.77,-0.6409999999999999,-5.3858052,-2.578311,-0.8594370000000001,46.78775028,1.77044022,-38.59445088
2.7199999999999998,272,0.034,-0.7659999999999999,-0.6409999999999999,-5.5576926,-2.6929026,-1.3750992,46.73045448000001,1.75898106,-38.62882836
2.73,273,0.031,-0.763,-0.6409999999999999,-5.6722842,-2.6356068,-1.7761698,46.696077,1.75325148,-38.65747626
2.7399999999999998,274,0.024,-0.758,-0.643,-5.6722842,-2.6356068,-2.0053530000000004,46.638781200000004,1.75325148,-38.69185374
2.75,275,0.02,-0.759,-0.644,-5.0993262,-2.7501984,-2.0626488000000003,46.58721498,1.7475218999999995,-38.72623122
2.76,276,0.018000000000000002,-0.765,-0.643,-5.0993262,-2.7501984,-1.9480572,46.53564876,1.74179232,-38.76060870000001
2.77,277,0.018000000000000002,-0.765,-0.6459999999999999,-5.5003968,-2.8074942000000003,-1.8907613999999997,46.47835296,1.73606274,-38.79498618
2.78,278,0.016,-0.76,-0.644,-5.042030400000002,-2.578311,-1.8334656000000005,46.46116422,1.7188740000000002,-38.82363408
2.79,279,0.013,-0.753,-0.639,-4.7555514,-2.1199446,-1.7761698,46.409598,1.71314442,-38.85228198
2.8,280,0.018000000000000002,-0.7509999999999999,-0.648,-4.7555514,-1.6615782,-1.7761698,46.36376136,1.7188740000000002,-38.8752003
2.81,281,0.024,-0.7509999999999999,-0.643,-3.9534102,-1.3178034,-1.7761698,46.31792471999999,1.7188740000000002,-38.89811862
2.82,282,0.023,-0.753,-0.642,-4.2398892,-0.8021411999999999,-1.7761698,46.27781766,1.7246035799999997,-38.91530736
2.8299999999999996,283,0.022,-0.755,-0.648,-4.4690724,-0.3437748,-1.7761698,46.27208808,1.7246035799999997,-38.92676652
2.84,284,0.018000000000000002,-0.757,-0.644,-4.2398892,-0.057295800000000015,-1.6042823999999998,46.231981020000006,1.73033316,-38.93822568
2.8499999999999996,285,0.01,-0.759,-0.639,-4.6409598,0.3437748,-1.432395,46.18041480000001,1.7475218999999995,-38.94395526
2.86,286,0.006,-0.7509999999999999,-0.6409999999999999,-5.5576926,1.0313244,-1.3178034,46.123119,1.75898106,-38.94395526
2.8699999999999997,287,0.008,-0.74,-0.643,-5.3858052,1.6615782,-1.2605076000000002,46.07155278000001,1.78189938,-38.94395526
2.88,288,0.017,-0.74,-0.647,-5.0993262,1.9480572,-1.2032118,46.04290488,1.7933585399999998,-38.9324961
2.8899999999999997,289,0.029,-0.7440000000000001,-0.652,-4.8128472,2.4064236,-0.9167328,45.99133866,1.81627686,-38.92103694
2.9,290,0.034,-0.748,-0.6509999999999999,-4.2398892,2.4637194,-0.6302538000000001,45.9512316,1.8334656000000005,-38.90957778
2.9099999999999997,291,0.033,-0.755,-0.657,-4.1825934,2.4637194,-0.4010706,45.90539496,1.85638392,-38.89238904
2.92,292,0.03,-0.757,-0.652,-3.9534102,2.291832,-0.11459160000000004,45.86528790000001,1.87357266,-38.88092988
2.9299999999999997,293,0.025,-0.765,-0.647,-3.724227,2.4064236,0.11459160000000004,45.88820622,1.87357266,-38.85801156
2.94,294,0.024,-0.77,-0.65,-4.5263682,2.5210152000000003,0.3437748,45.84236958,1.8907613999999997,-38.83509324
2.9499999999999997,295,0.026,-0.7709999999999999,-0.6459999999999999,-4.7555514,2.5210152000000003,0.6302538000000001,45.79653294000001,1.90222056,-38.81217492
2.96,296,0.033,-0.768,-0.649,-5.2139178,2.3491278,0.9167328,45.73923714,1.90795014,-38.7892566
2.9699999999999998,297,0.036000000000000004,-0.754,-0.648,-5.5576926,2.4064236,0.9740286,45.68767092,1.9194093000000003,-38.76060870000001
2.98,298,0.033,-0.747,-0.652,-4.6982556,2.2345362,0.7448454000000001,45.67048218,1.92513888,-38.73769038
2.9899999999999998,299,0.032,-0.745,-0.654,-4.1825934,2.1772404,0.5156622000000001,45.63037512,1.93659804,-38.72050164
3.0,300,0.031,-0.743,-0.654,-3.8388186,2.1772404,0.2291832000000001,45.59026806,1.9480572000000005,-38.70331289999999
3.01,301,0.031,-0.747,-0.6509999999999999,-3.4377480000000005,2.1199446,0.057295800000000015,45.55589058,1.96524594,-38.68612416
3.02,302,0.032,-0.7490000000000001,-0.648,-3.6096354,2.291832,0.0,45.52151310000001,1.9767051,-38.66893542
3.03,303,0.033,-0.746,-0.652,-4.297185,2.578311,-0.1718874,45.51578352,1.99389384,-38.65174668
3.04,304,0.03,-0.738,-0.649,-4.2398892,2.86479,-0.286479,45.47567646,2.01681216,-38.63455794
3.05,305,0.029,-0.7340000000000001,-0.6559999999999999,-4.4117766,3.3231564,-0.3437748,45.42983982,2.03973048,-38.61163962
3.06,306,0.028,-0.732,-0.655,-3.8961144,3.380452200000001,-0.3437748,45.38973276,2.0626488000000003,-38.5887213
3.07,307,0.027000000000000003,-0.735,-0.654,-3.2085648,3.6096354,-0.4010706,45.35535528000001,2.0912967,-38.56580298
3.08,308,0.027000000000000003,-0.743,-0.66,-3.151269,3.8388186,-0.4583664000000001,45.35535528000001,2.10848544,-38.53715508000001
3.09,309,0.03,-0.7490000000000001,-0.667,-2.8074942000000003,3.9534102,-0.3437748,45.32670738,2.13713334,-38.50850718
3.0999999999999996,310,0.027000000000000003,-0.752,-0.665,-2.291832,3.8961144,-0.3437748,45.30378906,2.1657812400000003,-38.48558885999999
3.11,311,0.021,-0.7490000000000001,-0.67,-2.6929026,3.8961144,-0.4010706,45.27514116,2.19442914,-38.46267054
3.1199999999999997,312,0.018000000000000002,-0.741,-0.6709999999999999,-2.0053530000000004,3.6096354,-0.3437748,45.25795242,2.22307704,-38.43402264
3.13,313,0.014,-0.736,-0.6679999999999999,-1.432395,3.6669312000000014,-0.2291832000000001,45.26941158,2.2058883,-38.39964516
3.1399999999999997,314,0.014,-0.725,-0.677,-1.4896908000000002,3.9534102,-0.2291832000000001,45.25222284,2.2345362,-38.37672684
3.15,315,0.017,-0.715,-0.6809999999999999,-0.4010706,4.1825934,-0.057295800000000015,45.24649326,2.2631841,-38.34807894
3.1599999999999997,316,0.028,-0.72,-0.68,-0.057295800000000015,4.3544808,0.0,45.24649326,2.2918320000000003,-38.31370146
3.17,317,0.042,-0.726,-0.679,0.0,4.583664,0.0,45.25222284,2.3204799,-38.27932398
3.1799999999999997,318,0.049,-0.733,-0.6779999999999999,0.0,4.6982556,-0.11459160000000004,45.26941158,2.37204612,-38.25067608
3.19,319,0.046,-0.733,-0.672,-0.2291832000000001,5.1566220000000005,-0.5156622000000001,45.26941158,2.41215318,-38.2162986
3.1999999999999997,320,0.039,-0.73,-0.6759999999999999,-0.572958,5.443101,-0.9740286,45.263682,2.45226024,-38.18192112
3.21,321,0.037000000000000005,-0.721,-0.6779999999999999,-0.3437748,5.5003968,-1.3178034,45.25795242,2.49809688,-38.15327322
3.2199999999999998,322,0.036000000000000004,-0.72,-0.674,0.4583664000000001,5.5003968,-1.432395,45.263682,2.5496631,-38.12462532
3.23,323,0.038,-0.721,-0.6779999999999999,0.6875496,5.3285094000000015,-1.2605076000000002,45.263682,2.58404058,-38.09024784
3.2399999999999998,324,0.042,-0.7190000000000001,-0.6920000000000001,1.0886202,4.583664,-1.2605076000000002,45.27514116,2.62414764,-38.06732952
3.25,325,0.054000000000000006,-0.721,-0.688,1.8334656000000005,3.6669312000000014,-1.432395,45.29805948,2.65852512,-38.05014078
3.26,326,0.063,-0.721,-0.684,1.9480572,2.9793816000000004,-1.432395,45.31524822,2.6929026,-38.03868162
3.27,327,0.066,-0.725,-0.7040000000000001,2.0626488000000003,2.1772404,-1.3750992,45.33816654,2.71582092,-38.03295204
3.28,328,0.069,-0.736,-0.6970000000000001,3.4377480000000005,1.145916,-0.9167328,45.38400318,2.76738714,-38.03868162
3.29,329,0.071,-0.747,-0.688,3.6096354,0.1718874,-0.286479,45.42411024,2.77311672,-38.03868162
3.3,330,0.065,-0.735,-0.7240000000000001,2.6929026,-1.0313244,0.2291832000000001,45.44702856,2.76165756,-38.0444112
3.31,331,0.065,-0.728,-0.726,5.1566220000000005,-3.724227,0.6302538000000001,45.50432436,2.73300966,-38.06732952
3.32,332,0.08199999999999999,-0.742,-0.754,7.2192707999999985,-8.021412000000002,1.2605076000000002,45.57307932,2.6699842800000004,-38.11316616000001
3.33,333,0.102,-0.753,-0.799,8.7662574,-14.4385416,2.4064236,45.64183428,2.57258142,-38.20483944
3.34,334,0.127,-0.7709999999999999,-0.815,11.9748222,-22.7464326,4.4690724,45.76215546,2.38923486,-38.33661978
3.3499999999999996,335,0.154,-0.8140000000000001,-0.8220000000000001,14.5531332,-31.51269000000001,6.9327918,45.91112454,2.13140376,-38.51996634
3.36,336,0.163,-0.83,-0.836,14.266654199999998,-38.0444112,9.969469199999999,46.05436404,1.8048176999999999,-38.731960799999996
3.3699999999999997,337,0.15,-0.8170000000000001,-0.856,12.9488508,-42.34159620000001,14.037471,46.18041480000001,1.42666542,-38.94395526
3.38,338,0.122,-0.797,-0.878,13.980175199999998,-42.62807520000001,17.9908812,46.31792471999999,1.01986524,-39.1330314
3.3899999999999997,339,0.085,-0.7829999999999999,-0.899,15.2406828,-40.2789474,21.7151082,46.47835296,0.6016058999999999,-39.28200048
3.4,340,0.058,-0.778,-0.923,14.896907999999998,-35.4088044,23.6058696,46.63305162,0.20053530000000008,-39.37940334
3.4099999999999997,341,0.04,-0.7809999999999999,-0.955,16.157415599999997,-29.335449600000004,22.6891368,46.79920943999999,-0.14896908,-39.44242872
3.42,342,0.027000000000000003,-0.81,-0.979,18.2200644,-25.496631,19.5378678,46.98828558,-0.4583664000000001,-39.49972452
3.4299999999999997,343,0.042,-0.8740000000000001,-0.986,19.5378678,-23.6058696,15.3552744,47.183091299999994,-0.7161975,-39.56847947999999
3.44,344,0.07400000000000001,-0.937,-0.974,18.162768600000003,-23.376686399999997,12.0894138,47.37216744000001,-0.95683986,-39.66015276
3.4499999999999997,345,0.097,-0.983,-0.972,13.5791046,-22.345362,10.4278356,47.51540694,-1.1745638999999999,-39.75755562
3.46,346,0.077,-1.006,-0.966,8.59437,-22.1161788,10.5424272,47.60708021999999,-1.39228794,-39.85495848000001
3.4699999999999998,347,0.038,-0.995,-0.962,1.0313244,-21.0848544,11.2872726,47.62426896,-1.6157415599999996,-39.9351726
3.48,348,-0.006999999999999999,-0.959,-0.975,-4.9274388,-19.8243468,11.6310474,47.57270274,-1.82773602,-40.00392756
3.4899999999999998,349,-0.044,-0.927,-0.967,-9.6256944,-17.8189938,11.2872726,47.48102946,-2.02827132,-40.06122336
3.5,350,-0.064,-0.902,-0.982,-11.6310474,-16.501190400000002,10.313244,47.36643786,-2.21161788,-40.11851916
3.51,351,-0.076,-0.897,-0.937,-11.6310474,-14.037471,8.479778399999999,47.25184625999999,-2.36631654,-40.164355799999996
3.52,352,-0.079,-0.894,-0.925,-16.673077799999998,-12.7196676,6.703608600000001,47.08568844,-2.50382646,-40.21592202
3.53,353,-0.067,-0.8640000000000001,-0.946,-19.5378678,-12.1467096,5.3285094000000015,46.879423560000006,-2.62414764,-40.27321782
3.54,354,-0.042,-0.843,-0.916,-17.4179232,-10.4278356,4.3544808,46.70753616,-2.72728008,-40.31905446
3.55,355,-0.049,-0.8370000000000001,-0.92,-17.8189938,-8.250595200000001,3.724227,46.52418959999999,-2.81322378,-40.35343194
3.56,356,-0.068,-0.805,-0.902,-18.048177,-5.958763200000001,3.151269,46.34657262,-2.87624916,-40.37635026
3.57,357,-0.07400000000000001,-0.758,-0.895,-17.0168526,-5.5003968,1.3178034,46.17468522,-2.9220858,-40.41072774
3.58,358,-0.058,-0.722,-0.902,-14.266654199999998,-5.5003968,-1.3178034,45.99133866,-2.9507337,-40.45656438
3.59,359,-0.036000000000000004,-0.6990000000000001,-0.88,-10.4278356,-5.958763200000001,-3.6669312000000014,45.88820622,-2.96792244,-40.52531934
3.5999999999999996,360,-0.025,-0.6759999999999999,-0.866,-6.703608600000001,-4.583664,-5.2712136,45.82518084,-2.96219286,-40.59980388
3.61,361,-0.02,-0.6459999999999999,-0.852,-3.0366774,-1.8907613999999997,-5.958763200000001,45.79653294000001,-2.92781538,-40.6513701
3.6199999999999997,362,-0.013,-0.629,-0.82,0.8594370000000001,0.3437748,-6.589017,45.8079921,-2.88197874,-40.69720674
3.63,363,-0.014,-0.617,-0.818,4.8701430000000006,1.0313244,-6.8182002000000015,45.7506963,-2.8074942000000003,-40.73158422
3.6399999999999997,364,-0.021,-0.613,-0.797,9.969469199999999,0.8021411999999999,-6.9327918,45.85382874,-2.7501984,-40.77742086
3.65,365,-0.023,-0.62,-0.768,15.2979786,0.0,-7.0473834,46.0085274,-2.69863218,-40.8232575
3.6599999999999997,366,-0.011,-0.629,-0.769,18.048177,0.0,-7.1046792000000005,46.19760354,-2.6413363800000003,-40.87482372
3.67,367,-0.002,-0.629,-0.752,22.631841,-0.6875496,-6.990087599999999,46.42678674,-2.59549974,-40.92638994
3.6799999999999997,368,-0.001,-0.643,-0.7240000000000001,28.762491600000004,-0.8594370000000001,-6.703608600000001,46.696077,-2.53820394,-40.97795616000001
3.69,369,-0.003,-0.6509999999999999,-0.7120000000000001,32.31483119999999,-1.3178034,-6.417129599999999,47.02839264,-2.49809688,-41.02952238
3.6999999999999997,370,-0.022,-0.6459999999999999,-0.687,36.32553720000001,-0.8594370000000001,-6.417129599999999,47.39508576,-2.44653066,-41.0810886
3.71,371,-0.028,-0.644,-0.6920000000000001,39.0184398,-0.1718874,-6.760904399999999,47.79615636000001,-2.39496444,-41.12692524
3.7199999999999998,372,-0.035,-0.634,-0.705,42.5707794,0.6875496,-7.333862400000001,48.23160444,-2.33193906,-41.1670323
3.73,373,-0.029,-0.637,-0.706,46.409598,2.0053530000000004,-8.193299399999999,48.67851168,-2.25172494,-41.20713936
3.7399999999999998,374,-0.024,-0.649,-0.7120000000000001,50.3057124,2.3491278,-9.2819196,49.19417388,-2.16005166,-41.24724642
3.75,375,0.0,-0.6940000000000001,-0.728,54.14453099999999,1.6615782,-10.255948199999999,49.74421356000001,-2.0626488000000003,-41.29881264
3.76,376,0.025,-0.745,-0.722,58.78549079999999,-0.4010706,-10.026765,50.34008988,-1.9767051,-41.36183802
3.77,377,0.033,-0.789,-0.698,62.16594300000001,-1.2032118,-9.797581800000001,50.97607326000001,-1.90222056,-41.43059298
3.78,378,0.038,-0.835,-0.727,63.08267579999999,-1.9480572,-9.6256944,51.61205663999999,-1.82200644,-41.50507752
3.79,379,0.045,-0.87,-0.735,64.28588760000001,-2.6929026,-8.9954406,52.26522876,-1.75898106,-41.57956206
3.8,380,0.04,-0.8859999999999999,-0.7020000000000001,66.463128,-3.7815227999999994,-9.0527364,52.9413192,-1.70168526,-41.65977618
3.81,381,0.032,-0.9,-0.693,67.0933818,-4.583664,-8.9381448,53.6288688,-1.65011904,-41.74571988
3.82,382,0.046,-0.911,-0.706,67.036086,-5.443101,-9.3965112,54.31068882,-1.59282324,-41.84312274
3.83,383,0.045,-0.963,-0.687,68.9268474,-6.9327918,-9.224623800000002,55.00969758,-1.5412570200000002,-41.95198476
3.84,384,0.064,-0.962,-0.61,68.6403684,-8.7662574,-8.7662574,55.71443592000001,-1.50687954,-42.07230594
3.8499999999999996,385,0.071,-0.967,-0.607,68.35388940000001,-8.136003599999999,-9.167328,56.41344468,-1.46677248,-42.18689754
3.86,386,0.036000000000000004,-0.951,-0.522,69.0987348,-5.0993262,-11.1153852,57.11245344,-1.39228794,-42.29002998
3.8699999999999997,387,-0.009000000000000001,-0.931,-0.471,69.7862844,-0.4010706,-13.178034,57.82292136,-1.27196676,-42.35878494
3.88,388,-0.063,-0.91,-0.376,71.5624542,5.3285094000000015,-15.0114996,58.56776676,-1.1172681,-42.38743284
3.8899999999999997,389,-0.117,-0.894,-0.331,71.1040878,10.7143146,-16.2147114,59.28396425999999,-0.9167328000000001,-42.3702441
3.9,390,-0.145,-0.879,-0.299,69.4998054,14.9542038,-15.756345000000001,59.98870260000001,-0.69900876,-42.31867788
3.9099999999999997,391,-0.155,-0.904,-0.31,67.83822719999999,15.6417534,-13.6364004,60.6762522,-0.5042030399999999,-42.24419334
3.92,392,-0.13,-0.897,-0.254,65.54639519999999,15.2979786,-10.7716104,61.3351539,-0.33231564,-42.15824964
3.9299999999999997,393,-0.11,-0.8809999999999999,-0.174,61.36380179999999,15.870936600000002,-8.4224826,61.98832602,-0.18907614,-42.04938762000001
3.94,394,-0.075,-0.855,-0.152,56.3217714,17.246035799999998,-6.703608600000001,62.55555444,-0.04583664,-41.92333686
3.9499999999999997,395,-0.053,-0.8270000000000001,-0.12,54.4883058,19.4232762,-4.5263682,63.10559412,0.08021412,-41.76290862
3.96,396,-0.054000000000000006,-0.82,-0.09,54.602897399999996,20.340009,-2.3491278,63.6556338,0.18907614,-41.59102122
3.9699999999999998,397,-0.066,-0.8220000000000001,-0.071,49.847346,18.621135,0.057295800000000015,64.15983684,0.27501984,-41.41913382
3.98,398,-0.071,-0.8340000000000001,-0.062,44.5761324,16.272007199999994,1.6042823999999998,64.65831030000001,0.31512690000000004,-41.25870558
3.9899999999999998,399,-0.07,-0.845,-0.075,38.3308902,12.891555,2.0626488000000003,65.04219216,0.35523396,-41.12692524
4.0,400,-0.054000000000000006,-0.852,-0.08900000000000001,33.2888598,10.1413566,2.4637194,65.38023738,0.37815228,-41.0237928
4.01,401,-0.055,-0.868,-0.075,32.31483119999999,9.6829902,2.7501984,65.70682344000001,0.38961144,-40.92066036
4.02,402,-0.034,-0.885,-0.102,25.496631,8.136003599999999,3.6096354,65.97038411999999,0.39534102,-40.82898708000001
4.03,403,0.005,-0.871,-0.14300000000000002,15.985528200000001,7.1046792000000005,4.2398892,66.18237858,0.38961144,-40.74877296
4.04,404,0.051,-0.848,-0.198,14.32395,5.2139178,4.3544808,66.32561808,0.3724227000000001,-40.680018
4.05,405,0.07400000000000001,-0.868,-0.25,15.3552744,0.11459160000000004,6.3598338,66.48604631999999,0.31512690000000004,-40.6513701
4.06,406,0.075,-0.883,-0.275,17.9908812,-8.136003599999999,9.568398599999998,66.66939288,0.20053530000000008,-40.68574758
4.07,407,0.077,-0.893,-0.23,19.194093,-14.2093584,13.6936962,66.86419860000001,0.02291832,-40.76596170000001
4.08,408,0.056,-0.885,-0.203,19.480572,-19.0795014,17.3606274,67.08765222,-0.18907614,-40.87482372
4.09,409,0.04,-0.855,-0.171,20.340009,-21.485925,18.5065434,67.29964668,-0.4297185000000001,-41.00087448
4.1,410,-0.006,-0.8290000000000001,-0.147,21.9442914,-24.0069402,18.162768600000003,67.52882988,-0.68182002,-41.14984356
4.109999999999999,411,-0.036000000000000004,-0.795,-0.128,22.7464326,-24.4653066,17.131444199999994,67.76374266,-0.92246238,-41.3102718
4.12,412,-0.056,-0.7709999999999999,-0.083,22.1161788,-25.55392680000001,15.5844576,67.99292586,-1.15164558,-41.48788878
4.13,413,-0.058,-0.731,-0.064,22.5745452,-26.7571386,12.891555,68.25648654,-1.36364004,-41.682694500000004
4.14,414,-0.086,-0.7170000000000001,-0.057,23.7204612,-28.4760126,10.4851314,68.50858806,-1.55844576,-41.91187770000001
4.1499999999999995,415,-0.095,-0.7170000000000001,-0.06,24.5226024,-25.496631,9.6829902,68.76641916,-1.73033316,-42.112413
4.16,416,-0.108,-0.721,-0.068,28.2468294,-22.9756158,9.5111028,69.06435732,-1.8907613999999997,-42.29002998
4.17,417,-0.092,-0.748,-0.054000000000000006,29.4500412,-20.2827132,10.1986524,69.36802506,-2.04546006,-42.43899906
4.18,418,-0.092,-0.7659999999999999,-0.071,28.1895336,-17.18874,11.45916,69.68888154,-2.21734746,-42.55932024
4.1899999999999995,419,-0.081,-0.746,-0.101,29.1635622,-13.9228794,13.521808800000002,69.9868197,-2.38350528,-42.63953436
4.2,420,-0.081,-0.723,-0.056,32.486718599999996,-12.3758928,14.7823164,70.32486492,-2.55539268,-42.70828932
4.21,421,-0.085,-0.7090000000000001,-0.054000000000000006,33.231564,-9.8548776,14.896907999999998,70.66291014,-2.7215505,-42.74839638
4.22,422,-0.093,-0.711,-0.042,33.5753388,-6.3598338,15.756345000000001,71.00668494,-2.88770832,-42.75412596
4.2299999999999995,423,-0.087,-0.705,-0.023,33.403451399999994,-3.6096354,16.386598799999998,71.36764848,-3.05386614,-42.73120764
4.24,424,-0.112,-0.726,-0.057,33.518043,-0.4010706,16.673077799999998,71.70569370000003,-3.2085648000000004,-42.67964142
4.25,425,-0.123,-0.748,-0.08,32.7731976,2.1199446,17.131444199999994,72.03800934,-3.36326346,-42.60515688
4.26,426,-0.149,-0.7709999999999999,-0.08,30.65325300000001,3.4950437999999995,16.7876694,72.34167708,-3.50650296,-42.51921318
4.27,427,-0.156,-0.79,-0.107,28.074942,3.6669312000000014,15.469866,72.6224265,-3.6440128800000013,-42.43326947999999
4.28,428,-0.159,-0.821,-0.159,25.0382646,6.9327918,13.6364004,72.88025760000002,-3.77006364,-42.32440746
4.29,429,-0.155,-0.8540000000000001,-0.156,22.0015872,11.2872726,11.229976800000001,73.09225205999998,-3.84454818,-42.18116796
4.3,430,-0.152,-0.8909999999999999,-0.18,17.18874,14.5531332,8.021412000000002,73.2526803,-3.88465524,-42.01501014
4.31,431,-0.154,-0.921,-0.215,14.037471,18.7930224,4.7555514,73.38446064,-3.87892566,-41.82020442
4.32,432,-0.151,-0.966,-0.245,16.042824000000003,26.356068,1.432395,73.52197056,-3.82162986,-41.56237331999999
4.33,433,-0.145,-1.05,-0.231,12.2040054,30.3094782,-0.7448454000000001,73.63656216000003,-3.752874900000001,-41.27589432
4.34,434,-0.113,-1.042,-0.243,7.2765666,32.31483119999999,-2.291832,73.68812838,-3.6440128800000013,-40.966497
4.35,435,-0.07400000000000001,-1.075,-0.228,8.250595200000001,31.3980984,-0.9740286,73.74542418,-3.5580691799999995,-40.66855884
4.36,436,-0.045,-1.098,-0.231,7.333862400000001,31.1689152,2.9793816000000004,73.79699040000001,-3.50650296,-40.3648911
4.37,437,-0.022,-1.109,-0.239,5.3285094000000015,31.6845774,7.8495246,73.83136787999999,-3.50077338,-40.03830504
4.38,438,-0.012,-1.091,-0.237,5.5576926,31.4553942,11.2872726,73.86574535999998,-3.5236917,-39.7059894
4.39,439,-0.011,-1.046,-0.246,5.2139178,28.934379,12.4904844,73.90012284,-3.56952834,-39.3908625
4.3999999999999995,440,0.002,-0.98,-0.248,6.9327918,23.491278,10.9434978,73.95168906,-3.61536498,-39.13876098
4.41,441,0.006,-0.924,-0.244,11.9748222,18.7357266,8.193299399999999,74.0548215,-3.6440128800000013,-38.9324961
4.42,442,0.012,-0.885,-0.234,18.449247600000003,12.0894138,4.8128472,74.23243848,-3.66120162,-38.80071576
4.43,443,0.026,-0.871,-0.193,24.7517856,4.6409598,2.2345362,74.49026957999997,-3.6382833,-38.75487912000001
4.4399999999999995,444,0.052000000000000005,-0.904,-0.187,27.1582092,-2.8074942000000003,0.6875496,74.771019,-3.64974246,-38.77779744
4.45,445,0.081,-0.962,-0.17600000000000002,27.043617600000005,-10.6570188,0.4583664000000001,75.05176842,-3.67839036,-38.8752003
4.46,446,0.083,-1.009,-0.18,26.298772200000002,-17.9335854,0.6302538000000001,75.33251784000002,-3.71849742,-39.04708770000001
4.47,447,0.041,-1.011,-0.201,25.6685184,-22.5745452,0.057295800000000015,75.60753768,-3.77006364,-39.25908216000001
4.4799999999999995,448,-0.006999999999999999,-0.985,-0.21,24.694489800000003,-26.5279554,-0.8594370000000001,75.88255752,-3.80444112,-39.51691326
4.49,449,-0.052000000000000005,-0.951,-0.206,24.350715,-29.220858000000003,-2.1772404,76.15184778,-3.84454818,-39.80339226
4.5,450,-0.08900000000000001,-0.911,-0.204,23.5485738,-30.9970278,-4.010706000000001,76.41540846000002,-3.8674665,-40.11278958000001
4.51,451,-0.105,-0.882,-0.184,23.6631654,-31.5699858,-6.016058999999999,76.68469872,-3.8674665,-40.42791648
4.52,452,-0.101,-0.87,-0.16399999999999998,25.496631,-31.741873200000004,-7.0473834,76.97117771999999,-3.86173692,-40.75450254
4.53,453,-0.094,-0.8859999999999999,-0.149,26.642547,-31.913760600000003,-8.136003599999999,77.26911588,-3.84454818,-41.07535901999999
4.54,454,-0.095,-0.915,-0.123,28.1895336,-30.93973200000001,-7.9641161999999985,77.58424278,-3.82162986,-41.39048592
4.55,455,-0.096,-0.959,-0.085,29.220858000000003,-29.5646328,-6.016058999999999,77.90509926,-3.81590028,-41.68842408
4.56,456,-0.097,-1.004,-0.056,29.9084076,-26.929026,-3.6669312000000014,78.22595574,-3.82735944,-41.95771434
4.57,457,-0.103,-1.034,-0.032,30.5386614,-23.204799,-2.1772404,78.55827138,-3.8388186000000006,-42.18689754
4.58,458,-0.103,-1.048,-0.016,30.5959572,-19.308684600000007,-1.2605076000000002,78.91350534,-3.86173692,-42.37597368
4.59,459,-0.099,-1.0490000000000002,-0.006999999999999999,30.252182399999995,-16.042824000000003,-1.0313244,79.23436182,-3.873196080000002,-42.53067234
4.6,460,-0.096,-1.045,-0.002,30.4813656,-13.2926256,-0.9167328,79.55521829999998,-3.88465524,-42.6567231
4.61,461,-0.093,-1.029,0.0,30.93973200000001,-10.7716104,-0.6875496,79.87607478,-3.89038482,-42.76558512
4.62,462,-0.108,-1.007,0.006,32.257535399999995,-8.4224826,-0.7448454000000001,80.21412000000002,-3.89038482,-42.84579924
4.63,463,-0.11,-0.987,0.011,32.8877892,-6.130650599999999,-1.3178034,80.5865427,-3.896114400000001,-42.90309504
4.64,464,-0.109,-0.974,0.016,32.8877892,-3.2658606,-1.8907613999999997,80.92458792,-3.873196080000002,-42.93747252
4.6499999999999995,465,-0.106,-0.97,0.014,33.0596766,-0.8021411999999999,-1.8907613999999997,81.26263314,-3.85600734,-42.9432021
4.66,466,-0.105,-0.975,0.012,33.0596766,1.5469866,-1.2605076000000002,81.59494878,-3.8388186000000006,-42.92601336
4.67,467,-0.103,-0.984,0.017,32.7159018,4.1252976000000015,-0.2291832000000001,81.92153484,-3.82735944,-42.88017672
4.68,468,-0.105,-1.0,0.019,31.79916900000001,6.703608600000001,0.6875496,82.2767688,-3.83308902,-42.81142176
4.6899999999999995,469,-0.107,-1.02,0.02,30.194886600000004,9.3965112,1.145916,82.57470696,-3.83308902,-42.7140189
4.7,470,-0.113,-1.036,0.02,28.1322378,11.9748222,1.0313244,82.84972680000001,-3.82735944,-42.58796814
4.71,471,-0.12,-1.044,0.019,26.298772200000002,14.8396122,0.4583664000000001,83.1075579,-3.81590028,-42.43899906
4.72,472,-0.118,-1.044,0.018000000000000002,23.9496444,18.5065434,-0.6302538000000001,83.3367411,-3.79298196,-42.255652500000004
4.7299999999999995,473,-0.111,-1.039,0.014,22.058883,21.027558600000006,-1.5469866,83.5659243,-3.76433406,-42.04938762000001
4.74,474,-0.106,-1.032,0.012,20.7410796,23.5485738,-2.1199446,83.76073002,-3.71849742,-41.81447484
4.75,475,-0.101,-1.037,0.012,18.449247600000003,25.8977016,-2.578311,83.92688783999998,-3.67266078,-41.56237331999999
4.76,476,-0.085,-1.044,0.003,15.5844576,27.3873924,-2.86479,84.06439776,-3.62109456,-41.29308306
4.77,477,-0.069,-1.052,-0.008,13.120738199999998,28.1895336,-2.9220857999999996,84.17898936,-3.56952834,-41.01233364
4.78,478,-0.054000000000000006,-1.053,-0.01,11.516455800000001,28.1322378,-2.8074942000000003,84.29358096,-3.51796212,-40.7373138
4.79,479,-0.043,-1.058,0.0,9.797581800000001,28.0176462,-2.6929026,84.3680655,-3.4663959,-40.46229396
4.8,480,-0.034,-1.057,0.0,6.417129599999999,27.8457588,-2.291832,84.41390214,-3.42628884,-40.18727412
4.81,481,-0.026,-1.047,0.001,3.4377480000000005,26.5852512,-1.7188740000000002,84.43109088,-3.3919113599999995,-39.92944302
4.82,482,-0.026,-1.038,0.0,0.8021411999999999,25.0955604,-1.145916,84.41963172,-3.36326346,-39.6773415
4.83,483,-0.024,-1.038,0.016,-1.3750992,23.8923486,-0.8021411999999999,84.43109088,-3.31742682,-39.4481583
4.84,484,-0.014,-1.039,0.023,-4.583664,22.8037284,-0.5156622000000001,84.3680655,-3.2945085,-39.22470468
4.85,485,-0.011,-1.052,0.018000000000000002,-8.136003599999999,21.5432208,-0.2291832000000001,84.27066264,-3.27731976,-39.01271022
4.86,486,-0.006,-1.064,0.008,-10.6570188,19.9962342,0.286479,84.14461188,-3.27159018,-38.8179045
4.87,487,-0.006,-1.067,0.001,-11.4018642,17.18874,0.8021411999999999,84.01856111999999,-3.2658606,-38.6460171
4.88,488,-0.003,-1.072,-0.009000000000000001,-11.3445684,14.037471,1.2032118,83.92115826,-3.24294228,-38.51423676
4.89,489,0.004,-1.071,-0.011,-11.0580894,12.1467096,1.4896908000000002,83.80083708,-3.25440144,-38.38818600000001
4.8999999999999995,490,0.012,-1.064,-0.017,-11.4018642,9.797581800000001,1.4896908000000002,83.67478632,-3.26013102,-38.29078314
4.91,491,0.017,-1.06,-0.015,-12.605076,6.589017,1.3178034,83.54300598,-3.2658606,-38.22775776
4.92,492,0.021,-1.048,-0.02,-14.667724800000002,2.7501984,1.0313244,83.3940369,-3.27731976,-38.19910986
4.93,493,0.019,-1.032,-0.032,-15.2406828,-1.0886202,0.7448454000000001,83.27371572000001,-3.24294228,-38.22202818
4.9399999999999995,494,0.013,-1.018,-0.033,-14.667724800000002,-4.4690724,0.4583664000000001,83.12474663999998,-3.25440144,-38.26786482
4.95,495,0.005,-1.005,-0.037000000000000005,-14.667724800000002,-7.333862400000001,0.286479,82.98150714,-3.2658606,-38.34234936
4.96,496,-0.006999999999999999,-0.988,-0.048,-14.7250206,-9.797581800000001,-0.11459160000000004,82.83826764,-3.27731976,-38.43975222
4.97,497,-0.018000000000000002,-0.979,-0.052000000000000005,-14.381245800000002,-10.8289062,-0.572958,82.70075771999998,-3.28304934,-38.54861424
4.9799999999999995,498,-0.031,-0.97,-0.053,-13.464512999999998,-11.45916,-0.9740286,82.59189570000002,-3.27731976,-38.66320584
4.99,499,-0.045,-0.963,-0.052000000000000005,-12.7769634,-11.8602306,-1.3178034,82.47157452,-3.27731976,-38.78352702
5.0,500,-0.057,-0.956,-0.054000000000000006,-12.261301199999998,-12.4331886,-1.5469866,82.35698292000002,-3.27159018,-38.90957778
5.01,501,-0.061,-0.957,-0.055,-11.3445684,-12.605076,-1.432395,82.2481209,-3.27159018,-39.04135812
5.02,502,-0.059,-0.962,-0.062,-10.1986524,-12.1467096,-1.0886202,82.15071803999999,-3.27731976,-39.161679299999996
5.03,503,-0.057,-0.963,-0.066,-8.479778399999999,-11.5737516,-0.8021411999999999,82.09342224,-3.28304934,-39.2762709
5.04,504,-0.054000000000000006,-0.961,-0.07,-6.589017,-10.8289062,-0.6302538000000001,82.03612644,-3.28877892,-39.38513292
5.05,505,-0.056,-0.956,-0.071,-5.042030400000002,-10.255948199999999,-0.5156622000000001,81.9902898,-3.2945085,-39.48826536
5.06,506,-0.056,-0.958,-0.07200000000000001,-3.4377480000000005,-9.5111028,-0.572958,81.96164189999998,-3.30023808,-39.58566822
5.07,507,-0.055,-0.964,-0.073,-2.0626488000000003,-8.7662574,-0.8021411999999999,81.95018274,-3.30023808,-39.67161192
5.08,508,-0.052000000000000005,-0.972,-0.068,-0.6302538000000001,-8.59437,-1.0886202,81.99601937999998,-3.28877892,-39.7632852
5.09,509,-0.045,-0.983,-0.065,0.5156622000000001,-8.479778399999999,-1.2605076000000002,82.00747854,-3.28304934,-39.8492289
5.1,510,-0.037000000000000005,-0.99,-0.059,1.5469866,-8.7662574,-1.4896908000000002,82.03039686,-3.27731976,-39.9351726
5.11,511,-0.036000000000000004,-0.996,-0.051,2.4637194,-9.453807000000001,-1.8907613999999997,82.05904475999998,-3.27159018,-40.03257546
5.12,512,-0.039,-0.999,-0.045,2.9793816000000004,-10.5424272,-2.0626488000000003,82.09915182,-3.26013102,-40.14143748
5.13,513,-0.042,-1.0,-0.044,2.6356068,-11.2872726,-2.4064236,82.17936594,-3.2372127,-40.25602908
5.14,514,-0.048,-0.995,-0.047,2.578311,-11.172681,-2.7501984,82.21374342,-3.2257535399999995,-40.37062068
5.1499999999999995,515,-0.054000000000000006,-0.995,-0.05,3.2085648,-10.599723,-2.86479,82.25385048,-3.2085648000000004,-40.47948270000001
5.16,516,-0.06,-0.999,-0.052000000000000005,3.7815227999999994,-10.1413566,-2.86479,82.29968712,-3.18564648,-40.58261514
5.17,517,-0.063,-1.001,-0.049,4.0680017999999984,-9.6256944,-2.6929026,82.34552376,-3.16845774,-40.680018
5.18,518,-0.066,-1.003,-0.044,4.297185,-9.2819196,-2.4637194,82.44292662,-3.15699858,-40.77742086
5.1899999999999995,519,-0.064,-1.004,-0.042,4.4117766,-8.7662574,-2.291832,82.48876326,-3.14553942,-40.86336456
5.2,520,-0.059,-1.001,-0.04,4.6409598,-8.136003599999999,-2.1772404,82.54605906,-3.13408026,-40.94930826
5.21,521,-0.053,-0.998,-0.038,4.8701430000000006,-7.8495246,-2.0053530000000004,82.59762528,-3.11689152,-41.0237928
5.22,522,-0.047,-1.0,-0.039,5.1566220000000005,-7.6203414,-1.8334656000000005,82.65492108,-3.1054323600000004,-41.10400692
5.2299999999999995,523,-0.044,-1.001,-0.04,5.042030400000002,-7.5630456000000015,-1.6042823999999998,82.75805352,-3.08824362,-41.18422104
5.24,524,-0.041,-1.004,-0.043,4.9847345999999995,-7.5057497999999985,-1.3178034,82.81534932000002,-3.0825140400000004,-41.25870558
5.25,525,-0.039,-1.007,-0.044,4.8128472,-7.3911582,-1.0886202,82.87264512,-3.07678446,-41.33319012
5.26,526,-0.04,-1.009,-0.043,4.297185,-7.1046792000000005,-0.6875496,82.91848175999998,-3.07678446,-41.40194508
5.27,527,-0.042,-1.01,-0.044,3.6096354,-6.9327918,-0.2291832000000001,82.95858882,-3.0825140400000004,-41.47070004
5.28,528,-0.044,-1.007,-0.048,3.0366774,-6.760904399999999,0.057295800000000015,83.0502621,-3.07678446,-41.539455
5.29,529,-0.048,-1.002,-0.048,2.9793816000000004,-6.4744254,0.2291832000000001,83.08463958,-3.0825140400000004,-41.60248038
5.3,530,-0.053,-1.001,-0.046,2.9220857999999996,-6.1879464,0.5156622000000001,83.11901706,-3.0939732,-41.66550576
5.31,531,-0.061,-1.005,-0.046,2.5210152000000003,-5.844171599999999,0.6875496,83.14766496,-3.1054323600000004,-41.72280156
5.32,532,-0.064,-1.007,-0.048,2.1199446,-5.3858052,0.572958,83.17058328,-3.11689152,-41.77436778
5.33,533,-0.062,-1.009,-0.046,1.2032118,-4.583664,0.286479,83.28517488,-3.12835068,-41.82020442
5.34,534,-0.061,-1.008,-0.049,-0.2291832000000001,-3.724227,0.11459160000000004,83.28517488,-3.13408026,-41.8545819
5.35,535,-0.055,-1.006,-0.055,-0.9740286,-3.2658606,0.2291832000000001,83.27944529999998,-3.1398098400000003,-41.88895938
5.36,536,-0.049,-1.002,-0.058,-0.8594370000000001,-3.2085648,0.5156622000000001,83.27371572000001,-3.151269,-41.92333686
5.37,537,-0.047,-0.999,-0.058,-0.2291832000000001,-3.0939732,0.8594370000000001,83.27371572000001,-3.1627281600000003,-41.95198476
5.38,538,-0.05,-0.998,-0.052000000000000005,0.4583664000000001,-2.4064236,0.9740286,83.3940369,-3.151269,-41.98063266
5.39,539,-0.055,-0.998,-0.048,0.8594370000000001,-1.6615782,0.8021411999999999,83.40549606,-3.1627281600000003,-41.9978214
5.3999999999999995,540,-0.058,-0.999,-0.045,0.9740286,-1.3178034,0.6302538000000001,83.41695522,-3.16845774,-42.00928055999999
5.41,541,-0.064,-1.002,-0.043,0.8021411999999999,-1.0313244,0.286479,83.4226848,-3.1741873200000006,-42.02073972
5.42,542,-0.066,-1.007,-0.046,0.9167328,-0.6302538000000001,0.057295800000000015,83.43414396,-3.1741873200000006,-42.0264693
5.43,543,-0.064,-1.009,-0.047,0.9740286,-0.11459160000000004,-0.11459160000000004,83.78364833999998,-3.20283522,-42.03219888
5.4399999999999995,544,-0.061,-1.007,-0.049,0.8021411999999999,0.4010706,-0.1718874,83.7951075,-3.20283522,-42.0264693
5.45,545,-0.058,-1.006,-0.052000000000000005,0.7448454000000001,1.2032118,-0.1718874,83.80083708,-3.19710564,-42.01501014
5.46,546,-0.056,-1.003,-0.054000000000000006,1.145916,1.7761698,-0.11459160000000004,83.81229624,-3.1913760600000005,-41.9978214
5.47,547,-0.056,-1.003,-0.052000000000000005,1.432395,2.5210152000000003,0.0,83.82375540000002,-3.1913760600000005,-41.9691735
5.4799999999999995,548,-0.057,-1.001,-0.05,1.5469866,3.2085648,0.0,83.89823994000002,-3.18564648,-41.9405256
5.49,549,-0.059,-0.999,-0.048,1.7761698,3.6669312000000014,0.0,83.91542868,-3.1799169000000003,-41.90614812
5.5,550,-0.059,-1.001,-0.049,1.8907613999999997,4.0680017999999984,-0.057295800000000015,83.93261742,-3.1799169000000003,-41.86604106
5.51,551,-0.055,-1.002,-0.047,1.8907613999999997,4.6982556,-0.1718874,83.94980616,-3.1741873200000006,-41.82020442
5.52,552,-0.051,-1.002,-0.045,1.5469866,4.8128472,-0.2291832000000001,83.96126532,-3.16845774,-41.76863820000001
5.53,553,-0.046,-1.004,-0.048,1.3750992,4.9847345999999995,-0.1718874,84.0242907,-3.1398098400000003,-41.72853114
5.54,554,-0.046,-1.009,-0.047,1.2605076000000002,4.9847345999999995,-0.057295800000000015,84.03574986,-3.13408026,-41.67696492
5.55,555,-0.044,-1.015,-0.05,1.0313244,4.8128472,0.0,84.04147944,-3.12835068,-41.63112828
