TimeStamp(s),FrameCounter,AccX,AccY,AccZ,GyrX,GyrY,GyrZ,EulerX,EulerY,EulerZ
0.01,1,-0.08900000000000001,-1.003,0.012,0.057295800000000015,0.2291832000000001,-0.1718874,91.11178116,-4.88160216,-9.906443820000002
0.02,2,-0.087,-1.003,0.012,0.11459160000000004,0.2291832000000001,-0.11459160000000004,91.11178116,-4.88160216,-9.906443820000002
0.03,3,-0.086,-1.004,0.013,0.0,0.2291832000000001,-0.2291832000000001,91.11178116,-4.88160216,-9.90071424
0.04,4,-0.086,-1.003,0.013,-0.057295800000000015,0.2291832000000001,-0.1718874,91.11178116,-4.87587258,-9.90071424
0.05,5,-0.087,-1.005,0.013,-0.11459160000000004,0.1718874,-0.286479,90.80238384,-4.8414950999999995,-9.87206634
0.060000000000000005,6,-0.08900000000000001,-1.006,0.011,-0.286479,0.286479,-0.286479,90.79665426,-4.8414950999999995,-9.86633676
0.06999999999999999,7,-0.092,-1.005,0.012,-0.4010706,0.286479,-0.286479,90.79665426,-4.83576552,-9.86633676
0.08,8,-0.093,-1.005,0.011,-0.4010706,0.5156622000000001,-0.2291832000000001,90.79092468,-4.83576552,-9.86060718
0.09,9,-0.093,-1.006,0.011,-0.4010706,0.6302538000000001,-0.1718874,90.78519509999998,-4.83576552,-9.8548776
0.09999999999999999,10,-0.092,-1.006,0.011,-0.5156622000000001,0.572958,-0.11459160000000004,90.66487392,-4.84722468,-9.84341844
0.11,11,-0.092,-1.003,0.011,-0.7448454000000001,0.5156622000000001,-0.1718874,90.65341476,-4.84722468,-9.83768886
0.12,12,-0.091,-1.001,0.01,-0.9740286,0.4010706,-0.2291832000000001,90.6419556,-4.84722468,-9.83195928
0.13,13,-0.092,-1.002,0.006999999999999999,-1.0313244,0.286479,-0.2291832000000001,90.63049644,-4.8414950999999995,-9.8262297
0.14,14,-0.091,-1.003,0.006,-0.9740286,0.4583664000000001,-0.2291832000000001,90.62476686,-4.8414950999999995,-9.8262297
0.15000000000000002,15,-0.093,-1.003,0.004,-0.7448454000000001,0.6302538000000001,-0.11459160000000004,90.52163442,-4.85295426,-9.81477054
0.16,16,-0.094,-1.003,0.005,-0.572958,0.6302538000000001,-0.11459160000000004,90.51590484,-4.85295426,-9.80904096
0.17,17,-0.096,-1.004,0.006999999999999999,-0.4010706,0.6302538000000001,-0.057295800000000015,90.51017526,-4.85295426,-9.80331138
0.18000000000000002,18,-0.095,-1.005,0.008,-0.6302538000000001,0.4583664000000001,0.0,90.50444568,-4.85295426,-9.7975818
0.19,19,-0.095,-1.006,0.006,-0.8594370000000001,0.5156622000000001,0.0,90.49298652,-4.85295426,-9.79185222
0.2,20,-0.094,-1.008,0.005,-1.0313244,0.8021411999999999,0.057295800000000015,90.4127724,-4.86441342,-9.78039306
0.21000000000000002,21,-0.093,-1.012,0.006,-1.145916,1.0313244,0.2291832000000001,90.40131324,-4.8701430000000006,-9.7689339
0.22,22,-0.09,-1.012,0.008,-1.0886202,0.9740286,0.3437748,90.38985408,-4.8701430000000006,-9.75747474
0.23,23,-0.08800000000000001,-1.009,0.006999999999999999,-1.2032118,0.6302538000000001,0.4583664000000001,90.37839492,-4.87587258,-9.75174516
0.24000000000000002,24,-0.08800000000000001,-1.005,0.01,-1.3750992,0.0,0.572958,90.36120618,-4.88160216,-9.75174516
0.25,25,-0.09,-0.999,0.009000000000000001,-1.7761698,-0.286479,0.6302538000000001,90.30963996,-4.893061319999998,-9.75174516
0.26,26,-0.092,-0.997,0.009000000000000001,-2.1772404,-0.286479,0.6875496,90.28672164,-4.898790900000002,-9.75747474
0.27,27,-0.094,-0.998,0.006999999999999999,-2.291832,-0.1718874,0.7448454000000001,90.26380332,-4.90452048,-9.75747474
0.28,28,-0.095,-0.999,0.004,-2.3491278,-0.11459160000000004,0.6875496,90.240885,-4.91597964,-9.76320432
0.29000000000000004,29,-0.095,-1.004,0.001,-2.291832,-0.3437748,0.7448454000000001,90.21796668,-4.921709219999999,-9.7689339
0.3,30,-0.092,-1.006,0.002,-2.1772404,-0.4583664000000001,0.8594370000000001,90.16067088,-4.93316838,-9.7689339
0.31,31,-0.08900000000000001,-1.005,0.002,-1.8907613999999997,-0.6302538000000001,0.9167328,90.13775256,-4.93889796,-9.77466348
0.32,32,-0.08800000000000001,-1.003,0.001,-1.8334656000000005,-0.8594370000000001,0.8594370000000001,90.12056382,-4.95035712,-9.78612264
0.33,33,-0.08800000000000001,-1.001,0.0,-1.8907613999999997,-1.3178034,0.9167328,90.10337508,-4.9560867,-9.7975818
0.34,34,-0.08900000000000001,-1.0,0.0,-1.8334656000000005,-1.7188740000000002,1.0886202,90.08618634,-4.96754586,-9.81477054
0.35000000000000003,35,-0.09,-1.001,0.0,-1.8907613999999997,-2.1199446,1.145916,90.04607927999999,-4.97900502,-9.83768886
0.36000000000000004,36,-0.092,-1.001,0.002,-1.8334656000000005,-2.4064236,1.2032118,90.02889053999998,-4.99046418,-9.86060718
0.37,37,-0.096,-1.004,0.004,-1.8334656000000005,-2.6356068,1.3178034,90.0117018,-5.00765292,-9.88925508
0.38,38,-0.097,-1.006,0.006999999999999999,-2.0626488000000003,-2.7501984,1.3178034,89.99451306,-5.01911208,-9.9121734
0.39,39,-0.09,-1.009,0.005,-2.4637194,-2.9220857999999996,1.4896908000000002,89.97159474,-5.03057124,-9.94655088
0.4,40,-0.087,-1.01,0.003,-3.151269,-3.2658606,1.8907613999999997,89.93148768,-5.04775998,-9.97519878
0.41000000000000003,41,-0.083,-1.007,0.004,-3.8388186,-3.4950437999999995,2.1199446,89.8971102,-5.06494872,-10.00957626
0.42000000000000004,42,-0.079,-1.005,0.0,-4.2398892,-3.8961144,2.6356068,89.85700313999996,-5.0935966200000005,-10.04968332
0.43,43,-0.079,-1.001,-0.006,-4.4117766,-4.6409598,2.9793816000000004,89.81689608,-5.1222445200000015,-10.09551996
0.44,44,-0.085,-0.999,-0.01,-4.2398892,-5.72958,2.9793816000000004,89.7825186,-5.15089242,-10.15281576
0.45,45,-0.096,-1.0,-0.008,-3.8961144,-6.990087599999999,2.86479,89.73668196000001,-5.17954032,-10.2273003
0.46,46,-0.108,-0.999,-0.004,-3.380452200000001,-7.9641161999999985,2.6356068,89.70803406,-5.20818822,-10.30178484
0.47000000000000003,47,-0.116,-1.003,0.004,-2.2345362,-8.021412000000002,2.4064236,89.6965749,-5.231106540000001,-10.38199896
0.48000000000000004,48,-0.113,-1.009,0.008,-1.3750992,-7.5630456000000015,1.9480572,89.69084532,-5.24829528,-10.46221308
0.49,49,-0.108,-1.008,0.006999999999999999,-1.2032118,-7.5057497999999985,1.6615782,89.68511574,-5.25975444,-10.53669762
0.5,50,-0.109,-1.001,0.008,-1.432395,-7.3911582,1.4896908000000002,89.67365658,-5.2826727600000005,-10.61118216
0.51,51,-0.112,-0.996,0.012,-1.6042823999999998,-7.2765666,1.3178034,89.66219742,-5.29413192,-10.679937120000002
0.52,52,-0.113,-0.993,0.014,-2.0053530000000004,-7.1046792000000005,1.2032118,89.65073826,-5.30559108,-10.75442166
0.53,53,-0.114,-0.996,0.017,-2.5210152000000003,-6.9327918,1.0886202,89.63354952,-5.31705024,-10.82317662
0.54,54,-0.113,-1.005,0.018000000000000002,-3.0939732,-6.875496000000001,1.0886202,89.6106312,-5.3285094000000015,-10.89193158
0.55,55,-0.109,-1.015,0.017,-3.9534102,-6.760904399999999,1.3178034,89.57625372,-5.339968560000001,-10.96068654
0.56,56,-0.104,-1.012,0.006999999999999999,-5.1566220000000005,-6.875496000000001,1.6042823999999998,89.53041707999998,-5.3571573,-11.0294415
0.5700000000000001,57,-0.107,-1.002,0.004,-5.5003968,-7.448453999999999,1.8334656000000005,89.48458044,-5.37434604,-11.10392604
0.5800000000000001,58,-0.112,-0.997,0.003,-5.2139178,-8.078707799999998,1.9480572,89.4387438,-5.397264359999999,-11.18414016
0.59,59,-0.114,-0.997,0.013,-4.297185,-7.9641161999999985,1.9480572,89.40436632,-5.414453099999999,-11.26435428
0.6,60,-0.112,-1.003,0.014,-3.151269,-7.5057497999999985,1.7761698,89.38144799999998,-5.43737142,-11.3445684
0.61,61,-0.117,-1.006,0.014,-2.6356068,-7.2765666,1.4896908000000002,89.35852968,-5.44883058,-11.41332336
0.62,62,-0.134,-1.009,0.017,-2.4637194,-6.9327918,0.9740286,89.34134094,-5.46028974,-11.48207832
0.63,63,-0.15,-1.011,0.02,-2.8074942000000003,-5.9014674000000005,0.2291832000000001,89.31842262,-5.46028974,-11.545103700000002
0.64,64,-0.153,-1.015,0.016,-4.010706000000001,-4.297185,-0.4010706,89.28404514,-5.45456016,-11.58521076
0.65,65,-0.147,-1.013,0.006999999999999999,-4.9274388,-3.0366774,-0.572958,89.23247891999998,-5.47747848,-11.61958824
0.66,66,-0.138,-1.008,-0.001,-5.5003968,-2.2345362,-0.4583664000000001,89.1809127,-5.47747848,-11.64823614
0.67,67,-0.131,-1.005,-0.006999999999999999,-6.130650599999999,-2.1199446,-0.2291832000000001,89.12361690000002,-5.4717489000000015,-11.66542488
0.68,68,-0.125,-1.002,-0.008,-6.875496000000001,-2.1772404,-0.1718874,89.05486194,-5.4717489000000015,-11.688343199999998
0.6900000000000001,69,-0.116,-1.002,-0.008,-7.5057497999999985,-2.4064236,-0.1718874,88.98037740000002,-5.466019319999999,-11.7169911
0.7000000000000001,70,-0.103,-1.003,-0.011,-8.021412000000002,-2.9793816000000004,-0.057295800000000015,88.89443370000002,-5.466019319999999,-11.745639
0.7100000000000001,71,-0.094,-1.002,-0.018000000000000002,-8.7662574,-3.9534102,0.057295800000000015,88.80848999999998,-5.466019319999999,-11.78574606
0.72,72,-0.097,-0.997,-0.021,-9.0527364,-5.5576926,0.1718874,88.7225463,-5.4717489000000015,-11.84304186
0.73,73,-0.107,-0.998,-0.017,-8.8235532,-6.9327918,0.11459160000000004,88.64233218000004,-5.4717489000000015,-11.91179682
0.74,74,-0.118,-1.007,-0.019,-8.9954406,-8.7662574,0.3437748,88.55638848,-5.47747848,-12.0034701
0.75,75,-0.125,-1.023,-0.021,-10.1413566,-10.886202,1.2032118,88.4647152,-5.4946672199999975,-12.11233212
0.76,76,-0.129,-1.035,-0.026,-12.0894138,-13.178034,2.6356068,88.35585318,-5.52331512,-12.24411246
0.77,77,-0.13,-1.04,-0.036000000000000004,-13.980175199999998,-15.5844576,4.297185,88.22980242,-5.56915176,-12.39881112
0.78,78,-0.133,-1.037,-0.032,-15.2406828,-18.1054728,5.72958,88.0922925,-5.62644756,-12.5764281
0.79,79,-0.147,-1.038,-0.03,-15.985528200000001,-19.0795014,6.5317212,87.95478258,-5.6952025200000005,-12.765504240000002
0.8,80,-0.17,-1.041,-0.044,-18.5638392,-19.4232762,7.161975,87.78289518,-5.77541664,-12.96030996
0.81,81,-0.193,-1.035,-0.07200000000000001,-20.912967,-20.2827132,7.3911582,87.59381904,-5.85563076,-13.160845260000002
0.8200000000000001,82,-0.214,-1.015,-0.094,-21.4286292,-21.772404,6.9327918,87.39901332,-5.930115299999999,-13.3785693
0.8300000000000001,83,-0.218,-1.001,-0.103,-19.7097552,-22.2880662,5.5576926,87.22712592,-5.9931406800000016,-13.60202292
0.8400000000000001,84,-0.22,-0.988,-0.108,-18.621135,-21.829699800000004,3.8388186,87.0609681,-6.0332477399999975,-13.81974696
0.85,85,-0.224,-0.962,-0.101,-17.18874,-20.168121600000006,1.9480572,86.90053986000002,-6.079084379999999,-14.020282259999998
0.86,86,-0.229,-0.936,-0.08900000000000001,-15.0687954,-18.449247600000003,0.0,86.76875952,-6.09054354,-14.2093584
0.87,87,-0.249,-0.909,-0.063,-13.349921400000001,-17.589810600000003,-2.3491278,86.65416791999998,-6.067625219999999,-14.38697538
0.88,88,-0.273,-0.897,-0.034,-11.917526400000002,-15.5844576,-5.443101,86.55103548,-6.02178858,-14.54740362
0.89,89,-0.281,-0.901,-0.014,-11.6310474,-12.3758928,-8.5370742,86.44790304,-5.94157446,-14.67345438
0.9,90,-0.289,-0.91,-0.005,-12.3758928,-7.3911582,-11.4018642,86.33904102,-5.872819499999999,-14.76512766
0.91,91,-0.289,-0.927,-0.012,-12.7769634,-1.0886202,-13.464512999999998,86.21299026,-5.74103916,-14.78804598
0.92,92,-0.269,-0.95,-0.023,-13.0634424,6.2452422,-14.667724800000002,86.06975076,-5.59207008,-14.73647976
0.93,93,-0.235,-0.976,-0.059,-13.6364004,12.605076,-14.152062599999999,85.92078168,-5.44883058,-14.62188816
0.9400000000000001,94,-0.194,-1.0,-0.128,-14.495837400000001,17.9908812,-11.0007936,85.75462386000002,-5.33423898,-14.450000759999998
0.9500000000000001,95,-0.14300000000000002,-1.017,-0.151,-12.5477802,21.3140376,-5.042030400000002,85.58846604,-5.27694318,-14.24373588
0.9600000000000001,96,-0.087,-1.022,-0.134,-9.1100322,20.912967,-0.4010706,85.47387444,-5.2654840200000015,-14.037471000000002
0.97,97,-0.069,-1.03,-0.127,-7.3911582,19.0222056,0.7448454000000001,85.38220116,-5.25975444,-13.84839486
0.98,98,-0.085,-1.053,-0.142,-8.5370742,17.589810600000003,-1.145916,85.27333913999998,-5.2425657,-13.67650746
0.99,99,-0.12,-1.087,-0.162,-11.6310474,17.761698000000006,-5.1566220000000005,85.13582922,-5.17954032,-13.504620060000002
1.0,100,-0.125,-1.122,-0.185,-15.4125702,20.5691922,-9.797581800000001,84.95248266,-5.07640788,-13.30981434
1.01,101,-0.083,-1.132,-0.21,-17.3606274,24.064235999999998,-13.8082878,84.75194736,-4.921709219999999,-13.086360719999998
1.02,102,-0.011,-1.099,-0.189,-13.2926256,26.298772200000002,-16.1001198,84.59151912,-4.749821819999998,-12.839988780000002
1.03,103,0.058,-1.045,-0.152,-9.2819196,26.41336380000001,-15.985528200000001,84.47119794,-4.57220484,-12.59361684
1.04,104,0.109,-0.983,-0.092,-8.9381448,25.78311,-14.4385416,84.36233591999998,-4.4117766000000005,-12.35297448
1.05,105,0.139,-0.938,-0.034,-10.8289062,26.356068,-12.6623718,84.23628516,-4.2398892,-12.10087296
1.06,106,0.13699999999999998,-0.923,0.02,-14.667724800000002,26.1841806,-11.516455800000001,84.06439776,-4.10810886,-11.85450102
1.07,107,0.115,-0.957,0.032,-20.454600600000006,25.3247436,-11.2872726,83.83521456,-3.9820580999999997,-11.61958824
1.08,108,0.079,-1.013,0.011,-27.501984000000004,24.5226024,-11.917526400000002,83.53727640000002,-3.84454818,-11.39040504
1.09,109,0.035,-1.065,-0.009000000000000001,-31.5699858,23.5485738,-12.7769634,83.19923118,-3.70130868,-11.17841058
1.1,110,-0.004,-1.11,-0.006999999999999999,-29.1635622,22.2880662,-13.5791046,82.89556344,-3.54661002,-10.9721457
1.11,111,-0.016,-1.123,0.006,-24.064235999999998,19.2513888,-13.6364004,82.63773234,-3.3919113599999995,-10.80598788
1.12,112,0.009000000000000001,-1.085,0.03,-18.5065434,13.6936962,-13.2353298,82.44292662,-3.2486718599999995,-10.6856667
1.1300000000000001,113,0.043,-1.045,0.05,-15.0114996,8.021412000000002,-13.407217200000002,82.28249838,-3.11116194,-10.6283709
1.1400000000000001,114,0.069,-1.026,0.08,-12.4331886,2.9793816000000004,-15.183387000000002,82.15644762000002,-2.9564632800000004,-10.61691174
1.1500000000000001,115,0.085,-1.022,0.098,-12.6623718,-1.432395,-17.5325148,82.07050392,-2.76165756,-10.6570188
1.1600000000000001,116,0.091,-1.03,0.087,-14.5531332,-3.2085648,-19.8816426,81.92153484,-2.57258142,-10.7143146
1.17,117,0.08800000000000001,-1.039,0.064,-16.7876694,-3.2658606,-21.772404,81.75537702,-2.36058696,-10.77733998
1.18,118,0.079,-1.051,0.047,-18.2773602,-2.9220857999999996,-22.5745452,81.57203046,-2.1485925000000003,-10.84036536
1.19,119,0.053,-1.053,0.045,-21.3140376,-3.2085648,-21.6005166,81.360036,-1.93659804,-10.90912032
1.2,120,0.029,-1.0590000000000002,0.039,-24.694489800000003,-5.2712136,-19.3659804,81.1308528,-1.75325148,-10.98933444
1.21,121,0.01,-1.047,0.014,-28.8770832,-6.990087599999999,-16.329303,80.8443738,-1.6042824000000002,-11.0867373
1.22,122,-0.009000000000000001,-1.007,-0.016,-30.3094782,-8.307891,-13.349921400000001,80.54070606,-1.48396122,-11.18986974
1.23,123,-0.036000000000000004,-0.97,-0.04,-28.4187168,-8.307891,-11.8602306,80.25422705999998,-1.38082878,-11.29873176
1.24,124,-0.055,-0.935,-0.039,-24.5798982,-7.448453999999999,-11.4018642,80.00785512,-1.28342592,-11.39040504
1.25,125,-0.056,-0.909,-0.021,-20.7410796,-7.6776372,-11.745639,79.81877897999998,-1.18602306,-11.4878079
1.26,126,-0.046,-0.898,0.0,-17.9908812,-7.3911582,-12.261301199999998,79.63543242,-1.07716104,-11.58521076
1.27,127,-0.022,-0.903,0.008,-16.2147114,-6.417129599999999,-13.178034,79.47500418000001,-0.96256944,-11.67688404
1.28,128,0.006999999999999999,-0.927,0.013,-15.0687954,-4.2398892,-13.8082878,79.32603509999998,-0.83651868,-11.73990942
1.29,129,0.044,-0.964,0.015,-15.2979786,-2.4637194,-13.9228794,79.17133643999998,-0.70473834,-11.791475639999998
1.3,130,0.068,-1.016,0.019,-17.0168526,-2.8074942000000003,-13.0634424,79.03382652,-0.56149884,-11.84304186
1.31,131,0.102,-1.067,0.022,-19.8243468,-3.6096354,-11.0580894,78.83329122,-0.46409598,-11.90033766
1.32,132,0.128,-1.103,-0.001,-22.4026578,-5.3858052,-8.307891,78.60410802,-0.39534102,-11.9748222
1.33,133,0.127,-1.119,-0.024,-22.459953600000002,-8.021412000000002,-5.6722842,78.38065440000003,-0.35523396,-12.06649548
1.34,134,0.109,-1.099,-0.032,-19.767051,-10.599723,-3.4950437999999995,78.1801191,-0.33804522,-12.1753575
1.35,135,0.055,-1.056,-0.018000000000000002,-14.5531332,-14.266654199999998,-2.0626488000000003,78.07698666,-0.33804522,-12.318597
1.36,136,0.004,-1.034,0.018000000000000002,-8.59437,-17.475219,-1.9480572,77.99104296,-0.34950438,-12.49621398
1.37,137,-0.021,-1.041,0.034,-5.3285094000000015,-16.959556799999998,-2.5210152000000003,77.93947674,-0.35523396,-12.66810138
1.3800000000000001,138,-0.034,-1.089,0.033,-3.7815227999999994,-14.32395,-3.4377480000000005,77.90509926,-0.34950438,-12.81707046
1.3900000000000001,139,-0.038,-1.175,0.034,-4.297185,-10.0840608,-3.8961144,77.86499219999997,-0.32658606,-12.920202899999998
1.4000000000000001,140,-0.031,-1.273,0.027000000000000003,-6.6463128000000005,-4.0680017999999984,-2.6929026,77.81915556,-0.30939732,-12.96603954
1.4100000000000001,141,0.009000000000000001,-1.379,0.004,-9.6256944,0.6302538000000001,0.8594370000000001,77.7217527,-0.32085648,-12.96030996
1.42,142,0.085,-1.473,-0.015,-14.152062599999999,3.0939732,6.5317212,77.5785132,-0.37815228,-12.920202899999998
1.43,143,0.161,-1.554,-0.2,-19.8243468,6.990087599999999,12.9488508,77.37224832,-0.49274388,-12.82280004
1.44,144,0.131,-1.5830000000000002,-0.5489999999999999,-13.0061466,5.042030400000002,12.4904844,77.24046797999998,-0.6073354799999999,-12.7483155
1.45,145,0.043,-1.588,-0.64,12.3758928,-15.4125702,7.7922288,77.36651874,-0.7104679199999999,-12.88009584
1.46,146,-0.011,-1.557,-0.265,24.923673,-31.627281600000003,4.2398892,77.63007941999999,-0.8078707799999998,-13.178034
1.47,147,0.047,-1.42,-0.184,15.9282324,-30.5959572,4.5263682,77.80196682,-0.90527364,-13.464513
1.48,148,0.113,-1.317,-0.348,12.891555,-32.830493399999995,9.6829902,77.93947674,-1.0599723,-13.76245116
1.49,149,0.083,-1.288,-0.379,13.349921400000001,-37.2995658,16.615782,78.08844581999998,-1.2891555000000001,-14.08903722
1.5,150,0.048,-1.145,-0.338,8.880849000000003,-39.0757356,18.907614000000002,78.1801191,-1.52979786,-14.43281202
1.51,151,0.034,-0.962,-0.397,4.9847345999999995,-38.0444112,19.0222056,78.24314448,-1.78189938,-14.75939808
1.52,152,0.005,-0.848,-0.429,1.8907613999999997,-38.38818600000001,20.9702628,78.27752196,-2.05691922,-15.091713719999998
1.53,153,-0.05,-0.764,-0.377,-2.4637194,-34.66395900000001,23.2620948,78.27179238,-2.34339822,-15.3839223
1.54,154,-0.097,-0.713,-0.363,-7.7922288,-30.7678446,23.8923486,78.20876700000002,-2.62987722,-15.63602382
1.55,155,-0.133,-0.69,-0.305,-13.2353298,-26.298772200000002,22.9756158,78.07125708,-2.91062664,-15.85374786
1.56,156,-0.163,-0.703,-0.259,-17.0741484,-19.938938399999998,21.027558600000006,77.91082884,-3.151269,-16.002716940000006
1.57,157,-0.193,-0.779,-0.21600000000000005,-19.595163600000006,-14.495837400000001,18.5638392,77.71602312,-3.36326346,-16.105849380000002
1.58,158,-0.225,-0.907,-0.146,-22.173474600000002,-7.1046792000000005,16.8449652,77.49829908000002,-3.54088044,-16.14595644
1.59,159,-0.236,-1.04,-0.14300000000000002,-23.8923486,-1.2605076000000002,17.0168526,77.25192713999998,-3.71276784,-16.12303812
1.6,160,-0.212,-1.153,-0.221,-25.6112226,0.057295800000000015,19.8816426,76.98836646,-3.91330314,-16.08293106
1.61,161,-0.188,-1.218,-0.318,-26.41336380000001,-4.9847345999999995,24.8663772,76.7190762,-4.16540466,-16.07720148
1.62,162,-0.152,-1.246,-0.406,-27.043617600000005,-14.2093584,31.054323600000004,76.45551551999998,-4.4977203,-16.14595644
1.6300000000000001,163,-0.038,-1.253,-0.407,-24.350715,-20.454600600000006,34.4920716,76.22060274,-4.87587258,-16.26627762
1.6400000000000001,164,0.05,-1.227,-0.36,-20.454600600000006,-20.626488,33.0596766,76.02579702,-5.2425657,-16.392328380000002
1.6500000000000001,165,0.073,-1.153,-0.315,-15.985528200000001,-21.3140376,27.1009134,75.87682794,-5.53477428,-16.53556788
1.6600000000000001,166,0.03,-1.107,-0.277,-14.2093584,-21.2567418,20.511896399999998,75.75077718,-5.781146219999999,-16.69026654
1.6700000000000002,167,-0.032,-1.121,-0.287,-15.469866,-22.4026578,16.4438946,75.61899684,-5.9931406800000016,-16.86788352
1.68,168,-0.08900000000000001,-1.168,-0.273,-14.8396122,-25.6685184,16.1001198,75.49294608,-6.205135139999999,-17.07987798
1.69,169,-0.135,-1.225,-0.229,-13.8655836,-30.0229992,17.303331600000003,75.38408405999998,-6.4400479200000005,-17.331979500000006
1.7,170,-0.155,-1.223,-0.209,-13.6936962,-34.37748,18.5065434,75.2866812,-6.69787902,-17.6184585
1.71,171,-0.174,-1.178,-0.184,-12.4904844,-38.27359439999999,19.1367972,75.20646708,-6.96716928,-17.94504456
1.72,172,-0.187,-1.135,-0.175,-10.886202,-40.2789474,19.7097552,75.14344170000003,-7.2479187,-18.28308978
1.73,173,-0.189,-1.106,-0.2,-10.313244,-40.8519054,20.168121600000006,75.08614589999998,-7.534397699999999,-18.63259416
1.74,174,-0.208,-1.051,-0.201,-7.2765666,-41.3102718,20.511896399999998,75.06322758,-7.82660628,-18.982098540000006
1.75,175,-0.252,-0.972,-0.14,-0.11459160000000004,-39.877876799999996,18.7357266,75.13198254,-8.11881486,-19.32587334
1.76,176,-0.29600000000000004,-0.882,-0.029,6.3025379999999975,-33.403451399999994,15.2406828,75.24084456,-8.34226848,-19.61235234
1.77,177,-0.327,-0.804,0.013,11.917526400000002,-22.86102420000001,9.5111028,75.39554322000002,-8.479778399999999,-19.80715806
1.78,178,-0.354,-0.727,0.018000000000000002,18.2773602,-11.688343199999998,2.5210152000000003,75.59607852,-8.53134462,-19.91602008
1.79,179,-0.381,-0.662,0.013,26.1841806,-2.1199446,-3.151269,75.87109836,-8.50269672,-19.9389384
1.8,180,-0.384,-0.607,0.046,35.695283399999994,5.844171599999999,-6.0733548,76.24352106,-8.45686008,-19.90456092
1.81,181,-0.34600000000000003,-0.536,0.101,43.544808,12.318597,-6.3025379999999975,76.66750998,-8.3651868,-19.78996932
1.82,182,-0.266,-0.4370000000000001,0.181,47.8992888,17.246035799999998,-6.589017,77.12587638,-8.262054359999999,-19.63527066
1.83,183,-0.187,-0.311,0.229,51.2224452,20.9702628,-9.740286,77.61862026,-8.11881486,-19.44619452
1.84,184,-0.161,-0.184,0.183,56.3217714,30.4813656,-14.896907999999998,78.14574162,-7.9182795599999976,-19.17117468
1.85,185,-0.18600000000000005,-0.111,0.08800000000000001,60.50436480000001,49.560867,-20.1108258,78.6957813,-7.64325972,-18.71853786
1.86,186,-0.203,-0.064,-0.064,56.3790672,69.2706222,-22.345362,79.17133643999998,-7.305214500000001,-18.0768249
1.87,187,-0.248,-0.113,-0.177,49.61816279999999,81.53192340000003,-19.480572,79.56667746000002,-6.98435802,-17.303331600000003
1.8800000000000001,188,-0.217,-0.231,-0.37,30.7105488,87.6052782,-10.8289062,79.76721276,-6.743715660000001,-16.45535376
1.8900000000000001,189,-0.16699999999999998,-0.401,-0.517,16.042824000000003,81.1308528,2.1199446,79.82450856,-6.640583220000001,-15.65321256
1.9000000000000001,190,0.01,-0.737,-0.594,4.1252976000000015,68.8695516,15.2979786,79.74429444,-6.6749607000000015,-14.94274464
1.9100000000000001,191,0.243,-1.142,-0.736,-16.272007199999994,51.279741,30.252182399999995,79.50938166,-6.89268474,-14.38697538
1.9200000000000002,192,0.401,-1.507,-0.669,-22.5172494,32.257535399999995,42.05511720000001,79.22863224,-7.259377859999999,-13.99163436
1.93,193,0.444,-1.52,-0.458,-10.1413566,24.2361234,38.90384820000001,79.07966316,-7.59742308,-13.68223704
1.94,194,0.3670000000000001,-1.342,-0.303,0.2291832000000001,18.048177,26.5852512,79.05101526000001,-7.8323358600000015,-13.45878342
1.95,195,0.2,-1.187,-0.279,4.7555514,16.8449652,9.6829902,79.06247442,-7.85525418,-13.263977700000002
1.96,196,0.018000000000000002,-1.159,-0.33,8.250595200000001,21.6005166,-9.2819196,79.11404064,-7.72920342,-13.069171980000002
1.97,197,-0.201,-1.294,-0.381,11.8602306,30.0229992,-24.8090814,79.19998434,-7.43699484,-12.81707046
1.98,198,-0.417,-1.482,-0.387,12.5477802,36.38283300000001,-32.4294228,79.28019846,-7.05884256,-12.5191323
1.99,199,-0.5329999999999999,-1.585,-0.35100000000000003,13.5791046,39.1330314,-30.1375908,79.37187173999997,-6.7036086,-12.186816659999998
2.0,200,-0.5,-1.616,-0.28600000000000003,13.120738199999998,39.877876799999996,-19.3659804,79.46354502,-6.45723666,-11.82585312
2.01,201,-0.371,-1.607,-0.253,9.2819196,40.6227222,-7.5630456000000015,79.50365208,-6.31972674,-11.44197126
2.02,202,-0.246,-1.6030000000000002,-0.24,3.0366774,42.2270046,1.2032118,79.48646334,-6.26243094,-11.02371192
2.03,203,-0.159,-1.585,-0.24,-1.8334656000000005,46.065823200000004,5.3285094000000015,79.4119788,-6.2452422000000025,-10.55961594
2.04,204,-0.104,-1.528,-0.236,-3.4377480000000005,50.9359662,5.1566220000000005,79.31457594,-6.2165943,-10.04968332
2.05,205,-0.08900000000000001,-1.4680000000000002,-0.206,-1.5469866,53.9726436,1.0886202,79.23436182,-6.14210976,-9.52256196
2.0599999999999996,206,-0.08199999999999999,-1.4169999999999998,-0.185,0.2291832000000001,56.3217714,-5.3285094000000015,79.17133643999998,-5.99887026,-8.97825186
2.07,207,-0.065,-1.399,-0.199,0.5156622000000001,57.983349600000004,-11.745639,79.11404064,-5.79260538,-8.42821218
2.0799999999999996,208,-0.029,-1.374,-0.213,-0.2291832000000001,58.8427866,-15.870936600000002,79.05101526000001,-5.54623344,-7.88390208
2.09,209,-0.003,-1.358,-0.225,-1.3750992,57.92605379999999,-15.469866,78.97653072,-5.2998615,-7.34532156
2.0999999999999996,210,0.015,-1.334,-0.247,-1.145916,55.40503860000001,-11.917526400000002,78.90777576,-5.08786704,-6.82392978
2.11,211,0.046,-1.3030000000000002,-0.245,2.7501984,52.7694318,-7.161975,78.88485744,-4.9274388,-6.31972674
2.1199999999999997,212,0.08199999999999999,-1.226,-0.223,7.3911582,48.2430636,-3.0366774,78.91350534,-4.81857678,-5.849901179999999
2.13,213,0.117,-1.105,-0.161,14.152062599999999,42.112413,-0.057295800000000015,79.01663778,-4.749821819999998,-5.43737142
2.1399999999999997,214,0.13,-0.953,-0.058,17.6471064,35.3515086,3.0939732,79.16560686,-4.72117392,-5.08213746
2.15,215,0.154,-0.759,-0.015,19.7097552,28.4187168,6.6463128000000005,79.34322384000002,-4.72117392,-4.78992888
2.1599999999999997,216,0.212,-0.501,0.012,28.8770832,17.246035799999998,8.021412000000002,79.61824368,-4.76701056,-4.6008527400000006
2.17,217,0.276,-0.322,-0.025,39.591397799999996,4.297185,7.2192707999999985,80.01931427999997,-4.83003594,-4.54355694
2.1799999999999997,218,0.29100000000000004,-0.15,-0.055,46.065823200000004,-8.880849000000003,7.6203414,80.49486942,-4.91025006,-4.612311900000001
2.19,219,0.27,0.027000000000000003,-0.079,50.6494872,-26.5852512,8.651665800000002,81.03344994,-5.02484166,-4.858683839999999
2.1999999999999997,220,0.236,0.17800000000000002,0.028,52.3110654,-41.4248634,9.224623800000002,81.60640794,-5.15089242,-5.24829528
2.21,221,0.257,0.272,0.102,52.712136,-45.8939358,10.5424272,82.18509551999998,-5.2998615,-5.683743359999999
2.2199999999999998,222,0.226,0.234,-0.121,43.20103320000001,-51.3943326,11.688343199999998,82.67783940000002,-5.466019319999999,-6.17075766
2.23,223,0.132,0.112,-0.264,24.4653066,-52.0818822,8.880849000000003,82.98150714,-5.59779966,-6.669231119999999
2.2399999999999998,224,0.061,-0.14300000000000002,-0.443,6.2452422,-35.0077338,0.9167328,83.08463958,-5.63790672,-7.018735500000001
2.25,225,-0.063,-0.376,-0.513,-7.448453999999999,-16.1001198,-7.7349330000000025,82.97004798,-5.59207008,-7.1848933200000005
2.26,226,-0.307,-0.738,-0.429,-14.7250206,-2.578311,-15.469866,82.82680848,-5.443101,-7.2307299600000015
2.27,227,-0.513,-1.3159999999999998,-0.5670000000000001,-28.1895336,15.6990492,-19.8816426,82.52314074,-5.23683612,-7.1046792000000005
2.28,228,-0.619,-1.902,-0.556,-34.8931422,22.9756158,-23.6058696,82.15071803999999,-4.97900502,-6.90987348
2.29,229,-0.594,-1.949,-0.316,-17.0168526,13.120738199999998,-20.626488,81.96737148,-4.76701056,-6.812470620000001
2.3,230,-0.466,-1.528,-0.287,-4.4117766,8.9381448,-11.3445684,81.91007568,-4.65814854,-6.7379860800000015
2.31,231,-0.297,-1.293,-0.331,5.844171599999999,8.3651868,5.042030400000002,81.96164189999998,-4.6982555999999995,-6.65204238
2.32,232,0.011,-1.285,-0.365,6.0733548,9.8548776,25.210152,82.00747854,-4.93316838,-6.52026204
2.3299999999999996,233,0.226,-1.328,-0.312,5.042030400000002,9.6829902,33.9764094,82.04758559999998,-5.25402486,-6.3770225400000005
2.34,234,0.29,-1.3730000000000002,-0.273,2.291832,7.1046792000000005,31.8564648,82.05904475999998,-5.56342218,-6.26243094
2.3499999999999996,235,0.17,-1.4,-0.237,-3.7815227999999994,1.8907613999999997,23.5485738,82.01320812,-5.781146219999999,-6.210864720000001
2.36,236,-0.002,-1.4369999999999998,-0.226,-10.1413566,-3.3231564,15.6417534,81.91580526,-5.94157446,-6.22232388
2.3699999999999997,237,-0.119,-1.506,-0.204,-12.318597,-6.6463128000000005,9.6829902,81.79548408,-6.0447069,-6.2738901
2.38,238,-0.187,-1.538,-0.153,-11.9748222,-9.1100322,5.6149884000000005,81.68089248,-6.1077322800000005,-6.3598338000000005
2.3899999999999997,239,-0.19,-1.491,-0.139,-11.8602306,-12.9488508,4.8128472,81.57776004,-6.17648724,-6.48015498
2.4,240,-0.181,-1.405,-0.162,-12.3758928,-17.475219,6.990087599999999,81.47462759999998,-6.26816052,-6.6463128
2.4099999999999997,241,-0.18600000000000005,-1.3219999999999998,-0.189,-12.032117999999999,-21.485925,10.1986524,81.37149516,-6.39421128,-6.8468481
2.42,242,-0.194,-1.255,-0.16,-8.8235532,-23.6631654,13.980175199999998,81.31419936,-6.560369099999999,-7.05884256
2.4299999999999997,243,-0.173,-1.218,-0.155,-8.307891,-22.1161788,18.048177,81.25117398,-6.76663398,-7.25364828
2.44,244,-0.162,-1.146,-0.179,-6.3598338,-22.345362,22.2880662,81.21679650000002,-7.01300592,-7.43699484
2.4499999999999997,245,-0.16699999999999998,-1.069,-0.177,-0.1718874,-23.777757,24.7517856,81.23398524000002,-7.288025760000001,-7.63753014
2.46,246,-0.196,-0.998,-0.117,7.448453999999999,-22.5172494,24.4653066,81.33711767999998,-7.55731602,-7.820876699999999
2.4699999999999998,247,-0.221,-0.923,-0.027000000000000003,16.959556799999998,-16.4438946,21.3713334,81.53192340000003,-7.78649922,-7.95265704
2.48,248,-0.243,-0.848,0.045,24.2934192,-6.6463128000000005,15.2979786,81.78402492,-7.94119788,-7.9927641
2.4899999999999998,249,-0.28,-0.764,0.067,29.220858000000003,2.0626488000000003,7.0473834,82.0762335,-8.00422326,-7.9583866200000015
2.5,250,-0.295,-0.674,0.097,32.830493399999995,10.255948199999999,-0.7448454000000001,82.41427872,-8.00995284,-7.860983760000001
2.51,251,-0.298,-0.5920000000000001,0.124,37.0703826,17.9335854,-5.6722842,82.76378309999998,-7.929738719999999,-7.6890963600000015
2.52,252,-0.281,-0.524,0.139,40.4508348,24.1215318,-7.5057497999999985,83.1362058,-7.8323358600000015,-7.45418358
2.53,253,-0.198,-0.442,0.134,42.5707794,27.501984000000004,-7.161975,83.53154682,-7.72920342,-7.1848933200000005
2.54,254,-0.123,-0.31,0.129,46.2377106,32.945085,-7.161975,83.94980616,-7.63180056,-6.858307260000001
2.55,255,-0.1,-0.22,0.07400000000000001,46.1804148,44.117766,-9.3392154,84.35660634000001,-7.505749800000001,-6.4228591800000014
2.56,256,-0.105,-0.166,-0.064,37.9298196,56.9520252,-12.3758928,84.66600365999999,-7.33959198,-5.86708992
2.57,257,-0.099,-0.182,-0.218,24.9809688,72.30729960000002,-12.834259199999998,84.81497274,-7.167704579999999,-5.1566220000000005
2.5799999999999996,258,-0.064,-0.255,-0.35,10.6570188,79.9849368,-9.3392154,84.81497274,-7.0244650800000015,-4.36593996
2.59,259,-0.029,-0.402,-0.442,0.9167328,74.198061,-2.1199446,84.72902904,-6.955710119999999,-3.62682414
2.5999999999999996,260,0.039,-0.6,-0.474,-7.1046792000000005,65.94746579999999,7.1046792000000005,84.52276416000002,-6.96716928,-2.96219286
2.61,261,0.142,-0.878,-0.5820000000000001,-21.7151082,53.9726436,18.162768600000003,84.22482600000002,-7.116138359999999,-2.41215318
2.6199999999999997,262,0.218,-1.171,-0.6,-33.116972399999995,37.5860448,28.5906042,83.83521456,-7.36823988,-2.01108258
2.63,263,0.274,-1.2990000000000002,-0.511,-28.5906042,26.69984280000001,30.65325300000001,83.50289891999998,-7.65471888,-1.7188740000000002
2.6399999999999997,264,0.279,-1.272,-0.377,-15.6417534,19.767051,24.1788276,83.31382278,-7.878172500000002,-1.49542038
2.65,265,0.195,-1.175,-0.329,-6.8182002000000015,15.813640800000002,13.6364004,83.18777202,-7.95265704,-1.31207382
2.6599999999999997,266,0.049,-1.097,-0.287,0.3437748,14.2093584,1.9480572,83.16485370000002,-7.9583866200000015,-1.1688343199999998
2.67,267,-0.08199999999999999,-1.143,-0.252,5.9014674000000005,13.980175199999998,-8.307891,83.21069034,-7.866713339999999,-1.04278356
2.6799999999999997,268,-0.206,-1.296,-0.27,5.2139178,15.0114996,-15.183387000000002,83.23933824000002,-7.70055552,-0.90527364
2.69,269,-0.255,-1.443,-0.267,2.0626488000000003,15.0114996,-17.303331600000003,83.24506782,-7.51720896,-0.7792228800000001
2.6999999999999997,270,-0.221,-1.521,-0.207,0.6875496,15.527161800000002,-15.527161800000002,83.22787908000002,-7.35105114,-0.64171296
2.71,271,-0.177,-1.505,-0.173,-0.5156622000000001,20.798375399999998,-11.8029348,83.19350159999998,-7.213541219999999,-0.44690724
2.7199999999999998,272,-0.159,-1.462,-0.14,-1.7761698,28.0176462,-9.167328,83.14193537999998,-7.098949620000001,-0.18334656
2.73,273,-0.16699999999999998,-1.4280000000000002,-0.108,-1.145916,37.9298196,-8.307891,83.07891,-6.98435802,0.17761697999999998
2.7399999999999998,274,-0.177,-1.405,-0.127,-3.3231564,50.0192334,-7.6203414,82.97577756,-6.858307260000001,0.66463128
2.75,275,-0.204,-1.339,-0.16,-5.443101,60.733548000000006,-7.333862400000001,82.84399721999998,-6.7322565,1.2605076000000002
2.76,276,-0.24,-1.252,-0.173,-4.4690724,66.86419860000001,-7.0473834,82.71221688,-6.60047616,1.91367972
2.77,277,-0.247,-1.157,-0.173,-0.9167328,69.041439,-6.589017,82.61481402000003,-6.4686958200000015,2.58977016
2.78,278,-0.204,-1.0490000000000002,-0.175,3.4377480000000005,69.55710119999999,-5.6722842,82.56897738,-6.33691548,3.27159018
2.79,279,-0.123,-0.969,-0.168,8.307891,68.35388940000001,-4.9847345999999995,82.56897738,-6.22232388,3.94195104
2.8,280,-0.039,-0.91,-0.127,13.0061466,66.0620574,-5.72958,82.62054359999998,-6.09054354,4.58939358
2.81,281,0.014,-0.867,-0.094,15.183387000000002,64.3431834,-7.8495246,82.70075771999998,-5.9473040400000015,5.21964738
2.82,282,0.059,-0.821,-0.081,16.1001198,63.48374640000001,-9.8548776,82.79243100000002,-5.7868758,5.83271244
2.8299999999999996,283,0.102,-0.7909999999999999,-0.09,17.6471064,61.7648724,-11.688343199999998,82.90129302,-5.60925882,6.43431834
2.84,284,0.134,-0.762,-0.086,19.5378678,58.0406454,-13.2353298,83.03880294000002,-5.42018268,6.99581718
2.8499999999999996,285,0.15,-0.7490000000000001,-0.066,20.05353,52.9413192,-13.9228794,83.18777202,-5.2139178,7.505749800000001
2.86,286,0.153,-0.7509999999999999,-0.079,19.308684600000007,48.3576552,-14.2093584,83.3367411,-5.02484166,7.96984578
2.8699999999999997,287,0.132,-0.746,-0.08199999999999999,18.621135,45.4355694,-14.152062599999999,83.48571018,-4.84722468,8.40529386
2.88,288,0.08800000000000001,-0.745,-0.038,19.767051,42.8572584,-13.407217200000002,83.64613842,-4.675337279999999,8.81782362
2.8899999999999997,289,0.029,-0.747,0.019,20.9702628,38.0444112,-12.605076,83.82375540000002,-4.5206386200000015,9.17878716
2.9,290,-0.003,-0.728,0.048,21.3713334,33.74722620000001,-11.8602306,84.01856111999999,-4.36593996,9.50537322
2.9099999999999997,291,0.0,-0.6920000000000001,0.095,25.3247436,31.5699858,-10.886202,84.24774432000002,-4.23415962,9.80904096
2.92,292,0.027000000000000003,-0.6559999999999999,0.142,29.1635622,30.65325300000001,-9.453807000000001,84.52276416000002,-4.11383844,10.10697912
2.9299999999999997,293,0.06,-0.634,0.16399999999999998,30.7678446,31.79916900000001,-7.2765666,84.80924316,-4.022165159999999,10.41637644
2.94,294,0.081,-0.643,0.165,29.8511118,33.8618178,-4.1252976000000015,85.08426299999998,-3.95913978,10.75442166
2.9499999999999997,295,0.081,-0.679,0.118,26.1268848,38.38818600000001,0.1718874,85.33063494000002,-3.9190327200000006,11.13830352
2.96,296,0.079,-0.726,0.063,22.9756158,43.65939960000001,4.9274388,85.52544065999999,-3.94768062,11.5737516
2.9699999999999998,297,0.07400000000000001,-0.7659999999999999,0.05,22.173474600000002,46.2377106,8.651665800000002,85.7145168,-4.010706,12.04357716
2.98,298,0.058,-0.8029999999999999,0.037000000000000005,22.7464326,48.128471999999995,10.8289062,85.90359294,-4.09092012,12.53059146
2.9899999999999998,299,0.048,-0.81,0.045,23.835052800000003,51.1651494,11.8602306,86.10412824,-4.1883229800000015,13.04625366
3.0,300,0.029,-0.8079999999999999,0.07200000000000001,25.6685184,54.717489,11.688343199999998,86.32758186,-4.27426668,13.60202292
3.01,301,0.006999999999999999,-0.836,0.069,27.6165756,56.8374336,10.8289062,86.55676506,-4.36021038,14.17498092
3.02,302,-0.009000000000000001,-0.938,-0.073,25.7258142,57.00932099999999,9.2819196,86.76302994,-4.42896534,14.74793892
3.03,303,-0.039,-1.06,-0.214,23.2620948,57.92605379999999,8.021412000000002,86.94637650000001,-4.49199072,15.326626499999998
3.04,304,-0.103,-1.19,-0.321,22.5745452,59.30115299999999,6.990087599999999,87.12399348,-4.54355694,15.92250282
3.05,305,-0.17,-1.269,-0.342,23.0902074,63.08267579999999,7.5057497999999985,87.29015129999998,-4.60658232,16.55275662
3.06,306,-0.21,-1.298,-0.315,24.923673,64.97343719999999,9.969469199999999,87.47922744,-4.69252602,17.20592874
3.07,307,-0.196,-1.262,-0.362,26.4706596,61.7648724,14.9542038,87.69122189999999,-4.83003594,17.824723380000005
3.08,308,-0.16699999999999998,-1.188,-0.334,31.971056400000002,56.9520252,21.3140376,87.95478258,-5.03630082,18.40341096
3.09,309,-0.102,-1.117,-0.231,41.023792799999995,53.8007562,27.2728008,88.31574612,-5.2998615,18.94772106
3.0999999999999996,310,0.023,-1.072,-0.188,41.8832298,51.33703679999999,30.366774000000003,88.67670966,-5.5863405,19.47484242
3.11,311,0.149,-1.016,-0.201,35.5806918,53.39968560000001,30.194886600000004,88.97464782,-5.89000824,20.01342294
3.1199999999999997,312,0.212,-0.987,-0.208,28.1322378,57.58227899999999,26.69984280000001,89.19237186000002,-6.1592985,20.59211052
3.13,313,0.197,-0.989,-0.203,21.027558600000006,64.62966239999999,22.173474600000002,89.32988178,-6.382752120000001,21.23955306
3.1399999999999997,314,0.103,-1.035,-0.218,13.2353298,70.8176088,18.1054728,89.37571842,-6.57755784,21.95002098
3.15,315,-0.06,-1.092,-0.29,8.307891,73.1667366,16.329303,89.34134094,-6.74944524,22.67767764
3.1599999999999997,316,-0.191,-1.141,-0.266,7.6776372,73.85428619999998,17.3606274,89.3241522,-6.9327918,23.41679346
3.17,317,-0.275,-1.159,-0.237,8.078707799999998,76.1461182,20.2254174,89.30123388000001,-7.144786260000001,24.1788276
3.1799999999999997,318,-0.301,-1.129,-0.203,9.6256944,79.4119788,23.376686399999997,89.28977472,-7.3911582,24.97523922
3.19,319,-0.299,-1.083,-0.158,11.688343199999998,84.3394176,24.8663772,89.28404514,-7.6489892999999975,25.81748748
3.1999999999999997,320,-0.272,-1.055,-0.099,13.5791046,91.386801,24.9809688,89.28404514,-7.91254998,26.73422028
3.21,321,-0.225,-1.064,-0.07200000000000001,12.605076,98.3768886,24.5226024,89.26112682,-8.17038108,27.71970804
3.2199999999999998,322,-0.165,-1.087,-0.069,9.6256944,104.5075392,23.777757,89.19237186000002,-8.422482599999999,28.76822118
3.23,323,-0.101,-1.112,-0.075,6.9327918,107.9452872,22.86102420000001,89.08923942,-8.663124960000001,29.8511118
3.2399999999999998,324,-0.061,-1.132,-0.093,4.4690724,109.721457,22.058883,88.9517295,-8.89230816,30.95119116
3.25,325,-0.046,-1.141,-0.096,3.4950437999999995,109.434978,21.772404,88.79703083999998,-9.1100322,32.05127052
3.26,326,-0.059,-1.145,-0.099,3.2085648,108.69013259999998,22.1161788,88.64233218000004,-9.33348582,33.145620300000004
3.27,327,-0.086,-1.129,-0.096,3.8388186,107.429625,22.4026578,88.48763352,-9.56266902,34.228510920000005
3.28,328,-0.114,-1.094,-0.101,4.8701430000000006,107.2004418,22.058883,88.34439402000002,-9.78039306,35.30567196
3.29,329,-0.133,-1.044,-0.091,6.8182002000000015,107.6588082,21.6578124,88.21261368,-9.99238752,36.394292160000006
3.3,330,-0.136,-1.001,-0.054000000000000006,9.568398599999998,109.8360486,21.2567418,88.09802207999998,-10.19292282,37.50583068
3.31,331,-0.123,-0.982,-0.023,10.7143146,112.4716554,21.027558600000006,87.98916005999996,-10.39345812,38.6460171
3.32,332,-0.108,-0.969,-0.036000000000000004,8.651665800000002,114.2478252,20.3973048,87.85165014,-10.58826384,39.79766268
3.33,333,-0.118,-0.958,-0.059,6.2452422,115.85210759999998,18.9649098,87.67976274,-10.76588082,40.97222658
3.34,334,-0.13,-0.939,-0.077,4.8701430000000006,117.28450259999998,17.0741484,87.49068659999998,-10.914849900000002,42.16397922
3.3499999999999996,335,-0.14,-0.916,-0.087,6.0733548,118.4304186,14.7250206,87.30734004,-11.04090066,43.36146144
3.36,336,-0.14,-0.888,-0.081,7.7349330000000025,119.1179682,13.349921400000001,87.13545264000004,-11.1440331,44.57040282
3.3699999999999997,337,-0.133,-0.866,-0.061,9.453807000000001,119.97740520000002,12.834259199999998,86.98075398,-11.24716554,45.78507378
3.38,338,-0.126,-0.8540000000000001,-0.055,10.7143146,120.5503632,12.4904844,86.83178489999996,-11.33883882,47.00547432000001
3.3899999999999997,339,-0.125,-0.8540000000000001,-0.039,11.0580894,121.753575,12.318597,86.68854540000002,-11.42478252,48.2430636
3.4,340,-0.129,-0.866,-0.025,10.886202,124.1599986,12.0894138,86.53384674,-11.49926706,49.5035712
3.4099999999999997,341,-0.14400000000000002,-0.877,-0.006,10.4278356,127.36856340000001,11.8029348,86.36195934,-11.5737516,50.7927267
3.42,342,-0.16399999999999998,-0.889,0.015,9.9121734,130.8636072,11.172681,86.17861278000002,-11.63677698,52.12198926
3.4299999999999997,343,-0.17600000000000002,-0.88,0.013,9.568398599999998,135.50456699999998,10.3705398,85.97807748,-11.68261362,53.49708846
3.44,344,-0.172,-0.865,0.016,10.1413566,139.801752,9.5111028,85.77754218,-11.7169911,54.9180243
3.4499999999999997,345,-0.162,-0.86,0.016,11.0007936,142.8384294,8.7089616,85.57700688,-11.73417984,56.36187846
3.46,346,-0.156,-0.865,0.01,11.172681,144.78648660000005,7.9641161999999985,85.37647158,-11.73990942,57.82865094
3.4699999999999998,347,-0.15,-0.88,0.008,11.0580894,146.56265639999995,7.2765666,85.16447712,-11.72845026,59.31834174
3.48,348,-0.14400000000000002,-0.897,0.019,10.4851314,148.3388262,6.589017,84.94675308000002,-11.71126152,60.8194917
3.4899999999999998,349,-0.14300000000000002,-0.902,0.03,9.969469199999999,150.74524979999995,5.6722842,84.71756988,-11.67115446,62.34355998
3.5,350,-0.14,-0.907,0.02,9.6829902,153.3235608,4.2398892,84.48838668,-11.60812908,63.89054658
3.51,351,-0.136,-0.911,0.028,9.740286,156.2456466,2.3491278,84.25347389999997,-11.52218538,65.46618108
3.52,352,-0.112,-0.927,0.047,10.599723,158.709366,1.0313244,84.01856111999999,-11.41905294,67.06473390000001
3.53,353,-0.09,-0.937,0.043,9.797581800000001,158.65207019999997,0.8594370000000001,83.78364833999998,-11.29873176,68.66328672
3.54,354,-0.078,-0.94,0.061,9.797581800000001,158.1937038,0.8594370000000001,83.55446514,-11.17841058,70.25610996
3.55,355,-0.073,-0.951,0.049,7.2765666,158.422887,0.8021411999999999,83.3080932,-11.04663024,71.8489332
3.56,356,-0.083,-0.953,0.03,6.3025379999999975,158.2509996,0.286479,83.04453251999998,-10.90339074,73.43602686
3.57,357,-0.098,-0.966,0.03,6.589017,159.1104366,-0.5156622000000001,82.79243100000002,-10.74869208,75.0288501
3.58,358,-0.099,-0.965,0.026,7.5630456000000015,160.37094419999997,-1.2605076000000002,82.55178864,-10.57680468,76.6331325
3.59,359,-0.093,-0.948,0.029,9.0527364,162.2617056,-2.6929026,82.32833502,-10.38199896,78.25460364
3.5999999999999996,360,-0.094,-0.93,0.025,8.078707799999998,164.0378754,-4.1825934,82.1048814,-10.15854534,79.88753394
3.61,361,-0.086,-0.919,-0.013,6.417129599999999,165.9286368,-4.8128472,81.85850946000002,-9.92936214,81.53765297999998
3.6199999999999997,362,-0.08199999999999999,-0.909,-0.064,5.9014674000000005,165.81404519999995,-5.1566220000000005,81.6178671,-9.68871978,83.18204244
3.63,363,-0.075,-0.916,-0.069,7.0473834,165.9286368,-5.2139178,81.39441348,-9.43661826,84.8264319
3.6399999999999997,364,-0.051,-0.934,-0.044,7.7922288,167.9339898,-5.3858052,81.18241902,-9.17878716,86.48801010000004
3.65,365,-0.011,-0.955,-0.034,5.9014674000000005,171.7728084,-5.6149884000000005,80.95323582,-8.89803774,88.18396578000002
3.6599999999999997,366,0.006999999999999999,-0.982,-0.085,2.3491278,174.0646404,-5.958763200000001,80.69540472,-8.61155874,89.90283978
3.67,367,0.016,-1.016,-0.17,-4.6982556,177.21590940000004,-4.1825934,80.36881866,-8.33080932,91.65036168
3.6799999999999997,368,0.05,-1.065,-0.21600000000000005,-5.6722842,177.6742758,1.0886202,80.03650302,-8.09016696,93.40361316
3.69,369,0.114,-1.106,-0.194,-2.4064236,172.63224540000004,6.6463128000000005,79.75002402,-7.90109082,95.12248716
3.6999999999999997,370,0.16899999999999998,-1.105,-0.16899999999999998,3.7815227999999994,164.78272080000005,10.886202,79.53802956,-7.746392160000001,96.76687662
3.71,371,0.198,-1.07,-0.161,9.740286,157.3342668,12.4904844,79.40624921999998,-7.62607098,98.33678154
3.7199999999999998,372,0.16899999999999998,-1.002,-0.114,11.745639,147.6512766,11.45916,79.31457594,-7.505749800000001,99.81501318
3.73,373,0.116,-0.944,-0.06,11.5737516,140.4320058,9.0527364,79.23436182,-7.37396946,101.2130307
3.7399999999999998,374,0.055,-0.929,-0.08,9.6829902,137.79639899999998,6.760904399999999,79.13695895999999,-7.2192707999999985,102.58240032
3.75,375,0.009000000000000001,-0.961,-0.07400000000000001,6.6463128000000005,135.6191586,4.4690724,79.02809694,-7.03592424,103.92885162
3.76,376,0.0,-0.999,-0.081,3.8961144,134.87431320000002,3.5523396000000003,78.89058702,-6.85257768,105.25811417999998
3.77,377,-0.025,-1.01,-0.085,4.6409598,134.53053839999998,4.5263682,78.75880667999998,-6.6749607000000015,106.58737674
3.78,378,-0.056,-1.001,-0.069,8.7662574,135.67645439999998,8.021412000000002,78.67859256,-6.525991620000001,107.93382804
3.79,379,-0.084,-0.99,-0.044,12.6623718,138.31206120000002,11.745639,78.63275592,-6.411400019999999,109.31465682
3.8,380,-0.113,-0.976,-0.021,16.558486199999994,142.2081756,14.9542038,78.63275592,-6.31399716,110.74132224
3.81,381,-0.136,-0.969,0.013,19.4232762,147.3075018,16.959556799999998,78.64994466,-6.2337830400000005,112.21955388
3.82,382,-0.147,-0.983,0.053,19.8816426,153.20896919999996,17.8762896,78.6671334,-6.147839339999999,113.75508132
3.83,383,-0.133,-1.017,0.077,18.1054728,160.19905680000005,19.194093,78.65567424,-6.06189564,115.3650933
3.84,384,-0.105,-1.04,0.084,15.756345000000001,162.7773678,21.485925,78.62129675999998,-5.99887026,117.00375318
3.8499999999999996,385,-0.058,-1.043,0.08,14.667724800000002,164.4962418,24.5798982,78.58691927999998,-5.958763200000001,118.66533138
3.86,386,0.004,-1.032,0.068,14.495837400000001,166.3297074,27.5592798,78.54108264,-5.94157446,120.3498279
3.8699999999999997,387,0.075,-1.019,0.058,14.7823164,166.7880738,29.7365202,78.495246,-5.9473040400000015,122.040054
3.88,388,0.124,-1.003,0.055,15.6417534,165.06919979999995,30.3094782,78.45513894,-5.958763200000001,123.71882094
3.8899999999999997,389,0.157,-1.005,0.034,16.2147114,161.17308540000005,30.3094782,78.43222062,-5.97595194,125.35748082
3.9,390,0.188,-0.998,0.013,15.527161800000002,155.6726886,29.7365202,78.40930230000002,-5.9874111,126.9388449
3.9099999999999997,391,0.226,-0.984,0.006,15.183387000000002,146.10429,28.5333084,78.39211356000001,-6.01032942,128.4285357
3.92,392,0.258,-0.978,0.012,16.1001198,137.7391032,26.9863218,78.39211356000001,-6.0332477399999975,129.8322828
3.9299999999999997,393,0.275,-0.964,0.022,17.131444199999994,129.4312122,24.8090814,78.40930230000002,-6.05043648,131.1500862
3.94,394,0.272,-0.962,0.011,18.162768600000003,122.2119414,21.829699800000004,78.44367978,-6.05616606,132.39340506
3.9499999999999997,395,0.251,-0.96,0.0,18.2773602,116.4250656,18.7357266,78.50097558,-6.01032942,133.56796896
3.96,396,0.224,-0.96,0.001,18.8503182,111.9559932,15.6417534,78.56400096,-5.97595194,134.69669622
3.9699999999999998,397,0.197,-0.971,0.0,19.3659804,109.148499,12.834259199999998,78.63275592,-5.9129265600000025,135.791046
3.98,398,0.16399999999999998,-0.991,0.009000000000000001,18.9649098,107.3150334,10.9434978,78.70151088,-5.83844202,136.86820704000002
3.9899999999999998,399,0.134,-1.02,0.005,14.9542038,104.5075392,10.4278356,78.73015878,-5.76395748,137.9109906
4.0,400,0.119,-1.045,0.001,10.4851314,102.273003,11.6310474,78.73588836,-5.68947294,138.93658541999997
4.01,401,0.114,-1.056,-0.006,6.1879464,99.2936214,13.6936962,78.69005172,-5.65509546,139.93353234
4.02,402,0.121,-1.048,-0.021,3.380452200000001,96.6580146,15.813640800000002,78.61556718,-5.64936588,140.91329052
4.03,403,0.133,-1.027,-0.028,2.7501984,94.0224078,17.4179232,78.53535306,-5.66082504,141.86440080000003
4.04,404,0.131,-1.008,-0.022,2.578311,91.55868840000001,18.048177,78.45513894,-5.67801378,142.79832233999997
4.05,405,0.116,-1.014,-0.031,2.2345362,89.38144799999998,17.8762896,78.39211356000001,-5.683743359999999,143.70359598
4.06,406,0.08800000000000001,-1.029,-0.047,0.8021411999999999,87.4333908,17.589810600000003,78.30044028,-5.7009320999999975,144.59741046
4.07,407,0.067,-1.046,-0.059,0.3437748,84.62589659999998,17.4179232,78.20876700000002,-5.72385042,145.45684746
4.08,408,0.059,-1.055,-0.067,0.11459160000000004,82.1621772,18.2200644,78.11136413999998,-5.7582279000000005,146.29909572
4.09,409,0.049,-1.043,-0.078,0.2291832000000001,79.81304940000003,19.8816426,78.02542044,-5.80979412,147.11842566
4.1,410,0.036000000000000004,-1.026,-0.093,1.7188740000000002,77.5785132,21.8869956,77.95666548,-5.86708992,147.92056686
4.109999999999999,411,0.011,-1.016,-0.107,4.297185,74.2553568,23.5485738,77.91082884,-5.96449278,148.69406016
4.12,412,-0.018000000000000002,-1.01,-0.11,6.760904399999999,70.9894962,24.1215318,77.8936401,-6.0733548000000015,149.43890556000005
4.13,413,-0.043,-1.005,-0.105,10.1986524,69.32791800000001,23.4339822,77.91082884,-6.17075766,150.16656222
4.14,414,-0.066,-1.018,-0.08900000000000001,14.5531332,66.9214944,22.0015872,77.97385421999998,-6.26243094,150.87130056
4.1499999999999995,415,-0.047,-1.038,-0.066,16.959556799999998,61.020027,20.2827132,78.08271624,-6.34264506,151.50728394
4.16,416,-0.001,-1.047,-0.063,14.9542038,57.467687399999996,19.767051,78.16293035999998,-6.43431834,152.10888984
4.17,417,0.022,-1.037,-0.1,12.4331886,52.998615,20.2254174,78.21449658,-6.53745078,152.67038868
4.18,418,0.031,-1.029,-0.114,10.026765,46.5814854,20.7410796,78.25460364,-6.65777196,153.16886214000004
4.1899999999999995,419,0.031,-1.02,-0.112,8.021412000000002,40.33624320000001,21.199446,78.27752196,-6.7895523,153.61003979999995
4.2,420,0.009000000000000001,-1.001,-0.13699999999999998,5.9014674000000005,34.8931422,20.9702628,78.29471070000002,-6.90987348,153.99392166
4.21,421,-0.02,-0.973,-0.18,4.5263682,30.3094782,18.9649098,78.29471070000002,-7.0416538200000005,154.3262373
4.22,422,-0.058,-0.922,-0.21,2.9793816000000004,25.0955604,14.495837400000001,78.28898111999997,-7.13905668,154.60125714
4.2299999999999995,423,-0.107,-0.8370000000000001,-0.199,1.9480572,17.18874,7.448453999999999,78.28325154000002,-7.1848933200000005,154.79033327999997
4.24,424,-0.154,-0.7659999999999999,-0.13,0.6302538000000001,13.464512999999998,1.145916,78.27179238,-7.1734341599999984,154.92211362
4.25,425,-0.18,-0.7490000000000001,-0.049,-3.4950437999999995,12.261301199999998,-4.010706000000001,78.24887406,-7.1333271000000025,155.03670522
4.26,426,-0.163,-0.807,-0.015,-12.7196676,13.0061466,-7.7922288,78.10563456,-7.03592424,155.14556724
4.27,427,-0.125,-0.938,-0.061,-25.0382646,14.7823164,-9.224623800000002,77.83061472,-6.92133264,155.26588842
4.28,428,-0.092,-1.113,-0.123,-33.9191136,15.985528200000001,-6.875496000000001,77.46965118,-6.829659359999999,155.40912792
4.29,429,-0.08800000000000001,-1.267,-0.159,-33.231564,15.870936600000002,-0.5156622000000001,77.10868764,-6.79528188,155.558097
4.3,430,-0.097,-1.331,-0.133,-24.350715,13.407217200000002,7.7349330000000025,76.85658612,-6.8411185199999975,155.7013365
4.31,431,-0.128,-1.281,-0.07200000000000001,-8.651665800000002,6.990087599999999,14.381245800000002,76.75345368,-6.96716928,155.80446894000005
4.32,432,-0.155,-1.149,-0.037000000000000005,-3.380452200000001,2.7501984,16.615782,76.71334662,-7.12186794,155.86749432000005
4.33,433,-0.16899999999999998,-1.033,-0.01,0.6875496,0.11459160000000004,16.558486199999994,76.71334662,-7.282296179999999,155.90760138
4.34,434,-0.17800000000000002,-0.972,0.028,3.8961144,-1.432395,15.126091199999998,76.75345368,-7.431265259999999,155.92479011999995
4.35,435,-0.181,-0.95,0.057,5.72958,-2.1772404,13.2353298,76.94252982,-7.5916935,155.92479011999995
4.36,436,-0.171,-0.943,0.091,6.0733548,-1.9480572,11.172681,76.99982562,-7.70055552,155.9305197
4.37,437,-0.153,-0.935,0.1,4.7555514,-0.6302538000000001,8.880849000000003,77.05139184,-7.792228800000001,155.94197886
4.38,438,-0.132,-0.895,0.081,3.0939732,0.057295800000000015,5.958763200000001,77.08003973999998,-7.8495246,155.9591676
4.39,439,-0.105,-0.8390000000000001,0.106,3.380452200000001,1.4896908000000002,3.380452200000001,77.10868764,-7.878172500000002,155.98208592
4.3999999999999995,440,-0.084,-0.7929999999999999,0.096,4.8128472,2.7501984,1.5469866,77.24046797999998,-7.878172500000002,155.99927466
4.41,441,-0.09,-0.746,0.117,7.5630456000000015,5.443101,0.0,77.30922294000001,-7.866713339999999,156.05657046
4.42,442,-0.129,-0.722,0.08800000000000001,9.6256944,7.161975,-0.4010706,77.39516663999999,-7.8495246,156.12532542
4.43,443,-0.183,-0.6970000000000001,0.068,13.2353298,8.7662574,-0.3437748,77.51548782,-7.82660628,156.21126912
4.4399999999999995,444,-0.224,-0.662,0.127,18.621135,13.349921400000001,-0.6875496,77.68737522,-7.792228800000001,156.34304946
4.45,445,-0.222,-0.62,0.189,25.2674478,20.1108258,-1.7188740000000002,77.95666548,-7.75785132,156.53785518
4.46,446,-0.212,-0.5670000000000001,0.234,29.8511118,25.4393352,-3.9534102,78.22022616,-7.66617804,156.77849754
4.47,447,-0.196,-0.535,0.252,32.658606,32.2002396,-8.136003599999999,78.50670516,-7.5286681200000025,157.08216528
4.4799999999999995,448,-0.174,-0.5429999999999999,0.266,35.0650296,37.81522800000001,-12.891555,78.81610248000001,-7.33959198,157.43166966
4.49,449,-0.152,-0.61,0.269,36.8411994,42.05511720000001,-18.7930224,79.13695895999999,-7.08176088,157.81555152
4.5,450,-0.149,-0.725,0.257,36.7839036,45.3782736,-25.9549974,79.49219292000002,-6.760904399999999,158.21662212
4.51,451,-0.159,-0.8420000000000001,0.254,34.4920716,50.0192334,-33.1742682,79.7844015,-6.3598338000000005,158.65207019999997
4.52,452,-0.152,-0.92,0.275,34.5493674,53.8007562,-38.38818600000001,80.07661008,-5.9014674000000005,159.11616618
4.53,453,-0.11,-0.971,0.285,37.2995658,56.149884,-40.164355799999996,80.39746656,-5.42591226,159.60891006
4.54,454,-0.061,-1.001,0.245,38.27359439999999,55.40503860000001,-38.67466500000001,80.73551178,-4.96754586,160.09592436
4.55,455,-0.027000000000000003,-0.999,0.183,34.7785506,52.48295279999999,-35.695283399999994,81.06782741999999,-4.53782736,160.55429076
4.56,456,-0.026,-0.975,0.09,30.4813656,49.7327544,-33.231564,81.33711767999998,-4.14821592,161.001198
4.57,457,-0.046,-0.959,0.04,31.054323600000004,45.6074568,-30.7678446,81.6178671,-3.78725238,161.40799818
4.58,458,-0.078,-0.957,0.022,33.403451399999994,42.4561878,-28.361421000000004,81.92726442,-3.45493674,161.78615046
4.59,459,-0.093,-0.933,0.011,34.2055926,40.164355799999996,-26.298772200000002,82.2481209,-3.151269,162.15284358
4.6,460,-0.104,-0.888,0.019,32.4294228,39.47680620000001,-25.0382646,82.5632478,-2.87051958,162.51380712
4.61,461,-0.116,-0.838,-0.023,28.4760126,41.3102718,-24.5798982,82.82680848,-2.58404058,162.8919594
4.62,462,-0.14400000000000002,-0.758,-0.11,25.3247436,43.20103320000001,-24.350715,83.06172126,-2.29756158,163.29303000000004
4.63,463,-0.172,-0.691,-0.116,26.7571386,46.8679644,-22.631841,83.31382278,-2.02827132,163.72847808
4.64,464,-0.17600000000000002,-0.648,-0.031,29.621928600000004,52.48295279999999,-18.9649098,83.58884262000002,-1.7933585399999998,164.22695154000004
4.6499999999999995,465,-0.132,-0.655,-0.005,25.84040580000001,64.8015498,-12.1467096,83.82948498,-1.6272007199999998,164.85720534
4.66,466,-0.07200000000000001,-0.6759999999999999,-0.08,22.2880662,68.8122558,-3.4950437999999995,84.0242907,-1.5412570200000002,165.53329577999997
4.67,467,0.001,-0.8390000000000001,-0.145,14.266654199999998,68.2965936,4.3544808,84.14461188,-1.52979786,166.2151158
4.68,468,0.024,-1.086,-0.146,-1.4896908000000002,64.744254,12.891555,84.10450482,-1.61001198,166.86828792
4.6899999999999995,469,0.017,-1.38,-0.275,-21.8869956,56.78013780000001,23.9496444,83.85240329999998,-1.8048176999999999,167.44697549999995
4.7,470,0.058,-1.704,-0.4970000000000001,-45.0917946,51.6235158,38.4454818,83.36538900000002,-2.1485925000000003,167.9912856
4.71,471,0.209,-1.766,-0.552,-58.3271244,47.1544434,51.7954032,82.74659436,-2.61841806,168.51267738
4.72,472,0.312,-1.5630000000000002,-0.5529999999999999,-54.029939399999996,42.5707794,55.748813399999996,82.17363636,-3.12835068,168.99969168
4.7299999999999995,473,0.28600000000000003,-1.167,-0.498,-40.90920120000001,38.7319608,54.717489,81.72672911999999,-3.62682414,169.4523285
4.74,474,0.103,-0.861,-0.343,-17.18874,31.340802600000004,47.3836266,81.52046424,-4.06227222,169.82475119999995
4.75,475,-0.093,-0.8440000000000001,-0.133,-1.9480572,28.074942,34.7212548,81.48035718,-4.3831287,170.15133726
4.76,476,-0.188,-1.142,-0.07400000000000001,-3.0939732,30.5386614,23.14750320000001,81.42306138000002,-4.57220484,170.48365289999995
4.77,477,-0.124,-1.633,-0.132,-16.8449652,27.1009134,15.6417534,81.22252608,-4.6982555999999995,170.77586148
4.78,478,0.094,-1.877,-0.07200000000000001,-22.1161788,21.9442914,16.157415599999997,80.97615413999998,-4.83003594,171.01077426
4.79,479,0.179,-1.7,0.036000000000000004,-1.6042823999999998,21.4286292,19.595163600000006,80.93604708,-4.99619376,171.25141662
4.8,480,-0.008,-1.352,0.079,19.3659804,19.0795014,18.8503182,81.13658238,-5.15089242,171.46914066
4.81,481,-0.234,-1.202,0.192,39.47680620000001,14.4385416,9.969469199999999,81.52046424,-5.231106540000001,171.62956889999995
4.82,482,-0.32299999999999995,-1.169,0.294,46.409598,10.886202,1.145916,81.97883064,-5.22537696,171.7441605
4.83,483,-0.29,-1.129,0.327,33.3461556,11.8602306,-1.9480572,82.3054167,-5.1852699,171.86448167999995
4.84,484,-0.208,-1.0659999999999998,0.287,19.1367972,17.589810600000003,-0.7448454000000001,82.48303368,-5.16235158,172.03636908
4.85,485,-0.117,-1.017,0.245,9.797581800000001,26.069589,1.8907613999999997,82.6491915,-5.15089242,172.2884706
4.86,486,-0.003,-0.973,0.258,-1.6615782,33.9191136,4.6409598,82.59762528,-5.16235158,172.62651582
4.87,487,0.098,-0.907,0.206,-14.32395,39.3049188,9.2819196,82.41427872,-5.2139178,173.02758642
4.88,488,0.185,-0.779,0.076,-13.6936962,28.6479,13.5791046,82.24239132,-5.31705024,173.32552458
4.89,489,0.25,-0.611,0.0,-0.9740286,7.1046792000000005,13.9228794,82.219473,-5.44883058,173.41719786
4.8999999999999995,490,0.305,-0.5379999999999999,0.096,9.2819196,-12.032117999999999,11.688343199999998,82.35698292000002,-5.52331512,173.30260626
4.91,491,0.355,-0.5589999999999999,0.153,12.605076,-21.9442914,10.1413566,82.50595200000002,-5.6436363,173.09634137999996
4.92,492,0.38,-0.584,0.132,16.959556799999998,-27.7311672,11.0007936,82.71221688,-5.77541664,172.83851027999995
4.93,493,0.35,-0.575,0.177,30.252182399999995,-33.804522,11.5737516,83.05599168,-5.91865614,172.52338337999996
4.9399999999999995,494,0.233,-0.568,0.245,39.820581,-38.0444112,9.5111028,83.50289891999998,-6.0447069,172.16241983999996
4.95,495,0.096,-0.57,0.222,38.0444112,-39.247623,5.1566220000000005,83.96126532,-6.113461859999999,171.7728084
4.96,496,-0.05,-0.565,0.153,31.4553942,-35.0650296,1.145916,84.31649927999999,-6.147839339999999,171.43476318
4.97,497,-0.157,-0.561,0.08900000000000001,25.6112226,-27.903054600000004,-1.4896908000000002,84.61443744,-6.147839339999999,171.15401376
4.9799999999999995,498,-0.204,-0.563,0.046,20.798375399999998,-20.5691922,-1.8907613999999997,84.84935021999998,-6.14210976,170.95347846
4.99,499,-0.212,-0.58,0.05,17.589810600000003,-16.042824000000003,0.11459160000000004,85.04415594,-6.15356892,170.79305022
5.0,500,-0.183,-0.633,0.001,13.5791046,-12.605076,3.2658606,85.19885459999998,-6.205135139999999,170.67845862
5.01,501,-0.112,-0.68,-0.09,8.59437,-9.1100322,6.4744254,85.29625746,-6.2738901,170.59251492
5.02,502,-0.086,-0.7240000000000001,-0.156,4.9847345999999995,-10.1413566,8.193299399999999,85.35928284,-6.3598338000000005,170.49511206
5.03,503,-0.136,-0.775,-0.212,-0.9740286,-15.126091199999998,6.1879464,85.370742,-6.428588760000001,170.35187256
5.04,504,-0.233,-0.87,-0.379,-14.152062599999999,-11.745639,-0.9167328,85.23896166,-6.428588760000001,170.23155137999996
5.05,505,-0.348,-0.984,-0.519,-33.3461556,-6.0733548,-11.4018642,84.86080938,-6.348374640000001,170.168526
5.06,506,-0.428,-1.0759999999999998,-0.446,-42.91455420000001,0.0,-22.173474600000002,84.42536129999998,-6.13638018,170.14560768
5.07,507,-0.398,-1.212,-0.353,-33.74722620000001,14.610429000000002,-31.340802600000004,84.07012734,-5.815523699999999,170.25446970000004
5.08,508,-0.183,-1.283,-0.324,-25.9549974,29.621928600000004,-39.534102,83.77791876,-5.40872352,170.50657122
5.09,509,0.028,-1.161,-0.292,-18.2200644,31.4553942,-43.544808,83.56019472,-4.95035712,170.76440232
5.1,510,0.08800000000000001,-1.087,-0.215,-5.7868758000000025,28.074942,-39.247623,83.46279186000002,-4.5206386200000015,170.9993151
5.11,511,-0.014,-1.336,-0.253,-8.193299399999999,24.8090814,-26.356068,83.35965941999999,-4.2398892,171.21703914
5.12,512,-0.2,-1.81,-0.327,-28.5333084,21.199446,-17.8189938,83.05599168,-4.05081306,171.4003857
5.13,513,-0.478,-2.138,-0.214,-19.0222056,27.6165756,-21.3713334,82.83826764,-3.81590028,171.64675763999998
5.14,514,-0.762,-2.212,-0.011,-4.1825934,38.1590028,-26.929026,82.76951268,-3.5122325400000003,171.99053243999995
5.1499999999999995,515,-0.5589999999999999,-1.815,0.145,-6.5317212,28.361421000000004,-19.767051,82.69502814,-3.2945085,172.24263396
5.16,516,-0.1,-1.414,0.153,-0.3437748,11.229976800000001,-2.9220857999999996,82.68356897999998,-3.25440144,172.35149598
5.17,517,0.231,-1.213,0.147,20.9702628,-2.0626488000000003,13.9228794,82.89556344,-3.3919113599999995,172.35149598
5.18,518,0.524,-1.007,0.234,35.46610020000001,-10.1986524,24.637194,83.26225656,-3.6440128800000013,172.28274102
5.1899999999999995,519,0.645,-0.8859999999999999,0.262,40.680018,-12.4904844,23.6058696,83.6805159,-3.88465524,172.19106774
5.2,520,0.613,-0.8220000000000001,0.134,29.392745399999995,-15.2979786,13.464512999999998,84.03002028,-3.88465524,172.03063949999995
5.21,521,0.353,-0.7959999999999999,0.095,15.183387000000002,-23.491278,-1.7761698,84.20190768,-3.87892566,171.80145629999996
5.22,522,-0.016,-0.86,0.14,7.6776372,-30.1375908,-17.5325148,84.30504012,-3.7299565800000014,171.4863294
5.2299999999999995,523,-0.345,-0.94,0.14,4.8128472,-37.0130868,-29.67922440000001,84.38525424,-3.46066632,171.09098838
5.24,524,-0.5770000000000001,-0.925,0.177,9.2819196,-40.90920120000001,-34.8931422,84.50557542,-3.1398098400000003,170.6555403
5.25,525,-0.647,-0.8190000000000001,0.203,20.5691922,-33.9764094,-30.9970278,84.77486567999998,-2.93354496,170.30030634
5.26,526,-0.506,-0.626,0.14,28.991674800000002,-16.902261,-17.761698000000006,85.07853342,-2.76738714,170.12268936
5.27,527,-0.338,-0.451,0.126,40.6227222,7.161975,-2.4637194,85.48533359999998,-2.73873924,170.19144432000004
5.28,528,-0.244,-0.383,0.183,51.3943326,14.4385416,8.9954406,86.0009958,-2.81322378,170.34614298000002
5.29,529,-0.183,-0.407,0.255,53.5142772,14.266654199999998,16.558486199999994,86.53384674,-2.96792244,170.50657122
5.3,530,-0.092,-0.503,0.239,43.831287,13.750992000000002,18.7357266,86.99221314,-3.151269,170.6555403
5.31,531,0.006,-0.598,0.184,31.971056400000002,14.8396122,15.0687954,87.30734004,-3.2945085,170.81596854
5.32,532,0.075,-0.7090000000000001,0.127,22.0015872,14.5531332,6.4744254,87.5193345,-3.3518043,170.96493762
5.33,533,0.093,-0.825,0.086,13.6936962,12.7769634,-4.2398892,87.65111484,-3.3059676599999994,171.09098838
5.34,534,0.066,-0.95,0.037000000000000005,8.7662574,8.7662574,-13.6936962,87.73705853999998,-3.16845774,171.1712025
5.35,535,0.045,-1.052,-0.022,1.6042823999999998,4.5263682,-17.475219,87.73705853999998,-2.9564632800000004,171.20557997999995
5.36,536,0.041,-1.124,-0.135,-13.464512999999998,2.578311,-15.0114996,87.59381904,-2.8074942000000003,171.2284983
5.37,537,0.027000000000000003,-1.1909999999999998,-0.285,-28.934379,-4.0680017999999984,-9.6829902,87.30734004,-2.71582092,171.17693208
5.38,538,0.031,-1.245,-0.391,-44.5761324,-4.4117766,-2.578311,86.85470322,-2.6929026,171.13109544
5.39,539,0.065,-1.274,-0.45,-54.602897399999996,-3.4950437999999995,5.9014674000000005,86.30466354,-2.75592798,171.09098838
5.3999999999999995,540,0.037000000000000005,-1.294,-0.5329999999999999,-64.6869582,-0.9740286,15.183387000000002,85.62284352,-2.91062664,171.08525880000005
5.41,541,-0.009000000000000001,-1.3159999999999998,-0.556,-67.1506776,-1.3750992,25.496631,84.94675308000002,-3.16845774,171.08525880000005
5.42,542,-0.041,-1.4069999999999998,-0.52,-62.5097178,-10.313244,33.8618178,84.31649927999999,-3.51796212,171.00504468
5.43,543,0.005,-1.423,-0.328,-46.6387812,-18.5638392,33.518043,83.85813288,-3.8674665,170.85034602
5.4399999999999995,544,0.032,-1.359,-0.141,-24.9809688,-20.340009,26.1841806,83.61749052,-4.14248634,170.67272903999995
5.45,545,-0.019,-1.474,-0.066,-12.4331886,-20.454600600000006,16.902261,83.5086285,-4.325832900000001,170.48938248
5.46,546,-0.06,-1.74,-0.158,-18.1054728,-23.7204612,10.255948199999999,83.34820026,-4.45188366,170.26592885999997
5.47,547,-0.043,-1.895,-0.187,-13.6936962,-22.4026578,7.333862400000001,83.22787908000002,-4.54355694,170.04820482
5.4799999999999995,548,-0.018000000000000002,-1.885,-0.11,4.2398892,-17.4179232,8.4224826,83.28517488,-4.6409598,169.88777657999995
5.49,549,-0.066,-1.633,0.006,15.9282324,-16.042824000000003,10.8289062,83.46279186000002,-4.76128098,169.74453708
5.5,550,-0.198,-1.278,0.228,27.8457588,-15.126091199999998,8.307891,83.80083708,-4.8701430000000006,169.60129758
5.51,551,-0.28800000000000003,-1.117,0.328,30.3094782,-7.2192707999999985,3.4950437999999995,84.11596397999998,-4.91025006,169.5382722
5.52,552,-0.29,-0.999,0.271,14.037471,0.572958,0.6875496,84.25920348,-4.91597964,169.54400178
5.53,553,-0.242,-0.8759999999999999,0.202,-0.4010706,8.8235532,-0.11459160000000004,84.24774432000002,-4.90452048,169.62994548
5.54,554,-0.147,-0.8270000000000001,0.13,-3.380452200000001,16.4438946,2.86479,84.1961781,-4.921709219999999,169.7961033
5.55,555,-0.039,-0.809,0.107,-1.0886202,17.246035799999998,8.8235532,84.21336684,-4.97900502,169.9679907
5.56,556,0.07,-0.769,0.098,2.9220857999999996,13.8082878,15.2406828,84.22482600000002,-5.11651494,170.12268936
5.57,557,0.171,-0.695,0.07200000000000001,7.3911582,7.6203414,18.907614000000002,84.29358096,-5.2998615,170.22009222
5.58,558,0.261,-0.579,0.028,10.599723,1.0313244,18.8503182,84.39671340000002,-5.48320806,170.24874012
5.59,559,0.311,-0.488,0.042,15.2979786,-8.078707799999998,16.042824000000003,84.56287122,-5.64936588,170.18571474
5.6,560,0.337,-0.453,0.095,19.9962342,-15.183387000000002,12.7769634,84.79778400000002,-5.735309579999999,170.03674566
5.61,561,0.329,-0.458,0.151,22.345362,-20.912967,9.3965112,85.04988552,-5.83844202,169.84193994
5.62,562,0.254,-0.459,0.151,19.194093,-25.3247436,5.443101,85.27333913999998,-5.9014674000000005,169.595568
5.63,563,0.138,-0.4320000000000001,0.092,13.5791046,-26.814434400000003,1.4896908000000002,85.43949696000001,-5.930115299999999,169.33200731999997
5.64,564,0.017,-0.403,0.051,10.3705398,-27.8457588,-0.572958,85.57700688,-5.93584488,169.05698748
5.6499999999999995,565,-0.073,-0.368,0.049,11.229976800000001,-27.215505,-1.2605076000000002,85.73743512,-5.9473040400000015,168.78769721999996
5.66,566,-0.147,-0.344,0.111,15.756345000000001,-24.8090814,-1.5469866,85.92651126,-5.94157446,168.54132528
5.67,567,-0.191,-0.391,0.141,19.480572,-20.3973048,-1.7761698,86.1442353,-5.930115299999999,168.3350604
5.68,568,-0.199,-0.471,0.128,14.9542038,-12.0894138,-2.9220857999999996,86.31039312,-5.9014674000000005,168.21473922
5.6899999999999995,569,-0.157,-0.593,0.041,6.1879464,-1.3750992,-4.5263682,86.37914808000002,-5.85563076,168.20328006
5.7,570,-0.132,-0.7440000000000001,-0.08900000000000001,-5.0993262,4.8128472,-6.1879464,86.28747480000001,-5.80979412,168.2491167
5.71,571,-0.119,-0.912,-0.17800000000000002,-12.318597,9.8548776,-7.2192707999999985,86.14996488,-5.735309579999999,168.34078998
5.72,572,-0.135,-1.105,-0.33,-20.6837838,18.3919518,-8.651665800000002,85.92078168,-5.6436363,168.51840696
5.7299999999999995,573,-0.22,-1.223,-0.385,-27.6738714,27.1582092,-10.886202,85.61138436,-5.52331512,168.77623806000003
5.74,574,-0.388,-1.275,-0.299,-26.1268848,33.002380800000005,-13.464512999999998,85.3134462,-5.37434604,169.09136496000005
5.75,575,-0.46,-1.308,-0.276,-19.4232762,45.1490904,-15.527161800000002,85.06134468,-5.2139178,169.52681304
5.76,576,-0.39,-1.249,-0.29,-11.688343199999998,58.613603399999995,-15.3552744,84.8837277,-5.03057124,170.09404146000003
5.77,577,-0.31,-1.179,-0.14400000000000002,-2.578311,63.3691548,-15.0687954,84.79205442,-4.8414950999999995,170.70710652
5.78,578,-0.269,-1.247,-0.012,0.8021411999999999,70.8176088,-16.272007199999994,84.73475862000002,-4.63523022,171.39465612
5.79,579,-0.231,-1.379,0.0,-2.3491278,84.22482600000002,-16.8449652,84.63735576,-4.4117766000000005,172.21398606
5.8,580,-0.23,-1.575,-0.022,-6.2452422,93.6213372,-15.4125702,84.49411626,-4.19978214,173.12498928
5.81,581,-0.289,-1.83,-0.049,-14.32395,98.8925508,-16.042824000000003,84.26493306,-3.97632852,174.08182914
5.82,582,-0.416,-2.006,-0.08199999999999999,-17.8189938,104.7367224,-18.2773602,84.00137237999998,-3.71849742,175.09596480000005
5.83,583,-0.421,-1.935,-0.08,-7.7349330000000025,105.02320139999999,-13.8082878,83.84094414,-3.50077338,176.12155962
5.84,584,-0.177,-1.6869999999999998,-0.071,3.6096354,91.100322,-2.0053530000000004,83.81229624,-3.4091001000000003,177.02110368
5.85,585,0.045,-1.536,-0.004,13.5791046,73.911582,9.797581800000001,83.90396952,-3.4377480000000005,177.7602195
5.86,586,0.196,-1.41,0.037000000000000005,20.3973048,60.8481396,19.3659804,84.06439776,-3.5809875,178.37901414
5.87,587,0.292,-1.273,0.06,26.2414764,50.133825,23.204799,84.29358096,-3.77006364,178.90040592
5.88,588,0.278,-1.161,0.08199999999999999,28.5333084,42.1697088,21.4286292,84.54568248000002,-3.9534102,179.34158358
5.89,589,0.17800000000000002,-1.091,0.08,27.1009134,36.4974246,17.0168526,84.79205442,-4.0966497,179.71973586
5.8999999999999995,590,0.019,-1.046,0.057,23.491278,33.2888598,11.516455800000001,85.02123762,-4.1825934,-179.93173032
5.91,591,-0.108,-1.009,0.015,20.5691922,33.4607472,6.016058999999999,85.19885459999998,-4.21697088,-179.59368510000004
5.92,592,-0.21,-0.939,-0.027000000000000003,16.7876694,37.0703826,2.1772404,85.33636451999998,-4.21697088,-179.2212624
5.93,593,-0.302,-0.841,-0.067,12.6623718,42.112413,-0.4010706,85.4280378,-4.19405256,-178.80300306
5.9399999999999995,594,-0.378,-0.748,-0.101,9.1100322,47.67010560000001,-0.7448454000000001,85.48533359999998,-4.15967508,-178.33317749999995
5.95,595,-0.434,-0.6759999999999999,-0.093,7.2765666,53.8007562,0.4583664000000001,85.50252234,-4.20551172,-177.79459698
5.96,596,-0.439,-0.616,-0.051,9.8548776,63.6556338,1.6615782,85.54835898,-4.1883229800000015,-177.15861360000005
5.97,597,-0.374,-0.5720000000000001,0.002,14.495837400000001,76.7190762,1.2032118,85.62857310000003,-4.15967508,-176.39657946
5.9799999999999995,598,-0.271,-0.5529999999999999,0.068,17.5325148,90.0117018,-1.7188740000000002,85.73170554,-4.102379279999999,-175.50276498
5.99,599,-0.177,-0.569,0.131,18.2773602,105.3669762,-5.958763200000001,85.82910840000002,-3.99351726,-174.465711
6.0,600,-0.099,-0.603,0.165,19.0222056,114.8207832,-8.59437,85.94942957999999,-3.85600734,-173.33125416
6.01,601,-0.059,-0.64,0.153,18.3919518,120.2638842,-9.6256944,86.04110286,-3.70703826,-172.1452311
6.02,602,-0.057,-0.66,0.117,17.131444199999994,121.81087079999999,-9.1100322,86.12131698,-3.56952834,-170.94774888
6.03,603,-0.08,-0.667,0.08900000000000001,18.5638392,120.49306740000002,-8.021412000000002,86.21871984,-3.44347758,-169.75599624
6.04,604,-0.093,-0.7020000000000001,0.073,21.3713334,117.5136858,-7.448453999999999,86.35050018,-3.3231564,-168.5928915
6.05,605,-0.112,-0.74,0.08900000000000001,24.7517856,115.9094034,-7.906820400000001,86.53384674,-3.2085648000000004,-167.45270508
6.06,606,-0.14300000000000002,-0.775,0.12,29.335449600000004,115.56562859999998,-9.224623800000002,86.75730036,-3.07678446,-166.30678908
6.07,607,-0.149,-0.812,0.134,29.7365202,114.2478252,-10.313244,86.98075398,-2.94500412,-165.17806181999995
6.08,608,-0.158,-0.823,0.127,26.8717302,114.0759378,-10.1413566,87.18128928,-2.81322378,-164.05506413999996
6.09,609,-0.185,-0.815,0.108,24.1788276,112.81543020000001,-8.078707799999998,87.35890626,-2.71009134,-162.93779604
6.1,610,-0.209,-0.81,0.103,21.027558600000006,110.52359820000001,-5.2712136,87.5193345,-2.65279554,-161.84344626
6.11,611,-0.226,-0.813,0.11,19.6524594,109.4922738,-2.1199446,87.65111484,-2.61268848,-160.76055564
6.12,612,-0.268,-0.809,0.13,21.199446,109.3203864,0.1718874,87.8058135,-2.6012293200000003,-159.67193544
6.13,613,-0.298,-0.907,0.13,16.4438946,115.33644540000002,1.4896908000000002,87.90321636,-2.6069589,-158.53174902
6.14,614,-0.218,-1.091,0.168,10.7143146,126.5664222,1.3750992,87.93759384,-2.6069589,-157.276971
6.15,615,-0.058,-1.379,0.038,-8.021412000000002,134.1867636,1.7188740000000002,87.77716559999998,-2.61268848,-155.94770844
6.16,616,0.123,-1.537,-0.109,-34.091001,140.2601184,2.578311,87.35317668,-2.61841806,-154.56115008
6.17,617,0.251,-1.59,-0.245,-47.1544434,141.2914428,6.2452422,86.79167784,-2.65279554,-153.16886214000004
6.18,618,0.243,-1.554,-0.366,-54.14453099999999,142.15087979999996,13.6936962,86.15569446,-2.7501984,-151.75938546
6.1899999999999995,619,0.213,-1.5019999999999998,-0.467,-59.8168152,144.6145992,25.84040580000001,85.45668570000002,-2.94500412,-150.32126088
6.2,620,0.262,-1.479,-0.535,-60.38977320000001,138.1401738,41.76863820000001,84.74048819999999,-3.27731976,-148.92324336
6.21,621,0.278,-1.426,-0.59,-57.00932099999999,119.1179682,54.14453099999999,84.07585692,-3.73568616,-147.70284282
6.22,622,0.189,-1.289,-0.546,-42.5134836,102.6740736,59.7022236,83.55446514,-4.25134836,-146.63141136
6.2299999999999995,623,0.17,-1.403,-0.403,-15.870936600000002,100.26765,60.67625219999999,83.29663404,-4.76128098,-145.57143906
6.24,624,0.391,-1.746,-0.343,-13.349921400000001,93.7359288,56.4936588,83.06745083999998,-5.23683612,-144.58595129999995
6.25,625,0.6829999999999999,-1.851,-0.358,-16.042824000000003,88.2928278,46.29500640000001,82.80389016000002,-5.603529239999999,-143.65775934
6.26,626,0.6829999999999999,-1.5630000000000002,-0.255,7.8495246,91.7878716,33.5753388,82.77524226,-5.844171599999999,-142.70664906
6.27,627,0.193,-1.339,-0.157,26.1841806,83.8810512,15.5844576,82.94140008000002,-5.9129265600000025,-141.85867122
6.28,628,-0.331,-1.3130000000000002,-0.041,37.7006364,74.42724419999998,-4.4690724,83.23933824000002,-5.79833496,-141.1195554
6.29,629,-0.542,-1.42,0.039,45.206386200000004,74.198061,-19.3659804,83.61749052,-5.540503859999999,-140.4033579
6.3,630,-0.494,-1.455,0.08900000000000001,30.8824362,80.78707800000002,-22.1161788,83.85240329999998,-5.2654840200000015,-139.62413501999998
6.31,631,-0.275,-1.415,0.11,10.8289062,93.678633,-10.4278356,83.86959204,-5.08786704,-138.70740222
6.32,632,-0.073,-1.385,0.114,2.1199446,104.278356,3.380452200000001,83.78364833999998,-5.03630082,-137.67034824
6.33,633,0.012,-1.321,0.17,1.9480572,113.732163,14.495837400000001,83.69197505999998,-5.08786704,-136.53016182000002
6.34,634,0.023,-1.26,0.199,1.8334656000000005,126.2799432,21.6005166,83.57738346,-5.19672906,-135.25819506
6.35,635,0.001,-1.145,0.172,-2.9220857999999996,140.60389320000002,25.210152,83.41695522,-5.32277982,-133.8429888
6.36,636,-0.024,-1.032,0.113,-6.5317212,150.1722918,25.4393352,83.18777202,-5.443101,-132.33037968000002
6.37,637,-0.022,-0.97,0.067,-5.958763200000001,152.12034899999998,23.9496444,82.95858882,-5.540503859999999,-130.79485224
6.38,638,-0.011,-0.941,0.061,-2.578311,147.76586819999997,22.4026578,82.76951268,-5.62071798,-129.31089102
6.39,639,0.0,-0.908,0.098,5.0993262,138.82772340000002,21.027558600000006,82.66638024,-5.68947294,-127.9128735
6.4,640,-0.002,-0.88,0.16699999999999998,12.3758928,132.5824812,20.2827132,82.66638024,-5.75249832,-126.57788136
6.41,641,0.005,-0.857,0.214,17.4179232,134.4159468,19.7097552,82.68929856,-5.80979412,-125.2199709
6.42,642,0.015,-0.8390000000000001,0.211,22.2880662,145.3594446,19.595163600000006,82.74659436,-5.861360339999999,-123.758928
6.43,643,0.014,-0.8029999999999999,0.163,25.0955604,159.74069039999995,20.2827132,82.81534932000002,-5.9014674000000005,-122.14891602
6.4399999999999995,644,-0.023,-0.7809999999999999,0.107,21.6005166,170.455005,22.058883,82.83253806,-5.953033619999999,-120.4357716
6.45,645,-0.054000000000000006,-0.778,0.059,16.959556799999998,180.2525868,25.6685184,82.80389016000002,-6.0275181600000005,-118.61949474
6.46,646,-0.08,-0.774,0.065,17.0168526,187.1853786,29.1635622,82.75232394,-6.13638018,-116.73446291999998
6.47,647,-0.091,-0.792,0.08800000000000001,19.8243468,192.4565922,31.111619399999995,82.71794646,-6.25097178,-114.78640572
6.4799999999999995,648,-0.068,-0.809,0.132,21.3713334,194.11817040000003,31.6845774,82.69502814,-6.37129296,-112.82688936
6.49,649,-0.015,-0.828,0.181,22.86102420000001,194.9776074,31.51269000000001,82.67783940000002,-6.48588456,-110.85018426000002
6.5,650,0.043,-0.847,0.19,22.86102420000001,194.6911284,29.793816,82.67783940000002,-6.57755784,-108.8906679
6.51,651,0.107,-0.8640000000000001,0.154,23.14750320000001,193.6025082,26.356068,82.66065066,-6.6463128,-106.93688112
6.52,652,0.171,-0.893,0.127,24.637194,191.3106762,21.9442914,82.66065066,-6.669231119999999,-105.01174224
6.53,653,0.239,-0.943,0.119,25.3247436,188.7323652,17.761698000000006,82.67783940000002,-6.65204238,-103.12098084000002
6.54,654,0.28600000000000003,-0.985,0.109,22.173474600000002,187.2426744,15.5844576,82.66065066,-6.623394479999999,-101.2416786
6.55,655,0.307,-0.991,0.061,15.9282324,185.2946172,16.042824000000003,82.59189570000002,-6.5718282599999975,-99.39102426
6.56,656,0.301,-0.976,0.008,15.527161800000002,183.8049264,17.7044022,82.51168158,-6.554639519999999,-97.5460995
6.57,657,0.253,-0.973,-0.064,18.048177,178.476417,18.3919518,82.46584494,-6.554639519999999,-95.75274096
6.58,658,0.18600000000000005,-0.997,-0.16399999999999998,22.173474600000002,169.02261000000001,16.673077799999998,82.4773041,-6.543180359999999,-94.05678528
6.59,659,0.07400000000000001,-1.039,-0.17800000000000002,25.1528562,156.70401299999997,11.45916,82.5345999,-6.497343719999999,-92.48688036
6.6,660,-0.042,-1.123,-0.147,28.304125199999998,152.63601119999996,1.9480572,82.63200276,-6.35410422,-90.97427124
6.61,661,-0.13,-1.264,-0.129,28.074942,163.1784384,-11.0580894,82.71794646,-6.08481396,-89.36998884
6.62,662,-0.14,-1.318,-0.112,27.3873924,176.52835980000003,-21.772404,82.79816058,-5.6952025200000005,-87.64538526
6.63,663,-0.03,-1.234,-0.104,29.507337,180.82554480000002,-21.5432208,82.90129302,-5.30559108,-85.88067462000002
6.64,664,0.092,-1.102,-0.102,31.913760600000003,176.35647240000003,-13.521808800000002,83.0502621,-5.001923339999999,-84.15034145999998
6.65,665,0.14800000000000002,-1.022,-0.105,35.3515086,168.10587719999995,-2.578311,83.23933824000002,-4.80711762,-82.48876326
6.66,666,0.121,-0.992,-0.064,38.2162986,157.6780416,7.8495246,83.4799806,-4.74409224,-80.91885834
6.67,667,0.059,-0.992,-0.005,37.0703826,148.2815304,15.126091199999998,83.71489338,-4.76701056,-79.43489712
6.68,668,-0.009000000000000001,-1.007,-0.012,30.8251404,139.45797720000002,17.9908812,83.89251035999997,-4.83003594,-78.03115002
6.6899999999999995,669,-0.098,-1.04,-0.04,25.4393352,131.9522274,15.870936600000002,84.01856111999999,-4.88160216,-76.70761704
6.7,670,-0.184,-1.097,-0.025,22.2880662,128.39988780000002,9.1100322,84.12169356000003,-4.88160216,-75.42992070000003
6.71,671,-0.232,-1.144,0.004,18.621135,129.0874374,2.4064236,84.18471894,-4.812847199999998,-74.14649478
6.72,672,-0.238,-1.158,0.006,15.4125702,131.7230442,-2.0626488000000003,84.21909642,-4.69252602,-72.84015054
6.7299999999999995,673,-0.225,-1.152,-0.013,12.7769634,134.12946780000001,-4.2398892,84.22482600000002,-4.5550161000000005,-71.51661756
6.74,674,-0.217,-1.147,-0.024,11.2872726,136.82237039999998,-3.9534102,84.21336684,-4.41750618,-70.17016626
6.75,675,-0.215,-1.144,-0.025,10.6570188,140.48930159999998,-0.8021411999999999,84.20190768,-4.31437374,-68.77787832
6.76,676,-0.217,-1.121,-0.032,12.0894138,144.27082439999995,3.9534102,84.20190768,-4.24561878,-67.35121290000001
6.77,677,-0.226,-1.086,-0.031,14.266654199999998,147.536685,9.167328,84.21909642,-4.22843004,-65.87871084
6.78,678,-0.231,-1.031,-0.024,15.2979786,150.401475,14.152062599999999,84.24201474,-4.25707794,-64.37756088
6.79,679,-0.23,-0.98,-0.006999999999999999,16.615782,153.03708179999995,16.673077799999998,84.27639222,-4.31437374,-62.84776302
6.8,680,-0.199,-0.957,0.017,18.162768600000003,155.6726886,18.048177,84.32795844,-4.38885828,-61.28931726
6.81,681,-0.152,-0.944,0.03,18.5638392,156.99049200000005,17.5325148,84.37379508000002,-4.45188366,-59.71941234
6.82,682,-0.1,-0.921,0.035,17.4179232,157.4488584,15.5844576,84.40817256,-4.49199072,-58.14377784
6.83,683,-0.055,-0.9,0.05,16.8449652,157.1623794,13.0634424,84.43682046,-4.51490904,-56.57387292000001
6.84,684,-0.028,-0.893,0.039,15.5844576,155.9018718,10.599723,84.4540092,-4.50917946,-55.02115674
6.85,685,-0.014,-0.893,0.006,13.8082878,153.15167340000005,8.5370742,84.4540092,-4.48053156,-53.49708846
6.86,686,-0.015,-0.903,-0.003,13.464512999999998,150.3441792,6.703608600000001,84.4540092,-4.44615408,-52.00166808
6.87,687,-0.031,-0.918,-0.005,12.605076,147.536685,6.1879464,84.4540092,-4.40604702,-50.5348956
6.88,688,-0.047,-0.921,-0.022,11.6310474,144.0416412,6.1879464,84.44255003999999,-4.36593996,-49.1025006
6.89,689,-0.063,-0.923,-0.037000000000000005,11.688343199999998,139.85904779999998,6.5317212,84.43682046,-4.33729206,-47.71021266
6.9,690,-0.07400000000000001,-0.937,-0.042,12.6623718,135.04620060000002,7.1046792000000005,84.44827962000002,-4.31437374,-46.36949094
6.91,691,-0.083,-0.95,-0.043,13.120738199999998,131.09279039999998,7.448453999999999,84.46546836,-4.297185000000002,-45.0631467
6.92,692,-0.085,-0.95,-0.053,14.2093584,126.8529012,7.5057497999999985,84.49984584,-4.28572584,-43.8026391
6.93,693,-0.092,-0.944,-0.063,15.870936600000002,122.1546456,7.333862400000001,84.55141205999998,-4.27426668,-42.58223856
6.9399999999999995,694,-0.105,-0.943,-0.07400000000000001,17.5325148,116.94072779999999,7.2765666,84.63162618,-4.2685371,-41.41913382
6.95,695,-0.119,-0.947,-0.066,19.3659804,111.9559932,7.2765666,84.72902904,-4.2685371,-40.30186572
6.96,696,-0.13699999999999998,-0.959,-0.043,20.340009,109.6641612,6.760904399999999,84.83789106,-4.2685371,-39.21324552
6.97,697,-0.147,-0.955,-0.038,20.798375399999998,108.7474284,5.5003968,84.95821224,-4.25707794,-38.12462532
6.9799999999999995,698,-0.156,-0.942,-0.038,21.1421502,106.68477959999998,3.9534102,85.07853342,-4.22843004,-37.06465302
6.99,699,-0.161,-0.941,-0.029,20.2254174,104.6221308,1.8334656000000005,85.19312502,-4.1883229800000015,-36.02759904
7.0,700,-0.157,-0.944,-0.01,18.1054728,103.8199896,-0.4010706,85.29625746,-4.131027179999999,-34.99627464
7.01,701,-0.15,-0.946,-0.004,15.985528200000001,104.3356518,-2.4637194,85.370742,-4.05081306,-33.96495024
7.02,702,-0.14,-0.945,-0.018000000000000002,13.521808800000002,105.5388636,-4.7555514,85.42230822,-3.94768062,-32.922166680000004
7.03,703,-0.12,-0.938,-0.035,11.516455800000001,106.45559640000002,-6.0733548,85.45095612,-3.83308902,-31.87365354
7.04,704,-0.105,-0.934,-0.046,12.6623718,105.3096804,-5.958763200000001,85.49679276,-3.71849742,-30.83659956
7.05,705,-0.08199999999999999,-0.963,-0.052000000000000005,11.5737516,105.02320139999999,-4.9274388,85.53689982,-3.61536498,-29.79954558
7.06,706,-0.047,-0.996,-0.064,10.255948199999999,104.9086098,-2.8074942000000003,85.55981814,-3.5351508600000003,-28.762491600000004
7.07,707,-0.032,-1.031,-0.073,12.032117999999999,102.6740736,0.057295800000000015,85.60565478000002,-3.48358464,-27.74835594
7.08,708,-0.021,-1.056,-0.054000000000000006,13.2353298,101.4708618,3.0939732,85.66868016,-3.4663959,-26.73994986000001
7.09,709,-0.037000000000000005,-1.041,-0.027000000000000003,17.8762896,100.7260164,5.958763200000001,85.77181259999998,-3.47785506,-25.73727336
7.1,710,-0.064,-1.013,-0.011,19.8816426,99.3509172,8.4224826,85.90359294,-3.51796212,-24.74605602
7.11,711,-0.084,-1.004,-0.02,20.454600600000006,97.0017894,9.6829902,86.04110286,-3.56952834,-23.777757
7.12,712,-0.075,-1.01,-0.023,20.5691922,95.0537322,10.8289062,86.17861278000002,-3.6382833,-22.82664672
7.13,713,-0.048,-1.03,-0.006999999999999999,21.4286292,92.819196,11.8602306,86.32185228,-3.71849742,-21.89845476
7.14,714,-0.01,-1.061,-0.008,21.3713334,90.3554766,11.8602306,86.47082136,-3.80444112,-20.99318112
7.15,715,0.025,-1.086,-0.03,19.6524594,87.37609499999998,10.8289062,86.59687212,-3.8674665,-20.11655538
7.16,716,0.062,-1.114,-0.048,17.0168526,82.1621772,10.0840608,86.70573413999998,-3.94195104,-19.29722544
7.17,717,0.091,-1.142,-0.07200000000000001,14.495837400000001,75.2866812,10.7716104,86.79167784,-4.02789474,-18.54092088
7.18,718,0.116,-1.152,-0.085,13.2926256,66.176649,13.2353298,86.87189196,-4.13675676,-17.8762896
7.1899999999999995,719,0.113,-1.132,-0.08,11.9748222,55.5196302,14.7823164,86.94064691999998,-4.2685371,-17.32052034
7.2,720,0.093,-1.074,-0.07200000000000001,11.5737516,49.3316838,14.610429000000002,87.00940188,-4.37166954,-16.8163173
7.21,721,0.079,-1.017,-0.067,11.516455800000001,45.779344200000004,13.120738199999998,87.08388642,-4.49199072,-16.3579509
7.22,722,0.07,-0.984,-0.056,10.7143146,44.0031744,10.7143146,87.15264138,-4.58939358,-15.91104366
7.2299999999999995,723,0.073,-0.978,-0.042,9.8548776,43.7166954,8.078707799999998,87.20993718,-4.65814854,-15.47559558
7.24,724,0.08,-0.983,-0.042,7.906820400000001,43.544808,5.443101,87.25004424,-4.703985179999999,-15.0401475
7.25,725,0.08199999999999999,-0.997,-0.049,5.6149884000000005,41.76863820000001,3.8961144,87.26150340000002,-4.68679644,-14.61615858
7.26,726,0.084,-1.007,-0.05,3.724227,37.0703826,3.8961144,87.26150340000002,-4.71544434,-14.24946546
7.27,727,0.095,-1.019,-0.042,3.0939732,30.366774000000003,5.3858052,87.26723297999996,-4.76701056,-13.945797720000002
7.28,728,0.119,-1.03,-0.043,2.5210152000000003,24.5798982,6.990087599999999,87.26723297999996,-4.83003594,-13.6936962
7.29,729,0.14,-1.032,-0.048,1.145916,18.2773602,8.193299399999999,87.26150340000002,-4.90452048,-13.51034964
7.3,730,0.147,-1.028,-0.043,0.7448454000000001,11.9748222,8.59437,87.25004424,-4.83003594,-13.372839720000002
7.31,731,0.146,-1.022,-0.031,1.6042823999999998,7.0473834,8.307891,87.25577381999999,-4.91597964,-13.29835518
7.32,732,0.152,-1.018,-0.017,2.9793816000000004,4.1252976000000015,7.2765666,87.28442172,-4.9847346,-13.25251854
7.33,733,0.155,-1.02,-0.009000000000000001,4.0680017999999984,3.151269,5.3285094000000015,87.32452878000002,-5.03630082,-13.21814106
7.34,734,0.151,-1.022,-0.014,3.8961144,3.5523396000000003,2.4064236,87.35890626,-5.05921914,-13.18376358
7.35,735,0.14,-1.014,-0.018000000000000002,3.2085648,3.6669312000000014,0.7448454000000001,87.39328374,-4.6409598,-13.10354946
7.36,736,0.121,-1.011,-0.018000000000000002,2.9793816000000004,2.7501984,0.0,87.42193164,-4.6409598,-13.08063114
7.37,737,0.101,-1.004,-0.012,3.4377480000000005,1.0313244,0.2291832000000001,87.45630911999999,-4.64668938,-13.069171980000002
7.38,738,0.086,-0.992,0.001,5.2139178,-0.6875496,0.9740286,87.51360492,-4.65241896,-13.07490156
7.39,739,0.08199999999999999,-0.975,0.02,7.5057497999999985,-2.1199446,1.8907613999999997,87.58808946,-4.675337279999999,-13.0920903
7.4,740,0.08800000000000001,-0.959,0.036000000000000004,9.1100322,-2.8074942000000003,2.4637194,87.73132896,-4.549286520000001,-13.10927904
7.41,741,0.103,-0.951,0.046,10.0840608,-3.0939732,2.6929026,87.84019098,-4.57793442,-13.13792694
7.42,742,0.119,-0.953,0.054000000000000006,10.0840608,-2.578311,2.86479,87.94332342,-4.60658232,-13.160845260000002
7.43,743,0.127,-0.963,0.049,8.7662574,-2.2345362,3.3231564,88.03499670000002,-4.63523022,-13.18376358
7.4399999999999995,744,0.121,-0.98,0.02,6.2452422,-2.9220857999999996,3.4377480000000005,88.09802207999998,-4.669607699999999,-13.206681900000001
7.45,745,0.1,-0.994,0.01,5.1566220000000005,-3.380452200000001,3.3231564,88.17250662000002,-4.50917946,-13.223870639999998
7.46,746,0.081,-1.006,-0.006,6.3598338,-3.8961144,2.7501984,88.24126158,-4.53782736,-13.263977700000002
7.47,747,0.064,-1.021,-0.025,7.161975,-4.2398892,1.0313244,88.3214757,-4.549286520000001,-13.30408476
7.4799999999999995,748,0.031,-1.021,-0.031,9.1100322,-2.7501984,-1.6615782,88.41314897999996,-4.53209778,-13.32700308
7.49,749,-0.002,-1.024,-0.01,12.4904844,-0.7448454000000001,-4.4690724,88.54492932000002,-4.48626114,-13.338462239999998
7.5,750,-0.031,-1.031,0.003,11.3445684,0.9167328,-5.9014674000000005,88.65952092,-4.39458786,-13.32700308
7.51,751,-0.056,-1.021,-0.005,7.6203414,2.9220857999999996,-5.2139178,88.73973504,-4.34302164,-13.29835518
7.52,752,-0.09,-1.021,-0.037000000000000005,4.297185,4.010706000000001,-4.010706000000001,88.7798421,-4.30291458,-13.25824812
7.53,753,-0.134,-1.031,-0.051,2.8074942000000003,5.2139178,-2.6356068,88.80276042,-4.27426668,-13.206681900000001
7.54,754,-0.173,-1.044,-0.052000000000000005,3.380452200000001,7.5630456000000015,-2.0053530000000004,88.83140832000002,-4.25707794,-13.12646778
7.55,755,-0.191,-1.062,-0.044,5.6722842,10.7143146,-2.4064236,88.85432664,-4.28572584,-13.02906492
7.56,756,-0.184,-1.069,-0.033,7.9641161999999985,13.464512999999998,-3.6096354,88.9230816,-4.25134836,-12.891555
7.57,757,-0.14800000000000002,-1.061,-0.014,8.8235532,15.870936600000002,-5.2139178,89.00329572000004,-4.19978214,-12.73685634
7.58,758,-0.09,-1.036,-0.008,8.078707799999998,18.162768600000003,-6.8182002000000015,89.06632110000002,-4.13675676,-12.55350978
7.59,759,-0.037000000000000005,-1.01,-0.02,6.6463128000000005,19.2513888,-7.7349330000000025,89.11788732,-4.05654264,-12.36443364
7.6,760,-0.006,-0.989,-0.039,4.8128472,18.7357266,-7.7349330000000025,89.12934648,-3.94768062,-12.1753575
7.61,761,0.006,-0.969,-0.053,2.6356068,17.0168526,-6.589017,89.14080564,-3.88465524,-12.0034701
7.62,762,-0.006999999999999999,-0.953,-0.063,1.5469866,14.266654199999998,-4.583664,89.14653522,-3.84454818,-11.86596018
7.63,763,-0.026,-0.944,-0.071,1.2032118,10.255948199999999,-1.8334656000000005,89.1522648,-3.82735944,-11.76282774
7.64,764,-0.05,-0.949,-0.08,0.4010706,5.958763200000001,0.6302538000000001,89.1522648,-3.83308902,-11.70553194
7.65,765,-0.07200000000000001,-0.96,-0.075,0.3437748,2.578311,2.5210152000000003,88.97464782,-3.88465524,-11.67115446
7.66,766,-0.091,-0.975,-0.06,0.8021411999999999,0.3437748,3.151269,88.98037740000002,-3.9190327200000006,-11.67115446
7.67,767,-0.103,-0.989,-0.044,1.3178034,-0.7448454000000001,2.86479,88.99756613999998,-3.94768062,-11.67688404
7.68,768,-0.11,-0.997,-0.039,0.8021411999999999,-1.0886202,2.3491278,89.00902529999998,-3.97059894,-11.688343199999998
7.6899999999999995,769,-0.115,-1.005,-0.044,-0.6875496,-1.3178034,1.9480572,89.00329572000004,-3.98778768,-11.699802359999998
7.7,770,-0.114,-1.01,-0.053,-2.0053530000000004,-1.7761698,1.9480572,88.84859706,-4.0966497,-11.722720679999998
7.71,771,-0.115,-1.015,-0.071,-2.578311,-2.5210152000000003,1.8907613999999997,88.82567874,-4.11383844,-11.745639
7.72,772,-0.131,-1.02,-0.085,-2.7501984,-3.380452200000001,2.0626488000000003,88.79703083999998,-4.13675676,-11.78001648
7.7299999999999995,773,-0.155,-1.031,-0.078,-1.2032118,-3.4950437999999995,2.1772404,88.79130126,-4.1539455,-11.81439396
7.74,774,-0.177,-1.047,-0.069,0.4010706,-2.4637194,1.6042823999999998,88.79703083999998,-4.17113424,-11.83731228
7.75,775,-0.195,-1.055,-0.07,1.6615782,-0.8021411999999999,0.7448454000000001,88.65952092,-4.43469492,-11.86596018
7.76,776,-0.208,-1.058,-0.063,3.0939732,1.0313244,0.1718874,88.69389840000002,-4.4404245000000016,-11.85450102
7.77,777,-0.208,-1.058,-0.064,3.3231564,2.86479,0.1718874,88.7225463,-4.4404245000000016,-11.82585312
7.78,778,-0.199,-1.039,-0.066,2.9220857999999996,4.0680017999999984,0.572958,88.7511942,-4.44615408,-11.78574606
7.79,779,-0.17600000000000002,-1.015,-0.064,4.0680017999999984,4.583664,0.9740286,88.78557168,-4.45761324,-11.73990942
7.8,780,-0.146,-0.996,-0.056,5.5003968,4.297185,1.3178034,88.7798421,-4.5263682,-11.699802359999998
7.81,781,-0.113,-0.976,-0.041,6.9327918,3.151269,1.6615782,88.84859706,-4.54355694,-11.66542488
7.82,782,-0.08900000000000001,-0.971,-0.021,8.59437,1.7761698,2.0053530000000004,88.93454076,-4.56074568,-11.64250656
7.83,783,-0.07,-0.977,-0.008,8.8235532,0.1718874,2.4637194,89.02048446,-4.58939358,-11.64250656
7.84,784,-0.064,-0.979,-0.004,7.8495246,-1.6615782,2.9793816000000004,89.10069858,-4.6180414800000005,-11.659695300000001
7.85,785,-0.067,-0.98,0.002,6.2452422,-3.4950437999999995,2.9793816000000004,89.16945354,-4.629500640000002,-11.688343199999998
7.86,786,-0.07400000000000001,-0.978,0.006999999999999999,4.7555514,-5.042030400000002,2.4637194,89.22101975999998,-4.65241896,-11.73990942
7.87,787,-0.084,-0.976,0.013,3.6669312000000014,-6.2452422,1.3750992,89.2668564,-4.669607699999999,-11.8029348
7.88,788,-0.095,-0.98,0.017,3.380452200000001,-7.1046792000000005,0.11459160000000004,89.30696345999998,-4.669607699999999,-11.87168976
7.89,789,-0.105,-0.993,0.018000000000000002,2.5210152000000003,-7.448453999999999,-0.9167328,89.33561136,-4.65814854,-11.9461743
7.9,790,-0.11,-1.003,0.013,1.2032118,-8.193299399999999,-1.6042823999999998,89.35852968,-4.669607699999999,-12.02638842
7.91,791,-0.113,-1.01,0.006999999999999999,0.4583664000000001,-9.3965112,-1.8907613999999997,89.36998884,-4.64668938,-12.12379128
7.92,792,-0.117,-1.008,0.003,0.5156622000000001,-9.9121734,-1.8334656000000005,89.38717758,-4.62377106,-12.22119414
7.93,793,-0.123,-1.002,0.002,0.572958,-10.026765,-1.7188740000000002,89.39863674,-4.60658232,-12.318597
7.94,794,-0.128,-0.998,0.003,0.8021411999999999,-9.969469199999999,-1.8907613999999997,89.41582548,-4.5836640000000015,-12.421729440000002
7.95,795,-0.132,-0.996,0.003,1.145916,-9.224623800000002,-2.4637194,89.43301421999998,-4.60658232,-12.5191323
7.96,796,-0.133,-0.996,0.002,1.3178034,-8.3651868,-3.3231564,89.45020296,-4.57220484,-12.59934642
7.97,797,-0.129,-0.997,-0.001,1.3178034,-7.2765666,-4.1825934,89.47312128,-4.5263682,-12.67383096
7.9799999999999995,798,-0.12,-1.001,-0.002,1.0313244,-5.844171599999999,-4.8701430000000006,89.49031002000002,-4.48053156,-12.73112676
7.99,799,-0.108,-1.005,-0.004,0.9167328,-3.8961144,-5.0993262,89.50176918,-4.42896534,-12.77123382
8.0,800,-0.098,-1.01,-0.009000000000000001,0.8594370000000001,-2.291832,-4.9847345999999995,89.47312128,-4.40031744,-12.79415214
8.01,801,-0.09,-1.012,-0.012,0.6875496,-1.2605076000000002,-4.3544808,89.47885086,-4.3544808,-12.8056113
8.02,802,-0.084,-1.018,-0.012,0.4583664000000001,-0.6302538000000001,-3.3231564,89.48458044,-4.320103319999999,-12.81134088
8.03,803,-0.079,-1.021,-0.014,-0.11459160000000004,-0.8594370000000001,-2.0053530000000004,89.48458044,-4.30291458,-12.82280004
8.04,804,-0.071,-1.023,-0.017,-0.8594370000000001,-2.0053530000000004,-0.6875496,89.47885086,-4.29145542,-12.839988780000002
8.05,805,-0.068,-1.019,-0.021,-1.5469866,-3.724227,0.1718874,89.39863674,-4.27426668,-12.87436626
8.06,806,-0.067,-1.015,-0.025,-1.7761698,-5.844171599999999,0.8021411999999999,89.38717758,-4.27999626,-12.93166206
8.07,807,-0.058,-1.014,-0.026,-1.4896908000000002,-7.7922288,1.0313244,89.38144799999998,-4.29145542,-13.0061466
8.08,808,-0.05,-1.012,-0.03,-0.9167328,-8.8235532,1.0313244,89.37571842,-4.30291458,-13.09781988
8.09,809,-0.046,-1.008,-0.032,-0.5156622000000001,-9.3965112,1.0886202,89.38144799999998,-4.30864416,-13.18949316
8.1,810,-0.053,-1.004,-0.032,-0.2291832000000001,-9.740286,1.3178034,89.33561136,-4.297185000000002,-13.281166440000002
8.11,811,-0.064,-1.003,-0.029,-0.057295800000000015,-9.6829902,1.5469866,89.34707052,-4.31437374,-13.3785693
8.12,812,-0.075,-1.0,-0.024,0.286479,-9.224623800000002,1.6615782,89.35852968,-4.325832900000001,-13.47024258
8.13,813,-0.081,-0.998,-0.02,1.145916,-8.4224826,1.5469866,89.37571842,-4.34302164,-13.550456700000002
8.14,814,-0.083,-0.995,-0.024,1.6615782,-7.3911582,1.0886202,89.39863674,-4.3544808,-13.624941240000002
8.15,815,-0.085,-0.994,-0.025,1.7188740000000002,-6.9327918,0.572958,89.37571842,-4.36593996,-13.6936962
8.16,816,-0.08800000000000001,-0.992,-0.021,2.0626488000000003,-6.760904399999999,0.4010706,89.39863674,-4.36593996,-13.75672158
8.17,817,-0.093,-0.992,-0.02,2.4064236,-6.4744254,0.3437748,89.43301421999998,-4.37166954,-13.82547654
8.18,818,-0.093,-0.994,-0.014,3.3231564,-5.844171599999999,0.1718874,89.47312128,-4.37166954,-13.88277234
8.19,819,-0.08800000000000001,-1.0,-0.01,4.010706000000001,-4.7555514,0.057295800000000015,89.51895792,-4.37166954,-13.928608980000002
8.2,820,-0.08199999999999999,-1.005,-0.008,4.010706000000001,-3.6096354,-0.057295800000000015,89.5246875,-4.36593996,-13.95725688
8.209999999999999,821,-0.07400000000000001,-1.009,-0.008,3.6096354,-2.4637194,-0.057295800000000015,89.56479456,-4.36593996,-13.985904779999998
8.22,822,-0.066,-1.01,-0.013,2.8074942000000003,-1.5469866,0.0,89.59344246,-4.36593996,-13.99736394
8.23,823,-0.061,-1.007,-0.021,2.2345362,-0.9740286,0.286479,89.61636078000002,-4.36593996,-14.008823099999995
8.24,824,-0.06,-1.0,-0.029,2.7501984,-0.9740286,0.3437748,89.64500868,-4.37166954,-14.020282259999998
8.25,825,-0.061,-1.0,-0.024,3.6096354,-1.2032118,0.5156622000000001,89.60490161999998,-4.34302164,-14.020282259999998
8.26,826,-0.066,-1.003,-0.019,4.0680017999999984,-1.2032118,0.572958,89.65073826,-4.34302164,-14.03174142
8.27,827,-0.073,-1.005,-0.017,4.4117766,-0.9167328,0.4583664000000001,89.6965749,-4.34875122,-14.04320058
8.28,828,-0.079,-1.006,-0.015,4.5263682,-0.6302538000000001,0.2291832000000001,89.74241154,-4.3544808,-14.04893016
8.29,829,-0.085,-1.008,-0.013,4.4690724,-0.1718874,-0.11459160000000004,89.78824818,-4.34875122,-14.04893016
8.3,830,-0.084,-1.008,-0.013,4.5263682,0.4583664000000001,-0.4583664000000001,89.77105944,-4.34875122,-14.04320058
8.31,831,-0.081,-1.007,-0.015,4.297185,1.3750992,-0.6302538000000001,89.8111665,-4.34302164,-14.02601184
8.32,832,-0.08,-1.005,-0.015,3.9534102,2.1199446,-0.4583664000000001,89.85127356000002,-4.33729206,-14.003093519999998
8.33,833,-0.079,-1.005,-0.016,3.7815227999999994,2.7501984,-0.3437748,89.88565104,-4.33729206,-13.97444562
8.34,834,-0.08199999999999999,-1.007,-0.015,3.6096354,3.151269,-0.057295800000000015,89.92002852,-4.33729206,-13.945797720000002
8.35,835,-0.087,-1.009,-0.018000000000000002,3.380452200000001,3.5523396000000003,0.1718874,89.89138061999998,-4.34875122,-13.90569066
8.36,836,-0.09,-1.009,-0.019,3.6096354,3.9534102,0.2291832000000001,89.9257581,-4.3544808,-13.8655836
8.37,837,-0.092,-1.005,-0.019,3.7815227999999994,4.3544808,0.2291832000000001,89.96013558000001,-4.3544808,-13.82547654
8.38,838,-0.093,-1.002,-0.017,3.9534102,4.5263682,0.2291832000000001,89.99451306,-4.36021038,-13.779639899999998
8.39,839,-0.091,-1.0,-0.013,4.2398892,4.7555514,0.2291832000000001,90.03462012,-4.36593996,-13.72807368
8.4,840,-0.087,-1.003,-0.01,4.3544808,5.0993262,0.286479,90.03462012,-4.37166954,-13.67650746
8.41,841,-0.08199999999999999,-1.008,-0.006999999999999999,4.3544808,5.443101,0.3437748,90.07472718,-4.37739912,-13.61921166
8.42,842,-0.08,-1.009,-0.006999999999999999,4.010706000000001,5.958763200000001,0.6875496,90.11483424,-4.3831287,-13.56191586
8.43,843,-0.081,-1.01,-0.008,3.6669312000000014,6.2452422,0.9740286,90.14348214,-4.39458786,-13.49889048
8.44,844,-0.081,-1.009,-0.009000000000000001,3.5523396000000003,6.5317212,1.2032118,90.17213004,-4.4117766000000005,-13.4358651
8.45,845,-0.079,-1.008,-0.006,3.6096354,6.703608600000001,1.2605076000000002,90.17213004,-4.42323576,-13.361380559999995
8.459999999999999,846,-0.079,-1.006,-0.005,3.380452200000001,6.589017,1.0886202,90.20077794,-4.43469492,-13.29835518
8.47,847,-0.079,-1.006,-0.003,2.86479,6.6463128000000005,0.7448454000000001,90.22369626,-4.44615408,-13.22960022
8.48,848,-0.078,-1.01,-0.005,2.2345362,6.6463128000000005,0.4010706,90.240885,-4.45188366,-13.16657484
8.49,849,-0.073,-1.012,-0.006,1.7761698,6.703608600000001,0.1718874,90.25234416,-4.45188366,-13.09781988
8.5,850,-0.071,-1.014,-0.006999999999999999,1.8334656000000005,6.760904399999999,0.11459160000000004,90.22369626,-4.4404245000000016,-13.02333534
8.51,851,-0.07,-1.015,-0.006,1.9480572,6.990087599999999,0.2291832000000001,90.23515542,-4.44615408,-12.95458038
8.52,852,-0.068,-1.014,-0.003,1.9480572,7.2765666,0.2291832000000001,90.25234416,-4.45188366,-12.88582542
8.53,853,-0.069,-1.01,-0.003,1.7188740000000002,7.5057497999999985,0.3437748,90.26380332,-4.45761324,-12.81134088
8.54,854,-0.071,-1.006,-0.005,1.3178034,7.1046792000000005,0.4010706,90.2695329,-4.46334282,-12.73685634
8.55,855,-0.073,-1.002,-0.005,1.0886202,6.5317212,0.6302538000000001,90.22942584,-4.46334282,-12.66810138
8.56,856,-0.07400000000000001,-1.003,-0.004,1.2032118,6.0733548,0.6875496,90.23515542,-4.4690724,-12.605076
8.57,857,-0.075,-1.004,-0.006,1.145916,5.7868758000000025,0.6302538000000001,90.240885,-4.48053156,-12.5477802
8.58,858,-0.07400000000000001,-1.006,-0.004,1.145916,5.443101,0.572958,90.24661458,-4.48626114,-12.49621398
8.59,859,-0.07,-1.009,-0.002,1.0313244,5.3858052,0.6875496,90.25807374,-4.4977203,-12.44464776
