TimeStamp(s),FrameCounter,AccX,AccY,AccZ,GyrX,GyrY,GyrZ,EulerX,EulerY,EulerZ
0.01,1,-0.08800000000000001,-1.054,0.138,-18.3919518,-13.980175199999998,6.3598338,96.86427948,0.24637194,-52.82672760000001
0.02,2,-0.109,-1.056,0.127,-20.8556712,-10.886202,5.6722842,96.65228502,0.20626488,-52.94704878
0.03,3,-0.117,-1.046,0.116,-23.14750320000001,-6.1879464,3.9534102,96.41737224,0.1718874,-53.01580374
0.04,4,-0.112,-1.035,0.103,-25.496631,-3.9534102,2.0626488000000003,96.15954114000002,0.15469866,-53.05591080000001
0.05,5,-0.101,-1.02,0.092,-27.903054600000004,-2.6929026,0.4010706,95.87879172,0.15469866,-53.09028828
0.060000000000000005,6,-0.093,-1.01,0.084,-30.080295,-2.0626488000000003,-1.0313244,95.55793524,0.12032118,-53.10174744000001
0.06999999999999999,7,-0.09,-1.005,0.08199999999999999,-31.79916900000001,-1.6042823999999998,-1.9480572,95.23134918,0.13750992,-53.124665760000006
0.08,8,-0.091,-1.003,0.056,-33.5753388,-2.0626488000000003,-2.3491278,94.89330396,0.16615782,-53.14758408
0.09,9,-0.087,-0.998,0.063,-34.5493674,-2.1199446,-2.9793816000000004,94.54379958,0.19480572,-53.1705024
0.09999999999999999,10,-0.075,-0.997,0.078,-34.950438,0.0,-4.1252976000000015,94.18856562,0.2291832000000001,-53.1705024
0.11,11,-0.067,-1.006,0.071,-35.4088044,3.0939732,-5.6149884000000005,93.81614292,0.25783110000000004,-53.13612492
0.12,12,-0.059,-1.02,0.054000000000000006,-36.32553720000001,5.2712136,-6.703608600000001,93.4494498,0.32085648,-53.0845587
0.13,13,-0.055,-1.033,0.037000000000000005,-37.757932200000006,6.2452422,-7.3911582,93.06556794,0.38388186,-53.02153331999999
0.14,14,-0.053,-1.039,0.03,-39.19032720000001,7.0473834,-7.5057497999999985,92.66449734,0.4526368200000001,-52.95277836
0.15000000000000002,15,-0.047,-1.04,0.029,-41.252976,8.479778399999999,-7.333862400000001,92.246238,0.5156622000000001,-52.87256424
0.16,16,-0.037000000000000005,-1.029,0.021,-44.6334282,9.969469199999999,-7.0473834,91.78214202,0.56722842,-52.77516138
0.17,17,-0.024,-1.006,0.017,-48.987909,11.5737516,-7.161975,91.28939814,0.62452422,-52.66056978
0.18000000000000002,18,-0.011,-0.984,0.011,-53.68616460000001,13.8082878,-7.7922288,90.73935846,0.69327918,-52.52878943999999
0.19,19,0.006999999999999999,-0.973,0.002,-60.10329419999999,17.8189938,-9.2819196,90.13202298,0.7734933,-52.35690204
0.2,20,0.044,-0.972,-0.009000000000000001,-65.2026204,24.5798982,-10.1413566,89.46739170000002,0.86516658,-52.12198926
0.21000000000000002,21,0.094,-0.981,-0.02,-69.4998054,29.621928600000004,-10.5424272,88.75692378,0.9740286,-51.84123984
0.22,22,0.133,-1.001,-0.019,-74.48454,26.69984280000001,-10.599723,88.0063488,1.07716104,-51.58913832
0.23,23,0.16899999999999998,-1.023,-0.017,-78.5525418,16.8449652,-9.2819196,87.20420759999998,1.16310474,-51.43443966
0.24000000000000002,24,0.201,-1.065,-0.019,-80.1568242,2.4064236,-5.443101,86.39060724,1.20894138,-51.4229805
0.25,25,0.227,-1.138,-0.024,-82.79243100000002,-10.313244,-0.6302538000000001,85.55408856,1.2032117999999998,-51.53184252
0.26,26,0.25,-1.195,-0.069,-88.63660259999996,-15.6417534,2.3491278,84.6545445,1.18602306,-51.69800034
0.27,27,0.25,-1.208,-0.091,-95.2256196,-17.8762896,0.0,83.68624548,1.16310474,-51.88707648
0.28,28,0.24,-1.195,-0.123,-100.8979038,-18.7357266,-6.3025379999999975,82.66065066,1.2032117999999998,-52.08761178
0.29000000000000004,29,0.218,-1.169,-0.127,-104.3356518,-20.9702628,-13.8655836,81.59494878,1.30634424,-52.32252456
0.3,30,0.183,-1.127,-0.058,-108.7474284,-24.5798982,-20.2254174,80.48913983999998,1.4610428999999998,-52.60900356
0.31,31,0.14,-0.997,0.056,-112.586247,-32.2002396,-23.6631654,79.36614216000002,1.64438946,-52.97569668
0.32,32,0.122,-0.945,0.211,-108.28906200000002,-34.091001,-26.356068,78.26033322,1.8334656000000005,-53.3710377
0.33,33,0.125,-1.011,0.244,-108.002583,-31.340802600000004,-29.1062664,77.15452428,2.05118964,-53.7434604
0.34,34,0.105,-1.06,0.119,-118.60230599999998,-26.4706596,-31.340802600000004,75.93985332,2.28610242,-54.08150562
0.35000000000000003,35,0.093,-1.031,-0.037000000000000005,-128.2852962,-20.511896399999998,-30.93973200000001,74.6277795,2.52674478,-54.37371420000001
0.36000000000000004,36,0.101,-1.015,-0.123,-130.634424,-16.501190400000002,-29.9657034,73.30424652,2.76165756,-54.62581572000001
0.37,37,0.133,-1.017,-0.16899999999999998,-135.27538380000001,-15.9282324,-29.1062664,71.92341774,2.9793816000000004,-54.87218766
0.38,38,0.162,-0.96,-0.18600000000000005,-140.60389320000002,-23.032911600000002,-28.4187168,70.47956358,3.1627281600000003,-55.19304414
0.39,39,0.201,-0.848,-0.113,-136.87966619999997,-30.366774000000003,-29.507337,69.0700869,3.32888598,-55.58838516
0.4,40,0.244,-0.779,0.068,-126.96749280000002,-37.757932200000006,-31.4553942,67.75801308,3.47785506,-56.06394029999999
0.41000000000000003,41,0.258,-0.7959999999999999,0.117,-119.00337659999998,-47.4982182,-32.2002396,66.55480127999999,3.60390582,-56.6368983
0.42000000000000004,42,0.231,-0.89,-0.054000000000000006,-117.169911,-58.8427866,-32.4294228,65.32867116,3.66120162,-57.31871832
0.43,43,0.16,-0.93,-0.249,-120.8368422,-70.1300592,-34.950438,64.06243398,3.68411994,-58.10940036
0.44,44,0.041,-0.933,-0.266,-126.5091264,-66.69231119999999,-38.5600734,62.738901,3.7299565800000014,-58.88862324
0.45,45,-0.028,-0.908,-0.239,-128.91555,-47.9565846,-43.4302164,61.3924497,3.88465524,-59.52460662
0.46,46,-0.029,-0.825,-0.304,-131.60845260000002,-30.65325300000001,-45.263682,60.02880966,4.11383844,-60.0173505
0.47000000000000003,47,-0.031,-0.746,-0.408,-133.2700308,-36.2109456,-43.1437374,58.64225129999999,4.29145542,-60.55593102
0.48000000000000004,48,-0.058,-0.7440000000000001,-0.475,-134.0148762,-54.717489,-38.67466500000001,57.2385042,4.325832900000001,-61.23775104
0.49,49,-0.085,-0.797,-0.465,-134.87431320000002,-67.26526919999999,-32.0283522,55.82329794,4.22270046,-61.98259644
0.5,50,-0.108,-0.7509999999999999,-0.333,-131.4365652,-67.26526919999999,-23.0902074,54.44819874,4.02789474,-62.6816052
0.51,51,-0.079,-0.701,-0.305,-120.607659,-59.014674,-17.7044022,53.1991503,3.81590028,-63.26602236
0.52,52,-0.032,-0.741,-0.409,-119.2325598,-57.35309579999999,-15.0114996,51.96156102,3.58671708,-63.82752120000001
0.53,53,-0.03,-0.718,-0.342,-116.8261362,-52.48295279999999,-16.673077799999998,50.75261964,3.38618178,-64.34891298
0.54,54,-0.041,-0.682,-0.294,-114.4197126,-40.6227222,-21.0848544,49.56659658,3.28304934,-64.8015498
0.55,55,-0.039,-0.64,-0.339,-111.9559932,-34.0337052,-25.6685184,48.414951,3.2486718599999995,-65.2312683
0.56,56,-0.052000000000000005,-0.623,-0.377,-107.37232920000001,-31.627281600000003,-29.335449600000004,47.31487163999999,3.2372127,-65.66671638
0.5700000000000001,57,-0.037000000000000005,-0.64,-0.459,-102.9605526,-28.762491600000004,-32.7731976,46.24916976,3.27159018,-66.10789403999999
0.5800000000000001,58,-0.027000000000000003,-0.65,-0.487,-99.694692,-28.074942,-36.4401288,45.21211578,3.32888598,-66.56626044
0.59,59,-0.029,-0.6509999999999999,-0.522,-95.85587340000001,-26.8717302,-37.4714532,44.21516886,3.3919113599999995,-67.02462684000001
0.6,60,-0.048,-0.65,-0.534,-91.5013926,-27.3300966,-36.4401288,43.26405858,3.44347758,-67.48299324000001
0.61,61,-0.085,-0.657,-0.511,-87.77716559999998,-24.5226024,-35.8671708,42.36451452,3.48358464,-67.91271173999999
0.62,62,-0.123,-0.637,-0.498,-84.8550798,-20.8556712,-35.0650296,41.47642962,3.5523396000000003,-68.31378234
0.63,63,-0.134,-0.604,-0.479,-82.1048814,-17.7044022,-33.002380800000005,40.6227222,3.62682414,-68.68047546
0.64,64,-0.126,-0.5760000000000001,-0.526,-79.6984578,-17.475219,-30.252182399999995,39.7919331,3.68411994,-69.02997984
0.65,65,-0.116,-0.575,-0.619,-78.89631659999998,-17.7044022,-27.444688199999998,38.97260316,3.71276784,-69.35656589999999
0.66,66,-0.08800000000000001,-0.596,-0.675,-77.2920342,-16.673077799999998,-26.1268848,38.17619154000001,3.71849742,-69.66023364
0.67,67,-0.052000000000000005,-0.607,-0.693,-75.74504759999998,-17.9908812,-25.9549974,37.3855095,3.7299565800000014,-69.98109012
0.68,68,-0.015,-0.5920000000000001,-0.669,-73.85428619999998,-15.6417534,-27.215505,36.61774578,3.76433406,-70.29048744
0.6900000000000001,69,0.019,-0.561,-0.7090000000000001,-71.8489332,-14.610429000000002,-28.934379,35.8671708,3.810170700000002,-70.61134392
0.7000000000000001,70,0.016,-0.531,-0.7,-68.75496,-15.870936600000002,-30.7678446,35.1509733,3.85027776,-70.9608483
0.7100000000000001,71,-0.005,-0.504,-0.6709999999999999,-65.3745078,-15.870936600000002,-32.372127,34.4634237,3.89038482,-71.31608226
0.72,72,-0.039,-0.484,-0.672,-62.16594300000001,-14.266654199999998,-33.231564,33.81025158,3.94768062,-71.67131622000002
0.73,73,-0.07200000000000001,-0.496,-0.742,-59.4157446,-9.6829902,-34.60666320000001,33.18572736,4.05654264,-72.00936143999998
0.74,74,-0.118,-0.539,-0.8170000000000001,-58.0406454,-5.958763200000001,-36.4401288,32.572662300000005,4.19405256,-72.34740666
0.75,75,-0.151,-0.593,-0.82,-57.6968706,-2.4637194,-37.0703826,31.95959724,4.36593996,-72.67399272
0.76,76,-0.129,-0.579,-0.799,-56.8374336,-1.2605076000000002,-36.8411994,31.3694505,4.50344988,-72.98911962000003
0.77,77,-0.085,-0.5720000000000001,-0.777,-55.6342218,-0.8594370000000001,-35.6379876,30.77930376,4.669607699999999,-73.29278736
0.78,78,-0.035,-0.562,-0.779,-54.889376399999996,-1.3178034,-34.091001,30.194886600000004,4.82430636,-73.5964551
0.79,79,0.003,-0.5479999999999999,-0.8029999999999999,-54.14453099999999,-3.2658606,-32.830493399999995,29.621928600000004,4.95035712,-73.89439326
0.8,80,0.021,-0.534,-0.8170000000000001,-53.34238979999999,-3.4377480000000005,-32.544014399999995,29.05470018,5.07640788,-74.19233141999999
0.81,81,0.017,-0.5329999999999999,-0.7959999999999999,-53.22779820000001,0.0,-34.4920716,28.49893092000001,5.21964738,-74.49026957999997
0.8200000000000001,82,0.002,-0.546,-0.752,-54.3164184,7.8495246,-37.7006364,27.92024334000001,5.45456016,-74.78247816
0.8300000000000001,83,0.002,-0.5579999999999999,-0.773,-57.52498320000001,15.469866,-40.2216516,27.30717828,5.76968706,-75.06322758
0.8400000000000001,84,0.019,-0.53,-0.8,-61.07732280000001,14.0947668,-40.10706,26.65400616,6.06189564,-75.34970658
0.85,85,0.036000000000000004,-0.474,-0.77,-61.8221682,9.167328,-38.1590028,25.98937488,6.3025379999999975,-75.64764474
0.86,86,0.058,-0.428,-0.778,-60.67625219999999,6.6463128000000005,-35.695283399999994,25.34193234,6.5030733,-75.93412373999998
0.87,87,0.086,-0.382,-0.778,-58.2125328,2.1772404,-33.6899304,24.71740812,6.65777196,-76.22633232000003
0.88,88,0.111,-0.348,-0.767,-54.54560160000001,-2.291832,-32.658606,24.12726138,6.76663398,-76.53572964
0.89,89,0.119,-0.343,-0.838,-52.3683612,-2.9793816000000004,-32.544014399999995,23.56003296,6.86403684,-76.84512696
0.9,90,0.107,-0.35100000000000003,-0.8029999999999999,-49.274388,0.572958,-33.4607472,23.02145244,6.990087599999999,-77.14306512
0.91,91,0.066,-0.374,-0.745,-44.977203,6.6463128000000005,-34.8931422,22.53443814,7.1734341599999984,-77.43527370000002
0.92,92,0.02,-0.385,-0.713,-42.2270046,15.0687954,-36.4974246,22.07034216,7.4427244199999985,-77.71029354
0.93,93,-0.036000000000000004,-0.353,-0.695,-39.9924684,20.3973048,-37.0703826,21.629164499999998,7.75785132,-77.97385421999998
0.9400000000000001,94,-0.071,-0.314,-0.706,-38.38818600000001,22.2880662,-35.46610020000001,21.199446,8.08443738,-78.21449658
0.9500000000000001,95,-0.08,-0.259,-0.737,-35.9817624,22.91832,-31.6845774,20.7983754,8.40529386,-78.42649104
0.9600000000000001,96,-0.059,-0.217,-0.7709999999999999,-32.830493399999995,21.9442914,-27.2728008,20.42022312,8.65739538,-78.59264886000003
0.97,97,0.012,-0.227,-0.82,-28.934379,23.7204612,-24.1215318,20.09936664,8.95533354,-78.73015878
0.98,98,0.103,-0.246,-0.858,-26.356068,25.2674478,-22.6891368,19.80715806,9.26473086,-78.85047996
0.99,99,0.17800000000000002,-0.267,-0.8320000000000001,-23.0902074,27.1582092,-23.0902074,19.54932696,9.59131692,-78.97080113999998
1.0,100,0.22,-0.28800000000000003,-0.845,-20.05353,30.4813656,-24.2934192,19.32014376,9.94655088,-79.09112232
1.01,101,0.2,-0.299,-0.872,-17.7044022,29.621928600000004,-25.1528562,19.1081493,10.30751442,-79.22863224
1.02,102,0.172,-0.315,-0.8759999999999999,-14.4385416,25.496631,-24.8090814,18.93053232,10.62264132,-79.37187173999997
1.03,103,0.141,-0.328,-0.862,-11.745639,21.2567418,-23.2620948,18.78156324,10.89193158,-79.52084082
1.04,104,0.121,-0.319,-0.83,-8.651665800000002,19.2513888,-21.1421502,18.66124206,11.13830352,-79.65262116
1.05,105,0.13699999999999998,-0.295,-0.905,-6.3025379999999975,18.7930224,-18.907614000000002,18.57529836,11.3732163,-79.76721276
1.06,106,0.159,-0.275,-0.952,-3.724227,16.558486199999994,-16.2147114,18.4778955,11.55656286,-79.8703452
1.07,107,0.171,-0.277,-0.952,-0.11459160000000004,18.9649098,-14.037471,18.46070676,11.78001648,-79.93910016
1.08,108,0.16899999999999998,-0.281,-0.955,2.4064236,23.835052800000003,-13.0061466,18.47216592,12.04357716,-79.9849368
1.09,109,0.145,-0.294,-0.939,4.4690724,27.5592798,-12.318597,18.5065434,12.33578574,-80.00785512
1.1,110,0.118,-0.308,-0.922,6.5317212,28.361421000000004,-10.7143146,18.56956878,12.6337239,-80.01358470000002
1.11,111,0.115,-0.308,-0.942,8.9954406,25.210152,-7.9641161999999985,18.64405332,12.84571836,-79.99639596
1.12,112,0.136,-0.3,-0.933,11.8602306,19.767051,-4.6409598,18.7643745,13.04625366,-79.97347764
1.1300000000000001,113,0.196,-0.28,-0.913,14.7823164,16.501190400000002,-1.9480572,18.92480274,13.206681900000001,-79.93337058
1.1400000000000001,114,0.278,-0.244,-0.914,18.5065434,12.318597,0.057295800000000015,19.11960846,13.32700308,-79.88753394
1.1500000000000001,115,0.313,-0.223,-0.935,21.7151082,8.9381448,0.6875496,19.34879166,13.4072172,-79.85315646
1.1600000000000001,116,0.307,-0.235,-0.921,25.3247436,8.078707799999998,0.1718874,19.56078612,13.51607922,-79.83596772
1.17,117,0.261,-0.251,-0.919,28.4187168,8.8235532,0.4010706,19.8529947,13.60202292,-79.80159024000002
1.18,118,0.19,-0.267,-0.923,30.5386614,12.2040054,1.7188740000000002,20.17958076,13.71088494,-79.73856486
1.19,119,0.155,-0.281,-0.94,33.4607472,14.381245800000002,3.6096354,20.53481472,13.836935700000002,-79.65262116
1.2,120,0.13,-0.264,-0.939,36.8411994,8.5370742,6.990087599999999,20.93588532,13.894231499999998,-79.55521829999998
1.21,121,0.13699999999999998,-0.235,-0.931,40.737313799999995,3.4377480000000005,9.797581800000001,21.31976718,13.8655836,-79.45208586
1.22,122,0.181,-0.202,-0.96,44.1750618,-0.572958,9.1100322,21.78959274,13.836935700000002,-79.37187173999997
1.23,123,0.203,-0.223,-0.989,46.696077,-1.4896908000000002,5.1566220000000005,22.27660704,13.8082878,-79.33176468
1.24,124,0.141,-0.292,-0.946,50.76407879999999,0.8594370000000001,1.8334656000000005,22.792269240000003,13.81401738,-79.30884636
1.25,125,0.092,-0.341,-0.943,52.3110654,7.3911582,1.432395,23.336579340000004,13.88277234,-79.26873930000002
1.26,126,0.13,-0.342,-0.96,54.3737142,12.5477802,3.3231564,23.88661902,13.96871604,-79.18279559999998
1.27,127,0.14300000000000002,-0.345,-0.909,57.2385042,15.183387000000002,5.958763200000001,24.4939545,14.08903722,-79.06247442
1.28,128,0.109,-0.35100000000000003,-0.934,59.4157446,17.589810600000003,9.3965112,25.13566746,14.2093584,-78.89631659999998
1.29,129,0.091,-0.334,-0.946,61.134618599999996,18.162768600000003,13.2353298,25.80602832,14.32395,-78.69005172
1.3,130,0.076,-0.33,-0.937,64.22859179999999,18.8503182,15.2979786,26.510766659999994,14.427082439999998,-78.46086852
1.31,131,0.076,-0.337,-0.928,65.3745078,19.3659804,14.7250206,27.20404584000001,14.51302614,-78.2374149
1.32,132,0.124,-0.365,-0.912,66.0620574,18.1054728,13.521808800000002,27.92597292,14.61615858,-78.02542044
1.33,133,0.203,-0.419,-0.902,66.176649,18.2200644,13.8655836,28.6479,14.71356144,-77.8076964
1.34,134,0.287,-0.45,-0.904,66.11935319999999,16.1001198,15.985528200000001,29.37555666,14.7823164,-77.5785132
1.35,135,0.35200000000000004,-0.466,-0.917,67.7809314,10.1413566,19.5378678,30.12040206,14.7823164,-77.35505958
1.36,136,0.393,-0.469,-0.895,68.46848100000001,3.8961144,23.9496444,30.85951788,14.7250206,-77.12587638
1.37,137,0.42,-0.453,-0.909,69.15603060000001,-1.7188740000000002,29.2781538,31.6272816,14.57032194,-76.87950443999998
1.3800000000000001,138,0.431,-0.453,-0.986,70.87490460000002,-8.136003599999999,34.8358464,32.41223406,14.32967958,-76.62740292000002
1.3900000000000001,139,0.398,-0.478,-0.924,73.052145,-14.5531332,38.7319608,33.22010484,14.008823099999995,-76.37530140000001
1.4000000000000001,140,0.361,-0.525,-0.929,74.198061,-18.5065434,42.28430039999999,34.0337052,13.6364004,-76.12319987999999
1.4100000000000001,141,0.267,-0.5489999999999999,-0.954,75.63045600000002,-21.5432208,45.1490904,34.85303514,13.21241148,-75.87682794
1.42,142,0.092,-0.597,-0.927,77.40662579999999,-17.8762896,46.409598,35.70101298,12.81707046,-75.60180809999999
1.43,143,-0.08199999999999999,-0.67,-0.855,78.03687959999998,-9.224623800000002,45.3209778,36.56617956,12.4904844,-75.2866812
1.44,144,-0.117,-0.7140000000000001,-0.8320000000000001,78.60983759999998,0.4010706,42.91455420000001,37.4428053,12.24411246,-74.93144724
1.45,145,-0.053,-0.713,-0.8340000000000001,77.635809,7.448453999999999,39.7059894,38.3022423,12.07222506,-74.57048370000003
1.46,146,0.025,-0.7490000000000001,-0.797,76.60448459999998,11.6310474,34.4347758,39.161679299999996,11.934715140000002,-74.21524974
1.47,147,0.111,-0.787,-0.78,75.8023434,13.407217200000002,28.934379,39.9924684,11.860230599999998,-73.90012284
1.48,148,0.206,-0.816,-0.8220000000000001,72.479187,21.6005166,24.064235999999998,40.7946096,11.87168976,-73.5678072
1.49,149,0.238,-0.8170000000000001,-0.8079999999999999,71.1040878,26.41336380000001,20.798375399999998,41.58529164,11.94044472,-73.2240324
1.5,150,0.18,-0.805,-0.7390000000000001,71.8489332,32.31483119999999,18.907614000000002,42.38743284,12.05503632,-72.85733927999998
1.51,151,0.154,-0.795,-0.773,70.8176088,44.2323576,18.449247600000003,43.19530362,12.24411246,-72.39897288
1.52,152,0.14300000000000002,-0.77,-0.746,69.4998054,48.7587258,18.162768600000003,43.99744482000001,12.46756608,-71.91768816
1.53,153,0.086,-0.799,-0.632,71.04679200000002,47.269034999999995,18.2200644,44.81677476,12.67383096,-71.43640344
1.54,154,0.097,-0.8240000000000001,-0.607,66.463128,49.560867,17.8189938,45.59599764,12.891555,-70.94365956
1.55,155,0.146,-0.826,-0.551,64.0567044,50.5921914,14.7250206,46.3523022,13.132197359999996,-70.45664526
1.56,156,0.226,-0.794,-0.5870000000000001,61.134618599999996,54.602897399999996,10.5424272,47.07995886000001,13.43013552,-69.96390138000001
1.57,157,0.307,-0.7,-0.628,58.613603399999995,57.2958,8.479778399999999,47.7846972,13.74526242,-69.46542792
1.58,158,0.319,-0.618,-0.58,60.2178858,59.35844880000001,8.250595200000001,48.51808344,14.07184848,-68.94403614
1.59,159,0.304,-0.583,-0.552,61.4783934,65.7755784,9.5111028,49.274388,14.42135286,-68.35961898
1.6,160,0.308,-0.608,-0.59,61.4783934,72.479187,11.2872726,50.05361088,14.79377556,-67.70644686
1.61,161,0.298,-0.635,-0.488,63.9994086,72.82296179999999,13.750992000000002,50.87294082,15.149009520000002,-67.03035642
1.62,162,0.224,-0.684,-0.436,67.895523,68.6403684,16.959556799999998,51.73237782,15.435488519999998,-66.35426598000001
1.6300000000000001,163,0.207,-0.675,-0.429,66.86419860000001,66.9214944,18.9649098,52.58608524,15.68759004,-65.67817554
1.6400000000000001,164,0.262,-0.619,-0.392,69.8435802,64.51507079999999,19.308684600000007,53.46271098,15.91104366,-65.01354425999999
1.6500000000000001,165,0.358,-0.5660000000000001,-0.415,76.2607098,57.983349600000004,18.7930224,54.39663252,16.09439022,-64.40620878
1.6600000000000001,166,0.43,-0.489,-0.455,82.62054359999998,52.597544400000004,18.9649098,55.37066112,16.272007199999994,-63.84470994000001
1.6700000000000002,167,0.502,-0.43,-0.521,87.7198698,52.0818822,20.2827132,56.41344468,16.392328380000002,-63.27175193999999
1.68,168,0.493,-0.403,-0.457,90.7565472,51.7954032,23.4339822,57.4963353,16.4725425,-62.6816052
1.69,169,0.258,-0.457,-0.378,96.543423,55.9779966,27.7311672,58.65371046,16.5298383,-62.02270350000001
1.7,170,0.181,-0.4320000000000001,-0.535,97.689339,68.0674104,31.111619399999995,59.86265184,16.604322840000002,-61.24348062
1.71,171,0.213,-0.622,-0.555,106.68477959999998,68.1247062,35.3515086,61.14607776,16.62724116,-60.43560984
1.72,172,0.413,-0.8440000000000001,-0.632,118.60230599999998,68.0674104,40.4508348,62.58420234,16.5871341,-59.60482074
1.73,173,0.682,-1.268,-0.764,130.634424,66.11935319999999,49.6754586,64.1426481,16.438165020000003,-58.75111332
1.74,174,0.835,-1.6909999999999998,-0.73,143.35409159999998,57.58227899999999,58.78549079999999,65.82141504,16.15168602,-57.93751296000001
1.75,175,0.955,-2.151,-0.5479999999999999,154.69866000000005,53.456981400000004,65.2599162,67.59758484,15.77353374,-57.15256049999999
1.76,176,0.947,-2.665,-0.265,158.48018280000005,45.263682,70.8176088,69.39667296,15.28651944,-56.43636299999999
1.77,177,0.944,-2.736,0.12,140.2028226,32.486718599999996,70.4165382,70.96657788,14.74793892,-55.86340500000001
1.78,178,0.91,-2.211,0.179,111.153852,29.1635622,58.38442020000001,72.20989674,14.2953021,-55.38212028
1.79,179,0.784,-1.6469999999999998,0.018000000000000002,97.689339,25.496631,41.3675676,73.29278736,13.980175199999998,-54.99823841999999
1.8,180,0.625,-1.3119999999999998,-0.01,91.2722094,16.501190400000002,25.2674478,74.27827512,13.79109906,-54.75759606
1.81,181,0.439,-0.987,0.019,83.19350159999998,11.2872726,9.568398599999998,75.19500792,13.76818074,-54.60862698000001
1.82,182,0.304,-0.7020000000000001,0.006,78.09417540000003,8.479778399999999,-0.5156622000000001,76.00860828,13.796828639999998,-54.5169537
1.83,183,0.256,-0.498,0.026,76.2607098,8.8235532,-2.3491278,76.80501989999998,13.84839486,-54.42528042
1.84,184,0.23,-0.349,0.114,77.92228800000002,10.1986524,3.151269,77.62434984000002,13.84266528,-54.31068882
1.85,185,0.181,-0.269,0.185,85.1415588,11.8029348,13.8655836,78.52389389999998,13.73953284,-54.15599016
1.86,186,0.149,-0.29100000000000004,0.156,93.392154,14.610429000000002,23.7204612,79.53802956,13.550456700000002,-53.94972528000001
1.87,187,0.139,-0.361,0.133,95.970465,13.750992000000002,30.9970278,80.55789480000001,13.275436860000005,-53.7434604
1.8800000000000001,188,0.139,-0.441,0.168,99.694692,14.8396122,35.695283399999994,81.6178671,12.95458038,-53.53146594
1.8900000000000001,189,0.14400000000000002,-0.532,0.182,104.2210602,21.1421502,36.4401288,82.7351352,12.62799432,-53.25644610000001
1.9000000000000001,190,0.15,-0.628,0.191,106.283709,25.1528562,34.262888399999994,83.87532162,12.318597,-52.95277836
1.9100000000000001,191,0.131,-0.758,0.22,108.86202,24.2361234,31.627281600000003,85.07280384,12.032118,-52.66056978
1.9200000000000002,192,0.133,-0.928,0.24,111.0392604,24.5798982,30.366774000000003,86.2588269,11.75136858,-52.37409078
1.93,193,0.166,-1.176,0.269,111.7841058,25.1528562,31.8564648,87.44484996,11.45343042,-52.09334136
1.94,194,0.188,-1.4240000000000002,0.272,110.9819646,19.595163600000006,36.096354,88.61368428,11.10392604,-51.86988774
1.95,195,0.214,-1.654,0.332,105.8826384,12.2040054,39.19032720000001,89.71376364,10.72004418,-51.73237782
1.96,196,0.236,-1.7280000000000002,0.362,95.7985776,6.875496000000001,38.5600734,90.70498098,10.3418919,-51.6521637
1.97,197,0.232,-1.5659999999999998,0.299,83.36538900000002,2.4637194,35.17962120000001,91.55868840000001,9.9981171,-51.62351579999999
1.98,198,0.177,-1.345,0.279,78.20876700000002,-3.4377480000000005,31.6845774,92.34937044,9.69444936,-51.66362286
1.99,199,0.081,-1.206,0.31,78.5525418,-10.7143146,29.0489706,93.12859332,9.41942952,-51.77248488
2.0,200,0.006,-1.173,0.303,77.40662579999999,-6.9327918,26.929026,93.90208662,9.16159842,-51.85269900000001
2.01,201,-0.063,-1.181,0.255,69.55710119999999,3.151269,25.6685184,94.62974328,8.87511942,-51.8240511
2.02,202,-0.098,-1.138,0.252,59.014674,13.0061466,26.5279554,95.24280834,8.60582916,-51.71518908
2.03,203,-0.097,-1.06,0.242,54.14453099999999,9.797581800000001,29.1635622,95.80430718,8.307891,-51.64070454
2.04,204,-0.07400000000000001,-1.038,0.235,52.597544400000004,4.010706000000001,31.111619399999995,96.3428877,7.99849368,-51.62351579999999
2.05,205,-0.027000000000000003,-1.044,0.238,49.04520479999999,1.8334656000000005,31.627281600000003,96.83563158,7.6890963600000015,-51.64070454
2.0599999999999996,206,0.03,-1.031,0.262,46.29500640000001,0.286479,31.8564648,97.32837546,7.3567807200000015,-51.66362286
2.07,207,0.081,-1.004,0.276,44.2896534,-0.9167328,31.971056400000002,97.7752827,7.0473833999999975,-51.71518908
2.0799999999999996,208,0.105,-0.983,0.251,41.825934,-3.5523396000000003,32.085648000000006,98.18781246,6.743715660000001,-51.78967362
2.09,209,0.078,-0.944,0.279,39.9351726,-8.193299399999999,32.486718599999996,98.58315348,6.4400479200000005,-51.90999480000001
2.0999999999999996,210,0.011,-0.906,0.329,41.1383844,-9.2819196,32.658606,98.98995366,6.13638018,-52.04750471999999
2.11,211,-0.039,-0.92,0.329,40.7946096,-1.3750992,31.8564648,99.43113132,5.79260538,-52.10480051999999
2.1199999999999997,212,-0.063,-0.955,0.308,37.4714532,6.990087599999999,30.3094782,99.81501318,5.48893764,-52.0818822
2.13,213,-0.092,-0.978,0.318,35.3515086,8.8235532,28.074942,100.17597672,5.19672906,-52.04177514000001
2.1399999999999997,214,-0.121,-0.991,0.34600000000000003,35.0650296,6.3025379999999975,25.6685184,100.53121068,4.93316838,-52.0245864
2.15,215,-0.119,-1.001,0.35100000000000003,35.17962120000001,5.9014674000000005,23.8923486,100.89217422000002,4.69252602,-52.00739766
2.1599999999999997,216,-0.076,-1.007,0.337,34.3201842,6.760904399999999,23.14750320000001,101.2703265,4.41750618,-51.973020180000006
2.17,217,-0.003,-0.985,0.35,32.4294228,5.5003968,23.204799,101.60264214,4.1825934,-51.96156102
2.1799999999999997,218,0.024,-0.981,0.339,32.486718599999996,0.572958,23.204799,101.9292282,3.95913978,-52.00166808
2.19,219,0.018000000000000002,-0.99,0.32,31.79916900000001,0.2291832000000001,22.2880662,102.25008468,3.74141574,-52.04177514000001
2.1999999999999997,220,-0.018000000000000002,-0.993,0.334,31.79916900000001,2.4064236,21.027558600000006,102.57094116,3.5351508600000003,-52.05896388
2.21,221,-0.07200000000000001,-0.973,0.369,31.8564648,2.8074942000000003,20.168121600000006,102.93763428,3.28877892,-52.07042304
2.2199999999999998,222,-0.117,-0.958,0.385,32.486718599999996,0.9740286,19.767051,103.26994992,3.0939732,-52.09907094
2.23,223,-0.133,-0.985,0.362,31.627281600000003,2.2345362,18.7357266,103.5908064,2.91062664,-52.11625968
2.2399999999999998,224,-0.119,-0.996,0.376,28.81978740000001,5.844171599999999,17.475219,103.88301498,2.72728008,-52.09907094
2.25,225,-0.099,-0.979,0.377,27.1009134,7.2765666,16.2147114,104.15803481999998,2.5496631,-52.06469346
2.26,226,-0.079,-0.978,0.374,26.9863218,4.6409598,15.469866,104.47316172,2.3491277999999998,-52.05323430000001
2.27,227,-0.066,-0.975,0.393,26.41336380000001,2.3491278,15.2979786,104.74245197999998,2.20015872,-52.06469346
2.28,228,-0.066,-0.966,0.43,26.0122932,3.724227,15.0687954,105.00601266,2.04546006,-52.06469346
2.29,229,-0.066,-0.955,0.454,25.0382646,8.651665800000002,15.0114996,105.25811417999998,1.87357266,-52.01885682000001
2.3,230,-0.059,-0.961,0.429,25.1528562,9.3965112,15.527161800000002,105.51594528,1.70168526,-51.9672906
2.31,231,-0.051,-0.989,0.428,24.064235999999998,5.7868758000000025,15.870936600000002,105.80242428,1.51260912,-51.95583144
2.32,232,-0.028,-1.027,0.406,20.9702628,5.3285094000000015,15.0114996,106.01441874,1.35218088,-51.94437228
2.3299999999999996,233,-0.015,-1.051,0.377,18.1054728,6.2452422,13.6936962,106.1977653,1.2032117999999998,-51.91572437999999
2.34,234,-0.018000000000000002,-1.034,0.384,15.2979786,4.9847345999999995,11.917526400000002,106.35246396,1.07716104,-51.90426521999999
2.3499999999999996,235,-0.017,-0.998,0.395,15.126091199999998,3.3231564,10.4851314,106.50716262,0.96829902,-51.89853564
2.36,236,-0.018000000000000002,-0.956,0.428,15.527161800000002,2.2345362,9.3392154,106.75353456,0.8537074199999999,-51.90426521999999
2.3699999999999997,237,-0.019,-0.915,0.468,15.813640800000002,1.8334656000000005,8.5370742,106.9139628,0.76776372,-51.90999480000001
2.38,238,-0.023,-0.904,0.487,15.813640800000002,1.3750992,8.7089616,107.07439104,0.68182002,-51.92145396
2.3899999999999997,239,-0.023,-0.938,0.465,14.8396122,0.6875496,8.651665800000002,107.22336011999998,0.59587632,-51.9386427
2.4,240,-0.026,-0.994,0.438,12.5477802,-1.2032118,7.8495246,107.35514046,0.52712136,-51.973020180000006
2.4099999999999997,241,-0.038,-1.022,0.455,9.453807000000001,-2.4637194,6.0733548,107.52702786,0.44690724,-52.01312724
2.42,242,-0.046,-1.04,0.439,5.042030400000002,-1.0313244,4.0680017999999984,107.57859408,0.41252976,-52.03604556000001
2.4299999999999997,243,-0.06,-1.025,0.435,2.4064236,-0.572958,2.86479,107.6015124,0.38388186,-52.04750471999999
2.44,244,-0.066,-0.963,0.489,0.9740286,0.0,2.3491278,107.61297156,0.36096354,-52.05323430000001
2.4499999999999997,245,-0.063,-0.909,0.516,1.2032118,2.291832,2.0626488000000003,107.62443072,0.33804522,-52.04177514000001
2.46,246,-0.087,-0.8959999999999999,0.504,2.1199446,5.5576926,1.7188740000000002,107.9452872,0.14323950000000002,-51.9959385
2.4699999999999998,247,-0.101,-0.92,0.498,2.1199446,7.906820400000001,0.6875496,107.96247594,0.11459160000000004,-51.92145396
2.48,248,-0.129,-0.973,0.486,-0.4010706,9.453807000000001,-0.4010706,107.95674635999998,0.0859437,-51.82978068
2.4899999999999998,249,-0.139,-1.009,0.477,-5.2139178,11.8029348,-1.2032118,107.90518014,0.057295800000000015,-51.72091866
2.5,250,-0.135,-1.023,0.448,-10.1413566,13.521808800000002,-0.8021411999999999,107.8020477,0.01718874,-51.58913832
2.51,251,-0.119,-1.022,0.411,-12.032117999999999,13.178034,0.286479,107.69891526,-0.07448454,-51.46308756
2.52,252,-0.08900000000000001,-1.019,0.387,-13.2353298,14.0947668,1.0313244,107.56140534,-0.13178034,-51.33703680000001
2.53,253,-0.05,-0.975,0.425,-16.2147114,18.5065434,1.3178034,107.39524752,-0.20626488,-51.17087898
2.54,254,-0.01,-0.92,0.41,-16.959556799999998,23.2620948,1.6042823999999998,107.21763054,-0.29793816,-50.95888452
2.55,255,0.006,-0.898,0.389,-14.610429000000002,20.798375399999998,1.6615782,107.06866146,-0.37815228,-50.77553796
2.56,256,0.016,-0.885,0.377,-13.0061466,12.834259199999998,1.0313244,106.9999065,-0.41252976,-50.66667594
2.57,257,0.013,-0.895,0.405,-12.891555,7.9641161999999985,-0.9167328,106.86812616,-0.42398892,-50.5921914
2.5799999999999996,258,0.002,-0.91,0.433,-15.3552744,10.9434978,-3.6669312000000014,106.70769792,-0.42398892,-50.47759979999999
2.59,259,-0.013,-0.926,0.414,-17.5325148,14.610429000000002,-4.9847345999999995,106.52435136,-0.42398892,-50.32863072
2.5999999999999996,260,-0.033,-0.957,0.38,-15.2979786,12.7196676,-5.3858052,106.3696527,-0.41252976,-50.19685038
2.61,261,-0.022,-0.971,0.364,-17.303331600000003,7.6776372,-7.1046792000000005,106.22068362,-0.3724227000000001,-50.11090668000001
2.6199999999999997,262,-0.02,-0.962,0.371,-17.303331600000003,3.8961144,-8.078707799999998,106.04879622,-0.30939732,-50.05361088
2.63,263,-0.035,-0.961,0.3720000000000001,-17.18874,2.578311,-8.4224826,105.87117924000002,-0.23491278,-50.00777424
2.6399999999999997,264,-0.064,-0.965,0.366,-17.4179232,2.9220857999999996,-8.136003599999999,105.69356226,-0.16615782,-49.95620802
2.65,265,-0.106,-0.989,0.361,-19.767051,6.6463128000000005,-8.136003599999999,105.49302696,-0.10886202,-49.87599390000001
2.6599999999999997,266,-0.126,-1.004,0.349,-23.14750320000001,15.3552744,-8.021412000000002,105.26957334,-0.11459160000000004,-49.70983608
2.67,267,-0.114,-1.006,0.335,-24.923673,20.168121600000006,-6.4744254,105.01174224,-0.11459160000000004,-49.5035712
2.6799999999999997,268,-0.081,-1.002,0.33,-25.4393352,19.4232762,-4.6409598,104.74818156,-0.12605075999999998,-49.30876548
2.69,269,-0.038,-0.997,0.327,-25.496631,16.1001198,-2.9220857999999996,104.49035046,-0.14323950000000002,-49.15406682
2.6999999999999997,270,-0.006999999999999999,-1.002,0.322,-25.9549974,12.891555,-2.1199446,104.22106020000001,-0.16042824,-49.02801606000001
2.71,271,0.015,-0.998,0.32299999999999995,-27.3873924,10.7716104,-2.1199446,103.96895868,-0.15469866,-48.9306132
2.7199999999999998,272,0.029,-0.977,0.332,-28.361421000000004,8.5370742,-2.3491278,103.6767501,-0.15469866,-48.8446695
2.73,273,0.029,-0.971,0.327,-28.762491600000004,6.6463128000000005,-3.7815227999999994,103.38454152,-0.13750992,-48.77591454
2.7399999999999998,274,0.017,-0.977,0.337,-30.1375908,6.417129599999999,-5.958763200000001,103.0751442,-0.09740286,-48.70143
2.75,275,0.003,-0.985,0.34,-32.7731976,7.448453999999999,-7.6203414,102.74282856,-0.04010706,-48.62121588000001
2.76,276,-0.008,-0.99,0.348,-35.8671708,6.875496000000001,-8.479778399999999,102.4162425,0.01718874,-48.54100175999999
2.77,277,-0.008,-0.981,0.364,-38.90384820000001,3.0366774,-8.3651868,102.02090148,0.0859437,-48.5008947
2.78,278,-0.002,-0.973,0.344,-39.820581,-2.5210152000000003,-7.5630456000000015,101.61410129999999,0.16615782,-48.51235386000001
2.79,279,0.005,-0.969,0.294,-38.7319608,-6.8182002000000015,-6.2452422,101.22448986,0.24064236,-48.57537924
2.8,280,0.024,-0.967,0.248,-37.0130868,-8.651665800000002,-5.042030400000002,100.84633758,0.30366774,-48.64986378
2.81,281,0.048,-0.962,0.233,-35.7525792,-9.3965112,-4.0680017999999984,100.4968332,0.38388186,-48.74726663999999
2.82,282,0.071,-0.956,0.232,-34.262888399999994,-11.1153852,-3.7815227999999994,100.14732882,0.44117766,-48.85039908
2.8299999999999996,283,0.08,-0.955,0.227,-32.830493399999995,-12.9488508,-4.2398892,99.81501318,0.5042030399999999,-48.97072026
2.84,284,0.079,-0.958,0.221,-32.4294228,-14.4385416,-5.042030400000002,99.48842712,0.5844171599999999,-49.10823018
2.8499999999999996,285,0.07200000000000001,-0.953,0.209,-32.7731976,-15.813640800000002,-5.9014674000000005,99.15611148,0.6703608600000001,-49.25719926
2.86,286,0.053,-0.95,0.196,-32.085648000000006,-17.8189938,-6.8182002000000015,98.835255,0.7792228800000001,-49.42335708
2.8699999999999997,287,0.03,-0.947,0.191,-31.2835068,-19.9962342,-7.333862400000001,98.5201281,0.8823553199999999,-49.61243322
2.88,288,0.002,-0.945,0.194,-29.8511118,-21.199446,-7.333862400000001,98.21646036,0.9912173399999998,-49.81296852000001
2.8899999999999997,289,-0.017,-0.949,0.185,-28.4187168,-19.3659804,-6.9327918,97.92425178,1.0886202,-49.99631508
2.9,290,-0.021,-0.962,0.17,-27.6165756,-15.9282324,-6.0733548,97.64350236,1.1745638999999999,-50.14528416
2.9099999999999997,291,-0.018000000000000002,-0.969,0.16,-26.8717302,-14.7250206,-4.8701430000000006,97.3742121,1.2318597,-50.28279408
2.92,292,-0.008,-0.975,0.156,-25.8977016,-14.5531332,-3.5523396000000003,97.11065142,1.28342592,-50.42603358
2.9299999999999997,293,0.0,-0.983,0.142,-25.210152,-14.0947668,-2.4064236,96.85282032,1.32926256,-50.5635435
2.94,294,0.003,-0.988,0.133,-24.4653066,-13.980175199999998,-1.4896908000000002,96.6007188,1.36364004,-50.70105342
2.9499999999999997,295,0.003,-0.99,0.128,-23.777757,-14.2093584,-0.8594370000000001,96.36007644,1.38655836,-50.84429292
2.96,296,0.0,-0.989,0.124,-23.032911600000002,-13.8082878,-0.6302538000000001,96.12516366,1.4037471,-50.98180284
2.9699999999999998,297,-0.006,-0.989,0.119,-22.2880662,-12.891555,-0.572958,95.89598046,1.4209358399999998,-51.10785360000001
2.98,298,-0.012,-0.988,0.114,-22.058883,-11.8029348,-0.572958,95.66679726,1.44385416,-51.22817478
2.9899999999999998,299,-0.016,-0.988,0.113,-22.1161788,-10.6570188,-0.4583664000000001,95.44334364,1.4610428999999998,-51.33130722
3.0,300,-0.017,-0.99,0.105,-22.2880662,-9.3965112,-0.3437748,95.21416044,1.47250206,-51.42871008000001
3.01,301,-0.017,-0.994,0.101,-22.459953600000002,-8.078707799999998,-0.286479,94.97924766,1.4610428999999998,-51.5089242
3.02,302,-0.016,-0.999,0.101,-22.91832,-7.0473834,-0.2291832000000001,94.75006446,1.47250206,-51.57767916
3.03,303,-0.015,-1.0,0.099,-23.3193906,-6.2452422,-0.286479,94.5094221,1.4782316400000002,-51.64070454
3.04,304,-0.013,-1.001,0.099,-23.6631654,-5.2139178,-0.4583664000000001,94.26877974,1.4896908000000002,-51.69800034
3.05,305,-0.011,-0.997,0.094,-24.0069402,-3.724227,-0.572958,94.0224078,1.49542038,-51.7381074
3.06,306,-0.006999999999999999,-0.991,0.086,-23.5485738,-3.0939732,-0.6875496,93.78176544,1.48396122,-51.76675529999999
3.07,307,-0.004,-0.984,0.086,-22.5172494,-2.7501984,-0.9167328,93.55258224,1.49542038,-51.7954032
3.08,308,0.002,-0.981,0.08900000000000001,-21.2567418,-2.5210152000000003,-0.9167328,93.34058778,1.50687954,-51.8240511
3.09,309,0.006999999999999999,-0.981,0.08800000000000001,-19.8243468,-2.6929026,-0.8594370000000001,93.1343229,1.5183387000000002,-51.85269900000001
3.0999999999999996,310,0.009000000000000001,-0.98,0.085,-18.7930224,-2.6929026,-0.8594370000000001,92.94524676,1.52406828,-51.8813469
3.11,311,0.003,-0.987,0.076,-17.9335854,-2.8074942000000003,-0.8021411999999999,92.76762978,1.5183387000000002,-51.90426521999999
3.1199999999999997,312,-0.006,-0.99,0.077,-17.4179232,-2.1772404,-1.0886202,92.5900128,1.52979786,-51.93291312
3.13,313,-0.011,-0.99,0.076,-16.7876694,-0.3437748,-1.3750992,92.4181254,1.5412570200000002,-51.93291312
3.1399999999999997,314,-0.016,-0.992,0.069,-16.2147114,1.4896908000000002,-1.432395,92.25196758,1.5527161800000002,-51.92145396
3.15,315,-0.019,-0.993,0.064,-15.6990492,2.6356068,-1.2605076000000002,92.09726892,1.56417534,-51.89853564
3.1599999999999997,316,-0.023,-0.986,0.062,-14.8396122,3.380452200000001,-0.8021411999999999,91.94829984,1.52406828,-51.85842858
3.17,317,-0.023,-0.981,0.062,-13.8082878,4.297185,-0.286479,91.81078992,1.52406828,-51.81832152000001
3.1799999999999997,318,-0.017,-0.971,0.063,-12.7196676,4.9847345999999995,0.286479,91.68473916,1.5183387000000002,-51.76675529999999
3.19,319,-0.013,-0.965,0.062,-11.2872726,5.1566220000000005,0.8021411999999999,91.57014756,1.50687954,-51.72091866
3.1999999999999997,320,-0.004,-0.966,0.06,-9.9121734,5.2139178,1.2605076000000002,91.46701512,1.4896908000000002,-51.66935244
3.21,321,0.003,-0.971,0.058,-8.7089616,5.1566220000000005,1.3178034,91.39253058,1.45531332,-51.617786220000006
3.2199999999999998,322,0.013,-0.971,0.054000000000000006,-8.021412000000002,4.9274388,0.9167328,91.31231646,1.44385416,-51.57194958
3.23,323,0.02,-0.972,0.05,-7.333862400000001,4.583664,0.6875496,91.23783192,1.43812458,-51.52611294
3.2399999999999998,324,0.023,-0.97,0.052000000000000005,-6.6463128000000005,4.1825934,0.4010706,91.16907696,1.42666542,-51.48600588000001
3.25,325,0.025,-0.967,0.059,-5.72958,3.4950437999999995,0.11459160000000004,91.11178116,1.42666542,-51.4516284
3.26,326,0.027000000000000003,-0.966,0.062,-4.583664,2.6929026,0.11459160000000004,91.11751074,1.44385416,-51.42871008000001
3.27,327,0.022,-0.97,0.061,-3.2085648,1.3750992,0.1718874,91.08313326,1.43812458,-51.41725092
3.28,328,0.014,-0.98,0.066,-2.1772404,0.8021411999999999,0.0,91.06594452,1.43812458,-51.41152134
3.29,329,0.013,-0.991,0.069,-1.8907613999999997,1.0313244,-0.11459160000000004,91.0430262,1.43812458,-51.40006218
3.3,330,0.009000000000000001,-0.993,0.07200000000000001,-1.6042823999999998,1.145916,-0.1718874,91.02583746,1.43812458,-51.38860301999999
3.31,331,0.008,-1.0,0.067,-1.0886202,1.145916,-0.286479,91.19199528,1.35218088,-51.37141428
3.32,332,0.002,-1.006,0.061,-0.9740286,0.2291832000000001,-0.057295800000000015,91.18053612,1.35218088,-51.37141428
3.33,333,-0.006999999999999999,-1.008,0.066,-0.8594370000000001,-1.0313244,0.11459160000000004,91.16907696,1.35218088,-51.38287344
3.34,334,-0.01,-1.009,0.071,-0.8021411999999999,-1.3178034,0.286479,91.16334738,1.3464512999999998,-51.39433260000001
3.3499999999999996,335,-0.01,-1.011,0.07400000000000001,-0.7448454000000001,-1.6042823999999998,0.4583664000000001,91.15188822,1.3464512999999998,-51.41152134
3.36,336,-0.008,-1.011,0.071,-1.145916,-1.6615782,0.286479,91.28939814,1.22040054,-51.41725092
3.3699999999999997,337,-0.009000000000000001,-1.005,0.071,-0.6875496,-1.5469866,0.0,91.27793898,1.22040054,-51.43443966
3.38,338,-0.015,-1.002,0.062,-0.572958,-1.0886202,-0.4010706,91.2722094,1.22613012,-51.44589881999999
3.3899999999999997,339,-0.026,-0.999,0.049,-1.0313244,-0.9740286,-0.9167328,91.26075024,1.23758928,-51.45735798
3.4,340,-0.034,-0.992,0.052000000000000005,-1.6615782,-0.6875496,-1.432395,91.2435615,1.24904844,-51.46308756
3.4099999999999997,341,-0.028,-0.985,0.066,-0.6875496,0.286479,-1.7188740000000002,91.37534184,1.0255948199999998,-51.42871008000001
3.42,342,-0.034,-0.99,0.054000000000000006,-0.1718874,0.572958,-1.4896908000000002,91.36961226,1.04278356,-51.4229805
3.4299999999999997,343,-0.033,-0.979,0.057,0.11459160000000004,1.7761698,-1.6615782,91.36961226,1.05424272,-51.40579176
3.44,344,-0.022,-0.977,0.064,2.2345362,3.8961144,-1.9480572,91.39253058,1.07143146,-51.3656847
3.4499999999999997,345,-0.021,-0.971,0.056,3.380452200000001,5.042030400000002,-2.3491278,91.43263764,1.09434978,-51.31411848000001
3.46,346,-0.012,-0.955,0.064,5.1566220000000005,5.9014674000000005,-2.6929026,91.5013926,1.10007936,-51.25109310000001
3.4699999999999998,347,-0.008,-0.953,0.065,6.990087599999999,5.0993262,-2.86479,91.57014756,1.12299768,-51.19952688
3.48,348,-0.009000000000000001,-0.958,0.066,8.880849000000003,4.297185,-3.0366774,91.66182084,1.15164558,-51.15369024
3.4899999999999998,349,-0.001,-0.973,0.058,9.9121734,4.9274388,-3.4377480000000005,91.76495328,1.18602306,-51.10212402000001
3.5,350,0.005,-0.978,0.058,10.4851314,4.7555514,-3.7815227999999994,91.8738153,1.22040054,-51.0505578
3.51,351,0.013,-0.973,0.069,11.229976800000001,3.380452200000001,-3.4950437999999995,91.99986606,1.25477802,-51.0219099
3.52,352,0.016,-0.972,0.077,13.0061466,0.572958,-2.5210152000000003,92.1316464,1.28342592,-51.01045074
3.53,353,0.018000000000000002,-0.991,0.078,14.896907999999998,-1.3750992,-2.2345362,92.28634506,1.30634424,-51.0219099
3.54,354,0.018000000000000002,-0.997,0.08900000000000001,14.9542038,0.0,-2.578311,92.43531414,1.3349921400000002,-51.0219099
3.55,355,0.02,-0.991,0.08900000000000001,15.0114996,0.3437748,-2.3491278,92.5900128,1.3579104599999998,-51.01045074
3.56,356,0.019,-0.994,0.08900000000000001,16.1001198,-0.6302538000000001,-2.1772404,92.76762978,1.38082878,-51.01618032
3.57,357,0.021,-1.004,0.09,16.329303,-0.7448454000000001,-2.4064236,92.93378759999999,1.40947668,-51.0219099
3.58,358,0.021,-1.007,0.095,16.4438946,-0.6875496,-2.6356068,93.09994542,1.43812458,-51.02763948000001
3.59,359,0.022,-1.002,0.102,16.902261,-1.3178034,-2.578311,93.27183282,1.46677248,-51.03336906
3.5999999999999996,360,0.02,-0.997,0.106,17.0168526,-2.4064236,-2.1199446,93.44372022,1.4896908000000002,-51.05628738
3.61,361,0.01,-1.0,0.105,17.589810600000003,-4.1825934,-1.5469866,93.63852594,1.50114996,-51.09639444
3.6199999999999997,362,0.003,-1.005,0.106,17.3606274,-4.1825934,-1.2605076000000002,93.81041334,1.5183387000000002,-51.13077192
3.63,363,-0.002,-1.003,0.112,17.0741484,-4.0680017999999984,-1.2605076000000002,93.98230074,1.53552744,-51.17087898
3.6399999999999997,364,-0.003,-0.994,0.122,17.18874,-3.8388186,-1.3178034,94.15991772,1.5527161800000002,-51.20525646
3.65,365,-0.003,-0.989,0.127,17.7044022,-3.4950437999999995,-1.5469866,94.3375347,1.5756344999999998,-51.23390436
3.6599999999999997,366,-0.006,-0.986,0.129,17.9908812,-2.9220857999999996,-1.9480572,94.54379958,1.5813640800000002,-51.26255225999999
3.67,367,-0.009000000000000001,-0.983,0.131,17.9335854,-1.8907613999999997,-2.578311,94.72141656,1.61001198,-51.27401142
3.6799999999999997,368,-0.006999999999999999,-0.979,0.135,17.9335854,-0.8021411999999999,-2.9220857999999996,94.90476312,1.6386598799999998,-51.279741
3.69,369,-0.006,-0.974,0.138,17.9908812,-0.057295800000000015,-2.9220857999999996,95.08810968,1.67303736,-51.27401142
3.6999999999999997,370,-0.005,-0.967,0.14300000000000002,18.449247600000003,0.057295800000000015,-2.8074942000000003,95.27718582,1.70168526,-51.26828184
3.71,371,-0.002,-0.97,0.14400000000000002,19.0795014,0.286479,-2.578311,95.48918028,1.7074148399999998,-51.25682267999999
3.7199999999999998,372,0.0,-0.978,0.146,19.1367972,0.9167328,-2.578311,95.683986,1.73606274,-51.24536352
3.73,373,0.0,-0.983,0.139,18.907614000000002,1.7188740000000002,-2.6929026,95.87879172,1.75898106,-51.2224452
3.7399999999999998,374,-0.004,-0.975,0.138,19.4232762,1.5469866,-2.9793816000000004,96.07359744,1.7933585399999998,-51.19952688
3.75,375,0.006999999999999999,-0.961,0.166,22.2307704,3.0939732,-3.6096354,96.30278064,1.82200644,-51.1651494
3.76,376,0.018000000000000002,-0.976,0.165,24.1788276,4.583664,-3.8961144,96.56061174,1.85638392,-51.11358317999999
3.77,377,0.03,-0.971,0.155,24.2361234,4.8701430000000006,-3.9534102,96.80698368,1.8907613999999997,-51.05628738
3.78,378,0.038,-0.96,0.156,24.9809688,5.5576926,-4.1825934,97.06481478,1.92513888,-50.993262
3.79,379,0.037000000000000005,-0.95,0.166,26.1268848,6.589017,-4.4690724,97.32837546,1.9595163600000003,-50.91877746
3.8,380,0.03,-0.944,0.163,27.7311672,6.9327918,-4.9274388,97.61485446,1.99962342,-50.84429292
3.81,381,0.016,-0.947,0.16899999999999998,29.2781538,8.021412000000002,-6.130650599999999,97.9185222,2.04546006,-50.75261964
3.82,382,0.012,-0.954,0.16899999999999998,30.1375908,10.313244,-7.5630456000000015,98.22791952,2.10275586,-50.63802804
3.83,383,0.008,-0.957,0.183,30.9970278,11.229976800000001,-8.307891,98.54304642,2.1657812400000003,-50.51197728
3.84,384,0.008,-0.96,0.19,31.971056400000002,12.0894138,-8.8235532,98.87536206,2.2345362,-50.37446736
3.8499999999999996,385,0.02,-0.961,0.207,33.0596766,13.521808800000002,-9.0527364,99.21340727999998,2.30329116,-50.22549828
3.86,386,0.032,-0.967,0.21,34.5493674,12.4904844,-8.307891,99.57437082,2.36058696,-50.08798836
3.8699999999999997,387,0.037000000000000005,-0.981,0.214,35.4088044,10.4278356,-8.078707799999998,99.93533436,2.42361234,-49.96766718
3.88,388,0.044,-0.978,0.224,35.46610020000001,10.1986524,-8.4224826,100.30202748,2.48663772,-49.847346
3.8899999999999997,389,0.04,-0.974,0.232,36.1536498,10.7143146,-9.2819196,100.67445018,2.55539268,-49.72129524
3.9,390,0.019,-0.983,0.231,37.0130868,11.229976800000001,-10.886202,101.05260246,2.6413363800000003,-49.5895149
3.9099999999999997,391,-0.006,-1.004,0.22,36.6120162,12.261301199999998,-12.9488508,101.43075474,2.72728008,-49.43481624
3.92,392,-0.03,-0.997,0.245,35.3515086,14.0947668,-14.495837400000001,101.79744786,2.84187168,-49.26865842
3.9299999999999997,393,-0.031,-0.986,0.26,34.8358464,18.8503182,-15.5844576,102.1584114,2.9507337,-49.04520480000001
3.94,394,-0.024,-0.983,0.267,34.4920716,22.459953600000002,-16.1001198,102.51937494,3.05386614,-48.79310328
3.9499999999999997,395,-0.021,-0.994,0.266,33.74722620000001,25.1528562,-16.8449652,102.8746089,3.15699858,-48.50662428
3.96,396,-0.018000000000000002,-0.999,0.269,32.6013102,26.5279554,-17.3606274,103.2183837,3.2486718599999995,-48.20868612
3.9699999999999998,397,-0.011,-0.999,0.27,31.913760600000003,26.069589,-17.18874,103.55642892,3.3518043,-47.91647754
3.98,398,-0.006999999999999999,-1.008,0.263,30.93973200000001,24.4653066,-16.8449652,103.88301498,3.4492071599999994,-47.63572812
3.9899999999999998,399,-0.006,-1.012,0.249,29.507337,22.058883,-16.4438946,104.19814188,3.5523396000000003,-47.3836266
4.0,400,-0.011,-1.005,0.253,28.0176462,20.626488,-16.329303,104.49035046,3.65547204,-47.14298424
4.01,401,-0.009000000000000001,-0.986,0.28300000000000003,25.6685184,21.485925,-16.7876694,104.77109988,3.74141574,-46.88515314
4.02,402,-0.006,-0.978,0.289,24.694489800000003,23.2620948,-17.4179232,105.03466056,3.84454818,-46.61586288
4.03,403,-0.005,-0.983,0.306,23.3193906,24.350715,-18.449247600000003,105.28676208000002,3.9534102,-46.33511346
4.04,404,-0.006,-0.983,0.333,22.2307704,24.4080108,-19.4232762,105.52740443999998,4.0680017999999984,-46.04863446
4.05,405,-0.012,-1.001,0.328,20.6837838,22.5172494,-20.340009,105.75658764,4.19978214,-45.779344200000004
4.06,406,-0.021,-1.033,0.313,18.7357266,18.334656,-20.798375399999998,105.95712294,4.320103319999999,-45.53870184
4.07,407,-0.026,-1.0659999999999998,0.312,15.9282324,16.272007199999994,-21.3713334,106.13473992000002,4.4748019800000005,-45.3209778
4.08,408,-0.014,-1.052,0.33,11.8602306,16.7876694,-21.9442914,106.27224984,4.63523022,-45.10325376
4.09,409,0.004,-1.012,0.338,8.5370742,15.2979786,-22.058883,106.3696527,4.80138804,-44.8912593
4.1,410,0.024,-0.998,0.358,8.193299399999999,12.891555,-22.4026578,106.46705556,4.97327544,-44.70791274
4.109999999999999,411,0.042,-0.977,0.392,6.1879464,10.1986524,-22.86102420000001,106.57591757999998,5.14516284,-44.54175492
4.12,412,0.05,-0.956,0.415,4.8128472,7.6776372,-23.777757,106.63894295999998,5.3456981400000005,-44.404245
4.13,413,0.056,-0.942,0.421,4.297185,5.9014674000000005,-24.694489800000003,106.69050917999998,5.56342218,-44.27246466
4.14,414,0.049,-0.955,0.396,4.5263682,3.5523396000000003,-25.3820394,106.74780498,5.79260538,-44.16360264
4.1499999999999995,415,0.04,-0.97,0.385,3.380452200000001,2.4064236,-25.9549974,106.79364162,6.0332477399999975,-44.06619978
4.16,416,0.018000000000000002,-0.957,0.423,2.6356068,0.6302538000000001,-26.41336380000001,106.8853149,6.2337830400000005,-43.98025608
4.17,417,0.0,-0.942,0.428,1.3178034,1.8334656000000005,-27.444688199999998,106.9139628,6.49161414,-43.87712364
4.18,418,-0.006,-0.957,0.419,-0.4583664000000001,7.0473834,-28.5333084,106.91969238,6.7379860800000015,-43.72815455999999
4.1899999999999995,419,-0.006999999999999999,-0.961,0.421,-3.6096354,11.45916,-29.9657034,106.90823322,6.990087599999999,-43.53334884
4.2,420,0.0,-0.94,0.423,-5.3858052,12.318597,-30.9970278,106.87385574,7.242189120000001,-43.32708396
4.21,421,0.021,-0.925,0.42,-5.6149884000000005,11.6310474,-31.2835068,106.87958532,7.47137232,-43.12081908
4.22,422,0.035,-0.941,0.401,-6.0733548,10.9434978,-31.3980984,106.83947826,7.7349330000000025,-42.92601336
4.2299999999999995,423,0.036000000000000004,-0.957,0.403,-8.250595200000001,9.6256944,-31.22621100000001,106.77645288,8.00422326,-42.7426668
4.24,424,0.037000000000000005,-0.964,0.395,-11.172681,7.448453999999999,-30.4813656,106.68477959999998,8.26778394,-42.58223856
4.25,425,0.066,-0.977,0.409,-14.7250206,6.6463128000000005,-30.0229992,106.55872884,8.5370742,-42.43899906
4.26,426,0.099,-0.98,0.4270000000000001,-17.18874,6.3025379999999975,-29.8511118,106.43267808,8.78917572,-42.29002998
4.27,427,0.129,-0.988,0.416,-19.308684600000007,4.7555514,-29.7365202,106.2550611,9.0527364,-42.16397922
4.28,428,0.153,-0.999,0.413,-21.4286292,2.0626488000000003,-29.9657034,106.04879622,9.33348582,-42.06084678000001
4.29,429,0.162,-0.998,0.441,-22.173474600000002,2.6356068,-31.971056400000002,105.84253134,9.63142398,-41.95198476
4.3,430,0.17600000000000002,-1.002,0.456,-23.032911600000002,3.4950437999999995,-34.1482968,105.63053688,9.94655088,-41.825934000000004
4.31,431,0.188,-0.998,0.4320000000000001,-23.8923486,0.0,-34.950438,105.43000158,10.27886652,-41.73426072
4.32,432,0.189,-1.006,0.412,-25.1528562,-4.6982556,-34.7212548,105.17790006,10.62264132,-41.68842408
4.33,433,0.17,-1.009,0.403,-27.788463,-9.568398599999998,-34.8358464,104.89715064,10.98360486,-41.69415366
4.34,434,0.146,-1.008,0.396,-30.252182399999995,-10.599723,-35.2942128,104.58775332,11.35029798,-41.70561282
4.35,435,0.152,-1.003,0.398,-32.257535399999995,-8.9954406,-35.7525792,104.26116726,11.7169911,-41.70561282
4.36,436,0.193,-1.013,0.382,-33.9191136,-12.7769634,-35.46610020000001,103.92312204,12.0894138,-41.74571988
4.37,437,0.24,-1.021,0.39,-35.5806918,-22.6891368,-34.950438,103.5335106,12.48475482,-41.88895938
4.38,438,0.248,-1.009,0.393,-38.1590028,-29.335449600000004,-35.17962120000001,103.1037921,12.89728458,-42.09522426
4.39,439,0.234,-1.012,0.371,-39.7059894,-29.0489706,-35.9817624,102.65688486000002,13.31554392,-42.30721872
4.3999999999999995,440,0.197,-1.033,0.394,-41.8832298,-28.0176462,-37.41415739999999,102.18705930000002,13.73953284,-42.50202444
4.41,441,0.162,-1.037,0.39,-43.8885828,-27.7311672,-38.38818600000001,101.71723374,14.16352176,-42.69683016000001
4.42,442,0.138,-1.039,0.3720000000000001,-44.06047020000001,-29.392745399999995,-37.9298196,101.21876028,14.59896984,-42.92028378
4.43,443,0.14,-1.043,0.336,-45.550161,-30.8251404,-36.7839036,100.6973685,15.01722918,-43.16092614
4.4399999999999995,444,0.187,-1.038,0.313,-46.352302200000004,-32.486718599999996,-34.950438,100.15878798,15.42402936,-43.42448682
4.45,445,0.238,-1.043,0.315,-46.4668938,-37.24227,-33.002380800000005,99.60874830000002,15.81937038,-43.745343299999995
4.46,446,0.273,-1.052,0.333,-47.9565846,-40.966497,-31.6845774,99.0357903,16.197522659999994,-44.11203642
4.47,447,0.299,-1.06,0.341,-50.420304,-40.8519054,-31.1689152,98.42845481999998,16.57567494,-44.48445912
4.4799999999999995,448,0.321,-1.069,0.335,-52.8840234,-40.5654264,-31.22621100000001,97.78674186,16.94809764,-44.85688182
4.49,449,0.317,-1.0659999999999998,0.355,-56.0352924,-42.7426668,-31.3980984,97.10492184,17.32052034,-45.25795242
4.5,450,0.279,-1.05,0.333,-58.2698286,-43.8885828,-31.913760600000003,96.39445392000002,17.69294304,-45.67621176
4.51,451,0.263,-1.041,0.33,-60.67625219999999,-40.5654264,-32.372127,95.683986,18.05390658,-46.06009362
4.52,452,0.271,-1.035,0.302,-61.5356892,-43.831287,-31.1689152,94.92768144,18.409140540000006,-46.48981212
4.53,453,0.301,-1.044,0.273,-62.9107884,-48.5868384,-29.7365202,94.14272898,18.75291534,-46.97682642
4.54,454,0.349,-1.047,0.277,-65.4318036,-48.6441342,-29.0489706,93.32339904,19.0795014,-47.4695703
4.55,455,0.388,-1.057,0.294,-67.3798608,-51.2224452,-28.304125199999998,92.4754212,19.3946283,-47.99669166
4.56,456,0.408,-1.0759999999999998,0.321,-70.8176088,-48.7587258,-27.501984000000004,91.61025462,19.69256646,-48.5008947
4.57,457,0.418,-1.054,0.309,-74.42724419999998,-43.7166954,-26.929026,90.70498098,19.97904546,-48.959261100000006
4.58,458,0.412,-1.031,0.284,-76.7190762,-45.6074568,-26.41336380000001,89.76532986,20.24833572,-49.44627540000001
4.59,459,0.418,-1.021,0.285,-80.21412,-43.0291458,-26.814434400000003,88.79130126,20.5118964,-49.91610096
4.6,460,0.446,-1.001,0.277,-80.1568242,-41.3675676,-27.3873924,87.82300224,20.78118666,-50.36873778
4.61,461,0.481,-0.994,0.236,-76.54718879999999,-49.274388,-26.69984280000001,86.87762153999998,21.03901776,-50.90731829999999
4.62,462,0.517,-1.005,0.189,-74.2553568,-58.72819499999999,-25.0955604,85.89786336,21.26247138,-51.55476083999999
4.63,463,0.528,-0.973,0.198,-77.40662579999999,-56.78013780000001,-24.7517856,84.88945728,21.46873626,-52.19074422
4.64,464,0.499,-0.911,0.146,-78.49524600000002,-51.4516284,-25.7258142,83.88678078000002,21.68073072,-52.76943180000001
4.6499999999999995,465,0.435,-0.9,0.121,-79.4119788,-44.6334282,-27.9603504,82.89556344,21.90991392,-53.285094
4.66,466,0.388,-0.938,0.14,-80.78707800000002,-36.32553720000001,-29.2781538,81.94445316,22.15628586,-53.71481250000001
4.67,467,0.373,-0.974,0.113,-81.47462759999998,-35.122325399999994,-28.304125199999998,80.95896540000003,22.38546906,-54.13880142000001
4.68,468,0.381,-0.983,0.094,-81.18814859999998,-37.9298196,-26.642547,79.96201848,22.58600436,-54.59716782
4.6899999999999995,469,0.433,-0.987,0.093,-81.53192340000003,-39.820581,-25.210152,78.95934198,22.76362134,-55.07845254
4.7,470,0.5489999999999999,-0.953,0.052000000000000005,-80.90166959999998,-34.8358464,-24.4653066,77.97385421999998,22.92977916,-55.50817104
4.71,471,0.677,-0.924,0.022,-79.92764100000002,-32.945085,-23.3193906,77.02847352,23.1188553,-55.91497122000001
4.72,472,0.69,-0.8809999999999999,0.062,-80.44330319999997,-34.262888399999994,-23.5485738,76.04871534,23.26782438,-56.34468972
4.7299999999999995,473,0.628,-0.87,0.009000000000000001,-82.1621772,-35.2942128,-23.4339822,75.04030925999999,23.41106388,-56.78586738
4.74,474,0.583,-0.899,-0.06,-81.932994,-39.534102,-21.5432208,74.02044402,23.51419632,-57.2671521
4.75,475,0.5579999999999999,-0.932,-0.095,-82.67783940000002,-41.4821592,-18.449247600000003,72.98911962000003,23.57722170000001,-57.76562556
4.76,476,0.564,-0.917,-0.211,-86.05829159999998,-42.97185,-15.9282324,71.92341774,23.61159918,-58.2698286
4.77,477,0.5479999999999999,-0.983,-0.264,-86.1728832,-46.5241896,-15.2406828,70.84052712,23.61159918,-58.80840912
4.78,478,0.5870000000000001,-1.036,-0.3720000000000001,-89.38144799999998,-46.4668938,-15.2406828,69.72325902,23.60014002,-59.35271922
4.79,479,0.669,-1.018,-0.383,-81.932994,-52.82672760000001,-15.3552744,68.65182755999999,23.56003296,-59.95432512
4.8,480,0.705,-1.0759999999999998,-0.388,-72.82296179999999,-59.98870260000001,-16.7303736,67.64915106,23.50273716,-60.63614514
4.81,481,0.677,-1.145,-0.457,-75.2866812,-61.8221682,-20.8556712,66.6063675,23.46835968,-61.35234264
4.82,482,0.63,-1.203,-0.573,-74.1407652,-64.8588456,-24.1788276,65.56358394,23.4339822,-62.10864719999999
4.83,483,0.516,-1.247,-0.662,-77.2920342,-60.5616606,-29.335449600000004,64.49215248,23.45117094,-62.84776302
4.84,484,0.387,-1.239,-0.62,-77.0055552,-49.2170922,-37.81522800000001,63.44936892,23.57722170000001,-63.51812388
4.85,485,0.304,-1.18,-0.639,-73.3959198,-42.5707794,-47.841993,62.44669242,23.81213448,-64.171296
4.86,486,0.315,-1.099,-0.715,-72.0208206,-44.5761324,-57.00932099999999,61.41536802,24.098613480000004,-64.89895265999999
4.87,487,0.441,-1.146,-0.753,-68.01011460000001,-46.5241896,-65.2026204,60.40123236,24.44238828,-65.69536428
4.88,488,0.5579999999999999,-1.217,-0.764,-69.0987348,-45.6647526,-73.911582,59.35271922,24.85491804,-66.53761254
4.89,489,0.579,-1.231,-0.76,-72.70837019999998,-44.06047020000001,-79.1254998,58.25263986,25.30182528000001,-67.4085087
4.8999999999999995,490,0.5529999999999999,-1.203,-0.7559999999999999,-75.8023434,-39.247623,-83.1362058,57.11245344,25.79456916,-68.27367527999999
4.91,491,0.509,-1.193,-0.738,-79.18279559999998,-35.46610020000001,-87.1469118,55.93215996,26.315960940000004,-69.13311228
4.92,492,0.452,-1.152,-0.7190000000000001,-83.8810512,-33.3461556,-90.1262934,54.69457067999999,26.86027104,-70.0154676
4.93,493,0.423,-1.113,-0.746,-88.12094040000002,-34.091001,-92.4754212,53.38249686,27.404581140000005,-70.93792998
4.9399999999999995,494,0.414,-1.0759999999999998,-0.705,-91.1576178,-31.741873200000004,-94.1942952,52.0245864,27.954620819999995,-71.86612194
4.95,495,0.416,-0.994,-0.6459999999999999,-93.965112,-29.507337,-94.53806999999999,50.63229846,28.49893092000001,-72.80004348
4.96,496,0.4370000000000001,-0.927,-0.6509999999999999,-96.25694399999999,-29.67922440000001,-93.392154,49.20563304,29.00886354,-73.73969459999998
4.97,497,0.48,-0.87,-0.6709999999999999,-103.3616232,-26.298772200000002,-92.9910834,47.70448308,29.51879616,-74.67361614000002
4.9799999999999995,498,0.486,-0.833,-0.599,-108.4609494,-23.6058696,-92.8764918,46.14603732,30.02872878,-75.60180809999999
4.99,499,0.453,-0.8,-0.54,-112.4143596,-22.2880662,-92.4181254,44.53029576,30.51574308,-76.53572964
5.0,500,0.398,-0.763,-0.49,-117.8574606,-20.6837838,-92.13164640000001,42.8572584,30.99129822,-77.47538076
5.01,501,0.385,-0.715,-0.504,-121.1233212,-21.772404,-91.2722094,41.14984356,31.41528714,-78.42649104
5.02,502,0.371,-0.635,-0.496,-125.9934642,-23.4339822,-88.69389840000002,39.3622146,31.799169,-79.40051964
5.03,503,0.327,-0.5579999999999999,-0.504,-130.0041702,-20.626488,-86.34477059999998,37.54020816,32.16013254,-80.34590034
5.04,504,0.344,-0.524,-0.466,-133.8429888,-15.756345000000001,-87.83446140000002,35.67809466,32.53828482,-81.28555146
5.05,505,0.34600000000000003,-0.489,-0.507,-135.16079219999997,-15.4125702,-91.2722094,33.77014452,32.9164371,-82.2767688
5.06,506,0.363,-0.42,-0.468,-136.1348208,-18.1054728,-93.50674559999999,31.8278169,33.25448232,-83.32528194
5.07,507,0.385,-0.402,-0.424,-135.96293340000003,-17.9335854,-95.7412818,29.84538222,33.575338800000004,-84.41390214
5.08,508,0.455,-0.362,-0.429,-135.16079219999997,-22.173474600000002,-96.4288314,27.84575880000001,33.82744032,-85.54835898
5.09,509,0.494,-0.326,-0.397,-130.5771282,-31.1689152,-94.824549,25.86332412,33.97067982,-86.73438204
5.1,510,0.551,-0.264,-0.401,-127.88422560000001,-35.695283399999994,-92.6473086,23.89807818,34.02224604,-87.92613467999998
5.11,511,0.562,-0.204,-0.394,-123.93081540000001,-40.2789474,-92.0170548,21.9729393,34.016516460000005,-89.13507606
5.12,512,0.579,-0.187,-0.385,-122.2119414,-41.023792799999995,-91.4440968,20.05925958,33.953491080000006,-90.33828786
5.13,513,0.606,-0.13699999999999998,-0.415,-121.467096,-44.8626114,-90.0117018,18.162768600000003,33.81598116,-91.54149966
5.14,514,0.588,-0.08800000000000001,-0.393,-120.2065884,-45.9512316,-88.2928278,16.29492552,33.6326346,-92.71606355999998
5.1499999999999995,515,0.534,-0.069,-0.327,-117.9147564,-47.0971476,-86.2874748,14.467189499999998,33.403451399999994,-93.86197956
5.16,516,0.54,-0.011,-0.405,-118.88878500000001,-49.3316838,-82.62054359999998,12.65664222,33.12270198,-94.97351808
5.17,517,0.481,0.032,-0.371,-114.1905294,-54.717489,-79.87034519999997,10.92057948,32.75027928,-96.03921996
5.18,518,0.457,0.015,-0.37,-110.4663024,-50.82137460000001,-77.635809,9.25900128,32.37785658,-97.05335562
5.1899999999999995,519,0.439,0.054000000000000006,-0.425,-108.86202,-46.4668938,-75.1147938,7.6489892999999975,32.02262262000001,-98.01019548
5.2,520,0.392,0.071,-0.419,-102.3875946,-45.3209778,-71.5624542,6.14210976,31.65592950000001,-98.90973954
5.21,521,0.365,0.096,-0.472,-95.85587340000001,-44.404245,-66.463128,4.7269035000000015,31.27777722,-99.74625822
5.22,522,0.364,0.135,-0.494,-91.100322,-39.9351726,-61.36380179999999,3.42055926,30.91681368,-100.49110362000002
5.2299999999999995,523,0.384,0.16699999999999998,-0.4970000000000001,-86.51665799999998,-34.4347758,-57.1812084,2.19442914,30.595957199999997,-101.17865322
5.24,524,0.424,0.185,-0.523,-81.53192340000003,-33.74722620000001,-53.11320660000001,1.05424272,30.269371140000004,-101.80317744
5.25,525,0.436,0.197,-0.54,-75.2293854,-35.809875,-49.1025006,0.00572958,29.91413718,-102.37613544
5.26,526,0.442,0.22,-0.621,-70.5311298,-32.0283522,-46.00852740000001,-0.9969469199999998,29.5932807,-102.92044554000002
5.27,527,0.386,0.259,-0.59,-64.0567044,-28.0176462,-42.7999626,-1.87930224,29.30107212,-103.40173026
5.28,528,0.374,0.305,-0.614,-55.6342218,-23.2620948,-39.3622146,-2.65279554,29.0489706,-103.84290792
5.29,529,0.396,0.319,-0.695,-48.3576552,-17.6471064,-36.096354,-3.34034514,28.8484353,-104.24397852
5.3,530,0.378,0.314,-0.662,-40.680018,-16.8449652,-32.372127,-3.9190327200000006,28.65935916,-104.59921248
5.31,531,0.381,0.263,-0.68,-32.7159018,-13.6936962,-27.444688199999998,-4.44615408,28.49893092000001,-104.92579854
5.32,532,0.399,0.208,-0.7170000000000001,-27.444688199999998,-9.167328,-22.2307704,-4.8414950999999995,28.38433932,-105.1664409
5.33,533,0.394,0.179,-0.728,-22.173474600000002,-5.72958,-17.0168526,-5.1566220000000005,28.30985478,-105.35551704000002
5.34,534,0.404,0.16,-0.7879999999999999,-17.9908812,-2.3491278,-12.032117999999999,-5.397264359999999,28.2754773,-105.48729738000002
5.35,535,0.464,0.17800000000000002,-0.818,-14.896907999999998,0.4583664000000001,-8.5370742,-5.59779966,28.26974772,-105.57897066
5.36,536,0.526,0.222,-0.8140000000000001,-11.229976800000001,2.1772404,-6.6463128000000005,-5.90719698,28.34996184,-105.75658764
5.37,537,0.596,0.243,-0.898,-8.479778399999999,5.6149884000000005,-6.5317212,-6.0332477399999975,28.395798480000003,-105.83107218
5.38,538,0.6,0.246,-0.905,-5.3285094000000015,3.4377480000000005,-5.958763200000001,-6.11919144,28.42444638,-105.89982714
5.39,539,0.5820000000000001,0.201,-0.917,-2.5210152000000003,-0.9167328,-3.4950437999999995,-6.165028080000001,28.40725764,-105.9399342
5.3999999999999995,540,0.557,0.184,-0.984,-1.4896908000000002,-6.130650599999999,-0.8594370000000001,-6.18221682,28.34996184,-105.94566378
5.41,541,0.495,0.119,-0.964,2.2345362,-10.4851314,2.7501984,-6.15356892,28.21245192,-105.90555672
5.42,542,0.438,0.086,-1.006,4.1825934,-12.1467096,7.6203414,-6.06189564,28.09786032,-105.81388344
5.43,543,0.423,0.08900000000000001,-1.1,6.1879464,-14.266654199999998,12.891555,-5.92438572,27.97180956,-105.65345520000001
5.4399999999999995,544,0.466,0.105,-1.157,10.5424272,-15.126091199999998,17.9908812,-5.71812084,27.84002922,-105.44146074
5.45,545,0.525,0.134,-1.181,14.4385416,-15.6417534,21.8869956,-5.44883058,27.70824888000001,-105.18935922
5.46,546,0.568,0.18,-1.176,19.6524594,-17.0168526,25.55392680000001,-5.1222445200000015,27.559279799999995,-104.89715064
5.47,547,0.5920000000000001,0.202,-1.155,25.6112226,-19.0795014,30.194886600000004,-4.6982555999999995,27.398851560000004,-104.54764626
5.4799999999999995,548,0.607,0.209,-1.137,30.366774000000003,-20.6837838,34.60666320000001,-4.20551172,27.221234580000004,-104.15803481999998
5.49,549,0.617,0.204,-1.156,34.5493674,-21.3140376,39.3049188,-3.64974246,27.043617600000005,-103.71112758
5.5,550,0.597,0.181,-1.163,39.9351726,-24.0069402,44.404245,-3.0137590800000003,26.83162314,-103.21265412
5.51,551,0.557,0.127,-1.165,44.404245,-25.84040580000001,49.04520479999999,-2.3204799,26.60243994,-102.66834402
5.52,552,0.514,0.083,-1.167,49.388979600000006,-28.934379,53.68616460000001,-1.5527161800000002,26.33887926000001,-102.07819728
5.53,553,0.463,0.034,-1.162,52.9413192,-33.0596766,56.5509546,-0.73338624,26.02375236,-101.45940264
5.54,554,0.421,0.0,-1.126,56.0925882,-36.898495200000006,58.613603399999995,0.10886202,25.668518400000004,-100.82914884
5.55,555,0.394,-0.001,-1.113,58.49901179999999,-38.7892566,60.16059,0.98548776,25.28463654,-100.18743588
5.56,556,0.39,0.017,-1.15,60.7908438,-40.164355799999996,61.30650600000001,1.87930224,24.8663772,-99.54572292
5.57,557,0.396,0.016,-1.144,64.9161414,-40.6227222,62.853492599999996,2.81322378,24.448117860000004,-98.8925508
5.58,558,0.391,-0.012,-1.119,68.35388940000001,-39.820581,65.4318036,3.78725238,24.02412894,-98.22218994
5.59,559,0.35100000000000003,-0.033,-1.065,73.1667366,-38.961144,68.58307260000001,4.81857678,23.59441044,-97.52891076
5.6,560,0.316,-0.055,-1.078,78.95361240000003,-35.695283399999994,72.76566600000002,5.91865614,23.18761026,-96.8012541
5.61,561,0.303,-0.069,-1.091,83.3080932,-36.32553720000001,75.8596392,7.05311298,22.74070302,-96.05067912
5.62,562,0.32,-0.092,-1.078,86.40206640000002,-39.0757356,77.92228800000002,8.22767688,22.26514788,-95.29437456
5.63,563,0.334,-0.08900000000000001,-1.05,89.7252228,-44.8053156,80.44330319999997,9.43088868,21.72083778,-94.53234042
5.64,564,0.344,-0.102,-0.998,93.8505204,-50.0192334,82.1048814,10.66274838,21.10204314,-93.78749502
5.6499999999999995,565,0.35700000000000004,-0.113,-0.951,97.2882684,-51.33703679999999,82.79243100000002,11.92325598,20.454600600000006,-93.0483792
5.66,566,0.35100000000000003,-0.127,-0.936,101.2989744,-50.5348956,83.5945722,13.20095232,19.80142848,-92.32645212
5.67,567,0.304,-0.16699999999999998,-0.878,106.3410048,-48.2430636,83.8810512,14.5244853,19.15398594,-91.61025462
5.68,568,0.229,-0.209,-0.831,111.153852,-44.06047020000001,84.1675302,15.89385492,18.52946172,-90.89405712
5.6899999999999995,569,0.16,-0.249,-0.807,114.0759378,-40.10706,84.62589659999998,17.280413279999998,17.927855819999994,-90.1835892
5.7,570,0.093,-0.28,-0.7709999999999999,116.76884040000002,-37.52874900000001,85.0269672,18.68416038,17.326249920000002,-89.47885086
5.71,571,0.053,-0.297,-0.735,118.77419340000002,-34.4920716,84.96967140000002,20.10509622,16.7303736,-88.77411251999996
5.72,572,0.044,-0.309,-0.73,120.95143380000002,-31.913760600000003,84.3394176,21.53176164,16.15168602,-88.08656292
5.7299999999999995,573,0.047,-0.337,-0.7140000000000001,123.8162238,-30.9970278,83.4226848,22.9756158,15.57299844,-87.42766122
5.74,574,0.07200000000000001,-0.377,-0.6890000000000001,125.70698519999999,-29.0489706,82.04758559999998,24.42519954,15.000040439999998,-86.78594826
5.75,575,0.104,-0.423,-0.655,127.5977466,-26.8717302,80.3860074,25.880512860000003,14.438541599999999,-86.16715362
5.76,576,0.126,-0.471,-0.634,130.69171980000002,-23.491278,77.80769640000003,27.37020366,13.89996108,-85.56554772
5.77,577,0.126,-0.502,-0.621,131.09279039999998,-20.05353,75.5731602,28.84270572,13.390028460000002,-84.98686014
5.78,578,0.109,-0.528,-0.619,131.60845260000002,-18.1054728,73.338624,30.30374862,12.891555,-84.43682046
5.79,579,0.083,-0.546,-0.616,131.9522274,-16.157415599999997,71.04679200000002,31.76479152,12.41027028,-83.9096991
5.8,580,0.062,-0.556,-0.5920000000000001,131.5511568,-15.2979786,68.182002,33.208645680000004,11.94044472,-83.41122564
5.81,581,0.048,-0.573,-0.552,131.7230442,-14.2093584,65.3745078,34.652499840000004,11.470619159999998,-82.94140008000002
5.82,582,0.027000000000000003,-0.594,-0.546,131.78034,-12.7769634,63.08267579999999,36.07916526,11.02371192,-82.50022242
5.83,583,0.002,-0.609,-0.5,131.89493159999998,-10.9434978,61.1919144,37.5001011,10.58826384,-82.07050392
5.84,584,-0.025,-0.616,-0.454,134.5878342,-8.136003599999999,59.35844880000001,38.94395526,10.18146366,-81.65224458
5.85,585,-0.041,-0.639,-0.436,135.1034964,-5.2139178,57.86875799999999,40.393539,9.79185222,-81.23971482
5.86,586,-0.051,-0.6459999999999999,-0.421,135.27538380000001,-2.4064236,56.3790672,41.8545819,9.407970359999998,-80.82145548
5.87,587,-0.07,-0.657,-0.399,135.3899754,0.0,55.290447,43.29270648,9.0527364,-80.40892572
5.88,588,-0.07200000000000001,-0.667,-0.391,134.4732426,4.297185,54.4883058,44.72510148,8.72615034,-79.97920722
5.89,589,-0.084,-0.6809999999999999,-0.388,133.6711014,5.6722842,53.571573,46.14603732,8.39956428,-79.56094787999999
5.8999999999999995,590,-0.104,-0.711,-0.348,132.75436860000002,5.72958,53.22779820000001,47.54978442,8.07297822,-79.14841812
5.91,591,-0.111,-0.74,-0.32,131.2646778,7.6776372,52.82672760000001,48.96499067999999,7.72347384,-78.73015878
5.92,592,-0.114,-0.794,-0.329,129.54580380000002,12.4331886,53.1705024,50.33436029999999,7.41407652,-78.28325154000002
5.93,593,-0.095,-0.755,-0.319,127.9988172,16.673077799999998,53.0559108,51.69227076,7.12186794,-77.81342598
5.9399999999999995,594,-0.099,-0.7609999999999999,-0.299,129.6030996,20.1108258,50.9359662,53.06164037999999,6.858307260000001,-77.33214126
5.95,595,-0.11,-0.784,-0.273,128.57177520000002,21.485925,49.61816279999999,54.42528042,6.5947465800000025,-76.8623157
5.96,596,-0.11,-0.815,-0.269,127.2539718,22.058883,49.1025006,55.78319088000001,6.31399716,-76.38676056
5.97,597,-0.102,-0.838,-0.273,125.53509779999999,24.8663772,48.4722468,57.10672386,6.05616606,-75.89974626
5.9799999999999995,598,-0.099,-0.852,-0.257,124.21729440000001,26.5852512,47.7846972,58.41879768,5.80406454,-75.41273196
5.99,599,-0.113,-0.862,-0.2,123.3578574,29.67922440000001,47.3836266,59.71941234,5.56342218,-74.90852892000002
6.0,600,-0.115,-0.865,-0.202,120.4357716,37.41415739999999,45.4928652,60.98564952,5.3571573,-74.34703008
6.01,601,-0.132,-0.861,-0.195,117.45638999999998,42.1697088,43.7166954,62.24615712000001,5.1566220000000005,-73.75688333999999
6.02,602,-0.151,-0.84,-0.16699999999999998,114.9926706,46.8106686,41.023792799999995,63.46655766,5.00765292,-73.14381828
6.03,603,-0.16399999999999998,-0.8290000000000001,-0.135,114.2478252,53.571573,38.67466500000001,64.67549904,4.893061319999998,-72.48491658
6.04,604,-0.179,-0.812,-0.098,114.7634874,57.4103916,37.41415739999999,65.89017,4.79565846,-71.79736698
6.05,605,-0.204,-0.836,-0.105,114.1905294,62.5097178,35.5806918,67.09911138,4.71544434,-71.06971032
6.06,606,-0.17800000000000002,-0.871,-0.142,110.7527814,72.0208206,32.544014399999995,68.2965936,4.65814854,-70.26756911999999
6.07,607,-0.133,-0.899,-0.109,109.0912032,77.1201468,30.080295,69.45969834,4.64668938,-69.43105044
6.08,608,-0.09,-0.929,-0.087,107.2577376,81.2454444,28.7051958,70.61134392,4.64668938,-68.56015427999999
6.09,609,-0.035,-0.936,-0.065,104.5075392,80.09952840000003,28.762491600000004,71.72861202,4.62377106,-67.70071728
6.1,610,0.001,-0.952,-0.04,104.278356,75.2293854,28.5333084,72.84588012,4.57220484,-66.88711692
6.11,611,0.031,-0.988,-0.053,100.9551996,76.48989300000002,27.444688199999998,73.94022989999998,4.51490904,-66.06778698000001
6.12,612,0.066,-1.024,-0.061,96.7726062,76.77637200000002,26.69984280000001,74.97728388,4.45188366,-65.24845703999999
6.13,613,0.129,-1.054,-0.092,92.532717,71.2759752,26.4706596,75.96277164,4.36593996,-64.48642290000001
6.14,614,0.17,-1.094,-0.136,86.8604328,65.66098679999999,25.84040580000001,76.89096359999998,4.25707794,-63.78168456
6.15,615,0.209,-1.126,-0.132,81.3027402,61.4783934,25.9549974,77.75613018,4.131027179999999,-63.12278286
6.16,616,0.214,-1.152,-0.135,76.9482594,54.94667220000001,27.6165756,78.58118970000002,3.97632852,-62.52690654000001
6.17,617,0.202,-1.123,-0.123,71.5624542,49.2170922,29.2781538,79.33749426,3.7815227999999994,-61.98259644
6.18,618,0.185,-1.063,-0.08900000000000001,69.6716928,43.65939960000001,30.5386614,80.0708805,3.5523396000000003,-61.49558214
6.1899999999999995,619,0.161,-1.022,-0.092,67.5517482,39.19032720000001,31.1689152,80.77561884,3.3059676599999994,-61.048674899999995
6.2,620,0.122,-0.975,-0.086,63.88481700000001,36.669312,30.252182399999995,81.4459797,3.0653253000000005,-60.63614514
6.21,621,0.067,-0.92,-0.063,60.44706899999999,35.809875,28.0176462,82.08196308000002,2.8361421,-60.24080411999999
6.22,622,0.014,-0.882,-0.069,57.983349600000004,36.32553720000001,24.9809688,82.68356897999998,2.62987722,-59.8454631
6.2299999999999995,623,-0.034,-0.8759999999999999,-0.063,55.748813399999996,38.10170700000001,21.8869956,83.26225656,2.45798982,-59.43866292
6.24,624,-0.07200000000000001,-0.871,-0.046,51.5089242,38.961144,19.5378678,83.7951075,2.30329116,-59.02613315999999
6.25,625,-0.099,-0.88,-0.036000000000000004,50.76407879999999,40.5081306,18.2200644,84.32222886000002,2.15432208,-58.60214424
6.26,626,-0.106,-0.898,-0.044,50.0765292,45.4928652,17.8762896,84.84935021999998,1.99389384,-58.126589100000004
6.27,627,-0.093,-0.914,-0.051,49.61816279999999,50.47759979999999,17.8762896,85.35928284,1.85065434,-57.610926899999995
6.28,628,-0.061,-0.938,-0.036000000000000004,49.90464179999999,53.68616460000001,18.2200644,85.88067462000002,1.6959556799999995,-57.06088722
6.29,629,-0.025,-0.961,-0.016,46.8679644,56.608250399999996,17.9908812,86.36195934,1.5469866,-56.48219964
6.3,630,0.034,-0.97,-0.021,43.77399120000001,60.16059,17.18874,86.81459616,1.39801752,-55.87486416
6.31,631,0.092,-1.01,-0.027000000000000003,43.7166954,58.72819499999999,16.157415599999997,87.26723297999996,1.27196676,-55.28471741999999
6.32,632,0.126,-1.062,-0.021,41.825934,54.4883058,15.0687954,87.69695148,1.12872726,-54.73467774000001
6.33,633,0.142,-1.123,-0.009000000000000001,40.680018,51.10785360000001,14.037471,88.10948124000002,1.0026765,-54.21901554
6.34,634,0.154,-1.173,0.021,37.8725238,50.3630082,12.261301199999998,88.49909268,0.8823553199999999,-53.71481250000001
6.35,635,0.155,-1.206,0.019,35.17962120000001,50.706783,9.5111028,88.85432664,0.7849524600000001,-53.21060946
6.36,636,0.159,-1.214,0.015,32.4294228,52.998615,6.3025379999999975,89.18664228,0.7391158200000001,-52.68348810000001
6.37,637,0.161,-1.181,0.036000000000000004,30.366774000000003,51.68081160000001,3.9534102,89.49603959999996,0.69327918,-52.1678259
6.38,638,0.168,-1.135,0.058,29.8511118,47.3263308,2.2345362,89.79397776,0.66463128,-51.69800034
6.39,639,0.18600000000000005,-1.07,0.08199999999999999,29.2781538,42.398892,1.4896908000000002,90.09191592,0.64171296,-51.27401142
6.4,640,0.209,-1.022,0.107,29.67922440000001,37.6433406,1.5469866,90.39558366,0.61306506,-50.89585913999999
6.41,641,0.218,-0.987,0.145,30.8824362,31.6845774,2.0626488000000003,90.73935846,0.64171296,-50.5921914
6.42,642,0.214,-0.982,0.13699999999999998,31.054323600000004,26.2414764,1.6615782,91.05448536,0.61879464,-50.33436029999999
6.43,643,0.213,-0.998,0.128,29.621928600000004,24.8090814,0.4583664000000001,91.35242352,0.6016058999999999,-50.08225878
6.4399999999999995,644,0.218,-1.012,0.126,29.220858000000003,25.496631,-1.0886202,91.65036168,0.6016058999999999,-49.83015725999999
6.45,645,0.234,-1.02,0.121,29.7365202,25.9549974,-3.2085648,91.94829984,0.62452422,-49.56659658
6.46,646,0.244,-1.022,0.107,29.9657034,22.9756158,-4.6409598,92.26342674,0.72765666,-49.34887254
6.47,647,0.245,-0.999,0.08199999999999999,28.1322378,17.6471064,-4.3544808,92.54990574,0.76203414,-49.16552598
6.4799999999999995,648,0.234,-0.964,0.071,26.356068,10.4851314,-2.2345362,92.819196,0.7734933,-49.05666396
6.49,649,0.224,-0.921,0.091,25.210152,2.9220857999999996,0.8594370000000001,93.07129752,0.76776372,-49.02801606000001
6.5,650,0.204,-0.887,0.107,23.204799,-7.7349330000000025,4.4117766,93.3062103,0.73338624,-49.1025006
6.51,651,0.184,-0.856,0.09,20.1108258,-16.386598799999998,7.5057497999999985,93.51820476,0.73338624,-49.28011758000001
6.52,652,0.152,-0.846,0.069,18.048177,-22.86102420000001,10.5424272,93.70155132,0.64744254,-49.50930078
6.53,653,0.097,-0.868,0.067,18.449247600000003,-27.6165756,13.2353298,93.89062746,0.5443101,-49.78432062
6.54,654,0.024,-0.935,0.076,19.4232762,-29.621928600000004,15.183387000000002,94.09116276,0.42398892,-50.08798836
6.55,655,-0.051,-1.034,0.08800000000000001,20.1108258,-29.7365202,16.329303,94.29742764,0.29220857999999994,-50.3916561
6.56,656,-0.126,-1.149,0.096,19.595163600000006,-29.4500412,16.2147114,94.49223336,0.13750992,-50.68386468
6.57,657,-0.17600000000000002,-1.241,0.106,19.3659804,-26.298772200000002,13.8082878,94.69276866,0.028647900000000007,-50.95315494000001
6.58,658,-0.192,-1.308,0.126,18.449247600000003,-18.7357266,8.7662574,94.88184479999998,-0.028647900000000007,-51.14223108
6.59,659,-0.168,-1.311,0.14300000000000002,17.5325148,-9.0527364,2.0053530000000004,95.06519136,-0.04010706,-51.23390436
6.6,660,-0.122,-1.249,0.146,16.7303736,-1.8907613999999997,-4.1825934,95.23134918,0.0,-51.24536352
6.61,661,-0.066,-1.161,0.142,15.6417534,2.4637194,-7.7349330000000025,95.39750699999999,0.057295800000000015,-51.21098604
6.62,662,0.001,-1.083,0.13699999999999998,13.750992000000002,5.3858052,-8.9381448,95.53501692,0.14323950000000002,-51.14223108
6.63,663,0.061,-1.016,0.14300000000000002,11.745639,7.2192707999999985,-8.307891,95.6553381,0.21772404,-51.06201696000001
6.64,664,0.11,-0.949,0.155,8.3651868,8.136003599999999,-5.6722842,95.7412818,0.26356068,-50.97607326000001
6.65,665,0.133,-0.902,0.147,6.3025379999999975,6.4744254,-2.9220857999999996,95.80430718,0.28647900000000004,-50.90731829999999
6.66,666,0.132,-0.88,0.136,6.2452422,3.4377480000000005,-0.286479,95.89025088,0.4297185000000001,-50.90158872
6.67,667,0.113,-0.8859999999999999,0.133,7.2192707999999985,0.5156622000000001,1.5469866,95.96473541999998,0.41252976,-50.89585913999999
6.68,668,0.07400000000000001,-0.914,0.136,8.250595200000001,-2.9793816000000004,2.4064236,96.05067912,0.39534102,-50.92450704
6.6899999999999995,669,0.023,-0.95,0.14,8.7662574,-6.760904399999999,2.3491278,96.13662282,0.37815228,-50.993262
6.7,670,-0.024,-0.989,0.139,8.8235532,-9.3965112,1.7188740000000002,96.2282961,0.37815228,-51.08493528
6.71,671,-0.057,-1.016,0.139,7.5630456000000015,-10.1986524,0.8594370000000001,96.30851022,0.32085648,-51.17660856
6.72,672,-0.07,-1.018,0.13699999999999998,5.9014674000000005,-11.0580894,0.5156622000000001,96.3715356,0.33231564,-51.28547058
6.7299999999999995,673,-0.073,-1.01,0.139,5.2139178,-12.0894138,0.572958,96.42310182,0.3437748,-51.40579176
6.74,674,-0.065,-0.999,0.138,5.3285094000000015,-12.5477802,0.6302538000000001,96.48039762,0.35523396,-51.52611294
6.75,675,-0.056,-0.995,0.14300000000000002,5.958763200000001,-12.261301199999998,0.7448454000000001,96.543423,0.36096354,-51.64643412
6.76,676,-0.044,-0.996,0.14800000000000002,5.5576926,-11.3445684,0.7448454000000001,96.61217795999998,0.32658606,-51.75529614
6.77,677,-0.036000000000000004,-0.995,0.151,4.5263682,-10.886202,1.0313244,96.6580146,0.33231564,-51.85842858
6.78,678,-0.029,-0.997,0.155,3.6669312000000014,-11.0007936,1.7188740000000002,96.69812166,0.33231564,-51.973020180000006
6.79,679,-0.024,-0.999,0.161,2.9793816000000004,-11.45916,2.8074942000000003,96.73249914,0.32085648,-52.08761178
6.8,680,-0.029,-1.006,0.157,2.7501984,-11.0580894,3.3231564,96.76114704,0.30366774,-52.19647379999999
6.81,681,-0.038,-1.012,0.156,2.0053530000000004,-10.7716104,3.6669312000000014,96.79552452,0.24064236,-52.29960624
6.82,682,-0.047,-1.009,0.158,1.432395,-10.6570188,3.724227,96.81271325999998,0.21772404,-52.40846826000001
6.83,683,-0.053,-1.001,0.158,0.9740286,-10.313244,3.724227,96.82417242,0.20053530000000008,-52.51733028
6.84,684,-0.058,-0.99,0.157,0.6302538000000001,-9.6256944,3.6096354,96.829902,0.17761697999999998,-52.61473314
6.85,685,-0.061,-0.985,0.158,0.3437748,-8.7089616,3.3231564,96.83563158,0.15469866,-52.70067684000001
6.86,686,-0.065,-0.985,0.16,0.057295800000000015,-7.6776372,2.8074942000000003,96.87000906,0.03437748,-52.76370221999999
6.87,687,-0.07,-0.987,0.16,0.0,-7.448453999999999,1.8334656000000005,96.87000906,0.02291832,-52.84391634000001
6.88,688,-0.069,-0.992,0.17,0.1718874,-7.333862400000001,0.7448454000000001,96.87573864,0.028647900000000007,-52.9126713
6.89,689,-0.063,-1.0,0.172,0.0,-7.448453999999999,-0.11459160000000004,96.87573864,0.04010706,-52.98715583999999
6.9,690,-0.053,-1.005,0.172,-0.6302538000000001,-7.2765666,-0.5156622000000001,96.87000906,0.057295800000000015,-53.05591080000001
6.91,691,-0.047,-1.007,0.166,-0.9740286,-7.2765666,-0.4583664000000001,96.89865696,-0.00572958,-53.11893618000001
6.92,692,-0.042,-1.008,0.168,-1.0313244,-7.1046792000000005,0.0,96.89292738,0.0,-53.18769113999999
6.93,693,-0.046,-1.006,0.16699999999999998,-1.3750992,-6.9327918,0.7448454000000001,96.87573864,0.00572958,-53.25644610000001
6.9399999999999995,694,-0.055,-1.001,0.166,-1.7188740000000002,-6.703608600000001,1.3178034,96.8585499,0.0,-53.32520106000001
6.95,695,-0.059,-0.993,0.16699999999999998,-2.2345362,-5.844171599999999,1.6042823999999998,96.84136116,-0.00572958,-53.38249686
6.96,696,-0.059,-0.985,0.168,-2.6356068,-4.4690724,1.6615782,96.87000906,-0.11459160000000004,-53.41687434000001
6.97,697,-0.059,-0.979,0.16899999999999998,-2.7501984,-3.8961144,1.5469866,96.84136116,-0.12605075999999998,-53.4569814
6.9799999999999995,698,-0.06,-0.98,0.17,-2.6929026,-3.8388186,1.3750992,96.81271325999998,-0.13750992,-53.49708846
6.99,699,-0.06,-0.985,0.172,-2.5210152000000003,-3.9534102,1.0886202,96.78979494,-0.14323950000000002,-53.53719552
7.0,700,-0.058,-0.993,0.17600000000000002,-2.578311,-4.0680017999999984,0.8021411999999999,96.76114704,-0.14323950000000002,-53.58303216
7.01,701,-0.056,-0.999,0.17800000000000002,-2.7501984,-4.010706000000001,0.5156622000000001,96.81844284,-0.24637194,-53.61168005999999
7.02,702,-0.055,-1.0,0.18,-3.151269,-3.6096354,0.3437748,96.78406536,-0.24637194,-53.64605754
7.03,703,-0.054000000000000006,-0.994,0.18,-3.5523396000000003,-2.7501984,0.0,96.74968788,-0.24637194,-53.67470544
7.04,704,-0.05,-0.988,0.177,-3.8388186,-1.7761698,-0.1718874,96.70958082,-0.24064236,-53.69189418
7.05,705,-0.045,-0.985,0.174,-3.8961144,-1.2032118,-0.2291832000000001,96.66947376,-0.23491278,-53.70335334
7.06,706,-0.044,-0.986,0.172,-4.010706000000001,-1.0313244,-0.1718874,96.73249914,-0.33231564,-53.70908292
7.07,707,-0.046,-0.992,0.171,-3.8388186,-1.2032118,0.0,96.69239208,-0.33231564,-53.72054208
7.08,708,-0.051,-1.001,0.171,-3.724227,-1.5469866,0.3437748,96.6580146,-0.33231564,-53.73773082
7.09,709,-0.056,-1.009,0.172,-3.724227,-1.5469866,0.6302538000000001,96.61790754,-0.33804522,-53.75491956
7.1,710,-0.063,-1.016,0.172,-4.0680017999999984,-1.2605076000000002,0.7448454000000001,96.57780048,-0.3437748,-53.7721083
7.11,711,-0.065,-1.016,0.16699999999999998,-4.583664,-0.11459160000000004,0.4583664000000001,96.6007188,-0.4984734599999999,-53.74918998
7.12,712,-0.065,-1.012,0.161,-4.8128472,0.8594370000000001,0.0,96.54915258,-0.4984734599999999,-53.7434604
7.13,713,-0.063,-1.008,0.157,-4.8701430000000006,1.145916,-0.2291832000000001,96.50331594,-0.4984734599999999,-53.73200124
7.14,714,-0.062,-1.002,0.155,-5.2139178,1.3750992,-0.11459160000000004,96.44602014,-0.4984734599999999,-53.72054208
7.15,715,-0.061,-0.993,0.159,-5.7868758000000025,2.0626488000000003,0.057295800000000015,96.38872434,-0.5042030399999999,-53.69762376
7.16,716,-0.059,-0.99,0.158,-6.5317212,2.9793816000000004,0.11459160000000004,96.36007644,-0.5729580000000001,-53.66324628
7.17,717,-0.055,-0.988,0.153,-7.161975,4.010706000000001,0.0,96.2855919,-0.5786875800000001,-53.62313922
7.18,718,-0.049,-0.989,0.154,-7.448453999999999,5.1566220000000005,-0.4583664000000001,96.20537778,-0.5844171599999999,-53.57730258
7.1899999999999995,719,-0.043,-0.992,0.153,-7.5057497999999985,6.016058999999999,-1.0313244,96.13089324,-0.5786875800000001,-53.5142772
7.2,720,-0.038,-0.993,0.151,-7.7349330000000025,6.2452422,-1.4896908000000002,96.05067912,-0.5729580000000001,-53.45125182
7.21,721,-0.036000000000000004,-0.995,0.153,-7.8495246,6.016058999999999,-1.6042823999999998,95.99911290000001,-0.59014674,-53.39395602000001
7.22,722,-0.034,-0.993,0.159,-8.250595200000001,5.72958,-1.6042823999999998,95.9131692,-0.5786875800000001,-53.33666022
7.2299999999999995,723,-0.032,-0.993,0.16899999999999998,-8.021412000000002,5.958763200000001,-1.4896908000000002,95.8272255,-0.5729580000000001,-53.27936442
7.24,724,-0.032,-0.994,0.174,-8.193299399999999,5.844171599999999,-1.3178034,95.74701138,-0.56722842,-53.21633904
7.25,725,-0.031,-1.0,0.168,-8.193299399999999,5.3285094000000015,-1.432395,95.66106768,-0.56149884,-53.16477282
7.26,726,-0.036000000000000004,-1.007,0.163,-8.136003599999999,4.5263682,-1.432395,95.62096062,-0.5786875800000001,-53.124665760000006
7.27,727,-0.04,-1.009,0.161,-8.4224826,3.724227,-1.3750992,95.53501692,-0.56722842,-53.0845587
