TimeStamp(s),FrameCounter,AccX,AccY,AccZ,GyrX,GyrY,GyrZ,EulerX,EulerY,EulerZ
0.01,1,-0.051,-0.997,0.129,1.5469866,-0.1718874,-0.057295800000000015,95.58658314,-2.2058883,-18.13985028
0.02,2,-0.053,-0.997,0.132,1.9480572,-0.11459160000000004,-0.11459160000000004,95.60950146,-2.2058883,-18.13985028
0.03,3,-0.05,-0.997,0.13,2.1772404,0.0,-0.11459160000000004,95.6266902,-2.2058883,-18.13985028
0.04,4,-0.049,-1.0,0.129,2.2345362,0.0,-0.11459160000000004,95.64960852,-2.20015872,-18.13985028
0.05,5,-0.048,-1.001,0.131,2.1772404,-0.057295800000000015,-0.057295800000000015,95.68971558,-2.2058883,-18.14557986
0.060000000000000005,6,-0.048,-1.003,0.132,2.1772404,-0.2291832000000001,-0.11459160000000004,95.7126339,-2.2058883,-18.15130944
0.06999999999999999,7,-0.048,-1.003,0.134,1.8334656000000005,-0.2291832000000001,-0.11459160000000004,95.72982263999998,-2.2058883,-18.15130944
0.08,8,-0.05,-1.002,0.134,1.7761698000000001,-0.286479,-0.057295800000000015,95.74701138,-2.20015872,-18.15130944
0.09,9,-0.051,-1.002,0.133,1.8334656000000005,-0.40107059999999994,-0.057295800000000015,95.76420011999998,-2.20015872,-18.15703902
0.09999999999999999,10,-0.052000000000000005,-1.004,0.131,1.7761698000000001,-0.2291832000000001,-0.11459160000000004,95.7985776,-2.21161788,-18.16849818
0.11,11,-0.052000000000000005,-1.005,0.132,1.7761698000000001,0.1718874,-0.1718874,95.81576634,-2.21161788,-18.162768600000003
0.12,12,-0.052000000000000005,-1.004,0.131,1.6042823999999998,0.5156622000000001,-0.1718874,95.83295508,-2.2058883,-18.15703902
0.13,13,-0.051,-1.002,0.13,1.5469866,0.6875496,-0.11459160000000004,95.84441424,-2.2058883,-18.15130944
0.14,14,-0.051,-1.003,0.131,1.3750992,0.7448454000000001,-0.11459160000000004,95.86160298,-2.2058883,-18.14557986
0.15000000000000002,15,-0.05,-1.003,0.131,1.2605076000000002,0.8594370000000001,0.0,95.8845213,-2.21734746,-18.13985028
0.16,16,-0.047,-1.003,0.131,1.2605076000000002,0.7448454000000001,0.057295800000000015,95.89598046,-2.21734746,-18.1341207
0.17,17,-0.045,-1.003,0.133,1.3178034,0.7448454000000001,0.11459160000000004,95.90743962,-2.21734746,-18.12266154
0.18000000000000002,18,-0.043,-1.002,0.133,1.2605076000000002,0.8021411999999999,0.1718874,95.91889878,-2.22307704,-18.11693196
0.19,19,-0.040999999999999995,-1.002,0.133,1.2032118,0.8021411999999999,0.11459160000000004,95.93608752,-2.22307704,-18.11120238
0.2,20,-0.043,-0.9990000000000001,0.132,1.145916,0.40107059999999994,0.0,95.95900584,-2.22880662,-18.1054728
0.21000000000000002,21,-0.045,-0.9990000000000001,0.134,1.2605076000000002,0.2291832000000001,0.0,95.970465,-2.22880662,-18.1054728
0.22,22,-0.047,-0.9990000000000001,0.135,1.0886202,0.2291832000000001,-0.057295800000000015,95.98192416,-2.22880662,-18.09974322
0.23,23,-0.047,-0.9990000000000001,0.136,0.8594370000000001,0.3437748,-0.057295800000000015,95.99338332,-2.22880662,-18.09974322
0.24000000000000002,24,-0.048,-1.0,0.136,0.8594370000000001,0.3437748,-0.11459160000000004,95.9991129,-2.22307704,-18.09401364
0.25,25,-0.049,-0.9990000000000001,0.135,0.8021411999999999,0.3437748,-0.057295800000000015,96.0277608,-2.24026578,-18.09974322
0.26,26,-0.05,-1.0,0.134,0.8021411999999999,0.5156622000000001,-0.11459160000000004,96.03349038,-2.24026578,-18.09401364
0.27,27,-0.05,-1.0,0.134,0.6875496,0.572958,-0.11459160000000004,96.03921996,-2.24026578,-18.08828406
0.28,28,-0.049,-1.001,0.134,0.7448454000000001,0.7448454000000001,-0.11459160000000004,96.05067912,-2.24026578,-18.08255448
0.29000000000000004,29,-0.047,-1.002,0.133,0.8021411999999999,0.7448454000000001,-0.11459160000000004,96.0564087,-2.24026578,-18.07109532
0.3,30,-0.046,-1.003,0.133,0.6302538000000001,0.6875496,-0.057295800000000015,96.07359744,-2.24599536,-18.07109532
0.31,31,-0.046,-1.003,0.134,0.572958,0.5156622000000001,-0.057295800000000015,96.07932702,-2.24599536,-18.06536574
0.32,32,-0.045,-1.003,0.135,0.5156622000000001,0.40107059999999994,-0.11459160000000004,96.0850566,-2.24599536,-18.05963616
0.33,33,-0.046,-1.001,0.134,0.286479,0.40107059999999994,-0.057295800000000015,96.09078618,-2.24599536,-18.05963616
0.34,34,-0.048,-1.001,0.134,0.286479,0.2291832000000001,-0.057295800000000015,96.09078618,-2.24599536,-18.05390658
0.35000000000000003,35,-0.05,-1.001,0.135,0.2291832000000001,0.1718874,-0.057295800000000015,96.13089324,-2.28037284,-18.0768249
0.36000000000000004,36,-0.048,-1.001,0.135,0.057295800000000015,0.1718874,-0.057295800000000015,96.13089324,-2.28037284,-18.07109532
0.37,37,-0.049,-1.0,0.136,0.0,0.2291832000000001,-0.057295800000000015,96.13089324,-2.28037284,-18.07109532
0.38,38,-0.049,-1.001,0.134,0.0,0.1718874,-0.1718874,96.13089324,-2.28037284,-18.07109532
0.39,39,-0.051,-1.001,0.134,0.1718874,0.3437748,-0.11459160000000004,96.13662282,-2.2746432600000004,-18.06536574
0.4,40,-0.052000000000000005,-1.002,0.132,0.0,0.4583664000000001,-0.1718874,96.1423524,-2.30329116,-18.07109532
0.41000000000000003,41,-0.051,-1.002,0.132,-0.11459160000000004,0.4583664000000001,-0.057295800000000015,96.1423524,-2.30329116,-18.06536574
0.42000000000000004,42,-0.05,-1.002,0.132,-0.11459160000000004,0.40107059999999994,0.0,96.1423524,-2.30329116,-18.06536574
0.43,43,-0.047,-1.0,0.133,-0.286479,0.3437748,0.0,96.13662282,-2.30329116,-18.05963616
0.44,44,-0.045,-1.0,0.132,-0.3437748,0.2291832000000001,0.057295800000000015,96.13662282,-2.30329116,-18.05963616
0.45,45,-0.044000000000000004,-0.9990000000000001,0.132,-0.3437748,0.11459160000000004,0.1718874,96.13662282,-2.29756158,-18.05390658
0.46,46,-0.043,-0.998,0.132,-0.3437748,0.1718874,0.057295800000000015,96.13662282,-2.29756158,-18.048177
0.47000000000000003,47,-0.046,-0.9990000000000001,0.13,-0.4583664000000001,0.0,0.0,96.13089324,-2.29756158,-18.048177
0.48000000000000004,48,-0.049,-1.0,0.132,-0.40107059999999994,-0.11459160000000004,-0.11459160000000004,96.12516366,-2.29756158,-18.05390658
0.49,49,-0.052000000000000005,-1.0,0.131,-0.572958,0.1718874,-0.286479,96.11943408,-2.2918320000000003,-18.048177
0.5,50,-0.054000000000000006,-1.001,0.13,-0.572958,0.40107059999999994,-0.40107059999999994,96.11943408,-2.3147503200000004,-18.05963616
0.51,51,-0.054000000000000006,-1.002,0.132,-0.7448454000000001,0.3437748,-0.4583664000000001,96.1137045,-2.30902074,-18.05390658
0.52,52,-0.051,-1.002,0.13,-0.6875496,0.057295800000000015,-0.40107059999999994,96.10224534,-2.30329116,-18.05390658
0.53,53,-0.046,-1.005,0.133,-0.6302538000000001,-0.1718874,-0.1718874,96.09651576,-2.30329116,-18.05390658
0.54,54,-0.044000000000000004,-1.003,0.13699999999999998,-0.9167328000000001,-0.1718874,0.057295800000000015,96.0850566,-2.30329116,-18.05390658
0.55,55,-0.044000000000000004,-1.004,0.139,-1.0313244000000001,-0.1718874,0.2291832000000001,96.09651576,-2.30902074,-18.05963616
0.56,56,-0.044000000000000004,-1.001,0.139,-1.2032118,-0.2291832000000001,0.2291832000000001,96.0850566,-2.30902074,-18.06536574
0.5700000000000001,57,-0.045,-1.002,0.138,-1.0313244000000001,-0.057295800000000015,0.11459160000000004,96.07359744,-2.30902074,-18.06536574
0.5800000000000001,58,-0.047,-1.001,0.134,-1.0886202,0.057295800000000015,-0.057295800000000015,96.06213828,-2.30902074,-18.06536574
0.59,59,-0.049,-0.9990000000000001,0.133,-1.0313244000000001,0.1718874,-0.3437748,96.05067912,-2.30902074,-18.05963616
0.6,60,-0.049,-0.996,0.131,-0.7448454000000001,0.0,-0.3437748,96.0564087,-2.3147503200000004,-18.06536574
0.61,61,-0.049,-0.995,0.13,-0.7448454000000001,0.0,-0.2291832000000001,96.05067912,-2.3147503200000004,-18.06536574
0.62,62,-0.047,-0.992,0.132,-0.7448454000000001,-0.286479,-0.057295800000000015,96.03921996,-2.3147503200000004,-18.07109532
0.63,63,-0.046,-0.991,0.132,-0.6302538000000001,-0.3437748,0.0,96.03349038,-2.30902074,-18.0768249
0.64,64,-0.046,-0.991,0.131,-0.572958,-0.286479,0.0,96.0277608,-2.30902074,-18.0768249
0.65,65,-0.047,-0.991,0.131,-0.4583664000000001,-0.1718874,-0.1718874,96.03349038,-2.3204799,-18.08255448
0.66,66,-0.047,-0.9940000000000001,0.131,-0.5156622000000001,-0.11459160000000004,-0.3437748,96.0277608,-2.3147503200000004,-18.08828406
0.67,67,-0.047,-0.997,0.13,-0.4583664000000001,-0.1718874,-0.4583664000000001,96.02203122,-2.30902074,-18.08828406
0.68,68,-0.048,-0.9990000000000001,0.13,-0.572958,-0.057295800000000015,-0.40107059999999994,96.01630164,-2.30329116,-18.08828406
0.6900000000000001,69,-0.046,-1.0,0.131,-0.6875496,-0.2291832000000001,-0.3437748,96.01057206,-2.30329116,-18.08828406
0.7000000000000001,70,-0.044000000000000004,-1.001,0.129,-0.6875496,-0.286479,-0.286479,96.00484248,-2.2918320000000003,-18.09401364
0.7100000000000001,71,-0.044000000000000004,-1.001,0.129,-0.8594370000000001,-0.3437748,-0.2291832000000001,95.99338332,-2.2918320000000003,-18.09401364
0.72,72,-0.044000000000000004,-1.0,0.128,-0.8021411999999999,-0.4583664000000001,-0.1718874,95.98765374,-2.28610242,-18.09974322
0.73,73,-0.045,-1.0,0.128,-0.8594370000000001,-0.572958,-0.1718874,95.98192416,-2.28610242,-18.1054728
0.74,74,-0.047,-1.0,0.127,-0.9740286,-0.6875496,-0.1718874,95.970465,-2.28037284,-18.11120238
0.75,75,-0.048,-1.0,0.128,-0.40107059999999994,-0.286479,-0.1718874,95.970465,-2.28610242,-18.11693196
0.76,76,-0.048,-1.001,0.126,-0.5156622000000001,-0.057295800000000015,-0.2291832000000001,95.96473541999998,-2.28610242,-18.11693196
0.77,77,-0.045,-1.0,0.128,-0.6875496,-0.057295800000000015,-0.1718874,95.95900584,-2.28037284,-18.12266154
0.78,78,-0.044000000000000004,-1.0,0.127,-0.8594370000000001,0.0,-0.11459160000000004,95.95327626,-2.28037284,-18.12266154
0.79,79,-0.042,-1.0,0.125,-0.9740286,0.1718874,-0.057295800000000015,95.9418171,-2.28037284,-18.11693196
0.8,80,-0.040999999999999995,-1.001,0.124,-0.9167328000000001,0.0,-0.057295800000000015,95.93035794,-2.26891368,-18.11120238
0.81,81,-0.043,-1.0,0.124,-0.8594370000000001,-0.1718874,-0.11459160000000004,95.91889878,-2.2631841,-18.11693196
0.8200000000000001,82,-0.043,-1.001,0.124,-0.8594370000000001,-0.40107059999999994,-0.11459160000000004,95.90743962,-2.2631841,-18.11693196
0.8300000000000001,83,-0.044000000000000004,-1.0,0.12300000000000001,-0.8594370000000001,-0.5156622000000001,-0.1718874,95.90171004,-2.25745452,-18.12266154
0.8400000000000001,84,-0.044000000000000004,-0.9990000000000001,0.12300000000000001,-0.9167328000000001,-0.40107059999999994,-0.1718874,95.89025088,-2.25745452,-18.12839112
0.85,85,-0.047,-0.997,0.122,-0.6875496,-0.1718874,-0.1718874,95.87879172,-2.26891368,-18.1341207
0.86,86,-0.048,-0.996,0.12300000000000001,-0.4583664000000001,0.057295800000000015,-0.2291832000000001,95.87306214,-2.2631841,-18.1341207
0.87,87,-0.048,-0.997,0.12300000000000001,-0.40107059999999994,0.11459160000000004,-0.11459160000000004,95.86733256,-2.2631841,-18.1341207
0.88,88,-0.048,-0.997,0.122,-0.286479,0.11459160000000004,-0.11459160000000004,95.86733256,-2.2631841,-18.12839112
0.89,89,-0.048,-0.9990000000000001,0.124,-0.286479,0.1718874,-0.057295800000000015,95.86160298,-2.2631841,-18.12839112
0.9,90,-0.045,-1.001,0.124,-0.2291832000000001,0.11459160000000004,-0.057295800000000015,95.86160298,-2.25745452,-18.12839112
0.91,91,-0.043,-1.001,0.12300000000000001,-0.1718874,0.0,-0.057295800000000015,95.8558734,-2.25745452,-18.12839112
0.92,92,-0.043,-1.002,0.125,-0.2291832000000001,-0.1718874,-0.1718874,95.8558734,-2.25745452,-18.12839112
0.93,93,-0.042,-1.001,0.126,-0.1718874,-0.3437748,-0.2291832000000001,95.8558734,-2.25172494,-18.1341207
0.9400000000000001,94,-0.043,-1.001,0.125,-0.1718874,-0.572958,-0.286479,95.85014382,-2.25172494,-18.13985028
0.9500000000000001,95,-0.044000000000000004,-1.001,0.125,-0.1718874,-0.6302538000000001,-0.2291832000000001,95.8558734,-2.24599536,-18.14557986
0.9600000000000001,96,-0.045,-1.0,0.125,-0.057295800000000015,-0.5156622000000001,-0.11459160000000004,95.85014382,-2.24026578,-18.15130944
0.97,97,-0.046,-1.0,0.124,-0.11459160000000004,-0.286479,0.0,95.85014382,-2.24026578,-18.15130944
0.98,98,-0.048,-1.0,0.122,0.0,-0.057295800000000015,-0.057295800000000015,95.85014382,-2.24026578,-18.15130944
0.99,99,-0.051,-1.001,0.125,-0.11459160000000004,0.057295800000000015,0.0,95.85014382,-2.24026578,-18.15130944
1.0,100,-0.05,-1.001,0.124,-0.057295800000000015,0.3437748,0.0,95.84441424,-2.26891368,-18.15703902
1.01,101,-0.048,-1.001,0.121,-0.057295800000000015,0.6875496,0.0,95.84441424,-2.26891368,-18.15130944
1.02,102,-0.046,-1.004,0.12,-0.1718874,0.9740286,0.0,95.84441424,-2.26891368,-18.13985028
1.03,103,-0.044000000000000004,-1.003,0.12,-0.286479,0.8594370000000001,0.0,95.83868466,-2.26891368,-18.1341207
1.04,104,-0.040999999999999995,-1.001,0.11900000000000001,-0.286479,0.9167328000000001,0.0,95.83295508,-2.2746432600000004,-18.12266154
1.05,105,-0.040999999999999995,-1.002,0.11800000000000001,-0.057295800000000015,0.9740286,0.057295800000000015,95.82149592,-2.2631841,-18.1054728
1.06,106,-0.04,-1.0,0.11800000000000001,0.11459160000000004,0.9740286,0.11459160000000004,95.82149592,-2.26891368,-18.09974322
1.07,107,-0.040999999999999995,-0.9990000000000001,0.11800000000000001,0.11459160000000004,0.8594370000000001,0.1718874,95.82149592,-2.26891368,-18.08828406
1.08,108,-0.043,-0.998,0.11800000000000001,0.2291832000000001,0.8021411999999999,0.11459160000000004,95.82149592,-2.2746432600000004,-18.08255448
1.09,109,-0.046,-0.997,0.11699999999999999,0.286479,0.9740286,0.057295800000000015,95.8272255,-2.2746432600000004,-18.07109532
1.1,110,-0.047,-0.9990000000000001,0.11699999999999999,0.4583664000000001,1.3750992,0.057295800000000015,95.82149592,-2.28037284,-18.05963616
1.11,111,-0.047,-0.998,0.11699999999999999,0.4583664000000001,1.7188740000000002,0.0,95.8272255,-2.28610242,-18.04244742
1.12,112,-0.045,-0.9990000000000001,0.11900000000000001,0.4583664000000001,1.6042823999999998,0.0,95.83295508,-2.28610242,-18.02525868
1.1300000000000001,113,-0.043,-0.998,0.11699999999999999,0.6302538000000001,1.3178034,0.11459160000000004,95.83868466,-2.2918320000000003,-18.01379952
1.1400000000000001,114,-0.042,-1.001,0.11900000000000001,0.7448454000000001,1.0313244000000001,0.1718874,95.84441424,-2.2918320000000003,-18.002340359999994
1.1500000000000001,115,-0.043,-1.001,0.127,0.6302538000000001,0.8594370000000001,0.2291832000000001,95.8558734,-2.2918320000000003,-17.9908812
1.1600000000000001,116,-0.044000000000000004,-1.0,0.127,0.6875496,0.9740286,0.286479,95.86160298,-2.29756158,-17.97942204
1.17,117,-0.043,-1.0,0.126,0.6875496,1.0886202,0.3437748,95.86733256,-2.30329116,-17.973692460000006
1.18,118,-0.045,-0.9990000000000001,0.126,0.8594370000000001,0.9167328000000001,0.3437748,95.87879172,-2.30329116,-17.9622333
1.19,119,-0.044000000000000004,-0.9990000000000001,0.125,0.9740286,1.145916,0.3437748,95.8845213,-2.30902074,-17.95077414
1.2,120,-0.043,-0.998,0.125,1.0313244000000001,1.432395,0.3437748,95.90171004,-2.3147503200000004,-17.9335854
1.21,121,-0.040999999999999995,-0.998,0.125,1.2032118,1.2605076000000002,0.5156622000000001,95.9131692,-2.3204799,-17.92212624
1.22,122,-0.04,-0.998,0.125,1.2605076000000002,1.0886202,0.5156622000000001,95.92462836,-2.32620948,-17.91066708
1.23,123,-0.04,-0.9990000000000001,0.124,1.3178034,1.0313244000000001,0.6302538000000001,95.93608752,-2.3376686399999995,-17.9049375
1.24,124,-0.040999999999999995,-0.9990000000000001,0.121,1.3750992,0.8021411999999999,0.6302538000000001,95.95327626,-2.34339822,-17.89347834
1.25,125,-0.043,-1.0,0.12,1.5469866,0.6875496,0.6875496,95.95900584,-2.3491278,-17.88774876
1.26,126,-0.044000000000000004,-1.001,0.11900000000000001,1.6042823999999998,0.6875496,0.572958,95.97619458,-2.35485738,-17.88201918
1.27,127,-0.045,-1.0,0.11800000000000001,1.7188740000000002,0.8594370000000001,0.40107059999999994,95.99338332,-2.36058696,-17.870560020000006
1.28,128,-0.045,-0.9990000000000001,0.11800000000000001,1.7188740000000002,1.0313244000000001,0.3437748,96.01057206,-2.36631654,-17.86483044
1.29,129,-0.046,-1.001,0.115,1.6042823999999998,1.0313244000000001,0.3437748,96.0277608,-2.37204612,-17.85337128
1.3,130,-0.045,-1.001,0.115,1.6042823999999998,1.0886202,0.286479,96.03349038,-2.37204612,-17.84191212
1.31,131,-0.044000000000000004,-1.003,0.115,1.6615782,1.0313244000000001,0.40107059999999994,96.05067912,-2.3777757,-17.83045296
1.32,132,-0.042,-1.002,0.115,1.5469866,0.9740286,0.40107059999999994,96.06213828,-2.38350528,-17.818993799999994
1.33,133,-0.040999999999999995,-1.004,0.11699999999999999,1.5469866,0.8594370000000001,0.5156622000000001,96.07932702,-2.38923486,-17.81326422
1.34,134,-0.042,-1.004,0.11699999999999999,1.6042823999999998,0.572958,0.6302538000000001,96.09651576,-2.39496444,-17.80753464
1.35,135,-0.043,-1.005,0.11800000000000001,1.4896908000000002,0.6302538000000001,0.5156622000000001,96.10224534,-2.39496444,-17.79607548
1.36,136,-0.043,-1.005,0.11699999999999999,1.3750992,0.6875496,0.5156622000000001,96.1137045,-2.40069402,-17.7903459
1.37,137,-0.043,-1.003,0.11800000000000001,1.3750992,0.8594370000000001,0.5156622000000001,96.12516366,-2.41215318,-17.78461632
1.3800000000000001,138,-0.043,-1.002,0.11699999999999999,1.2032118,0.9167328000000001,0.5156622000000001,96.1423524,-2.41788276,-17.77315716
1.3900000000000001,139,-0.044000000000000004,-1.001,0.11900000000000001,1.432395,0.8594370000000001,0.572958,96.15381156,-2.42361234,-17.76742758
1.4000000000000001,140,-0.045,-1.002,0.121,1.3750992,0.8021411999999999,0.6302538000000001,96.15954114000002,-2.42934192,-17.755968420000006
1.4100000000000001,141,-0.044000000000000004,-1.003,0.122,1.3750992,0.8021411999999999,0.7448454000000001,96.17672988,-2.4350715000000003,-17.75023884
1.42,142,-0.044000000000000004,-1.002,0.122,1.3750992,0.7448454000000001,0.7448454000000001,96.18818904,-2.44653066,-17.74450926
1.43,143,-0.044000000000000004,-1.002,0.12,1.3178034,0.8021411999999999,0.7448454000000001,96.19964819999998,-2.45226024,-17.733050100000003
1.44,144,-0.042,-1.002,0.121,1.3750992,0.6302538000000001,0.7448454000000001,96.21683694,-2.4637194,-17.72732052
1.45,145,-0.043,-1.0,0.122,1.3750992,0.6302538000000001,0.7448454000000001,96.22256652,-2.4637194,-17.72159094
1.46,146,-0.044000000000000004,-1.0,0.12300000000000001,1.3750992,0.6875496,0.6875496,96.23402568,-2.47517856,-17.715861359999995
1.47,147,-0.045,-0.9990000000000001,0.12300000000000001,1.3750992,0.6302538000000001,0.6875496,96.25121442,-2.48090814,-17.71013178
1.48,148,-0.045,-1.0,0.122,1.4896908000000002,0.572958,0.6302538000000001,96.26267357999998,-2.48663772,-17.704402199999997
1.49,149,-0.045,-0.9990000000000001,0.122,1.5469866,0.6302538000000001,0.6875496,96.27986232,-2.49809688,-17.69867262
1.5,150,-0.045,-1.0,0.12,0.8021411999999999,0.1718874,0.3437748,96.22256652,-2.47517856,-17.68148388
1.51,151,-0.045,-1.0,0.121,0.1718874,-0.11459160000000004,0.057295800000000015,96.22256652,-2.48090814,-17.687213460000006
1.52,152,-0.045,-1.002,0.122,0.286479,-0.057295800000000015,0.057295800000000015,96.2282961,-2.48090814,-17.687213460000006
1.53,153,-0.045,-1.001,0.124,0.11459160000000004,-0.057295800000000015,0.11459160000000004,96.2282961,-2.48090814,-17.687213460000006
1.54,154,-0.047,-1.001,0.12300000000000001,0.11459160000000004,-0.057295800000000015,0.0,96.2282961,-2.48090814,-17.687213460000006
1.55,155,-0.047,-1.0,0.12300000000000001,0.1718874,0.0,0.0,96.18245946,-2.47517856,-17.68148388
1.56,156,-0.047,-1.0,0.122,0.286479,0.057295800000000015,0.0,96.18245946,-2.47517856,-17.68148388
1.57,157,-0.046,-1.0,0.122,0.2291832000000001,0.11459160000000004,0.0,96.18818904,-2.48090814,-17.68148388
1.58,158,-0.045,-0.9990000000000001,0.124,0.1718874,0.057295800000000015,0.0,96.18818904,-2.48090814,-17.6757543
1.59,159,-0.045,-1.0,0.124,0.286479,-0.11459160000000004,0.057295800000000015,96.19391862,-2.48090814,-17.68148388
1.6,160,-0.045,-1.0,0.124,0.40107059999999994,-0.3437748,0.11459160000000004,96.17672988,-2.46944898,-17.68148388
1.61,161,-0.044000000000000004,-1.001,0.126,0.4583664000000001,-0.4583664000000001,0.11459160000000004,96.18245946,-2.46944898,-17.68148388
1.62,162,-0.045,-1.001,0.127,0.4583664000000001,-0.40107059999999994,0.0,96.18818904,-2.46944898,-17.687213460000006
1.6300000000000001,163,-0.046,-1.001,0.126,0.4583664000000001,-0.286479,0.0,96.19391862,-2.46944898,-17.69294304
1.6400000000000001,164,-0.046,-1.001,0.124,0.40107059999999994,-0.2291832000000001,0.0,96.19964819999998,-2.46944898,-17.69294304
1.6500000000000001,165,-0.047,-1.003,0.122,0.40107059999999994,-0.2291832000000001,0.0,96.17672988,-2.46944898,-17.69294304
1.6600000000000001,166,-0.046,-1.002,0.122,0.4583664000000001,-0.2291832000000001,0.057295800000000015,96.18245946,-2.46944898,-17.69867262
1.6700000000000002,167,-0.046,-1.003,0.12300000000000001,0.4583664000000001,-0.11459160000000004,-0.057295800000000015,96.18818904,-2.46944898,-17.69867262
1.68,168,-0.046,-1.004,0.122,0.3437748,0.057295800000000015,-0.1718874,96.19391862,-2.46944898,-17.69867262
1.69,169,-0.046,-1.003,0.122,0.286479,0.1718874,-0.286479,96.19391862,-2.4637194,-17.69294304
1.7,170,-0.049,-1.003,0.11900000000000001,0.4583664000000001,0.0,-0.40107059999999994,96.1710003,-2.4637194,-17.69294304
1.71,171,-0.05,-1.003,0.12,0.3437748,0.11459160000000004,-0.4583664000000001,96.17672988,-2.45798982,-17.687213460000006
1.72,172,-0.05,-1.002,0.11800000000000001,0.286479,0.3437748,-0.4583664000000001,96.17672988,-2.45226024,-17.687213460000006
1.73,173,-0.052000000000000005,-1.002,0.11699999999999999,0.1718874,0.572958,-0.4583664000000001,96.18245946,-2.44653066,-17.6757543
1.74,174,-0.05,-0.9990000000000001,0.11800000000000001,0.11459160000000004,0.8021411999999999,-0.4583664000000001,96.18245946,-2.44653066,-17.67002472
1.75,175,-0.049,-1.0,0.11699999999999999,0.1718874,0.7448454000000001,-0.3437748,96.15954114000002,-2.44653066,-17.65856556
1.76,176,-0.049,-1.002,0.12,0.0,0.6875496,-0.3437748,96.15954114000002,-2.44080108,-17.65283598
1.77,177,-0.051,-0.9990000000000001,0.121,-0.2291832000000001,0.572958,-0.3437748,96.15954114000002,-2.44080108,-17.647106400000006
1.78,178,-0.051,-0.9990000000000001,0.121,-0.11459160000000004,0.6302538000000001,-0.4583664000000001,96.15381156,-2.4350715000000003,-17.64137682
1.79,179,-0.049,-1.001,0.122,-0.286479,0.4583664000000001,-0.3437748,96.15381156,-2.42934192,-17.63564724
1.8,180,-0.048,-1.001,0.12300000000000001,-0.1718874,0.1718874,-0.4583664000000001,96.13089324,-2.42934192,-17.62991766
1.81,181,-0.048,-0.9990000000000001,0.125,-0.2291832000000001,0.11459160000000004,-0.3437748,96.13089324,-2.42934192,-17.62991766
1.82,182,-0.046,-0.996,0.124,0.0,0.3437748,-0.1718874,96.13089324,-2.42361234,-17.62418808
1.83,183,-0.046,-0.9940000000000001,0.124,0.11459160000000004,0.40107059999999994,-0.11459160000000004,96.13089324,-2.42361234,-17.6184585
1.84,184,-0.044000000000000004,-0.9940000000000001,0.125,0.2291832000000001,0.3437748,0.0,96.13662282,-2.42361234,-17.6184585
1.85,185,-0.044000000000000004,-0.9940000000000001,0.126,0.3437748,0.3437748,0.0,96.13089324,-2.41215318,-17.606999339999994
1.86,186,-0.044000000000000004,-0.996,0.127,0.4583664000000001,0.286479,0.057295800000000015,96.13662282,-2.41215318,-17.606999339999994
1.87,187,-0.045,-0.998,0.128,0.4583664000000001,0.2291832000000001,0.0,96.1423524,-2.41215318,-17.60126976
1.8800000000000001,188,-0.045,-0.998,0.129,0.572958,0.3437748,-0.057295800000000015,96.14808198,-2.41215318,-17.60126976
1.8900000000000001,189,-0.045,-0.9990000000000001,0.13,0.6875496,0.3437748,-0.2291832000000001,96.15381156,-2.4064236,-17.59554018
1.9000000000000001,190,-0.046,-0.9990000000000001,0.13,0.6302538000000001,0.3437748,-0.1718874,96.16527072,-2.4064236,-17.589810600000003
1.9100000000000001,191,-0.045,-0.9990000000000001,0.13,0.6875496,0.2291832000000001,-0.1718874,96.1710003,-2.40069402,-17.589810600000003
1.9200000000000002,192,-0.045,-0.998,0.127,0.6302538000000001,0.11459160000000004,-0.11459160000000004,96.17672988,-2.40069402,-17.58408102
1.93,193,-0.044000000000000004,-1.0,0.128,0.6875496,0.0,-0.11459160000000004,96.18818904,-2.40069402,-17.58408102
1.94,194,-0.043,-1.001,0.128,0.5156622000000001,0.11459160000000004,-0.11459160000000004,96.18818904,-2.40069402,-17.58408102
1.95,195,-0.043,-1.002,0.127,0.5156622000000001,0.0,0.0,96.18818904,-2.38350528,-17.57835144
1.96,196,-0.043,-1.002,0.127,0.5156622000000001,-0.40107059999999994,-0.057295800000000015,96.19391862,-2.38350528,-17.58408102
1.97,197,-0.046,-1.002,0.128,0.5156622000000001,-0.286479,0.0,96.19964819999998,-2.38350528,-17.589810600000003
1.98,198,-0.044000000000000004,-1.003,0.128,0.3437748,-0.11459160000000004,-0.057295800000000015,96.20537778,-2.38350528,-17.589810600000003
1.99,199,-0.044000000000000004,-1.001,0.127,0.286479,0.0,0.0,96.20537778,-2.38350528,-17.589810600000003
2.0,200,-0.044000000000000004,-1.002,0.126,0.2291832000000001,0.0,0.0,96.18245946,-2.36631654,-17.58408102
2.01,201,-0.043,-1.003,0.125,0.1718874,0.0,0.0,96.18245946,-2.36631654,-17.58408102
2.02,202,-0.044000000000000004,-1.004,0.125,0.0,-0.2291832000000001,0.11459160000000004,96.18245946,-2.37204612,-17.58408102
2.03,203,-0.044000000000000004,-1.004,0.127,0.057295800000000015,-0.40107059999999994,0.057295800000000015,96.18818904,-2.37204612,-17.589810600000003
2.04,204,-0.044000000000000004,-1.003,0.128,0.11459160000000004,-0.5156622000000001,0.0,96.18818904,-2.37204612,-17.59554018
2.05,205,-0.044000000000000004,-1.003,0.127,0.0,-0.5156622000000001,-0.057295800000000015,96.17672988,-2.35485738,-17.59554018
2.0599999999999996,206,-0.043,-1.0,0.126,0.0,-0.6875496,0.0,96.17672988,-2.35485738,-17.60126976
2.07,207,-0.043,-0.998,0.127,0.11459160000000004,-0.8021411999999999,0.057295800000000015,96.18245946,-2.35485738,-17.61272892
2.0799999999999996,208,-0.042,-0.997,0.129,0.11459160000000004,-0.8594370000000001,0.057295800000000015,96.18245946,-2.35485738,-17.6184585
2.09,209,-0.043,-0.997,0.13,0.11459160000000004,-1.0313244000000001,0.11459160000000004,96.18818904,-2.35485738,-17.62991766
2.0999999999999996,210,-0.045,-0.9990000000000001,0.129,0.2291832000000001,-1.2032118,0.11459160000000004,96.18818904,-2.3491278,-17.64137682
2.11,211,-0.045,-1.0,0.129,0.2291832000000001,-1.2032118,0.1718874,96.19391862,-2.3491278,-17.65283598
2.1199999999999997,212,-0.046,-0.9990000000000001,0.129,0.11459160000000004,-0.9167328000000001,0.057295800000000015,96.19391862,-2.3491278,-17.66429514
2.13,213,-0.046,-1.001,0.13,0.1718874,-1.0313244000000001,0.057295800000000015,96.19964819999998,-2.3491278,-17.6757543
2.1399999999999997,214,-0.046,-0.9990000000000001,0.132,0.1718874,-1.0886202,0.11459160000000004,96.19964819999998,-2.3491278,-17.687213460000006
2.15,215,-0.047,-0.9990000000000001,0.134,0.1718874,-1.145916,0.0,96.21110736,-2.3491278,-17.69867262
2.1599999999999997,216,-0.047,-0.997,0.133,0.3437748,-1.145916,0.11459160000000004,96.21683694,-2.3491278,-17.71013178
2.17,217,-0.047,-0.998,0.131,0.286479,-0.9740286,0.11459160000000004,96.21683694,-2.3491278,-17.72159094
2.1799999999999997,218,-0.047,-0.998,0.132,0.40107059999999994,-0.8021411999999999,0.11459160000000004,96.22256652,-2.3491278,-17.72732052
2.19,219,-0.046,-0.9990000000000001,0.132,0.3437748,-0.6302538000000001,0.057295800000000015,96.2282961,-2.3491278,-17.733050100000003
2.1999999999999997,220,-0.047,-0.998,0.132,0.4583664000000001,-0.7448454000000001,0.11459160000000004,96.23975526,-2.35485738,-17.74450926
2.21,221,-0.047,-0.998,0.134,0.5156622000000001,-0.8594370000000001,0.1718874,96.24548484,-2.35485738,-17.75023884
2.2199999999999998,222,-0.048,-0.998,0.134,0.5156622000000001,-0.8021411999999999,0.1718874,96.25121442,-2.35485738,-17.761698000000006
2.23,223,-0.047,-0.998,0.134,0.5156622000000001,-0.9167328000000001,0.2291832000000001,96.25694399999999,-2.35485738,-17.76742758
2.2399999999999998,224,-0.047,-0.998,0.135,0.572958,-0.8594370000000001,0.286479,96.26267357999998,-2.35485738,-17.77888674
2.25,225,-0.047,-0.9990000000000001,0.135,0.572958,-0.8594370000000001,0.2291832000000001,96.27413274,-2.36058696,-17.7903459
2.26,226,-0.046,-1.0,0.135,0.6875496,-0.8594370000000001,0.1718874,96.28559190000001,-2.36058696,-17.79607548
2.27,227,-0.046,-1.0,0.135,0.8021411999999999,-0.8021411999999999,0.11459160000000004,96.29132148,-2.36058696,-17.80180506
2.28,228,-0.047,-1.0,0.134,0.9740286,-0.9167328000000001,0.1718874,96.30278064,-2.36058696,-17.81326422
2.29,229,-0.047,-0.998,0.134,1.145916,-0.8594370000000001,0.1718874,96.3142398,-2.36058696,-17.824723380000005
2.3,230,-0.047,-0.998,0.135,1.3178034,-0.8021411999999999,0.1718874,96.33715812,-2.36631654,-17.83045296
2.31,231,-0.046,-0.998,0.134,1.3750992,-0.7448454000000001,0.2291832000000001,96.34861728,-2.36631654,-17.83618254
2.32,232,-0.046,-0.998,0.134,1.432395,-0.8594370000000001,0.2291832000000001,96.36580602,-2.36631654,-17.847641699999997
2.3299999999999996,233,-0.047,-0.998,0.132,1.5469866,-1.0313244000000001,0.1718874,96.38299476,-2.36631654,-17.85910086
2.34,234,-0.046,-0.998,0.135,1.6042823999999998,-0.9167328000000001,0.11459160000000004,96.4001835,-2.36631654,-17.870560020000006
2.3499999999999996,235,-0.045,-0.9990000000000001,0.136,1.7188740000000002,-0.6875496,0.11459160000000004,96.41737224,-2.36631654,-17.8762896
2.36,236,-0.045,-0.9990000000000001,0.13699999999999998,1.7761698000000001,-0.6302538000000001,0.057295800000000015,96.43456098,-2.36631654,-17.88201918
2.3699999999999997,237,-0.047,-0.9990000000000001,0.13699999999999998,1.9480572,-0.8021411999999999,0.0,96.45747929999999,-2.36631654,-17.88774876
2.38,238,-0.045,-0.996,0.136,1.9480572,-1.0886202,0.11459160000000004,96.48039762,-2.36631654,-17.899207920000006
2.3899999999999997,239,-0.044000000000000004,-0.995,0.138,2.0626488000000003,-1.0886202,0.1718874,96.49758636,-2.36631654,-17.91066708
2.4,240,-0.043,-0.992,0.139,2.1772404,-0.9167328000000001,0.286479,96.52623426,-2.36631654,-17.92212624
2.4099999999999997,241,-0.046,-0.991,0.134,2.6929026,-0.7448454000000001,0.40107059999999994,96.55488216,-2.36631654,-17.927855819999994
2.42,242,-0.047,-0.992,0.136,3.0366774,-0.7448454000000001,0.4583664000000001,96.58353006,-2.37204612,-17.9335854
2.4299999999999997,243,-0.045,-0.992,0.138,3.6096353999999997,-0.6302538000000001,0.4583664000000001,96.62363712,-2.3777757,-17.93931498
2.44,244,-0.045,-0.992,0.141,4.0680017999999984,-0.7448454000000001,0.5156622000000001,96.66374418,-2.3777757,-17.95077414
2.4499999999999997,245,-0.044000000000000004,-0.99,0.141,4.6409598,-0.7448454000000001,0.5156622000000001,96.7153104,-2.38350528,-17.95650372
2.46,246,-0.045,-0.988,0.14400000000000002,5.2712136,-0.572958,0.572958,96.7726062,-2.38923486,-17.9622333
2.4699999999999998,247,-0.044000000000000004,-0.988,0.145,5.7868758000000025,-0.3437748,0.4583664000000001,96.829902,-2.38923486,-17.96796288
2.48,248,-0.042,-0.988,0.14400000000000002,6.2452422,-0.2291832000000001,0.572958,96.89292738,-2.39496444,-17.96796288
2.4899999999999998,249,-0.043,-0.988,0.145,6.589017,-0.3437748,0.572958,96.96168234,-2.40069402,-17.973692460000006
2.5,250,-0.042,-0.987,0.145,6.9327918,-0.4583664000000001,0.6302538000000001,97.0304373,-2.4064236,-17.973692460000006
2.51,251,-0.043,-0.9890000000000001,0.14300000000000002,7.2765666,-0.5156622000000001,0.6302538000000001,97.10492184,-2.41215318,-17.97942204
2.52,252,-0.045,-0.99,0.14400000000000002,7.333862400000001,-0.6302538000000001,0.6302538000000001,97.17940638,-2.41788276,-17.98515162
2.53,253,-0.047,-0.991,0.146,7.6776372,-0.7448454000000001,0.6302538000000001,97.2596205,-2.41788276,-17.99661078
2.54,254,-0.047,-0.993,0.146,8.021412000000002,-0.8594370000000001,0.572958,97.34556419999998,-2.42361234,-18.002340359999994
2.55,255,-0.047,-0.995,0.149,8.136003599999999,-0.8594370000000001,0.6302538000000001,97.42577832,-2.42934192,-18.01379952
2.56,256,-0.047,-0.996,0.149,8.250595200000001,-0.6875496,0.6875496,97.51172202,-2.4350715000000003,-18.019529100000003
2.57,257,-0.044000000000000004,-0.995,0.15,8.307891,-0.8594370000000001,0.6875496,97.59766572,-2.44080108,-18.03098826
2.5799999999999996,258,-0.044000000000000004,-0.995,0.155,8.250595200000001,-1.145916,0.6875496,97.67787984,-2.44080108,-18.04244742
2.59,259,-0.045,-0.9940000000000001,0.156,8.193299399999999,-1.2032118,0.7448454000000001,97.76382354,-2.44653066,-18.05390658
2.5999999999999996,260,-0.046,-0.992,0.155,8.250595200000001,-1.0313244000000001,0.6875496,97.84976724,-2.45226024,-18.05963616
2.61,261,-0.046,-0.991,0.154,8.5370742,-0.6875496,0.7448454000000001,97.93571094,-2.45798982,-18.07109532
2.6199999999999997,262,-0.047,-0.991,0.155,8.651665800000002,-0.7448454000000001,0.6875496,98.02165464,-2.4637194,-18.0768249
2.63,263,-0.048,-0.99,0.156,8.7662574,-0.7448454000000001,0.8021411999999999,98.11332792,-2.46944898,-18.08255448
2.6399999999999997,264,-0.049,-0.99,0.158,8.9381448,-0.6875496,0.8594370000000001,98.2050012,-2.47517856,-18.08828406
2.65,265,-0.049,-0.991,0.159,9.0527364,-0.7448454000000001,0.9167328000000001,98.29667448,-2.48663772,-18.09974322
2.6599999999999997,266,-0.05,-0.991,0.16399999999999998,9.0527364,-0.8021411999999999,0.9740286,98.38834776,-2.4923672999999997,-18.1054728
2.67,267,-0.048,-0.9890000000000001,0.166,9.1100322,-0.8594370000000001,1.0886202,98.48002104,-2.49809688,-18.11693196
2.6799999999999997,268,-0.048,-0.987,0.168,9.2819196,-0.8021411999999999,1.145916,98.5774239,-2.50955604,-18.12266154
2.69,269,-0.048,-0.987,0.17,9.7975818,-0.572958,1.145916,98.67482676,-2.5210152000000003,-18.1341207
2.6999999999999997,270,-0.05,-0.987,0.171,10.084060800000001,-0.6875496,1.2032118,98.77795919999998,-2.53247436,-18.13985028
2.71,271,-0.049,-0.987,0.171,10.2559482,-0.572958,1.145916,98.88109164,-2.53820394,-18.14557986
2.7199999999999998,272,-0.05,-0.987,0.17300000000000001,10.4851314,-0.4583664000000001,1.145916,98.98995366,-2.5496631,-18.15130944
2.73,273,-0.052000000000000005,-0.986,0.175,10.828906199999999,-0.3437748,1.2032118,99.09881568,-2.5611222600000003,-18.15703902
2.7399999999999998,274,-0.052000000000000005,-0.9840000000000001,0.177,11.0580894,-0.286479,1.3178034,99.21340727999998,-2.57258142,-18.15703902
2.75,275,-0.053,-0.983,0.18,11.2299768,-0.1718874,1.3178034,99.32799888,-2.58404058,-18.162768600000003
2.76,276,-0.052000000000000005,-0.98,0.183,11.5737516,0.0,1.3750992,99.44832006,-2.6012293200000003,-18.162768600000003
2.77,277,-0.051,-0.978,0.18600000000000005,12.032118,0.057295800000000015,1.432395,99.56864124,-2.61268848,-18.162768600000003
2.78,278,-0.05,-0.978,0.187,12.605075999999999,0.286479,1.5469866,99.694692,-2.62987722,-18.162768600000003
2.79,279,-0.051,-0.977,0.19,13.0634424,0.5156622000000001,1.4896908000000002,99.82647233999998,-2.6413363800000003,-18.15703902
2.8,280,-0.051,-0.975,0.192,13.636400400000001,0.8594370000000001,1.432395,99.96971184,-2.65852512,-18.15130944
2.81,281,-0.051,-0.975,0.19699999999999998,14.209358400000001,1.145916,1.3750992,100.11295134,-2.67571386,-18.13985028
2.82,282,-0.052000000000000005,-0.975,0.198,14.667724800000002,1.3178034,1.4896908000000002,100.26192042,-2.6929026,-18.12839112
2.8299999999999996,283,-0.052000000000000005,-0.973,0.2,15.126091199999998,1.6042823999999998,1.6042823999999998,100.4108895,-2.71009134,-18.11120238
2.84,284,-0.054000000000000006,-0.9740000000000001,0.20199999999999999,15.928232399999999,1.6615782,1.7188740000000002,100.57131774,-2.72728008,-18.09401364
2.8499999999999996,285,-0.053,-0.9740000000000001,0.204,16.615782,1.7761698000000001,1.8907614,100.74320514,-2.7501984,-18.08255448
2.86,286,-0.051,-0.973,0.207,17.303331600000003,1.8907614,1.9480572,100.91509254,-2.77311672,-18.06536574
2.8699999999999997,287,-0.05,-0.973,0.20800000000000002,17.8189938,1.8907614,2.1772404,101.0984391,-2.79603504,-18.048177
2.88,288,-0.051,-0.971,0.21100000000000002,18.277360199999997,2.0053530000000004,2.1199446,101.28178566,-2.81895336,-18.03098826
2.8899999999999997,289,-0.052000000000000005,-0.968,0.215,18.907614,2.0053530000000004,2.0626488000000003,101.47086180000001,-2.84187168,-18.00806994
2.9,290,-0.052000000000000005,-0.9670000000000001,0.218,19.767051000000002,2.0626488000000003,2.1772404,101.6713971,-2.87051958,-17.9908812
2.9099999999999997,291,-0.053,-0.966,0.21899999999999997,20.3973048,2.1772404,2.1772404,101.87766198,-2.8934379,-17.973692460000006
2.92,292,-0.053,-0.965,0.223,21.199446,2.4064236,2.291832,102.08965644,-2.9220857999999996,-17.95077414
2.9299999999999997,293,-0.054000000000000006,-0.965,0.226,22.0015872,2.5783110000000002,2.4637194,102.31311006,-2.9507337000000002,-17.927855819999994
2.94,294,-0.054000000000000006,-0.966,0.23,22.5745452,2.6356068,2.5210152000000003,102.54229326,-2.9793816000000004,-17.9049375
2.9499999999999997,295,-0.055,-0.966,0.23199999999999998,23.0902074,2.6929026,2.6929026,102.77147646,-3.0137590800000003,-17.88201918
2.96,296,-0.054000000000000006,-0.963,0.239,23.5485738,2.6929026,2.86479,103.01211882,-3.04813656,-17.85910086
2.9699999999999998,297,-0.051,-0.963,0.242,24.1215318,2.8074942000000003,3.0366774,103.25276118,-3.0825140400000004,-17.83618254
2.98,298,-0.049,-0.9590000000000001,0.245,24.8663772,2.9793816000000004,3.0939732,103.50486270000002,-3.11689152,-17.81326422
2.9899999999999998,299,-0.049,-0.9570000000000001,0.247,25.668518399999996,3.0366774,3.2085647999999996,103.7626938,-3.15699858,-17.78461632
3.0,300,-0.052000000000000005,-0.9540000000000001,0.249,26.241476399999996,2.9793816000000004,3.2658606,104.03198405999998,-3.1913760600000005,-17.761698000000006
3.01,301,-0.055,-0.9520000000000001,0.251,27.043617600000005,3.1512689999999997,3.2658606,104.30127432,-3.2314831199999987,-17.73877968
3.02,302,-0.061,-0.95,0.254,28.132237800000002,3.4377480000000005,3.2085647999999996,104.58775332,-3.27159018,-17.71013178
3.03,303,-0.062,-0.95,0.263,28.9916748,3.7242269999999995,3.0366774,104.87996189999998,-3.3116972399999995,-17.6757543
3.04,304,-0.061,-0.9490000000000001,0.268,29.793815999999996,3.9534102,2.9793816000000004,105.17790006,-3.34607472,-17.64137682
3.05,305,-0.054000000000000006,-0.9490000000000001,0.271,30.8251404,4.0680017999999984,3.1512689999999997,105.48729738000002,-3.38618178,-17.606999339999994
3.06,306,-0.05,-0.95,0.27899999999999997,31.340802600000004,4.2398892,3.4950437999999995,105.80242428,-3.43201842,-17.57262186
3.07,307,-0.052000000000000005,-0.948,0.28300000000000003,31.9710564,4.583664,3.9534102,106.12328076,-3.48358464,-17.538244380000002
3.08,308,-0.057999999999999996,-0.9490000000000001,0.28800000000000003,32.830493399999995,4.6982555999999995,4.2398892,106.45559640000002,-3.5351508600000003,-17.498137319999998
3.09,309,-0.059000000000000004,-0.9470000000000001,0.289,34.0337052,4.6409598,4.3544808,106.79937120000001,-3.59244666,-17.46375984
3.0999999999999996,310,-0.06,-0.943,0.295,35.695283399999994,4.583664,4.297185,107.16033474,-3.644012880000001,-17.429382359999998
3.11,311,-0.063,-0.9309999999999999,0.301,36.898495200000006,4.4117766,4.010706000000001,107.52702786,-3.6955791,-17.39500488
3.1199999999999997,312,-0.062,-0.9209999999999999,0.307,38.27359439999999,4.6409598,3.8388186,107.91663929999999,-3.74714532,-17.354897819999998
3.13,313,-0.063,-0.9109999999999999,0.313,39.4195104,4.8701430000000006,3.8388186,108.31198032,-3.79871154,-17.31479076
3.1399999999999997,314,-0.065,-0.9059999999999999,0.317,40.8519054,5.1566220000000005,3.7815228,108.72451008,-3.85027776,-17.2746837
3.15,315,-0.069,-0.905,0.318,42.5707794,5.3285094000000015,3.7815228,109.15422858,-3.90184398,-17.23457664
3.1599999999999997,316,-0.07,-0.912,0.322,44.51883660000001,5.2139178,3.7815228,109.60113582,-3.9534102,-17.188740000000006
3.17,317,-0.07,-0.9209999999999999,0.322,46.1804148,4.6982555999999995,4.010706000000001,110.06523180000002,-4.00497642,-17.15436252
3.1799999999999997,318,-0.071,-0.925,0.319,47.7274014,3.8961144,4.4117766,110.54651652,-4.06227222,-17.12571462
3.19,319,-0.073,-0.9259999999999999,0.316,48.4722468,3.7815228,4.6982555999999995,111.0392604,-4.11383844,-17.1027963
3.1999999999999997,320,-0.071,-0.9229999999999999,0.319,49.1025006,3.8961144,4.8701430000000006,111.53200428,-4.17686382,-17.0741484
3.21,321,-0.068,-0.9179999999999999,0.326,50.0765292,4.1825934,5.042030400000002,112.03620732,-4.23415962,-17.05123008
3.2199999999999998,322,-0.066,-0.914,0.335,51.10785360000001,4.0680017999999984,5.2712136,112.55186952,-4.297185000000002,-17.02831176
3.23,323,-0.067,-0.9079999999999999,0.33799999999999997,51.7954032,3.8388186,5.3858052,113.07899088,-4.36593996,-17.00539344
3.2399999999999998,324,-0.069,-0.902,0.322,52.2537696,3.2658606,5.3858052,113.60611224,-4.42323576,-16.9882047
3.25,325,-0.07400000000000001,-0.902,0.316,52.8840234,2.6356068,5.1566220000000005,114.13323359999998,-4.48053156,-16.976745540000003
3.26,326,-0.079,-0.912,0.322,53.858052,2.1199446,4.9274388,114.68327327999998,-4.53209778,-16.97101596
3.27,327,-0.081,-0.929,0.32299999999999995,54.3164184,2.0626488000000003,4.6982555999999995,115.23331296,-4.5836640000000015,-16.96528638
3.28,328,-0.083,-0.946,0.311,54.25912260000001,1.7188740000000002,4.583664,115.78335264,-4.63523022,-16.96528638
3.29,329,-0.08900000000000001,-0.9590000000000001,0.304,53.628868800000006,1.145916,4.8701430000000006,116.32766274,-4.68106686,-16.96528638
3.3,330,-0.095,-0.9670000000000001,0.327,51.5089242,0.0,5.6722842,116.84332494,-4.73263308,-16.9882047
3.31,331,-0.096,-0.966,0.34600000000000003,48.5868384,-1.3178034,6.990087599999999,117.34179840000002,-4.784199299999999,-17.02258218
3.32,332,-0.083,-0.97,0.36,45.3782736,-1.0313244000000001,8.021412000000002,117.80589438,-4.85295426,-17.06268924
3.33,333,-0.065,-0.976,0.366,42.1697088,-0.2291832000000001,8.250595200000001,118.23561288,-4.9217092199999986,-17.09706672
3.34,334,-0.071,-0.9840000000000001,0.38,40.966497,-1.0886202,7.333862400000001,118.65387222,-4.97900502,-17.13717378
3.3499999999999996,335,-0.08800000000000001,-1.025,0.39299999999999996,42.5707794,-0.8594370000000001,5.958763200000001,119.07786114,-5.02484166,-17.16582168
3.36,336,-0.10400000000000001,-1.083,0.385,42.91455420000001,1.2605076000000002,5.0993262,119.51330922000002,-5.07640788,-17.171551259999998
3.3699999999999997,337,-0.131,-1.1159999999999999,0.3670000000000001,40.33624320000001,3.7242269999999995,4.1825934,119.9201094,-5.127974099999999,-17.1600921
3.38,338,-0.146,-1.109,0.37,36.8411994,3.4377480000000005,3.6096353999999997,120.29253210000002,-5.17954032,-17.14290336
3.3899999999999997,339,-0.134,-1.069,0.38299999999999995,33.0596766,0.8021411999999999,4.6982555999999995,120.63057732,-5.22537696,-17.15436252
3.4,340,-0.10099999999999999,-1.012,0.366,29.392745399999995,-2.0626488000000003,6.8182002000000015,120.91132674,-5.2712136,-17.20019916
3.4099999999999997,341,-0.068,-0.976,0.353,26.7571386,-3.6096353999999997,8.021412000000002,121.19207616,-5.31705024,-17.268954119999997
3.42,342,-0.036000000000000004,-0.9540000000000001,0.331,23.5485738,-3.5523396000000003,6.990087599999999,121.43844809999999,-5.3571573,-17.331979500000006
3.4299999999999997,343,-0.02,-0.938,0.307,21.485925,-5.6149884000000005,4.9274388,121.66190172000002,-5.36861646,-17.40073446
3.44,344,-0.012,-0.929,0.28300000000000003,19.365980399999998,-9.453807,2.8074942000000003,121.8681666,-5.339968560000001,-17.492407739999994
3.4499999999999997,345,0.0,-0.9259999999999999,0.268,16.959556799999998,-13.120738199999998,1.2032118,122.01713568,-5.2654840200000015,-17.59554018
3.46,346,0.011000000000000001,-0.92,0.244,15.4125702,-16.501190400000002,0.572958,122.18902308,-5.17954032,-17.733050100000003
3.4699999999999998,347,0.022000000000000002,-0.909,0.222,14.037471,-19.0222056,0.2291832000000001,122.34372174,-5.07640788,-17.89347834
3.48,348,0.025,-0.875,0.214,11.802934800000001,-21.142150199999996,-0.6302538000000001,122.48123166,-4.9560867,-18.05963616
3.4899999999999998,349,0.027999999999999997,-0.82,0.22,9.8548776,-25.78311,-2.0053530000000004,122.60728242,-4.79565846,-18.26017146
3.5,350,0.047,-0.7340000000000001,0.235,9.1100322,-31.741873200000004,-3.380452200000001,122.71041486,-4.5836640000000015,-18.49508424
3.51,351,0.028999999999999998,-0.657,0.259,9.6256944,-36.2682414,-4.2398892,122.83073604,-4.34302164,-18.77010408
3.52,352,0.045,-0.579,0.275,9.9694692,-38.0444112,-4.1252976000000015,122.96251637999998,-4.0966497,-19.056583080000006
3.53,353,0.059000000000000004,-0.515,0.278,11.688343199999998,-40.2216516,-3.2658606,123.10575588,-3.8388186000000006,-19.3659804
3.54,354,0.044000000000000004,-0.564,0.298,18.793022399999998,-43.20103320000001,-2.5210152000000003,123.32347992,-3.57525792,-19.69829604
3.55,355,0.028999999999999998,-0.727,0.327,27.788463,-44.977203,-3.2085647999999996,123.62141808,-3.28877892,-20.04207084
3.56,356,0.017,-0.83,0.32299999999999995,27.4446882,-45.9512316,-5.5003968,123.92508582,-2.9793816000000004,-20.38011606
3.57,357,0.028999999999999998,-0.804,0.28600000000000003,23.0902074,-46.925260200000004,-8.5370742,124.18291692,-2.6413363800000003,-20.70670212
3.58,358,0.032,-0.758,0.23,20.7983754,-49.04520479999999,-10.943497800000001,124.4178297,-2.2631841,-21.03328818
3.59,359,0.05,-0.7,0.191,15.756345,-51.852699,-13.0061466,124.59544667999998,-1.85638392,-21.371333399999997
3.5999999999999996,360,0.037000000000000005,-0.647,0.17600000000000002,10.657018800000001,-54.6601932,-14.896907999999998,124.71003827999998,-1.41520626,-21.72083778
3.61,361,0.044000000000000004,-0.564,0.177,2.4064236,-56.5509546,-16.386598799999998,124.75014534,-0.9453807,-22.08180132
3.6199999999999997,362,0.051,-0.46299999999999997,0.19,-4.2398892,-61.4210976,-16.386598799999998,124.72149744,-0.4526368200000001,-22.47714234
3.63,363,0.055,-0.36,0.192,-8.7662574,-69.32791800000001,-15.011499599999999,124.64128332,0.06875496,-22.9469679
3.6399999999999997,364,0.061,-0.29100000000000004,0.12300000000000001,-9.396511199999999,-74.7137232,-13.464512999999998,124.54961004,0.61306506,-23.46835968
3.65,365,0.055999999999999994,-0.256,0.07,-5.3858052,-75.74504759999998,-12.776963400000001,124.49231424,1.16310474,-24.00121062
3.6599999999999997,366,0.038,-0.273,0.055,-1.2032118,-71.79163740000001,-13.0061466,124.48085508,1.6844965200000002,-24.49968408
3.67,367,0.012,-0.305,0.027000000000000003,-0.1718874,-64.8015498,-14.381245800000002,124.46939592,2.18296998,-24.93513216
3.6799999999999997,368,0.013000000000000001,-0.319,0.006999999999999999,2.291832,-59.874111,-15.9855282,124.48658466,2.65852512,-25.3247436
3.69,369,0.024,-0.36200000000000004,0.013999999999999999,7.7922288,-58.49901179999999,-17.8189938,124.55533962,3.14553942,-25.69143672
3.6999999999999997,370,0.06,-0.384,0.012,10.599723,-57.2958,-19.595163600000006,124.64128332,3.644012880000001,-26.03521152
3.71,371,0.096,-0.389,0.004,12.9488508,-54.14453099999999,-21.142150199999996,124.75587492,4.13675676,-26.34460884
3.7199999999999998,372,0.095,-0.366,-0.018000000000000002,15.2406828,-51.1651494,-21.886995600000002,124.89911442,4.612311900000001,-26.62535826
3.73,373,0.057999999999999996,-0.33299999999999996,-0.022000000000000002,20.454600600000006,-50.6494872,-20.2254174,125.08819056,5.07640788,-26.91183726
3.7399999999999998,374,0.008,-0.271,0.012,26.814434400000003,-53.68616460000001,-16.157415599999997,125.3345625,5.52331512,-27.2441529
3.75,375,-0.02,-0.20800000000000002,0.051,33.804522,-61.020027,-12.3758928,125.64395982,5.9874111,-27.65095308
3.76,376,-0.01,-0.147,0.066,38.7892566,-67.9528188,-10.4278356,125.9934642,6.48015498,-28.120778640000005
3.77,377,0.026000000000000002,-0.09300000000000001,0.062,42.97185,-70.9894962,-11.5737516,126.38307564,7.001546759999999,-28.60206336
3.78,378,0.107,-0.073,0.073,47.3836266,-68.9268474,-16.558486199999994,126.81852372,7.55731602,-29.03751144
3.79,379,0.185,-0.099,0.042,51.6235158,-62.5097178,-24.8663772,127.30553802,8.136003599999999,-29.364097500000003
3.8,380,0.20800000000000002,-0.154,-0.022000000000000002,54.4883058,-56.3217714,-35.0077338,127.83265938,8.77198698,-29.58182154
3.81,381,0.17300000000000001,-0.203,-0.053,53.9153478,-53.8007562,-43.9458786,128.36551032,9.453807000000001,-29.71360188
3.82,382,0.086,-0.263,0.038,49.90464179999999,-52.7694318,-46.982556,128.85825419999998,10.15281576,-29.81673432
3.83,383,0.035,-0.16399999999999998,0.133,44.404245,-60.7908438,-42.97185,129.28224312,10.87474284,-29.994351300000005
3.84,384,0.055999999999999994,0.17800000000000002,0.40700000000000003,31.455394199999997,-69.041439,-47.555514,129.56872212000002,11.688343199999998,-30.212075339999995
3.8499999999999996,385,0.237,0.7,0.706,-10.943497800000001,-67.895523,-58.78549079999999,129.45413052,12.58215768,-30.34385568
3.86,386,0.071,1.157,1.052,-43.0864416,-66.80690279999999,-75.63045600000002,129.01868244,13.596293340000004,-30.37250358
3.8699999999999997,387,0.218,-1.18,1.673,67.036086,-11.0007936,-38.67466500000001,129.74060952,13.96298646,-30.20061618
3.88,388,0.1,-0.726,3.28,820.0174896000003,-65.7182826,-14.7250206,138.0255822,14.541674039999998,-30.395421899999995
3.8899999999999997,389,0.387,-0.28300000000000003,3.647,629.394363,-141.6352176,-94.53807,144.41979348,16.208981819999998,-30.43552896
3.9,390,0.919,-0.731,3.127,62.5670136,10.7143146,-36.898495200000006,145.1589093,16.329303000000003,-30.051647100000004
3.9099999999999997,391,1.196,-0.998,2.865,108.46094939999999,41.9978214,-34.262888399999994,146.40795774,16.16314518,-29.51306658
3.92,392,1.012,-0.675,3.3560000000000003,212.2236432,28.074942,-47.211739200000004,148.71697848,16.16314518,-28.92291984
3.9299999999999997,393,0.664,0.028999999999999998,2.7489999999999997,238.4651196,45.893935799999994,-44.748019799999994,151.31247822,15.974069039999998,-28.26401814
3.94,394,0.599,0.012,1.98,247.63244759999998,34.37748,-55.2331512,154.01111039999995,15.8995845,-27.57073896
3.9499999999999997,395,0.46399999999999997,-0.207,1.516,260.0083404,20.3973048,-48.3003594,156.80714544,15.89385492,-27.00351054
3.96,396,0.376,-0.21,1.528,238.8661902,6.130650599999999,-47.4409224,159.3682677,15.991257780000002,-26.49357792
3.9699999999999998,397,0.415,-0.043,1.3840000000000001,219.0991392,13.2353298,-37.41415739999999,161.71166592,15.974069039999998,-26.06385942
3.98,398,0.408,-0.114,1.547,206.1502884,14.7250206,-30.080295,163.90036548,15.90531408,-25.70289588
3.9899999999999998,399,0.46,0.065,1.636,180.0234036,7.6776372,-34.8931422,165.83123394,15.90531408,-25.31328444
4.0,400,0.457,-0.11199999999999999,1.787,159.51150719999995,9.7975818,-34.0337052,167.55010794,15.8709366,-24.93513216
4.01,401,0.47200000000000003,-0.2,1.7480000000000002,142.09358400000005,14.1520626,-28.6479,169.0799058,15.77353374,-24.60281652
4.02,402,0.466,0.042,1.557,118.65960179999999,10.657018800000001,-23.14750320000001,170.35760213999995,15.6990492,-24.33925584
4.03,403,0.355,-0.06,1.374,100.4395374,8.136003599999999,-20.1108258,171.43476318,15.6417534,-24.11007264
4.04,404,0.321,-0.15,1.34,84.1675302,6.6463128000000005,-16.558486199999994,172.34003682,15.59018718,-23.92672608
4.05,405,0.309,-0.08800000000000001,1.401,71.1040878,4.9847346,-9.8548776,173.0906118,15.54435054,-23.81213448
4.06,406,0.371,-0.036000000000000004,1.472,56.0352924,1.9480572,-7.333862400000001,173.68075854,15.527161799999998,-23.73192036
4.07,407,0.381,-0.011000000000000001,1.484,44.2896534,-0.2291832000000001,-5.72958,174.14485452,15.527161799999998,-23.66889498
4.08,408,0.34700000000000003,-0.002,1.4240000000000002,30.252182399999995,-0.8594370000000001,-4.6982555999999995,174.465711,15.53862096,-23.61732876
4.09,409,0.301,-0.027999999999999997,1.325,20.5118964,0.286479,-5.2712136,174.68916462,15.53862096,-23.56003296
4.1,410,0.327,-0.044000000000000004,1.2409999999999999,20.9702628,-5.0993262,-7.6776372,174.92980698,15.59591676,-23.47981884
4.109999999999999,411,0.32799999999999996,-0.079,1.109,30.8251404,-7.6203414,-10.4851314,175.27358178,15.676130880000002,-23.376686399999997
4.12,412,0.314,-0.075,1.11,56.66554620000001,-15.928232399999999,-13.636400400000001,175.88664684,15.83655912,-23.23917648
4.13,413,0.365,-0.03,1.084,56.2071798,-26.41336380000001,-12.5477802,176.49398232,16.1001198,-23.11312572
4.14,414,0.292,-0.16,0.892,36.2109456,-19.767051000000002,-8.5370742,176.88932334,16.3006551,-23.02718202
4.1499999999999995,415,0.215,-0.20800000000000002,0.787,30.080295,-12.318597,-9.1100322,177.20445024,16.420976279999998,-22.94123832
4.16,416,0.24,-0.11900000000000001,0.778,25.9549974,-5.1566220000000005,-10.657018800000001,177.5023884,16.4725425,-22.82664672
4.17,417,0.198,-0.138,0.684,9.8548776,5.0993262,-8.307891,177.62843916,16.426705860000002,-22.74070302
4.18,418,0.18600000000000005,-0.045,0.679,4.6982555999999995,11.2872726,-6.3025379999999975,177.69146454000003,16.312114259999998,-22.67194806
4.1899999999999995,419,0.179,-0.053,0.665,2.0626488000000003,15.928232399999999,-5.2139178,177.72584202,16.1574156,-22.61465226
4.2,420,0.201,0.102,0.7120000000000001,0.3437748,13.9228794,-3.7242269999999995,177.7602195,16.01990568,-22.56881562
4.21,421,0.20800000000000002,0.16399999999999998,0.726,-11.172680999999999,10.886202,-1.7761698000000001,177.65135748,15.91677324,-22.55162688
4.22,422,0.20600000000000002,0.20600000000000002,0.746,-18.506543399999998,7.2765666,-0.2291832000000001,177.46228134,15.84801828,-22.5458973
4.2299999999999995,423,0.191,0.22899999999999998,0.775,-21.4286292,4.6982555999999995,1.0313244000000001,177.2445573,15.80218164,-22.55735646
4.24,424,0.192,0.263,0.809,-22.1161788,4.3544808,1.2605076000000002,177.0153741,15.756345000000001,-22.5745452
4.25,425,0.183,0.297,0.841,-21.0848544,5.7868758000000025,1.0886202,176.86067544,15.69331962,-22.56881562
4.26,426,0.18,0.281,0.8740000000000001,-19.0222056,8.136003599999999,1.0886202,176.66014014,15.6131055,-22.58027478
4.27,427,0.24100000000000002,0.07,0.968,-22.0015872,10.5424272,1.2032118,176.43668652000005,15.509973059999998,-22.59173394
4.28,428,0.24,0.02,1.033,-28.762491600000004,12.7196676,1.6042823999999998,176.13874836,15.38965188,-22.60892268
4.29,429,0.249,0.031,1.044,-31.340802600000004,13.8655836,1.9480572,175.8121623,15.25214196,-22.62611142
4.3,430,0.245,0.03,1.057,-30.595957199999997,13.2353298,2.0626488000000003,175.50276498,15.12036162,-22.64330016
4.31,431,0.239,0.01,1.062,-30.080295,10.599723,2.4064236,175.19336766,15.01722918,-22.6604889
4.32,432,0.25,0.001,1.069,-29.335449600000004,7.2765666,2.6356068,174.88397034,14.94274464,-22.6891368
4.33,433,0.25,-0.005,1.081,-28.6479,3.7815228,2.5783110000000002,174.58603218000005,14.90836716,-22.7177847
4.34,434,0.255,-0.009000000000000001,1.087,-27.8457588,1.2032118,2.6356068,174.29382360000002,14.896907999999998,-22.7464326
4.35,435,0.26899999999999996,-0.013999999999999999,1.092,-26.69984280000001,-0.286479,2.6356068,174.03026291999996,14.896907999999998,-22.76935092
4.36,436,0.265,-0.024,1.075,-25.4393352,-1.7188740000000002,2.7501984,173.76097266000005,14.914096740000002,-22.803728399999997
4.37,437,0.265,-0.027000000000000003,1.051,-23.14750320000001,-2.1772404,2.8074942000000003,173.5203303,14.937015060000002,-22.83810588
4.38,438,0.265,-0.026000000000000002,1.0290000000000001,-20.5118964,-1.3178034,2.2345362,173.30260626,14.94847422,-22.8610242
4.39,439,0.262,-0.026000000000000002,1.038,-18.162768600000003,-0.1718874,2.0053530000000004,173.11353012,14.954203799999998,-22.88394252
4.3999999999999995,440,0.273,-0.031,1.046,-16.329303,0.572958,1.8907614,172.96456103999995,14.94847422,-22.90113126
4.41,441,0.272,-0.04,1.0390000000000001,-14.667724800000002,1.0886202,2.1772404,172.80986238,14.937015060000002,-22.92404958
4.42,442,0.27,-0.038,1.037,-13.2353298,0.6875496,2.1199446,172.66662288,14.9255559,-22.9469679
4.43,443,0.271,-0.047,1.035,-11.9748222,0.5156622000000001,2.0626488000000003,172.54057212,14.919826320000002,-22.96988622
4.4399999999999995,444,0.254,-0.048,1.014,-11.2299768,-0.7448454000000001,2.0053530000000004,172.42025094000005,14.9255559,-22.99280454
4.45,445,0.261,-0.057999999999999996,0.9890000000000001,-10.313244000000001,-2.6929026,2.0053530000000004,172.33430724,14.954203799999998,-23.00999328
4.46,446,0.244,-0.051,0.993,-8.9954406,-3.3231564,2.0053530000000004,172.23690438,14.9828517,-23.03864118
4.47,447,0.25,-0.06,1.008,-8.136003599999999,-3.2085647999999996,1.9480572,172.1452311,15.011499600000002,-23.0615595
4.4799999999999995,448,0.244,-0.049,1.003,-6.9327918,-2.4637194,1.8334656000000005,172.07074656,15.03441792,-23.08447782
4.49,449,0.256,-0.059000000000000004,1.008,-5.042030400000002,-2.1199446,1.9480572,172.01345076,15.05733624,-23.10739614
4.5,450,0.242,-0.059000000000000004,1.004,-3.9534102,-2.4064236,2.0626488000000003,172.01918034,15.06306582,-23.1188553
4.51,451,0.24,-0.044000000000000004,0.985,-2.6929026,-2.291832,2.0626488000000003,171.98480286,15.08598414,-23.14177362
4.52,452,0.26,-0.063,0.9940000000000001,-1.432395,-1.8334656000000005,2.0626488000000003,171.96188454,15.097443299999998,-23.17042152
4.53,453,0.251,-0.051,0.993,-0.8594370000000001,-0.7448454000000001,1.8334656000000005,171.95042538,15.10317288,-23.18761026
4.54,454,0.249,-0.038,0.993,-0.8021411999999999,0.286479,1.8907614,171.93896622,15.097443299999998,-23.204798999999998
4.55,455,0.254,-0.049,0.9840000000000001,-0.5156622000000001,1.3178034,2.0053530000000004,172.06501698,15.08598414,-23.19333984
4.56,456,0.254,-0.057999999999999996,0.992,0.2291832000000001,1.2605076000000002,1.8334656000000005,172.06501698,15.0687954,-23.21052858
4.57,457,0.254,-0.047,1.003,0.5156622000000001,1.8907614,1.8907614,172.06501698,15.04587708,-23.227717320000004
4.58,458,0.239,-0.040999999999999995,0.9890000000000001,0.6875496,2.0053530000000004,2.1199446,172.06501698,15.02295876,-23.25063564
4.59,459,0.255,-0.053,0.9640000000000001,1.3750992,1.3750992,1.6042823999999998,172.07647614,15.00577002,-23.2620948
4.6,460,0.23399999999999999,-0.038,0.943,1.8907614,3.2658606,1.5469866,172.16241983999996,14.95993338,-23.2620948
4.61,461,0.244,-0.051,0.925,1.6615782,4.6982555999999995,1.432395,172.173879,14.914096740000002,-23.26782438
4.62,462,0.235,-0.05,0.932,1.0886202,6.1879464,1.0886202,172.18533816,14.85107136,-23.27355396
4.63,463,0.23600000000000002,-0.027000000000000003,0.9590000000000001,1.2032118,8.250595200000001,0.8594370000000001,172.19679732,14.770857239999998,-23.27355396
4.64,464,0.23,-0.032,1.002,2.0626488000000003,9.3392154,0.572958,172.21971564,14.67345438,-23.26782438
4.6499999999999995,465,0.23199999999999998,-0.045,1.01,2.5783110000000002,9.2819196,0.40107059999999994,172.27701144,14.576051520000002,-23.25636522
4.66,466,0.254,-0.044000000000000004,0.995,2.9220858,9.5111028,0.6302538000000001,172.30565934,14.47864866,-23.25063564
4.67,467,0.195,-0.015,0.99,2.7501984,9.682990199999999,1.3178034,172.33430724,14.381245800000002,-23.25636522
4.68,468,0.252,-0.091,0.975,1.6042823999999998,11.6310474,0.7448454000000001,172.35149598,14.266654199999998,-23.25063564
4.6899999999999995,469,0.255,-0.046,0.993,2.2345362,16.272007199999994,0.11459160000000004,172.3744143,14.10622596,-23.2334469
4.7,470,0.262,-0.057,1.008,3.7815228,20.8556712,-0.8594370000000001,172.43171009999998,13.90569066,-23.19906942
4.71,471,0.23600000000000002,-0.065,1.02,4.583664,27.1582092,-1.6042823999999998,172.48900590000005,13.642129979999998,-23.153232780000003
4.72,472,0.221,-0.055999999999999994,0.977,3.9534102,31.455394199999997,-2.4637194,172.53484254,13.33273266,-23.09593698
4.7299999999999995,473,0.203,-0.043,0.965,3.4377480000000005,31.455394199999997,-2.4637194,172.58067918,13.02906492,-23.03864118
4.74,474,0.191,-0.027000000000000003,0.968,2.0053530000000004,32.085648000000006,-2.1772404,172.60932708,12.71393802,-22.98134538
4.75,475,0.195,-0.053,0.988,0.7448454000000001,35.0077338,-2.8074942000000003,172.63797498,12.370163219999998,-22.91259042
4.76,476,0.182,-0.034,0.985,-0.8594370000000001,37.013086799999996,-2.6929026,172.63797498,12.00919968,-22.84956504
4.77,477,0.183,-0.033,0.98,-2.86479,34.7785506,-2.3491277999999998,172.61505666,11.67115446,-22.792269240000003
4.78,478,0.177,-0.05,0.996,-3.380452200000001,33.0596766,-2.4637194,172.59213834,11.35029798,-22.73497344
4.79,479,0.183,-0.046,1.005,-3.4950437999999995,32.372127,-2.9793816000000004,172.56349043999995,11.03517108,-22.66621848
4.8,480,0.175,-0.034,1.0190000000000001,-3.7815228,31.913760600000003,-3.6096353999999997,172.5463017,10.72004418,-22.59746352
4.81,481,0.171,-0.039,1.034,-4.7555514,34.1482968,-4.6982555999999995,172.51192422000003,10.39345812,-22.517249399999997
4.82,482,0.113,-0.023,1.0390000000000001,-6.3025379999999975,40.10706,-5.3285094000000015,172.45462842,10.00384668,-22.41984654
4.83,483,0.213,-0.068,0.982,-6.7609043999999985,41.3102718,-5.5003968,172.39733262,9.60850566,-22.32244368
4.84,484,0.172,-0.095,1.0,-5.1566220000000005,39.4195104,-6.130650599999999,172.35722556000005,9.224623800000002,-22.219311240000003
4.85,485,0.174,-0.095,0.995,-4.297185,35.9244666,-5.6149884000000005,172.32857766,8.88657858,-22.12763796
4.86,486,0.16399999999999998,-0.09,0.972,-2.5210152000000003,32.7159018,-5.042030400000002,172.31138892,8.57145168,-22.04169426
4.87,487,0.13699999999999998,-0.081,0.97,-0.1718874,30.7678446,-4.583664,172.3171185,8.27351352,-21.96148014
4.88,488,0.131,-0.079,0.97,2.2345362,29.4500412,-4.1825934,172.34576639999997,7.987034519999999,-21.886995600000002
4.89,489,0.114,-0.073,0.97,4.5263682,27.903054600000004,-3.8388186,172.39733262,7.717744259999999,-21.81824064
4.8999999999999995,490,0.099,-0.073,0.961,6.417129599999999,24.1215318,-3.2085647999999996,172.47754674,7.477101899999999,-21.76094484
4.91,491,0.098,-0.059000000000000004,0.9620000000000001,7.333862400000001,22.631841,-2.9220858,172.55203128,7.259377859999999,-21.70937862000001
4.92,492,0.10400000000000001,-0.048,0.966,7.1046792000000005,24.9809688,-3.2085647999999996,172.63224540000004,7.01300592,-21.65208282
4.93,493,0.095,-0.040999999999999995,0.965,6.703608600000001,24.0069402,-3.380452200000001,172.70100036,6.783822719999999,-21.59478702
4.9399999999999995,494,0.08800000000000001,-0.038,0.97,6.7609043999999985,17.5325148,-2.5783110000000002,172.7754849,6.611935319999999,-21.54895038
4.95,495,0.083,-0.036000000000000004,0.986,6.9327918,10.313244000000001,-1.8334656000000005,172.87288776,6.497343719999999,-21.52030248
4.96,496,0.085,-0.036000000000000004,1.005,7.0473834,5.6722842,-1.2032118,172.94737229999996,6.4457775,-21.49738416
4.97,497,0.077,-0.038,1.011,6.4744254,3.380452200000001,-0.9167328000000001,173.01612726,6.4114000199999985,-21.485925
4.9799999999999995,498,0.08,-0.037000000000000005,1.0070000000000001,5.6149884000000005,2.0053530000000004,-0.8021411999999999,173.07342306,6.39421128,-21.47446584
4.99,499,0.08,-0.036000000000000004,1.005,4.9274388,0.286479,-0.5156622000000001,173.12498928,6.3884817000000025,-21.46873626
5.0,500,0.077,-0.034,1.0070000000000001,4.6409598,-1.8907614,-0.1718874,173.23958088,6.3770225400000005,-21.46873626
5.01,501,0.083,-0.03,1.0170000000000001,4.2398892,-4.9847346,0.0,173.27968793999997,6.428588760000001,-21.46873626
5.02,502,0.08900000000000001,-0.03,1.02,3.7242269999999995,-6.5317212,0.1718874,173.319795,6.49161414,-21.48019542
5.03,503,0.081,-0.027000000000000003,1.023,2.9793816000000004,-8.078707799999998,0.3437748,173.34844289999995,6.5718282599999975,-21.49165458
5.04,504,0.086,-0.027999999999999997,1.021,2.1772404,-8.9954406,0.3437748,173.37136121999995,6.65777196,-21.50311374
5.05,505,0.092,-0.027000000000000003,1.023,1.6615782,-8.9954406,0.3437748,173.43438659999995,6.7322565,-21.50884332
5.06,506,0.09300000000000001,-0.025,1.025,1.2605076000000002,-8.880849000000003,0.3437748,173.44584576,6.8182002000000015,-21.52030248
5.07,507,0.099,-0.022000000000000002,1.026,1.0313244000000001,-8.4224826,0.286479,173.45730492,6.9041438999999984,-21.53176164
5.08,508,0.1,-0.025,1.025,0.8594370000000001,-8.078707799999998,0.286479,173.4630345,6.98435802,-21.5432208
5.09,509,0.1,-0.024,1.02,0.6875496,-7.8495246,0.3437748,173.47449366,7.05884256,-21.54895038
5.1,510,0.10300000000000001,-0.024,1.013,0.40107059999999994,-7.906820400000001,0.40107059999999994,173.53751904,7.12186794,-21.55467996
5.11,511,0.10300000000000001,-0.02,1.003,0.0,-8.193299399999999,0.5156622000000001,173.53751904,7.20208206,-21.571868700000003
5.12,512,0.10300000000000001,-0.024,0.9940000000000001,-0.572958,-8.3651868,0.6875496,173.53178946,7.282296179999999,-21.58332786
5.13,513,0.105,-0.024,0.992,-0.9740286,-8.8235532,0.8021411999999999,173.5203303,7.36823988,-21.600516600000002
5.14,514,0.10400000000000001,-0.021,0.9890000000000001,-1.2032118,-9.1100322,0.8594370000000001,173.50314156,7.459913160000001,-21.61770534
5.1499999999999995,515,0.11,-0.02,0.988,-1.3178034,-9.167328,0.9740286,173.53751904,7.54012728,-21.6291645
5.16,516,0.115,-0.02,0.9890000000000001,-1.2605076000000002,-9.0527364,0.9740286,173.5203303,7.63180056,-21.64635324
5.17,517,0.11699999999999999,-0.019,0.991,-0.9740286,-8.9381448,0.9740286,173.50887114,7.717744259999999,-21.66354198
5.18,518,0.12,-0.02,0.998,-0.7448454000000001,-8.9954406,0.9740286,173.50314156,7.80368796,-21.68073072
5.1899999999999995,519,0.12300000000000001,-0.019,1.008,-0.3437748,-9.453807,0.9740286,173.49741197999995,7.89536124,-21.70364904
5.2,520,0.125,-0.019,1.014,0.057295800000000015,-9.9694692,1.0313244000000001,173.54324862,7.987034519999999,-21.7151082
5.21,521,0.127,-0.02,1.022,0.5156622000000001,-10.599723,1.0313244000000001,173.5489782,8.09016696,-21.73229694
5.22,522,0.13,-0.021,1.0270000000000001,0.9167328000000001,-11.2299768,1.0886202,173.55470778,8.19902898,-21.75521526
5.2299999999999995,523,0.133,-0.022000000000000002,1.0290000000000001,1.2605076000000002,-11.401864199999999,1.145916,173.57189652,8.31362058,-21.77813358
5.24,524,0.134,-0.022000000000000002,1.031,1.6042823999999998,-11.3445684,1.0313244000000001,173.58335568,8.422482599999999,-21.79532232
5.25,525,0.135,-0.023,1.031,1.7188740000000002,-10.5424272,0.9167328000000001,173.64065148,8.519885460000001,-21.81251106
5.26,526,0.13699999999999998,-0.023,1.028,1.5469866,-9.740286,0.8021411999999999,173.65211064,8.61155874,-21.82397022
5.27,527,0.138,-0.023,1.025,1.2605076000000002,-8.7089616,0.7448454000000001,173.66356979999995,8.69750244,-21.84115896
5.28,528,0.139,-0.023,1.024,1.0886202,-7.906820400000001,0.6302538000000001,173.67502896000005,8.77771656,-21.85261812
5.29,529,0.139,-0.024,1.022,0.9167328000000001,-7.2765666,0.572958,173.68648811999995,8.84647152,-21.86407728
5.3,530,0.14,-0.023,1.02,0.7448454000000001,-6.703608600000001,0.5156622000000001,173.75524308,8.90376732,-21.86980686
5.31,531,0.141,-0.022000000000000002,1.015,0.8021411999999999,-6.1879464,0.5156622000000001,173.76670224,8.96106312,-21.88126602
5.32,532,0.139,-0.022000000000000002,1.01,0.7448454000000001,-5.72958,0.40107059999999994,173.77243182,9.01835892,-21.886995600000002
5.33,533,0.142,-0.023,1.0070000000000001,0.7448454000000001,-5.042030400000002,0.3437748,173.77816140000004,9.06992514,-21.89845476
5.34,534,0.141,-0.023,1.005,0.6875496,-4.4690724,0.3437748,173.78389098,9.11576178,-21.90418434
5.35,535,0.14,-0.024,1.002,0.572958,-3.8388186,0.286479,173.89848258,9.12722094,-21.89845476
5.36,536,0.142,-0.022000000000000002,1.0,0.5156622000000001,-3.4377480000000005,0.286479,173.89848258,9.16159842,-21.90418434
5.37,537,0.142,-0.022000000000000002,1.0,0.1718874,-2.9220858,0.1718874,173.90421216,9.19024632,-21.90991392
5.38,538,0.141,-0.022000000000000002,0.9990000000000001,0.057295800000000015,-2.5783110000000002,0.1718874,173.90421216,9.21889422,-21.90991392
5.39,539,0.142,-0.021,1.001,-0.11459160000000004,-2.291832,0.1718874,173.90421216,9.24181254,-21.915643499999998
5.3999999999999995,540,0.142,-0.02,1.004,-0.3437748,-1.9480572,0.1718874,174.0932883,9.21316464,-21.89845476
5.41,541,0.14,-0.02,1.005,-0.5156622000000001,-1.9480572,0.1718874,174.08755872,9.23035338,-21.89845476
5.42,542,0.14,-0.02,1.0070000000000001,-0.6302538000000001,-2.2345362,0.2291832000000001,174.08182914,9.253271699999999,-21.90418434
5.43,543,0.142,-0.019,1.008,-0.6875496,-2.3491277999999998,0.2291832000000001,174.07609956000005,9.27619002,-21.90991392
5.4399999999999995,544,0.14300000000000002,-0.019,1.0090000000000001,-0.8021411999999999,-2.4064236,0.286479,174.06464039999997,9.30483792,-21.915643499999998
5.45,545,0.142,-0.019,1.01,-0.8021411999999999,-2.5783110000000002,0.3437748,174.18496158,9.29337876,-21.90418434
5.46,546,0.14400000000000002,-0.019,1.01,-0.8021411999999999,-2.86479,0.286479,174.17350242,9.32202666,-21.90991392
5.47,547,0.145,-0.017,1.011,-0.8021411999999999,-3.1512689999999997,0.286479,174.16204326,9.35640414,-21.915643499999998
5.4799999999999995,548,0.145,-0.019,1.011,-0.7448454000000001,-3.3231564,0.286479,174.15631367999995,9.38505204,-21.92137308
5.49,549,0.145,-0.019,1.01,-0.5156622000000001,-3.7242269999999995,0.3437748,174.1505841,9.4251591,-21.92710266
5.5,550,0.146,-0.017,1.01,-0.3437748,-4.010706000000001,0.3437748,174.24798696,9.44234784,-21.92137308
5.51,551,0.147,-0.017,1.008,-0.286479,-4.1825934,0.286479,174.24225738,9.4824549,-21.92710266
5.52,552,0.147,-0.018000000000000002,1.008,-0.2291832000000001,-4.3544808,0.286479,174.24225738,9.52256196,-21.93283224
5.53,553,0.149,-0.017,1.012,-0.2291832000000001,-4.6409598,0.40107059999999994,174.2365278,9.568398599999998,-21.944291399999997
5.54,554,0.149,-0.017,1.012,-0.5156622000000001,-5.0993262,0.3437748,174.23079822,9.61996482,-21.95002098
5.55,555,0.15,-0.018000000000000002,1.011,-0.572958,-5.2712136,0.3437748,174.29955318,9.654342300000001,-21.95002098
5.56,556,0.153,-0.019,1.01,-0.40107059999999994,-5.2712136,0.40107059999999994,174.29382360000002,9.70590852,-21.95575056
5.57,557,0.154,-0.018000000000000002,1.0090000000000001,-0.4583664000000001,-4.8701430000000006,0.286479,174.28809402,9.75747474,-21.96148014
5.58,558,0.155,-0.017,1.016,-0.5156622000000001,-4.4117766,0.2291832000000001,174.28236443999995,9.797581800000001,-21.96720972
5.59,559,0.155,-0.018000000000000002,1.016,-0.572958,-4.0680017999999984,0.286479,174.27663486,9.83768886,-21.9729393
5.6,560,0.155,-0.017,1.0090000000000001,-0.4583664000000001,-4.1252976000000015,0.2291832000000001,174.37403772,9.86060718,-21.96720972
5.61,561,0.155,-0.018000000000000002,1.005,-0.1718874,-4.0680017999999984,0.2291832000000001,174.37403772,9.90071424,-21.9729393
5.62,562,0.156,-0.018000000000000002,1.003,0.0,-3.9534102,0.1718874,174.37403772,9.9408213,-21.97866888
5.63,563,0.156,-0.018000000000000002,1.0,0.11459160000000004,-3.8388186,0.1718874,174.37403772,9.97519878,-21.98439846
5.64,564,0.158,-0.017,1.0,0.057295800000000015,-3.6096353999999997,0.11459160000000004,174.37403772,10.00957626,-21.98439846
5.6499999999999995,565,0.158,-0.017,1.002,0.0,-3.3231564,0.1718874,174.51154763999997,10.01530584,-21.9729393
5.66,566,0.158,-0.017,1.004,-0.11459160000000004,-3.1512689999999997,0.11459160000000004,174.51154763999997,10.04968332,-21.9729393
5.67,567,0.158,-0.017,1.003,-0.1718874,-3.0939732,0.11459160000000004,174.50581806,10.07833122,-21.97866888
5.68,568,0.159,-0.017,1.005,-0.2291832000000001,-2.9793816000000004,0.11459160000000004,174.50581806,10.10697912,-21.98439846
5.6899999999999995,569,0.161,-0.017,1.005,-0.1718874,-2.6929026,0.1718874,174.50008848,10.13562702,-21.98439846
5.7,570,0.161,-0.017,1.005,-0.286479,-2.5210152000000003,0.057295800000000015,174.66051672,10.12416786,-21.96720972
5.71,571,0.162,-0.018000000000000002,1.005,-0.286479,-2.3491277999999998,0.11459160000000004,174.65478714,10.14708618,-21.96720972
5.72,572,0.16,-0.016,1.0070000000000001,-0.286479,-2.0053530000000004,0.057295800000000015,174.65478714,10.1700045,-21.9729393
5.7299999999999995,573,0.162,-0.016,1.0070000000000001,-0.4583664000000001,-1.7761698000000001,0.11459160000000004,174.64905756000005,10.18719324,-21.9729393
5.74,574,0.162,-0.016,1.0070000000000001,-0.572958,-1.6042823999999998,0.0,174.64332798,10.20438198,-21.9729393
5.75,575,0.162,-0.017,1.006,-0.6875496,-1.432395,0.0,174.82667454,10.17573408,-21.95002098
5.76,576,0.161,-0.016,1.005,-0.6875496,-1.3178034,0.057295800000000015,174.82094496,10.18719324,-21.95002098
5.77,577,0.161,-0.016,1.006,-0.7448454000000001,-1.3178034,0.057295800000000015,174.81521537999996,10.20438198,-21.95002098
5.78,578,0.162,-0.015,1.006,-0.7448454000000001,-1.0886202,0.0,174.80375622,10.215841139999998,-21.95002098
5.79,579,0.16399999999999998,-0.015,1.015,-1.0313244000000001,-0.9740286,0.0,174.79802664,10.22157072,-21.95575056
5.8,580,0.161,-0.015,1.011,-1.3178034,-0.9167328000000001,0.0,174.94126614,10.19292282,-21.93283224
5.81,581,0.162,-0.017,1.006,-1.0886202,-0.9740286,-0.057295800000000015,174.92980698,10.20438198,-21.93283224
5.82,582,0.162,-0.016,1.002,-0.5156622000000001,-1.3178034,0.0,174.92407740000004,10.215841139999998,-21.93283224
5.83,583,0.163,-0.015,1.004,-0.2291832000000001,-1.2605076000000002,-0.11459160000000004,174.91834782,10.227300300000001,-21.93283224
5.84,584,0.162,-0.016,1.006,-0.11459160000000004,-1.145916,-0.1718874,174.91834782,10.23875946,-21.93283224
5.85,585,0.16,-0.015,1.005,-0.1718874,-0.9740286,-0.1718874,175.17044934,10.17573408,-21.89272518000001
5.86,586,0.166,-0.012,1.001,-0.286479,-0.8021411999999999,-0.1718874,175.16471976,10.18719324,-21.89272518000001
5.87,587,0.162,-0.013999999999999999,1.002,-0.4583664000000001,-0.7448454000000001,-0.1718874,175.16471976,10.19292282,-21.89272518000001
5.88,588,0.163,-0.016,1.002,-0.6302538000000001,-0.6302538000000001,-0.11459160000000004,175.15899018,10.1986524,-21.89272518000001
5.89,589,0.159,-0.013999999999999999,1.006,-0.8021411999999999,-0.6302538000000001,0.0,175.14753102,10.20438198,-21.89272518000001
5.8999999999999995,590,0.156,-0.017,1.006,-0.6875496,-0.572958,0.0,175.40536212,10.1413566,-21.85261812
5.91,591,0.159,-0.018000000000000002,1.006,-0.5156622000000001,-0.6302538000000001,0.057295800000000015,175.39963254,10.14708618,-21.8583477
5.92,592,0.159,-0.018000000000000002,1.0070000000000001,-0.6875496,-0.6875496,0.0,175.39390296,10.15281576,-21.8583477
5.93,593,0.16399999999999998,-0.016,1.0070000000000001,-0.6875496,-1.0886202,0.057295800000000015,175.38817338,10.16427492,-21.8583477
5.9399999999999995,594,0.16399999999999998,-0.012,1.006,-0.8021411999999999,-1.2032118,0.0,175.37671422,10.17573408,-21.8583477
5.95,595,0.165,-0.013000000000000001,1.006,-0.7448454000000001,-1.145916,0.0,175.53141288,10.16427492,-21.83542938
5.96,596,0.165,-0.013000000000000001,1.003,-0.8594370000000001,-1.145916,0.0,175.51995372000005,10.17573408,-21.83542938
5.97,597,0.165,-0.013999999999999999,1.005,-0.7448454000000001,-0.9740286,0.057295800000000015,175.51422413999995,10.18719324,-21.84115896
5.9799999999999995,598,0.16399999999999998,-0.015,1.005,-0.572958,-0.8021411999999999,0.0,175.50849456,10.19292282,-21.84115896
5.99,599,0.163,-0.016,1.005,-0.40107059999999994,-0.5156622000000001,0.0,175.50276498,10.1986524,-21.84115896
6.0,600,0.16399999999999998,-0.015,1.005,-0.40107059999999994,-0.40107059999999994,0.0,175.81789188,10.12989744,-21.79532232
6.01,601,0.16399999999999998,-0.013999999999999999,1.004,-0.4583664000000001,-0.40107059999999994,0.0,175.8121623,10.13562702,-21.79532232
6.02,602,0.165,-0.013000000000000001,1.0070000000000001,-0.6875496,-0.5156622000000001,0.0,175.80070314,10.1413566,-21.79532232
6.03,603,0.166,-0.013000000000000001,1.0070000000000001,-0.8594370000000001,-0.8021411999999999,0.057295800000000015,175.79497356,10.14708618,-21.801051899999997
6.04,604,0.165,-0.012,1.0070000000000001,-0.9167328000000001,-1.0313244000000001,0.057295800000000015,175.7835144,10.15854534,-21.801051899999997
6.05,605,0.16399999999999998,-0.013999999999999999,1.0070000000000001,-0.9167328000000001,-1.0886202,0.0,175.90383558000005,10.1413566,-21.78386316000001
6.06,606,0.16399999999999998,-0.013999999999999999,1.0070000000000001,-0.8021411999999999,-1.0886202,0.057295800000000015,175.89810599999996,10.15281576,-21.78386316000001
6.07,607,0.16399999999999998,-0.015,1.004,-0.6875496,-1.3178034,0.057295800000000015,175.89237642,10.1700045,-21.78386316000001
6.08,608,0.16399999999999998,-0.013999999999999999,1.004,-0.572958,-1.2032118,0.057295800000000015,175.88664684,10.18146366,-21.78386316000001
6.09,609,0.165,-0.013999999999999999,1.003,-0.4583664000000001,-1.145916,0.057295800000000015,175.88091726,10.19292282,-21.78959274
6.1,610,0.166,-0.013000000000000001,1.003,-0.4583664000000001,-1.0886202,0.057295800000000015,176.03561592,10.16427492,-21.76667442
6.11,611,0.16399999999999998,-0.013999999999999999,1.004,-0.40107059999999994,-0.9740286,0.0,176.03561592,10.17573408,-21.76667442
6.12,612,0.163,-0.013999999999999999,1.004,-0.40107059999999994,-0.8594370000000001,0.0,176.02988634,10.18146366,-21.76667442
6.13,613,0.163,-0.013999999999999999,1.005,0.0,0.0,0.0,176.02988634,10.18146366,-21.76667442
6.14,614,0.16399999999999998,-0.013000000000000001,1.003,0.0,-0.2291832000000001,0.0,176.02988634,10.18719324,-21.76667442
6.15,615,0.165,-0.016,1.003,0.0,-0.40107059999999994,0.057295800000000015,176.47679358,10.09551996,-21.70364904
6.16,616,0.166,-0.016,1.004,0.0,-0.5156622000000001,0.0,176.47679358,10.10124954,-21.70364904
6.17,617,0.16699999999999998,-0.013000000000000001,1.013,-0.1718874,-0.286479,0.057295800000000015,176.47106399999996,10.10124954,-21.70364904
6.18,618,0.16699999999999998,-0.013999999999999999,1.016,-0.4583664000000001,-0.11459160000000004,0.057295800000000015,176.47106399999996,10.10124954,-21.70364904
6.1899999999999995,619,0.16699999999999998,-0.012,1.011,-0.572958,-0.1718874,0.057295800000000015,176.45960484,10.10697912,-21.70364904
6.2,620,0.166,-0.013000000000000001,1.0070000000000001,-0.3437748,-0.5156622000000001,0.057295800000000015,176.68878804000005,10.06114248,-21.67500114
6.21,621,0.16699999999999998,-0.013000000000000001,1.004,-0.2291832000000001,-0.3437748,0.0,176.68305846,10.06687206,-21.67500114
6.22,622,0.16699999999999998,-0.013999999999999999,1.001,0.0,-0.11459160000000004,0.0,176.68305846,10.06687206,-21.67500114
6.2299999999999995,623,0.166,-0.013999999999999999,1.0,0.11459160000000004,0.0,0.0,176.68305846,10.06687206,-21.67500114
6.24,624,0.166,-0.013000000000000001,1.001,0.057295800000000015,0.0,0.0,176.68305846,10.06687206,-21.67500114
6.25,625,0.16699999999999998,-0.013000000000000001,1.001,0.0,-0.057295800000000015,0.0,177.35341932,9.98092836,-21.58332786
6.26,626,0.168,-0.012,1.002,0.0,-0.11459160000000004,0.0,177.35341932,9.98092836,-21.58332786
6.27,627,0.168,-0.013000000000000001,1.004,0.0,-0.057295800000000015,0.0,177.35341932,9.98092836,-21.58332786
6.28,628,0.168,-0.012,1.005,0.057295800000000015,0.0,0.057295800000000015,177.35341932,9.98092836,-21.58332786
6.29,629,0.16699999999999998,-0.012,1.004,0.11459160000000004,0.0,0.0,177.35914889999995,9.98092836,-21.58332786
6.3,630,0.168,-0.012,1.004,0.1718874,0.11459160000000004,0.0,177.57114336,9.94655088,-21.54895038
6.31,631,0.168,-0.013000000000000001,1.004,0.11459160000000004,0.057295800000000015,0.0,177.57114336,9.94655088,-21.54895038
6.32,632,0.16699999999999998,-0.013000000000000001,1.005,0.057295800000000015,0.2291832000000001,0.0,177.57687294,9.9408213,-21.54895038
6.33,633,0.168,-0.013000000000000001,1.004,0.057295800000000015,0.1718874,0.0,177.57687294,9.9408213,-21.54895038
6.34,634,0.16699999999999998,-0.013000000000000001,1.004,0.0,0.1718874,0.0,177.57687294,9.9408213,-21.55467996
6.35,635,0.168,-0.012,1.004,0.0,0.1718874,0.0,177.87481110000004,9.90071424,-21.50884332
6.36,636,0.168,-0.013000000000000001,1.004,0.0,0.2291832000000001,0.057295800000000015,177.87481110000004,9.90071424,-21.50884332
6.37,637,0.168,-0.012,1.004,-0.057295800000000015,0.286479,0.0,177.87481110000004,9.89498466,-21.50884332
6.38,638,0.16899999999999998,-0.012,1.005,0.0,0.286479,0.0,177.86908152,9.89498466,-21.50884332
6.39,639,0.16899999999999998,-0.012,1.004,0.0,0.3437748,0.0,177.86908152,9.88925508,-21.50884332
6.4,640,0.168,-0.012,1.004,0.0,0.3437748,0.0,178.04669850000005,9.86633676,-21.485925
6.41,641,0.16899999999999998,-0.013000000000000001,1.006,0.0,0.286479,0.0,178.04669850000005,9.86633676,-21.485925
6.42,642,0.168,-0.013000000000000001,1.004,0.0,0.3437748,0.0,178.04669850000005,9.86060718,-21.485925
6.43,643,0.16899999999999998,-0.013000000000000001,1.005,0.057295800000000015,0.2291832000000001,0.057295800000000015,178.04669850000005,9.86060718,-21.485925
6.4399999999999995,644,0.16899999999999998,-0.013000000000000001,1.005,0.11459160000000004,0.11459160000000004,0.0,178.04669850000005,9.8548776,-21.485925
6.45,645,0.16899999999999998,-0.013000000000000001,1.006,0.11459160000000004,0.057295800000000015,0.0,178.17274926,9.83768886,-21.46873626
6.46,646,0.16899999999999998,-0.011000000000000001,1.006,0.057295800000000015,0.057295800000000015,0.0,178.17274926,9.83768886,-21.46873626
6.47,647,0.16899999999999998,-0.012,1.004,0.057295800000000015,0.11459160000000004,0.0,178.17847884,9.83768886,-21.46873626
6.4799999999999995,648,0.17,-0.013000000000000001,1.005,0.11459160000000004,0.1718874,0.0,178.17847884,9.83195928,-21.46873626
6.49,649,0.16899999999999998,-0.012,1.005,0.1718874,0.286479,0.0,178.17847884,9.83195928,-21.46873626
6.5,650,0.17,-0.011000000000000001,1.005,0.11459160000000004,0.3437748,0.0,178.25296338,9.826229699999999,-21.4572771
6.51,651,0.16899999999999998,-0.012,1.006,0.057295800000000015,0.286479,-0.057295800000000015,178.25869296,9.826229699999999,-21.4572771
6.52,652,0.16899999999999998,-0.013000000000000001,1.003,0.057295800000000015,0.3437748,0.0,178.25869296,9.82050012,-21.4572771
6.53,653,0.16899999999999998,-0.013000000000000001,1.004,0.057295800000000015,0.286479,0.0,178.25869296,9.81477054,-21.4572771
6.54,654,0.17,-0.011000000000000001,1.003,0.0,0.2291832000000001,-0.057295800000000015,178.25869296,9.81477054,-21.4572771
6.55,655,0.16899999999999998,-0.012,1.003,0.0,0.2291832000000001,0.0,178.35609582,9.82050012,-21.44581794
6.56,656,0.17,-0.012,1.003,0.0,0.1718874,0.0,178.3618254,9.81477054,-21.44581794
6.57,657,0.17,-0.01,1.003,0.0,0.2291832000000001,-0.057295800000000015,178.3618254,9.81477054,-21.44008836
6.58,658,0.16899999999999998,-0.011000000000000001,1.003,0.057295800000000015,0.286479,0.0,178.3618254,9.80904096,-21.44008836
6.59,659,0.17,-0.013000000000000001,1.004,0.0,0.286479,0.0,178.3618254,9.80904096,-21.44008836
6.6,660,0.17,-0.012,1.004,0.0,0.3437748,0.0,178.43058036,9.80904096,-21.4286292
6.61,661,0.17,-0.011000000000000001,1.004,0.0,0.1718874,-0.057295800000000015,178.43058036,9.80904096,-21.4286292
6.62,662,0.17,-0.01,1.004,-0.057295800000000015,0.1718874,0.0,178.43058036,9.80331138,-21.4286292
6.63,663,0.17,-0.011000000000000001,1.005,-0.057295800000000015,0.1718874,0.0,178.42485078,9.80331138,-21.4286292
6.64,664,0.17,-0.01,1.006,-0.11459160000000004,0.11459160000000004,0.0,178.42485078,9.80331138,-21.4286292
6.65,665,0.17,-0.011000000000000001,1.006,-0.11459160000000004,0.0,0.0,178.5050649,9.81477054,-21.41717004
6.66,666,0.17,-0.01,1.005,-0.11459160000000004,-0.1718874,-0.057295800000000015,178.5050649,9.81477054,-21.41717004
6.67,667,0.171,-0.011000000000000001,1.005,-0.057295800000000015,-0.057295800000000015,0.0,178.5050649,9.81477054,-21.41717004
6.68,668,0.16899999999999998,-0.011000000000000001,1.003,0.0,0.0,-0.057295800000000015,178.5050649,9.81477054,-21.41717004
6.6899999999999995,669,0.17,-0.01,1.004,0.11459160000000004,0.0,-0.057295800000000015,178.5050649,9.81477054,-21.41144046
6.7,670,0.17,-0.01,1.003,0.2291832000000001,0.0,0.0,178.55663112,9.82050012,-21.40571088
6.71,671,0.17,-0.01,1.005,0.3437748,0.0,0.0,178.56236069999997,9.82050012,-21.40571088
6.72,672,0.16899999999999998,-0.009000000000000001,1.004,0.2291832000000001,0.0,-0.057295800000000015,178.56236069999997,9.82050012,-21.40571088
6.7299999999999995,673,0.17,-0.009000000000000001,1.004,0.286479,-0.286479,0.0,178.56809028,9.82050012,-21.40571088
6.74,674,0.171,-0.01,1.003,0.286479,-0.4583664000000001,0.0,178.56809028,9.826229699999999,-21.40571088
6.75,675,0.171,-0.01,1.003,0.3437748,-0.286479,0.0,178.60819734,9.83195928,-21.3999813
6.76,676,0.171,-0.009000000000000001,1.0090000000000001,0.3437748,-0.1718874,0.0,178.61392691999995,9.83768886,-21.3999813
6.77,677,0.171,-0.009000000000000001,1.011,0.286479,-0.2291832000000001,-0.057295800000000015,178.61392691999995,9.83768886,-21.3999813
6.78,678,0.172,-0.009000000000000001,1.008,0.40107059999999994,-0.3437748,-0.057295800000000015,178.6196565,9.84341844,-21.3999813
6.79,679,0.172,-0.008,1.005,0.572958,-0.6302538000000001,0.0,178.62538608,9.84914802,-21.3999813
6.8,680,0.171,-0.009000000000000001,1.003,0.8594370000000001,-0.6875496,0.0,178.6483044,9.8548776,-21.3999813
6.81,681,0.172,-0.01,1.001,0.9167328000000001,-0.5156622000000001,0.0,178.65976356,9.86060718,-21.3999813
6.82,682,0.17300000000000001,-0.009000000000000001,0.998,0.8594370000000001,-0.1718874,-0.057295800000000015,178.67122272,9.86060718,-21.39425172
6.83,683,0.172,-0.01,1.0,0.8594370000000001,0.11459160000000004,-0.057295800000000015,178.67695229999995,9.86060718,-21.39425172
6.84,684,0.172,-0.009000000000000001,1.0,0.6875496,0.40107059999999994,0.0,178.68268188,9.8548776,-21.39425172
6.85,685,0.17300000000000001,-0.008,1.001,0.4583664000000001,0.7448454000000001,0.0,178.7056002,9.8548776,-21.39425172
6.86,686,0.17300000000000001,-0.008,1.0,0.40107059999999994,0.7448454000000001,0.0,178.71132977999997,9.84914802,-21.39425172
6.87,687,0.172,-0.008,1.001,0.2291832000000001,0.8021411999999999,0.0,178.71132977999997,9.83768886,-21.39425172
6.88,688,0.171,-0.006999999999999999,1.002,0.2291832000000001,0.6302538000000001,0.0,178.71705936,9.83195928,-21.39425172
6.89,689,0.171,-0.006999999999999999,1.002,0.1718874,0.4583664000000001,0.057295800000000015,178.71705936,9.826229699999999,-21.39425172
6.9,690,0.171,-0.006999999999999999,1.001,0.1718874,0.11459160000000004,0.057295800000000015,178.78581432,9.83768886,-21.38852214
6.91,691,0.171,-0.008,1.002,0.2291832000000001,-0.2291832000000001,0.057295800000000015,178.78581432,9.83768886,-21.38852214
6.92,692,0.171,-0.006999999999999999,1.004,0.1718874,-0.4583664000000001,0.11459160000000004,178.7915439,9.84341844,-21.38852214
6.93,693,0.172,-0.006,1.005,0.0,-0.40107059999999994,0.1718874,178.78581432,9.84914802,-21.38852214
6.9399999999999995,694,0.172,-0.006,1.0090000000000001,-0.1718874,-0.2291832000000001,0.11459160000000004,178.78581432,9.84914802,-21.39425172
6.95,695,0.172,-0.006,1.0070000000000001,-0.4583664000000001,-0.057295800000000015,0.11459160000000004,178.80873264,9.8548776,-21.38852214
6.96,696,0.174,-0.005,1.006,-0.4583664000000001,-0.11459160000000004,0.057295800000000015,178.80873264,9.8548776,-21.38852214
6.97,697,0.17300000000000001,-0.005,1.005,-0.286479,-0.11459160000000004,0.057295800000000015,178.80300306,9.8548776,-21.39425172
6.9799999999999995,698,0.174,-0.006,1.004,-0.11459160000000004,-0.057295800000000015,0.057295800000000015,178.80300306,9.86060718,-21.39425172
6.99,699,0.17300000000000001,-0.006,1.001,-0.057295800000000015,0.0,0.057295800000000015,178.80300306,9.86060718,-21.39425172
7.0,700,0.17300000000000001,-0.006,1.001,0.0,0.0,0.0,178.91186507999996,9.8835255,-21.37706298
7.01,701,0.17300000000000001,-0.006999999999999999,1.002,0.0,0.0,0.0,178.91186507999996,9.8835255,-21.37706298
7.02,702,0.17300000000000001,-0.006,1.003,-0.057295800000000015,-0.057295800000000015,0.057295800000000015,178.9061355,9.88925508,-21.37706298
7.03,703,0.17300000000000001,-0.005,1.005,-0.11459160000000004,-0.057295800000000015,0.057295800000000015,178.9061355,9.88925508,-21.38279256
7.04,704,0.174,-0.005,1.0070000000000001,-0.11459160000000004,0.0,0.0,178.9061355,9.88925508,-21.38279256
7.05,705,0.174,-0.006,1.005,-0.11459160000000004,0.1718874,0.0,178.93478340000001,9.89498466,-21.37706298
7.06,706,0.174,-0.004,1.003,0.0,0.3437748,0.0,178.93478340000001,9.88925508,-21.37706298
7.07,707,0.174,-0.004,1.003,0.057295800000000015,0.5156622000000001,0.0,178.93478340000001,9.8835255,-21.37706298
7.08,708,0.174,-0.004,1.002,0.11459160000000004,0.6302538000000001,-0.057295800000000015,178.93478340000001,9.87779592,-21.37706298
7.09,709,0.174,-0.005,1.003,0.057295800000000015,0.7448454000000001,-0.057295800000000015,178.93478340000001,9.87206634,-21.37706298
7.1,710,0.174,-0.005,1.003,0.0,0.6875496,0.0,178.95770172,9.87206634,-21.371333399999997
7.11,711,0.172,-0.004,1.005,-0.057295800000000015,0.6302538000000001,0.0,178.95770172,9.86633676,-21.371333399999997
7.12,712,0.174,-0.004,1.006,-0.11459160000000004,0.5156622000000001,0.0,178.95770172,9.86060718,-21.371333399999997
7.13,713,0.17300000000000001,-0.004,1.005,0.0,0.6302538000000001,0.0,178.95770172,9.8548776,-21.371333399999997
7.14,714,0.175,-0.004,1.004,0.2291832000000001,0.6875496,-0.057295800000000015,178.95770172,9.84914802,-21.371333399999997
7.15,715,0.174,-0.004,1.004,0.3437748,0.6302538000000001,0.0,178.98062004000005,9.84914802,-21.371333399999997
7.16,716,0.174,-0.005,1.001,0.40107059999999994,0.40107059999999994,-0.057295800000000015,178.98634962,9.84341844,-21.36560382
7.17,717,0.172,-0.004,1.002,0.572958,0.40107059999999994,-0.057295800000000015,178.99207919999995,9.84341844,-21.36560382
7.18,718,0.17300000000000001,-0.003,1.001,0.572958,0.4583664000000001,-0.057295800000000015,178.99780878,9.83768886,-21.36560382
7.1899999999999995,719,0.172,-0.003,1.003,0.5156622000000001,0.4583664000000001,0.0,179.00353836,9.83195928,-21.36560382
7.2,720,0.172,-0.003,1.003,0.5156622000000001,0.286479,-0.057295800000000015,179.03218626,9.83195928,-21.359874240000003
7.21,721,0.172,-0.003,1.005,0.40107059999999994,0.1718874,0.0,179.03791584,9.83195928,-21.359874240000003
7.22,722,0.172,-0.003,1.004,0.3437748,0.1718874,0.0,179.04364542,9.826229699999999,-21.359874240000003
7.2299999999999995,723,0.172,-0.002,1.003,0.5156622000000001,0.1718874,0.0,179.04364542,9.826229699999999,-21.359874240000003
7.24,724,0.172,-0.003,1.003,0.6302538000000001,0.057295800000000015,-0.057295800000000015,179.05510458,9.826229699999999,-21.359874240000003
7.25,725,0.172,-0.003,1.004,0.572958,-0.2291832000000001,0.0,179.0780229,9.83195928,-21.359874240000003
7.26,726,0.17300000000000001,-0.001,1.003,0.4583664000000001,-0.1718874,0.0,179.08375248,9.83195928,-21.359874240000003
7.27,727,0.17300000000000001,-0.002,1.004,0.286479,-0.2291832000000001,0.0,179.08375248,9.83768886,-21.359874240000003
7.28,728,0.17300000000000001,-0.001,1.003,0.1718874,-0.2291832000000001,0.057295800000000015,179.08948206,9.83768886,-21.359874240000003
7.29,729,0.174,-0.001,1.002,0.1718874,-0.286479,0.0,179.08948206,9.84341844,-21.359874240000003
