TimeStamp(s),FrameCounter,AccX,AccY,AccZ,GyrX,GyrY,GyrZ,EulerX,EulerY,EulerZ
0.01,1,0.0,-0.99,0.21,-1.3750992,0.40107059999999994,-0.286479,101.46513222,0.61879464,-20.5691922
0.02,2,-0.018000000000000002,-0.99,0.21100000000000002,-1.0886202,-0.6302538000000001,-0.057295800000000015,101.45367306,0.61879464,-20.57492178
0.03,3,-0.02,-0.9890000000000001,0.212,-1.0313244000000001,-0.9167328000000001,-0.1718874,101.44221389999998,0.62452422,-20.58638094
0.04,4,-0.02,-0.9890000000000001,0.209,-0.9167328000000001,-0.9740286,-0.286479,101.43648432,0.6302538000000001,-20.59211052
0.05,5,-0.02,-0.987,0.20800000000000002,-0.9167328000000001,-0.8594370000000001,-0.3437748,101.39637726,0.52712136,-20.54627388
0.060000000000000005,6,-0.02,-0.987,0.207,-0.6302538000000001,-0.8021411999999999,-0.40107059999999994,101.39064768,0.53285094,-20.55200346
0.06999999999999999,7,-0.019,-0.986,0.209,-0.572958,-0.572958,-0.40107059999999994,101.3849181,0.53858052,-20.55773304
0.08,8,-0.018000000000000002,-0.986,0.21,-0.286479,-0.40107059999999994,-0.5156622000000001,101.37918852,0.5443101,-20.56346262
0.09,9,-0.018000000000000002,-0.986,0.212,0.0,-0.40107059999999994,-0.572958,101.37918852,0.55003968,-20.56346262
0.09999999999999999,10,-0.018000000000000002,-0.987,0.212,0.1718874,-0.1718874,-0.6302538000000001,101.3562702,0.37815228,-20.47751892
0.11,11,-0.018000000000000002,-0.987,0.213,0.0,0.1718874,-0.6302538000000001,101.3562702,0.38961144,-20.47751892
0.12,12,-0.019,-0.987,0.212,0.0,0.4583664000000001,-0.572958,101.3562702,0.38961144,-20.47178934
0.13,13,-0.017,-0.986,0.21100000000000002,0.11459160000000004,0.6302538000000001,-0.572958,101.3562702,0.39534102,-20.46033018
0.14,14,-0.017,-0.987,0.209,0.3437748,0.4583664000000001,-0.6875496,101.36199978,0.4010706000000001,-20.454600600000006
0.15000000000000002,15,-0.018000000000000002,-0.99,0.20800000000000002,0.4583664000000001,0.4583664000000001,-0.7448454000000001,101.33335188,0.30366774,-20.3973048
0.16,16,-0.017,-0.99,0.20800000000000002,0.40107059999999994,0.5156622000000001,-0.7448454000000001,101.33335188,0.31512690000000004,-20.39157522
0.17,17,-0.017,-0.99,0.207,0.3437748,0.5156622000000001,-0.6875496,101.33908146000002,0.32085648,-20.38584564
0.18000000000000002,18,-0.015,-0.987,0.20600000000000002,0.40107059999999994,0.6302538000000001,-0.6875496,101.34481104,0.32658606,-20.38011606
0.19,19,-0.015,-0.9840000000000001,0.207,0.40107059999999994,0.8021411999999999,-0.7448454000000001,101.34481104,0.33231564,-20.368656899999998
0.2,20,-0.015,-0.982,0.207,0.3437748,0.9167328000000001,-0.6302538000000001,101.32189272,0.25783110000000004,-20.32282026
0.21000000000000002,21,-0.016,-0.983,0.209,0.5156622000000001,0.8021411999999999,-0.5156622000000001,101.3276223,0.26356068,-20.3113611
0.22,22,-0.016,-0.983,0.21,0.572958,0.8594370000000001,-0.40107059999999994,101.33335188,0.26356068,-20.29990194
0.23,23,-0.015,-0.985,0.21,0.6302538000000001,0.8021411999999999,-0.3437748,101.33908146000002,0.26356068,-20.29417236
0.24000000000000002,24,-0.016,-0.987,0.214,0.572958,0.6875496,-0.3437748,101.34481104,0.26929026,-20.2827132
0.25,25,-0.016,-0.987,0.212,0.5156622000000001,0.6875496,-0.286479,101.3276223,0.20053530000000008,-20.24260614
0.26,26,-0.016,-0.986,0.212,0.5156622000000001,0.6302538000000001,-0.2291832000000001,101.33335188,0.20053530000000008,-20.23687656
0.27,27,-0.016,-0.985,0.21,0.6302538000000001,0.40107059999999994,-0.057295800000000015,101.34481104,0.20053530000000008,-20.23114698
0.28,28,-0.016,-0.987,0.21100000000000002,0.8594370000000001,0.1718874,0.0,101.35054062,0.20053530000000008,-20.23114698
0.29000000000000004,29,-0.015,-0.988,0.212,0.8594370000000001,0.0,0.1718874,101.36199978,0.20053530000000008,-20.23114698
0.3,30,-0.016,-0.987,0.213,0.8594370000000001,-0.057295800000000015,0.286479,101.35054062,0.12605075999999998,-20.196769500000002
0.31,31,-0.016,-0.9890000000000001,0.215,1.0313244000000001,-0.286479,0.286479,101.36199978,0.12032118,-20.20249908
0.32,32,-0.016,-0.99,0.214,1.0886202,-0.1718874,0.2291832000000001,101.37345894,0.12032118,-20.20249908
0.33,33,-0.016,-0.99,0.214,1.0313244000000001,0.0,0.2291832000000001,101.3849181,0.11459160000000003,-20.20249908
0.34,34,-0.018000000000000002,-0.99,0.21100000000000002,0.9167328000000001,0.11459160000000004,0.2291832000000001,101.39637726,0.11459160000000003,-20.20249908
0.35000000000000003,35,-0.018000000000000002,-0.988,0.21100000000000002,0.9740286,0.057295800000000015,0.2291832000000001,101.37345894,0.04010706,-20.168121600000006
0.36000000000000004,36,-0.018000000000000002,-0.987,0.21100000000000002,1.0886202,0.11459160000000004,0.286479,101.3849181,0.03437748,-20.168121600000006
0.37,37,-0.018000000000000002,-0.988,0.21100000000000002,1.145916,0.0,0.40107059999999994,101.39637726,0.028647900000000007,-20.168121600000006
0.38,38,-0.018000000000000002,-0.988,0.212,0.9740286,0.057295800000000015,0.4583664000000001,101.40783642,0.02291832,-20.168121600000006
0.39,39,-0.016,-0.9890000000000001,0.21100000000000002,0.8021411999999999,0.11459160000000004,0.4583664000000001,101.41929558,0.02291832,-20.168121600000006
0.4,40,-0.016,-0.9890000000000001,0.21,0.8021411999999999,0.057295800000000015,0.572958,101.39637726,-0.028647900000000007,-20.14520328
0.41000000000000003,41,-0.017,-0.988,0.20800000000000002,0.8594370000000001,0.0,0.6302538000000001,101.40783642,-0.03437748,-20.14520328
0.42000000000000004,42,-0.019,-0.988,0.20600000000000002,0.8021411999999999,-0.11459160000000004,0.6875496,101.413566,-0.04010706,-20.14520328
0.43,43,-0.022000000000000002,-0.987,0.21,0.8021411999999999,-0.40107059999999994,0.6302538000000001,101.42502516,-0.04583664,-20.15093286
0.44,44,-0.026000000000000002,-0.988,0.212,0.6302538000000001,0.0,0.3437748,101.43075474,-0.04583664,-20.15093286
0.45,45,-0.026000000000000002,-0.9890000000000001,0.212,0.6875496,0.8021411999999999,0.2291832000000001,101.41929558,-0.11459160000000003,-20.11655538
0.46,46,-0.024,-0.992,0.214,0.6302538000000001,1.2605076000000002,0.286479,101.42502516,-0.12032118,-20.10509622
0.47000000000000003,47,-0.023,-0.991,0.213,0.3437748,1.3178034,0.286479,101.43075474,-0.12605075999999998,-20.09363706
0.48000000000000004,48,-0.02,-0.99,0.213,0.3437748,0.9740286,0.3437748,101.43648432,-0.13178034,-20.0821779
0.49,49,-0.016,-0.99,0.213,0.11459160000000004,0.6302538000000001,0.3437748,101.43648432,-0.13750992,-20.07644832
0.5,50,-0.013000000000000001,-0.99,0.213,0.0,0.40107059999999994,0.2291832000000001,101.39637726,-0.17761697999999998,-20.05925958
0.51,51,-0.012,-0.9890000000000001,0.214,0.0,0.40107059999999994,0.286479,101.39637726,-0.18334656,-20.05353
0.52,52,-0.013999999999999999,-0.985,0.215,0.3437748,0.4583664000000001,0.3437748,101.40210684,-0.18907614,-20.04780042
0.53,53,-0.017,-0.983,0.21600000000000005,0.572958,0.5156622000000001,0.2291832000000001,101.40783642,-0.18907614,-20.04207084
0.54,54,-0.02,-0.983,0.215,0.7448454000000001,0.5156622000000001,0.057295800000000015,101.413566,-0.19480572,-20.04207084
0.55,55,-0.023,-0.9840000000000001,0.21100000000000002,0.6875496,0.572958,0.0,101.39064768,-0.25783110000000004,-20.00196378
0.56,56,-0.024,-0.985,0.209,0.7448454000000001,0.286479,-0.11459160000000004,101.39637726,-0.25783110000000004,-19.9962342
0.5700000000000001,57,-0.024,-0.987,0.21,0.8021411999999999,0.2291832000000001,-0.286479,101.40783642,-0.25783110000000004,-19.9962342
0.5800000000000001,58,-0.022000000000000002,-0.987,0.21100000000000002,0.9167328000000001,0.2291832000000001,-0.286479,101.413566,-0.25210152,-19.99050462
0.59,59,-0.022000000000000002,-0.988,0.21100000000000002,0.9740286,0.2291832000000001,-0.2291832000000001,101.42502516,-0.25210152,-19.99050462
0.6,60,-0.019,-0.988,0.21100000000000002,0.9740286,0.1718874,-0.1718874,101.40210684,-0.29220857999999994,-19.9675863
0.61,61,-0.017,-0.9890000000000001,0.213,0.9167328000000001,0.2291832000000001,-0.11459160000000004,101.413566,-0.28647900000000004,-19.9675863
0.62,62,-0.019,-0.987,0.214,0.8594370000000001,0.40107059999999994,-0.11459160000000004,101.41929558,-0.28647900000000004,-19.96185672
0.63,63,-0.018000000000000002,-0.985,0.218,0.9167328000000001,0.3437748,-0.1718874,101.43075474,-0.28647900000000004,-19.95612714
0.64,64,-0.02,-0.987,0.221,0.8594370000000001,0.286479,-0.286479,101.44221389999998,-0.28647900000000004,-19.950397560000006
0.65,65,-0.022000000000000002,-0.988,0.223,0.1718874,0.11459160000000004,-0.572958,101.45940264,-0.36096354,-19.9102905
0.66,66,-0.024,-0.991,0.226,0.11459160000000004,0.057295800000000015,-0.6302538000000001,101.45940264,-0.35523396,-19.9102905
0.67,67,-0.025,-0.993,0.226,0.0,0.2291832000000001,-0.7448454000000001,101.45940264,-0.34950438,-19.90456092
0.68,68,-0.025,-0.9940000000000001,0.225,0.0,0.3437748,-0.8594370000000001,101.45940264,-0.3437748,-19.89883134
0.6900000000000001,69,-0.024,-0.9940000000000001,0.223,0.057295800000000015,0.5156622000000001,-1.0313244000000001,101.45940264,-0.33231564,-19.89310176
0.7000000000000001,70,-0.022000000000000002,-0.993,0.222,0.0,0.8594370000000001,-1.3750992,101.46513222,-0.3437748,-19.87018344
0.7100000000000001,71,-0.019,-0.991,0.223,-0.057295800000000015,1.2032118,-1.5469866,101.46513222,-0.33231564,-19.85872428
0.72,72,-0.013000000000000001,-0.9890000000000001,0.221,-0.40107059999999994,1.7188740000000002,-1.7188740000000002,101.45940264,-0.32085648,-19.83580596
0.73,73,-0.008,-0.988,0.217,-0.6875496,2.0053530000000004,-1.8907614,101.45367306,-0.30366774,-19.812887640000003
0.74,74,-0.001,-0.985,0.213,-1.145916,2.5783110000000002,-1.8907614,101.44221389999998,-0.29220857999999994,-19.78423974
0.75,75,0.002,-0.981,0.20600000000000002,-1.5469866,3.3231564,-1.8907614,101.413566,-0.26929026,-19.75559184
0.76,76,0.006999999999999999,-0.977,0.204,-1.8334656000000005,3.6096353999999997,-1.7188740000000002,101.39637726,-0.25783110000000004,-19.71548478
0.77,77,0.011000000000000001,-0.976,0.207,-1.9480572,3.4950437999999995,-1.6615782,101.37345894,-0.25210152,-19.6811073
0.78,78,0.012,-0.977,0.21,-1.9480572,3.3231564,-1.6615782,101.35054062,-0.24064236,-19.64100024
0.79,79,0.013999999999999999,-0.9790000000000001,0.215,-1.9480572,2.9793816000000004,-1.5469866,101.33335188,-0.23491278,-19.61235234
0.8,80,0.016,-0.981,0.218,-1.7188740000000002,2.5210152000000003,-1.4896908000000002,101.31616314,-0.19480572,-19.595163600000006
0.81,81,0.019,-0.981,0.217,-1.4896908000000002,2.1772404,-1.3178034,101.2989744,-0.18907614,-19.57224528
0.8200000000000001,82,0.022000000000000002,-0.9840000000000001,0.21600000000000005,-1.2032118,1.7188740000000002,-1.2032118,101.28751524,-0.17761697999999998,-19.55505654
0.8300000000000001,83,0.025,-0.987,0.217,-0.7448454000000001,0.6302538000000001,-1.145916,101.28178566,-0.1718874,-19.54359738
0.8400000000000001,84,0.027000000000000003,-0.9890000000000001,0.223,-0.40107059999999994,-0.572958,-1.0886202,101.27605608,-0.15469866,-19.54932696
0.85,85,0.027000000000000003,-0.991,0.226,-0.1718874,-1.5469866,-0.9167328000000001,101.28178566,-0.06875496,-19.595163600000006
0.86,86,0.026000000000000002,-0.9890000000000001,0.23,0.057295800000000015,-2.2345362,-0.8594370000000001,101.28751524,-0.057295800000000015,-19.61808192
0.87,87,0.025,-0.988,0.23399999999999999,0.572958,-2.4064236,-1.145916,101.29324482,-0.04010706,-19.63527066
0.88,88,0.024,-0.988,0.233,0.572958,-2.2345362,-1.4896908000000002,101.2989744,-0.01718874,-19.652459399999998
0.89,89,0.023,-0.991,0.22899999999999998,0.1718874,-1.8334656000000005,-1.8907614,101.2989744,0.0,-19.66964814
0.9,90,0.022000000000000002,-0.9940000000000001,0.228,-0.057295800000000015,-1.8334656000000005,-2.1772404,101.30470398,0.06302537999999999,-19.69829604
0.91,91,0.024,-0.997,0.23,-0.572958,-2.0053530000000004,-2.4064236,101.2989744,0.09167328,-19.71548478
0.92,92,0.027999999999999997,-0.998,0.23600000000000002,-0.9740286,-2.3491277999999998,-2.291832,101.29324482,0.12032118,-19.73267352
0.93,93,0.03,-1.0,0.235,-1.432395,-3.0366774,-2.1772404,101.27605608,0.14896908,-19.75559184
0.9400000000000001,94,0.031,-1.001,0.23399999999999999,-2.4064236,-3.8961144,-2.1772404,101.25313776,0.17761697999999998,-19.78996932
0.9500000000000001,95,0.028999999999999998,-1.001,0.23399999999999999,-3.4377480000000005,-4.6409598,-2.1199446,101.22448986,0.22345362,-19.84153554
0.9600000000000001,96,0.027999999999999997,-1.003,0.23600000000000002,-4.4690724,-4.6982555999999995,-2.291832,101.17865322,0.25783110000000004,-19.8816426
0.97,97,0.026000000000000002,-1.002,0.24100000000000002,-5.1566220000000005,-4.1825934,-2.291832,101.127087,0.29220857999999994,-19.91602008
0.98,98,0.02,-1.004,0.251,-5.6722842,-3.6096353999999997,-2.291832,101.06406162,0.32085648,-19.950397560000006
0.99,99,0.017,-1.004,0.253,-6.589017,-3.1512689999999997,-2.1199446,101.00103624,0.34950438,-19.97904546
1.0,100,0.021,-1.005,0.251,-7.3911582,-2.6929026,-1.9480572,100.93801086,0.38388186,-20.00196378
1.01,101,0.032,-1.0070000000000001,0.249,-8.59437,-2.1772404,-1.6615782,100.85206716,0.40680018,-20.024882100000006
1.02,102,0.040999999999999995,-1.006,0.247,-10.1413566,-1.7188740000000002,-1.4896908000000002,100.74893472,0.42398892,-20.03634126
1.03,103,0.047,-1.005,0.247,-11.1153852,-1.6615782,-1.2605076000000002,100.63434312,0.43544808,-20.05353
1.04,104,0.05,-1.004,0.244,-11.802934800000001,-1.6042823999999998,-1.2605076000000002,100.51402194,0.4526368200000001,-20.07071874
1.05,105,0.053,-1.003,0.239,-12.6623718,-1.3178034,-1.145916,100.39370076,0.4870143000000001,-20.08790748
1.06,106,0.054000000000000006,-0.997,0.22899999999999998,-13.6936962,-1.145916,-1.0886202,100.25619084000002,0.4984734599999999,-20.09936664
1.07,107,0.054000000000000006,-0.992,0.223,-14.4958374,-1.7761698000000001,-1.0313244000000001,100.10722176,0.5099326200000001,-20.11655538
1.08,108,0.054000000000000006,-0.99,0.22,-15.3552744,-2.7501984,-0.7448454000000001,99.9525231,0.52139178,-20.14520328
1.09,109,0.055,-0.99,0.218,-15.928232399999999,-3.6669312000000014,-0.4583664000000001,99.79209486,0.53285094,-20.18531034
1.1,110,0.06,-0.9890000000000001,0.215,-16.558486199999994,-4.2398892,-0.2291832000000001,99.62593704,0.56149884,-20.23114698
1.11,111,0.059000000000000004,-0.987,0.21100000000000002,-16.959556799999998,-4.1252976000000015,0.0,99.45404964,0.56722842,-20.276983620000006
1.12,112,0.057999999999999996,-0.985,0.20800000000000002,-17.0168526,-3.9534102,0.057295800000000015,99.28216224,0.5729580000000001,-20.31709068
1.1300000000000001,113,0.055999999999999994,-0.985,0.205,-16.959556799999998,-3.6669312000000014,0.11459160000000004,99.11027484,0.5786875800000001,-20.35146816
1.1400000000000001,114,0.055,-0.986,0.207,-16.8449652,-3.4950437999999995,0.2291832000000001,98.93838744,0.5786875800000001,-20.39157522
1.1500000000000001,115,0.055,-0.987,0.207,-17.0168526,-3.6669312000000014,0.572958,98.77222962,0.59587632,-20.43741186
1.1600000000000001,116,0.052000000000000005,-0.987,0.205,-16.7876694,-3.8388186,0.9167328000000001,98.60034222,0.59014674,-20.47751892
1.17,117,0.053,-0.987,0.203,-16.558486199999994,-4.0680017999999984,1.0886202,98.4341844,0.5844171599999999,-20.51762598
1.18,118,0.054000000000000006,-0.983,0.203,-16.615782,-4.4117766,1.2032118,98.262297,0.5786875800000001,-20.56346262
1.19,119,0.052000000000000005,-0.9790000000000001,0.20199999999999999,-16.272007199999994,-4.8128472,1.2605076000000002,98.10186876,0.5729580000000001,-20.61502884
1.2,120,0.052000000000000005,-0.978,0.201,-15.928232399999999,-5.0993262,1.145916,97.9471701,0.5844171599999999,-20.67805422
1.21,121,0.051,-0.975,0.203,-15.4125702,-5.3285094000000015,1.145916,97.79247144,0.5786875800000001,-20.72962044
1.22,122,0.051,-0.978,0.205,-15.011499599999999,-6.130650599999999,1.0313244000000001,97.63777278,0.5786875800000001,-20.79264582
1.23,123,0.049,-0.982,0.20800000000000002,-14.896907999999998,-7.333862400000001,0.9167328000000001,97.4888037,0.5786875800000001,-20.86713036
1.24,124,0.048,-0.985,0.21100000000000002,-15.011499599999999,-8.3651868,0.7448454000000001,97.33410504,0.5844171599999999,-20.95307406
1.25,125,0.048,-0.986,0.21,-14.667724800000002,-8.7662574,0.5156622000000001,97.2023247,0.6016058999999999,-21.04474734
1.26,126,0.047,-0.9890000000000001,0.207,-14.5531332,-9.453807,0.40107059999999994,97.05335562,0.61306506,-21.142150199999996
1.27,127,0.045,-0.991,0.20199999999999999,-14.7823164,-10.943497800000001,0.3437748,96.90438654,0.62452422,-21.25101222
1.28,128,0.043,-0.99,0.205,-14.610429000000002,-12.4331886,0.3437748,96.75541746,0.63598338,-21.37706298
1.29,129,0.039,-0.9940000000000001,0.20600000000000002,-14.037471,-14.1520626,0.5156622000000001,96.61217795999998,0.65317212,-21.5145729
1.3,130,0.032,-0.996,0.212,-13.120738199999998,-15.297978599999999,0.5156622000000001,96.49185678,0.6703608600000001,-21.66927156
1.31,131,0.028999999999999998,-1.001,0.213,-11.1153852,-16.386598799999998,0.057295800000000015,96.37726518,0.69327918,-21.83542938
1.32,132,0.028999999999999998,-1.006,0.20800000000000002,-9.3392154,-17.761698000000006,-0.6302538000000001,96.28559190000001,0.72192708,-22.007316780000004
1.33,133,0.027999999999999997,-1.001,0.20199999999999999,-8.880849000000003,-19.4232762,-1.6042823999999998,96.19391862,0.76203414,-22.19639292
1.34,134,0.027999999999999997,-0.987,0.19399999999999998,-8.078707799999998,-20.7410796,-2.4637194,96.1137045,0.8136003599999999,-22.39692822
1.35,135,0.025,-0.9790000000000001,0.19,-8.021412000000002,-21.371333399999997,-3.0939732,96.03921996,0.87662574,-22.60892268
1.36,136,0.02,-0.971,0.18899999999999997,-8.021412000000002,-21.829699800000004,-3.380452200000001,95.95900584,0.93965112,-22.82091714
1.37,137,0.008,-0.9670000000000001,0.17800000000000002,-7.734933000000002,-22.7464326,-3.5523396000000003,95.87879172,1.0026765,-23.03864118
1.3800000000000001,138,-0.004,-0.963,0.161,-8.9954406,-24.7517856,-3.4950437999999995,95.78711844,1.06570188,-23.27928354
1.3900000000000001,139,-0.012,-0.9440000000000001,0.152,-11.5737516,-27.903054600000004,-3.3231564,95.66679726,1.13445684,-23.55430338
1.4000000000000001,140,-0.019,-0.922,0.147,-12.4331886,-31.856464799999998,-3.2658606,95.5407465,1.2032117999999998,-23.85797112
1.4100000000000001,141,-0.025,-0.912,0.154,-13.0634424,-34.950438,-3.6669312000000014,95.40896616,1.27769634,-24.20174592
1.42,142,-0.03,-0.922,0.17,-15.3552744,-36.4401288,-4.010706000000001,95.24853792,1.36364004,-24.55697988
1.43,143,-0.036000000000000004,-0.945,0.18100000000000002,-18.7357266,-36.03905820000001,-4.010706000000001,95.0537322,1.44385416,-24.91221384
1.44,144,-0.037000000000000005,-0.986,0.188,-21.142150199999996,-33.6899304,-3.6669312000000014,94.83600816,1.5183387000000002,-25.238799899999997
1.45,145,-0.035,-1.038,0.177,-22.6891368,-31.2835068,-2.1199446,94.60682496,1.56417534,-25.54819722
1.46,146,-0.037000000000000005,-1.083,0.166,-23.0902074,-30.252182399999995,0.572958,94.3661826,1.5870936600000003,-25.84613538
1.47,147,-0.045,-1.091,0.162,-21.600516600000002,-29.2781538,4.0680017999999984,94.14272898,1.5756344999999998,-26.14407354
1.48,148,-0.061,-1.072,0.157,-18.9649098,-26.929026,7.161975,93.94792326,1.52979786,-26.41336380000001
1.49,149,-0.09300000000000001,-1.0390000000000001,0.174,-16.501190400000002,-23.9496444,9.167328,93.77603586,1.45531332,-26.659735739999995
1.5,150,-0.132,-1.014,0.203,-14.5531332,-20.2827132,10.313244000000001,93.63852594,1.3464512999999998,-26.86027104
1.51,151,-0.163,-1.003,0.235,-14.32395,-15.6990492,11.172680999999999,93.49528644,1.24904844,-27.02069928
1.52,152,-0.185,-1.006,0.247,-15.5844576,-11.172680999999999,12.5477802,93.3348582,1.13445684,-27.14102046
1.53,153,-0.18899999999999997,-1.016,0.237,-17.0168526,-7.906820400000001,14.667724800000002,93.1629708,0.9969469199999998,-27.23269374
1.54,154,-0.172,-1.031,0.22,-17.5325148,-6.1879464,17.475219,92.98535382,0.8250595199999999,-27.3014487
1.55,155,-0.147,-1.0390000000000001,0.196,-16.272007199999994,-6.3025379999999975,20.7410796,92.83065516000002,0.6016058999999999,-27.37020366
1.56,156,-0.12300000000000001,-1.035,0.182,-14.610429000000002,-7.2765666,23.0329116,92.68168608,0.37815228,-27.45614736
1.57,157,-0.10800000000000001,-1.015,0.177,-13.750992000000002,-8.8235532,23.663165399999997,92.54417616,0.14896908,-27.55355022
1.58,158,-0.10400000000000001,-0.99,0.17600000000000002,-13.521808800000002,-10.4278356,22.9756158,92.40666624,-0.06875496,-27.66814182
1.59,159,-0.11,-0.968,0.179,-14.266654199999998,-11.172680999999999,21.485925,92.26342674,-0.27501984,-27.79419258
1.6,160,-0.121,-0.955,0.177,-15.527161800000002,-10.657018800000001,19.652459399999998,92.12591682,-0.48128472,-27.903054600000004
1.61,161,-0.132,-0.945,0.165,-16.386598799999998,-9.1100322,17.8189938,91.95975899999999,-0.65317212,-28.00045746
1.62,162,-0.141,-0.95,0.151,-16.386598799999998,-7.161975,16.042824000000003,91.79360118,-0.8136003599999999,-28.08067158
1.6300000000000001,163,-0.14400000000000002,-0.9570000000000001,0.14,-16.386598799999998,-5.2712136,14.32395,91.63317294,-0.95111028,-28.13796738
1.6400000000000001,164,-0.141,-0.966,0.135,-16.157415599999997,-3.7242269999999995,12.891555,91.46701512,-1.07716104,-28.17807444
1.6500000000000001,165,-0.138,-0.973,0.134,-16.7876694,-2.5210152000000003,11.6310474,91.31804604,-1.22040054,-28.20099276
1.6600000000000001,166,-0.138,-0.977,0.136,-17.5325148,-1.145916,10.599723,91.14042906,-1.32926256,-28.2181815
1.6700000000000002,167,-0.142,-0.985,0.142,-18.3919518,0.057295800000000015,9.568398599999998,90.95135292,-1.4209358399999998,-28.2181815
1.68,168,-0.147,-0.995,0.146,-19.194093,1.3178034,8.880849000000003,90.7565472,-1.51260912,-28.21245192
1.69,169,-0.15,-1.001,0.14,-19.7097552,2.1772404,8.651665800000002,90.5560119,-1.6042824000000002,-28.1895336
1.7,170,-0.149,-1.008,0.128,-19.5378678,1.8907614,8.5370742,90.37266534,-1.71314442,-28.16661528
1.71,171,-0.14300000000000002,-1.01,0.127,-18.907614,1.4896908000000002,8.193299399999999,90.1835892,-1.79908812,-28.15515612
1.72,172,-0.141,-1.0090000000000001,0.127,-18.334656,1.3750992,7.5057497999999985,89.99451306,-1.87357266,-28.14369696
1.73,173,-0.146,-1.005,0.126,-17.475219,1.5469866,6.3598338,89.81689608,-1.94232762,-28.1322378
1.74,174,-0.154,-1.0,0.13699999999999998,-16.386598799999998,2.291832,4.5263682,89.65073826,-1.98816426,-28.10931948
1.75,175,-0.163,-0.995,0.14800000000000002,-15.297978599999999,4.1825934,2.1772404,89.5246875,-2.05118964,-28.05202368
1.76,176,-0.17300000000000001,-0.99,0.162,-14.037471,6.9327918,-0.4583664000000001,89.38144799999998,-2.05118964,-27.988998300000002
1.77,177,-0.175,-0.991,0.17800000000000002,-12.7196676,10.7143146,-3.0939732,89.24393807999998,-2.02254174,-27.88013628
1.78,178,-0.17,-0.995,0.18899999999999997,-11.745639,14.4958374,-5.042030400000002,89.11788732,-1.9767051,-27.74262636
1.79,179,-0.161,-0.9990000000000001,0.192,-10.2559482,17.475219,-6.1879464,89.00902529999998,-1.91367972,-27.57073896
1.8,180,-0.147,-0.998,0.193,-8.59437,19.365980399999998,-6.4744254,88.94027034,-1.87357266,-27.37020366
1.81,181,-0.135,-0.9890000000000001,0.19,-6.4744254,20.05353,-6.2452422,88.8657858,-1.81627686,-27.17539794
1.82,182,-0.125,-0.9740000000000001,0.198,-4.8128472,20.340009,-5.7868758000000025,88.80848999999998,-1.75898106,-26.974862640000005
1.83,183,-0.121,-0.95,0.203,-2.7501984,20.2827132,-5.72958,88.77411251999996,-1.70168526,-26.77432734000001
1.84,184,-0.12300000000000001,-0.9309999999999999,0.21,-0.1718874,20.626488000000002,-6.0160589999999985,88.76265336,-1.64438946,-26.57379204
1.85,185,-0.131,-0.915,0.226,2.291832,21.027558600000006,-6.9327918,88.81994916,-1.6042824000000002,-26.356068
1.86,186,-0.141,-0.9009999999999999,0.258,4.9274388,21.886995600000002,-8.193299399999999,88.86005622,-1.52406828,-26.138343960000004
1.87,187,-0.151,-0.89,0.278,8.479778399999999,23.663165399999997,-10.313244000000001,88.93454076,-1.4209358399999998,-25.90916076
1.8800000000000001,188,-0.161,-0.879,0.293,12.776963400000001,26.1841806,-12.4331886,89.05486194,-1.30061466,-25.64560008
1.8900000000000001,189,-0.17,-0.868,0.32,16.329303,29.0489706,-14.610429000000002,89.20956059999996,-1.1573751600000002,-25.35912108
1.9000000000000001,190,-0.18,-0.855,0.377,19.308684600000007,30.080295,-16.386598799999998,89.43301421999998,-1.01413566,-25.055453340000003
1.9100000000000001,191,-0.209,-0.8320000000000001,0.426,24.694489800000003,29.4500412,-17.7044022,89.67365658,-0.8422482600000001,-24.76324476
1.9200000000000002,192,-0.258,-0.8320000000000001,0.45,31.741873200000004,34.5493674,-19.2513888,89.98878348,-0.6589017,-24.41374038
1.93,193,-0.278,-0.982,0.342,26.5852512,59.7595194,-21.657812399999997,90.24088499999999,-0.4583664000000001,-23.81786406
1.94,194,-0.134,-1.443,-0.325,-2.1772404,82.21947300000002,-11.3445684,90.20077794,-0.3724227000000001,-23.00999328
1.95,195,-0.16699999999999998,-1.9369999999999998,-0.185,-4.6982555999999995,31.3980984,12.4331886,90.14921172,-0.5042030399999999,-22.70059596
1.96,196,0.109,-1.946,0.054000000000000006,19.480572,23.2620948,22.4599536,90.33828786,-0.73338624,-22.46568318
1.97,197,0.376,-1.61,-0.113,34.1482968,38.8465524,22.86102420000001,90.67633308,-0.9740286,-22.08180132
1.98,198,0.33299999999999996,-1.169,-0.161,28.1895336,39.7059894,12.2040054,90.95135292,-1.11153852,-21.6864603
1.99,199,0.141,-0.8290000000000001,0.075,13.2353298,44.51883660000001,-7.6776372,91.0716741,-1.05424272,-21.245282640000006
2.0,200,0.10400000000000001,-0.662,0.145,-1.3750992,48.5868384,-28.1895336,91.04875578,-0.7849524600000001,-20.76399792
2.01,201,0.13699999999999998,-0.593,0.035,-4.6409598,52.425657,-42.05511720000001,90.9857304,-0.38961144,-20.23687656
2.02,202,0.095,-0.687,-0.094,-2.8074942000000003,61.36380179999999,-43.831286999999996,90.94562334,0.01145916,-19.6238115
2.03,203,-0.032,-0.867,-0.122,-4.2398892,63.25456320000001,-32.6013102,90.89405712,0.30939732,-18.9935577
2.04,204,-0.14400000000000002,-1.083,-0.10800000000000001,-5.2712136,54.4883058,-14.381245800000002,90.83676132,0.42398892,-18.449247600000003
2.05,205,-0.17,-1.192,-0.07200000000000001,-5.0993262,42.28430039999999,1.8334656000000005,90.77946552,0.37815228,-18.03098826
2.0599999999999996,206,-0.14400000000000002,-1.161,-0.053,-5.3858052,34.2055926,9.682990199999999,90.72216972,0.26356068,-17.69294304
2.07,207,-0.086,-1.047,-0.08900000000000001,-7.8495246,30.366774000000003,9.5111028,90.63622602,0.16042824,-17.39500488
2.0799999999999996,208,-0.003,-0.932,-0.09699999999999999,-9.1100322,26.642546999999997,4.1825934,90.54455274,0.10313244,-17.131444199999994
2.09,209,0.094,-0.851,-0.061,-6.7609043999999985,19.480572,-3.4377480000000005,90.4700682,0.13178034,-16.94236806
2.0999999999999996,210,0.214,-0.8240000000000001,-0.018000000000000002,-1.145916,11.2872726,-13.0061466,90.45287946,0.31512690000000004,-16.844965199999994
2.11,211,0.29600000000000004,-0.8190000000000001,0.018000000000000002,2.1772404,5.2139178,-21.199446,90.47579778,0.52139178,-16.79339898
2.1199999999999997,212,0.32899999999999996,-0.8190000000000001,0.045,1.0886202,1.6042823999999998,-23.7204612,90.48725694,0.75630456,-16.77048066
2.13,213,0.324,-0.8190000000000001,0.028999999999999998,-1.8907614,0.5156622000000001,-21.4286292,90.46433862,0.96829902,-16.764751080000003
2.1399999999999997,214,0.316,-0.8690000000000001,0.013000000000000001,-4.6409598,-0.4583664000000001,-17.8762896,90.41850198,1.1459160000000002,-16.77048066
2.15,215,0.292,-0.9490000000000001,-0.01,-6.7609043999999985,-0.9167328000000001,-15.813640800000002,90.33828786,1.38082878,-16.80485814
2.1599999999999997,216,0.254,-1.0290000000000001,-0.017,-7.9641161999999985,-1.6615782,-15.5844576,90.25807374,1.53552744,-16.8163173
2.17,217,0.218,-1.071,-0.018000000000000002,-8.136003599999999,-2.5210152000000003,-15.813640800000002,90.17213004,1.6959556799999995,-16.844965199999994
2.1799999999999997,218,0.16699999999999998,-1.047,-0.001,-8.250595200000001,-3.1512689999999997,-15.6417534,90.09191592,1.85065434,-16.873613100000004
2.19,219,0.12,-0.995,0.023,-7.6203414,-3.2658606,-14.8396122,90.0117018,1.99962342,-16.90799058
2.1999999999999997,220,0.063,-0.9470000000000001,0.059000000000000004,-6.7609043999999985,-2.9793816000000004,-14.037471,89.95440599999998,2.14286292,-16.94236806
2.21,221,0.008,-0.925,0.083,-6.0733548,-0.9167328000000001,-13.2353298,89.89138061999998,2.2746432600000004,-16.94809764
2.2199999999999998,222,-0.034,-0.922,0.084,-5.2712136,2.7501984,-12.2040054,89.83981440000002,2.39496444,-16.919449739999994
2.23,223,-0.057,-0.9359999999999999,0.095,-4.1825934,6.130650599999999,-11.45916,89.79970734,2.50382646,-16.86215394
2.2399999999999998,224,-0.09699999999999999,-0.9359999999999999,0.098,-3.0939732,7.9641161999999985,-10.084060800000001,89.77105944,2.6012293200000003,-16.781939819999998
2.25,225,-0.09300000000000001,-0.978,0.122,-3.5523396000000003,9.167328,-9.453807,89.75960028,2.65279554,-16.678807380000002
2.26,226,-0.055,-0.9890000000000001,0.11699999999999999,-4.7555514,11.1153852,-7.5630456000000015,89.71376364,2.72728008,-16.56994536
2.27,227,-0.001,-0.9940000000000001,0.141,-5.042030400000002,12.261301199999998,-4.010706000000001,89.66792699999998,2.76165756,-16.44962418
2.28,228,0.055,-0.987,0.152,-3.6669312000000014,10.4278356,-0.40107059999999994,89.63354952,2.76738714,-16.34649174
2.29,229,0.106,-1.001,0.14800000000000002,-2.1772404,8.4224826,3.0939732,89.61636078000002,2.73300966,-16.26054804
2.3,230,0.15,-1.015,0.132,-1.4896908000000002,5.3285094000000015,6.6463128000000005,89.65073826,2.73300966,-16.23190014
2.31,231,0.19399999999999998,-1.023,0.121,0.8021411999999999,1.7761698000000001,9.3392154,89.66219742,2.6413363800000003,-16.208981819999998
2.32,232,0.22699999999999998,-1.021,0.129,3.7242269999999995,-2.2345362,10.657018800000001,89.6965749,2.53247436,-16.23190014
2.3299999999999996,233,0.245,-1.008,0.138,7.2192707999999985,-6.6463128000000005,10.943497800000001,89.77105944,2.42934192,-16.29492552
2.34,234,0.24,-0.996,0.149,9.682990199999999,-10.657018800000001,10.657018800000001,89.8684623,2.32620948,-16.40378754
2.3499999999999996,235,0.207,-0.985,0.165,12.4331886,-16.042824000000003,10.657018800000001,90.0117018,2.25172494,-16.56994536
2.36,236,0.151,-0.9740000000000001,0.192,14.610429000000002,-21.2567418,10.657018800000001,90.1549413,2.15432208,-16.77621024
2.3699999999999997,237,0.08900000000000001,-0.965,0.223,19.4232762,-27.100913399999996,11.172680999999999,90.34401744,2.05118964,-17.0455005
2.38,238,0.042,-0.9520000000000001,0.249,22.2307704,-33.2888598,12.9488508,90.56747106,1.93659804,-17.37208656
2.3899999999999997,239,0.021,-0.917,0.252,26.1268848,-36.898495200000006,15.527161800000002,90.82530216,1.79908812,-17.73877968
2.4,240,0.037000000000000005,-0.9059999999999999,0.267,33.8618178,-40.7373138,19.365980399999998,91.17480654,1.6272007199999998,-18.13985028
2.4099999999999997,241,0.068,-0.924,0.29100000000000004,38.2162986,-46.3523022,23.835052800000003,91.5586884,1.4209358399999998,-18.59821668
2.42,242,0.087,-1.0190000000000001,0.11599999999999999,34.8358464,-52.998615,27.4446882,91.90819278,1.18029348,-19.12533804
2.4299999999999997,243,-0.042,-1.285,-0.18899999999999997,28.3041252,-67.036086,25.9549974,92.19467178,0.96829902,-19.7956989
2.44,244,-0.151,-1.916,-0.02,20.912967000000002,-35.695283399999994,4.5263682,92.40666624,0.9453807,-20.14520328
2.4499999999999997,245,-0.209,-2.166,-0.06,2.5783110000000002,-5.958763200000001,-21.886995600000002,92.42958456,1.1688343199999998,-20.196769500000002
2.46,246,-0.24100000000000002,-1.589,-0.11900000000000001,7.9641161999999985,0.2291832000000001,-26.1268848,92.50979868,1.42666542,-20.17958076
2.4699999999999998,247,-0.081,-1.126,-0.131,28.877083199999998,-8.021412000000002,-10.1413566,92.80200726,1.53552744,-20.2540653
2.48,248,0.153,-0.966,0.005,35.7525792,-24.5798982,2.1772404,93.1629708,1.53552744,-20.488978080000006
2.4899999999999998,249,0.136,-0.785,-0.013000000000000001,19.0222056,-42.97185,11.401864199999999,93.35204694,1.4610428999999998,-20.91869658
2.5,250,0.035,-0.606,-0.10099999999999999,2.9793816000000004,-55.92070079999999,19.595163600000006,93.3635061,1.31207382,-21.48019542
2.51,251,0.022000000000000002,-0.621,-0.085,-9.0527364,-58.9000824,24.637194,93.27183282,1.1172681,-22.07607174
2.52,252,0.07200000000000001,-0.784,-0.012,-13.464512999999998,-48.4722468,19.767051000000002,93.12859332,0.96256944,-22.56881562
2.53,253,0.091,-1.0,0.036000000000000004,-12.2040054,-33.9191136,7.3911582,93.00254256,0.9167328,-22.90686084
2.54,254,0.08800000000000001,-1.203,0.03,-9.3392154,-20.454600600000006,-8.5370742,92.91086928,1.01413566,-23.10739614
2.55,255,0.066,-1.297,-0.017,-10.599723,-12.605075999999999,-19.595163600000006,92.79627768,1.22040054,-23.22198774
2.56,256,0.032,-1.25,-0.063,-14.7823164,-7.161975,-20.2827132,92.64157902,1.42666542,-23.28501312
2.57,257,0.008,-1.143,-0.076,-18.8503182,-3.2658606,-12.318597,92.45250288,1.5469866,-23.31366102
2.5799999999999996,258,-0.044000000000000004,-1.031,-0.015,-18.162768600000003,-4.7555514,-1.6042823999999998,92.26342674,1.56990492,-23.36522724000001
2.59,259,-0.09699999999999999,-0.941,0.018000000000000002,-15.870936600000002,-10.7716104,11.3445684,92.1029985,1.4610428999999998,-23.474089260000003
2.5999999999999996,260,-0.131,-0.8690000000000001,0.022000000000000002,-13.980175199999998,-14.381245800000002,19.5378678,91.95402942,1.24904844,-23.62305834
2.61,261,-0.16,-0.848,0.034,-11.2872726,-17.589810600000003,24.1215318,91.83943782,1.01986524,-23.8064049
2.6199999999999997,262,-0.18100000000000002,-0.862,0.065,-9.1100322,-19.8243468,25.7258142,91.74776454000002,0.7792228800000001,-24.01266978
2.63,263,-0.193,-0.89,0.085,-8.3651868,-19.9962342,25.0382646,91.66182084,0.53858052,-24.21893466
2.6399999999999997,264,-0.195,-0.903,0.10099999999999999,-8.59437,-16.8449652,22.2880662,91.57587714,0.32658606,-24.39082206
2.65,265,-0.18600000000000005,-0.9079999999999999,0.111,-9.8548776,-11.745639,18.3919518,91.48993344,0.10886202,-24.49968408
2.6599999999999997,266,-0.172,-0.894,0.114,-10.313244000000001,-6.417129599999999,14.610429000000002,91.386801,-0.028647900000000007,-24.56843904
2.67,267,-0.157,-0.894,0.11699999999999999,-10.2559482,0.0,10.828906199999999,91.28366856,-0.13178034,-24.57416862
2.6799999999999997,268,-0.13699999999999998,-0.899,0.09699999999999999,-11.917526400000002,3.3231564,8.880849000000003,91.1576178,-0.22345362,-24.54552072
2.69,269,-0.11800000000000001,-0.902,0.062,-12.9488508,3.7242269999999995,8.59437,91.02583746,-0.31512690000000004,-24.51114324
2.6999999999999997,270,-0.098,-0.9079999999999999,0.034,-12.7196676,2.0053530000000004,9.167328,90.8997867,-0.4297185000000001,-24.48822492
2.71,271,-0.084,-0.9159999999999999,0.03,-12.834259199999998,-0.9167328000000001,9.8548776,90.76800636,-0.53285094,-24.49968408
2.7199999999999998,272,-0.077,-0.9209999999999999,0.035,-13.750992000000002,-3.6669312000000014,9.9694692,90.63049644,-0.6302538000000001,-24.53979114
2.73,273,-0.08199999999999999,-0.917,0.053,-14.32395,-5.3285094000000015,9.224623800000002,90.48152736,-0.72192708,-24.59708694
2.7399999999999998,274,-0.091,-0.92,0.085,-13.980175199999998,-4.3544808,7.2765666,90.34401744,-0.7906820400000001,-24.637194
2.75,275,-0.105,-0.932,0.09300000000000001,-14.4958374,0.286479,3.8388186,90.21796668,-0.87089616,-24.62573484
2.76,276,-0.11800000000000001,-0.953,0.106,-13.8082878,4.8128472,0.8021411999999999,90.08045676,-0.8823553199999999,-24.5798982
2.77,277,-0.12300000000000001,-0.972,0.11699999999999999,-11.8602306,8.250595200000001,-1.6615782,89.95440599999998,-0.86516658,-24.49968408
2.78,278,-0.11699999999999999,-0.983,0.12300000000000001,-9.1100322,10.943497800000001,-3.5523396000000003,89.85700313999996,-0.83651868,-24.39082206
2.79,279,-0.10400000000000001,-0.985,0.125,-6.0160589999999985,12.605075999999999,-4.7555514,89.79397776,-0.7906820400000001,-24.27050088
2.8,280,-0.092,-0.977,0.14400000000000002,-2.5783110000000002,14.209358400000001,-5.9014674000000005,89.80543692,-0.76203414,-24.1215318
2.81,281,-0.08800000000000001,-0.9690000000000001,0.166,1.145916,15.183387000000002,-7.1046792000000005,89.8111665,-0.69327918,-23.97256272000001
2.82,282,-0.094,-0.963,0.182,4.5263682,15.469866,-8.078707799999998,89.85700313999996,-0.61879464,-23.81786406
2.8299999999999996,283,-0.10800000000000001,-0.955,0.191,7.6203414,15.297978599999999,-9.2819196,89.93148768,-0.52712136,-23.663165399999997
2.84,284,-0.121,-0.953,0.21,10.599723,15.2406828,-10.599723,90.03462012,-0.42398892,-23.51419632
2.8499999999999996,285,-0.131,-0.9490000000000001,0.23600000000000002,13.2926256,16.615782,-11.9748222,90.20077794,-0.33231564,-23.336579340000004
2.86,286,-0.14,-0.953,0.262,15.756345,19.4232762,-13.407217200000002,90.35547659999999,-0.20626488,-23.14177362
2.8699999999999997,287,-0.14800000000000002,-0.9620000000000001,0.28,17.5325148,23.0329116,-15.068795399999999,90.53309358,-0.06302537999999999,-22.91259042
2.88,288,-0.16,-0.968,0.298,19.767051000000002,27.1582092,-16.7303736,90.7278993,0.09167328,-22.63757058
2.8899999999999997,289,-0.168,-0.978,0.308,21.485925,32.142943800000005,-18.048177,90.94562334,0.25783110000000004,-22.3167141
2.9,290,-0.16,-0.995,0.27699999999999997,21.7151082,38.731960799999996,-18.621135,91.18053612,0.41252976,-21.92137308
2.9099999999999997,291,-0.149,-1.035,0.22699999999999998,22.1734746,44.9199072,-16.8449652,91.40398974,0.55576926,-21.46873626
2.92,292,-0.127,-1.092,0.16699999999999998,24.1215318,48.185767799999994,-14.209358400000001,91.6446321,0.67609044,-20.98745154
2.9299999999999997,293,-0.086,-1.15,0.10400000000000001,26.4706596,51.7954032,-11.0580894,91.91392236,0.75630456,-20.47178934
2.94,294,-0.043,-1.198,0.063,27.960350399999996,57.2385042,-8.3651868,92.20040136,0.8078707799999998,-19.89883134
2.9499999999999997,295,-0.005,-1.219,0.04,24.0069402,64.17129600000001,-7.734933000000002,92.44104372,0.8422482600000001,-19.25711838
2.96,296,0.027999999999999997,-1.196,0.027999999999999997,17.6471064,65.7182826,-8.7089616,92.6186607,0.8823553199999999,-18.60394626
2.9699999999999998,297,0.055,-1.165,0.002,14.5531332,57.123912600000004,-9.224623800000002,92.76762978,0.93392154,-18.03671784
2.98,298,0.07400000000000001,-1.1320000000000001,-0.028999999999999998,9.5111028,48.7587258,-8.307891,92.86503264,0.97975818,-17.549703540000007
2.9899999999999998,299,0.125,-1.102,-0.059000000000000004,-0.5156622000000001,49.3316838,-4.8701430000000006,92.86503264,0.9912173399999998,-17.056959659999997
3.0,300,0.244,-1.089,-0.102,-9.682990199999999,59.24385720000001,-0.9740286,92.75044104,0.97975818,-16.484001659999997
3.01,301,0.34,-1.057,-0.179,-14.9542038,65.94746579999999,3.380452200000001,92.60147196,0.89381448,-15.83655912
3.02,302,0.34,-1.026,-0.239,-14.896907999999998,63.311859,7.5630456000000015,92.45250288,0.7734933,-15.21776448
3.03,303,0.264,-1.021,-0.252,-13.8655836,54.8320806,10.4851314,92.30926338,0.6302538000000001,-14.67918396
3.04,304,0.183,-1.024,-0.22,-16.7303736,42.8572584,12.1467096,92.13737598,0.48128472,-14.266654199999998
3.05,305,0.106,-1.048,-0.195,-22.058882999999998,26.69984280000001,12.891555,91.88527446,0.3437748,-14.008823099999995
3.06,306,0.053,-1.111,-0.17,-25.0382646,10.4278356,12.0894138,91.63317294,0.21199446,-13.91714982
3.07,307,0.033,-1.188,-0.133,-24.350715,-7.1046792000000005,7.6203414,91.386801,0.13750992,-13.99163436
3.08,308,0.024,-1.252,-0.09300000000000001,-22.631841,-12.605075999999999,0.0,91.1576178,0.14323950000000002,-14.11768512
3.09,309,0.013000000000000001,-1.252,-0.055,-21.314037600000002,-13.5791046,-9.1100322,90.93989376,0.24064236,-14.25519504
3.0999999999999996,310,0.036000000000000004,-1.189,-0.012,-19.4232762,-13.407217200000002,-17.303331600000003,90.73935846,0.42398892,-14.38697538
3.11,311,0.073,-1.101,0.012,-20.1108258,-12.776963400000001,-21.485925,90.53882316,0.64171296,-14.51302614
3.1199999999999997,312,0.08199999999999999,-1.0270000000000001,0.02,-21.772404,-11.745639,-21.829699800000004,90.31536954,0.8594370000000001,-14.62761774
3.13,313,0.092,-0.9840000000000001,0.024,-24.522602399999997,-7.8495246,-21.0848544,90.06326802,1.07143146,-14.707831860000002
3.1399999999999997,314,0.092,-0.95,0.037000000000000005,-27.8457588,-5.3858052,-19.308684600000007,89.7825186,1.2605076000000002,-14.76512766
3.15,315,0.095,-0.9329999999999999,0.05,-29.8511118,-4.010706000000001,-17.246035799999998,89.48458044,1.44385416,-14.810964300000002
3.1599999999999997,316,0.10300000000000001,-0.93,0.068,-30.194886600000004,-1.7761698000000001,-15.9855282,89.17518312,1.59855282,-14.83388262
3.17,317,0.105,-0.9209999999999999,0.07200000000000001,-29.0489706,1.432395,-15.126091199999998,88.88297453999998,1.7475218999999995,-14.82815304
3.1799999999999997,318,0.10400000000000001,-0.922,0.076,-27.3300966,4.8128472,-15.068795399999999,88.60222512,1.89649098,-14.7823164
3.19,319,0.107,-0.935,0.062,-26.642546999999997,7.5630456000000015,-15.6417534,88.33293486,2.05118964,-14.71356144
3.1999999999999997,320,0.11900000000000001,-0.945,0.032,-26.7571386,10.084060800000001,-16.1001198,88.06937418,2.22307704,-14.62761774
3.21,321,0.139,-0.9470000000000001,0.012,-27.6738714,9.5111028,-15.870936600000002,87.78862475999998,2.3777757,-14.541674039999998
3.2199999999999998,322,0.141,-0.9309999999999999,-0.004,-28.7051958,6.3598338,-14.896907999999998,87.50214575999998,2.52674478,-14.484378240000002
3.23,323,0.165,-0.903,0.0,-27.903054600000004,3.1512689999999997,-14.266654199999998,87.21566676,2.6642547000000003,-14.467189499999998
3.2399999999999998,324,0.182,-0.895,0.003,-27.043617600000005,1.5469866,-14.7250206,86.94064691999998,2.8074942000000003,-14.45573034
3.25,325,0.179,-0.898,0.005,-27.8457588,0.5156622000000001,-15.6990492,86.66562708000002,2.98511118,-14.47291908
3.26,326,0.142,-0.899,-0.008,-29.5646328,-2.5210152000000003,-16.673077799999998,86.36195934,3.14553942,-14.50729656
3.27,327,0.10800000000000001,-0.892,-0.022000000000000002,-27.100913399999996,-5.6149884000000005,-16.615782,86.0869395,3.3059676599999994,-14.576051520000002
3.28,328,0.075,-0.895,-0.009000000000000001,-24.2934192,-9.9121734,-15.756345,85.83483798,3.46066632,-14.69064312
3.29,329,0.047,-0.88,0.016,-20.6837838,-15.183387000000002,-13.9228794,85.61138436,3.58671708,-14.85107136
3.3,330,0.027999999999999997,-0.862,0.081,-17.0741484,-19.9962342,-10.599723,85.45095612,3.67839036,-15.05733624
3.31,331,0.02,-0.818,0.14,-10.599723,-24.522602399999997,-4.9847346,85.33063494000002,3.71276784,-15.30943776
3.32,332,0.034,-0.7829999999999999,0.18,-3.3231564,-23.0902074,0.286479,85.2847983,3.6955791,-15.53862096
3.33,333,0.07,-0.759,0.19399999999999998,4.297185,-19.9962342,5.3285094000000015,85.31917578,3.63255372,-15.727697099999999
3.34,334,0.122,-0.7340000000000001,0.175,14.0947668,-18.907614,9.453807,85.45095612,3.52942128,-15.90531408
3.3499999999999996,335,0.182,-0.747,0.136,26.814434400000003,-22.1161788,13.2926256,85.73170554,3.4091001000000003,-16.117308540000003
3.36,336,0.23399999999999999,-0.8029999999999999,0.10099999999999999,33.9191136,-27.1582092,16.272007199999994,86.06402118000004,3.24294228,-16.37513964
3.3699999999999997,337,0.262,-0.888,0.064,33.518043,-29.621928600000004,18.162768600000003,86.39633682,3.05386614,-16.650159480000006
3.38,338,0.218,-1.001,0.016,30.080295,-32.257535399999995,19.5378678,86.68854540000002,2.85333084,-16.95382722
3.3899999999999997,339,0.12,-1.131,-0.015,30.366774000000003,-38.61736920000001,18.5638392,86.98648356,2.65852512,-17.326249920000002
3.4,340,0.067,-1.268,-0.043,27.7311672,-41.5967508,16.386598799999998,87.25577381999999,2.48663772,-17.72732052
3.4099999999999997,341,0.033,-1.3219999999999998,-0.078,19.5378678,-45.1490904,15.126091199999998,87.43912037999998,2.33193906,-18.162768600000003
3.42,342,0.034,-1.256,-0.087,15.011499599999999,-48.185767799999994,16.157415599999997,87.58235988,2.1657812400000003,-18.63259416
3.4299999999999997,343,0.068,-1.138,-0.125,12.5477802,-49.6754586,18.7357266,87.69695148,1.97097552,-19.11387888
3.44,344,0.075,-1.0490000000000002,-0.162,11.0580894,-50.8786704,18.5638392,87.80008391999998,1.78189938,-19.61235234
3.4499999999999997,345,0.040999999999999995,-1.005,-0.16699999999999998,7.3911582,-46.925260200000004,14.667724800000002,87.85165014,1.6329303,-20.07071874
3.46,346,-0.053,-1.0190000000000001,-0.179,0.6875496,-41.825934000000004,8.479778399999999,87.85165014,1.5469866,-20.4832485
3.4699999999999998,347,-0.182,-1.038,-0.177,-7.5630456000000015,-38.2162986,1.7188740000000002,87.77143602000002,1.52406828,-20.86140078
3.48,348,-0.27399999999999997,-1.0270000000000001,-0.175,-9.6256944,-37.6433406,-1.8334656000000005,87.66830358,1.53552744,-21.23382348
3.4899999999999998,349,-0.31,-0.9940000000000001,-0.141,-10.4278356,-36.4401288,-3.4377480000000005,87.55371198,1.56417534,-21.59478702
3.5,350,-0.28600000000000003,-0.9440000000000001,-0.08199999999999999,-12.5477802,-31.2835068,-2.86479,87.41620206,1.52979786,-21.89272518000001
3.51,351,-0.22,-0.9129999999999999,-0.048,-16.902261,-22.4599536,-1.6615782,87.24431466,1.5412570200000002,-22.1161788
3.52,352,-0.15,-0.9059999999999999,-0.07,-20.2827132,-13.980175199999998,-0.1718874,87.03232019999999,1.5412570200000002,-22.259418300000004
3.53,353,-0.09699999999999999,-0.9570000000000001,-0.098,-19.595163600000006,-6.9327918,0.8594370000000001,86.83178489999996,1.52979786,-22.32817326
3.54,354,-0.021,-1.054,-0.10099999999999999,-20.5118964,-0.8021411999999999,1.6042823999999998,86.62552002,1.50687954,-22.33963242
3.55,355,0.05,-1.124,-0.09699999999999999,-22.9756158,3.9534102,3.4377480000000005,86.38487766,1.48396122,-22.29952536
3.56,356,0.09699999999999999,-1.157,-0.09,-24.350715,4.583664,4.4117766,86.13850572,1.43812458,-22.25368872
3.57,357,0.109,-1.1440000000000001,-0.114,-27.3873924,2.9793816000000004,4.4117766,85.86348588000001,1.39228794,-22.22504082
3.58,358,0.09300000000000001,-1.1,-0.149,-31.3980984,-0.286479,3.2085647999999996,85.54262940000002,1.3579104599999998,-22.2307704
3.59,359,0.057,-1.05,-0.156,-34.37748,-4.4117766,0.8594370000000001,85.19312502,1.3464512999999998,-22.27660704
3.5999999999999996,360,0.01,-0.993,-0.126,-37.1276784,-9.568398599999998,-1.4896908000000002,84.80924316,1.3464512999999998,-22.3740099
3.61,361,-0.038,-0.929,-0.09699999999999999,-39.19032720000001,-15.126091199999998,-3.6669312000000014,84.40817256,1.36936962,-22.53443814
3.6199999999999997,362,-0.092,-0.867,-0.036000000000000004,-40.6227222,-17.3606274,-6.7609043999999985,83.9956428,1.41520626,-22.7177847
3.63,363,-0.141,-0.826,0.019,-40.966497,-12.0894138,-11.1153852,83.57738346,1.51260912,-22.84956504
3.6399999999999997,364,-0.19,-0.8170000000000001,0.040999999999999995,-40.5081306,-4.9847346,-14.5531332,83.16485370000002,1.65011904,-22.92404958
3.65,365,-0.242,-0.8390000000000001,0.012,-39.7632852,3.7815228,-17.5325148,82.76951268,1.78189938,-22.89540168
3.6599999999999997,366,-0.27899999999999997,-0.8690000000000001,-0.016,-39.534102000000004,13.2926256,-20.3973048,82.36844208,1.99389384,-22.79799882
3.67,367,-0.299,-0.9259999999999999,0.001,-39.534102000000004,21.199446,-21.314037600000002,81.96737148,2.22307704,-22.62038184
3.6799999999999997,368,-0.295,-0.983,-0.009000000000000001,-38.90384820000001,28.418716800000002,-22.2307704,81.57776004,2.46944898,-22.3740099
3.69,369,-0.273,-1.063,-0.023,-37.24227,38.961144,-21.7151082,81.21106692,2.72728008,-22.0302351
3.6999999999999997,370,-0.22899999999999998,-1.112,0.095,-38.3308902,50.6494872,-15.2406828,80.85583296,2.9220857999999996,-21.55467996
3.71,371,-0.21,-1.097,0.19699999999999998,-41.76863820000001,71.39056679999999,-9.740286,80.45476235999998,3.1054323600000004,-20.87285994
3.7199999999999998,372,-0.142,-1.124,0.237,-50.47759979999999,86.40206640000002,-4.8701430000000006,79.97920722,3.27159018,-20.03634126
3.73,373,-0.07,-1.208,0.261,-61.36380179999999,89.954406,-0.40107059999999994,79.39479005999998,3.40337052,-19.165445100000003
3.7399999999999998,374,0.037000000000000005,-1.558,0.025,-71.90622900000002,79.06820400000002,7.6776372,78.70151088,3.4492071599999994,-18.38049264
3.75,375,0.062,-2.044,-0.41200000000000003,-92.07435059999999,46.8679644,27.7311672,77.79050766,3.2486718599999995,-17.88201918
3.76,376,-0.075,-2.191,-0.402,-90.35547659999999,25.0382646,46.638781200000004,76.89096359999998,2.8361421,-17.54397396
3.77,377,-0.04,-1.867,0.084,-90.1835892,49.04520479999999,45.72204840000001,75.99714911999997,2.48663772,-16.97101596
3.78,378,0.043,-1.669,0.11199999999999999,-98.77795920000001,75.68775179999999,29.4500412,75.01739094,2.36058696,-16.18033392
3.79,379,0.10400000000000001,-1.695,0.281,-114.7634874,100.2103542,1.4896908000000002,73.87720451999998,2.56685184,-15.223494059999998
3.8,380,0.153,-1.5519999999999998,-0.157,-122.5557162,98.835255,-17.0168526,72.66826314,2.9736520200000003,-14.34113874
3.81,381,0.043,-1.598,-0.027999999999999997,-119.8628136,97.3455642,-30.882436199999997,71.48224008000003,3.5236917,-13.51607922
3.82,382,-0.239,-1.653,0.248,-136.364004,109.8360486,-42.8572584,70.14151836,4.2398892,-12.62799432
3.83,383,-0.478,-1.619,0.161,-153.4954482,117.742869,-44.5761324,68.64609798000001,5.0133825000000005,-11.69407278
3.84,384,-0.527,-1.473,0.141,-167.30373600000001,133.09814340000003,-39.8778768,67.03035642,5.8269828599999975,-10.61691174
3.8499999999999996,385,-0.355,-1.27,-0.122,-168.163173,145.9896984,-30.882436199999997,65.43753317999999,6.623394479999999,-9.407970359999998
3.86,386,-0.111,-1.0859999999999999,-0.106,-155.9591676,146.4480648,-22.803728399999997,63.98794944,7.3911582,-8.17611066
3.8699999999999997,387,0.121,-0.938,-0.035,-141.6352176,146.56265639999995,-24.2934192,62.69306436000001,8.204758559999998,-6.972898860000001
3.88,388,0.267,-0.752,-0.003,-144.50000759999998,143.6978664,-32.2002396,61.37526096000001,9.098573040000002,-5.844171599999999
3.8899999999999997,389,0.316,-0.535,0.016,-143.7551622,132.926256,-41.3102718,60.05745756,10.04968332,-4.87587258
3.9,390,0.32,-0.31,0.016,-136.7650746,114.01864199999999,-51.3943326,58.79122037999999,11.03517108,-4.14821592
3.9099999999999997,391,0.28,-0.12300000000000001,0.11599999999999999,-126.2799432,81.7038108,-62.22323879999999,57.57654941999999,11.946174300000001,-3.77579322
3.92,392,0.29600000000000004,0.013999999999999999,-0.012,-123.4151532,52.712136,-71.79163740000001,56.3217714,12.79988172,-3.71849742
3.9299999999999997,393,0.373,0.12300000000000001,-0.139,-126.5664222,23.835052800000003,-79.46927459999998,54.9753201,13.567645439999998,-3.97632852
3.94,394,0.515,0.24100000000000002,-0.023,-128.7436626,-5.2712136,-81.8756982,53.53719552,14.180710500000002,-4.51490904
3.9499999999999997,395,0.624,0.361,0.052000000000000005,-128.9728458,-31.111619399999995,-73.625103,52.04177514000001,14.59896984,-5.2425657
3.96,396,0.606,0.499,-0.048,-123.2432658,-43.20103320000001,-61.020027,50.60938014,14.799505140000004,-5.9931406800000016
3.9699999999999998,397,0.46299999999999997,0.5820000000000001,-0.016,-117.742869,-50.76407879999999,-46.925260200000004,49.23428094000001,14.82815304,-6.7093381800000005
3.98,398,0.259,0.61,0.068,-118.7168976,-48.3003594,-34.4920716,47.87637048,14.75939808,-7.328132819999999
3.9899999999999998,399,0.039,0.615,0.23,-115.6229244,-42.398892,-27.3300966,46.57575582,14.667724799999998,-7.8495246
4.0,400,-0.091,0.556,0.41100000000000003,-106.74207539999999,-29.9084076,-22.6891368,45.39546234,14.62188816,-8.23913604
4.01,401,-0.09300000000000001,0.45399999999999996,0.27399999999999997,-100.84060799999999,-11.5164558,-19.8243468,44.31257172,14.667724799999998,-8.46831924
4.02,402,0.011000000000000001,0.254,-0.079,-101.52815759999999,4.4117766,-18.5638392,43.25259942,14.810964300000002,-8.57718126
4.03,403,0.127,0.023,-0.368,-106.1118216,-16.157415599999997,-16.673077799999998,42.11814258,14.79377556,-8.81782362
4.04,404,0.217,-0.22699999999999998,-0.5870000000000001,-110.4663024,-40.5654264,-16.329303,40.89774204,14.593240260000002,-9.23035338
4.05,405,0.18,-0.47,-0.594,-121.0660254,-62.0513514,-14.610429000000002,39.54556116,14.215087979999998,-9.7689339
4.06,406,0.251,-0.7120000000000001,-0.6729999999999999,-125.9934642,-51.9099948,-12.834259199999998,38.16473238,13.88277234,-10.215841139999998
4.07,407,0.435,-0.9540000000000001,-0.7759999999999999,-124.04540700000001,-49.560867,-16.386598799999998,36.80109234,13.584834179999998,-10.66274838
4.08,408,0.396,-1.2109999999999999,-0.6,-133.212735,-66.3485364,-27.043617600000005,35.31140154000001,13.2066819,-11.29873176
4.09,409,0.138,-1.248,-0.49,-164.2097628,-77.80769640000003,-36.38283300000001,33.48366552,12.765504240000002,-12.07222506
4.1,410,-0.285,-1.182,-0.513,-169.309089,-68.6976642,-41.19568020000001,31.62155202000001,12.38735196,-12.8056113
4.109999999999999,411,-0.57,-1.155,-0.508,-176.9867262,-48.4722468,-41.4821592,29.70214272,12.16962792,-13.43013552
4.12,412,-0.657,-1.176,-0.667,-177.04402199999996,-33.9764094,-38.961144,27.79992216,12.04357716,-13.945797720000002
4.13,413,-0.617,-1.238,-0.6859999999999999,-188.3312946,-19.7097552,-33.9191136,25.80602832,11.99774052,-14.34686832
4.14,414,-0.408,-1.205,-0.748,-196.238115,-10.657018800000001,-27.501984000000004,23.75483868,11.99201094,-14.6390769
4.1499999999999995,415,-0.195,-1.298,-0.551,-188.1594072,3.7815228,-16.558486199999994,21.83542938,12.0607659,-14.770857239999998
4.16,416,-0.1,-1.26,-0.39,-180.0806994,8.5370742,3.1512689999999997,20.024882100000006,12.10087296,-14.696372699999998
4.17,417,0.055,-0.9359999999999999,-0.465,-182.0860524,-2.6929026,15.756345,18.20860524,11.99774052,-14.54740362
4.18,418,0.054000000000000006,-0.65,-0.271,-179.2785582,-14.209358400000001,23.3766864,16.426705860000002,11.774286900000002,-14.364057060000002
4.1899999999999995,419,0.066,-0.305,-0.287,-175.49703540000004,-7.161975,23.491278,14.696372699999998,11.61958824,-14.14633302
4.2,420,0.168,-0.109,-0.168,-171.600921,-5.2712136,21.142150199999996,12.994687439999998,11.51072622,-13.945797720000002
4.21,421,0.38799999999999996,-0.013999999999999999,-0.132,-181.341207,11.917526400000002,19.0222056,11.2013289,11.562292439999998,-13.716614520000002
4.22,422,0.45299999999999996,0.106,-0.305,-161.23038119999995,10.599723,16.615782,9.60277608,11.613858660000002,-13.521808800000002
4.2299999999999995,423,0.46299999999999997,0.042,-0.18600000000000005,-143.8697538,-0.2291832000000001,15.813640800000002,8.17611066,11.56802202,-13.355650979999998
4.24,424,0.39799999999999996,0.066,-0.188,-134.98890480000003,-12.4331886,15.527161800000002,6.83538894,11.40759378,-13.2066819
4.25,425,0.223,0.042,-0.184,-113.50297979999999,-17.246035799999998,11.9748222,5.70666168,11.21851764,-13.10354946
4.26,426,-0.011000000000000001,0.024,-0.024,-99.694692,-13.120738199999998,5.3285094000000015,4.703985179999999,11.07527814,-13.0634424
4.27,427,-0.109,0.06,0.018000000000000002,-81.7038108,20.454600600000006,-0.8594370000000001,3.873196080000002,11.26435428,-13.04625366
4.28,428,-0.142,0.155,-0.195,-65.7755784,70.5311298,0.0,3.2085648000000004,11.95190388,-12.977498700000002
4.29,429,-0.358,0.28600000000000003,-0.266,-49.4462754,108.0598788,5.1566220000000005,2.72728008,13.011876179999998,-12.834259200000002
4.3,430,-0.562,0.4370000000000001,-0.11900000000000001,-46.925260200000004,136.5931872,8.9954406,2.25172494,14.31249084,-12.6337239
4.31,431,-0.611,0.625,-0.35200000000000004,-36.898495200000006,158.65207019999997,5.6722842,1.89649098,15.8709366,-12.46756608
4.32,432,-0.68,0.747,-0.545,-3.4377480000000005,144.5573034,0.7448454000000001,1.87357266,17.29760202,-12.370163219999998
4.33,433,-0.635,0.768,-0.589,41.9405256,137.9109906,7.448453999999999,2.33193906,18.66124206,-12.2040054
4.34,434,-0.425,0.888,-1.022,72.13541219999998,128.9728458,24.809081399999997,3.1627281600000003,19.927479240000004,-11.84877144
4.35,435,0.001,1.097,-0.813,92.7046044,94.1942952,43.315624799999995,4.25707794,20.83848246,-11.31019092
4.36,436,0.519,1.182,-0.6709999999999999,110.81007720000001,92.64730859999999,47.784697200000004,5.59207008,21.7151082,-10.70285544
4.37,437,1.032,1.115,-0.65,118.60230599999998,141.5779218,35.46610020000001,6.99581718,23.07874824,-10.12416786
4.38,438,1.367,0.9740000000000001,-0.826,125.8788726,176.29917659999995,9.9694692,8.41675302,24.80335182,-9.71736768
4.39,439,1.319,0.525,-0.956,166.444299,198.243468,-26.356068,10.12416786,26.79151608,-9.60277608
4.3999999999999995,440,1.23,0.002,-0.868,163.63680480000005,202.540653,-56.78013780000001,11.688343199999998,28.88281278,-9.75174516
4.41,441,1.2329999999999999,-0.155,-0.626,112.9873176,183.0027852,-61.994055599999996,12.70820844,30.78503334,-9.95228046
4.42,442,1.321,-0.363,-0.4370000000000001,101.0697912,157.9645206,-45.1490904,13.687966619999996,32.41223406,-10.00384668
4.43,443,1.0590000000000002,-0.61,-0.682,89.09496899999998,87.37609499999998,-19.4232762,14.610429000000002,33.30604854,-9.95801004
4.4399999999999995,444,0.276,-0.637,-1.1640000000000001,102.9032568,55.6915176,-16.959556799999998,15.63602382,33.8904657,-9.969469199999999
4.45,445,0.823,-0.8490000000000001,-2.119,117.34179840000002,9.0527364,-27.788463,16.66161864,34.06808268,-10.26167778
4.46,446,1.733,-0.5820000000000001,-2.7939999999999996,45.034498799999994,-53.8007562,-44.6334282,16.7303736,33.69565998,-10.97787528
4.47,447,3.859,-0.152,-3.497,23.892348600000002,-79.5838662,-67.43715660000001,16.392328380000002,33.145620300000004,-12.03784758
4.4799999999999995,448,3.9210000000000003,0.41,-3.8539999999999996,-21.4286292,-51.68081160000001,-60.045998399999995,15.71050836,32.82476382,-12.90874374
4.49,449,2.6010000000000004,0.358,-3.935,-52.5975444,-53.285093999999994,-35.3515086,14.868260099999999,32.40650448,-13.487431320000002
4.5,450,1.496,-0.013999999999999999,-3.093,-57.8114622,-34.8358464,-31.627281600000003,14.037471000000002,32.14867338,-13.95725688
4.51,451,1.446,-0.639,-2.965,-44.6334282,-44.51883660000001,-18.793022399999998,13.40148762,31.75906194,-14.306761259999998
4.52,452,1.4609999999999999,-0.617,-2.4130000000000003,-61.592985,-49.5035712,-11.45916,12.64518306,31.30642512,-14.576051520000002
4.53,453,1.2009999999999998,-0.377,-2.246,-59.7595194,-35.9244666,-11.2872726,11.92325598,30.97410948,-14.799505140000004
4.54,454,0.83,-0.14,-1.9509999999999998,-49.5035712,-26.4706596,-11.5737516,11.32165008,30.7391967,-15.000040439999998
4.55,455,0.564,0.012,-1.579,-42.398892,-17.0741484,-19.480572,10.75442166,30.5959572,-15.26360112
4.56,456,0.461,0.185,-1.367,-39.534102000000004,-14.32395,-36.03905820000001,10.12989744,30.52147266,-15.704778780000002
4.57,457,0.494,0.39899999999999997,-1.165,-38.90384820000001,-8.250595200000001,-43.3729206,9.47672532,30.510013500000003,-16.208981819999998
4.58,458,0.527,0.491,-0.94,-39.0757356,-7.333862400000001,-40.8519054,8.83501236,30.498554340000005,-16.69026654
4.59,459,0.5660000000000001,0.513,-0.852,-38.8465524,-8.3651868,-32.658606,8.24486562,30.45844728,-17.0741484
4.6,460,0.5429999999999999,0.48100000000000004,-0.909,-35.809875,-7.1046792000000005,-21.7151082,7.68336678,30.41834022,-17.36635698
4.61,461,0.498,0.35600000000000004,-0.983,-34.5493674,-4.1825934,-7.906820400000001,7.282296179999999,30.38396274,-17.46375984
4.62,462,0.528,0.23800000000000002,-0.8959999999999999,-39.0757356,-12.2040054,7.7922288,6.92133264,30.24645282,-17.39500488
4.63,463,0.48200000000000004,0.242,-0.483,-37.3568616,-33.116972399999995,21.772404,6.6463128,29.89121886,-17.19446958
4.64,464,0.46799999999999997,0.297,-0.513,-16.7876694,-41.9405256,22.86102420000001,6.57755784,29.45577078,-17.00539344
4.6499999999999995,465,0.48200000000000004,0.294,-0.473,-1.5469866,-51.2224452,21.2567418,6.60620574,28.95156774,-16.86788352
4.66,466,0.318,0.344,-0.223,-3.6669312000000014,-59.473040399999995,19.5378678,6.640583220000001,28.34996184,-16.74183276
4.67,467,0.20199999999999999,0.384,-0.18,4.8128472,-56.0352924,16.558486199999994,6.7379860800000015,27.78273342,-16.650159480000006
4.68,468,0.29100000000000004,0.298,-0.316,20.2827132,-41.5967508,11.688343199999998,6.97862844,27.36447408,-16.5871341
4.6899999999999995,469,0.38799999999999996,0.149,-0.478,22.631841,-26.642546999999997,7.6776372,7.2307299600000015,27.09518382,-16.55275662
4.7,470,0.525,-0.001,-0.677,20.9702628,-16.042824000000003,7.333862400000001,7.45418358,26.974862640000005,-16.51264956
4.71,471,0.715,-0.13699999999999998,-0.9,24.064236,-16.272007199999994,9.1100322,7.734933000000002,26.80297524,-16.4438946
4.72,472,0.861,-0.205,-1.0090000000000001,21.027558600000006,-24.9809688,12.3758928,7.9927641000000005,26.54514414,-16.35222132
4.7299999999999995,473,0.922,-0.107,-1.06,10.084060800000001,-33.9191136,13.9228794,8.136003599999999,26.19563976,-16.26627762
4.74,474,0.8170000000000001,0.087,-1.043,2.86479,-46.2377106,14.32395,8.204758559999998,25.7258142,-16.197522659999994
4.75,475,0.648,0.129,-0.9440000000000001,-3.8961144,-59.35844880000001,15.011499599999999,8.158921920000001,25.14139704,-16.1574156
4.76,476,0.509,0.204,-0.8740000000000001,-5.7868758000000025,-63.9421128,17.475219,8.14173318,24.4939545,-16.088660639999997
4.77,477,0.337,0.149,-0.883,-0.9740286,-64.28588760000001,18.793022399999998,8.17611066,23.84078238,-16.002716940000006
4.78,478,0.259,0.028999999999999998,-0.856,2.4064236,-62.738901,18.6784308,8.24486562,23.19906942,-15.91677324
4.79,479,0.253,-0.11199999999999999,-0.853,2.5783110000000002,-59.93140680000001,16.4438946,8.302161420000001,22.59173394,-15.85374786
4.8,480,0.321,-0.24100000000000002,-0.873,5.3858052,-56.264475600000004,12.776963400000001,8.393834700000001,22.02450552,-15.813640799999998
4.81,481,0.44799999999999995,-0.35700000000000004,-0.895,5.7868758000000025,-45.893935799999994,7.9641161999999985,8.46258966,21.56613912,-15.813640799999998
4.82,482,0.624,-0.45299999999999996,-0.8959999999999999,0.7448454000000001,-37.757932200000006,3.1512689999999997,8.46258966,21.19371642,-15.84801828
4.83,483,0.685,-0.507,-0.932,-6.589017,-36.898495200000006,-3.2085647999999996,8.35945722,20.83848246,-15.951150719999998
4.84,484,0.664,-0.51,-0.977,-14.5531332,-39.304918799999996,-8.9954406,8.158921920000001,20.46605976,-16.117308540000003
4.85,485,0.5579999999999999,-0.462,-0.956,-20.6837838,-46.1804148,-12.318597,7.906820399999999,20.04207084,-16.323573420000002
4.86,486,0.47700000000000004,-0.38799999999999996,-0.884,-23.777757,-52.3683612,-12.776963400000001,7.59742308,19.54359738,-16.541297460000006
4.87,487,0.466,-0.327,-0.828,-26.814434400000003,-54.25912260000001,-11.172680999999999,7.265107439999999,19.02793518,-16.747562339999998
4.88,488,0.494,-0.29,-0.8190000000000001,-26.41336380000001,-55.06126379999999,-8.880849000000003,6.94425096,18.49508424,-16.92517932
4.89,489,0.4920000000000001,-0.27699999999999997,-0.8640000000000001,-25.152856200000002,-53.7434604,-7.8495246,6.6463128,17.97942204,-17.085607560000003
4.8999999999999995,490,0.45299999999999996,-0.29600000000000004,-0.902,-24.637194,-51.3943326,-7.5630456000000015,6.3770225400000005,17.492407739999994,-17.23457664
4.91,491,0.385,-0.295,-0.9520000000000001,-23.5485738,-49.560867,-8.193299399999999,6.09627312,17.01112302,-17.3892753
4.92,492,0.306,-0.278,-0.988,-21.7151082,-51.1651494,-8.651665800000002,5.83844202,16.51837914,-17.54397396
4.93,493,0.245,-0.237,-0.9990000000000001,-21.829699800000004,-54.8893764,-9.568398599999998,5.574881339999999,15.985528200000001,-17.715861359999995
4.9399999999999995,494,0.191,-0.187,-0.996,-22.7464326,-58.9000824,-9.453807,5.30559108,15.4125702,-17.88774876
4.95,495,0.127,-0.129,-0.9670000000000001,-20.9702628,-64.5723666,-7.5630456000000015,5.06494872,14.76512766,-18.03671784
4.96,496,0.06,-0.081,-0.951,-14.9542038,-66.69231119999999,-5.7868758000000025,4.88733174,14.11768512,-18.17422776
4.97,497,0.022000000000000002,-0.081,-0.9570000000000001,-9.5111028,-64.17129600000001,-5.5576926,4.76701056,13.487431320000002,-18.30027852
4.9799999999999995,498,0.03,-0.085,-0.93,-8.8235532,-62.2805346,-5.958763200000001,4.65814854,12.88009584,-18.43205886
4.99,499,0.0,-0.09300000000000001,-0.9,-8.880849000000003,-58.842786600000004,-7.1046792000000005,4.54355694,12.30713784,-18.5638392
5.0,500,0.034,-0.10300000000000001,-0.912,-6.3598338,-52.0818822,-8.136003599999999,4.45761324,11.774286900000002,-18.69561954
5.01,501,0.028999999999999998,-0.13,-0.956,-8.250595200000001,-45.893935799999994,-6.7609043999999985,4.36021038,11.327379660000002,-18.81594072
5.02,502,-0.025,-0.152,-0.963,-10.657018800000001,-37.52874900000001,-7.8495246,4.23415962,10.96641612,-18.93053232
5.03,503,-0.051,-0.204,-0.98,-13.8655836,-27.272800800000002,-8.9381448,4.07373138,10.70285544,-19.0508535
5.04,504,-0.027000000000000003,-0.23399999999999999,-0.884,-14.4958374,-15.011499599999999,-10.943497800000001,3.90757356,10.55961594,-19.17117468
5.05,505,-0.051,-0.309,-0.8220000000000001,-9.7975818,-3.2658606,-15.469866,3.86173692,10.4564835,-19.29722544
5.06,506,-0.054000000000000006,-0.382,-0.836,-7.2192707999999985,1.2605076000000002,-18.621135,3.752874900000001,10.4851314,-19.48630158
5.07,507,-0.031,-0.392,-0.88,-7.5630456000000015,-1.8334656000000005,-20.340009,3.6382833,10.47940182,-19.69256646
5.08,508,0.022000000000000002,-0.35100000000000003,-0.9159999999999999,-8.4224826,-2.7501984,-20.168121600000006,3.51796212,10.46221308,-19.89883134
5.09,509,0.07400000000000001,-0.292,-0.934,-8.7089616,-3.3231564,-18.6784308,3.3919113599999995,10.43929476,-20.08790748
5.1,510,0.11800000000000001,-0.22699999999999998,-0.9329999999999999,-9.568398599999998,-8.078707799999998,-15.6417534,3.3059676599999994,10.35335106,-20.24260614
5.11,511,0.128,-0.165,-0.929,-10.7716104,-15.9855282,-12.032118,3.1741873200000006,10.20438198,-20.37438648
5.12,512,0.107,-0.11699999999999999,-0.9420000000000001,-11.917526400000002,-21.886995600000002,-8.7662574,3.0366774000000003,9.98665794,-20.4832485
5.13,513,0.068,-0.08900000000000001,-0.9590000000000001,-12.261301199999998,-24.2934192,-6.2452422,2.89916748,9.75174516,-20.56346262
5.14,514,0.004,-0.062,-0.98,-11.917526400000002,-23.7204612,-4.6409598,2.77311672,9.51683238,-20.626488
5.1499999999999995,515,-0.054000000000000006,-0.045,-1.0,-10.7143146,-20.2254174,-4.1825934,2.64706596,9.24181254,-20.66659506
5.16,516,-0.115,-0.036000000000000004,-1.0090000000000001,-8.9954406,-16.157415599999997,-4.583664,2.5496631,9.081384300000002,-20.72389086
5.17,517,-0.174,-0.026000000000000002,-1.005,-7.7922288,-12.6623718,-4.6409598,2.4637194,8.96106312,-20.78118666
5.18,518,-0.21100000000000002,-0.012,-1.003,-6.703608600000001,-7.8495246,-4.010706000000001,2.38923486,8.880849000000003,-20.8270233
5.1899999999999995,519,-0.2,0.008,-1.012,-6.3598338,-1.6615782,-2.4064236,2.3204799,8.86366026,-20.84994162
5.2,520,-0.149,0.027999999999999997,-1.02,-6.130650599999999,4.2398892,-0.057295800000000015,2.19442914,8.69750244,-20.80983456
5.21,521,-0.08,0.034,-1.025,-5.5003968,8.3651868,2.4637194,2.14286292,8.77771656,-20.78118666
5.22,522,0.001,0.027000000000000003,-1.015,-4.4690724,10.943497800000001,4.1252976000000015,2.10275586,8.88657858,-20.72962044
5.2299999999999995,523,0.06,0.016,-0.993,-2.8074942000000003,13.0634424,4.7555514,2.07983754,9.01262934,-20.67805422
5.24,524,0.106,0.008,-0.9690000000000001,-1.8334656000000005,13.636400400000001,4.6409598,2.06837838,9.14440968,-20.62075842
5.25,525,0.132,0.004,-0.956,-0.9740286,13.636400400000001,4.583664,2.03973048,9.26473086,-20.56346262
5.26,526,0.141,0.003,-0.9520000000000001,-0.2291832000000001,13.636400400000001,4.7555514,2.03973048,9.3965112,-20.511896399999998
5.27,527,0.131,-0.001,-0.961,0.286479,14.1520626,5.042030400000002,2.05118964,9.53402112,-20.44887102
5.28,528,0.11599999999999999,-0.009000000000000001,-0.965,0.6302538000000001,15.527161800000002,5.6149884000000005,2.06837838,9.6829902,-20.38011606
5.29,529,0.10300000000000001,-0.02,-0.963,0.1718874,17.9908812,6.2452422,2.07983754,9.86060718,-20.30563152
5.3,530,0.10400000000000001,-0.031,-0.958,-0.057295800000000015,21.2567418,6.8182002000000015,2.08556712,10.04395374,-20.21968782
5.31,531,0.111,-0.044000000000000004,-0.95,0.5156622000000001,24.1788276,7.3911582,2.10275586,10.27886652,-20.12801454
5.32,532,0.125,-0.059000000000000004,-0.9490000000000001,2.0626488000000003,26.0122932,7.6203414,2.13713334,10.53096804,-20.03634126
5.33,533,0.153,-0.08,-0.953,3.3231564,27.3873924,7.7922288,2.18869956,10.800258300000001,-19.938938399999998
5.34,534,0.191,-0.099,-0.9620000000000001,3.4950437999999995,27.903054600000004,8.021412000000002,2.24026578,11.07527814,-19.84153554
5.35,535,0.228,-0.11599999999999999,-0.9790000000000001,3.0939732,27.788463,8.4224826,2.30329116,11.35602756,-19.738403100000006
5.36,536,0.262,-0.134,-0.983,2.291832,26.929026,8.59437,2.34339822,11.613858660000002,-19.629541080000006
5.37,537,0.287,-0.146,-0.971,0.5156622000000001,25.668518399999996,8.479778399999999,2.36631654,11.86596018,-19.52640864
5.38,538,0.302,-0.14400000000000002,-0.9590000000000001,-0.9167328000000001,24.637194,8.078707799999998,2.37204612,12.10660254,-19.42900578
5.39,539,0.306,-0.134,-0.9540000000000001,-1.7188740000000002,23.663165399999997,7.5630456000000015,2.37204612,12.33578574,-19.33160292
5.3999999999999995,540,0.314,-0.113,-0.9540000000000001,-2.0053530000000004,22.4599536,7.0473834,2.38350528,12.58215768,-19.2513888
5.41,541,0.319,-0.09,-0.958,-1.4896908000000002,21.2567418,6.8182002000000015,2.38350528,12.78842256,-19.165445100000003
5.42,542,0.325,-0.068,-0.9640000000000001,-1.432395,20.1108258,6.875496000000001,2.38350528,12.98895786,-19.079501399999998
5.43,543,0.324,-0.052000000000000005,-0.9690000000000001,-1.7761698000000001,18.3919518,7.2192707999999985,2.38350528,13.16657484,-18.9935577
5.4399999999999995,544,0.319,-0.038,-0.972,-2.1199446,16.272007199999994,7.6776372,2.3777757,13.321273499999998,-18.90188442
5.45,545,0.315,-0.033,-0.972,-2.4064236,14.438541599999999,8.193299399999999,2.36631654,13.487431320000002,-18.81594072
5.46,546,0.314,-0.043,-0.968,-2.4064236,12.6623718,8.7089616,2.36058696,13.61348208,-18.71853786
5.47,547,0.31,-0.057,-0.968,-2.5783110000000002,11.172680999999999,8.5370742,2.35485738,13.716614520000002,-18.621135
5.4799999999999995,548,0.312,-0.077,-0.9620000000000001,-2.6356068,9.9121734,8.078707799999998,2.3491278,13.81401738,-18.52946172
5.49,549,0.31,-0.094,-0.958,-2.5783110000000002,8.880849000000003,6.9327918,2.3376686399999995,13.894231499999998,-18.45497718
5.5,550,0.306,-0.10800000000000001,-0.958,-2.2345362,8.651665800000002,5.3285094000000015,2.36058696,14.01455268,-18.3919518
5.51,551,0.308,-0.121,-0.956,-1.7188740000000002,8.250595200000001,3.9534102,2.35485738,14.0947668,-18.34611516
5.52,552,0.307,-0.129,-0.953,-2.1199446,7.6203414,2.9220858,2.34339822,14.16925134,-18.31173768
5.53,553,0.306,-0.131,-0.951,-2.1772404,7.2765666,1.9480572,2.32620948,14.2380063,-18.28308978
5.54,554,0.308,-0.127,-0.948,-1.8334656000000005,6.6463128000000005,1.145916,2.30902074,14.306761259999998,-18.26590104
5.55,555,0.309,-0.11599999999999999,-0.9470000000000001,-1.2605076000000002,5.3285094000000015,0.6302538000000001,2.37204612,14.444271179999998,-18.25444188
5.56,556,0.311,-0.107,-0.948,-0.9167328000000001,4.2398892,0.3437748,2.36058696,14.484378240000002,-18.2487123
5.57,557,0.316,-0.10099999999999999,-0.9470000000000001,-0.6875496,3.2085647999999996,0.0,2.35485738,14.51302614,-18.2487123
5.58,558,0.316,-0.09699999999999999,-0.946,-0.1718874,1.9480572,-0.2291832000000001,2.35485738,14.53594446,-18.2487123
5.59,559,0.315,-0.09,-0.9470000000000001,-0.3437748,1.0886202,-0.7448454000000001,2.3491278,14.54740362,-18.25444188
5.6,560,0.313,-0.081,-0.9490000000000001,-0.7448454000000001,-0.11459160000000004,-1.2605076000000002,2.38350528,14.707831860000002,-18.28881936
5.61,561,0.304,-0.071,-0.9540000000000001,-1.3178034,-1.4896908000000002,-1.4896908000000002,2.36631654,14.696372699999998,-18.3060081
5.62,562,0.295,-0.065,-0.9570000000000001,-1.6042823999999998,-2.6929026,-1.6042823999999998,2.34339822,14.667724799999998,-18.32319684
5.63,563,0.282,-0.062,-0.96,-1.7188740000000002,-4.2398892,-1.6042823999999998,2.3204799,14.62761774,-18.34611516
5.64,564,0.273,-0.064,-0.9620000000000001,-1.4896908000000002,-5.3285094000000015,-1.432395,2.30329116,14.576051520000002,-18.3633039
5.6499999999999995,565,0.265,-0.068,-0.96,-1.6042823999999998,-6.3025379999999975,-1.4896908000000002,2.2918320000000003,14.51302614,-18.38049264
5.66,566,0.257,-0.069,-0.961,-1.6042823999999998,-7.0473834,-1.6042823999999998,2.26891368,14.444271179999998,-18.40341096
5.67,567,0.254,-0.07,-0.965,-1.3750992,-7.5057497999999985,-1.6615782,2.25172494,14.36978664,-18.42632928
5.68,568,0.25,-0.07,-0.9690000000000001,-1.0313244000000001,-7.9641161999999985,-1.6042823999999998,2.2345362,14.2953021,-18.449247600000003
5.6899999999999995,569,0.247,-0.07,-0.972,-0.6875496,-8.4224826,-1.8334656000000005,2.22307704,14.209358400000001,-18.47216592
5.7,570,0.239,-0.071,-0.9740000000000001,-0.3437748,-8.651665800000002,-2.0053530000000004,2.22307704,14.10622596,-18.49508424
5.71,571,0.23199999999999998,-0.075,-0.9670000000000001,0.0,-8.9954406,-2.1199446,2.21734746,14.020282259999998,-18.518002560000006
5.72,572,0.22699999999999998,-0.078,-0.9620000000000001,0.1718874,-8.8235532,-2.3491277999999998,2.21734746,13.93433856,-18.55238004
5.7299999999999995,573,0.222,-0.08,-0.9620000000000001,0.5156622000000001,-8.250595200000001,-2.5210152000000003,2.21161788,13.85412444,-18.58102794
5.74,574,0.223,-0.083,-0.956,0.6875496,-7.6203414,-2.6929026,2.21161788,13.779639899999998,-18.61540542
5.75,575,0.221,-0.084,-0.9520000000000001,0.572958,-7.161975,-2.6929026,2.2345362,13.687966619999996,-18.63832374
5.76,576,0.21899999999999997,-0.084,-0.953,0.6875496,-6.703608600000001,-2.7501984,2.2345362,13.624941240000002,-18.67270122
5.77,577,0.217,-0.08199999999999999,-0.956,1.0313244000000001,-6.1879464,-2.86479,2.24026578,13.56191586,-18.707078699999997
5.78,578,0.212,-0.079,-0.958,1.0886202,-5.72958,-2.9220858,2.24026578,13.504620060000002,-18.74145618
5.79,579,0.20800000000000002,-0.081,-0.958,0.9167328000000001,-5.2712136,-2.9793816000000004,2.24599536,13.45878342,-18.77583366
5.8,580,0.205,-0.081,-0.96,0.8594370000000001,-4.9847346,-2.9220858,2.2746432600000004,13.36711014,-18.7930224
5.81,581,0.205,-0.084,-0.963,0.9167328000000001,-4.7555514,-2.8074942000000003,2.2746432600000004,13.321273499999998,-18.82739988
5.82,582,0.205,-0.083,-0.965,0.8021411999999999,-4.583664,-2.5783110000000002,2.2746432600000004,13.281166440000002,-18.85604778
5.83,583,0.204,-0.085,-0.966,0.7448454000000001,-4.583664,-2.291832,2.28037284,13.2353298,-18.88469568
5.84,584,0.204,-0.087,-0.9670000000000001,0.572958,-4.5263682,-2.1772404,2.28037284,13.18949316,-18.907614000000002
5.85,585,0.2,-0.08800000000000001,-0.9690000000000001,0.5156622000000001,-4.4117766,-2.0626488000000003,2.3204799,13.0920903,-18.91334358
5.86,586,0.196,-0.08800000000000001,-0.97,0.40107059999999994,-4.1825934,-2.0053530000000004,2.3204799,13.051983240000002,-18.9362619
5.87,587,0.19399999999999998,-0.08900000000000001,-0.972,0.1718874,-3.7242269999999995,-1.7761698000000001,2.3147503200000004,13.01760576,-18.95918022
5.88,588,0.19399999999999998,-0.086,-0.971,0.057295800000000015,-3.2085647999999996,-1.6615782,2.3147503200000004,12.98322828,-18.97636896
5.89,589,0.19399999999999998,-0.084,-0.968,0.0,-2.8074942000000003,-1.4896908000000002,2.30902074,12.96030996,-18.9935577
5.8999999999999995,590,0.198,-0.085,-0.965,0.0,-2.3491277999999998,-1.432395,2.37204612,12.85144794,-18.982098540000006
5.91,591,0.204,-0.085,-0.968,0.057295800000000015,-2.0626488000000003,-1.2605076000000002,2.36631654,12.82852962,-18.9935577
5.92,592,0.20600000000000002,-0.087,-0.9690000000000001,0.11459160000000004,-2.0053530000000004,-1.145916,2.36631654,12.81134088,-19.01074644
5.93,593,0.203,-0.08900000000000001,-0.96,-0.40107059999999994,-1.7761698000000001,-0.9740286,2.36058696,12.79415214,-19.0222056
5.9399999999999995,594,0.20199999999999999,-0.08800000000000001,-0.956,-0.8594370000000001,-1.145916,-0.7448454000000001,2.3491278,12.782692979999998,-19.02793518
5.95,595,0.204,-0.08800000000000001,-0.955,-0.572958,-0.057295800000000015,-0.4583664000000001,2.54393352,12.605075999999999,-18.95918022
5.96,596,0.20199999999999999,-0.087,-0.958,-0.5156622000000001,-0.2291832000000001,-0.2291832000000001,2.53820394,12.59934642,-18.95918022
5.97,597,0.2,-0.087,-0.96,-0.5156622000000001,-0.1718874,-0.057295800000000015,2.53247436,12.59934642,-18.95918022
5.9799999999999995,598,0.201,-0.08800000000000001,-0.963,-0.5156622000000001,0.286479,0.057295800000000015,2.52674478,12.59934642,-18.95918022
5.99,599,0.203,-0.087,-0.965,-0.4583664000000001,0.572958,0.3437748,2.5210152000000003,12.605075999999999,-18.95345064
6.0,600,0.204,-0.084,-0.965,-0.4583664000000001,0.572958,0.572958,2.6069589,12.51340272,-18.91334358
6.01,601,0.205,-0.08199999999999999,-0.966,-0.4583664000000001,0.6302538000000001,0.8021411999999999,2.6069589,12.5191323,-18.90188442
6.02,602,0.205,-0.081,-0.968,-0.40107059999999994,0.8021411999999999,0.9740286,2.6012293200000003,12.53059146,-18.89042526
6.03,603,0.205,-0.08,-0.966,-0.5156622000000001,1.0313244000000001,1.0886202,2.6012293200000003,12.54205062,-18.878966100000003
6.04,604,0.20600000000000002,-0.081,-0.9670000000000001,-0.5156622000000001,1.3178034,1.0886202,2.59549974,12.55350978,-18.86750694
6.05,605,0.207,-0.081,-0.968,-0.572958,1.6042823999999998,1.0886202,2.62987722,12.52486188,-18.83885904
6.06,606,0.21,-0.083,-0.968,-0.5156622000000001,1.9480572,1.0313244000000001,2.62414764,12.5477802,-18.82739988
6.07,607,0.212,-0.083,-0.9670000000000001,-0.6875496,2.1199446,1.0313244000000001,2.61841806,12.56496894,-18.81594072
6.08,608,0.215,-0.084,-0.9670000000000001,-0.9740286,2.2345362,1.0886202,2.61268848,12.58788726,-18.80448156
6.09,609,0.218,-0.085,-0.966,-0.9740286,2.1772404,1.2032118,2.6069589,12.61080558,-18.78729282
6.1,610,0.221,-0.08199999999999999,-0.965,-1.145916,2.0626488000000003,1.4896908000000002,2.62414764,12.62226474,-18.7643745
6.11,611,0.226,-0.081,-0.966,-1.2032118,2.0626488000000003,1.4896908000000002,2.61841806,12.64518306,-18.74718576
6.12,612,0.22699999999999998,-0.08,-0.9640000000000001,-1.2605076000000002,1.8907614,1.5469866,2.6069589,12.6623718,-18.729997020000006
6.13,613,0.226,-0.08,-0.9620000000000001,-1.2605076000000002,1.8907614,1.432395,2.6012293200000003,12.67956054,-18.71280828
6.14,614,0.226,-0.081,-0.9620000000000001,-1.2032118,1.9480572,1.3750992,2.58977016,12.696749280000002,-18.69561954
6.15,615,0.228,-0.081,-0.963,-1.145916,1.9480572,1.2032118,2.6069589,12.7196676,-18.6784308
6.16,616,0.22899999999999998,-0.083,-0.963,-1.145916,1.8907614,1.0313244000000001,2.6012293200000003,12.73685634,-18.66697164
6.17,617,0.23199999999999998,-0.083,-0.9640000000000001,-0.9167328000000001,1.6615782,0.8021411999999999,2.58977016,12.75404508,-18.65551248
6.18,618,0.235,-0.084,-0.9640000000000001,-0.9740286,1.6042823999999998,0.8021411999999999,2.58404058,12.765504240000002,-18.64405332
6.1899999999999995,619,0.23800000000000002,-0.083,-0.9640000000000001,-0.9167328000000001,1.6042823999999998,0.7448454000000001,2.57258142,12.782692979999998,-18.63832374
6.2,620,0.239,-0.08199999999999999,-0.9620000000000001,-0.7448454000000001,1.432395,0.6875496,2.61268848,12.82280004,-18.621135
6.21,621,0.24,-0.08199999999999999,-0.9590000000000001,-0.6302538000000001,1.0886202,0.4583664000000001,2.6069589,12.834259200000002,-18.61540542
6.22,622,0.243,-0.083,-0.9590000000000001,-0.5156622000000001,1.0886202,0.3437748,2.6012293200000003,12.84571836,-18.61540542
6.2299999999999995,623,0.243,-0.084,-0.9590000000000001,-0.5156622000000001,1.0886202,0.1718874,2.59549974,12.857177520000002,-18.60967584
6.24,624,0.244,-0.086,-0.96,-0.40107059999999994,0.9740286,0.0,2.59549974,12.86863668,-18.60967584
6.25,625,0.244,-0.084,-0.9620000000000001,-0.3437748,0.9740286,-0.11459160000000004,2.68717302,12.94312122,-18.59821668
6.26,626,0.245,-0.084,-0.961,-0.286479,0.6875496,-0.11459160000000004,2.68144344,12.9488508,-18.60394626
6.27,627,0.242,-0.084,-0.963,-0.286479,0.2291832000000001,-0.11459160000000004,2.68144344,12.95458038,-18.60394626
6.28,628,0.242,-0.083,-0.9640000000000001,-0.11459160000000004,0.0,-0.1718874,2.67571386,12.95458038,-18.60394626
6.29,629,0.24100000000000002,-0.084,-0.9640000000000001,-0.1718874,-0.2291832000000001,-0.2291832000000001,2.67571386,12.9488508,-18.60967584
6.3,630,0.24,-0.084,-0.963,-0.2291832000000001,-0.286479,-0.40107059999999994,2.78457588,13.00041702,-18.59821668
6.31,631,0.24,-0.085,-0.9640000000000001,-0.11459160000000004,-0.4583664000000001,-0.40107059999999994,2.78457588,12.994687439999998,-18.60394626
6.32,632,0.24,-0.087,-0.963,-0.1718874,-0.6875496,-0.4583664000000001,2.7788463,12.98895786,-18.60967584
6.33,633,0.23800000000000002,-0.086,-0.963,-0.1718874,-0.9167328000000001,-0.4583664000000001,2.7788463,12.977498700000002,-18.61540542
6.34,634,0.235,-0.085,-0.963,-0.286479,-0.9740286,-0.40107059999999994,2.77311672,12.97176912,-18.621135
6.35,635,0.23199999999999998,-0.085,-0.9640000000000001,-0.40107059999999994,-1.3178034,-0.5156622000000001,2.81895336,12.95458038,-18.61540542
6.36,636,0.22899999999999998,-0.084,-0.9620000000000001,-0.5156622000000001,-1.4896908000000002,-0.4583664000000001,2.8074942000000003,12.94312122,-18.621135
6.37,637,0.22899999999999998,-0.08199999999999999,-0.9620000000000001,-0.3437748,-1.6042823999999998,-0.4583664000000001,2.8074942000000003,12.925932479999995,-18.62686458
6.38,638,0.228,-0.08199999999999999,-0.961,-0.3437748,-1.6042823999999998,-0.40107059999999994,2.80176462,12.90874374,-18.63259416
6.39,639,0.22699999999999998,-0.081,-0.961,-0.3437748,-1.7761698000000001,-0.4583664000000001,2.79603504,12.891555,-18.63832374
6.4,640,0.22699999999999998,-0.08199999999999999,-0.961,-0.3437748,-1.8907614,-0.5156622000000001,2.82468294,12.8629071,-18.63832374
6.41,641,0.226,-0.083,-0.96,-0.286479,-1.8334656000000005,-0.5156622000000001,2.81895336,12.84571836,-18.64405332
6.42,642,0.226,-0.08199999999999999,-0.963,-0.11459160000000004,-1.7188740000000002,-0.5156622000000001,2.81895336,12.82852962,-18.6497829
6.43,643,0.223,-0.081,-0.966,0.11459160000000004,-1.4896908000000002,-0.5156622000000001,2.81895336,12.81707046,-18.66124206
6.4399999999999995,644,0.22,-0.08,-0.9690000000000001,0.1718874,-1.3178034,-0.4583664000000001,2.81895336,12.8056113,-18.66697164
6.45,645,0.21899999999999997,-0.08199999999999999,-0.9690000000000001,0.057295800000000015,-1.2032118,-0.3437748,2.86479,12.7483155,-18.6497829
6.46,646,0.214,-0.084,-0.963,-0.1718874,-1.3178034,-0.40107059999999994,2.85906042,12.73112676,-18.65551248
6.47,647,0.214,-0.08800000000000001,-0.961,-0.4583664000000001,-1.3750992,-0.40107059999999994,2.85333084,12.7196676,-18.66124206
6.4799999999999995,648,0.21899999999999997,-0.091,-0.9640000000000001,-0.4583664000000001,-1.432395,-0.2291832000000001,2.84760126,12.70820844,-18.66697164
6.49,649,0.217,-0.091,-0.968,-0.40107059999999994,-1.6042823999999998,-0.1718874,2.84760126,12.691019699999998,-18.67270122
6.5,650,0.214,-0.09,-0.9620000000000001,-0.5156622000000001,-1.3750992,-0.11459160000000004,2.89916748,12.63945348,-18.65551248
6.51,651,0.21,-0.086,-0.955,-0.9167328000000001,-0.6875496,-0.057295800000000015,2.88770832,12.6337239,-18.65551248
6.52,652,0.21,-0.084,-0.9590000000000001,-0.6875496,0.057295800000000015,-0.057295800000000015,2.88197874,12.6337239,-18.65551248
6.53,653,0.209,-0.084,-0.96,-0.4583664000000001,0.0,-0.057295800000000015,2.87624916,12.6337239,-18.65551248
6.54,654,0.209,-0.084,-0.9620000000000001,-0.2291832000000001,-0.286479,0.0,2.87624916,12.62799432,-18.65551248
6.55,655,0.212,-0.084,-0.966,-0.057295800000000015,0.0,0.0,3.3059676599999994,12.18108708,-18.48362508
6.56,656,0.215,-0.086,-0.966,-0.057295800000000015,0.057295800000000015,0.11459160000000004,3.3059676599999994,12.18108708,-18.48362508
6.57,657,0.217,-0.086,-0.966,0.0,-0.057295800000000015,0.286479,3.3059676599999994,12.18108708,-18.4778955
6.58,658,0.217,-0.085,-0.9640000000000001,0.057295800000000015,-0.3437748,0.2291832000000001,3.3116972399999995,12.1753575,-18.4778955
6.59,659,0.217,-0.085,-0.966,0.057295800000000015,-0.2291832000000001,0.286479,3.3116972399999995,12.1753575,-18.47216592
6.6,660,0.217,-0.085,-0.966,0.0,-0.11459160000000004,0.286479,3.43201842,12.16389834,-18.449247600000003
6.61,661,0.21600000000000005,-0.084,-0.9640000000000001,0.0,-0.11459160000000004,0.286479,3.43201842,12.15816876,-18.44351802
6.62,662,0.217,-0.084,-0.963,0.11459160000000004,0.057295800000000015,0.286479,3.43201842,12.15816876,-18.44351802
6.63,663,0.21899999999999997,-0.08199999999999999,-0.9620000000000001,0.2291832000000001,0.2291832000000001,0.11459160000000004,3.4377480000000005,12.16389834,-18.43778844
6.64,664,0.22,-0.08199999999999999,-0.9620000000000001,0.1718874,0.4583664000000001,0.057295800000000015,3.4377480000000005,12.16962792,-18.43778844
6.65,665,0.221,-0.083,-0.965,0.057295800000000015,0.6875496,0.0,3.45493674,12.19827582,-18.43778844
6.66,666,0.22399999999999998,-0.083,-0.9640000000000001,-0.1718874,0.6875496,0.0,3.4492071599999994,12.2040054,-18.43778844
6.67,667,0.226,-0.085,-0.963,-0.572958,0.4583664000000001,0.057295800000000015,3.44347758,12.20973498,-18.43778844
6.68,668,0.228,-0.087,-0.961,-0.7448454000000001,0.4583664000000001,0.1718874,3.4377480000000005,12.20973498,-18.43205886
6.6899999999999995,669,0.23,-0.087,-0.963,-0.6875496,0.5156622000000001,0.2291832000000001,3.43201842,12.21546456,-18.43205886
6.7,670,0.23199999999999998,-0.087,-0.963,-0.6302538000000001,0.6302538000000001,0.1718874,3.4492071599999994,12.26703078,-18.43205886
6.71,671,0.231,-0.087,-0.963,-0.572958,0.6302538000000001,0.11459160000000004,3.44347758,12.27276036,-18.42632928
6.72,672,0.231,-0.086,-0.965,-0.5156622000000001,0.6302538000000001,0.11459160000000004,3.4377480000000005,12.278489939999998,-18.42632928
6.7299999999999995,673,0.231,-0.086,-0.965,-0.572958,0.40107059999999994,0.0,3.43201842,12.28421952,-18.42632928
6.74,674,0.231,-0.087,-0.972,-1.0313244000000001,0.1718874,0.0,3.42055926,12.28421952,-18.42632928
6.75,675,0.23,-0.085,-0.968,-0.9740286,-0.4583664000000001,0.0,3.42628884,12.30140826,-18.42632928
6.76,676,0.233,-0.086,-0.953,-0.8594370000000001,-0.5156622000000001,-0.1718874,3.4148296799999995,12.30140826,-18.43205886
6.77,677,0.23600000000000002,-0.086,-0.9540000000000001,-0.8594370000000001,0.2291832000000001,-0.11459160000000004,3.4091001000000003,12.30140826,-18.43205886
6.78,678,0.235,-0.08800000000000001,-0.9590000000000001,-0.3437748,0.572958,-0.057295800000000015,3.40337052,12.30713784,-18.43205886
6.79,679,0.23199999999999998,-0.09,-0.961,-0.057295800000000015,0.6302538000000001,-0.11459160000000004,3.40337052,12.31286742,-18.43205886
6.8,680,0.231,-0.091,-0.9620000000000001,-0.2291832000000001,0.8021411999999999,-0.1718874,3.4377480000000005,12.35870406,-18.43205886
6.81,681,0.23,-0.08900000000000001,-0.963,-0.4583664000000001,0.6875496,-0.2291832000000001,3.43201842,12.36443364,-18.43778844
6.82,682,0.22899999999999998,-0.087,-0.9640000000000001,-0.572958,0.572958,-0.40107059999999994,3.42055926,12.370163219999998,-18.43778844
6.83,683,0.23,-0.086,-0.963,-0.572958,0.4583664000000001,-0.4583664000000001,3.4148296799999995,12.3758928,-18.44351802
6.84,684,0.228,-0.085,-0.9640000000000001,-0.5156622000000001,0.1718874,-0.40107059999999994,3.4091001000000003,12.38162238,-18.449247600000003
6.85,685,0.228,-0.086,-0.9640000000000001,-0.4583664000000001,0.11459160000000004,-0.40107059999999994,3.43201842,12.404540699999998,-18.449247600000003
6.86,686,0.231,-0.086,-0.9640000000000001,-0.3437748,0.057295800000000015,-0.40107059999999994,3.42628884,12.404540699999998,-18.45497718
6.87,687,0.23,-0.085,-0.9640000000000001,-0.286479,-0.1718874,-0.40107059999999994,3.42628884,12.404540699999998,-18.46070676
6.88,688,0.22899999999999998,-0.085,-0.963,-0.3437748,-0.286479,-0.3437748,3.42055926,12.404540699999998,-18.46643634
6.89,689,0.226,-0.084,-0.963,-0.286479,-0.3437748,-0.286479,3.4148296799999995,12.39881112,-18.46643634
6.9,690,0.22399999999999998,-0.085,-0.963,-0.286479,-0.4583664000000001,-0.2291832000000001,3.43201842,12.41027028,-18.47216592
6.91,691,0.22399999999999998,-0.083,-0.9620000000000001,-0.286479,-0.6302538000000001,-0.1718874,3.42628884,12.39881112,-18.47216592
6.92,692,0.221,-0.083,-0.9590000000000001,-0.40107059999999994,-0.8021411999999999,-0.2291832000000001,3.42055926,12.39308154,-18.4778955
6.93,693,0.22,-0.084,-0.961,-0.4583664000000001,-0.6302538000000001,-0.2291832000000001,3.4148296799999995,12.38735196,-18.4778955
6.9399999999999995,694,0.221,-0.084,-0.9620000000000001,-0.3437748,-0.572958,-0.2291832000000001,3.4091001000000003,12.38162238,-18.48362508
6.95,695,0.222,-0.084,-0.9640000000000001,-0.286479,-0.6875496,-0.1718874,3.42055926,12.370163219999998,-18.48362508
6.96,696,0.223,-0.087,-0.963,-0.40107059999999994,-0.8021411999999999,-0.11459160000000004,3.4148296799999995,12.36443364,-18.48362508
6.97,697,0.223,-0.08800000000000001,-0.963,-0.572958,-0.8021411999999999,0.0,3.4091001000000003,12.35870406,-18.48362508
6.9799999999999995,698,0.222,-0.08800000000000001,-0.9640000000000001,-0.6875496,-0.8021411999999999,0.0,3.40337052,12.347244899999998,-18.48362508
6.99,699,0.222,-0.08900000000000001,-0.9640000000000001,-0.6302538000000001,-0.8021411999999999,0.0,3.39764094,12.34151532,-18.48935466
7.0,700,0.221,-0.08900000000000001,-0.965,-0.3437748,-0.8021411999999999,-0.057295800000000015,3.42055926,12.33578574,-18.48362508
7.01,701,0.221,-0.087,-0.9670000000000001,-0.2291832000000001,-0.6302538000000001,-0.057295800000000015,3.4148296799999995,12.32432658,-18.48362508
7.02,702,0.22399999999999998,-0.086,-0.9640000000000001,-0.3437748,-0.4583664000000001,0.0,3.4148296799999995,12.32432658,-18.48362508
7.03,703,0.22399999999999998,-0.084,-0.963,-0.6302538000000001,-0.40107059999999994,0.0,3.4091001000000003,12.318597,-18.48362508
7.04,704,0.22,-0.086,-0.9620000000000001,-0.8021411999999999,-0.2291832000000001,0.0,3.39764094,12.31286742,-18.48935466
7.05,705,0.223,-0.08800000000000001,-0.961,-0.8021411999999999,-0.11459160000000004,0.0,3.43201842,12.330056160000002,-18.48362508
7.06,706,0.22699999999999998,-0.08900000000000001,-0.966,-0.8021411999999999,-0.11459160000000004,0.11459160000000004,3.42055926,12.330056160000002,-18.4778955
7.07,707,0.226,-0.08900000000000001,-0.968,-0.9167328000000001,-0.2291832000000001,0.2291832000000001,3.4148296799999995,12.32432658,-18.4778955
7.08,708,0.223,-0.09,-0.96,-1.3178034,-0.057295800000000015,0.1718874,3.39764094,12.32432658,-18.4778955
7.09,709,0.223,-0.08900000000000001,-0.955,-1.5469866,0.5156622000000001,0.2291832000000001,3.38618178,12.330056160000002,-18.47216592
7.1,710,0.222,-0.08800000000000001,-0.9590000000000001,-1.0886202,1.145916,0.286479,3.38618178,12.347244899999998,-18.46643634
7.11,711,0.222,-0.087,-0.9620000000000001,-0.8021411999999999,1.0313244000000001,0.11459160000000004,3.380452200000001,12.35297448,-18.46643634
7.12,712,0.222,-0.087,-0.963,-0.8021411999999999,0.8021411999999999,0.057295800000000015,3.3689930400000003,12.36443364,-18.46070676
7.13,713,0.226,-0.086,-0.966,-0.9167328000000001,0.9740286,0.0,3.36326346,12.370163219999998,-18.46070676
7.14,714,0.226,-0.086,-0.965,-0.7448454000000001,1.0886202,-0.057295800000000015,3.3518043,12.38162238,-18.46070676
7.15,715,0.226,-0.084,-0.9620000000000001,-0.6302538000000001,0.8594370000000001,-0.11459160000000004,3.35753388,12.39881112,-18.46070676
7.16,716,0.228,-0.083,-0.963,-0.572958,0.7448454000000001,-0.11459160000000004,3.3518043,12.41027028,-18.46070676
7.17,717,0.22699999999999998,-0.08199999999999999,-0.963,-0.6302538000000001,0.8021411999999999,-0.057295800000000015,3.34607472,12.41599986,-18.46070676
7.18,718,0.226,-0.08199999999999999,-0.9620000000000001,-0.6302538000000001,0.6875496,0.0,3.34034514,12.421729440000002,-18.46070676
7.1899999999999995,719,0.22699999999999998,-0.081,-0.961,-0.5156622000000001,0.6875496,-0.057295800000000015,3.33461556,12.4331886,-18.46070676
7.2,720,0.22399999999999998,-0.081,-0.961,-0.286479,0.572958,-0.11459160000000004,3.34034514,12.44464776,-18.46070676
7.21,721,0.22399999999999998,-0.083,-0.96,-0.2291832000000001,0.572958,-0.1718874,3.33461556,12.45037734,-18.46070676
7.22,722,0.226,-0.085,-0.963,-0.40107059999999994,0.6302538000000001,-0.3437748,3.32888598,12.45610692,-18.46643634
7.2299999999999995,723,0.22699999999999998,-0.08800000000000001,-0.9640000000000001,-0.5156622000000001,0.4583664000000001,-0.286479,3.3231564,12.4618365,-18.46643634
7.24,724,0.22899999999999998,-0.08800000000000001,-0.9620000000000001,-0.8594370000000001,0.2291832000000001,-0.3437748,3.31742682,12.4618365,-18.47216592
7.25,725,0.22899999999999998,-0.08800000000000001,-0.96,-1.0313244000000001,-0.057295800000000015,-0.286479,3.32888598,12.47902524,-18.47216592
7.26,726,0.231,-0.087,-0.9570000000000001,-1.2032118,-0.2291832000000001,-0.11459160000000004,3.31742682,12.47902524,-18.47216592
7.27,727,0.231,-0.086,-0.958,-1.2605076000000002,-0.5156622000000001,-0.11459160000000004,3.3059676599999994,12.473295660000002,-18.4778955
7.28,728,0.23,-0.086,-0.958,-1.2032118,-0.8021411999999999,0.0,3.28877892,12.4618365,-18.4778955
7.29,729,0.23,-0.087,-0.963,-1.145916,-0.9167328000000001,0.0,3.27731976,12.45610692,-18.4778955
7.3,730,0.23,-0.086,-0.9590000000000001,-1.2605076000000002,-1.3178034,0.057295800000000015,3.27731976,12.45610692,-18.4778955
7.31,731,0.22699999999999998,-0.084,-0.953,-1.432395,-1.7188740000000002,0.3437748,3.2658606,12.438918179999998,-18.47216592
7.32,732,0.23,-0.087,-0.95,-1.7761698000000001,-1.8907614,0.5156622000000001,3.2486718599999995,12.41599986,-18.47216592
7.33,733,0.23600000000000002,-0.091,-0.953,-2.291832,-2.4064236,0.572958,3.2257535399999995,12.39308154,-18.46643634
7.34,734,0.242,-0.091,-0.9520000000000001,-3.0366774,-3.5523396000000003,0.9167328000000001,3.19710564,12.35870406,-18.46070676
7.35,735,0.23600000000000002,-0.084,-0.943,-3.6096353999999997,-4.6982555999999995,1.6042823999999998,3.16845774,12.31286742,-18.44351802
7.36,736,0.228,-0.076,-0.948,-3.6669312000000014,-4.4117766,2.3491277999999998,3.13408026,12.26703078,-18.42632928
7.37,737,0.235,-0.08199999999999999,-0.955,-3.7815228,-4.3544808,2.9220858,3.0997027800000003,12.22119414,-18.39768138
