TimeStamp(s),FrameCounter,AccX,AccY,AccZ,GyrX,GyrY,GyrZ,EulerX,EulerY,EulerZ
0.01,1,-0.038,-1.017,0.016,-1.5469866,3.7815227999999994,-1.3178034,90.49298652,-3.34034514,-43.16665572
0.02,2,-0.037000000000000005,-1.011,0.013,-1.432395,2.3491278,-1.2032118,90.47579778,-3.32888598,-43.143737400000006
0.03,3,-0.035,-1.005,0.01,-1.0886202,0.9167328,-1.0313244,90.46433862,-3.31742682,-43.13227824
0.04,4,-0.031,-1.0,0.015,-0.5156622000000001,-0.572958,-0.9740286,90.40131324,-3.151269,-43.13800782
0.05,5,-0.03,-1.0,0.023,0.6302538000000001,-2.2345362,-0.6875496,90.40704282,-3.1398098400000003,-43.16092614
0.060000000000000005,6,-0.035,-1.003,0.032,1.0313244,-3.2658606,-0.4583664000000001,90.41850198,-3.13408026,-43.18957404
0.06999999999999999,7,-0.04,-1.008,0.035,0.8021411999999999,-3.7815227999999994,-0.2291832000000001,90.42996114,-3.12835068,-43.2296811
0.08,8,-0.046,-1.011,0.035,0.286479,-4.297185,-0.1718874,90.4414203,-3.12835068,-43.26978816
0.09,9,-0.052000000000000005,-1.01,0.036000000000000004,0.0,-5.042030400000002,-0.1718874,90.45860904,-3.11116194,-43.32135438
0.09999999999999999,10,-0.055,-1.011,0.037000000000000005,-0.1718874,-5.5576926,-0.286479,90.45860904,-3.1054323600000004,-43.37865018
0.11,11,-0.052000000000000005,-1.009,0.03,-0.9167328,-5.443101,-0.286479,90.45287946,-3.0997027800000003,-43.4302164
0.12,12,-0.046,-1.007,0.022,-1.4896908000000002,-4.9274388,-0.11459160000000004,90.4414203,-3.0939732,-43.48178262
0.13,13,-0.045,-1.007,0.022,-1.2032118,-4.6982556,0.057295800000000015,90.42996114,-3.0939732,-43.52761926
0.14,14,-0.047,-1.009,0.03,-0.6875496,-5.72958,0.11459160000000004,90.43569072,-3.07678446,-43.58491506
0.15000000000000002,15,-0.049,-1.004,0.035,-0.4583664000000001,-7.333862400000001,0.11459160000000004,90.43569072,-3.07105488,-43.65939960000001
0.16,16,-0.047,-1.0,0.037000000000000005,-0.2291832000000001,-7.906820400000001,0.057295800000000015,90.4414203,-3.07105488,-43.73388414
0.17,17,-0.045,-0.999,0.038,-0.7448454000000001,-6.990087599999999,0.057295800000000015,90.43569072,-3.07105488,-43.8026391
0.18000000000000002,18,-0.045,-0.998,0.041,-1.0886202,-6.016058999999999,0.057295800000000015,90.42996114,-3.07105488,-43.86566448
0.19,19,-0.051,-1.001,0.041,-0.7448454000000001,-5.6722842,0.1718874,90.43569072,-3.05959572,-43.92296028
0.2,20,-0.058,-1.008,0.037000000000000005,-0.8594370000000001,-5.844171599999999,0.286479,90.42996114,-3.05959572,-43.98025608
0.21000000000000002,21,-0.063,-1.011,0.034,-1.3750992,-6.1879464,0.2291832000000001,90.42423156,-3.05959572,-44.04328146
0.22,22,-0.062,-1.009,0.028,-1.9480572,-5.958763200000001,0.057295800000000015,90.40704282,-3.05959572,-44.10057726
0.23,23,-0.06,-1.005,0.02,-2.4637194,-5.5576926,-0.1718874,90.3841245,-3.05386614,-44.15787306
0.24000000000000002,24,-0.06,-1.004,0.016,-2.4637194,-5.2139178,-0.5156622000000001,90.34401744,-3.05386614,-44.20943928000001
0.25,25,-0.061,-1.007,0.017,-2.1199446,-5.042030400000002,-0.6875496,90.3268287,-3.04813656,-44.261005499999996
0.26,26,-0.062,-1.011,0.021,-1.7188740000000002,-5.042030400000002,-0.572958,90.30963996,-3.04240698,-44.31257172
0.27,27,-0.065,-1.014,0.03,-1.5469866,-4.8128472,-0.5156622000000001,90.2981808,-3.03094782,-44.35840836
0.28,28,-0.061,-1.008,0.031,-1.4896908000000002,-4.1825934,-0.3437748,90.28672164,-3.02521824,-44.39851542
0.29000000000000004,29,-0.065,-1.004,0.036000000000000004,-0.7448454000000001,-3.2658606,-0.6302538000000001,90.30963996,-3.04240698,-44.4328929
0.3,30,-0.065,-1.004,0.039,-1.2032118,-2.2345362,-0.8594370000000001,90.30391038,-3.03094782,-44.45581122
0.31,31,-0.063,-1.008,0.037000000000000005,-1.7188740000000002,-0.9167328,-1.0886202,90.28672164,-3.01948866,-44.46727038
0.32,32,-0.063,-1.013,0.033,-2.578311,-0.4583664000000001,-1.2605076000000002,90.25807374,-3.0080295,-44.47299996
0.33,33,-0.06,-1.016,0.03,-3.0939732,-0.3437748,-1.4896908000000002,90.22369626,-2.9965703400000003,-44.47299996
0.34,34,-0.062,-1.024,0.023,-3.380452200000001,-0.9167328,-1.6615782,90.19504836000002,-2.9736520200000003,-44.48445912
0.35000000000000003,35,-0.053,-1.007,0.019,-4.1825934,-1.3750992,-1.9480572,90.14921172,-2.9564632800000004,-44.49591828
0.36000000000000004,36,-0.05,-1.005,0.015,-3.724227,-1.9480572,-2.0053530000000004,90.11483424,-2.93354496,-44.51883660000001
0.37,37,-0.046,-0.995,0.018000000000000002,-3.7815227999999994,-2.0626488000000003,-1.9480572,90.08045676,-2.91635622,-44.54175492
0.38,38,-0.046,-0.989,0.024,-3.4950437999999995,-1.5469866,-1.8907613999999997,90.04034970000002,-2.8934379,-44.55321408
0.39,39,-0.052000000000000005,-0.985,0.033,-3.380452200000001,-0.3437748,-1.8907613999999997,90.04034970000002,-2.87624916,-44.55894366
0.4,40,-0.061,-0.984,0.04,-3.6096354,0.9167328,-2.0053530000000004,90.00597222,-2.85906042,-44.55321408
0.41000000000000003,41,-0.067,-0.987,0.039,-4.4690724,2.0053530000000004,-2.2345362,89.95440599999998,-2.8361421,-44.53029576
0.42000000000000004,42,-0.068,-0.996,0.033,-5.2712136,2.86479,-2.2345362,89.90283978,-2.81322378,-44.50164786000001
0.43,43,-0.069,-1.002,0.018000000000000002,-6.589017,3.4950437999999995,-2.4637194,89.83408482,-2.79030546,-44.46727038
0.44,44,-0.064,-1.012,0.006999999999999999,-7.2192707999999985,3.380452200000001,-2.86479,89.74241154,-2.77311672,-44.4328929
0.45,45,-0.057,-1.015,0.006,-6.9327918,2.7501984,-3.0939732,89.66792699999998,-2.73873924,-44.40997458
0.46,46,-0.054000000000000006,-1.014,0.015,-6.3598338,2.3491278,-3.3231564,89.60490161999998,-2.71009134,-44.38705626
0.47000000000000003,47,-0.052000000000000005,-1.005,0.026,-6.016058999999999,2.1772404,-3.5523396000000003,89.54187624,-2.67571386,-44.36413794
0.48000000000000004,48,-0.05,-0.994,0.036000000000000004,-5.1566220000000005,2.578311,-3.6669312000000014,89.48458044,-2.6356068,-44.34121962
0.49,49,-0.051,-0.984,0.044,-4.0680017999999984,3.380452200000001,-3.724227,89.47885086,-2.6012293200000003,-44.30684214
0.5,50,-0.054000000000000006,-0.978,0.052000000000000005,-3.2658606,4.1252976000000015,-3.9534102,89.44447338,-2.56685184,-44.26673508
0.51,51,-0.058,-0.974,0.055,-3.4950437999999995,5.042030400000002,-4.2398892,89.40436632,-2.52674478,-44.21516886
0.52,52,-0.061,-0.975,0.055,-4.7555514,5.2712136,-4.8701430000000006,89.3528001,-2.47517856,-44.16360264
0.53,53,-0.067,-0.977,0.052000000000000005,-6.4744254,5.042030400000002,-5.3285094000000015,89.28404514,-2.42361234,-44.117766
0.54,54,-0.069,-0.989,0.05,-7.906820400000001,5.0993262,-5.5576926,89.22674934,-2.38350528,-44.06619978
0.55,55,-0.058,-1.001,0.049,-8.9381448,5.6722842,-5.6149884000000005,89.13507606,-2.33193906,-44.01463356000001
0.56,56,-0.05,-1.008,0.048,-9.6256944,6.760904399999999,-5.443101,89.03194361999998,-2.28037284,-43.9458786
0.5700000000000001,57,-0.044,-1.007,0.044,-10.1413566,7.7349330000000025,-5.3858052,88.92881118,-2.22880662,-43.87139406
0.5800000000000001,58,-0.043,-1.0,0.049,-9.740286,8.3651868,-5.1566220000000005,88.82567874,-2.1772404,-43.79117994
0.59,59,-0.045,-0.991,0.057,-8.880849000000003,9.1100322,-4.8701430000000006,88.76265336,-2.13140376,-43.70523624
0.6,60,-0.048,-0.992,0.068,-8.250595200000001,10.5424272,-4.6409598,88.67098008,-2.08556712,-43.6021038
0.61,61,-0.049,-1.0,0.079,-9.1100322,12.891555,-4.6982556,88.57357721999998,-2.03973048,-43.47605304
0.62,62,-0.056,-1.009,0.07400000000000001,-11.3445684,14.667724800000002,-5.2139178,88.45325604000001,-1.98816426,-43.33281354
0.63,63,-0.064,-1.011,0.052000000000000005,-14.152062599999999,15.756345000000001,-6.016058999999999,88.29855738,-1.93086846,-43.17811488
0.64,64,-0.062,-1.004,0.022,-16.4438946,16.558486199999994,-6.5317212,88.13239956,-1.87357266,-43.01768664
0.65,65,-0.044,-0.988,-0.009000000000000001,-18.2773602,18.334656,-5.958763200000001,87.93759384,-1.81627686,-42.84006966
0.66,66,-0.024,-0.971,-0.03,-19.938938399999998,20.05353,-4.3544808,87.72559937999998,-1.77044022,-42.64526393999999
0.67,67,-0.003,-0.957,-0.031,-20.912967,21.5432208,-1.9480572,87.50214575999998,-1.7475218999999995,-42.43326947999999
0.68,68,0.019,-0.95,-0.023,-21.0848544,23.5485738,0.7448454000000001,87.27869214,-1.75325148,-42.20408628
0.6900000000000001,69,0.03,-0.95,-0.002,-20.511896399999998,26.069589,2.9793816000000004,87.06669767999998,-1.76471064,-41.94625518
0.7000000000000001,70,0.027000000000000003,-0.968,0.019,-20.454600600000006,27.043617600000005,4.297185,86.84897364,-1.8048176999999999,-41.67696492
0.7100000000000001,71,0.018000000000000002,-0.995,0.027000000000000003,-21.3713334,27.2728008,4.9847345999999995,86.61979044,-1.84492476,-41.40767466000001
0.72,72,0.009000000000000001,-1.033,0.021,-22.5172494,27.2728008,4.9847345999999995,86.37914808000002,-1.8907613999999997,-41.1383844
0.73,73,0.006,-1.0659999999999998,0.015,-22.8037284,26.814434400000003,4.6409598,86.13277614,-1.93086846,-40.87482372
0.74,74,0.009000000000000001,-1.083,0.017,-22.0015872,25.55392680000001,4.2398892,85.9150521,-1.9480572000000005,-40.61699262000001
0.75,75,0.021,-1.083,0.022,-20.626488,23.9496444,3.8961144,85.69159848,-1.98243468,-40.38207984
0.76,76,0.027000000000000003,-1.069,0.034,-20.1108258,21.6578124,3.8388186,85.47960402,-2.01108258,-40.17008538
0.77,77,0.022,-1.046,0.064,-19.6524594,19.8816426,3.6669312000000014,85.26760956,-2.03973048,-39.96955008
0.78,78,0.016,-1.026,0.08900000000000001,-18.2200644,20.168121600000006,3.151269,85.07280384,-2.05691922,-39.76901478
0.79,79,0.017,-1.022,0.107,-17.589810600000003,20.05353,1.8907613999999997,84.9410235,-2.05118964,-39.57420906
0.8,80,0.017,-1.035,0.121,-18.9649098,18.2773602,0.2291832000000001,84.73475862000002,-2.04546006,-39.3908625
0.81,81,0.011,-1.06,0.132,-21.485925,14.7823164,-1.0313244,84.51130500000002,-2.02827132,-39.247623
0.8200000000000001,82,0.002,-1.085,0.13,-23.7204612,11.229976800000001,-2.0626488000000003,84.26493306,-1.99962342,-39.14449056
0.8300000000000001,83,0.0,-1.1,0.115,-24.7517856,8.4224826,-3.0939732,84.00710196,-1.96524594,-39.06427644
0.8400000000000001,84,0.003,-1.094,0.095,-26.1268848,5.5576926,-4.7555514,83.7951075,-1.90222056,-39.018439799999996
0.85,85,0.006999999999999999,-1.079,0.081,-27.7311672,0.8594370000000001,-6.990087599999999,83.51435808,-1.8334656000000005,-39.018439799999996
0.86,86,0.014,-1.0659999999999998,0.083,-28.762491600000004,-3.0939732,-9.167328,83.2221495,-1.7475218999999995,-39.06427644
0.87,87,0.021,-1.06,0.08800000000000001,-30.3094782,-6.760904399999999,-11.45916,82.91848175999998,-1.64438946,-39.15022014
0.88,88,0.03,-1.051,0.092,-32.486718599999996,-10.1413566,-13.5791046,82.59189570000002,-1.52406828,-39.27054132
0.89,89,0.036000000000000004,-1.0490000000000002,0.08900000000000001,-34.8931422,-12.1467096,-15.5844576,82.2767688,-1.3750992,-39.41378082
0.9,90,0.035,-1.048,0.085,-36.7839036,-13.464512999999998,-17.246035799999998,81.91007568,-1.22040054,-39.56847947999999
0.91,91,0.021,-1.055,0.069,-39.19032720000001,-14.037471,-18.334656,81.51473466,-1.0599723,-39.74036688
0.92,92,-0.001,-1.058,0.035,-41.3675676,-13.980175199999998,-19.308684600000007,81.10220489999998,-0.89381448,-39.90652470000001
0.93,93,-0.017,-1.034,0.01,-43.48751220000001,-13.349921400000001,-20.626488,80.66102724,-0.7104679199999999,-40.0784121
0.9400000000000001,94,-0.015,-1.003,-0.003,-44.404245,-12.834259199999998,-21.772404,80.23703832,-0.52139178,-40.23884034
0.9500000000000001,95,0.004,-0.975,0.004,-44.34694920000001,-12.6623718,-22.6891368,79.79013108000002,-0.32085648,-40.40499816
0.9600000000000001,96,0.03,-0.949,0.023,-44.8053156,-12.318597,-23.376686399999997,79.33749426,-0.11459160000000004,-40.57688556
0.97,97,0.054000000000000006,-0.933,0.031,-45.83664,-11.9748222,-24.1215318,78.87339828,0.09167328,-40.74304338
0.98,98,0.086,-0.929,0.042,-50.133825,-13.178034,-25.4393352,78.36346566,0.30939732,-40.92066036
0.99,99,0.111,-0.933,0.041,-54.889376399999996,-16.558486199999994,-28.074942,77.83634430000002,0.56149884,-41.14411398
1.0,100,0.076,-0.933,0.03,-58.2698286,-17.0168526,-30.5386614,77.24046797999998,0.8250595199999999,-41.37902676
1.01,101,0.03,-0.917,0.026,-58.8427866,-10.4851314,-29.793816,76.64459166,1.08289062,-41.55664374
1.02,102,-0.016,-0.899,0.049,-49.560867,-7.2192707999999985,-25.9549974,76.13465904,1.31207382,-41.68842408
1.03,103,-0.05,-0.96,0.073,-38.67466500000001,-4.9274388,-23.777757,75.73931802,1.52979786,-41.7972861
1.04,104,-0.077,-1.01,0.115,-29.2781538,-2.578311,-23.6631654,75.52732356,1.7188740000000002,-41.87750022
1.05,105,-0.104,-1.038,0.14400000000000002,-20.6837838,-2.4064236,-24.2361234,75.3153291,1.9480572000000005,-41.95771434
1.06,106,-0.08800000000000001,-1.032,0.132,-18.2773602,-0.4583664000000001,-24.637194,75.12625296,2.18296998,-42.0264693
1.07,107,-0.08,-1.004,0.086,-15.6417534,2.4637194,-24.8090814,74.96582472,2.42361234,-42.06657636
1.08,108,-0.044,-0.959,0.008,-12.3758928,6.3025379999999975,-24.7517856,74.83977395999997,2.67571386,-42.07230594
1.09,109,0.02,-0.92,-0.031,-5.7868758000000025,10.599723,-25.2674478,74.82831479999999,2.93927454,-42.03219888
1.1,110,0.078,-0.895,-0.061,-3.0939732,13.0634424,-25.9549974,74.7996669,3.22002396,-41.9691735
1.11,111,0.131,-0.846,-0.078,-1.9480572,13.8082878,-26.0122932,74.78247816,3.50077338,-41.90614812
1.12,112,0.179,-0.79,-0.113,-0.8594370000000001,13.0634424,-24.4653066,74.771019,3.77006364,-41.84312274
1.1300000000000001,113,0.22,-0.755,-0.116,1.8334656000000005,12.2040054,-22.86102420000001,74.79393732,4.01643558,-41.78582694
1.1400000000000001,114,0.267,-0.745,-0.064,4.2398892,11.8029348,-21.485925,74.87415144,4.30864416,-41.72853114
1.1500000000000001,115,0.276,-0.773,-0.02,4.8128472,9.6829902,-20.8556712,74.92571766,4.53209778,-41.68842408
1.1600000000000001,116,0.238,-0.8440000000000001,-0.05,4.1252976000000015,4.8701430000000006,-19.194093,74.96582472,4.7269035000000015,-41.68842408
1.17,117,0.187,-0.981,-0.127,0.4010706,-1.145916,-15.813640800000002,74.96582472,4.87587258,-41.7399903
1.18,118,0.141,-1.112,-0.228,-0.2291832000000001,-1.6615782,-14.7250206,74.96009513999998,5.0133825000000005,-41.7972861
1.19,119,0.081,-1.206,-0.349,2.1772404,1.9480572,-14.5531332,74.96582472,5.15089242,-41.81447484
1.2,120,0.011,-1.182,-0.458,5.443101,5.5576926,-12.1467096,75.02312051999998,5.2826727600000005,-41.79155652
1.21,121,-0.045,-1.058,-0.5379999999999999,7.333862400000001,6.990087599999999,-7.161975,75.09760506,5.36861646,-41.7399903
1.22,122,-0.127,-0.93,-0.589,8.3651868,5.0993262,-2.5210152000000003,75.18927834,5.40299394,-41.69415366
1.23,123,-0.204,-0.769,-0.623,11.0007936,-3.6096354,0.8594370000000001,75.29814036,5.385805199999999,-41.72853114
1.24,124,-0.228,-0.59,-0.609,13.521808800000002,-19.767051,3.6669312000000014,75.29814036,5.23683612,-41.92333686
1.25,125,-0.181,-0.502,-0.474,10.1413566,-41.19568020000001,1.5469866,75.37262489999998,5.1279740999999985,-42.3129483
1.26,126,-0.093,-0.534,-0.245,3.5523396000000003,-47.9565846,-3.2085648,75.37262489999998,5.05348956,-42.78850344
1.27,127,0.02,-0.68,0.041,-5.1566220000000005,-37.5860448,-7.6776372,75.29241078,5.042030400000002,-43.16665572
1.28,128,0.123,-0.933,0.245,-15.870936600000002,-13.2353298,-10.4851314,75.12052338000002,5.11078536,-43.32708396
1.29,129,0.158,-1.229,0.21600000000000005,-27.444688199999998,4.6982556,-11.2872726,74.87988102,5.231106540000001,-43.30416564
1.3,130,0.122,-1.611,0.117,-28.4187168,8.880849000000003,-8.021412000000002,74.59340202,5.3285094000000015,-43.24114026
1.31,131,0.16399999999999998,-1.814,0.094,-29.793816,13.464512999999998,0.7448454000000001,74.30119343999998,5.3456981400000005,-43.1150895
1.32,132,0.222,-1.726,0.008,-31.741873200000004,15.126091199999998,12.4904844,73.99179612,5.25975444,-42.93747252
1.33,133,0.226,-1.558,-0.098,-24.8663772,9.2819196,25.7258142,73.75688333999999,5.03630082,-42.77704428
1.34,134,0.165,-1.472,-0.053,-20.340009,3.9534102,29.4500412,73.57926636,4.76701056,-42.6567231
1.35,135,0.13,-1.45,0.021,-14.152062599999999,-3.0366774,29.507337,73.44175643999998,4.4748019800000005,-42.60515688
1.36,136,0.161,-1.541,0.075,-9.453807000000001,-9.167328,28.361421000000004,73.34435358,4.17686382,-42.61661604
1.37,137,0.241,-1.69,0.079,-8.5370742,-13.9228794,28.6479,73.25840988,3.8674665,-42.66818226
1.3800000000000001,138,0.341,-1.791,0.058,-5.6722842,-21.6578124,29.793816,73.1953845,3.52942128,-42.78850344
1.3900000000000001,139,0.41,-1.801,0.08800000000000001,-4.9274388,-32.486718599999996,30.7105488,73.14381828,3.15699858,-43.01195706
1.4000000000000001,140,0.401,-1.7719999999999998,0.16,-4.8128472,-43.48751220000001,31.627281600000003,73.08652248,2.74446882,-43.33854312
1.4100000000000001,141,0.289,-1.731,0.209,-3.6669312000000014,-53.34238979999999,34.091001,73.03495626,2.2746432600000004,-43.75107288
1.42,142,0.124,-1.679,0.185,-3.0366774,-61.6502808,36.7839036,72.9948492,1.76471064,-44.2323576
1.43,143,-0.058,-1.598,0.14,-2.5210152000000003,-68.9268474,38.7892566,72.9662013,1.21467096,-44.78239728
1.44,144,-0.229,-1.513,0.076,0.9740286,-74.9429064,39.7632852,72.9948492,0.6302538000000001,-45.3782736
1.45,145,-0.371,-1.4240000000000002,0.044,6.016058999999999,-78.5525418,39.3049188,73.06360416,0.05156622,-46.014256980000006
1.46,146,-0.481,-1.3090000000000002,0.049,11.5737516,-76.60448459999998,37.81522800000001,73.1953845,-0.4984734599999999,-46.63305162
1.47,147,-0.535,-1.182,0.023,15.6990492,-69.61439700000001,35.7525792,73.37300148,-1.01986524,-47.19455046
1.48,148,-0.521,-1.028,0.004,17.18874,-59.4157446,28.6479,73.56207762,-1.44385416,-47.68156476
1.49,149,-0.426,-0.8859999999999999,-0.147,19.9962342,-38.7892566,16.558486199999994,73.78553124,-1.76471064,-48.00242124
1.5,150,-0.269,-0.718,-0.249,28.1322378,-26.69984280000001,4.6982556,74.0834694,-1.87357266,-48.2430636
1.51,151,-0.078,-0.552,-0.244,42.112413,-27.1582092,-4.5263682,74.51891748,-1.8907613999999997,-48.51235386000001
1.52,152,0.08800000000000001,-0.364,-0.179,49.1025006,-33.1742682,-7.7349330000000025,75.03457968000002,-1.8907613999999997,-48.8446695
1.53,153,0.17800000000000002,-0.14800000000000002,-0.067,49.847346,-40.10706,-5.3285094000000015,75.56170104,-1.92513888,-49.24001052
1.54,154,0.163,0.023,0.028,46.00852740000001,-44.4615408,-0.4010706,76.05444492,-1.98816426,-49.66972902000001
1.55,155,0.117,0.15,0.075,38.4454818,-39.534102,2.9793816000000004,76.46124510000001,-2.09702628,-50.04215172
1.56,156,0.084,0.225,0.055,31.340802600000004,-25.8977016,3.6669312000000014,76.79356074,-2.18296998,-50.28279408
1.57,157,0.048,0.224,0.014,29.2781538,-9.9121734,2.4637194,77.0914989,-2.22307704,-50.36873778
1.58,158,-0.041,0.17600000000000002,0.029,30.4240698,-0.572958,2.0053530000000004,77.40089622,-2.24026578,-50.36873778
1.59,159,-0.179,0.108,0.033,30.7678446,3.4950437999999995,3.7815227999999994,77.71602312,-2.29756158,-50.31717156000001
1.6,160,-0.28300000000000003,0.04,0.069,30.194886600000004,9.224623800000002,7.7922288,78.01396128,-2.35485738,-50.20830954
1.61,161,-0.297,-0.138,0.016,21.772404,26.41336380000001,13.8655836,78.22022616,-2.44080108,-49.92183054
1.62,162,-0.3,-0.458,-0.401,-4.9847345999999995,34.8931422,26.69984280000001,78.1514712,-2.6413363800000003,-49.5322191
1.6300000000000001,163,-0.313,-0.929,-0.963,-32.8877892,13.521808800000002,46.352302200000004,77.80196682,-3.07105488,-49.30876548
1.6400000000000001,164,-0.05,-1.62,-1.137,-48.987909,-36.8411994,74.7137232,77.3206821,-3.8674665,-49.50930078
1.6500000000000001,165,0.472,-1.7380000000000002,-0.594,-26.2414764,-53.34238979999999,79.18279559999998,77.0914989,-4.74409224,-49.85880516
1.6600000000000001,166,0.5870000000000001,-1.068,0.117,10.1413566,-13.6936962,48.8733174,77.19463134,-5.2425657,-49.88745306
1.6700000000000002,167,0.265,-0.797,0.076,-44.8053156,0.8021411999999999,23.14750320000001,76.73626494,-5.466019319999999,-49.83015725999999
1.68,168,-0.018000000000000002,-0.738,-0.273,-76.37530140000001,2.4637194,4.8701430000000006,75.95704206,-5.51758554,-49.80150936
1.69,169,-0.11,-1.079,-0.509,-56.608250399999996,4.3544808,-2.0053530000000004,75.36689532,-5.4946672199999975,-49.76713188
1.7,170,-0.279,-1.672,-0.4370000000000001,-31.8564648,-6.9327918,6.1879464,75.04603884000002,-5.574881339999999,-49.82442768
1.71,171,-0.34600000000000003,-1.986,-0.187,-23.6631654,-16.7876694,17.761698000000006,74.82258522,-5.7868758,-49.93901928
1.72,172,-0.43,-2.002,-0.081,-26.2414764,-11.2872726,20.454600600000006,74.56475412,-6.01032942,-50.00204466
1.73,173,-0.6890000000000001,-1.915,-0.134,-30.7678446,7.7922288,15.2406828,74.23816806,-6.14210976,-49.88745306
1.74,174,-0.797,-1.768,-0.149,-22.631841,22.2880662,9.6829902,73.98606654,-6.19367598,-49.6468107
1.75,175,-0.7509999999999999,-1.729,-0.085,-8.193299399999999,37.1849742,0.8021411999999999,73.8542862,-6.1077322800000005,-49.28584716
1.76,176,-0.625,-1.742,-0.006,2.291832,55.3477428,-11.172681,73.81990872,-5.86708992,-48.7873737
1.77,177,-0.516,-1.7280000000000002,0.055,9.3965112,75.8023434,-22.2307704,73.83709746000002,-5.46028974,-48.11701284
1.78,178,-0.423,-1.662,0.069,13.750992000000002,92.4754212,-29.335449600000004,73.89439326,-4.95035712,-47.30914206
1.79,179,-0.303,-1.551,0.037000000000000005,16.272007199999994,102.7313694,-32.7731976,73.98033696,-4.3831287,-46.409598
1.8,180,-0.147,-1.456,-0.015,19.6524594,105.65345520000001,-33.74722620000001,74.10065814,-3.80444112,-45.48713562
1.81,181,0.052000000000000005,-1.352,-0.047,27.444688199999998,104.3929476,-33.8618178,74.31265259999998,-3.22002396,-44.57040282
1.82,182,0.214,-1.235,-0.064,39.591397799999996,101.127087,-33.8618178,74.65069782,-2.65279554,-43.68231792
1.83,183,0.368,-1.114,-0.044,54.7747848,98.0904096,-32.830493399999995,75.16063044,-2.10275586,-42.82288092
1.84,184,0.476,-0.991,0.037000000000000005,67.43715660000001,92.9337876,-30.8824362,75.82526172,-1.55844576,-41.9978214
1.85,185,0.542,-0.87,0.09,69.72898860000001,80.32871159999998,-26.69984280000001,76.50135216,-1.12299768,-41.27589432
1.86,186,0.512,-0.759,0.005,63.59833800000001,56.66554620000001,-16.8449652,77.13160596,-0.8422482600000001,-40.76023212
1.87,187,0.45,-0.622,-0.015,65.030733,35.7525792,-1.145916,77.78477808,-0.75630456,-40.41072774
1.8800000000000001,188,0.363,-0.477,-0.047,72.76566600000002,19.767051,21.199446,78.51816432000003,-0.92246238,-40.17008538
1.8900000000000001,189,0.231,-0.342,-0.086,75.68775179999999,5.5576926,36.32553720000001,79.27446888,-1.23758928,-40.03830504
1.9000000000000001,190,0.045,-0.191,-0.067,73.28132819999998,2.3491278,43.0864416,80.01931427999997,-1.65011904,-39.9351726
1.9100000000000001,191,-0.152,-0.044,-0.076,68.2965936,6.3598338,41.6540466,80.70686388,-2.03973048,-39.79766268
1.9200000000000002,192,-0.257,0.081,-0.17,63.4264506,13.750992000000002,33.0596766,81.34284726,-2.34339822,-39.60285696
1.93,193,-0.234,0.189,-0.255,60.67625219999999,18.7357266,21.3140376,81.94445316,-2.52674478,-39.38513292
1.94,194,-0.133,0.252,-0.262,60.733548000000006,17.8189938,10.1413566,82.51741116,-2.61268848,-39.19032720000001
1.95,195,0.042,0.241,-0.192,61.1919144,15.0687954,2.0053530000000004,83.13047622,-2.61268848,-39.02989896
1.96,196,0.212,0.189,-0.13,60.44706899999999,10.8289062,-1.7761698,83.73781170000002,-2.5783110000000002,-38.92103694
1.97,197,0.276,0.121,-0.093,59.53033620000001,2.0626488000000003,-0.5156622000000001,84.34514718,-2.56685184,-38.89238904
1.98,198,0.228,0.009000000000000001,-0.04,52.998615,-14.4385416,4.297185,84.88945728,-2.61268848,-39.02416938
1.99,199,0.139,-0.2,-0.015,32.085648000000006,-33.9764094,9.740286,85.2275025,-2.71009134,-39.35075544
2.0,200,0.096,-0.605,-0.23,-5.2712136,-47.0398518,5.5003968,85.20458418000003,-2.79030546,-39.81485142
2.01,201,0.255,-1.372,-0.773,-47.9565846,11.45916,-28.8770832,84.71184029999998,-2.50382646,-39.72890772
2.02,202,-0.087,-3.337,-1.92,-103.13244,148.22423460000005,-109.0339074,83.5945722,-1.32353298,-38.38818600000001
2.03,203,-0.897,-2.76,-0.135,82.33406459999998,69.32791800000001,-97.689339,84.41390214,-0.29793816,-37.79230968
2.04,204,-0.334,-1.2919999999999998,-0.159,-32.7159018,-1.9480572,-41.6540466,84.05293859999998,0.10313244,-37.85533506
2.05,205,0.287,-0.777,-0.359,-61.8221682,-52.0818822,-17.475219,83.42841438,0.2291832000000001,-38.39391558
2.0599999999999996,206,0.476,-1.123,-0.185,-10.9434978,-38.8465524,9.6256944,83.31955236,0.09740286,-38.76633828
2.07,207,0.591,-1.932,-0.097,15.6417534,-15.527161800000002,15.870936600000002,83.4799806,-0.06302537999999999,-38.9038482
2.0799999999999996,208,0.537,-2.43,0.123,21.9442914,-14.381245800000002,1.6042823999999998,83.7091638,-0.09167328,-39.04135812
2.09,209,0.274,-2.3480000000000003,0.304,4.0680017999999984,-19.6524594,-11.229976800000001,83.75500044,0.0,-39.247623
2.0999999999999996,210,0.158,-2.105,0.219,-9.740286,-25.7258142,-10.0840608,83.65759758,0.08021412,-39.51118368
2.11,211,0.231,-1.968,0.187,-3.0939732,-32.31483119999999,-0.4583664000000001,83.62894968,0.057295800000000015,-39.83204016
2.1199999999999997,212,0.269,-1.846,0.162,-2.0626488000000003,-39.1330314,12.4331886,83.61749052,-0.09167328,-40.20446286
2.13,213,0.153,-1.744,0.152,-4.3544808,-47.269034999999995,22.86102420000001,83.57738346,-0.35523396,-40.64564052
2.1399999999999997,214,0.006,-1.641,0.121,-5.2712136,-54.43101,31.1689152,83.54300598,-0.7104679199999999,-41.14411398
2.15,215,-0.106,-1.511,0.065,0.4583664000000001,-60.332477399999995,35.7525792,83.5659243,-1.1172681,-41.69988324
2.1599999999999997,216,-0.225,-1.375,0.04,10.255948199999999,-61.4783934,37.9871154,83.69197505999998,-1.5412570200000002,-42.26711166
2.17,217,-0.293,-1.218,0.02,21.7151082,-55.2331512,38.10170700000001,83.938347,-1.9595163600000003,-42.77131470000001
2.1799999999999997,218,-0.322,-1.069,-0.027000000000000003,35.236917,-45.779344200000004,34.7212548,84.31649927999999,-2.33193906,-43.18384446
2.19,219,-0.313,-0.91,0.031,46.065823200000004,-33.6326346,28.1895336,84.8264319,-2.6642547000000003,-43.48178262
2.1999999999999997,220,-0.28600000000000003,-0.741,0.15,55.40503860000001,-19.308684600000007,18.162768600000003,85.39938989999997,-2.85333084,-43.65367002
2.21,221,-0.203,-0.624,0.197,60.6189564,-4.4117766,9.167328,86.01818454000002,-2.93927454,-43.68231792
2.2199999999999998,222,-0.119,-0.534,0.098,58.0406454,1.8907613999999997,0.572958,86.60260170000002,-2.93927454,-43.65939960000001
2.23,223,-0.043,-0.408,0.0,55.40503860000001,-1.6615782,-6.3025379999999975,87.16983012,-2.87051958,-43.67085876
2.2399999999999998,224,-0.014,-0.268,0.024,58.67089920000001,-6.2452422,-11.0007936,87.77143602000002,-2.76165756,-43.73388414
2.25,225,-0.024,-0.17600000000000002,0.021,60.16059,-2.7501984,-12.9488508,88.38450107999998,-2.62987722,-43.75680246
2.26,226,-0.026,-0.126,-0.025,51.68081160000001,10.4278356,-12.7196676,88.90016328,-2.49809688,-43.64794044
2.27,227,-0.006999999999999999,-0.037000000000000005,-0.091,37.2995658,24.5226024,-11.516455800000001,89.2668564,-2.38350528,-43.4015685
2.28,228,-0.001,0.048,-0.155,28.0176462,33.0596766,-8.4224826,89.53614666000001,-2.30329116,-43.07498244
2.29,229,0.018000000000000002,0.078,-0.247,26.8717302,35.9244666,-3.2658606,89.74814112,-2.26891368,-42.7140189
2.3,230,0.06,0.084,-0.305,26.069589,34.7212548,3.3231564,89.99451306,-2.30902074,-42.3702441
2.31,231,0.061,0.103,-0.289,25.210152,31.22621100000001,10.599723,90.23515542,-2.42361234,-42.06084678000001
2.32,232,0.055,0.11,-0.243,26.41336380000001,29.9657034,17.9335854,90.48725694,-2.6069589,-41.76290862
2.3299999999999996,233,0.073,0.106,-0.171,28.5906042,29.9084076,24.5226024,90.7565472,-2.86479,-41.46497046
2.34,234,0.078,0.073,-0.056,28.361421000000004,31.22621100000001,29.220858000000003,91.02583746,-3.14553942,-41.16130272
2.3499999999999996,235,0.175,-0.134,0.083,14.8396122,54.029939399999996,32.31483119999999,91.14042906,-3.48931422,-40.62845178
2.36,236,0.21,-0.516,-0.192,-22.0015872,87.0323202,45.8939358,90.85395006,-3.98778768,-39.78047393999999
2.3699999999999997,237,0.151,-1.848,-1.462,-80.61519059999998,41.4248634,92.70460440000001,90.00024264,-4.9274388,-39.3908625
2.38,238,0.723,-3.999,-2.2,-192.227409,-97.0590852,191.2533804,88.16104745999998,-6.83538894,-40.34770236
2.3899999999999997,239,1.853,-3.0010000000000003,-0.476,44.2896534,-63.3691548,146.7918396,88.70535756,-8.2792431,-40.9378491
2.4,240,0.272,-0.989,0.328,-27.215505,-65.3745078,100.4968332,88.53347016000002,-9.27619002,-41.57383248
2.4099999999999997,241,-0.573,-0.403,-0.28600000000000003,-41.3675676,44.2896534,42.1697088,88.03499670000002,-9.69444936,-41.12119566
2.42,242,-1.091,-0.35200000000000004,-0.536,-21.3713334,52.7694318,4.010706000000001,87.7198698,-9.73455642,-40.5940743
2.4299999999999997,243,-1.251,-1.278,-0.5770000000000001,3.0366774,28.4187168,-16.501190400000002,87.70268106,-9.56266902,-40.31332488
2.44,244,-1.177,-2.081,-0.07400000000000001,39.247623,32.31483119999999,1.432395,88.04072628,-9.57412818,-39.98673882
2.4499999999999997,245,-0.7909999999999999,-2.214,0.5429999999999999,33.9764094,42.7426668,26.5279554,88.31001654,-9.83768886,-39.54556116
2.46,246,-0.61,-1.927,0.481,4.010706000000001,67.43715660000001,25.0382646,88.22407283999998,-10.0840608,-38.86374114
2.4699999999999998,247,-0.441,-1.811,0.376,1.7761698,97.9185222,21.3140376,88.05218544,-10.29032568,-37.872523799999996
2.48,248,-0.28,-1.802,0.354,3.7815227999999994,113.5602756,21.027558600000006,87.86883888,-10.49086098,-36.72087822
2.4899999999999998,249,-0.162,-1.776,0.34,0.4010706,116.2531782,19.308684600000007,87.65111484,-10.66274838,-35.54631432
2.5,250,-0.125,-1.6980000000000002,0.301,-3.9534102,123.18597,12.891555,87.35890626,-10.771610399999998,-34.30299546
2.51,251,-0.121,-1.596,0.28600000000000003,-0.6875496,131.7230442,5.6722842,87.08388642,-10.8002583,-32.973732899999995
2.52,252,-0.068,-1.491,0.264,6.3598338,136.5931872,0.0,86.87762153999998,-10.771610399999998,-31.5986337
2.53,253,0.031,-1.325,0.194,17.0741484,134.8170174,-4.2398892,86.78021868,-10.6856667,-30.24645282
2.54,254,0.136,-1.136,0.165,32.085648000000006,125.0767314,-7.6203414,86.87189196,-10.54815678,-28.9916748
2.55,255,0.236,-0.964,0.165,42.2270046,108.7474284,-11.2872726,87.089616,-10.40491728,-27.89732502
2.56,256,0.289,-0.818,0.142,49.2170922,90.2981808,-13.9228794,87.41047248,-10.24448904,-26.992051380000003
2.57,257,0.338,-0.7020000000000001,0.113,56.5509546,74.3699484,-13.0634424,87.84592056,-10.09551996,-26.24720598
2.5799999999999996,258,0.28300000000000003,-0.634,0.16899999999999998,66.9214944,62.5670136,-7.906820400000001,88.40168982,-10.00957626,-25.6112226
2.59,259,0.196,-0.583,0.293,72.93755340000001,56.149884,-0.9167328,89.07205067999998,-9.9694692,-25.04972376
2.5999999999999996,260,0.145,-0.515,0.321,75.17208959999998,55.06126379999999,7.6776372,89.73095237999998,-10.04968332,-24.48249534
2.61,261,0.119,-0.4370000000000001,0.204,76.9482594,56.8374336,17.18874,90.40131324,-10.2273003,-23.90380776
2.6199999999999997,262,0.096,-0.37,0.095,74.771019,54.8320806,22.9756158,91.05448536,-10.47367224,-23.3480385
2.63,263,0.094,-0.271,0.037000000000000005,64.744254,50.82137460000001,24.694489800000003,91.61025462,-10.73723292,-22.83810588
2.6399999999999997,264,0.123,-0.162,-0.08900000000000001,55.06126379999999,45.4928652,22.5172494,92.05716186,-10.96641612,-22.37973948
2.65,265,0.126,-0.065,-0.236,52.139178,38.5027776,16.7876694,92.5040691,-11.15549226,-21.99585762
2.6599999999999997,266,0.12,-0.011,-0.338,51.9099948,33.3461556,10.3705398,92.9624355,-11.28154302,-21.657812399999997
2.67,267,0.112,0.013,-0.43,54.25912260000001,30.8251404,6.9327918,93.4494498,-11.3732163,-21.3426855
2.6799999999999997,268,0.058,0.057,-0.364,54.889376399999996,28.934379,7.8495246,93.94792326,-11.470619159999998,-21.05047692
2.69,269,0.008,0.135,-0.251,59.014674,33.5753388,12.4904844,94.44639672,-11.631047399999998,-20.712431700000003
2.6999999999999997,270,-0.086,0.179,-0.177,66.23394479999999,42.112413,17.0741484,95.0250843,-11.83731228,-20.29417236
2.71,271,-0.188,0.121,0.02,64.6869582,49.61816279999999,17.5325148,95.57512398,-12.06649548,-19.80715806
2.7199999999999998,272,-0.108,-0.069,-0.023,51.9672906,66.2912406,11.0580894,95.95327626,-12.25557162,-19.14825636
2.73,273,0.094,-0.422,-0.341,38.7319608,88.5793068,-5.7868758000000025,96.14235240000001,-12.31286742,-18.2487123
2.7399999999999998,274,0.078,-1.011,-0.534,22.5172494,97.5747474,-30.7105488,96.1137045,-12.12952086,-17.22884706
2.75,275,-0.312,-2.69,-1.154,-19.767051,108.7474284,-73.73969459999998,95.66106768,-11.545103700000002,-16.060012739999998
2.76,276,-0.61,-3.78,-0.617,-41.8832298,87.31879920000002,-99.5801004,95.03081388,-10.66847796,-15.097443299999998
2.77,277,-0.384,-2.795,-0.08199999999999999,-23.6631654,73.10944079999999,-89.6106312,94.63547286,-9.86633676,-14.289572520000002
2.78,278,-0.284,-1.74,-0.477,-50.47759979999999,90.3554766,-88.23553199999998,93.95365284,-9.08711388,-13.32700308
2.79,279,-0.207,-1.497,-0.428,-25.84040580000001,109.434978,-80.2714158,93.48955686,-8.38810512,-12.186816659999998
2.8,280,0.003,-1.585,-0.187,-12.9488508,116.5396572,-66.23394479999999,93.17442996,-7.8323358600000015,-10.98360486
2.81,281,0.192,-1.682,-0.012,-6.4744254,112.013289,-47.841993,92.93951718,-7.448453999999999,-9.84914802
2.82,282,0.297,-1.607,0.084,0.3437748,108.002583,-34.262888399999994,92.7905481,-7.1906228999999975,-8.75479824
2.8299999999999996,283,0.327,-1.6230000000000002,0.262,3.4950437999999995,106.0545258,-28.0176462,92.6759565,-6.990087599999999,-7.6890963600000015
2.84,284,0.32299999999999995,-1.761,0.35100000000000003,1.6042823999999998,104.278356,-23.5485738,92.55563532,-6.82392978,-6.640583220000001
2.8499999999999996,285,0.275,-1.876,0.395,-0.11459160000000004,99.981171,-14.381245800000002,92.42385498,-6.7551748200000015,-5.63790672
2.86,286,0.187,-1.889,0.415,1.7188740000000002,94.9391406,-3.9534102,92.31499296,-6.77809314,-4.69252602
2.8699999999999997,287,0.085,-1.791,0.398,2.0053530000000004,94.13699940000001,4.3544808,92.2175901,-6.886955159999999,-3.76433406
2.88,288,-0.025,-1.635,0.34,1.6042823999999998,99.981171,9.797581800000001,92.09726892,-7.0473833999999975,-2.77311672
2.8899999999999997,289,-0.113,-1.479,0.241,2.5210152000000003,109.6641612,12.6623718,91.98267732,-7.23645954,-1.6844965200000002
2.9,290,-0.173,-1.3130000000000002,0.16899999999999998,4.9847345999999995,119.34715140000002,16.558486199999994,91.86235614,-7.477101899999999,-0.5042030399999999
2.9099999999999997,291,-0.219,-1.157,0.095,8.8235532,128.45718359999998,23.376686399999997,91.77068286,-7.780769640000001,0.76203414
2.92,292,-0.245,-1.046,0.08199999999999999,15.0114996,136.9942578,30.366774000000003,91.71338706000002,-8.158921920000001,2.1199446
2.9299999999999997,293,-0.208,-0.936,0.126,21.6578124,143.1822042,34.7785506,91.70765748,-8.58864042,3.54088044
2.94,294,-0.147,-0.816,0.155,27.3300966,147.3647976,35.4088044,91.75349412,-9.01835892,5.001923339999999
2.9499999999999997,295,-0.106,-0.698,0.16,35.4088044,147.6512766,32.257535399999995,91.85662656,-9.4251591,6.4686958200000015
2.96,296,-0.098,-0.598,0.129,40.164355799999996,148.0523472,26.4706596,91.99986606,-9.77466348,7.94692746
2.9699999999999998,297,-0.07,-0.499,0.08199999999999999,43.77399120000001,150.91713719999996,19.7097552,92.16602387999998,-10.06114248,9.453807
2.98,298,-0.036000000000000004,-0.403,0.07,44.8053156,155.04243480000005,13.0634424,92.32645212,-10.29032568,11.00652318
2.9899999999999998,299,0.018000000000000002,-0.299,0.104,45.9512316,158.36559119999995,6.703608600000001,92.49260994,-10.45075392,12.59361684
3.0,300,0.049,-0.217,0.18,50.133825,159.1677324,1.3750992,92.69314524,-10.57680468,14.197899240000002
3.01,301,0.056,-0.16,0.261,50.3057124,154.29758940000005,-0.8021411999999999,92.89368054,-10.679937120000002,15.75061542
3.02,302,0.066,-0.155,0.231,43.544808,152.693307,-1.145916,93.03119046,-10.78879914,17.286142859999998
3.03,303,0.113,-0.179,0.134,32.4294228,158.48018280000005,0.286479,93.03692004,-10.914849900000002,18.878966100000003
3.04,304,0.175,-0.215,0.019,22.631841,159.68339459999999,2.291832,92.93378759999999,-11.03517108,20.4832485
3.05,305,0.19,-0.294,-0.122,15.469866,150.97443299999995,5.3285094000000015,92.77908894,-11.2013289,22.0015872
3.06,306,0.139,-0.36,-0.235,13.407217200000002,130.2333534,11.4018642,92.64157902,-11.41332336,23.30793144
3.07,307,0.039,-0.368,-0.226,16.558486199999994,115.04996640000002,17.9335854,92.56709448,-11.67115446,24.45384744
3.08,308,-0.044,-0.293,-0.14400000000000002,16.042824000000003,119.5190388,20.1108258,92.46969162,-11.95763346,25.65132966
3.09,309,-0.018000000000000002,-0.17600000000000002,-0.056,10.0840608,144.44271179999996,12.891555,92.24050842,-12.1753575,27.10664298
3.0999999999999996,310,0.182,-0.155,-0.107,-9.167328,186.1540542,-0.8594370000000001,91.71911664,-12.278489939999998,28.98594522
3.11,311,0.34600000000000003,-0.157,-0.245,-30.4240698,213.6560382,-13.178034,90.92270502,-12.261301200000002,31.14599688
3.1199999999999997,312,0.436,-0.329,-0.366,-22.2307704,208.9577826,-13.980175199999998,90.22369626,-12.19827582,33.25448232
3.13,313,0.5579999999999999,-0.769,-0.306,-1.9480572,196.0662276,3.9534102,89.75960028,-12.2899491,35.236917
3.1399999999999997,314,0.68,-1.452,-0.34700000000000003,-6.130650599999999,170.97066719999995,36.7839036,89.29550429999998,-12.67956054,36.97297974
3.15,315,0.79,-2.39,-0.4920000000000001,-48.7587258,136.93696200000002,76.54718879999999,88.4647152,-13.45878342,38.36526768
3.1599999999999997,316,0.638,-2.313,-0.444,-60.9627312,99.8665794,88.0063488,87.58808946,-14.32967958,39.408051240000006
3.17,317,0.275,-1.74,-0.652,-28.7051958,67.322565,64.8588456,87.10680474,-14.96566296,40.11851916
3.1799999999999997,318,0.054000000000000006,-1.533,-0.625,-16.2147114,53.1705024,46.29500640000001,86.78594826,-15.4125702,40.68574758
3.19,319,0.073,-1.795,-0.628,-43.1437374,48.128471999999995,42.28430039999999,86.2015311,-15.813640799999998,41.20140978
3.1999999999999997,320,0.35,-2.19,-0.527,-46.4668938,50.0192334,46.8106686,85.57127729999998,-16.26054804,41.74571988
3.21,321,0.66,-2.0540000000000003,-0.187,-6.016058999999999,60.332477399999995,39.19032720000001,85.31917578,-16.615782,42.398892
3.2199999999999998,322,0.361,-1.585,0.151,16.157415599999997,75.8023434,18.1054728,85.24469124,-16.753291920000002,43.19530362
3.23,323,-0.236,-1.461,0.256,19.0222056,97.0017894,-5.6149884000000005,85.13582922,-16.638700319999998,44.19225054
3.2399999999999998,324,-0.722,-1.7480000000000002,0.277,14.9542038,117.5136858,-20.798375399999998,84.9410235,-16.36941006,45.38400318
3.25,325,-0.991,-2.056,0.385,4.9274388,134.7024258,-17.9908812,84.58578954,-16.105849380000002,46.7533728
3.26,326,-0.981,-2.116,0.449,-4.8701430000000006,144.27082439999995,-2.86479,84.11023440000002,-15.974069039999998,48.23160444
3.27,327,-0.688,-1.962,0.485,-7.161975,155.9591676,13.2926256,83.57165388,-15.9855282,49.84161642
3.28,328,-0.392,-1.795,0.486,-3.2658606,171.71551259999995,23.6058696,83.0216142,-16.06574232,51.62924538
3.29,329,-0.158,-1.71,0.439,-1.9480572,187.2426744,26.4706596,82.4486562,-16.140226860000002,53.57730258
3.3,330,0.02,-1.633,0.35600000000000004,-5.9014674000000005,198.9310176,24.4080108,81.78402492,-16.16314518,55.64568095999999
3.31,331,0.175,-1.507,0.273,-7.0473834,203.8011606,20.454600600000006,81.10220489999998,-16.12303812,57.754166399999995
3.32,332,0.299,-1.39,0.19,-4.9847345999999995,201.5666244,17.0168526,80.44903278000002,-16.02563526,59.83973352
3.33,333,0.39,-1.253,0.116,-0.9167328,191.081493,14.4385416,79.8703452,-15.89385492,61.80497946000001
3.34,334,0.4320000000000001,-1.136,0.066,4.6982556,176.29917659999995,11.688343199999998,79.4119788,-15.6990492,63.61552673999999
3.3499999999999996,335,0.414,-1.04,0.047,7.3911582,158.422887,8.3651868,79.03382652,-15.527161799999998,65.23699787999999
3.36,336,0.362,-0.937,0.067,9.5111028,141.00496379999996,4.583664,78.73015878,-15.34381524,66.66939288
3.3699999999999997,337,0.29,-0.878,0.106,12.7769634,130.2333534,1.0313244,78.495246,-15.131820780000002,67.99292586
3.38,338,0.236,-0.856,0.155,15.5844576,126.6810138,-1.3178034,78.30616986,-14.90263758,69.26489262
3.3899999999999997,339,0.195,-0.831,0.198,18.2200644,125.3632104,-3.380452200000001,78.19157826,-14.60469942,70.50821148
3.4,340,0.145,-0.7859999999999999,0.214,23.6631654,124.7329566,-4.583664,78.10563456,-14.335409159999998,71.75153034
3.4099999999999997,341,0.111,-0.711,0.191,30.65325300000001,125.0767314,-4.8128472,78.09417540000003,-14.066118900000001,73.00057878
3.42,342,0.109,-0.615,0.17800000000000002,37.6433406,124.6756608,-4.1252976000000015,78.15720078000003,-13.80255822,74.24389764
3.4299999999999997,343,0.127,-0.513,0.172,42.1697088,123.47244899999998,-3.2085648,78.27752196,-13.550456700000002,75.48148692
3.44,344,0.155,-0.411,0.16399999999999998,44.690724,119.461743,-2.2345362,78.46086852,-13.2926256,76.66750998
3.4499999999999997,345,0.168,-0.331,0.181,45.206386200000004,114.4770084,-1.3750992,78.64421508000002,-13.08063114,77.81342598
3.46,346,0.184,-0.275,0.14,41.7113424,114.4770084,-0.2291832000000001,78.79318416,-12.88582542,78.96507156
3.4699999999999998,347,0.217,-0.211,0.024,37.0703826,117.1126152,2.0626488000000003,78.89631659999998,-12.70820844,80.13963546
3.48,348,0.219,-0.152,-0.065,35.0077338,110.9246688,6.130650599999999,78.98798988,-12.58215768,81.26836272
3.4899999999999998,349,0.168,-0.092,-0.147,34.7785506,100.8979038,11.516455800000001,79.08539274,-12.507673139999998,82.3054167
3.5,350,0.097,-0.024,-0.142,34.950438,91.8451674,18.048177,79.21717308,-12.53632104,83.26225656
3.51,351,0.011,0.055,-0.06,36.8411994,83.4799806,25.2674478,79.38906048,-12.65091264,84.14461188
3.52,352,-0.08199999999999999,0.077,0.06,36.2682414,80.1568242,30.8824362,79.55521829999998,-12.82280004,85.00977845999998
3.53,353,-0.141,-0.032,0.058,27.5592798,84.56860079999998,32.142943800000005,79.62397326,-13.0061466,85.92078168
3.54,354,-0.207,-0.246,-0.019,15.9282324,95.28291540000001,29.220858000000003,79.54375913999998,-13.16657484,86.92918776
3.55,355,-0.251,-0.5920000000000001,-0.16699999999999998,5.7868758000000025,114.53430420000001,19.5378678,79.31457594,-13.178034,88.11521081999999
3.56,356,-0.281,-1.005,-0.293,-8.307891,139.22879400000002,5.7868758000000025,78.89058702,-13.011876179999998,89.51895792
3.57,357,-0.408,-1.537,-0.34600000000000003,-26.5852512,156.58942140000005,-7.333862400000001,78.26033322,-12.67956054,91.06594452
3.58,358,-0.524,-1.825,-0.3,-34.3201842,165.1264956,-13.0634424,77.53840613999998,-12.261301200000002,92.68168608
3.59,359,-0.466,-1.661,-0.16,-24.350715,172.746837,-9.0527364,76.9196115,-11.84304186,94.37191218
3.5999999999999996,360,-0.248,-1.4340000000000002,-0.222,-22.86102420000001,192.9722544,-4.010706000000001,76.27789854,-11.41332336,96.26267357999998
3.61,361,-0.05,-1.268,-0.272,-16.4438946,204.7178934,3.6096354,75.69348138000002,-11.01798234,98.28521532
3.6199999999999997,362,0.061,-1.3119999999999998,-0.17,-8.4224826,194.4619452,13.464512999999998,75.21219666,-10.7143146,100.22754294
3.63,363,0.16,-1.514,-0.029,-8.479778399999999,177.61698,21.199446,74.771019,-10.5137793,102.02090148
3.6399999999999997,364,0.314,-1.709,0.097,-16.501190400000002,153.4954482,26.298772200000002,74.31265259999998,-10.39345812,103.58507682
3.65,365,0.51,-1.869,0.181,-21.485925,135.3899754,23.6058696,73.82563830000002,-10.29032568,104.9659056
3.6599999999999997,366,0.675,-1.97,0.199,-19.767051,118.37312279999999,15.5844576,73.3959198,-10.1413566,106.15765824
3.67,367,0.767,-2.05,0.149,-14.266654199999998,100.554129,6.9327918,73.06360416,-9.95228046,107.14887558
3.6799999999999997,368,0.764,-2.117,0.153,-11.8029348,78.95361240000003,2.1772404,72.80577306,-9.76320432,107.9166393
3.69,369,0.6779999999999999,-2.14,0.155,-17.0168526,58.3271244,0.5156622000000001,72.5364828,-9.60850566,108.48386772
3.6999999999999997,370,0.5489999999999999,-2.119,0.119,-25.3820394,40.8519054,2.2345362,72.20416716,-9.51683238,108.87920874
3.71,371,0.35100000000000003,-2.026,0.099,-30.8824362,26.1841806,7.3911582,71.84320362,-9.52256196,109.15422858
3.7199999999999998,372,0.188,-1.933,0.101,-28.2468294,13.8655836,16.959556799999998,71.52234714,-9.64288314,109.33757513999998
3.73,373,0.047,-1.86,0.123,-19.308684600000007,9.568398599999998,24.923673,71.29889352000002,-9.8548776,109.50373295999998
3.7399999999999998,374,-0.017,-1.781,0.116,-9.568398599999998,10.313244,30.252182399999995,71.18430192,-10.10124954,109.69853868
3.75,375,-0.019,-1.66,0.058,0.9167328,13.6364004,31.79916900000001,71.14992443999998,-10.35908064,109.93345146
3.76,376,0.003,-1.529,0.001,11.0580894,15.5844576,30.7105488,71.21294982,-10.60545258,110.18555298
3.77,377,0.033,-1.368,-0.052000000000000005,17.4179232,14.381245800000002,28.934379,71.34473016,-10.83463578,110.41473618
3.78,378,0.043,-1.183,-0.118,24.694489800000003,9.740286,26.642547,71.5624542,-11.05235982,110.59808274
3.79,379,0.018000000000000002,-0.956,-0.128,32.658606,6.760904399999999,24.637194,71.90049941999997,-11.21851764,110.73559266000002
3.8,380,-0.035,-0.7390000000000001,-0.097,44.34694920000001,7.1046792000000005,21.4286292,72.32448833999999,-11.396134620000002,110.87310258
3.81,381,-0.09,-0.5579999999999999,-0.095,51.33703679999999,10.599723,17.7044022,72.81150264,-11.52791496,111.03353082
3.82,382,-0.159,-0.395,-0.039,57.811462199999994,15.2406828,13.6936962,73.35581274,-11.613858660000002,111.22833654000002
3.83,383,-0.197,-0.298,-0.013,61.24921020000001,22.459953600000002,9.6829902,73.92304116,-11.64250656,111.48043806
3.84,384,-0.181,-0.197,-0.022,58.38442020000001,28.7051958,5.3858052,74.4558921,-11.64250656,111.77837622
3.8499999999999996,385,-0.125,-0.085,0.025,55.576926,31.4553942,0.0,74.95436556000001,-11.562292439999998,112.09350312
3.86,386,-0.086,-0.023,0.065,52.998615,35.0077338,-6.4744254,75.41846154,-11.41332336,112.42581876
3.8699999999999997,387,-0.012,0.033,0.035,46.00852740000001,44.404245,-12.318597,75.80234340000001,-11.18986974,112.83834852
3.88,388,0.064,0.066,-0.015,36.1536498,60.6189564,-17.0168526,76.05444492,-10.89193158,113.39411778000002
3.8899999999999997,389,0.106,0.086,-0.023,33.3461556,67.83822719999999,-16.386598799999998,76.25498022,-10.571075099999998,114.03010116
3.9,390,0.08,0.079,-0.023,33.3461556,69.8435802,-11.8029348,76.46124510000001,-10.313244000000001,114.68900286
3.9099999999999997,391,0.019,0.051,-0.011,32.945085,71.21867940000001,-4.6982556,76.66750998,-10.11843828,115.38228204000002
3.92,392,-0.095,-0.024,-0.04,29.392745399999995,73.911582,4.2398892,76.82220864,-10.00957626,116.12139786
3.9299999999999997,393,-0.239,-0.234,-0.213,15.813640800000002,77.52121740000003,16.157415599999997,76.8336678,-10.00957626,116.92353906
3.94,394,-0.264,-0.629,-0.664,-14.32395,85.1415588,34.262888399999994,76.47270426,-10.17573408,117.85173102
3.9499999999999997,395,-0.039,-1.383,-1.342,-42.398892,78.5525418,59.0719698,75.86536878,-10.58253426,118.75700466
3.96,396,0.384,-1.917,-1.127,-19.4232762,37.2995658,92.70460440000001,75.55597146,-11.396134620000002,119.35288097999998
3.9699999999999998,397,0.524,-1.196,-0.142,47.8992888,38.5600734,72.88025760000002,75.92266457999997,-12.00919968,119.9201094
3.98,398,0.124,-0.772,0.0,-11.9748222,50.82137460000001,45.779344200000004,75.66483348,-12.347244899999998,120.53317445999998
3.9899999999999998,399,-0.073,-0.604,-0.23,-43.65939960000001,55.1758554,22.345362,75.06322758,-12.4331886,121.13478036
4.0,400,-0.194,-0.937,-0.384,-26.2414764,62.9107884,12.4331886,74.65069782,-12.41027028,121.7822229
4.01,401,-0.36,-1.654,-0.385,-8.9954406,64.51507079999999,15.126091199999998,74.40432588,-12.404540699999998,122.45831334
4.02,402,-0.491,-2.204,-0.173,-10.7716104,57.86875799999999,23.032911600000002,74.15222436,-12.48475482,123.08856714
4.03,403,-0.585,-2.234,0.038,-15.2406828,54.25912260000001,23.6631654,73.86001578,-12.58215768,123.68444345999998
4.04,404,-0.597,-1.96,-0.03,-33.6899304,70.7030172,15.870936600000002,73.35581274,-12.55923936,124.4178297
4.05,405,-0.489,-1.77,-0.05,-29.1062664,80.1568242,13.2353298,72.87452801999999,-12.47902524,125.23715964
4.06,406,-0.326,-1.784,-0.015,-20.2254174,82.67783940000002,9.1100322,72.479187,-12.347244899999998,126.06794874
4.07,407,-0.231,-1.803,0.049,-15.2979786,85.7145168,1.5469866,72.13541219999998,-12.12952086,126.90446742000002
4.08,408,-0.185,-1.768,0.12,-12.7769634,93.7359288,-6.0733548,71.80309656,-11.80866438,127.79255231999998
4.09,409,-0.149,-1.714,0.132,-9.6256944,103.705398,-13.464512999999998,71.51661756,-11.38467546,128.74939218
4.1,410,-0.115,-1.664,0.102,-3.4377480000000005,112.872726,-21.027558600000006,71.27024562,-10.8575541,129.76925742
4.109999999999999,411,-0.078,-1.611,0.07,2.6929026,117.9147564,-27.1009134,71.08689906,-10.2559482,130.81204098
4.12,412,-0.023,-1.506,0.026,11.6310474,123.4151532,-30.252182399999995,71.00095536,-9.60850566,131.89493159999998
4.13,413,0.053,-1.391,0.017,21.3140376,126.623718,-30.4813656,71.02387368000002,-8.94387438,133.0121997
4.14,414,0.147,-1.251,-0.01,32.0283522,126.22264740000001,-30.65325300000001,71.18430192,-8.25632478,134.11227906
4.1499999999999995,415,0.234,-1.102,-0.024,44.404245,122.040054,-30.4240698,71.47078092000002,-7.61461182,135.18371052
4.16,416,0.306,-0.945,0.004,56.0925882,115.33644540000002,-28.934379,71.89476984000002,-7.001546759999999,136.20357575999998
4.17,417,0.355,-0.812,0.046,60.8481396,103.991877,-26.4706596,72.3932433,-6.45723666,137.12030855999998
4.18,418,0.34600000000000003,-0.7020000000000001,0.038,60.7908438,87.31879920000002,-21.485925,72.91463508000002,-6.01032942,137.89953144
4.1899999999999995,419,0.31,-0.562,0.058,61.7648724,72.82296179999999,-13.750992000000002,73.48759308,-5.6436363,138.55843313999998
4.2,420,0.295,-0.4270000000000001,0.128,65.2026204,61.020027,-3.151269,74.0834694,-5.45456016,139.14285030000002
4.21,421,0.28800000000000003,-0.315,0.092,63.88481700000001,55.6342218,6.3598338,74.67361614000002,-5.37434604,139.70434914
4.22,422,0.256,-0.203,0.04,59.874111,53.571573,14.667724800000002,75.21792624,-5.385805199999999,140.2601184
4.2299999999999995,423,0.229,-0.096,-0.01,52.998615,51.852699,21.027558600000006,75.69921095999999,-5.4717489000000015,140.82161724
4.24,424,0.155,-0.017,-0.114,48.8160216,42.28430039999999,23.835052800000003,76.11747030000002,-5.5863405,141.29717238
4.25,425,0.046,0.019,-0.188,45.779344200000004,29.793816,23.14750320000001,76.54145922000002,-5.74103916,141.64667676000005
4.26,426,-0.017,0.052000000000000005,-0.211,42.8572584,21.2567418,19.194093,76.9482594,-5.87854908,141.89877828
4.27,427,-0.015,0.101,-0.159,41.9405256,18.1054728,11.1153852,77.34933000000002,-5.9473040400000015,142.10504315999995
4.28,428,0.028,0.136,-0.128,42.5134836,22.631841,-1.145916,77.75613018,-5.89000824,142.32849678
4.29,429,0.027000000000000003,0.114,-0.086,41.596750799999995,24.637194,-11.3445684,78.12855288,-5.72958,142.55195039999995
4.3,430,-0.063,0.027000000000000003,-0.049,34.091001,18.907614000000002,-18.6784308,78.45513894,-5.51185596,142.70091947999995
4.31,431,-0.142,-0.161,-0.1,15.183387000000002,11.2872726,-25.8977016,78.60410802,-5.2425657,142.76394486
4.32,432,-0.065,-0.51,-0.453,-10.599723,27.043617600000005,-39.3049188,78.47805725999999,-4.812847199999998,142.95302099999995
4.33,433,0.015,-1.142,-0.927,-32.257535399999995,84.797784,-64.3431834,78.08271624,-4.0393539,143.64630018
4.34,434,-0.181,-2.2030000000000003,-1.243,-48.987909,154.35488519999996,-98.3768886,77.48111034,-2.8074942000000003,144.94118526
4.35,435,-0.7490000000000001,-2.334,-0.275,14.152062599999999,118.88878500000001,-91.55868840000001,77.57278362,-1.6959556799999995,145.90375469999995
4.36,436,-0.35,-1.3119999999999998,0.124,-52.54024860000001,57.4103916,-43.3156248,77.01701435999998,-1.1745638999999999,146.36212110000002
4.37,437,0.132,-0.845,-0.276,-90.5846598,44.0031744,-18.2773602,76.08309282,-0.9167328000000001,146.7345438
4.38,438,0.392,-0.998,-0.365,-43.9458786,44.8053156,1.7188740000000002,75.62472642,-0.8422482600000001,147.16999188
4.39,439,0.579,-1.662,-0.28800000000000003,-7.3911582,60.50436480000001,10.313244,75.53878272,-0.8021412000000001,147.77732736000004
4.3999999999999995,440,0.604,-2.194,-0.086,5.1566220000000005,66.69231119999999,2.6929026,75.57316019999998,-0.68182002,148.43049948
4.41,441,0.451,-2.326,0.04,-1.145916,59.98870260000001,-5.042030400000002,75.54451230000002,-0.4984734599999999,148.99199832000005
4.42,442,0.413,-2.102,0.011,-28.1322378,45.4355694,-8.9954406,75.25230372,-0.31512690000000004,149.40452808
4.43,443,0.436,-1.981,0.031,-29.4500412,29.8511118,-8.250595200000001,74.94863597999998,-0.1718874,149.67381834
4.4399999999999995,444,0.479,-1.99,0.068,-13.5791046,13.0061466,1.145916,74.81685564,-0.14896908,149.7998691
4.45,445,0.482,-1.963,0.047,-10.8289062,-2.1772404,13.8082878,74.70799362,-0.28647900000000004,149.81132825999995
4.46,446,0.401,-1.835,0.086,-6.875496000000001,-17.0741484,26.9863218,74.63923866,-0.5844171599999999,149.71965498
4.47,447,0.285,-1.713,0.114,2.1199446,-27.444688199999998,38.38818600000001,74.66788656,-1.01986524,149.55349716
4.4799999999999995,448,0.182,-1.607,0.101,9.6256944,-35.7525792,47.6128098,74.77674858,-1.55844576,149.33577312
4.49,449,0.08199999999999999,-1.491,0.031,13.120738199999998,-43.48751220000001,53.628868800000006,74.9429064,-2.1657812400000003,149.0550237
4.5,450,-0.025,-1.354,0.009000000000000001,16.7876694,-48.987909,54.717489,75.13771212,-2.80176462,148.72270806
4.51,451,-0.173,-1.202,-0.022,23.7204612,-50.1911208,51.852699,75.40700238,-3.4091001000000003,148.37320368000005
4.52,452,-0.337,-1.0759999999999998,-0.022,37.3568616,-42.7426668,42.7426668,75.80807297999998,-3.91330314,148.06380636
4.53,453,-0.41,-0.965,-0.024,44.1750618,-29.507337,31.054323600000004,76.27789854,-4.2685371,147.85754148
4.54,454,-0.417,-0.8320000000000001,-0.037000000000000005,47.9565846,-15.3552744,17.7044022,76.79929032,-4.54355694,147.74867946
4.55,455,-0.339,-0.6779999999999999,-0.051,52.19647379999999,-6.130650599999999,6.4744254,77.33787084,-4.612311900000001,147.7085724
4.56,456,-0.21,-0.507,-0.106,57.92605379999999,-2.5210152000000003,-1.7188740000000002,77.92801758,-4.59512316,147.68565408
4.57,457,-0.077,-0.35700000000000004,-0.101,62.9107884,-3.4377480000000005,-6.6463128000000005,78.56973054,-4.5263682,147.64554701999995
4.58,458,0.006999999999999999,-0.206,0.023,63.4264506,-2.4637194,-9.568398599999998,79.21717308,-4.43469492,147.61116954000005
4.59,459,0.008,-0.053,0.045,59.7595194,1.7761698,-10.7143146,79.84742688,-4.320103319999999,147.61116954000005
4.6,460,-0.055,0.058,-0.033,52.48295279999999,9.969469199999999,-10.7143146,80.36881866,-4.19978214,147.69711324
4.61,461,-0.081,0.112,-0.119,46.8106686,21.6578124,-11.3445684,80.82718506,-4.05081306,147.89764854
4.62,462,-0.07200000000000001,0.136,-0.162,41.539455,31.1689152,-12.032117999999999,81.22825566,-3.89038482,148.18985712
4.63,463,-0.025,0.129,-0.163,39.19032720000001,35.52339600000001,-11.688343199999998,81.59494878,-3.7299565800000014,148.52217276000005
4.64,464,0.033,0.093,-0.155,39.7632852,37.0703826,-9.969469199999999,81.93872358,-3.57525792,148.88313630000005
4.6499999999999995,465,0.076,0.051,-0.13699999999999998,38.5600734,36.4401288,-6.2452422,82.3054167,-3.47212548,149.23837026
4.66,466,0.111,0.032,-0.105,34.7212548,32.7731976,-0.572958,82.63200276,-3.42628884,149.55922674
4.67,467,0.141,0.019,-0.112,29.9657034,27.3873924,5.958763200000001,82.91848175999998,-3.46066632,149.83997616000005
4.68,468,0.185,-0.095,-0.005,22.1161788,33.4607472,11.172681,83.11901706,-3.5351508600000003,150.18948054
4.6899999999999995,469,0.29100000000000004,-0.482,-0.027000000000000003,-17.475219,60.8481396,20.511896399999998,82.8783747,-3.6382833,150.81400476
4.7,470,0.222,-1.286,-0.938,-84.1675302,54.3737142,59.30115299999999,81.97883064,-4.17686382,151.41561066
4.71,471,0.309,-3.517,-2.419,-202.1968782,-77.23473840000003,153.6100398,79.99066638000002,-5.80406454,150.87130056
4.72,472,1.484,-2.3040000000000003,-1.273,0.9167328,-88.2928278,133.09814340000003,80.08233966,-7.23645954,150.23531717999995
4.7299999999999995,473,0.524,-1.013,0.126,67.5517482,-104.6794266,101.9292282,80.90166959999998,-8.37091638,149.37015060000004
4.74,474,-0.627,-0.551,0.472,-8.8235532,-39.0184398,62.5097178,80.95323582,-9.167328,149.06075328
4.75,475,-0.988,-0.448,0.021,-71.33327100000002,17.8762896,7.0473834,80.20266084,-9.21889422,149.24409984
4.76,476,-1.219,-1.235,-0.3,-55.86340500000001,14.32395,-26.069589,79.61824368,-8.949603960000003,149.33577312
4.77,477,-1.27,-2.26,-0.3720000000000001,-12.3758928,5.042030400000002,-20.626488,79.48646334,-8.74333908,149.34723228
4.78,478,-0.816,-2.605,0.292,36.669312,13.407217200000002,-1.432395,79.83596772,-8.70323202,149.47901262
4.79,479,-0.3670000000000001,-2.283,0.426,9.1100322,47.555514,1.8907613999999997,79.85888604,-8.651665800000002,149.95456776
4.8,480,-0.232,-2.064,0.279,-15.5844576,69.4998054,6.760904399999999,79.5838662,-8.61728832,150.65357652
4.81,481,-0.213,-1.831,0.268,-20.626488,83.53727640000002,9.167328,79.24009140000003,-8.57718126,151.49009519999996
4.82,482,-0.198,-1.717,0.196,-6.760904399999999,88.2928278,9.1100322,79.02809694,-8.52561504,152.37818009999995
4.83,483,-0.224,-1.6780000000000002,0.142,5.6149884000000005,88.23553199999998,3.4950437999999995,78.94215324000002,-8.41675302,153.25480584000005
4.84,484,-0.269,-1.584,0.12,18.449247600000003,90.3554766,-6.589017,79.00517862,-8.204758559999998,154.13143158
4.85,485,-0.215,-1.4340000000000002,0.134,31.741873200000004,91.9024632,-14.152062599999999,79.19425475999998,-7.9182795599999976,155.01378689999999
4.86,486,-0.06,-1.318,0.147,41.0810886,92.0170548,-19.6524594,79.48073375999998,-7.58023434,155.89041264
4.87,487,0.173,-1.205,0.155,45.72204840000001,86.63124959999998,-22.9756158,79.82450856,-7.2192707999999985,156.70974257999995
4.88,488,0.354,-1.082,0.076,46.753372799999994,72.5937786,-23.032911600000002,80.20839042,-6.8812255800000015,157.38583302
4.89,489,0.467,-0.953,-0.021,53.34238979999999,53.285094,-18.5065434,80.69540472,-6.53745078,157.89003606
4.8999999999999995,490,0.511,-0.769,-0.038,67.0933818,32.830493399999995,-9.6256944,81.3313881,-6.39421128,158.20516296
4.91,491,0.466,-0.546,-0.018000000000000002,84.3394176,14.9542038,0.4010706,82.16790678,-6.37129296,158.35986162
4.92,492,0.342,-0.349,0.061,98.4914802,2.3491278,9.969469199999999,83.16485370000002,-6.45723666,158.40569825999995
4.93,493,0.154,-0.184,0.17600000000000002,101.70004499999999,4.6409598,16.501190400000002,84.19044852,-6.611935319999999,158.48018280000005
4.9399999999999995,494,0.041,-0.085,0.15,98.548776,16.386598799999998,19.595163600000006,85.19312502,-6.77809314,158.66925894000005
4.95,495,0.001,-0.023,0.015,89.8971102,24.8090814,18.7930224,86.06975076,-6.94425096,158.93854919999995
4.96,496,-0.025,-0.004,-0.112,78.8390208,22.2307704,16.501190400000002,86.83751448000002,-7.09322004,159.17919156
4.97,497,-0.075,-0.022,-0.274,69.4998054,13.6936962,15.3552744,87.5193345,-7.23645954,159.32816064
4.9799999999999995,498,-0.098,-0.039,-0.431,66.176649,2.1772404,16.959556799999998,88.18969536,-7.4026173600000025,159.3682677
4.99,499,-0.063,-0.033,-0.445,65.3745078,-3.8388186,18.6784308,88.79703083999998,-7.58596392,159.35107896
5.0,500,-0.032,0.018000000000000002,-0.359,62.16594300000001,-2.5210152000000003,19.938938399999998,89.42728464000002,-7.780769640000001,159.33389022
5.01,501,-0.02,0.101,-0.246,59.58763199999999,1.8907613999999997,18.2200644,90.02889053999998,-7.9583866200000015,159.36253812
5.02,502,-0.034,0.134,-0.14300000000000002,56.3217714,7.2765666,13.349921400000001,90.59038938,-8.09016696,159.43702266
5.03,503,-0.008,0.104,-0.049,52.597544400000004,13.5791046,7.5057497999999985,91.100322,-8.164651500000002,159.58026216000005
5.04,504,0.028,0.012,-0.009000000000000001,45.0344988,8.9954406,3.0366774,91.53577008,-8.17611066,159.67193544
5.05,505,0.006,-0.229,-0.044,24.0069402,-15.6990492,-1.5469866,91.80506034,-8.14746276,159.52296636
5.06,506,-0.051,-0.763,-0.12,-21.5432208,-61.5356892,-17.8189938,91.67900958,-7.94119788,158.9099013
5.07,507,0.067,-2.509,-1.203,-93.2202666,73.052145,-108.002583,90.63049644,-6.9041438999999984,159.65474669999998
5.08,508,-1.4280000000000002,-3.958,-1.848,-33.116972399999995,259.89374879999997,-231.36044040000002,89.98878348,-4.68106686,162.23305770000005
5.09,509,-1.123,-1.936,-0.085,-0.286479,93.2775624,-139.85904779999998,89.8971102,-3.33461556,163.16124966
5.1,510,-0.132,-0.935,-0.618,-99.8092836,-25.2674478,-105.08049720000001,88.90016328,-2.29756158,162.8919594
5.11,511,0.883,-0.924,-0.688,-12.261301199999998,-78.8390208,-45.6074568,88.80848999999998,-1.83919518,162.10127736
5.12,512,1.284,-1.904,-0.152,64.22859179999999,-16.902261,23.14750320000001,89.47312128,-2.0626488000000003,161.94657869999998
5.13,513,1.035,-2.164,-0.013,18.9649098,17.18874,23.6058696,89.65646783999998,-2.30329116,162.11846609999995
5.14,514,0.586,-1.982,0.107,35.46610020000001,10.5424272,-1.2032118,90.0117018,-2.28037284,162.22732811999995
5.1499999999999995,515,0.358,-1.727,0.233,45.0344988,0.6875496,1.6615782,90.4700682,-2.2918320000000003,162.23878728
5.16,516,0.194,-1.405,0.127,24.4653066,-2.4064236,13.2353298,90.71644014,-2.42361234,162.21586896000005
5.17,517,-0.083,-1.251,0.024,13.9228794,-7.7922288,23.777757,90.86540922,-2.65279554,162.13565483999997
5.18,518,-0.44,-1.31,0.081,20.912967,-12.1467096,27.444688199999998,91.08313326,-2.9220858,162.01533366
5.1899999999999995,519,-0.6809999999999999,-1.392,0.316,34.1482968,-0.7448454000000001,22.4026578,91.4440968,-3.1627281600000003,162.00387450000005
5.2,520,-0.743,-1.421,0.485,35.6379876,16.8449652,11.4018642,91.79360118,-3.28304934,162.17003232
5.21,521,-0.613,-1.443,0.5329999999999999,33.6326346,29.392745399999995,-3.0366774,92.11445766,-3.2658606,162.46797048000005
5.22,522,-0.426,-1.43,0.539,33.2888598,38.4454818,-15.4125702,92.42385498,-3.1398098400000003,162.85758192
5.2299999999999995,523,-0.156,-1.411,0.518,40.8519054,48.987909,-18.3919518,92.80773684,-2.99084076,163.35605538
5.24,524,0.046,-1.367,0.496,55.86340500000001,62.5670136,-12.891555,93.35777652,-2.8934379,163.98630917999995
5.25,525,0.223,-1.187,0.398,52.82672760000001,67.43715660000001,-4.4690724,93.8505204,-2.90489706,164.65667004
5.26,526,0.281,-0.962,0.28800000000000003,45.3209778,63.1399716,3.151269,94.26877974,-2.9965703400000003,165.28692384
5.27,527,0.239,-0.746,0.194,43.7166954,57.06661679999999,8.4224826,94.67557992,-3.13408026,165.8426931
5.28,528,0.14300000000000002,-0.5920000000000001,0.142,45.8939358,52.8840234,10.255948199999999,95.10529842,-3.2945085,166.36408488
5.29,529,0.051,-0.48,0.16,48.7587258,50.47759979999999,8.7662574,95.58085356,-3.43201842,166.85682876
5.3,530,-0.036000000000000004,-0.383,0.185,46.00852740000001,56.5509546,3.9534102,96.00484248,-3.54088044,167.41259802
5.31,531,-0.098,-0.27,0.122,38.3308902,70.18735500000001,-4.297185,96.3428877,-3.58671708,168.11160678000005
5.32,532,-0.101,-0.235,-0.119,26.0122932,88.12094040000002,-14.4385416,96.53769342,-3.56379876,168.9939621
5.33,533,-0.09,-0.243,-0.329,17.9908812,97.5174516,-22.5745452,96.64655544,-3.47785506,169.97944986
5.34,534,-0.099,-0.23,-0.34700000000000003,15.3552744,97.40286,-24.923673,96.6866625,-3.380452200000001,170.97066719999995
5.35,535,-0.08199999999999999,-0.14400000000000002,-0.195,18.907614000000002,87.0323202,-19.8243468,96.81271325999998,-3.3116972399999995,171.84729294
5.36,536,-0.097,-0.035,0.018000000000000002,22.2880662,66.5204238,-11.1153852,96.99033024,-3.2945085,172.5176538
5.37,537,-0.115,-0.019,0.031,19.1367972,55.2331512,-5.3285094000000015,97.15075848,-3.3231564,173.06769348
5.38,538,-0.061,-0.091,-0.032,9.568398599999998,59.53033620000001,-3.6096354,97.20232469999999,-3.37472262,173.65784022
5.39,539,0.031,-0.228,-0.08900000000000001,0.6875496,64.22859179999999,-5.0993262,97.13929932,-3.4091001000000003,174.29382360000002
5.3999999999999995,540,0.08,-0.324,-0.177,3.9534102,63.4264506,-6.703608600000001,97.13356974,-3.4377480000000005,174.92407740000004
5.41,541,0.105,-0.332,-0.273,16.1001198,58.9573782,-6.589017,97.25389092,-3.46066632,175.51422413999995
5.42,542,0.118,-0.268,-0.28,29.9084076,54.8320806,-1.6615782,97.5174516,-3.52942128,176.05280466
5.43,543,0.195,-0.292,-0.027000000000000003,25.3247436,72.4218912,4.9274388,97.7179869,-3.68984952,176.757543
5.4399999999999995,544,0.302,-0.4920000000000001,0.04,-17.475219,119.748222,15.985528200000001,97.4315079,-3.99924684,177.90918858
5.45,545,0.384,-1.041,-0.444,-61.134618599999996,145.58862779999995,38.90384820000001,96.6866625,-4.60658232,179.2785582
5.46,546,0.71,-3.068,-2.212,-162.8346636,54.94667220000001,108.4609494,94.9964364,-5.76395748,179.68535838
5.47,547,2.271,-3.799,-1.426,-206.4367674,-80.5578948,210.04640279999998,93.03119046,-7.78649922,178.72278894000004
5.4799999999999995,548,0.91,-1.14,-0.3720000000000001,56.78013780000001,-95.970465,119.748222,93.77030628,-8.88657858,177.69719412
5.49,549,-0.29,-0.813,0.508,17.475219,-12.3758928,38.2162986,94.0224078,-9.38505204,177.53676588000005
5.5,550,-1.126,-0.999,-0.42,-49.2170922,57.06661679999999,-24.0069402,93.4208019,-9.20170548,178.11545346
5.51,551,-1.686,-1.6469999999999998,-0.826,-43.0291458,56.3790672,-48.3576552,92.88222138,-8.77198698,178.69987062
5.52,552,-2.087,-2.2840000000000003,-0.5489999999999999,-0.4583664000000001,55.4623344,-33.002380800000005,92.78481852,-8.48550798,179.27282862
5.53,553,-1.421,-2.65,-0.114,-9.167328,71.33327100000002,12.891555,92.57855364,-8.66885454,179.97756696
5.54,554,-0.667,-2.188,-0.064,-23.14750320000001,117.34179840000002,30.366774000000003,92.14883514,-9.0527364,-178.86029886
5.55,555,-0.274,-1.934,-0.075,-15.0114996,151.7765742,34.66395900000001,91.7305758,-9.48818448,-177.35914889999995
5.56,556,-0.07,-1.806,-0.14,-27.9603504,175.15326059999995,37.0703826,91.13469948,-9.95228046,-175.61735658
5.57,557,0.043,-1.6,-0.111,-24.4080108,179.39314979999997,33.1742682,90.54455274,-10.35908064,-173.82972762
5.58,558,0.055,-1.44,-0.075,-17.303331600000003,175.3824438,19.5378678,90.02316096,-10.61118216,-172.07074656
5.59,559,-0.02,-1.259,-0.066,-17.589810600000003,172.173879,0.8021411999999999,89.49603959999996,-10.64555964,-170.34041340000005
5.6,560,-0.093,-1.148,-0.039,-18.1054728,171.600921,-13.349921400000001,88.97464782,-10.5424272,-168.61580981999995
5.61,561,-0.13699999999999998,-1.127,0.0,-15.813640800000002,171.9446958,-18.334656,88.47617436,-10.3705398,-166.89120624
5.62,562,-0.16899999999999998,-1.167,0.08900000000000001,-12.834259199999998,170.2831176,-18.2773602,88.01780796,-10.18146366,-165.18952098
5.63,563,-0.158,-1.148,0.151,-12.2040054,171.8874,-16.386598799999998,87.57090072000004,-10.00384668,-163.47064698
5.64,564,-0.131,-1.039,0.13699999999999998,-11.3445684,174.40841519999995,-12.9488508,87.14691180000001,-9.83768886,-161.72885466
5.6499999999999995,565,-0.101,-0.927,0.083,-7.0473834,174.0646404,-10.3705398,86.75730036,-9.69444936,-159.99279192
5.66,566,-0.062,-0.8320000000000001,0.068,-2.6356068,172.3457664,-9.167328,86.41925513999998,-9.54548028,-158.26818834
5.67,567,-0.023,-0.753,0.092,0.4583664000000001,171.8874,-9.5111028,86.11558740000002,-9.39078162,-156.55504392
5.68,568,0.005,-0.6940000000000001,0.106,3.2658606,173.60627399999996,-11.0007936,85.84629714,-9.20743506,-154.82471076
5.6899999999999995,569,0.039,-0.665,0.086,5.5003968,174.98137319999995,-12.5477802,85.61711394,-8.98398144,-153.08291844
5.7,570,0.081,-0.65,0.08199999999999999,7.8495246,173.20520340000004,-12.7769634,85.40511948000002,-8.77198698,-151.36404444
5.71,571,0.133,-0.616,0.106,10.4278356,169.99663859999995,-12.2040054,85.23323208,-8.55999252,-149.67381834
5.72,572,0.185,-0.578,0.146,15.4125702,166.3297074,-11.516455800000001,85.12437006,-8.34799806,-148.01796972
5.7299999999999995,573,0.229,-0.5479999999999999,0.156,19.938938399999998,162.433593,-11.688343199999998,85.07280384,-8.136003599999999,-146.40795774
5.74,574,0.266,-0.535,0.142,24.9809688,157.1050836,-11.688343199999998,85.10718132,-7.89536124,-144.84951198
5.75,575,0.294,-0.534,0.14400000000000002,29.5646328,151.7192784,-10.4851314,85.18166586000002,-7.70055552,-143.34263244000005
5.76,576,0.31,-0.545,0.14400000000000002,33.8618178,147.76586819999997,-8.193299399999999,85.3134462,-7.534397699999999,-141.87585996
5.77,577,0.32,-0.5579999999999999,0.13699999999999998,37.1849742,143.0103168,-4.8128472,85.48533359999998,-7.408346939999999,-140.44919454
5.78,578,0.307,-0.586,0.14,40.680018,135.04620060000002,-0.4010706,85.70878722,-7.333862399999999,-139.10274324
5.79,579,0.25,-0.62,0.128,42.62807520000001,126.7383096,4.297185,85.97807748,-7.282296179999999,-137.83650605999998
5.8,580,0.202,-0.644,0.119,44.34694920000001,119.8628136,8.59437,86.2588269,-7.3166736599999975,-136.63329426
5.81,581,0.161,-0.67,0.103,45.4355694,115.96669920000001,11.45916,86.55676506,-7.385428619999999,-135.46445994
5.82,582,0.122,-0.691,0.093,47.7274014,113.3883882,12.6623718,86.87762153999998,-7.477101899999999,-134.31854394
5.83,583,0.08900000000000001,-0.708,0.058,49.9619376,112.013289,11.4018642,87.22139634,-7.55731602,-133.19554626
5.84,584,0.038,-0.7340000000000001,-0.018000000000000002,49.1025006,110.8100772,7.6203414,87.55371198,-7.59742308,-132.07827816
5.85,585,-0.022,-0.7829999999999999,-0.065,49.388979600000006,111.0392604,1.432395,87.89748678,-7.59742308,-130.96673964
5.86,586,-0.086,-0.879,-0.078,48.8733174,113.33109240000002,-6.990087599999999,88.22407283999998,-7.51720896,-129.8322828
5.87,587,-0.155,-1.027,-0.084,45.263682,116.883432,-17.7044022,88.52201099999998,-7.333862399999999,-128.66344848
5.88,588,-0.184,-1.175,-0.086,38.961144,121.4098002,-27.215505,88.74546462,-7.06457214,-127.4545071
5.89,589,-0.157,-1.278,-0.08900000000000001,32.8877892,124.3891818,-33.2888598,88.91162244,-6.7379860800000015,-126.2226474
5.8999999999999995,590,-0.102,-1.3159999999999998,-0.092,28.5906042,123.70163219999999,-35.122325399999994,89.04340278,-6.39994086,-124.99078770000001
5.91,591,-0.015,-1.321,-0.09,29.392745399999995,125.0767314,-32.372127,89.18664228,-6.09054354,-123.74746883999998
5.92,592,0.1,-1.281,-0.08900000000000001,31.3980984,128.57177520000002,-25.8977016,89.3528001,-5.849901179999999,-122.4697725
5.93,593,0.17600000000000002,-1.187,-0.12,31.51269000000001,126.5664222,-18.162768600000003,89.53041707999998,-5.68947294,-121.20926490000002
5.9399999999999995,594,0.177,-1.093,-0.129,30.8251404,118.2585312,-11.6310474,89.6965749,-5.56915176,-120.02897142000002
5.95,595,0.096,-1.026,-0.104,28.4760126,106.91396280000001,-6.990087599999999,89.8684623,-5.52331512,-118.96326954
5.96,596,-0.005,-1.001,-0.085,24.1788276,95.111028,-6.1879464,90.0117018,-5.48320806,-118.01788884
5.97,597,-0.099,-1.009,-0.07400000000000001,20.2827132,91.7305758,-8.880849000000003,90.12056382,-5.42018268,-117.10688562
5.9799999999999995,598,-0.175,-1.048,-0.06,16.1001198,94.4234784,-13.6364004,90.17785962,-5.311320660000002,-116.16150492
5.99,599,-0.218,-1.095,-0.041,12.834259199999998,100.6687206,-18.5638392,90.20077794,-5.16808116,-115.16455800000001
6.0,600,-0.225,-1.145,-0.013,11.6310474,108.28906200000002,-22.2307704,90.20650752,-4.97900502,-114.08739696
6.01,601,-0.217,-1.182,0.01,10.7143146,115.85210759999998,-23.777757,90.20077794,-4.77846972,-112.93575138
6.02,602,-0.193,-1.173,0.025,10.3705398,120.89413799999998,-22.7464326,90.19504836000002,-4.58939358,-111.73253958
6.03,603,-0.16399999999999998,-1.127,0.033,10.313244,124.045407,-18.7930224,90.1835892,-4.4404245000000016,-110.50067988
6.04,604,-0.15,-1.087,0.014,9.2819196,125.4205062,-13.2353298,90.16640046,-4.3544808,-109.25736102
6.05,605,-0.145,-1.063,0.006999999999999999,8.078707799999998,125.9934642,-8.078707799999998,90.13202298,-4.30864416,-108.00831257999998
6.06,606,-0.14400000000000002,-1.048,-0.008,6.3598338,126.2799432,-4.2398892,90.08618634,-4.30291458,-106.75353456
6.07,607,-0.139,-1.031,-0.026,5.443101,126.5664222,-2.291832,90.03462012,-4.320103319999999,-105.49875654
6.08,608,-0.121,-1.006,-0.036000000000000004,5.2139178,127.36856340000001,-2.3491278,89.97159474,-4.3315624800000005,-104.23824894000002
6.09,609,-0.098,-0.976,-0.034,4.8701430000000006,127.9988172,-3.8961144,89.90283978,-4.325832900000001,-102.96628218
6.1,610,-0.07200000000000001,-0.937,-0.019,4.2398892,128.1707046,-5.9014674000000005,89.83408482,-4.297185000000002,-101.69431542
6.11,611,-0.045,-0.912,-0.015,4.297185,127.7123382,-7.8495246,89.76532986,-4.25134836,-100.42807824
6.12,612,-0.035,-0.914,-0.019,4.1825934,126.6810138,-8.9954406,89.6965749,-4.1883229800000015,-99.17330022000002
6.13,613,-0.037000000000000005,-0.927,-0.022,3.8388186,126.22264740000001,-9.3392154,89.62781994000002,-4.1252976000000015,-97.92425178
6.14,614,-0.042,-0.932,-0.018000000000000002,3.4377480000000005,126.337239,-9.1100322,89.55333540000002,-4.05654264,-96.66947376
6.15,615,-0.054000000000000006,-0.926,-0.02,3.8961144,126.7383096,-8.7662574,89.49031002000002,-3.99351726,-95.41469573999998
6.16,616,-0.068,-0.91,-0.025,4.583664,127.0820844,-8.651665800000002,89.43301421999998,-3.93049188,-94.15418814
6.17,617,-0.08199999999999999,-0.893,-0.021,4.9847345999999995,128.8582542,-8.9954406,89.37571842,-3.86173692,-92.8764918
6.18,618,-0.091,-0.882,-0.021,5.3285094000000015,131.4365652,-9.8548776,89.32988178,-3.7815227999999994,-91.57587714
6.1899999999999995,619,-0.098,-0.884,-0.019,5.72958,133.212735,-10.9434978,89.27831556,-3.70130868,-90.25807374
6.2,620,-0.097,-0.898,-0.021,6.0733548,134.7597216,-12.9488508,89.2382085,-3.59244666,-88.9230816
6.21,621,-0.08199999999999999,-0.918,-0.016,5.1566220000000005,136.4785956,-14.7823164,89.18664228,-3.46066632,-87.57090072000004
6.22,622,-0.05,-0.932,-0.017,3.7815227999999994,137.96828639999998,-16.1001198,89.12361690000002,-3.31742682,-86.20726068
6.2299999999999995,623,-0.015,-0.947,-0.018000000000000002,2.578311,138.7131318,-16.501190400000002,89.05486194,-3.16845774,-84.83789106
6.24,624,0.01,-0.962,-0.022,1.5469866,137.22344099999998,-15.9282324,88.97464782,-3.01948866,-83.4799806
6.25,625,0.016,-0.974,-0.028,0.4010706,134.3013552,-14.9542038,88.89443370000002,-2.88197874,-82.15071803999999
6.26,626,0.021,-0.993,-0.055,-2.2345362,132.1241148,-13.980175199999998,88.79130126,-2.7501984,-80.85010338000002
6.27,627,0.031,-1.011,-0.085,-4.8701430000000006,130.4052408,-13.120738199999998,88.65952092,-2.62987722,-79.56094787999999
6.28,628,0.045,-1.026,-0.097,-6.417129599999999,127.65504240000001,-12.605076,88.52201099999998,-2.50955604,-78.30044028
6.29,629,0.049,-1.035,-0.08800000000000001,-6.8182002000000015,123.6443364,-12.5477802,88.37304191999998,-2.37204612,-77.08003973999998
6.3,630,0.047,-1.047,-0.086,-8.021412000000002,119.461743,-12.605076,88.22980242,-2.24599536,-75.90547584
6.31,631,0.05,-1.06,-0.095,-10.6570188,115.7948118,-12.5477802,88.05791502,-2.11421502,-74.75955984
6.32,632,0.053,-1.079,-0.108,-13.5791046,111.440331,-12.0894138,87.86883888,-1.98816426,-73.66521005999998
6.33,633,0.065,-1.088,-0.132,-16.157415599999997,106.1691174,-10.8289062,87.65684442,-1.86784308,-72.6224265
6.34,634,0.077,-1.098,-0.162,-17.9908812,100.4968332,-9.167328,87.41047248,-1.7475218999999995,-71.63120916
6.35,635,0.098,-1.106,-0.183,-19.8816426,95.9131692,-7.2765666,87.16410053999998,-1.6615782,-70.69155803999998
6.36,636,0.13,-1.099,-0.188,-22.631841,90.9857304,-5.042030400000002,86.89481028,-1.59282324,-69.79201398
6.37,637,0.142,-1.091,-0.184,-25.4393352,86.11558740000002,-2.9793816000000004,86.60260170000002,-1.5412570200000002,-68.94403614
6.38,638,0.155,-1.06,-0.192,-28.81978740000001,81.81840240000002,-0.8594370000000001,86.28174521999998,-1.50687954,-68.14189494000001
6.39,639,0.17,-1.058,-0.204,-32.257535399999995,80.3860074,0.6302538000000001,85.89786336,-1.45531332,-67.35121290000001
6.4,640,0.188,-1.102,-0.2,-36.2109456,84.22482600000002,1.3750992,85.49679276,-1.432395,-66.52042379999999
6.41,641,0.227,-1.206,-0.163,-42.5134836,88.52201099999998,2.4064236,85.03269678,-1.40947668,-65.64952764
6.42,642,0.253,-1.295,-0.075,-49.6754586,85.77181259999998,5.1566220000000005,84.49411626,-1.41520626,-64.8015498
6.43,643,0.224,-1.295,-0.031,-53.68616460000001,77.92228800000002,9.740286,83.92115826,-1.45531332,-64.02805649999999
6.4399999999999995,644,0.048,-1.194,-0.04,-51.5089242,62.10864720000001,17.6471064,83.38257774,-1.5870936600000003,-63.40353228
6.45,645,-0.154,-1.039,-0.041,-48.4722468,49.1597964,22.631841,82.86691554,-1.77044022,-62.89932924
6.46,646,-0.28300000000000003,-0.879,0.022,-43.20103320000001,43.0291458,22.8037284,82.40854913999998,-1.95378678,-62.452422
6.47,647,-0.383,-0.7979999999999999,0.063,-37.0130868,44.6334282,16.558486199999994,82.01320812,-2.07410796,-61.9940556
6.4799999999999995,648,-0.404,-0.794,0.05,-32.486718599999996,52.0818822,7.3911582,81.65797416000002,-2.0912967,-61.4783934
6.49,649,-0.342,-0.865,0.029,-27.5592798,59.7595194,0.286479,81.37722474,-2.08556712,-60.89397623999999
6.5,650,-0.235,-0.969,0.01,-25.9549974,65.66098679999999,-3.9534102,81.08501616,-1.96524594,-60.25799286
6.51,651,-0.106,-1.053,0.0,-24.064235999999998,67.7236356,-6.2452422,80.80999632,-1.82200644,-59.60482074
6.52,652,0.001,-1.101,0.003,-18.621135,66.2912406,-6.875496000000001,80.59227228,-1.6673077799999998,-58.96883736
6.53,653,0.046,-1.079,0.013,-13.521808800000002,63.7129296,-6.4744254,80.42611446000002,-1.5183387000000002,-58.3557723
6.54,654,0.038,-1.012,0.0,-9.453807000000001,62.68160520000001,-6.703608600000001,80.34017076,-1.35218088,-57.754166399999995
6.55,655,0.001,-0.94,-0.009000000000000001,-4.8128472,62.738901,-7.7349330000000025,80.2714158,-1.19175264,-57.15256049999999
6.56,656,-0.041,-0.8909999999999999,-0.005,-0.286479,62.3951262,-9.0527364,80.24849748,-1.01413566,-56.55668418000001
6.57,657,-0.065,-0.867,-0.002,3.380452200000001,62.5670136,-9.797581800000001,80.26568621999998,-0.8307891,-55.96080786
6.58,658,-0.062,-0.872,0.002,4.7555514,62.2805346,-9.797581800000001,80.29433412,-0.64744254,-55.36493154
6.59,659,-0.017,-0.875,0.005,4.297185,60.6189564,-7.9641161999999985,80.36308908,-0.47555514,-54.78051438
6.6,660,0.039,-0.907,0.013,4.4117766,56.72284200000001,-5.0993262,80.39746656,-0.34950438,-54.23620428
6.61,661,0.078,-0.942,0.01,4.8128472,53.68616460000001,-1.7188740000000002,80.43757362,-0.25783110000000004,-53.70908292
6.62,662,0.117,-0.966,0.0,5.958763200000001,51.5089242,1.5469866,80.48913983999998,-0.20053530000000008,-53.20487988
6.63,663,0.142,-0.992,-0.002,8.193299399999999,49.04520479999999,3.8388186,80.56362438,-0.1718874,-52.71786558
6.64,664,0.166,-1.003,-0.002,8.9381448,45.8939358,5.042030400000002,80.68967513999998,-0.10313244,-52.25949918
6.65,665,0.189,-1.016,0.018000000000000002,10.599723,40.680018,5.1566220000000005,80.79280758000002,-0.09740286,-51.84696941999999
6.66,666,0.213,-1.032,0.014,10.9434978,35.5806918,4.2398892,80.90166959999998,-0.09167328,-51.49173546
6.67,667,0.243,-1.032,-0.027000000000000003,11.516455800000001,32.372127,2.578311,81.01053162,-0.07448454,-51.17087898
6.68,668,0.253,-1.026,-0.068,13.8082878,28.991674800000002,1.3750992,81.14804154,-0.05156622,-50.88439998
6.6899999999999995,669,0.25,-1.018,-0.085,14.667724800000002,26.5279554,0.6302538000000001,81.30846978000002,0.08021412,-50.62083930000001
6.7,670,0.23,-1.0,-0.103,14.2093584,24.9809688,0.5156622000000001,81.45170928,0.10886202,-50.37446736
6.71,671,0.206,-0.988,-0.114,13.6364004,24.2934192,1.2032118,81.5892192,0.12605075999999998,-50.133825
6.72,672,0.182,-0.971,-0.109,14.266654199999998,23.777757,2.4637194,81.73245870000002,0.13178034,-49.893182640000006
6.7299999999999995,673,0.155,-0.943,-0.12,16.157415599999997,22.1161788,4.6982556,81.89288694,0.10886202,-49.66972902000001
6.74,674,0.135,-0.928,-0.17800000000000002,16.673077799999998,18.2200644,7.5630456000000015,82.0189377,0.11459160000000004,-49.48065288
6.75,675,0.119,-0.93,-0.209,16.558486199999994,14.266654199999998,10.6570188,82.18509551999998,0.028647900000000007,-49.32595422
6.76,676,0.1,-0.922,-0.211,18.2773602,11.8602306,13.2353298,82.36844208,-0.08021412,-49.1884443
6.77,677,0.076,-0.917,-0.215,21.1421502,9.568398599999998,15.2406828,82.58043654000002,-0.21772404,-49.0738527
6.78,678,0.055,-0.936,-0.18,21.6578124,6.0733548,16.1001198,82.79816058,-0.3724227000000001,-48.987909
6.79,679,0.073,-0.98,-0.19,20.05353,11.516455800000001,13.980175199999998,82.95858882,-0.4583664000000001,-48.86185824
6.8,680,0.059,-1.019,-0.222,14.2093584,14.8396122,12.2040054,83.09609874,-0.56722842,-48.70143
6.81,681,0.012,-1.026,-0.225,11.229976800000001,11.5737516,11.917526400000002,83.21069034,-0.6703608600000001,-48.56964966
6.82,682,-0.037000000000000005,-1.031,-0.222,12.2040054,8.59437,10.599723,83.33101152,-0.76776372,-48.47224680000001
6.83,683,-0.078,-1.036,-0.226,12.7196676,9.969469199999999,8.59437,83.45706228,-0.8422482600000001,-48.36338478
6.84,684,-0.133,-1.013,-0.208,11.0580894,9.224623800000002,8.136003599999999,83.50289891999998,-1.0026765,-48.26598192
6.85,685,-0.185,-0.982,-0.151,11.229976800000001,6.6463128000000005,8.7089616,83.61176094,-1.08289062,-48.1857678
6.86,686,-0.213,-0.982,-0.098,12.032117999999999,8.250595200000001,8.5370742,83.73208212,-1.16310474,-48.09409452
6.87,687,-0.212,-0.998,-0.075,10.1413566,14.152062599999999,7.906820400000001,83.82948498,-1.22613012,-47.94512544000001
6.88,688,-0.193,-1.012,-0.077,6.130650599999999,21.8869956,6.6463128000000005,83.88678078000002,-1.27769634,-47.72167182000001
6.89,689,-0.185,-1.023,-0.08800000000000001,3.0939732,28.6479,4.5263682,83.90396952,-1.3750992,-47.43519282
6.9,690,-0.152,-1.028,-0.095,2.291832,31.627281600000003,3.3231564,83.91542868,-1.38082878,-47.12006592
6.91,691,-0.123,-1.024,-0.098,2.0053530000000004,30.5959572,3.9534102,83.92115826,-1.39801752,-46.8106686
6.92,692,-0.07400000000000001,-1.02,-0.112,1.4896908000000002,26.41336380000001,6.5317212,83.92688783999998,-1.43812458,-46.54710792
6.93,693,-0.026,-1.011,-0.106,1.145916,19.9962342,9.797581800000001,83.93261742,-1.52406828,-46.34084304
6.9399999999999995,694,0.003,-1.008,-0.078,1.432395,13.8655836,12.318597,83.95553574,-1.59855282,-46.18614438
6.95,695,0.025,-1.025,-0.057,1.7188740000000002,8.078707799999998,13.5791046,83.9669949,-1.73033316,-46.0944711
6.96,696,0.019,-1.055,-0.041,1.145916,2.8074942000000003,13.5791046,83.97845406,-1.8621135,-46.05436404
6.97,697,0.002,-1.077,-0.028,1.432395,-0.572958,12.7196676,83.9956428,-1.98816426,-46.04863446
6.9799999999999995,698,-0.029,-1.086,-0.026,2.2345362,-3.151269,11.229976800000001,84.01856111999999,-2.09702628,-46.0658232
6.99,699,-0.076,-1.083,-0.031,3.5523396000000003,-6.016058999999999,9.3965112,84.09877524000002,-2.2345362,-46.11738942
7.0,700,-0.116,-1.073,-0.045,4.4117766,-9.3965112,7.6203414,84.14461188,-2.3147503200000004,-46.19760354
7.01,701,-0.138,-1.054,-0.066,4.4117766,-11.8029348,6.703608600000001,84.1961781,-2.38923486,-46.30646556000001
7.02,702,-0.152,-1.036,-0.084,4.583664,-13.464512999999998,6.417129599999999,84.25347389999997,-2.4637194,-46.43251632
7.03,703,-0.162,-1.027,-0.096,4.6982556,-14.0947668,7.0473834,84.30504012,-2.54393352,-46.56429666
7.04,704,-0.168,-1.017,-0.103,5.0993262,-14.610429000000002,8.479778399999999,84.35087675999998,-2.71009134,-46.70180658
7.05,705,-0.183,-1.005,-0.103,6.0733548,-14.610429000000002,10.313244,84.41963172,-2.82468294,-46.83358692
7.06,706,-0.2,-0.982,-0.094,7.2765666,-13.980175199999998,11.9748222,84.50557542,-2.9507337,-46.95963768
7.07,707,-0.211,-0.954,-0.084,8.7089616,-12.4904844,13.2353298,84.60297828,-3.08824362,-47.07422928
7.08,708,-0.217,-0.928,-0.079,9.797581800000001,-10.886202,13.407217200000002,84.70611072,-3.2314831199999987,-47.16590255999999
7.09,709,-0.219,-0.908,-0.066,11.172681,-9.6256944,12.891555,84.8264319,-3.4492071599999994,-47.25184625999999
7.1,710,-0.214,-0.895,-0.049,12.7196676,-8.250595200000001,11.917526400000002,84.96394182,-3.57525792,-47.32060122
7.11,711,-0.212,-0.878,-0.03,14.4385416,-6.3598338,10.5424272,85.1129109,-3.67839036,-47.37216744000001
7.12,712,-0.215,-0.87,-0.005,16.157415599999997,-3.2658606,8.7089616,85.27906872,-3.76433406,-47.39508576
7.13,713,-0.215,-0.875,0.005,16.7876694,1.145916,6.016058999999999,85.45095612,-3.82735944,-47.37789702
7.14,714,-0.209,-0.887,0.0,16.959556799999998,5.6149884000000005,2.578311,85.64003226,-3.93622146,-47.32060122
7.15,715,-0.187,-0.894,-0.014,17.6471064,9.5111028,-2.0626488000000003,85.81191966,-3.90757356,-47.22319836000001
7.16,716,-0.156,-0.9,-0.034,17.8762896,12.7769634,-6.703608600000001,85.98380705999998,-3.83308902,-47.09714760000001
7.17,717,-0.128,-0.924,-0.067,16.042824000000003,14.266654199999998,-10.599723,86.13850572,-3.724227,-46.96536726
7.18,718,-0.099,-0.975,-0.099,12.605076,16.272007199999994,-13.407217200000002,86.25309732000002,-3.5809875,-46.8106686
7.1899999999999995,719,-0.057,-1.04,-0.093,11.1153852,19.194093,-14.896907999999998,86.33904102,-3.4148296799999995,-46.62732204
7.2,720,0.002,-1.109,-0.073,11.45916,21.1421502,-14.610429000000002,86.43644388,-3.26013102,-46.42678674
7.21,721,0.058,-1.173,-0.063,10.7716104,17.761698000000006,-12.5477802,86.53384674,-3.12835068,-46.25489934
7.22,722,0.097,-1.215,-0.063,8.4224826,9.969469199999999,-8.021412000000002,86.61406086000002,-3.04813656,-46.15749648
7.2299999999999995,723,0.109,-1.199,-0.058,8.651665800000002,0.3437748,-1.7188740000000002,86.70573413999998,-3.03094782,-46.15749648
7.24,724,0.092,-1.129,-0.041,13.0634424,-9.224623800000002,2.1772404,86.84324405999998,-2.9793816000000004,-46.24344018
7.25,725,0.058,-1.0490000000000002,-0.028,15.6990492,-15.0687954,2.86479,87.00940188,-3.0080295,-46.39240926
7.26,726,0.015,-0.977,-0.014,15.756345000000001,-18.907614000000002,1.145916,87.18128928,-3.02521824,-46.57575582
7.27,727,-0.036000000000000004,-0.927,0.006999999999999999,14.896907999999998,-20.798375399999998,-1.3178034,87.3474471,-3.0137590800000003,-46.78202069999999
7.28,728,-0.084,-0.914,0.024,13.8082878,-20.511896399999998,-3.3231564,87.50214575999998,-2.98511118,-46.982556
7.29,729,-0.123,-0.928,0.03,12.4904844,-18.7930224,-4.010706000000001,87.66830358,-2.99084076,-47.17163214
7.3,730,-0.14300000000000002,-0.961,0.019,11.172681,-15.756345000000001,-3.6669312000000014,87.78862475999998,-2.9507337,-47.3263308
7.31,731,-0.147,-0.997,0.001,10.026765,-12.4331886,-2.5210152000000003,87.89748678,-2.92781538,-47.45238156
7.32,732,-0.138,-1.022,-0.019,9.1100322,-8.880849000000003,-1.2605076000000002,88.00061922,-2.91635622,-47.53832526000001
7.33,733,-0.115,-1.022,-0.037000000000000005,8.193299399999999,-6.4744254,0.1718874,88.08656292,-2.91635622,-47.60135064
7.34,734,-0.086,-1.011,-0.05,7.5630456000000015,-4.583664,1.2605076000000002,88.10375166,-2.9564632800000004,-47.6414577
7.35,735,-0.058,-0.997,-0.061,6.5317212,-2.8074942000000003,1.8334656000000005,88.17250662000002,-2.9736520200000003,-47.67010560000001
7.36,736,-0.046,-0.983,-0.07,5.844171599999999,-2.0053530000000004,1.7188740000000002,88.22980242,-2.99084076,-47.68729434
7.37,737,-0.04,-0.977,-0.07200000000000001,5.2712136,-1.0886202,1.0313244,88.28709822,-3.00229992,-47.698753499999995
7.38,738,-0.038,-0.983,-0.078,4.5263682,0.0,-0.1718874,88.33293486,-2.9965703400000003,-47.698753499999995
7.39,739,-0.036000000000000004,-0.991,-0.07400000000000001,4.0680017999999984,0.4010706,-1.6042823999999998,88.20115452,-2.92781538,-47.68729434
7.4,740,-0.032,-1.003,-0.068,3.8961144,0.057295800000000015,-2.6356068,88.24126158,-2.89916748,-47.68729434
7.41,741,-0.03,-1.011,-0.062,3.2085648,-1.0886202,-3.3231564,88.27563906,-2.86479,-47.698753499999995
7.42,742,-0.033,-1.01,-0.052000000000000005,2.6356068,-2.6929026,-3.7815227999999994,88.30428696,-2.82468294,-47.72740140000001
7.43,743,-0.044,-1.003,-0.045,2.3491278,-4.010706000000001,-4.010706000000001,88.32720528,-2.78457588,-47.76750846
7.4399999999999995,744,-0.056,-0.997,-0.04,2.578311,-3.6669312000000014,-4.2398892,88.30428696,-2.76165756,-47.80188594
7.45,745,-0.065,-0.992,-0.03,3.0366774,-1.8907613999999997,-4.3544808,88.33866443999996,-2.71582092,-47.82480425999999
7.46,746,-0.071,-0.993,-0.02,3.4950437999999995,0.3437748,-4.4690724,88.37304191999998,-2.6699842800000004,-47.81907468
7.47,747,-0.069,-0.997,-0.011,3.724227,3.2085648,-4.5263682,88.40741940000002,-2.62414764,-47.79042678
7.4799999999999995,748,-0.068,-1.007,-0.002,3.7815227999999994,6.016058999999999,-4.1252976000000015,88.44179688,-2.58404058,-47.72740140000001
7.49,749,-0.07,-1.018,-0.001,3.4377480000000005,7.6776372,-3.380452200000001,88.47617436,-2.57258142,-47.65291686
7.5,750,-0.075,-1.028,-0.001,2.9793816000000004,8.8235532,-2.7501984,88.49909268,-2.5496631,-47.56697316
7.51,751,-0.07400000000000001,-1.04,-0.001,2.9220857999999996,9.8548776,-2.2345362,88.52774058,-2.52674478,-47.4695703
7.52,752,-0.068,-1.0490000000000002,-0.003,2.9220857999999996,10.886202,-1.8334656000000005,88.5506589,-2.50382646,-47.36070828
7.53,753,-0.054000000000000006,-1.048,-0.005,2.6929026,11.3445684,-1.432395,88.56784764,-2.4923673,-47.25184625999999
7.54,754,-0.04,-1.035,-0.012,2.6356068,10.886202,-1.145916,88.57357721999998,-2.4637194,-47.14298424
7.55,755,-0.031,-1.02,-0.019,2.4637194,9.6256944,-0.8021411999999999,88.59076596,-2.45226024,-47.04558138
7.56,756,-0.021,-1.002,-0.024,2.1199446,8.078707799999998,-0.7448454000000001,88.60795470000002,-2.44653066,-46.96536726
7.57,757,-0.02,-0.993,-0.025,1.6042823999999998,6.760904399999999,-0.9740286,88.62514344,-2.4350715000000003,-46.8966123
7.58,758,-0.023,-0.989,-0.021,1.0313244,5.6149884000000005,-1.145916,88.63087302,-2.42361234,-46.84504608
7.59,759,-0.033,-0.985,-0.021,0.5156622000000001,4.9274388,-1.2605076000000002,88.57930680000004,-2.39496444,-46.79347986
7.6,760,-0.046,-0.99,-0.024,0.4010706,5.042030400000002,-1.0313244,88.57930680000004,-2.38350528,-46.74191363999999
7.61,761,-0.062,-0.995,-0.027000000000000003,0.286479,5.3285094000000015,-0.9167328,88.57930680000004,-2.3777757,-46.69034742
7.62,762,-0.075,-1.004,-0.021,0.1718874,5.72958,-0.9167328,88.57930680000004,-2.36631654,-46.63305162
7.63,763,-0.083,-1.009,-0.017,0.2291832000000001,5.9014674000000005,-0.8594370000000001,88.57930680000004,-2.36058696,-46.57575582
7.64,764,-0.085,-1.008,-0.015,0.3437748,6.417129599999999,-1.0886202,88.5506589,-2.42934192,-46.51273044
7.65,765,-0.081,-1.003,-0.013,0.572958,7.906820400000001,-1.145916,88.5506589,-2.41788276,-46.43251632
7.66,766,-0.067,-1.003,-0.018000000000000002,1.0313244,9.8548776,-1.3750992,88.55638848,-2.4064236,-46.33511346
7.67,767,-0.05,-1.012,-0.014,1.0886202,11.688343199999998,-1.6615782,88.56211806,-2.38923486,-46.22052186000001
7.68,768,-0.04,-1.015,-0.009000000000000001,0.572958,11.917526400000002,-1.7188740000000002,88.56211806,-2.37204612,-46.10593026
7.6899999999999995,769,-0.043,-1.01,-0.011,0.0,10.4851314,-1.432395,88.53919973999999,-2.35485738,-45.99706824
7.7,770,-0.045,-0.999,-0.013,-0.4583664000000001,9.6829902,-0.8594370000000001,88.52774058,-2.3491277999999998,-45.90539496
7.71,771,-0.043,-0.993,-0.015,-0.8021411999999999,9.797581800000001,-0.4583664000000001,88.51628142,-2.34339822,-45.8079921
7.72,772,-0.048,-0.991,-0.016,-0.4583664000000001,9.0527364,-0.1718874,88.50482226,-2.34339822,-45.71631882
7.7299999999999995,773,-0.046,-0.999,-0.021,0.286479,8.4224826,-0.4583664000000001,88.50482226,-2.3376686399999995,-45.6361047
7.74,774,-0.04,-1.01,-0.021,0.6302538000000001,8.136003599999999,-0.6302538000000001,88.47617436,-2.3204799,-45.550161
7.75,775,-0.033,-1.012,-0.021,0.5156622000000001,7.7349330000000025,-0.7448454000000001,88.47617436,-2.30902074,-45.47567646
7.76,776,-0.027000000000000003,-1.01,-0.02,0.6302538000000001,7.6776372,-0.6302538000000001,88.48190394,-2.30329116,-45.40119192
7.77,777,-0.026,-1.008,-0.021,0.8594370000000001,7.6203414,-0.572958,88.48763352,-2.29756158,-45.3209778
7.78,778,-0.028,-1.003,-0.02,0.8594370000000001,7.3911582,-0.5156622000000001,88.4933631,-2.2918320000000003,-45.24649326
7.79,779,-0.028,-1.001,-0.018000000000000002,0.6875496,7.2192707999999985,-0.3437748,88.45898561999998,-2.25745452,-45.17200872
7.8,780,-0.029,-1.003,-0.018000000000000002,0.5156622000000001,6.589017,-0.11459160000000004,88.4647152,-2.25745452,-45.10898334
7.81,781,-0.029,-1.003,-0.017,0.5156622000000001,6.0733548,0.0,88.4647152,-2.25745452,-45.04595796
7.82,782,-0.03,-1.005,-0.018000000000000002,0.6302538000000001,5.5576926,0.1718874,88.47044478000002,-2.25745452,-44.99439174
7.83,783,-0.027000000000000003,-1.004,-0.016,0.8021411999999999,4.8701430000000006,0.2291832000000001,88.47617436,-2.25745452,-44.94282552
7.84,784,-0.025,-1.004,-0.014,1.0313244,4.010706000000001,0.3437748,88.45325604000001,-2.2058883,-44.90271846
7.85,785,-0.024,-1.005,-0.012,1.0886202,3.0366774,0.11459160000000004,88.4647152,-2.2058883,-44.868340980000006
7.86,786,-0.02,-1.003,-0.012,1.0313244,2.1199446,0.0,88.47617436,-2.2058883,-44.84542266
7.87,787,-0.016,-1.003,-0.009000000000000001,1.145916,1.3178034,-0.1718874,88.48190394,-2.2058883,-44.8339635
7.88,788,-0.014,-1.003,-0.006,1.145916,0.4583664000000001,-0.4010706,88.4933631,-2.20015872,-44.82823392
7.89,789,-0.014,-1.006,-0.005,1.145916,-0.3437748,-0.4010706,88.4933631,-2.01681216,-44.82250434
7.9,790,-0.015,-1.007,-0.002,0.9167328,-0.9740286,-0.286479,88.50482226,-2.01108258,-44.82823392
7.91,791,-0.016,-1.009,-0.002,0.8021411999999999,-1.7188740000000002,-0.057295800000000015,88.51628142,-2.01108258,-44.84542266
7.92,792,-0.018000000000000002,-1.012,-0.004,0.6875496,-2.4637194,0.057295800000000015,88.52201099999998,-2.01108258,-44.87407056
7.93,793,-0.02,-1.016,-0.008,0.7448454000000001,-3.3231564,0.286479,88.53347016000002,-2.01681216,-44.90844804
7.94,794,-0.024,-1.017,-0.008,0.8594370000000001,-3.9534102,0.3437748,88.52774058,-1.98243468,-44.94282552
7.95,795,-0.024,-1.016,-0.009000000000000001,1.0886202,-4.1252976000000015,0.286479,88.54492932000002,-1.98243468,-44.98293258
7.96,796,-0.025,-1.011,-0.009000000000000001,1.432395,-4.4690724,0.2291832000000001,88.56211806,-1.98816426,-45.02876922
7.97,797,-0.028,-1.004,-0.01,1.7188740000000002,-5.0993262,0.1718874,88.57930680000004,-1.98816426,-45.08033544
7.9799999999999995,798,-0.03,-1.0,-0.011,1.7188740000000002,-5.3858052,0.1718874,88.60222512,-1.98816426,-45.13190166
7.99,799,-0.027000000000000003,-0.996,-0.012,1.6615782,-5.3858052,0.1718874,88.59649553999998,-1.9595163600000003,-45.18346788
8.0,800,-0.025,-0.993,-0.012,1.5469866,-5.2139178,0.1718874,88.61368428,-1.96524594,-45.23503409999999
8.01,801,-0.025,-0.995,-0.01,1.6042823999999998,-5.1566220000000005,0.11459160000000004,88.63660259999996,-1.96524594,-45.28660032
8.02,802,-0.03,-0.995,-0.006,1.5469866,-5.0993262,0.0,88.65379134000001,-1.96524594,-45.33816654
8.03,803,-0.036000000000000004,-0.997,-0.006999999999999999,1.3178034,-4.8128472,0.0,88.67098008,-1.96524594,-45.38400318
8.04,804,-0.041,-0.999,-0.006999999999999999,1.3178034,-4.583664,0.057295800000000015,88.6652505,-1.9767051,-45.42983982
8.05,805,-0.048,-1.002,-0.006,1.6042823999999998,-4.3544808,0.0,88.68243924,-1.9767051,-45.47567646
8.06,806,-0.052000000000000005,-1.006,-0.006,2.0626488000000003,-3.8388186,-0.057295800000000015,88.70535756,-1.9767051,-45.51005394
8.07,807,-0.051,-1.009,-0.008,2.4064236,-3.0366774,-0.057295800000000015,88.73400546,-1.9767051,-45.54443142
8.08,808,-0.046,-1.007,-0.009000000000000001,2.4637194,-2.0626488000000003,-0.057295800000000015,88.76265336,-1.9767051,-45.56162016
8.09,809,-0.038,-1.004,-0.008,2.6356068,-1.432395,0.0,88.75692378,-1.9595163600000003,-45.5788089
8.1,810,-0.031,-1.002,-0.005,2.6356068,-1.145916,0.1718874,88.78557168,-1.9595163600000003,-45.59026806
8.11,811,-0.028,-1.001,-0.005,2.3491278,-1.432395,0.1718874,88.80848999999998,-1.96524594,-45.60172722
8.12,812,-0.028,-1.001,-0.006999999999999999,2.0053530000000004,-1.8907613999999997,0.11459160000000004,88.83140832000002,-1.96524594,-45.61891596
8.13,813,-0.034,-1.003,-0.01,1.432395,-2.291832,0.11459160000000004,88.84859706,-1.96524594,-45.64183428
8.14,814,-0.04,-1.006,-0.014,1.2605076000000002,-2.1772404,0.1718874,88.79130126,-1.97097552,-45.67048218
8.15,815,-0.042,-1.018,-0.012,1.2605076000000002,-1.8334656000000005,0.2291832000000001,88.80276042,-1.9767051,-45.68767092
8.16,816,-0.043,-1.027,-0.005,1.0313244,-2.0053530000000004,0.3437748,88.81421958,-1.9767051,-45.70485966
8.17,817,-0.044,-1.025,0.0,1.0313244,-2.7501984,0.2291832000000001,88.82567874,-1.98243468,-45.73350756000001
8.18,818,-0.044,-1.015,0.005,1.0886202,-3.2085648,0.1718874,88.84286748000002,-1.98243468,-45.76788504
8.19,819,-0.041,-1.007,0.001,0.572958,-2.1772404,0.0,88.8371379,-1.99389384,-45.79080336
8.2,820,-0.039,-1.0,0.0,0.11459160000000004,-0.8021411999999999,-0.057295800000000015,88.8371379,-1.98816426,-45.79653294000001
8.209999999999999,821,-0.038,-1.001,-0.002,0.286479,-0.286479,-0.057295800000000015,88.84286748000002,-1.98816426,-45.80226252
8.22,822,-0.038,-1.008,-0.009000000000000001,0.1718874,-0.2291832000000001,0.0,88.84286748000002,-1.98816426,-45.80226252
8.23,823,-0.038,-1.012,-0.012,-0.11459160000000004,-0.4583664000000001,0.286479,88.84286748000002,-1.99389384,-45.8079921
8.24,824,-0.037000000000000005,-1.009,-0.012,-0.4010706,-1.0886202,0.3437748,88.75692378,-1.98816426,-45.81945126
8.25,825,-0.038,-1.007,-0.014,-0.6302538000000001,-1.4896908000000002,0.4010706,88.7511942,-1.98816426,-45.83664
8.26,826,-0.041,-1.009,-0.017,-0.6302538000000001,-1.7761698,0.286479,88.74546462,-1.99389384,-45.85382874
8.27,827,-0.044,-1.01,-0.014,-0.5156622000000001,-1.6615782,-0.057295800000000015,88.73973504,-1.99389384,-45.87101748
8.28,828,-0.047,-1.012,-0.008,-0.572958,-1.0886202,-0.3437748,88.73400546,-1.98816426,-45.88247663999999
8.29,829,-0.049,-1.014,-0.006,-0.6302538000000001,-0.4583664000000001,-0.5156622000000001,88.68816882,-2.05691922,-45.893935799999994
8.3,830,-0.05,-1.013,-0.004,-0.8594370000000001,0.0,-0.5156622000000001,88.68243924,-2.05118964,-45.893935799999994
8.31,831,-0.049,-1.013,-0.002,-1.0886202,0.286479,-0.4583664000000001,88.67098008,-2.04546006,-45.893935799999994
8.32,832,-0.048,-1.012,-0.003,-1.0886202,0.4010706,-0.11459160000000004,88.65952092,-2.04546006,-45.88820622
8.33,833,-0.047,-1.009,-0.004,-1.2032118,0.9167328,0.0,88.64806175999998,-2.04546006,-45.87674706
8.34,834,-0.046,-1.007,-0.008,-1.0886202,1.3178034,0.0,88.60795470000002,-2.06837838,-45.87101748
8.35,835,-0.046,-1.007,-0.006,-1.145916,1.3750992,-0.1718874,88.59076596,-2.06837838,-45.85382874
8.36,836,-0.046,-1.007,-0.004,-1.2605076000000002,1.3178034,-0.2291832000000001,88.57930680000004,-2.0626488000000003,-45.84236958
8.37,837,-0.045,-1.01,-0.002,-1.3178034,1.2605076000000002,-0.286479,88.56211806,-2.0626488000000003,-45.83091042
8.38,838,-0.043,-1.013,-0.001,-1.432395,1.3178034,-0.3437748,88.5506589,-2.05691922,-45.81945126
8.39,839,-0.039,-1.014,0.0,-1.432395,1.5469866,-0.2291832000000001,88.53347016000002,-2.04546006,-45.80226252
8.4,840,-0.037000000000000005,-1.013,-0.001,-1.3750992,1.6042823999999998,-0.11459160000000004,88.52201099999998,-2.04546006,-45.78507378
8.41,841,-0.037000000000000005,-1.015,0.0,-1.2032118,1.6615782,0.057295800000000015,88.50482226,-2.04546006,-45.76788504
8.42,842,-0.037000000000000005,-1.013,-0.002,-1.0886202,1.5469866,0.4010706,88.4933631,-2.05118964,-45.7506963
8.43,843,-0.037000000000000005,-1.009,-0.004,-1.0313244,1.2605076000000002,0.6302538000000001,88.48190394,-2.05691922,-45.73923714
8.44,844,-0.037000000000000005,-1.006,-0.006,-0.8594370000000001,0.6875496,0.7448454000000001,88.45325604000001,-2.05118964,-45.73350756000001
8.45,845,-0.038,-1.005,-0.008,-0.7448454000000001,0.1718874,0.8021411999999999,88.44179688,-2.0626488000000003,-45.72777798
8.459999999999999,846,-0.038,-1.004,-0.008,-0.6302538000000001,-0.4010706,0.8021411999999999,88.43606729999998,-2.06837838,-45.73350756000001
8.47,847,-0.038,-1.003,-0.005,-0.6875496,-0.8594370000000001,0.8021411999999999,88.43033772,-2.07983754,-45.74496672
8.48,848,-0.036000000000000004,-1.0,-0.003,-0.9740286,-1.145916,0.6875496,88.41887856000002,-2.08556712,-45.75642588
8.49,849,-0.036000000000000004,-0.999,-0.005,-1.145916,-1.3178034,0.4010706,88.40741940000002,-2.07983754,-45.76788504
8.5,850,-0.038,-1.0,-0.006,-1.2032118,-1.6042823999999998,0.2291832000000001,88.39596024,-2.07983754,-45.78507378
8.51,851,-0.04,-1.001,-0.006,-1.0886202,-1.7188740000000002,0.1718874,88.38450107999998,-2.08556712,-45.80226252
8.52,852,-0.042,-1.001,-0.006999999999999999,-0.8594370000000001,-1.7761698,0.1718874,88.3787715,-2.08556712,-45.81945126
8.53,853,-0.044,-1.001,-0.006999999999999999,-0.572958,-2.0626488000000003,0.2291832000000001,88.37304191999998,-2.08556712,-45.83664
8.54,854,-0.045,-0.999,-0.006,-0.4583664000000001,-2.0626488000000003,0.2291832000000001,88.36731234,-2.10848544,-45.85955832
8.55,855,-0.047,-0.996,-0.006999999999999999,-0.4010706,-1.8334656000000005,0.11459160000000004,88.36158276,-2.10848544,-45.88247663999999
8.56,856,-0.048,-0.997,-0.011,-0.286479,-1.2605076000000002,0.0,88.36158276,-2.10848544,-45.893935799999994
8.57,857,-0.047,-1.0,-0.014,-0.057295800000000015,-0.9167328,0.0,88.36158276,-2.10848544,-45.89966538
8.58,858,-0.046,-1.006,-0.012,-0.057295800000000015,-0.9167328,0.0,88.35585318,-2.10848544,-45.91112454
8.59,859,-0.044,-1.007,-0.008,0.11459160000000004,-1.6042823999999998,0.0,88.36158276,-2.1199446,-45.92831328
8.6,860,-0.042,-1.006,-0.005,0.4583664000000001,-2.3491278,0.0,88.36731234,-2.1199446,-45.9512316
8.61,861,-0.04,-1.004,-0.004,0.3437748,-2.291832,0.0,88.36731234,-2.1199446,-45.97414992
8.62,862,-0.04,-1.001,-0.006,0.4583664000000001,-1.5469866,0.0,88.37304191999998,-2.1199446,-45.99133866
8.63,863,-0.04,-1.004,-0.004,0.6875496,-0.6302538000000001,0.1718874,88.38450107999998,-2.12567418,-45.99706824
8.64,864,-0.042,-1.008,0.0,0.8021411999999999,-0.9167328,0.286479,88.43033772,-2.13140376,-46.0085274
8.65,865,-0.045,-1.005,0.002,0.5156622000000001,-2.2345362,0.1718874,88.43606729999998,-2.13140376,-46.03144572000001
8.66,866,-0.047,-1.001,0.003,0.3437748,-3.2085648,0.057295800000000015,88.44179688,-2.13140376,-46.06009362
8.67,867,-0.045,-1.003,0.0,-0.1718874,-2.4637194,-0.11459160000000004,88.44179688,-2.13140376,-46.08301193999999
8.68,868,-0.042,-1.005,-0.006,-0.572958,-1.6042823999999998,-0.4010706,88.43606729999998,-2.12567418,-46.10020067999999
8.69,869,-0.04,-1.007,-0.005,-0.3437748,-1.3750992,-0.572958,88.43033772,-2.1199446,-46.11738942
8.7,870,-0.041,-1.011,-0.01,-0.1718874,-1.432395,-0.572958,88.42460814,-2.10848544,-46.12884858
8.71,871,-0.041,-1.012,-0.01,0.0,-1.7761698,-0.5156622000000001,88.43033772,-2.10848544,-46.14603732
8.72,872,-0.04,-1.011,-0.011,0.057295800000000015,-2.5210152000000003,-0.4010706,88.43033772,-2.10275586,-46.17468522
8.73,873,-0.039,-1.008,-0.011,0.0,-2.86479,-0.4010706,88.43033772,-2.09702628,-46.20333312
8.74,874,-0.038,-1.004,-0.011,-0.057295800000000015,-2.9793816000000004,-0.4010706,88.41887856000002,-2.08556712,-46.231981020000006
8.75,875,-0.04,-1.003,-0.012,-0.057295800000000015,-2.6929026,-0.3437748,88.41887856000002,-2.07983754,-46.26062892
8.76,876,-0.041,-1.004,-0.012,0.0,-2.5210152000000003,-0.286479,88.41887856000002,-2.07983754,-46.28354724
8.77,877,-0.045,-1.006,-0.011,-0.057295800000000015,-2.6356068,-0.1718874,88.41887856000002,-2.07983754,-46.31219514
8.78,878,-0.045,-1.006,-0.006999999999999999,-0.2291832000000001,-2.4637194,-0.057295800000000015,88.41887856000002,-2.07410796,-46.33511346
8.79,879,-0.047,-1.007,-0.005,-0.11459160000000004,-2.1772404,0.0,88.41887856000002,-2.10848544,-46.35803177999999
8.8,880,-0.048,-1.011,-0.004,-0.2291832000000001,-1.5469866,0.0,88.41887856000002,-2.10848544,-46.37522052
8.81,881,-0.047,-1.01,-0.006,-0.2291832000000001,-0.9167328,0.0,88.41314897999996,-2.10848544,-46.38667968
8.82,882,-0.046,-1.012,-0.006,-0.057295800000000015,-0.8021411999999999,0.0,88.41314897999996,-2.10848544,-46.39240926
8.83,883,-0.045,-1.011,-0.008,0.057295800000000015,-1.2032118,0.0,88.41314897999996,-2.10848544,-46.40386842
8.84,884,-0.044,-1.009,-0.008,0.0,-1.6615782,0.0,88.39596024,-2.11421502,-46.42105716
8.85,885,-0.041,-1.006,-0.011,-0.057295800000000015,-1.7761698,-0.057295800000000015,88.39596024,-2.10848544,-46.43824590000001
8.86,886,-0.038,-1.004,-0.012,-0.1718874,-1.7188740000000002,-0.057295800000000015,88.39596024,-2.10848544,-46.46116422
8.87,887,-0.035,-1.002,-0.013,-0.1718874,-1.7761698,-0.11459160000000004,88.39596024,-2.10848544,-46.47835296
8.88,888,-0.036000000000000004,-1.001,-0.011,-0.2291832000000001,-1.7761698,-0.057295800000000015,88.39596024,-2.10848544,-46.495541700000004
8.89,889,-0.038,-1.001,-0.009000000000000001,-0.11459160000000004,-1.7761698,0.057295800000000015,88.36158276,-2.10275586,-46.51273044
8.9,890,-0.043,-1.003,-0.012,-0.057295800000000015,-2.0626488000000003,0.2291832000000001,88.36158276,-2.10848544,-46.52991918
8.91,891,-0.048,-1.005,-0.01,0.0,-2.1199446,0.3437748,88.36158276,-2.11421502,-46.5528375
