TimeStamp(s),FrameCounter,AccX,AccY,AccZ,GyrX,GyrY,GyrZ,EulerX,EulerY,EulerZ
0.01,1,-0.025,-0.957,0.327,-2.1772404,0.4010706,0.0,107.22908970000002,-1.1688343199999998,-47.08568844
0.020000000000000004,2,-0.02,-0.957,0.324,-2.1199446,0.1718874,0.0,107.20617138,-1.1688343199999998,-47.08568844
0.030000000000000006,3,-0.019,-0.956,0.325,-2.0626488000000003,-0.2291832000000001,0.11459160000000004,107.18898264,-1.1688343199999998,-47.08568844
0.04000000000000001,4,-0.019,-0.958,0.327,-2.1772404,-0.286479,0.0,107.16606432,-1.1688343199999998,-47.09141802
0.05000000000000001,5,-0.019,-0.958,0.325,-2.291832,-0.11459160000000004,-0.057295800000000015,107.16033474,-1.15164558,-47.09141802
0.06000000000000001,6,-0.021,-0.959,0.324,-2.4637194,0.0,-0.057295800000000015,107.13741642,-1.15164558,-47.09141802
0.07,7,-0.021,-0.964,0.324,-2.5210152000000003,-0.1718874,0.0,107.10876851999998,-1.15164558,-47.09714760000001
0.08,8,-0.022,-0.956,0.322,-2.86479,-0.3437748,0.0,107.08012062,-1.1459160000000002,-47.09714760000001
0.09000000000000001,9,-0.023,-0.957,0.32,-2.4637194,-0.572958,0.0,107.0572023,-1.1459160000000002,-47.10287718
0.10000000000000002,10,-0.023,-0.956,0.318,-2.3491278,-0.6875496,-0.057295800000000015,107.04001356,-1.14018642,-47.11433634000001
0.11000000000000001,11,-0.022,-0.958,0.324,-2.2345362,-0.5156622000000001,-0.057295800000000015,107.01709524,-1.13445684,-47.12006592
0.12000000000000001,12,-0.021,-0.952,0.322,-2.2345362,-0.286479,-0.11459160000000004,106.99417692,-1.13445684,-47.12006592
0.13000000000000003,13,-0.019,-0.953,0.32,-1.8334656000000005,0.0,-0.1718874,106.97698818,-1.13445684,-47.12006592
0.14000000000000004,14,-0.017,-0.958,0.319,-1.8907613999999997,0.0,-0.1718874,106.95406986,-1.12872726,-47.12006592
0.15000000000000002,15,-0.019,-0.96,0.319,-2.0626488000000003,-0.057295800000000015,-0.057295800000000015,106.95406986,-1.11153852,-47.12006592
0.16000000000000003,16,-0.019,-0.958,0.32,-1.8907613999999997,0.057295800000000015,-0.11459160000000004,106.93688112,-1.11153852,-47.12006592
0.17000000000000004,17,-0.019,-0.958,0.317,-1.8334656000000005,0.1718874,-0.1718874,106.9139628,-1.11153852,-47.12006592
0.18000000000000005,18,-0.018000000000000002,-0.961,0.318,-1.8907613999999997,0.1718874,-0.1718874,106.89677406,-1.11153852,-47.12006592
0.19000000000000006,19,-0.018000000000000002,-0.957,0.315,-1.8907613999999997,-0.057295800000000015,-0.1718874,106.87385574,-1.10580894,-47.12006592
0.20000000000000004,20,-0.02,-0.958,0.311,-1.5469866,-0.3437748,-0.286479,106.86812616,-1.09434978,-47.12006592
0.21000000000000005,21,-0.019,-0.959,0.316,-1.432395,-0.5156622000000001,-0.3437748,106.85093742,-1.0886202,-47.1257955
0.22000000000000006,22,-0.02,-0.959,0.319,-1.3750992,-0.3437748,-0.4010706,106.83947826,-1.08289062,-47.1257955
0.23000000000000004,23,-0.022,-0.957,0.316,-1.3178034,-0.2291832000000001,-0.4583664000000001,106.82228951999998,-1.07716104,-47.13152508
0.24000000000000005,24,-0.02,-0.958,0.313,-1.432395,-0.057295800000000015,-0.4010706,106.81083036,-1.07143146,-47.1257955
0.25000000000000006,25,-0.019,-0.961,0.311,-1.5469866,-0.286479,-0.286479,106.79364162,-1.05424272,-47.13152508
0.26000000000000006,26,-0.019,-0.959,0.313,-1.7188740000000002,-0.3437748,-0.2291832000000001,106.77645288,-1.04851314,-47.13725466
0.2700000000000001,27,-0.021,-0.958,0.312,0.057295800000000015,-0.286479,-0.1718874,106.77645288,-1.04851314,-47.13725466
0.2800000000000001,28,-0.021,-0.96,0.313,0.5156622000000001,-0.1718874,-0.1718874,106.78218246000002,-1.04278356,-47.13725466
0.29000000000000004,29,-0.021,-0.961,0.312,0.3437748,0.11459160000000004,-0.1718874,106.78791204,-1.04278356,-47.13725466
0.30000000000000004,30,-0.021,-0.958,0.31,0.3437748,0.1718874,-0.11459160000000004,106.78218246000002,-1.0255948199999998,-47.13725466
0.31000000000000005,31,-0.021,-0.959,0.31,0.572958,0.1718874,-0.11459160000000004,106.78791204,-1.0255948199999998,-47.13152508
0.32000000000000006,32,-0.02,-0.963,0.311,0.6302538000000001,0.1718874,-0.2291832000000001,106.79364162,-1.01986524,-47.13152508
0.33000000000000007,33,-0.02,-0.964,0.312,0.6875496,0.4010706,-0.2291832000000001,106.7993712,-1.01986524,-47.1257955
0.3400000000000001,34,-0.018000000000000002,-0.962,0.31,0.6302538000000001,0.4583664000000001,-0.4010706,106.80510078,-1.01986524,-47.12006592
0.3500000000000001,35,-0.02,-0.961,0.313,0.4583664000000001,0.0,-0.6302538000000001,106.8280191,-0.9969469199999998,-47.12006592
0.3600000000000001,36,-0.02,-0.96,0.313,0.1718874,-0.5156622000000001,-0.6875496,106.8280191,-0.98548776,-47.1257955
0.3700000000000001,37,-0.02,-0.961,0.312,0.11459160000000004,-0.6302538000000001,-0.5156622000000001,106.83374868,-0.97975818,-47.1257955
0.38000000000000006,38,-0.019,-0.964,0.315,0.057295800000000015,-0.4583664000000001,-0.286479,106.83374868,-0.9740286,-47.13152508
0.39000000000000007,39,-0.015,-0.962,0.315,-0.11459160000000004,0.0,-0.1718874,106.83374868,-0.9740286,-47.13152508
0.4000000000000001,40,-0.013,-0.965,0.315,0.0,0.1718874,0.0,106.86812616,-0.8422482600000001,-47.14298424
0.4100000000000001,41,-0.013,-0.968,0.313,-0.057295800000000015,0.0,0.11459160000000004,106.86812616,-0.8422482600000001,-47.14298424
0.4200000000000001,42,-0.017,-0.967,0.315,-0.11459160000000004,-0.11459160000000004,0.2291832000000001,106.86239658,-0.8422482600000001,-47.14298424
0.4300000000000001,43,-0.02,-0.964,0.316,-0.286479,-0.1718874,0.11459160000000004,106.86239658,-0.8479778399999999,-47.14871382
0.4400000000000001,44,-0.02,-0.963,0.317,-0.2291832000000001,0.11459160000000004,0.0,106.85666699999999,-0.8479778399999999,-47.14298424
0.45000000000000007,45,-0.016,-0.961,0.316,-0.4010706,0.3437748,0.0,106.86812616,-0.8250595199999999,-47.14298424
0.4600000000000001,46,-0.016,-0.959,0.315,-0.5156622000000001,0.1718874,-0.057295800000000015,106.86239658,-0.8250595199999999,-47.14298424
0.4700000000000001,47,-0.014,-0.958,0.315,-0.3437748,0.1718874,-0.057295800000000015,106.85666699999999,-0.8250595199999999,-47.13725466
0.4800000000000001,48,-0.013,-0.959,0.312,-0.2291832000000001,0.11459160000000004,-0.057295800000000015,106.85093742,-0.8250595199999999,-47.13725466
0.4900000000000001,49,-0.014,-0.963,0.312,-0.286479,0.057295800000000015,-0.057295800000000015,106.85093742,-0.8250595199999999,-47.13725466
0.5000000000000001,50,-0.015,-0.96,0.31,-0.3437748,0.11459160000000004,-0.057295800000000015,106.83947826,-0.79641162,-47.13725466
0.5100000000000001,51,-0.014,-0.961,0.309,-0.286479,0.057295800000000015,-0.057295800000000015,106.83947826,-0.79641162,-47.13725466
0.5200000000000001,52,-0.014,-0.962,0.31,-0.4583664000000001,0.0,0.0,106.83374868,-0.79641162,-47.13725466
0.5300000000000001,53,-0.016,-0.961,0.312,-0.572958,0.057295800000000015,0.0,106.8280191,-0.79641162,-47.13725466
0.5400000000000001,54,-0.017,-0.961,0.313,-0.5156622000000001,0.286479,-0.057295800000000015,106.82228951999998,-0.79641162,-47.13152508
0.5500000000000002,55,-0.018000000000000002,-0.965,0.313,-0.7448454000000001,0.3437748,-0.057295800000000015,106.81083036,-0.79641162,-47.13152508
0.5600000000000002,56,-0.016,-0.971,0.311,-1.0886202,0.4010706,-0.11459160000000004,106.7993712,-0.79641162,-47.1257955
0.5700000000000001,57,-0.015,-0.971,0.31,-1.432395,0.2291832000000001,0.0,106.78218246000002,-0.79641162,-47.12006592
0.5800000000000001,58,-0.013,-0.97,0.311,-1.3178034,0.0,0.0,106.7707233,-0.79641162,-47.12006592
0.5900000000000001,59,-0.015,-0.971,0.308,-1.6615782,-0.2291832000000001,0.0,106.75353456,-0.79641162,-47.1257955
0.6000000000000001,60,-0.015,-0.976,0.309,-2.0053530000000004,-0.3437748,-0.11459160000000004,106.73061624,-0.7906820400000001,-47.13152508
0.6100000000000001,61,-0.017,-0.977,0.321,-2.6929026,-0.2291832000000001,-0.286479,106.70196834,-0.7849524600000001,-47.13152508
0.6200000000000001,62,-0.018000000000000002,-0.973,0.321,-3.4377480000000005,0.3437748,-0.4010706,106.66759086,-0.7849524600000001,-47.1257955
0.6300000000000001,63,-0.013,-0.977,0.312,-4.1825934,1.145916,-0.572958,106.62175422,-0.7792228800000001,-47.11433634000001
0.6400000000000001,64,-0.01,-0.989,0.305,-5.3858052,1.3750992,-0.4010706,106.570188,-0.7849524600000001,-47.10287718
0.6500000000000001,65,-0.011,-0.99,0.304,-6.3025379999999975,0.8594370000000001,-0.057295800000000015,106.49570346,-0.7792228800000001,-47.09714760000001
0.6600000000000001,66,-0.015,-0.992,0.305,-6.875496000000001,0.4583664000000001,0.4010706,106.42694850000001,-0.7849524600000001,-47.09141802
0.6700000000000002,67,-0.014,-0.988,0.311,-7.6776372,0.2291832000000001,0.9740286,106.34673438,-0.79641162,-47.09141802
0.6800000000000002,68,-0.013,-0.977,0.305,-7.8495246,0.4583664000000001,0.5156622000000001,106.26652026,-0.8021412000000001,-47.09141802
0.6900000000000002,69,-0.013,-0.983,0.302,-8.078707799999998,0.6302538000000001,0.2291832000000001,106.18630614,-0.8078707799999998,-47.08568844
0.7000000000000002,70,-0.012,-0.986,0.302,-8.5370742,0.5156622000000001,0.11459160000000004,106.09463286,-0.8078707799999998,-47.08568844
0.7100000000000002,71,-0.016,-0.978,0.306,-8.880849000000003,0.3437748,-0.11459160000000004,106.00868916,-0.8078707799999998,-47.07995886000001
0.7200000000000002,72,-0.018000000000000002,-0.976,0.312,-8.880849000000003,0.286479,0.2291832000000001,105.91701588,-0.8136003599999999,-47.07995886000001
0.7300000000000002,73,-0.016,-0.968,0.31,-8.880849000000003,0.7448454000000001,0.1718874,105.8253426,-0.8193299399999999,-47.07422928
0.7400000000000001,74,-0.017,-0.967,0.297,-8.8235532,1.145916,0.0,105.73366932000002,-0.8193299399999999,-47.06277012
0.7500000000000001,75,-0.012,-0.971,0.293,-8.8235532,1.5469866,-0.2291832000000001,105.64772562,-0.8193299399999999,-47.05131096
0.7600000000000001,76,-0.011,-0.972,0.301,-9.3965112,1.4896908000000002,-0.3437748,105.55032276,-0.8193299399999999,-47.03412222
0.7700000000000001,77,-0.013,-0.971,0.3,-9.568398599999998,1.432395,-0.3437748,105.4529199,-0.8250595199999999,-47.02266306
0.7800000000000001,78,-0.013,-0.967,0.294,-9.969469199999999,1.0886202,-0.4583664000000001,105.34978746,-0.8193299399999999,-47.0112039
0.7900000000000001,79,-0.014,-0.972,0.293,-10.7716104,0.572958,-0.5156622000000001,105.24092544,-0.8193299399999999,-47.00547432000001
0.8000000000000002,80,-0.016,-0.972,0.28600000000000003,-11.0007936,0.6875496,-0.6302538000000001,105.12633384,-0.8136003599999999,-46.99974474
0.8100000000000002,81,-0.016,-0.979,0.28,-11.172681,0.8594370000000001,-0.6302538000000001,105.01747182,-0.8078707799999998,-46.98828558
0.8200000000000002,82,-0.019,-0.985,0.28300000000000003,-12.318597,0.8021411999999999,-0.572958,104.89142106,-0.8078707799999998,-46.982556
0.8300000000000002,83,-0.018000000000000002,-0.987,0.28300000000000003,-13.2926256,1.2032118,-0.7448454000000001,104.75391114,-0.8021412000000001,-46.97109684
0.8400000000000002,84,-0.015,-0.989,0.282,-13.9228794,1.4896908000000002,-0.8594370000000001,104.61067164,-0.8021412000000001,-46.9539081
0.8500000000000002,85,-0.013,-0.995,0.28300000000000003,-14.7823164,1.432395,-0.8594370000000001,104.46170256,-0.79641162,-46.94244894
0.8600000000000002,86,-0.016,-1.0,0.284,-15.9282324,1.0313244,-0.8021411999999999,104.30127432,-0.7906820400000001,-46.93098978
0.8700000000000002,87,-0.018000000000000002,-1.003,0.289,-17.0741484,0.7448454000000001,-0.9167328,104.12938692,-0.7849524600000001,-46.9252602
0.8800000000000002,88,-0.02,-1.002,0.29,-18.2773602,0.5156622000000001,-1.0886202,103.94031077999998,-0.7734933,-46.91953062
0.8900000000000001,89,-0.018000000000000002,-1.007,0.29600000000000004,-19.767051,0.7448454000000001,-1.3178034,103.73977548,-0.76776372,-46.90807146
0.9000000000000001,90,-0.015,-1.013,0.3,-21.829699800000004,1.2605076000000002,-1.2605076000000002,103.52205144,-0.75630456,-46.8966123
0.9100000000000001,91,-0.013,-1.018,0.29100000000000004,-24.4080108,1.2605076000000002,-0.8594370000000001,103.2756795,-0.75630456,-46.88515314
0.9200000000000002,92,-0.009000000000000001,-1.027,0.28,-26.2414764,0.8021411999999999,-0.7448454000000001,103.00638924,-0.75057498,-46.879423560000006
0.9300000000000002,93,-0.008,-1.04,0.28,-28.1322378,0.286479,-0.8594370000000001,102.72563982,-0.7448454000000001,-46.879423560000006
0.9400000000000002,94,-0.01,-1.044,0.29,-30.5959572,0.2291832000000001,-0.9167328,102.41051292,-0.73338624,-46.879423560000006
0.9500000000000002,95,-0.013,-1.027,0.297,-32.7731976,0.8594370000000001,-0.9740286,102.08392686,-0.72765666,-46.87369398
0.9600000000000002,96,-0.009000000000000001,-1.016,0.289,-33.9191136,0.9740286,-1.2032118,101.74015206,-0.72192708,-46.86223482000001
0.9700000000000002,97,-0.006999999999999999,-1.027,0.279,-35.6379876,0.4010706,-0.9167328,101.37918852,-0.7161975,-46.86223482000001
0.9800000000000002,98,-0.008,-1.041,0.266,-38.2162986,-0.1718874,-0.572958,100.98957708,-0.7104679199999999,-46.8679644
0.9900000000000002,99,-0.011,-1.038,0.266,-41.252976,-0.5156622000000001,-0.6302538000000001,100.57131774,-0.70473834,-46.879423560000006
1.0000000000000002,100,-0.01,-1.023,0.269,-43.48751220000001,-1.0886202,-0.7448454000000001,100.13586966,-0.69900876,-46.89088271999999
1.0100000000000002,101,-0.005,-1.022,0.265,-45.1490904,-1.6615782,-0.8021411999999999,99.67750326,-0.6875496,-46.91380104
1.0200000000000002,102,0.006,-1.033,0.259,-47.7846972,-2.6929026,-0.7448454000000001,99.19621854,-0.68182002,-46.94244894
1.0300000000000002,103,0.009000000000000001,-1.036,0.242,-50.5348956,-4.0680017999999984,-0.4583664000000001,98.68628592,-0.6703608600000001,-46.98828558
1.0400000000000003,104,0.008,-1.041,0.227,-52.597544400000004,-4.8128472,-0.11459160000000004,98.15343498,-0.66463128,-47.0398518
1.0500000000000003,105,0.008,-1.046,0.227,-54.717489,-5.2712136,0.1718874,97.6033953,-0.6589017,-47.10287718
1.0600000000000003,106,0.004,-1.03,0.233,-56.608250399999996,-6.130650599999999,0.3437748,97.0304373,-0.6589017,-47.16590255999999
1.0700000000000003,107,0.0,-1.016,0.233,-58.49901179999999,-7.7349330000000025,0.1718874,96.44029056,-0.65317212,-47.25184625999999
1.0800000000000003,108,0.001,-1.023,0.223,-60.332477399999995,-8.7089616,-0.057295800000000015,95.8272255,-0.64171296,-47.34351954
1.0900000000000003,109,0.005,-1.03,0.21600000000000005,-62.7961968,-9.453807000000001,-0.2291832000000001,95.19124212,-0.63598338,-47.44665198
1.1000000000000003,110,0.004,-1.027,0.198,-65.14532460000001,-9.6829902,-0.1718874,94.53807,-0.62452422,-47.54978442
1.1100000000000003,111,0.001,-1.029,0.171,-66.749607,-10.1413566,0.0,93.86197956,-0.61879464,-47.65291686
1.1200000000000003,112,-0.002,-1.03,0.173,-69.041439,-12.3758928,0.572958,93.1629708,-0.61879464,-47.7846972
1.1300000000000001,113,-0.013,-1.017,0.175,-71.21867940000001,-13.2926256,0.8594370000000001,92.4467733,-0.62452422,-47.927936700000004
1.1400000000000001,114,-0.016,-1.02,0.165,-73.51051140000001,-12.261301199999998,0.8594370000000001,91.70192790000002,-0.6302538000000001,-48.05398746
1.1500000000000001,115,-0.011,-1.026,0.183,-77.1201468,-11.4018642,0.9740286,90.92843459999999,-0.64171296,-48.18003822000001
1.1600000000000001,116,-0.003,-1.029,0.195,-80.1568242,-11.745639,1.4896908000000002,90.12056382,-0.6589017,-48.30608897999999
1.1700000000000002,117,-0.01,-1.028,0.183,-83.19350159999998,-12.4904844,2.1199446,89.27831556,-0.68182002,-48.43786932
1.1800000000000002,118,-0.024,-1.044,0.14800000000000002,-85.54262940000002,-10.4851314,1.8907613999999997,88.41314897999996,-0.7104679199999999,-48.55246092
1.1900000000000002,119,-0.035,-1.061,0.106,-88.7511942,-7.9641161999999985,1.8334656000000005,87.51360492,-0.73338624,-48.63840462
1.2000000000000002,120,-0.035,-1.065,0.086,-91.386801,-6.3598338,2.3491278,86.59687212,-0.76776372,-48.71288916
1.2100000000000002,121,-0.022,-1.061,0.08,-94.1942952,-5.042030400000002,2.9220857999999996,85.64003226,-0.8078707799999998,-48.77018496
1.2200000000000002,122,-0.013,-1.056,0.097,-96.0850566,-4.010706000000001,3.2658606,84.66600365999999,-0.8479778399999999,-48.8160216
1.2300000000000002,123,-0.018000000000000002,-1.01,0.149,-95.683986,-0.4010706,3.3231564,83.69197505999998,-0.89381448,-48.82748076
1.2400000000000002,124,-0.021,-1.005,0.13,-92.1889422,0.6302538000000001,3.0366774,82.75805352,-0.92819196,-48.82748076
1.2500000000000002,125,-0.016,-1.055,0.043,-96.25694399999999,-0.6875496,3.151269,81.7897545,-0.9740286,-48.83893992
1.2600000000000002,126,-0.02,-1.058,-0.003,-101.1843828,-1.8907613999999997,3.2658606,80.76415968,-1.01413566,-48.86185824
1.2700000000000002,127,-0.032,-1.069,-0.053,-103.4762148,-1.4896908000000002,3.380452200000001,79.70991696000002,-1.0599723,-48.88477656
1.2800000000000002,128,-0.065,-1.047,-0.055,-105.19508880000001,0.11459160000000004,3.8388186,78.64421508000002,-1.11153852,-48.88477656
1.2900000000000003,129,-0.07200000000000001,-1.022,-0.08,-103.8772854,2.6356068,4.4690724,77.58997236,-1.1573751600000002,-48.86185824
1.3000000000000003,130,-0.057,-1.008,-0.111,-102.3875946,3.4950437999999995,4.4690724,76.55291838000002,-1.20894138,-48.82748076
1.3100000000000003,131,-0.041,-1.027,-0.147,-100.0384668,2.6929026,3.380452200000001,75.53878272,-1.24331886,-48.79883286
1.3200000000000003,132,-0.019,-1.047,-0.171,-98.9498466,-1.432395,2.9793816000000004,74.53610622,-1.2891555000000001,-48.8160216
1.3300000000000003,133,0.003,-1.08,-0.236,-97.116381,-5.72958,3.0366774,73.55061846,-1.34072172,-48.8733174
1.3400000000000003,134,0.018000000000000002,-1.098,-0.334,-96.1996482,-6.417129599999999,3.151269,72.57658986,-1.39801752,-48.9306132
1.3500000000000003,135,0.027000000000000003,-1.111,-0.428,-93.8505204,-4.9274388,2.7501984,71.61975,-1.44958374,-48.97644984
1.3600000000000003,136,0.021,-1.107,-0.49,-90.6419556,-3.8961144,2.1199446,70.7030172,-1.4896908000000002,-49.0165569
1.3700000000000003,137,-0.002,-1.078,-0.49,-86.0009958,-3.2658606,1.7761698,69.83212104,-1.52979786,-49.04520480000001
1.3800000000000003,138,-0.045,-1.024,-0.502,-80.67248640000003,-3.380452200000001,1.5469866,69.0127911,-1.56417534,-49.07958228
1.3900000000000003,139,-0.067,-0.99,-0.521,-74.59913159999998,-4.010706000000001,0.9167328,68.25648654,-1.59282324,-49.11968934
1.4000000000000004,140,-0.058,-0.982,-0.52,-69.9581718,-3.6096354,0.6302538000000001,67.54028904,-1.62147114,-49.1597964
1.4100000000000004,141,-0.029,-0.993,-0.574,-66.6350154,-2.86479,0.8594370000000001,66.86419860000001,-1.65011904,-49.1884443
1.4200000000000004,142,-0.006,-1.004,-0.59,-62.16594300000001,-3.4950437999999995,1.9480572,66.2339448,-1.6844965200000002,-49.2170922
1.4300000000000004,143,0.002,-0.987,-0.6,-58.38442020000001,-4.4690724,3.4950437999999995,65.64379806000001,-1.74179232,-49.245740100000006
1.4400000000000004,144,0.006999999999999999,-0.952,-0.616,-54.4883058,-5.1566220000000005,4.5263682,65.09375838000001,-1.81054728,-49.28011758000001
1.4500000000000004,145,-0.004,-0.924,-0.626,-50.24841660000001,-5.72958,5.2712136,64.56663702,-1.88503182,-49.31449506
1.4600000000000002,146,-0.033,-0.908,-0.627,-46.065823200000004,-6.3598338,5.844171599999999,64.10254104,-1.97097552,-49.34887254
1.4700000000000002,147,-0.056,-0.906,-0.627,-41.3675676,-5.6722842,6.0733548,63.68428170000001,-2.05118964,-49.37752044
1.4800000000000002,148,-0.073,-0.899,-0.619,-37.81522800000001,-4.297185,6.130650599999999,63.30039984,-2.13140376,-49.38897959999999
1.4900000000000002,149,-0.076,-0.8809999999999999,-0.604,-34.262888399999994,-3.5523396000000003,6.0733548,62.95662503999999,-2.20015872,-49.39470918
1.5000000000000002,150,-0.07200000000000001,-0.856,-0.598,-30.7678446,-2.9220857999999996,6.130650599999999,62.61857982,-2.2746432600000004,-49.39470918
1.5100000000000002,151,-0.066,-0.831,-0.586,-27.2728008,-2.5210152000000003,6.1879464,62.34355998,-2.34339822,-49.39470918
1.5200000000000002,152,-0.065,-0.813,-0.561,-23.204799,-1.7761698,5.9014674000000005,62.10864719999999,-2.4064236,-49.38325002
1.5300000000000002,153,-0.063,-0.807,-0.568,-19.8243468,-0.5156622000000001,5.443101,61.908111899999994,-2.4637194,-49.36606128
1.5400000000000003,154,-0.061,-0.8170000000000001,-0.568,-15.985528200000001,0.572958,5.3285094000000015,61.74195407999999,-2.50955604,-49.33741338
1.5500000000000003,155,-0.06,-0.82,-0.541,-11.8602306,0.9740286,6.2452422,61.58725542000001,-2.56685184,-49.29730632
1.5600000000000003,156,-0.059,-0.8140000000000001,-0.536,-9.167328,1.3178034,7.333862400000001,61.48985256,-2.62414764,-49.25146968
1.5700000000000003,157,-0.053,-0.81,-0.5579999999999999,-7.0473834,1.3750992,7.906820400000001,61.42109760000001,-2.68717302,-49.20563304
1.5800000000000003,158,-0.048,-0.8,-0.542,-3.724227,0.8594370000000001,8.4224826,61.37526096000001,-2.75592798,-49.15406682
1.5900000000000003,159,-0.047,-0.795,-0.537,-0.8021411999999999,0.5156622000000001,8.9381448,61.36953138,-2.8361421,-49.10823018
1.6000000000000003,160,-0.048,-0.7829999999999999,-0.546,2.1772404,0.6302538000000001,9.0527364,61.3351539,-2.91062664,-49.05666396
1.6100000000000003,161,-0.049,-0.774,-0.5479999999999999,5.3285094000000015,1.3750992,9.167328,61.38672012000001,-2.98511118,-49.00509774
1.6200000000000003,162,-0.048,-0.767,-0.534,8.3651868,1.6042823999999998,9.224623800000002,61.46693424,-3.05386614,-48.94207236
1.6300000000000003,163,-0.051,-0.779,-0.5579999999999999,11.8029348,2.578311,9.167328,61.58725542000001,-3.1226211000000004,-48.87904698000001
1.6400000000000003,164,-0.052000000000000005,-0.799,-0.564,14.896907999999998,2.9793816000000004,9.3965112,61.73049491999999,-3.1913760600000005,-48.80456244000001
1.6500000000000004,165,-0.052000000000000005,-0.826,-0.5529999999999999,17.761698000000006,2.4637194,9.568398599999998,61.88519358,-3.26013102,-48.73580748
1.6600000000000004,166,-0.05,-0.851,-0.551,19.8243468,2.578311,9.2819196,62.08572888,-3.32888598,-48.66705252
1.6700000000000004,167,-0.049,-0.858,-0.532,21.829699800000004,3.0366774,9.0527364,62.30345292000001,-3.3919113599999995,-48.59829756
1.6800000000000004,168,-0.054000000000000006,-0.857,-0.5329999999999999,23.0902074,3.6669312000000014,8.8235532,62.53263611999999,-3.4492071599999994,-48.52381301999999
1.6900000000000004,169,-0.056,-0.856,-0.55,24.2361234,4.6982556,8.479778399999999,62.77327848,-3.50077338,-48.4435989
1.7000000000000004,170,-0.051,-0.858,-0.535,26.298772200000002,4.9274388,8.3651868,63.01965042000001,-3.5523396000000003,-48.3576552
1.7100000000000004,171,-0.042,-0.862,-0.527,28.0176462,4.6409598,8.193299399999999,63.30039984,-3.59817624,-48.27744108
1.7200000000000004,172,-0.031,-0.87,-0.525,29.2781538,4.583664,7.8495246,63.58687884000001,-3.64974246,-48.19722696000001
1.7300000000000004,173,-0.023,-0.8759999999999999,-0.524,30.366774000000003,3.8961144,7.448453999999999,63.89054658,-3.6955791,-48.128472
1.7400000000000004,174,-0.023,-0.872,-0.519,31.340802600000004,3.151269,7.3911582,64.20567348,-3.74141574,-48.06544662
1.7500000000000004,175,-0.027000000000000003,-0.8640000000000001,-0.515,32.486718599999996,2.578311,7.1046792000000005,64.5150708,-3.78725238,-48.00815082
1.7600000000000005,176,-0.032,-0.86,-0.508,33.518043,2.4064236,6.6463128000000005,64.85311602,-3.83308902,-47.9565846
1.7700000000000002,177,-0.037000000000000005,-0.853,-0.496,34.3201842,2.291832,6.3025379999999975,65.19689082,-3.87892566,-47.90501838
1.7800000000000002,178,-0.047,-0.847,-0.4920000000000001,35.0077338,1.8334656000000005,6.016058999999999,65.55212478000001,-3.9190327200000006,-47.86491131999999
1.7900000000000003,179,-0.051,-0.848,-0.49,36.03905820000001,0.7448454000000001,5.6722842,65.91308832,-3.9648693599999993,-47.83053384
1.8000000000000003,180,-0.058,-0.8540000000000001,-0.489,37.3568616,0.4010706,5.3285094000000015,66.27405186,-4.00497642,-47.80188594
1.8100000000000003,181,-0.06,-0.858,-0.488,38.1590028,-0.286479,4.8701430000000006,66.65793372,-4.05081306,-47.7846972
1.8200000000000003,182,-0.057,-0.8590000000000001,-0.458,39.47680620000001,-0.5156622000000001,4.297185,67.05900432000001,-4.08519054,-47.76750846
1.8300000000000003,183,-0.045,-0.863,-0.454,40.2789474,-0.4583664000000001,3.5523396000000003,67.47153408,-4.11383844,-47.75604930000001
1.8400000000000003,184,-0.036000000000000004,-0.866,-0.462,40.5081306,-0.8021411999999999,3.0366774,67.87833426,-4.14248634,-47.75031972
1.8500000000000003,185,-0.033,-0.865,-0.446,41.825934,-1.5469866,2.86479,68.29086402,-4.16540466,-47.75031972
1.8600000000000003,186,-0.039,-0.8590000000000001,-0.44,42.62807520000001,-2.3491278,2.3491278,68.72631209999999,-4.1883229800000015,-47.76177888
1.8700000000000003,187,-0.047,-0.85,-0.426,44.0031744,-2.6929026,1.4896908000000002,69.17321934,-4.20551172,-47.77323804
1.8800000000000003,188,-0.057,-0.8440000000000001,-0.4320000000000001,44.51883660000001,-1.8907613999999997,0.4583664000000001,69.62585616,-4.211241299999998,-47.79042678
1.8900000000000003,189,-0.065,-0.8420000000000001,-0.414,45.779344200000004,-1.3750992,-0.11459160000000004,70.08995214000001,-4.211241299999998,-47.79615636000001
1.9000000000000004,190,-0.07400000000000001,-0.8440000000000001,-0.409,46.6387812,-0.572958,-0.4583664000000001,70.54831854,-4.19978214,-47.80188594
1.9100000000000004,191,-0.079,-0.841,-0.407,46.9252602,0.0,-0.5156622000000001,71.02387368000002,-4.19405256,-47.80188594
1.9200000000000004,192,-0.081,-0.833,-0.386,48.0711762,0.0,-0.5156622000000001,71.51088797999998,-4.1825934,-47.79615636000001
1.9300000000000004,193,-0.075,-0.826,-0.38,48.128471999999995,0.286479,-0.5156622000000001,72.00363186,-4.17113424,-47.79042678
1.9400000000000004,194,-0.066,-0.821,-0.374,48.4722468,0.4010706,-0.8021411999999999,72.49064616,-4.1539455,-47.7846972
1.9500000000000004,195,-0.062,-0.826,-0.3720000000000001,48.529542600000006,0.6875496,-1.3178034,72.97193088,-4.13675676,-47.77896762
1.9600000000000004,196,-0.063,-0.8240000000000001,-0.368,48.4722468,0.6875496,-1.7761698,73.45894518,-4.10810886,-47.77323804
1.9700000000000004,197,-0.065,-0.8220000000000001,-0.378,48.4722468,0.6875496,-2.0626488000000003,73.95168906,-4.08519054,-47.76750846
1.9800000000000004,198,-0.066,-0.818,-0.377,48.6441342,0.8021411999999999,-2.0626488000000003,74.44443294,-4.05654264,-47.76177888
1.9900000000000004,199,-0.064,-0.816,-0.3670000000000001,49.04520479999999,0.7448454000000001,-2.2345362,74.9429064,-4.02789474,-47.75604930000001
2.0000000000000004,200,-0.061,-0.812,-0.375,49.2170922,0.4010706,-2.4064236,75.42419112,-3.99924684,-47.75031972
2.0100000000000002,201,-0.066,-0.81,-0.374,49.2170922,-0.1718874,-2.4064236,75.92266457999997,-3.97059894,-47.75604930000001
2.02,202,-0.06,-0.807,-0.359,49.61816279999999,-0.2291832000000001,-2.86479,76.42686762000002,-3.93622146,-47.75604930000001
2.0300000000000002,203,-0.059,-0.802,-0.355,49.04520479999999,-0.4583664000000001,-3.8388186,76.92534108,-3.896114400000001,-47.76750846
2.04,204,-0.057,-0.8,-0.34700000000000003,48.3003594,-0.3437748,-4.5263682,77.41808496,-3.84454818,-47.77896762
2.0500000000000003,205,-0.059,-0.7979999999999999,-0.345,47.0971476,0.1718874,-5.1566220000000005,77.87072178,-3.79298196,-47.77896762
2.06,206,-0.056,-0.792,-0.353,46.2377106,0.9740286,-5.5576926,78.34054734,-3.7299565800000014,-47.77896762
2.0700000000000003,207,-0.059,-0.784,-0.35100000000000003,45.6647526,0.6302538000000001,-5.3858052,78.80464332,-3.67266078,-47.77896762
2.08,208,-0.063,-0.769,-0.33,45.3782736,0.1718874,-4.9274388,79.26873930000002,-3.62109456,-47.77896762
2.0900000000000003,209,-0.067,-0.745,-0.326,44.2323576,0.3437748,-4.8701430000000006,79.71564654,-3.56379876,-47.77896762
2.1,210,-0.073,-0.721,-0.329,43.0864416,0.9740286,-4.9847345999999995,80.12817629999998,-3.5122325400000003,-47.77323804
2.1100000000000003,211,-0.073,-0.706,-0.314,42.28430039999999,0.9167328,-5.0993262,80.55789480000001,-3.46066632,-47.76750846
2.12,212,-0.069,-0.6920000000000001,-0.312,40.7946096,0.4583664000000001,-4.583664,80.97042456,-3.4091001000000003,-47.76750846
2.1300000000000003,213,-0.055,-0.6829999999999999,-0.32,39.4195104,0.4583664000000001,-3.8388186,81.37149516,-3.36326346,-47.76750846
2.14,214,-0.051,-0.675,-0.318,38.4454818,-0.1718874,-2.6356068,81.76110659999998,-3.33461556,-47.76750846
2.1500000000000004,215,-0.049,-0.6659999999999999,-0.279,37.7006364,-1.2032118,-1.3750992,82.12779972,-3.3231564,-47.77896762
2.16,216,-0.058,-0.65,-0.26,35.2942128,-1.8907613999999997,-0.4583664000000001,82.48876326,-3.31742682,-47.79042678
2.1700000000000004,217,-0.077,-0.625,-0.267,32.658606,-1.145916,-0.4010706,82.82107890000002,-3.3059676599999994,-47.80188594
2.18,218,-0.092,-0.606,-0.263,30.93973200000001,0.5156622000000001,-0.6875496,83.1362058,-3.30023808,-47.79615636000001
2.1900000000000004,219,-0.111,-0.595,-0.22,28.6479,1.7188740000000002,-1.2605076000000002,83.4226848,-3.28304934,-47.77323804
2.2,220,-0.118,-0.583,-0.21600000000000005,25.2674478,4.010706000000001,-1.9480572,83.65759758,-3.2658606,-47.73313098
2.2100000000000004,221,-0.104,-0.568,-0.242,22.4026578,7.333862400000001,-2.9793816000000004,83.8810512,-3.2257535399999995,-47.66437602000001
2.22,222,-0.081,-0.546,-0.223,22.058883,11.1153852,-3.8961144,84.09877524000002,-3.1741873200000006,-47.555514
2.2300000000000004,223,-0.054000000000000006,-0.524,-0.2,21.485925,14.9542038,-4.8701430000000006,84.30504012,-3.11689152,-47.40654492
2.24,224,-0.031,-0.494,-0.17800000000000002,20.2254174,17.0168526,-4.8128472,84.49984584,-3.05386614,-47.24038710000001
2.25,225,-0.018000000000000002,-0.468,-0.159,19.0222056,17.0168526,-3.6096354,84.67746281999997,-3.00229992,-47.07422928
2.2600000000000002,226,-0.009000000000000001,-0.451,-0.162,16.157415599999997,15.2406828,-1.6615782,84.83216148,-2.9793816000000004,-46.9252602
2.27,227,0.001,-0.47,-0.206,10.599723,10.5424272,1.6042823999999998,84.92956434,-2.98511118,-46.81639818
2.2800000000000002,228,0.033,-0.51,-0.241,5.042030400000002,5.0993262,4.583664,84.97540097999997,-3.02521824,-46.75910238
2.29,229,0.08800000000000001,-0.53,-0.229,1.6615782,1.4896908000000002,4.7555514,84.99258972,-3.07678446,-46.74191363999999
2.3000000000000003,230,0.13699999999999998,-0.519,-0.183,0.0,0.057295800000000015,1.145916,84.98113056000003,-3.07105488,-46.74191363999999
2.31,231,0.154,-0.484,-0.113,-1.4896908000000002,-0.286479,-3.9534102,84.96394182,-3.03094782,-46.74764322
2.3200000000000003,232,0.13,-0.446,-0.056,-3.4377480000000005,0.1718874,-8.250595200000001,84.92956434,-2.9507337,-46.7533728
2.33,233,0.084,-0.452,-0.107,-7.2765666,5.3858052,-9.797581800000001,84.8550798,-2.84760126,-46.70753616
2.3400000000000003,234,0.054000000000000006,-0.499,-0.222,-12.2040054,14.32395,-8.5370742,84.72329946,-2.75592798,-46.57575582
2.35,235,0.03,-0.565,-0.295,-14.610429000000002,17.5325148,-3.0366774,84.53422332,-2.71009134,-46.40386842
2.3600000000000003,236,-0.016,-0.5920000000000001,-0.318,-15.469866,7.6776372,5.0993262,84.37379508000002,-2.75592798,-46.32938388
2.37,237,-0.042,-0.529,-0.256,-11.688343199999998,-4.4117766,10.9434978,84.25347389999997,-2.87051958,-46.36376136
2.3800000000000003,238,-0.043,-0.444,-0.229,-8.250595200000001,-11.516455800000001,11.1153852,84.17898936,-2.99084076,-46.466893799999994
2.39,239,-0.018000000000000002,-0.364,-0.232,-3.9534102,-16.673077799999998,6.130650599999999,84.15034145999998,-3.0653253000000005,-46.62732204
2.4000000000000004,240,0.034,-0.342,-0.259,3.724227,-20.9702628,-1.7188740000000002,84.18471894,-3.05386614,-46.83358692
2.41,241,0.08800000000000001,-0.35700000000000004,-0.263,11.688343199999998,-24.8090814,-9.0527364,84.31649927999999,-2.98511118,-47.08568844
2.4200000000000004,242,0.124,-0.376,-0.193,21.829699800000004,-27.9603504,-13.2926256,84.55714164,-2.87051958,-47.37216744000001
2.43,243,0.114,-0.363,-0.024,33.6899304,-28.8770832,-14.5531332,84.91810518,-2.73873924,-47.67010560000001
2.4400000000000004,244,0.052000000000000005,-0.321,0.129,40.5654264,-29.7365202,-13.0061466,85.34782368,-2.62414764,-47.96804376
2.45,245,-0.006,-0.269,0.119,42.28430039999999,-27.6738714,-11.0007936,85.8004605,-2.52674478,-48.2430636
2.4600000000000004,246,-0.04,-0.211,0.104,47.8992888,-24.2934192,-9.740286,86.29893396,-2.4350715000000003,-48.48943554
2.47,247,-0.053,-0.197,0.084,56.0352924,-20.2254174,-9.740286,86.87762153999998,-2.3376686399999995,-48.68424126
2.4800000000000004,248,-0.028,-0.324,-0.118,60.2751816,-11.745639,-11.172681,87.49641618000004,-2.22880662,-48.79883286
2.49,249,0.058,-0.73,-0.451,59.4730404,-0.3437748,-13.0061466,88.10375166,-2.0912967,-48.80456244000001
2.5000000000000004,250,0.071,-1.787,-0.476,61.7648724,-3.2658606,-11.516455800000001,88.72827588,-1.97097552,-48.83321034
2.5100000000000002,251,-0.013,-3.4360000000000004,-0.474,62.853492599999996,-4.297185,-4.1252976000000015,89.36998884,-1.92513888,-48.86758782
2.5200000000000005,252,-0.07,-3.999,-0.109,91.1576178,-2.5210152000000003,3.380452200000001,90.29245122,-1.95378678,-48.87904698000001
2.5300000000000002,253,-0.342,-3.666,-0.021,93.392154,-1.5469866,1.2605076000000002,91.2435615,-1.95378678,-48.88477656
2.5400000000000005,254,-0.454,-3.135,0.108,133.61380559999998,5.3858052,-3.2085648,92.59574238000002,-1.9194093000000003,-48.8160216
2.5500000000000003,255,-0.376,-3.068,0.127,125.8215768,11.2872726,-17.6471064,93.86770914,-1.74179232,-48.67851168
2.5600000000000005,256,-0.34,-2.995,0.112,113.6748672,12.4904844,-29.335449600000004,95.01362514,-1.45531332,-48.51808344
2.5700000000000003,257,-0.17600000000000002,-2.925,0.35600000000000004,107.143146,12.032117999999999,-21.6578124,96.09651576,-1.24904844,-48.36338478
2.58,258,0.133,-2.6010000000000004,0.601,91.4440968,12.5477802,-10.599723,97.01897814,-1.1573751600000002,-48.22014528
2.5900000000000003,259,0.14400000000000002,-2.19,0.605,67.609044,6.8182002000000015,-3.0366774,97.70652774,-1.13445684,-48.13993116
2.6,260,0.052000000000000005,-1.755,0.5660000000000001,53.628868800000006,0.0,-1.6042823999999998,98.25083784,-1.11153852,-48.128472
2.6100000000000003,261,0.013,-1.444,0.469,46.00852740000001,1.0886202,-0.3437748,98.7206634,-1.10580894,-48.11128326
2.62,262,-0.002,-1.154,0.34700000000000003,38.961144,1.7188740000000002,1.9480572,99.11027484,-1.12872726,-48.09409452
2.6300000000000003,263,-0.039,-0.918,0.359,37.1849742,2.86479,4.583664,99.48842712,-1.1745638999999999,-48.071176200000004
2.64,264,-0.119,-0.741,0.462,37.0703826,6.016058999999999,5.2139178,99.8665794,-1.23758928,-48.01388040000001
2.6500000000000004,265,-0.19,-0.589,0.47,35.2942128,10.886202,2.6929026,100.24473168,-1.30061466,-47.91074796
2.66,266,-0.163,-0.462,0.278,29.2781538,17.6471064,0.4010706,100.53694026,-1.3349921400000002,-47.73313098
2.6700000000000004,267,-0.108,-0.335,0.14300000000000002,23.6058696,22.1161788,0.4583664000000001,100.76612346,-1.38655836,-47.521136520000006
2.68,268,-0.037000000000000005,-0.183,0.104,22.1161788,22.9756158,1.8334656000000005,100.9838475,-1.45531332,-47.29768290000001
2.6900000000000004,269,0.006,-0.07400000000000001,0.064,21.6005166,23.0902074,3.2658606,101.19584196,-1.53552744,-47.07995886000001
2.7,270,0.031,-0.018000000000000002,0.014,22.631841,21.5432208,4.4117766,101.413566,-1.61001198,-46.87369398
2.7100000000000004,271,0.054000000000000006,-0.057,0.0,26.1268848,19.7097552,4.1825934,101.6713971,-1.6959556799999995,-46.69034742
2.72,272,0.076,-0.157,-0.001,29.9657034,17.4179232,3.9534102,101.96933526,-1.77044022,-46.52991918
2.7300000000000004,273,0.098,-0.227,-0.013,32.7731976,14.9542038,4.1825934,102.29592132,-1.84492476,-46.38667968
2.74,274,0.091,-0.262,0.015,35.695283399999994,11.6310474,4.4117766,102.65115528,-1.91367972,-46.28354724
2.7500000000000004,275,0.069,-0.303,0.064,40.10706,9.3965112,3.4377480000000005,103.05222588,-1.96524594,-46.19187396
2.7600000000000002,276,0.032,-0.393,0.104,45.206386200000004,8.7662574,1.3178034,103.51059228,-1.99962342,-46.10593026
2.7700000000000005,277,0.009000000000000001,-0.517,0.161,50.24841660000001,8.5370742,-0.5156622000000001,104.01479532,-2.01681216,-46.014256980000006
2.7800000000000002,278,0.0,-0.682,0.24,54.94667220000001,8.250595200000001,-0.8594370000000001,104.57056458,-2.02254174,-45.92831328
2.7900000000000005,279,0.014,-0.8690000000000001,0.327,59.53033620000001,8.7662574,-0.1718874,105.1664409,-2.04546006,-45.83664
2.8000000000000003,280,0.032,-1.038,0.361,62.6243094,7.333862400000001,-0.057295800000000015,105.80242428,-2.05691922,-45.75642588
2.8100000000000005,281,0.034,-1.146,0.364,63.6556338,5.2139178,-0.572958,106.44413724,-2.0626488000000003,-45.69913008
2.8200000000000003,282,0.052000000000000005,-1.181,0.373,64.17129600000001,4.297185,-1.8907613999999997,107.09730936,-2.05691922,-45.64183428
2.8300000000000005,283,0.076,-1.204,0.384,66.0620574,1.8334656000000005,-2.8074942000000003,107.76194064,-2.0340008999999997,-45.6074568
2.8400000000000003,284,0.087,-1.285,0.4370000000000001,67.0933818,-2.4064236,-2.0053530000000004,108.44376066,-2.005353,-45.61891596
2.8500000000000005,285,0.071,-1.396,0.5489999999999999,68.46848100000001,-5.6149884000000005,0.0,109.14276942,-1.9767051,-45.65902302
2.8600000000000003,286,0.037000000000000005,-1.501,0.635,69.61439700000001,-7.0473834,1.9480572,109.85323734,-1.97097552,-45.7220484
2.8700000000000006,287,-0.01,-1.57,0.682,69.21332640000001,-9.3392154,3.151269,110.55797568,-1.9595163600000003,-45.8079921
2.8800000000000003,288,-0.042,-1.589,0.7140000000000001,65.8328742,-10.9434978,3.151269,111.23406612,-1.9480572000000005,-45.91112454
2.8900000000000006,289,-0.059,-1.506,0.711,58.5563076,-10.6570188,2.8074942000000003,111.83567202,-1.93086846,-46.0085274
2.9000000000000004,290,-0.056,-1.403,0.657,52.2537696,-8.7662574,2.291832,112.36852296,-1.91367972,-46.0944711
2.91,291,-0.047,-1.314,0.583,42.62807520000001,-7.5057497999999985,2.5210152000000003,112.80397104,-1.90795014,-46.16322606
2.9200000000000004,292,-0.035,-1.195,0.506,33.9191136,-7.1046792000000005,3.0939732,113.15347542,-1.90795014,-46.2377106
2.93,293,-0.032,-1.105,0.45,28.762491600000004,-6.2452422,3.7815227999999994,113.445684,-1.91367972,-46.30073598
2.9400000000000004,294,-0.02,-1.036,0.413,25.0382646,-5.042030400000002,4.8701430000000006,113.7035151,-1.93659804,-46.36376136
2.95,295,-0.012,-0.984,0.393,20.912967,-4.3544808,6.5317212,113.90977998,-1.96524594,-46.42678674
2.9600000000000004,296,-0.002,-0.926,0.38,17.18874,-3.7815227999999994,7.1046792000000005,114.08739696,-2.01681216,-46.48981212
2.97,297,-0.005,-0.884,0.339,15.469866,-3.3231564,6.6463128000000005,114.24209562,-2.0626488000000003,-46.54137834
2.9800000000000004,298,-0.016,-0.8490000000000001,0.298,15.0114996,-3.151269,7.1046792000000005,114.40252386,-2.11421502,-46.59867414
2.99,299,-0.016,-0.8220000000000001,0.28800000000000003,13.980175199999998,-2.0626488000000003,5.9014674000000005,114.54576336,-2.15432208,-46.638781200000004
3.0000000000000004,300,-0.029,-0.774,0.279,13.5791046,-0.6875496,4.6409598,114.66608454,-2.19442914,-46.6674291
3.0100000000000002,301,-0.034,-0.745,0.276,14.610429000000002,-0.1718874,3.3231564,114.81505362,-2.22307704,-46.67888826
3.0200000000000005,302,-0.044,-0.757,0.294,15.6990492,-0.2291832000000001,3.0939732,114.97548186,-2.24599536,-46.69034742
3.0300000000000002,303,-0.052000000000000005,-0.795,0.333,15.9282324,-0.3437748,5.443101,115.1359101,-2.29756158,-46.71326574
3.0400000000000005,304,-0.063,-0.77,0.349,15.985528200000001,0.0,5.2712136,115.30206791999998,-2.34339822,-46.73618406
3.0500000000000003,305,-0.059,-0.773,0.361,17.4179232,1.6615782,4.583664,115.47395532,-2.39496444,-46.73618406
3.0600000000000005,306,-0.054000000000000006,-0.8170000000000001,0.378,18.5065434,3.4377480000000005,4.1252976000000015,115.65730188,-2.44653066,-46.7247249
3.0700000000000003,307,-0.047,-0.867,0.394,18.7930224,4.297185,3.7815227999999994,115.85210759999998,-2.49809688,-46.696077
3.0800000000000005,308,-0.05,-0.898,0.418,19.9962342,4.9847345999999995,3.2085648,116.0526429,-2.5496631,-46.6674291
3.0900000000000003,309,-0.05,-0.915,0.443,21.1421502,6.130650599999999,2.4064236,116.26463736,-2.6012293200000003,-46.62159246
3.1000000000000005,310,-0.058,-0.92,0.466,22.1161788,6.417129599999999,1.9480572,116.4823614,-2.64706596,-46.57002624
3.1100000000000003,311,-0.063,-0.94,0.474,22.86102420000001,5.958763200000001,1.7761698,116.7115446,-2.6929026,-46.52418959999999
3.1200000000000006,312,-0.063,-0.968,0.469,22.8037284,5.7868758000000025,1.8334656000000005,116.94072779999999,-2.73300966,-46.47835296
3.1300000000000003,313,-0.062,-1.006,0.464,21.9442914,6.589017,0.6875496,117.15845184,-2.77311672,-46.42105716
3.1400000000000006,314,-0.069,-1.047,0.463,20.454600600000006,7.2192707999999985,0.2291832000000001,117.36471672,-2.8074942000000003,-46.3523022
3.1500000000000004,315,-0.073,-1.055,0.466,18.1054728,7.906820400000001,0.4010706,117.52514496,-2.85333084,-46.28354724
3.1600000000000006,316,-0.06,-1.053,0.459,16.501190400000002,8.136003599999999,0.3437748,117.6855732,-2.8934379,-46.21479228000001
3.1700000000000004,317,-0.045,-1.042,0.451,15.2979786,7.6776372,0.8594370000000001,117.84027186,-2.93927454,-46.1517669
3.1800000000000006,318,-0.037000000000000005,-1.023,0.455,13.5791046,7.161975,1.0886202,117.97205220000001,-2.98511118,-46.0944711
3.1900000000000004,319,-0.031,-0.987,0.454,11.229976800000001,6.6463128000000005,1.145916,118.08091422,-3.02521824,-46.0371753
3.2000000000000006,320,-0.033,-0.938,0.441,9.6829902,5.3858052,1.3178034,118.14966918,-3.05386614,-45.99706824
3.2100000000000004,321,-0.04,-0.932,0.435,8.9381448,4.3544808,1.4896908000000002,118.23561288,-3.08824362,-45.96269076
3.22,322,-0.034,-0.935,0.424,7.2192707999999985,3.9534102,1.8907613999999997,118.31009742,-3.1226211000000004,-45.93977244
3.2300000000000004,323,-0.034,-0.934,0.41,5.443101,3.151269,2.0053530000000004,118.36166364,-3.15699858,-45.922583700000004
3.24,324,-0.042,-0.937,0.402,4.4690724,2.8074942000000003,1.6615782,118.40750028,-3.18564648,-45.90539496
3.2500000000000004,325,-0.046,-0.934,0.394,3.8388186,3.151269,1.432395,118.33874532,-3.20283522,-45.88247663999999
3.2600000000000002,326,-0.045,-0.926,0.39,3.8961144,3.6669312000000014,1.432395,118.37885238,-3.2314831199999987,-45.85382874
3.2700000000000005,327,-0.038,-0.917,0.392,4.3544808,3.8961144,1.3178034,118.41895944,-3.2658606,-45.83091042
3.2800000000000002,328,-0.032,-0.911,0.395,4.6409598,2.9220857999999996,1.2032118,118.46479608,-3.28877892,-45.8079921
3.2900000000000005,329,-0.029,-0.904,0.403,4.297185,1.8334656000000005,0.9167328,118.51063272000002,-3.3059676599999994,-45.79653294000001
3.3000000000000003,330,-0.027000000000000003,-0.898,0.407,4.1825934,1.432395,0.3437748,118.43614818,-3.27731976,-45.78507378
3.3100000000000005,331,-0.031,-0.905,0.403,3.9534102,1.145916,-0.3437748,118.47625524,-3.27731976,-45.77361462
3.3200000000000003,332,-0.038,-0.911,0.402,3.3231564,0.6302538000000001,-0.8594370000000001,118.51063272000002,-3.27159018,-45.76215546
3.3300000000000005,333,-0.043,-0.916,0.406,2.9793816000000004,0.2291832000000001,-1.0886202,118.53928062,-3.2658606,-45.7506963
3.3400000000000003,334,-0.045,-0.92,0.415,2.86479,-0.286479,-1.2605076000000002,118.56792851999998,-3.25440144,-45.7506963
3.3500000000000005,335,-0.044,-0.923,0.416,3.0939732,-0.5156622000000001,-1.3750992,118.47052566,-3.214294380000001,-45.74496672
3.3600000000000003,336,-0.045,-0.926,0.429,3.151269,-0.9167328,-1.2032118,118.50490313999998,-3.19710564,-45.74496672
3.3700000000000006,337,-0.048,-0.924,0.436,3.0939732,-1.0313244,-1.0313244,118.53928062,-3.18564648,-45.7506963
3.3800000000000003,338,-0.047,-0.921,0.4270000000000001,3.724227,-0.7448454000000001,-0.8021411999999999,118.57365810000002,-3.1741873200000006,-45.7506963
3.3900000000000006,339,-0.042,-0.924,0.421,3.9534102,-0.572958,-0.5156622000000001,118.61376516,-3.1627281600000003,-45.75642588
3.4000000000000004,340,-0.042,-0.925,0.419,3.8961144,-0.8021411999999999,-0.4010706,118.52209188,-3.13408026,-45.75642588
3.4100000000000006,341,-0.047,-0.927,0.429,3.724227,-0.8594370000000001,-0.1718874,118.56219894,-3.12835068,-45.76215546
3.4200000000000004,342,-0.05,-0.921,0.436,3.3231564,-0.8021411999999999,-0.11459160000000004,118.59657642000002,-3.1226211000000004,-45.76788504
3.4300000000000006,343,-0.049,-0.922,0.4320000000000001,3.0939732,-0.4010706,-0.11459160000000004,118.62522432,-3.11689152,-45.77361462
3.4400000000000004,344,-0.045,-0.925,0.43,2.578311,-0.11459160000000004,-0.11459160000000004,118.65387222,-3.11689152,-45.77361462
3.4500000000000006,345,-0.041,-0.924,0.428,2.1199446,0.057295800000000015,-0.1718874,118.4304186,-3.05959572,-45.76788504
3.4600000000000004,346,-0.036000000000000004,-0.925,0.421,2.1199446,0.286479,-0.11459160000000004,118.45333692,-3.05959572,-45.76215546
3.4700000000000006,347,-0.036000000000000004,-0.926,0.416,1.7188740000000002,0.3437748,0.0,118.47052566,-3.05959572,-45.76215546
3.4800000000000004,348,-0.035,-0.926,0.412,1.3750992,0.286479,0.057295800000000015,118.48198482,-3.0653253000000005,-45.75642588
3.4900000000000007,349,-0.034,-0.924,0.41,1.5469866,0.572958,0.1718874,118.49917356,-3.07105488,-45.75642588
3.5000000000000004,350,-0.031,-0.921,0.409,1.8334656000000005,0.8021411999999999,0.2291832000000001,118.29863826,-3.0137590800000003,-45.74496672
3.5100000000000007,351,-0.03,-0.914,0.412,2.3491278,0.572958,0.1718874,118.32155658,-3.0137590800000003,-45.73923714
3.5200000000000005,352,-0.029,-0.913,0.417,2.8074942000000003,0.286479,0.11459160000000004,118.35020448,-3.01948866,-45.73923714
3.5300000000000002,353,-0.028,-0.911,0.414,2.9793816000000004,0.286479,-0.057295800000000015,118.37885238,-3.01948866,-45.73350756000001
3.5400000000000005,354,-0.028,-0.913,0.408,3.3231564,0.1718874,-0.2291832000000001,118.41322986,-3.01948866,-45.73350756000001
3.5500000000000003,355,-0.031,-0.915,0.409,3.2085648,0.057295800000000015,-0.286479,118.26999036,-2.96792244,-45.72777798
3.5600000000000005,356,-0.032,-0.913,0.409,3.380452200000001,0.3437748,-0.286479,118.30436784,-2.96792244,-45.7220484
3.5700000000000003,357,-0.029,-0.919,0.411,3.724227,0.6875496,-0.5156622000000001,118.3444749,-2.96792244,-45.71058924
3.5800000000000005,358,-0.029,-0.92,0.413,3.6669312000000014,0.7448454000000001,-0.7448454000000001,118.37885238,-2.96219286,-45.69913008
3.5900000000000003,359,-0.031,-0.918,0.414,3.7815227999999994,1.0886202,-0.8594370000000001,118.41895944,-2.96219286,-45.68767092
3.6000000000000005,360,-0.03,-0.916,0.412,4.4690724,1.3178034,-1.0886202,118.3731228,-2.93354496,-45.67048218
3.6100000000000003,361,-0.032,-0.919,0.417,4.6982556,1.2605076000000002,-0.9740286,118.41895944,-2.93354496,-45.65329344
3.6200000000000006,362,-0.032,-0.923,0.428,4.7555514,1.3750992,-0.9167328,118.47052566,-2.92781538,-45.6361047
3.6300000000000003,363,-0.031,-0.918,0.435,4.7555514,1.3750992,-0.8021411999999999,118.5163623,-2.92781538,-45.61891596
3.6400000000000006,364,-0.032,-0.917,0.434,4.583664,1.3750992,-0.6875496,118.56219894,-2.92781538,-45.60172722
3.6500000000000004,365,-0.03,-0.924,0.4270000000000001,4.297185,1.3750992,-0.5156622000000001,118.49917356,-2.89916748,-45.584538480000006
3.6600000000000006,366,-0.031,-0.925,0.424,3.4950437999999995,1.0886202,-0.572958,118.53355104,-2.89916748,-45.57307932
3.6700000000000004,367,-0.037000000000000005,-0.928,0.4270000000000001,3.0939732,0.6302538000000001,-0.572958,118.56792851999998,-2.8934379,-45.56162016
3.6800000000000006,368,-0.039,-0.926,0.428,2.9220857999999996,1.0313244,-0.6302538000000001,118.59657642000002,-2.8934379,-45.550161
3.6900000000000004,369,-0.037000000000000005,-0.934,0.426,2.6929026,1.8907613999999997,-0.6302538000000001,118.62522432,-2.89916748,-45.53297226
3.7000000000000006,370,-0.035,-0.936,0.421,2.3491278,2.2345362,-0.5156622000000001,118.50490313999998,-2.87051958,-45.51005394
3.7100000000000004,371,-0.034,-0.93,0.431,1.7188740000000002,2.2345362,-0.1718874,118.52209188,-2.88197874,-45.48713562
3.7200000000000006,372,-0.035,-0.922,0.442,1.145916,2.2345362,0.057295800000000015,118.52782146,-2.8934379,-45.46994688
3.7300000000000004,373,-0.035,-0.916,0.44,1.2605076000000002,2.5210152000000003,0.11459160000000004,118.5450102,-2.90489706,-45.44702856
3.7400000000000007,374,-0.037000000000000005,-0.921,0.4370000000000001,1.0313244,2.8074942000000003,0.057295800000000015,118.55073978,-2.9220858,-45.42411024
3.7500000000000004,375,-0.04,-0.925,0.426,0.6302538000000001,2.6929026,0.286479,118.39031154,-2.90489706,-45.40119192
3.7600000000000007,376,-0.041,-0.927,0.419,0.3437748,2.578311,0.5156622000000001,118.39031154,-2.92781538,-45.38400318
3.7700000000000005,377,-0.039,-0.928,0.418,-0.057295800000000015,2.578311,0.6875496,118.39031154,-2.94500412,-45.36108486
3.7800000000000007,378,-0.038,-0.927,0.422,-0.6302538000000001,2.6356068,0.9167328,118.38458196,-2.96792244,-45.34389612
3.7900000000000005,379,-0.038,-0.922,0.421,-0.9167328,2.6356068,0.9740286,118.3731228,-2.98511118,-45.32670738
3.8000000000000007,380,-0.039,-0.921,0.416,-0.8594370000000001,2.6356068,0.7448454000000001,118.21269456,-2.9793816000000004,-45.30378906
3.8100000000000005,381,-0.039,-0.925,0.413,-0.8594370000000001,2.578311,0.572958,118.2012354,-2.9965703400000003,-45.28660032
3.8200000000000007,382,-0.039,-0.927,0.411,-0.9740286,2.86479,0.5156622000000001,118.18977624,-3.0137590800000003,-45.263682
3.8300000000000005,383,-0.038,-0.924,0.41,-0.8021411999999999,3.2085648,0.572958,118.17831708,-3.0366774000000003,-45.24076368
3.8400000000000007,384,-0.038,-0.924,0.415,-0.8021411999999999,2.86479,0.6302538000000001,118.16685791999998,-3.05386614,-45.21784536
3.8500000000000005,385,-0.04,-0.919,0.418,-1.0313244,2.4064236,0.7448454000000001,118.02361842,-3.04240698,-45.20065662
3.8600000000000003,386,-0.042,-0.916,0.416,-0.9740286,1.8907613999999997,0.7448454000000001,118.01215926,-3.05959572,-45.18919746
3.8700000000000006,387,-0.043,-0.919,0.413,-0.8594370000000001,1.2605076000000002,0.6302538000000001,118.00070009999999,-3.07105488,-45.1777383
3.8800000000000003,388,-0.044,-0.923,0.412,-1.0313244,1.0313244,0.6875496,117.98924094,-3.0825140400000004,-45.17200872
3.8900000000000006,389,-0.04,-0.924,0.411,-1.0886202,1.3750992,0.6875496,117.97778178000002,-3.0939732,-45.16627914
3.9000000000000004,390,-0.039,-0.925,0.41,-1.3750992,1.3178034,0.6875496,117.79443522,-3.07105488,-45.15481998
3.9100000000000006,391,-0.039,-0.923,0.412,-1.6615782,1.2032118,0.8594370000000001,117.77724648,-3.0825140400000004,-45.1490904
3.9200000000000004,392,-0.039,-0.921,0.417,-1.4896908000000002,1.2032118,0.9740286,117.76005774,-3.0997027800000003,-45.14336082
3.9300000000000006,393,-0.033,-0.922,0.42,-1.2032118,1.2605076000000002,1.0886202,117.74859858,-3.11116194,-45.13763124000001
3.9400000000000004,394,-0.03,-0.922,0.425,-1.432395,0.8594370000000001,1.145916,117.73140984,-3.12835068,-45.13763124000001
3.9500000000000006,395,-0.031,-0.921,0.425,-1.6042823999999998,-0.11459160000000004,1.2032118,117.57098159999998,-3.07678446,-45.13763124000001
3.9600000000000004,396,-0.032,-0.923,0.4270000000000001,-1.4896908000000002,-0.7448454000000001,1.145916,117.55379286,-3.0825140400000004,-45.1490904
3.9700000000000006,397,-0.036000000000000004,-0.927,0.43,-1.7188740000000002,-0.8594370000000001,1.0886202,117.53660412,-3.08824362,-45.16054956
3.9800000000000004,398,-0.039,-0.926,0.423,-1.8907613999999997,-0.4583664000000001,0.9740286,117.51941537999998,-3.0997027800000003,-45.17200872
3.9900000000000007,399,-0.038,-0.93,0.419,-2.1199446,-0.1718874,0.8021411999999999,117.49649706,-3.1054323600000004,-45.1777383
4.000000000000001,400,-0.041,-0.933,0.416,-2.6356068,0.0,0.6875496,117.33033924,-3.0825140400000004,-45.1777383
4.010000000000001,401,-0.044,-0.934,0.416,-2.9220857999999996,0.3437748,0.6302538000000001,117.30169134,-3.08824362,-45.1777383
4.0200000000000005,402,-0.038,-0.936,0.416,-3.3231564,1.2605076000000002,0.5156622000000001,117.26731386,-3.0997027800000003,-45.17200872
4.03,403,-0.034,-0.938,0.416,-3.724227,1.8334656000000005,0.572958,117.2272068,-3.11116194,-45.16054956
4.040000000000001,404,-0.031,-0.935,0.415,-4.1825934,1.8334656000000005,0.6875496,117.18709973999998,-3.12835068,-45.1490904
4.050000000000001,405,-0.029,-0.932,0.413,-4.1252976000000015,1.145916,0.8021411999999999,117.05531940000002,-3.1054323600000004,-45.13763124000001
4.0600000000000005,406,-0.032,-0.933,0.411,-4.010706000000001,0.2291832000000001,0.9167328,117.01521234,-3.11689152,-45.13763124000001
4.07,407,-0.035,-0.936,0.413,-4.2398892,0.0,0.8594370000000001,116.9693757,-3.1226211000000004,-45.14336082
4.080000000000001,408,-0.039,-0.934,0.412,-4.583664,0.0,0.6875496,116.92353906,-3.12835068,-45.1490904
4.090000000000001,409,-0.039,-0.932,0.405,-4.7555514,0.0,0.572958,116.87770242000002,-3.13408026,-45.15481998
4.1000000000000005,410,-0.038,-0.93,0.397,-4.9847345999999995,-0.286479,0.6302538000000001,116.73446291999998,-3.11689152,-45.16054956
4.11,411,-0.039,-0.931,0.395,-4.8128472,-0.4583664000000001,0.5156622000000001,116.6828967,-3.11689152,-45.16627914
4.120000000000001,412,-0.038,-0.933,0.397,-4.8128472,-0.1718874,0.3437748,116.63706006,-3.1226211000000004,-45.16627914
4.130000000000001,413,-0.04,-0.926,0.391,-4.7555514,-0.11459160000000004,0.286479,116.58549384,-3.1226211000000004,-45.17200872
4.140000000000001,414,-0.04,-0.926,0.387,-4.1252976000000015,-0.11459160000000004,0.4583664000000001,116.54538678000002,-3.12835068,-45.1777383
4.15,415,-0.037000000000000005,-0.927,0.39,-4.010706000000001,0.057295800000000015,0.3437748,116.39068812,-3.0997027800000003,-45.1777383
4.160000000000001,416,-0.038,-0.928,0.388,-3.7815227999999994,-0.11459160000000004,0.4010706,116.35058106,-3.0997027800000003,-45.1777383
4.170000000000001,417,-0.043,-0.921,0.384,-3.6096354,-0.286479,0.4010706,116.310474,-3.1054323600000004,-45.18346788
4.180000000000001,418,-0.043,-0.926,0.381,-3.3231564,-0.2291832000000001,0.3437748,116.27609652,-3.1054323600000004,-45.18919746
4.19,419,-0.04,-0.93,0.379,-3.0366774,-0.3437748,0.3437748,116.24744862,-3.1054323600000004,-45.19492704
4.2,420,-0.041,-0.929,0.381,-3.0939732,-0.8594370000000001,0.4583664000000001,116.09847954,-3.0825140400000004,-45.2063862
4.210000000000001,421,-0.04,-0.927,0.381,-2.86479,-0.9167328,0.4583664000000001,116.06983164,-3.0825140400000004,-45.21211578
4.220000000000001,422,-0.04,-0.932,0.381,-2.5210152000000003,-0.9167328,0.4583664000000001,116.04118374,-3.0825140400000004,-45.22357494
4.23,423,-0.039,-0.934,0.38,-2.4637194,-1.2032118,0.5156622000000001,116.01826542,-3.0825140400000004,-45.24076368
4.24,424,-0.04,-0.936,0.378,-2.1199446,-1.3178034,0.572958,115.9953471,-3.0825140400000004,-45.25222284
4.250000000000001,425,-0.041,-0.935,0.378,-1.9480572,-0.9740286,0.5156622000000001,115.7948118,-3.04813656,-45.263682
4.260000000000001,426,-0.042,-0.938,0.38,-1.6615782,-0.6875496,0.4583664000000001,115.77762306,-3.04813656,-45.27514116
4.2700000000000005,427,-0.043,-0.936,0.379,-1.7761698,-0.5156622000000001,0.572958,115.76043432000002,-3.05386614,-45.28087074
4.28,428,-0.044,-0.941,0.377,-2.0626488000000003,-0.4583664000000001,0.4583664000000001,115.74324558,-3.05386614,-45.28660032
