TimeStamp(s),FrameCounter,AccX,AccY,AccZ,GyrX,GyrY,GyrZ,EulerX,EulerY,EulerZ
0.01,1,0.009000000000000001,-1.002,0.13,0.6302538000000001,-7.1046792000000005,3.7815228,96.85282032,1.83919518,-15.61883508
0.02,2,0.019,-0.998,0.126,-0.11459160000000004,3.0366774,2.7501984,96.85282032,1.81054728,-15.59018718
0.03,3,0.019,-0.998,0.125,-0.057295800000000015,2.5210152000000003,2.6929026,96.84709073999998,1.7761698000000001,-15.57299844
0.04,4,0.019,-0.997,0.124,0.2291832000000001,1.9480572,2.5783110000000002,96.85282032,1.7475218999999995,-15.555809699999998
0.05,5,0.018000000000000002,-0.998,0.122,0.40107059999999994,1.3750992,2.4637194,96.8012541,1.70168526,-15.51570264
0.060000000000000005,6,0.02,-0.998,0.12300000000000001,0.8021411999999999,0.7448454000000001,2.4064236,96.81271325999998,1.6787669399999998,-15.509973059999998
0.06999999999999999,7,0.022000000000000002,-1.0,0.126,0.8594370000000001,-0.1718874,2.4637194,96.81844284,1.6558486199999998,-15.51570264
0.08,8,0.023,-1.001,0.127,0.572958,-1.145916,2.6929026,96.82417242,1.6272007199999998,-15.53289138
0.09,9,0.025,-1.002,0.127,0.4583664000000001,-2.2345362,2.8074942000000003,96.829902,1.6042824000000002,-15.555809699999998
0.09999999999999999,10,0.024,-1.0,0.127,0.40107059999999994,-3.3231564,2.86479,96.81271325999998,1.5756344999999998,-15.584457600000002
0.11,11,0.022000000000000002,-1.0,0.126,0.5156622000000001,-4.1252976000000015,2.9220858,96.81844284,1.5527161800000002,-15.62456466
0.12,12,0.019,-1.001,0.126,0.6875496,-4.9847346,2.7501984,96.82417242,1.53552744,-15.68186046
0.13,13,0.017,-1.001,0.127,0.9167328000000001,-5.72958,2.5783110000000002,96.83563158,1.5183387000000002,-15.739156259999998
0.14,14,0.015,-1.003,0.129,0.9740286,-6.3598338,2.5210152000000003,96.84136116,1.50114996,-15.80218164
0.15000000000000002,15,0.013000000000000001,-1.003,0.129,0.7448454000000001,-7.6203414,2.4637194,96.83563158,1.4782316400000002,-15.8709366
0.16,16,0.012,-1.001,0.127,0.5156622000000001,-8.7089616,2.3491277999999998,96.84136116,1.46677248,-15.96260988
0.17,17,0.009000000000000001,-0.9990000000000001,0.124,0.4583664000000001,-9.396511199999999,2.2345362,96.84136116,1.4610428999999998,-16.05428316
0.18000000000000002,18,0.008,-0.9990000000000001,0.122,0.8021411999999999,-9.740286,2.1772404,96.85282032,1.44958374,-16.1574156
0.19,19,0.005,-0.998,0.12300000000000001,1.145916,-9.8548776,2.1772404,96.8585499,1.44385416,-16.254818460000006
0.2,20,0.003,-0.998,0.125,1.6615782,-9.7975818,2.1772404,96.8585499,1.42666542,-16.34076216
0.21000000000000002,21,0.001,-1.0,0.125,1.9480572,-9.6256944,2.1199446,96.88146822,1.41520626,-16.438165020000003
0.22,22,0.0,-1.001,0.127,2.1772404,-9.3392154,2.0053530000000004,96.90438654,1.40947668,-16.53556788
0.23,23,-0.003,-1.003,0.13,2.4064236,-9.0527364,1.8907614,96.92730486,1.4037471000000001,-16.62724116
0.24000000000000002,24,-0.004,-1.004,0.132,2.3491277999999998,-8.8235532,1.7761698000000001,96.95022318,1.39801752,-16.71318486
0.25,25,-0.005,-1.004,0.131,2.2345362,-8.7089616,1.4896908000000002,96.95595276,1.38082878,-16.787669400000002
0.26,26,-0.004,-1.003,0.132,2.1199446,-8.3651868,1.3178034,96.9731415,1.3750992,-16.873613100000004
0.27,27,-0.004,-1.0,0.132,2.2345362,-7.734933000000002,1.2032118,96.99605982,1.3750992,-16.94809764
0.28,28,-0.006,-1.0,0.134,2.291832,-7.2765666,1.145916,97.01897814,1.3750992,-17.02258218
0.29000000000000004,29,-0.006999999999999999,-1.0,0.131,2.291832,-6.703608600000001,1.145916,97.04189646,1.3750992,-17.09133714
0.3,30,-0.01,-0.998,0.13,2.4637194,-6.1879464,0.8594370000000001,97.04189646,1.3464512999999998,-17.131444199999994
0.31,31,-0.009000000000000001,-0.996,0.129,2.8074942000000003,-5.5003968,0.7448454000000001,97.07054436,1.3464512999999998,-17.188740000000006
0.32,32,-0.009000000000000001,-0.995,0.132,3.0366774,-4.8128472,0.4583664000000001,97.09919226,1.3464512999999998,-17.23457664
0.33,33,-0.009000000000000001,-0.996,0.136,3.1512689999999997,-3.9534102,0.286479,97.13356974,1.35218088,-17.2746837
0.34,34,-0.009000000000000001,-0.997,0.135,3.2085647999999996,-2.9793816000000004,0.057295800000000015,97.16794722,1.35218088,-17.303331600000003
0.35000000000000003,35,-0.01,-0.9990000000000001,0.134,2.9793816000000004,-2.3491277999999998,0.0,97.15075848,1.30634424,-17.29760202
0.36000000000000004,36,-0.008,-1.0,0.133,2.8074942000000003,-1.9480572,-0.057295800000000015,97.17940638,1.31207382,-17.31479076
0.37,37,-0.005,-1.001,0.133,2.7501984,-1.4896908000000002,-0.1718874,97.20805428,1.31207382,-17.326249920000002
0.38,38,-0.001,-1.001,0.134,2.6356068,-1.0313244000000001,-0.3437748,97.23670218,1.3178034,-17.33770908
0.39,39,0.0,-1.001,0.138,2.6356068,-0.6875496,-0.5156622000000001,97.26535008,1.32353298,-17.34343866
0.4,40,0.001,-1.001,0.135,2.5783110000000002,-0.40107059999999994,-0.5156622000000001,97.23097259999999,1.2891555,-17.31479076
0.41000000000000003,41,0.0,-1.001,0.132,2.4637194,-0.11459160000000004,-0.4583664000000001,97.25389092,1.2891555,-17.31479076
0.42000000000000004,42,0.001,-1.0,0.131,2.4637194,-0.057295800000000015,-0.3437748,97.28253881999998,1.29488508,-17.31479076
0.43,43,0.0,-0.9990000000000001,0.133,2.4064236,0.1718874,-0.286479,97.30545714,1.30061466,-17.30906118
0.44,44,0.0,-0.998,0.138,2.5783110000000002,0.572958,-0.286479,97.33410504,1.30061466,-17.303331600000003
0.45,45,0.003,-0.997,0.14,2.5783110000000002,0.40107059999999994,-0.3437748,97.32264588,1.27196676,-17.2746837
0.46,46,0.006,-0.998,0.141,2.3491277999999998,0.2291832000000001,-0.40107059999999994,97.35129378,1.27196676,-17.2746837
0.47000000000000003,47,0.009000000000000001,-0.997,0.141,2.1199446,0.11459160000000004,-0.5156622000000001,97.36848252,1.27769634,-17.268954119999997
0.48000000000000004,48,0.006999999999999999,-0.997,0.141,2.0626488000000003,0.057295800000000015,-0.4583664000000001,97.39140084,1.28342592,-17.268954119999997
0.49,49,0.006999999999999999,-0.997,0.139,2.0053530000000004,0.11459160000000004,-0.40107059999999994,97.41431916,1.2891555,-17.268954119999997
0.5,50,0.006,-0.997,0.138,2.1772404,0.2291832000000001,-0.286479,97.37994168,1.24904844,-17.23457664
0.51,51,0.004,-0.996,0.13699999999999998,2.3491277999999998,0.11459160000000004,-0.286479,97.40286,1.25477802,-17.22884706
0.52,52,0.005,-0.998,0.138,2.4064236,-0.057295800000000015,-0.3437748,97.42577832,1.2605076000000002,-17.22884706
0.53,53,0.004,-0.9990000000000001,0.135,2.2345362,-0.286479,-0.40107059999999994,97.44869664,1.2605076000000002,-17.22884706
0.54,54,0.002,-0.9990000000000001,0.136,2.0626488000000003,-0.4583664000000001,-0.4583664000000001,97.47161496,1.26623718,-17.23457664
0.55,55,0.004,-1.002,0.136,1.9480572,-0.4583664000000001,-0.5156622000000001,97.43723748,1.2318597,-17.20592874
0.56,56,0.004,-1.002,0.136,1.9480572,-0.3437748,-0.572958,97.45442622,1.23758928,-17.21165832
0.5700000000000001,57,0.004,-1.002,0.13699999999999998,2.0053530000000004,-0.286479,-0.3437748,97.47734454000002,1.24331886,-17.21165832
0.5800000000000001,58,0.006,-1.001,0.138,2.0626488000000003,-0.286479,-0.40107059999999994,97.50026286,1.24904844,-17.2173879
0.59,59,0.006,-1.0,0.139,2.0626488000000003,-0.3437748,-0.40107059999999994,97.5174516,1.25477802,-17.2173879
0.6,60,0.004,-0.9990000000000001,0.138,1.9480572,-0.5156622000000001,-0.3437748,97.48307412,1.21467096,-17.188740000000006
0.61,61,0.003,-0.998,0.138,1.9480572,-0.6302538000000001,-0.40107059999999994,97.50026286,1.22040054,-17.19446958
0.62,62,0.0,-0.9990000000000001,0.139,1.8907614,-0.572958,-0.40107059999999994,97.52318118,1.22613012,-17.20019916
0.63,63,0.0,-1.0,0.14,1.8907614,-0.11459160000000004,-0.40107059999999994,97.54036992,1.2318597,-17.20019916
0.64,64,0.0,-0.9990000000000001,0.141,1.9480572,0.11459160000000004,-0.3437748,97.56328824,1.23758928,-17.20019916
0.65,65,0.001,-0.998,0.14300000000000002,2.1772404,0.1718874,-0.286479,97.5460995,1.19748222,-17.171551259999998
0.66,66,0.003,-0.998,0.14400000000000002,2.2345362,0.1718874,-0.40107059999999994,97.56901782,1.2032117999999998,-17.16582168
0.67,67,0.004,-1.0,0.147,2.1199446,0.11459160000000004,-0.3437748,97.58620656,1.2032117999999998,-17.16582168
0.68,68,0.004,-1.0,0.146,1.7761698000000001,0.11459160000000004,-0.286479,97.60912488,1.20894138,-17.16582168
0.6900000000000001,69,0.004,-0.9990000000000001,0.146,1.7188740000000002,0.286479,-0.286479,97.62631362,1.20894138,-17.1600921
0.7000000000000001,70,0.003,-0.998,0.146,1.7188740000000002,0.5156622000000001,-0.11459160000000004,97.59766572,1.1745639,-17.131444199999994
0.7100000000000001,71,0.004,-0.997,0.14400000000000002,1.7761698000000001,0.6875496,0.0,97.61485446,1.1745639,-17.11998504
0.72,72,0.004,-0.997,0.142,1.8334656000000005,0.6302538000000001,0.057295800000000015,97.63777278,1.1688343199999998,-17.114255460000006
0.73,73,0.005,-0.997,0.142,1.7761698000000001,0.4583664000000001,0.057295800000000015,97.65496152,1.1688343199999998,-17.108525880000002
0.74,74,0.005,-0.998,0.14300000000000002,1.7761698000000001,0.40107059999999994,0.2291832000000001,97.67215026,1.16310474,-17.108525880000002
0.75,75,0.003,-1.0,0.145,1.6615782,0.3437748,0.2291832000000001,97.64350236,1.1172681,-17.0741484
0.76,76,0.003,-0.9990000000000001,0.14400000000000002,1.7761698000000001,0.3437748,0.1718874,97.6606911,1.1172681,-17.068418819999998
0.77,77,0.002,-0.9990000000000001,0.14400000000000002,1.8907614,0.4583664000000001,0.1718874,97.67787984,1.11153852,-17.068418819999998
0.78,78,0.002,-1.0,0.14400000000000002,1.7761698000000001,0.572958,0.11459160000000004,97.70079816,1.11153852,-17.06268924
0.79,79,0.004,-0.998,0.14400000000000002,-0.11459160000000004,0.572958,0.40107059999999994,97.69506857999998,1.10580894,-17.056959659999997
0.8,80,0.005,-0.998,0.14300000000000002,-0.057295800000000015,0.6875496,0.40107059999999994,97.62058404,1.05424272,-17.01112302
0.81,81,0.006,-0.997,0.145,-0.057295800000000015,0.6875496,0.4583664000000001,97.62058404,1.04851314,-17.00539344
0.8200000000000001,82,0.005,-0.998,0.145,0.0,0.6875496,0.4583664000000001,97.62058404,1.04278356,-16.999663860000002
0.8300000000000001,83,0.005,-0.998,0.146,0.0,0.6302538000000001,0.40107059999999994,97.62058404,1.03705398,-16.9882047
0.8400000000000001,84,0.003,-0.998,0.146,0.0,0.6875496,0.286479,97.62058404,1.0313244000000001,-16.98247512
0.85,85,0.003,-0.9990000000000001,0.14800000000000002,0.0,0.7448454000000001,0.2291832000000001,97.58047698,0.97975818,-16.94809764
0.86,86,0.003,-0.9990000000000001,0.149,0.057295800000000015,0.8594370000000001,0.1718874,97.58047698,0.97975818,-16.94236806
0.87,87,0.004,-0.998,0.14800000000000002,0.0,1.145916,0.11459160000000004,97.58047698,0.9740286,-16.9309089
0.88,88,0.004,-0.997,0.149,-0.057295800000000015,1.2605076000000002,0.1718874,97.58047698,0.96829902,-16.919449739999994
0.89,89,0.005,-0.997,0.14800000000000002,0.0,1.3750992,0.1718874,97.58047698,0.96829902,-16.902261000000006
0.9,90,0.005,-0.997,0.147,0.0,1.432395,0.1718874,97.55182908,0.93965112,-16.873613100000004
0.91,91,0.006999999999999999,-0.996,0.146,0.11459160000000004,1.6615782,0.1718874,97.55182908,0.93392154,-16.85642436
0.92,92,0.009000000000000001,-0.998,0.147,0.057295800000000015,1.8907614,0.1718874,97.55182908,0.92819196,-16.83923562
0.93,93,0.006999999999999999,-0.997,0.14800000000000002,0.0,2.0053530000000004,0.3437748,97.55182908,0.92246238,-16.82204688
0.9400000000000001,94,0.006,-0.9990000000000001,0.14800000000000002,0.057295800000000015,1.9480572,0.286479,97.55755866,0.9167328,-16.79912856
0.9500000000000001,95,0.006999999999999999,-0.9990000000000001,0.149,0.0,2.0626488000000003,0.286479,97.54036992,0.89954406,-16.77048066
0.9600000000000001,96,0.008,-1.001,0.14800000000000002,0.0,1.9480572,0.1718874,97.54036992,0.89381448,-16.753291920000002
0.97,97,0.011000000000000001,-1.001,0.147,0.0,1.4896908000000002,0.057295800000000015,97.54036992,0.8880849000000001,-16.736103179999994
0.98,98,0.012,-1.0,0.152,-0.1718874,1.2032118,0.0,97.54036992,0.8880849000000001,-16.72464402
0.99,99,0.013000000000000001,-1.001,0.152,-0.4583664000000001,1.145916,0.0,97.53464034,0.8880849000000001,-16.71318486
1.0,100,0.013000000000000001,-1.0,0.151,-0.7448454000000001,1.0313244000000001,0.11459160000000004,97.5174516,0.89381448,-16.701725699999994
1.01,101,0.013000000000000001,-1.0,0.151,-1.0313244000000001,0.9740286,0.286479,97.50599244,0.8880849000000001,-16.69599612
1.02,102,0.013000000000000001,-1.001,0.152,-1.2032118,1.0313244000000001,0.4583664000000001,97.49453327999998,0.8823553199999999,-16.68453696
1.03,103,0.012,-1.0,0.153,-1.145916,0.8594370000000001,0.6875496,97.48307412,0.87662574,-16.678807380000002
1.04,104,0.012,-0.9990000000000001,0.154,-1.2032118,0.572958,0.572958,97.47161496,0.87089616,-16.6730778
1.05,105,0.012,-0.998,0.155,-1.432395,0.4583664000000001,0.5156622000000001,97.46588538,0.87089616,-16.6730778
1.06,106,0.011000000000000001,-0.995,0.153,-1.8334656000000005,0.3437748,0.4583664000000001,97.44296706000002,0.86516658,-16.6730778
1.07,107,0.01,-0.993,0.151,-2.0053530000000004,0.1718874,0.4583664000000001,97.42577832,0.8594370000000001,-16.6730778
1.08,108,0.009000000000000001,-0.993,0.147,-2.0053530000000004,0.0,0.40107059999999994,97.40286,0.8594370000000001,-16.6730778
1.09,109,0.008,-0.991,0.14800000000000002,-1.7761698000000001,-0.2291832000000001,0.4583664000000001,97.38567126,0.8537074199999999,-16.6730778
1.1,110,0.01,-0.995,0.149,-1.7188740000000002,-0.40107059999999994,0.40107059999999994,97.36848252,0.8537074199999999,-16.68453696
1.11,111,0.01,-0.997,0.151,-1.7761698000000001,-0.6302538000000001,0.5156622000000001,97.35129378,0.8479778399999999,-16.69026654
1.12,112,0.01,-0.9990000000000001,0.153,-1.9480572,-0.7448454000000001,0.572958,97.33410504,0.8422482600000001,-16.69599612
1.1300000000000001,113,0.008,-1.0,0.154,-2.1199446,-0.8021411999999999,0.5156622000000001,97.31118672,0.83651868,-16.707455279999998
1.1400000000000001,114,0.006,-1.001,0.155,-2.291832,-0.8021411999999999,0.5156622000000001,97.2882684,0.8307891,-16.71891444
1.1500000000000001,115,0.005,-1.0,0.153,-2.4637194,-0.8021411999999999,0.4583664000000001,97.26535008,0.8250595199999999,-16.72464402
1.1600000000000001,116,0.005,-0.996,0.151,-2.4637194,-0.6875496,0.40107059999999994,97.23670218,0.8193299399999999,-16.7303736
1.17,117,0.004,-0.995,0.15,-2.5210152000000003,-0.7448454000000001,0.286479,97.21378386,0.8193299399999999,-16.74183276
1.18,118,0.004,-0.995,0.15,-2.3491277999999998,-0.7448454000000001,0.286479,97.19086554,0.8136003599999999,-16.747562339999998
1.19,119,0.006999999999999999,-0.996,0.14800000000000002,-2.291832,-0.9167328000000001,0.3437748,97.16221764,0.8136003599999999,-16.7590215
1.2,120,0.009000000000000001,-0.995,0.149,-2.1772404,-1.0313244000000001,0.3437748,97.15075848,0.8136003599999999,-16.77048066
1.21,121,0.009000000000000001,-0.996,0.15,-2.1772404,-0.8594370000000001,0.4583664000000001,97.12784016,0.8078707799999998,-16.781939819999998
1.22,122,0.006999999999999999,-0.998,0.152,-1.9480572,-0.7448454000000001,0.5156622000000001,97.10492184,0.8021412000000001,-16.79339898
1.23,123,0.006999999999999999,-0.9990000000000001,0.153,-1.8334656000000005,-0.8594370000000001,0.6302538000000001,97.0877331,0.79641162,-16.79912856
1.24,124,0.006,-0.9990000000000001,0.154,-1.7188740000000002,-1.2032118,0.5156622000000001,97.07054436,0.79641162,-16.81058772
1.25,125,0.005,-0.9990000000000001,0.156,-1.7188740000000002,-1.2605076000000002,0.4583664000000001,97.07627394,0.7906820400000001,-16.83350604
1.26,126,0.006,-0.997,0.156,-1.7188740000000002,-1.3750992,0.4583664000000001,97.05335562,0.7849524600000001,-16.850694779999998
1.27,127,0.005,-0.997,0.157,-2.0626488000000003,-1.3178034,0.286479,97.03616688,0.7849524600000001,-16.86215394
1.28,128,0.006,-0.995,0.154,-2.291832,-1.0313244000000001,0.286479,97.01324856,0.7849524600000001,-16.873613100000004
1.29,129,0.005,-0.9940000000000001,0.153,-2.4064236,-0.9740286,0.3437748,96.98460066,0.7792228800000001,-16.88507226
1.3,130,0.005,-0.9940000000000001,0.151,-2.291832,-1.0313244000000001,0.40107059999999994,96.9731415,0.7734933,-16.89653142
1.31,131,0.006999999999999999,-0.995,0.14800000000000002,-2.291832,-0.9740286,0.4583664000000001,96.95022318,0.7734933,-16.90799058
1.32,132,0.006999999999999999,-0.996,0.149,-2.1199446,-1.0313244000000001,0.5156622000000001,96.92730486,0.76776372,-16.919449739999994
1.33,133,0.006999999999999999,-0.996,0.14800000000000002,-1.9480572,-1.145916,0.6302538000000001,96.91011612,0.76203414,-16.9309089
1.34,134,0.006,-0.996,0.147,-1.8907614,-1.3178034,0.572958,96.8871978,0.75630456,-16.94809764
1.35,135,0.006999999999999999,-0.996,0.14800000000000002,-1.7188740000000002,-1.3178034,0.5156622000000001,96.8871978,0.75630456,-16.96528638
1.36,136,0.006,-0.998,0.149,-1.6615782,-1.2032118,0.40107059999999994,96.87000906,0.75057498,-16.976745540000003
1.37,137,0.006,-0.998,0.149,-1.6042823999999998,-1.3178034,0.4583664000000001,96.85282032,0.75057498,-16.99393428
1.3800000000000001,138,0.006,-0.9990000000000001,0.149,-1.6042823999999998,-1.2605076000000002,0.40107059999999994,96.83563158,0.7448454000000001,-17.00539344
1.3900000000000001,139,0.006,-0.9990000000000001,0.15,-1.6615782,-1.2605076000000002,0.3437748,96.81844284,0.7448454000000001,-17.02258218
1.4000000000000001,140,0.005,-0.9990000000000001,0.149,-1.6615782,-1.3178034,0.3437748,96.81271325999998,0.7391158200000001,-17.039770920000002
1.4100000000000001,141,0.005,-0.998,0.14800000000000002,-1.6042823999999998,-1.145916,0.40107059999999994,96.79552452,0.7391158200000001,-17.05123008
1.42,142,0.005,-0.998,0.14800000000000002,-1.6042823999999998,-1.0886202,0.40107059999999994,96.77833578,0.7391158200000001,-17.06268924
1.43,143,0.004,-0.996,0.149,-1.432395,-1.0886202,0.40107059999999994,96.76687662,0.73338624,-17.0741484
1.44,144,0.004,-0.997,0.14800000000000002,-1.2605076000000002,-1.0313244000000001,0.3437748,96.74968788,0.73338624,-17.085607560000003
1.45,145,0.004,-0.997,0.15,-1.2032118,-1.0886202,0.3437748,96.76687662,0.72765666,-17.1027963
1.46,146,0.005,-0.997,0.15,-1.2032118,-1.145916,0.2291832000000001,96.75541746,0.72765666,-17.11998504
1.47,147,0.005,-0.996,0.14800000000000002,-0.572958,-0.9740286,0.0,96.74968788,0.72765666,-17.12571462
1.48,148,0.006,-0.995,0.151,0.8021411999999999,-0.1718874,-0.3437748,96.75541746,0.72765666,-17.131444199999994
1.49,149,0.004,-0.997,0.153,0.8021411999999999,-0.057295800000000015,-0.286479,96.76687662,0.73338624,-17.131444199999994
1.5,150,0.004,-0.9990000000000001,0.155,0.6302538000000001,0.11459160000000004,-0.3437748,96.83563158,0.72765666,-17.14863294
1.51,151,0.004,-1.001,0.155,0.5156622000000001,0.40107059999999994,-0.2291832000000001,96.84136116,0.73338624,-17.14290336
1.52,152,0.005,-1.002,0.155,0.11459160000000004,0.572958,-0.2291832000000001,96.84136116,0.73338624,-17.13717378
1.53,153,0.006999999999999999,-1.001,0.153,-0.057295800000000015,0.6875496,-0.286479,96.84136116,0.7391158200000001,-17.131444199999994
1.54,154,0.009000000000000001,-1.0,0.15,-0.057295800000000015,0.4583664000000001,-0.3437748,96.84136116,0.7391158200000001,-17.12571462
1.55,155,0.009000000000000001,-0.9990000000000001,0.15,0.0,0.2291832000000001,-0.3437748,96.94449360000002,0.75630456,-17.1600921
1.56,156,0.009000000000000001,-0.9990000000000001,0.149,0.0,0.2291832000000001,-0.40107059999999994,96.93876402,0.76203414,-17.1600921
1.57,157,0.008,-0.997,0.14800000000000002,-0.057295800000000015,0.40107059999999994,-0.286479,96.93876402,0.76203414,-17.15436252
1.58,158,0.006,-0.9990000000000001,0.147,-0.40107059999999994,0.5156622000000001,-0.057295800000000015,96.93876402,0.76203414,-17.14863294
1.59,159,0.005,-0.997,0.147,-0.4583664000000001,0.7448454000000001,0.057295800000000015,96.93303444,0.76203414,-17.14290336
1.6,160,0.005,-0.997,0.149,-0.3437748,0.7448454000000001,0.1718874,96.96741192,0.75057498,-17.14290336
1.61,161,0.005,-0.997,0.151,-0.11459160000000004,0.6302538000000001,0.057295800000000015,96.96741192,0.7448454000000001,-17.13717378
1.62,162,0.006,-0.998,0.153,-0.2291832000000001,0.6302538000000001,0.0,96.96168234,0.7448454000000001,-17.131444199999994
1.6300000000000001,163,0.008,-0.9990000000000001,0.153,-0.40107059999999994,0.6875496,-0.11459160000000004,96.95595276,0.7448454000000001,-17.12571462
1.6400000000000001,164,0.008,-0.997,0.152,-0.6875496,0.6875496,-0.1718874,96.95022318,0.7448454000000001,-17.11998504
1.6500000000000001,165,0.008,-0.996,0.15,-0.8021411999999999,0.7448454000000001,-0.1718874,96.96168234,0.75057498,-17.114255460000006
1.6600000000000001,166,0.008,-0.995,0.14800000000000002,-0.6302538000000001,0.6302538000000001,-0.11459160000000004,96.95595276,0.75057498,-17.108525880000002
1.6700000000000002,167,0.008,-0.995,0.146,-0.4583664000000001,0.572958,-0.057295800000000015,96.95022318,0.75057498,-17.1027963
1.68,168,0.008,-0.996,0.145,-0.286479,0.40107059999999994,0.0,96.94449360000002,0.75057498,-17.1027963
1.69,169,0.006999999999999999,-0.998,0.146,-0.11459160000000004,0.40107059999999994,0.0,96.94449360000002,0.75057498,-17.09706672
1.7,170,0.006,-0.998,0.145,-0.057295800000000015,0.40107059999999994,0.0,96.95022318,0.7391158200000001,-17.09133714
1.71,171,0.006999999999999999,-0.998,0.14400000000000002,0.0,0.3437748,0.0,96.95022318,0.7391158200000001,-17.085607560000003
1.72,172,0.006,-1.0,0.146,0.0,0.5156622000000001,-0.11459160000000004,96.95022318,0.7391158200000001,-17.07987798
1.73,173,0.006,-1.0,0.14400000000000002,0.0,0.572958,0.0,96.95022318,0.7391158200000001,-17.0741484
1.74,174,0.006999999999999999,-0.998,0.14400000000000002,0.0,0.4583664000000001,0.0,96.95022318,0.7391158200000001,-17.0741484
1.75,175,0.008,-0.9990000000000001,0.145,0.11459160000000004,0.4583664000000001,0.0,96.96168234,0.7448454000000001,-17.0741484
1.76,176,0.008,-0.998,0.146,0.1718874,0.3437748,0.0,96.96741192,0.7448454000000001,-17.068418819999998
1.77,177,0.006999999999999999,-0.9990000000000001,0.145,0.1718874,0.40107059999999994,0.0,96.96741192,0.7448454000000001,-17.06268924
1.78,178,0.005,-0.9990000000000001,0.145,0.286479,0.3437748,0.11459160000000004,96.9731415,0.7448454000000001,-17.06268924
1.79,179,0.004,-0.9990000000000001,0.145,0.286479,0.5156622000000001,0.11459160000000004,96.9731415,0.7391158200000001,-17.056959659999997
1.8,180,0.002,-0.998,0.147,0.286479,0.8021411999999999,0.057295800000000015,96.99033024,0.72192708,-17.05123008
1.81,181,0.004,-0.9990000000000001,0.147,0.3437748,0.9167328000000001,0.057295800000000015,96.99605982,0.72192708,-17.039770920000002
1.82,182,0.006999999999999999,-0.9990000000000001,0.146,0.286479,0.8594370000000001,0.0,96.99605982,0.72192708,-17.02831176
1.83,183,0.006999999999999999,-0.9990000000000001,0.147,0.1718874,0.8021411999999999,-0.057295800000000015,97.0017894,0.72192708,-17.02258218
1.84,184,0.006999999999999999,-0.9990000000000001,0.147,0.057295800000000015,0.6302538000000001,-0.057295800000000015,97.0017894,0.72192708,-17.0168526
1.85,185,0.006,-0.9990000000000001,0.146,0.0,0.6875496,0.0,97.01324856,0.72192708,-17.01112302
1.86,186,0.006999999999999999,-0.9990000000000001,0.145,-0.11459160000000004,0.7448454000000001,0.0,97.00751898,0.7161975,-17.00539344
1.87,187,0.006999999999999999,-0.998,0.14400000000000002,0.0,0.8021411999999999,0.0,97.00751898,0.7161975,-16.999663860000002
1.8800000000000001,188,0.008,-0.9990000000000001,0.146,0.057295800000000015,0.8021411999999999,0.057295800000000015,97.01324856,0.7161975,-16.9882047
1.8900000000000001,189,0.009000000000000001,-0.9990000000000001,0.145,0.057295800000000015,0.5156622000000001,0.057295800000000015,97.01324856,0.7104679199999999,-16.98247512
1.9000000000000001,190,0.009000000000000001,-0.9990000000000001,0.14400000000000002,0.0,0.5156622000000001,0.057295800000000015,97.00751898,0.7161975,-16.98247512
1.9100000000000001,191,0.01,-0.9990000000000001,0.14400000000000002,0.0,0.4583664000000001,0.1718874,97.00751898,0.7161975,-16.976745540000003
1.9200000000000002,192,0.009000000000000001,-0.998,0.14300000000000002,0.0,0.40107059999999994,0.2291832000000001,97.00751898,0.7104679199999999,-16.97101596
1.93,193,0.008,-0.9990000000000001,0.14400000000000002,-0.057295800000000015,0.4583664000000001,0.2291832000000001,97.00751898,0.7104679199999999,-16.96528638
1.94,194,0.008,-0.998,0.14300000000000002,0.0,0.4583664000000001,0.1718874,97.00751898,0.70473834,-16.96528638
1.95,195,0.009000000000000001,-0.9990000000000001,0.14400000000000002,0.057295800000000015,0.286479,0.2291832000000001,97.01324856,0.72765666,-16.96528638
1.96,196,0.008,-0.9990000000000001,0.145,0.1718874,0.1718874,0.286479,97.01324856,0.72192708,-16.96528638
1.97,197,0.006999999999999999,-0.9990000000000001,0.147,0.2291832000000001,0.11459160000000004,0.286479,97.01897814,0.72192708,-16.96528638
1.98,198,0.006999999999999999,-0.998,0.14800000000000002,0.1718874,0.057295800000000015,0.1718874,97.01897814,0.72192708,-16.959556799999998
1.99,199,0.006999999999999999,-0.998,0.146,0.0,0.0,0.057295800000000015,97.01897814,0.7161975,-16.959556799999998
2.0,200,0.008,-0.998,0.145,0.0,-0.057295800000000015,0.057295800000000015,97.04189646,0.7391158200000001,-16.97101596
2.01,201,0.008,-0.997,0.147,0.11459160000000004,-0.057295800000000015,0.057295800000000015,97.04189646,0.7391158200000001,-16.976745540000003
2.02,202,0.009000000000000001,-0.996,0.147,0.2291832000000001,-0.1718874,0.057295800000000015,97.04189646,0.7391158200000001,-16.976745540000003
2.03,203,0.009000000000000001,-0.998,0.146,0.286479,-0.40107059999999994,0.0,97.04762603999998,0.7391158200000001,-16.98247512
2.04,204,0.008,-0.997,0.145,0.40107059999999994,-0.4583664000000001,0.0,97.05335562,0.7391158200000001,-16.9882047
2.05,205,0.009000000000000001,-0.997,0.14300000000000002,0.40107059999999994,-0.572958,-0.057295800000000015,97.05335562,0.7448454000000001,-16.9882047
2.0599999999999996,206,0.008,-0.9990000000000001,0.14400000000000002,0.40107059999999994,-0.572958,-0.057295800000000015,97.05908520000001,0.7448454000000001,-16.99393428
2.07,207,0.008,-0.9990000000000001,0.14400000000000002,0.572958,-0.3437748,0.0,97.06481478,0.7448454000000001,-16.999663860000002
2.0799999999999996,208,0.009000000000000001,-1.001,0.14400000000000002,0.4583664000000001,-0.286479,0.11459160000000004,97.07054436,0.7448454000000001,-17.00539344
2.09,209,0.012,-1.002,0.14300000000000002,0.4583664000000001,-0.2291832000000001,0.2291832000000001,97.07627394,0.7448454000000001,-17.00539344
2.0999999999999996,210,0.012,-1.002,0.14300000000000002,0.6302538000000001,-0.286479,0.2291832000000001,97.07627394,0.75630456,-17.01112302
2.11,211,0.011000000000000001,-1.001,0.145,0.7448454000000001,-0.4583664000000001,0.1718874,97.08200352,0.75630456,-17.0168526
2.1199999999999997,212,0.01,-1.001,0.14800000000000002,0.6302538000000001,-0.4583664000000001,0.11459160000000004,97.09346268,0.75630456,-17.02258218
2.13,213,0.009000000000000001,-1.0,0.146,0.4583664000000001,-0.2291832000000001,0.1718874,97.09346268,0.75630456,-17.02258218
2.1399999999999997,214,0.008,-1.0,0.14400000000000002,0.286479,-0.2291832000000001,0.1718874,97.09919226,0.75057498,-17.02258218
2.15,215,0.009000000000000001,-1.0,0.14400000000000002,0.11459160000000004,-0.2291832000000001,0.3437748,97.09346268,0.75630456,-17.02831176
2.1599999999999997,216,0.01,-0.998,0.14400000000000002,0.1718874,-0.2291832000000001,0.40107059999999994,97.09346268,0.75630456,-17.02831176
2.17,217,0.011000000000000001,-0.997,0.146,0.40107059999999994,-0.572958,0.2291832000000001,97.09919226,0.75057498,-17.034041339999998
2.1799999999999997,218,0.013000000000000001,-0.9990000000000001,0.15,0.4583664000000001,-0.6875496,0.1718874,97.10492184,0.75057498,-17.0455005
2.19,219,0.011000000000000001,-1.0,0.151,0.1718874,-0.572958,0.057295800000000015,97.10492184,0.75057498,-17.05123008
2.1999999999999997,220,0.01,-1.0,0.149,-0.057295800000000015,-0.40107059999999994,0.057295800000000015,97.116381,0.76203414,-17.06268924
2.21,221,0.006,-0.998,0.14800000000000002,-0.11459160000000004,-0.1718874,0.11459160000000004,97.116381,0.76203414,-17.06268924
2.2199999999999998,222,0.004,-0.997,0.146,0.0,0.0,0.057295800000000015,97.116381,0.76203414,-17.06268924
2.23,223,0.006,-0.998,0.145,0.057295800000000015,-0.057295800000000015,0.057295800000000015,97.116381,0.75630456,-17.06268924
2.2399999999999998,224,0.008,-0.997,0.14300000000000002,0.0,-0.1718874,0.0,97.116381,0.76203414,-17.06268924
2.25,225,0.01,-0.997,0.142,0.0,-0.286479,-0.057295800000000015,97.10492184,0.7849524600000001,-17.068418819999998
2.26,226,0.01,-0.997,0.142,-0.057295800000000015,-0.4583664000000001,-0.057295800000000015,97.10492184,0.7906820400000001,-17.0741484
2.27,227,0.01,-0.997,0.14300000000000002,0.0,-0.572958,-0.1718874,97.09919226,0.7906820400000001,-17.07987798
2.28,228,0.01,-0.998,0.14400000000000002,0.0,-0.572958,-0.1718874,97.10492184,0.79641162,-17.085607560000003
2.29,229,0.008,-0.9990000000000001,0.14400000000000002,0.11459160000000004,-0.4583664000000001,-0.1718874,97.10492184,0.79641162,-17.09133714
2.3,230,0.006999999999999999,-0.9990000000000001,0.145,0.1718874,-0.11459160000000004,-0.11459160000000004,97.10492184,0.7906820400000001,-17.085607560000003
2.31,231,0.006999999999999999,-0.998,0.14800000000000002,0.40107059999999994,-0.11459160000000004,-0.1718874,97.10492184,0.79641162,-17.09133714
2.32,232,0.006999999999999999,-0.9990000000000001,0.149,0.3437748,-0.11459160000000004,-0.11459160000000004,97.11065142,0.79641162,-17.09133714
2.3299999999999996,233,0.006999999999999999,-1.0,0.149,0.11459160000000004,-0.11459160000000004,-0.1718874,97.11065142,0.8021412000000001,-17.09133714
2.34,234,0.004,-1.001,0.147,0.0,0.0,-0.1718874,97.11065142,0.8021412000000001,-17.09133714
2.3499999999999996,235,0.004,-1.0,0.145,-0.11459160000000004,0.286479,-0.2291832000000001,97.10492184,0.7906820400000001,-17.085607560000003
2.36,236,0.005,-0.9990000000000001,0.146,-0.11459160000000004,0.6875496,-0.2291832000000001,97.10492184,0.7906820400000001,-17.07987798
2.3699999999999997,237,0.008,-0.997,0.147,0.0,0.8021411999999999,-0.286479,97.10492184,0.7906820400000001,-17.068418819999998
2.38,238,0.012,-0.998,0.147,0.0,0.572958,-0.286479,97.10492184,0.79641162,-17.06268924
2.3899999999999997,239,0.012,-0.9990000000000001,0.149,-0.286479,0.1718874,-0.2291832000000001,97.09919226,0.79641162,-17.06268924
2.4,240,0.011000000000000001,-1.0,0.14800000000000002,-0.572958,0.057295800000000015,-0.11459160000000004,97.10492184,0.8078707799999998,-17.06268924
2.4099999999999997,241,0.008,-0.998,0.14800000000000002,-0.7448454000000001,0.1718874,-0.057295800000000015,97.09919226,0.8078707799999998,-17.06268924
2.42,242,0.006999999999999999,-0.998,0.147,-0.6875496,0.40107059999999994,-0.11459160000000004,97.0877331,0.8078707799999998,-17.056959659999997
2.4299999999999997,243,0.008,-1.0,0.14400000000000002,-0.572958,0.5156622000000001,-0.057295800000000015,97.08200352,0.8078707799999998,-17.05123008
2.44,244,0.008,-1.0,0.142,-0.4583664000000001,0.572958,0.0,97.07627394,0.8078707799999998,-17.0455005
2.4499999999999997,245,0.01,-1.0,0.142,-0.3437748,0.5156622000000001,0.0,97.06481478,0.8136003599999999,-17.039770920000002
2.46,246,0.011000000000000001,-0.9990000000000001,0.14300000000000002,-0.2291832000000001,0.4583664000000001,-0.057295800000000015,97.06481478,0.8136003599999999,-17.034041339999998
2.4699999999999998,247,0.008,-0.9990000000000001,0.14,-0.3437748,0.40107059999999994,0.0,97.05908520000001,0.8136003599999999,-17.02831176
2.48,248,0.006999999999999999,-0.9990000000000001,0.141,-0.3437748,0.572958,0.0,97.05908520000001,0.8078707799999998,-17.02258218
2.4899999999999998,249,0.005,-1.0,0.14,-0.40107059999999994,0.7448454000000001,0.0,97.05335562,0.8078707799999998,-17.0168526
2.5,250,0.006,-1.001,0.138,-0.40107059999999994,1.0313244000000001,-0.057295800000000015,97.0304373,0.8021412000000001,-16.999663860000002
2.51,251,0.006,-1.001,0.138,-0.5156622000000001,1.0313244000000001,-0.11459160000000004,97.02470772,0.8021412000000001,-16.9882047
2.52,252,0.006,-1.004,0.138,-0.572958,1.145916,-0.1718874,97.01897814,0.8021412000000001,-16.976745540000003
2.53,253,0.009000000000000001,-1.006,0.136,-0.8021411999999999,1.2032118,-0.286479,97.01324856,0.8021412000000001,-16.96528638
2.54,254,0.01,-1.008,0.131,-1.2032118,1.3750992,-0.3437748,97.0017894,0.8021412000000001,-16.95382722
2.55,255,0.011000000000000001,-1.008,0.13,-1.4896908000000002,1.2605076000000002,-0.286479,96.96741192,0.8078707799999998,-16.93663848
2.56,256,0.011000000000000001,-1.01,0.126,-1.6615782,1.2605076000000002,-0.2291832000000001,96.95022318,0.8078707799999998,-16.92517932
2.57,257,0.013000000000000001,-1.01,0.122,-1.8334656000000005,1.145916,-0.2291832000000001,96.93303444,0.8078707799999998,-16.91372016
2.5799999999999996,258,0.011000000000000001,-1.0090000000000001,0.11800000000000001,-1.9480572,1.145916,-0.2291832000000001,96.9158457,0.8078707799999998,-16.902261000000006
2.59,259,0.011000000000000001,-1.0070000000000001,0.11800000000000001,-1.9480572,1.0313244000000001,-0.40107059999999994,96.89292738,0.8136003599999999,-16.89080184
2.5999999999999996,260,0.009000000000000001,-1.0070000000000001,0.11699999999999999,-2.1199446,0.8594370000000001,-0.572958,96.84709073999998,0.8136003599999999,-16.873613100000004
2.61,261,0.008,-1.008,0.11599999999999999,-2.3491277999999998,0.9740286,-0.6875496,96.82417242,0.8193299399999999,-16.86215394
2.6199999999999997,262,0.006999999999999999,-1.01,0.115,-2.7501984,1.2032118,-0.7448454000000001,96.79552452,0.8250595199999999,-16.850694779999998
2.63,263,0.005,-1.013,0.11199999999999999,-3.2658606,1.5469866,-0.8594370000000001,96.76114704,0.8307891,-16.83350604
2.6399999999999997,264,0.001,-1.016,0.10800000000000001,-3.8388186,2.0053530000000004,-1.145916,96.72103998,0.8422482600000001,-16.8163173
2.65,265,0.0,-1.0190000000000001,0.10400000000000001,-4.297185,2.5783110000000002,-1.4896908000000002,96.66374418,0.8479778399999999,-16.781939819999998
2.6599999999999997,266,0.0,-1.0190000000000001,0.10099999999999999,-4.6982555999999995,3.0366774,-1.8907614,96.61217795999998,0.86516658,-16.753291920000002
2.67,267,0.001,-1.02,0.098,-5.2139178,3.4950437999999995,-2.1772404,96.56061174,0.87662574,-16.71891444
2.6799999999999997,268,0.006999999999999999,-1.023,0.095,-6.0160589999999985,4.010706000000001,-2.4637194,96.49758636,0.89954406,-16.6730778
2.69,269,0.01,-1.026,0.09,-6.875496000000001,4.297185,-2.5210152000000003,96.4288314,0.9167328,-16.632970739999998
2.6999999999999997,270,0.013000000000000001,-1.026,0.081,-7.906820400000001,4.3544808,-2.5210152000000003,96.33715812,0.93392154,-16.58140452
2.71,271,0.013999999999999999,-1.024,0.07400000000000001,-8.9381448,4.583664,-2.4637194,96.24548484,0.95111028,-16.53556788
2.7199999999999998,272,0.016,-1.02,0.07,-9.568398599999998,4.6982555999999995,-2.3491277999999998,96.14808198,0.96829902,-16.48973124
2.73,273,0.015,-1.0170000000000001,0.066,-10.1413566,4.4690724,-2.291832,96.04494954,0.98548776,-16.4438946
2.7399999999999998,274,0.013999999999999999,-1.016,0.064,-10.7143146,4.2398892,-2.291832,95.93608752,1.0026765,-16.39805796
2.75,275,0.016,-1.018,0.06,-11.401864199999999,4.2398892,-2.4064236,95.80430718,1.01986524,-16.35222132
2.76,276,0.019,-1.0170000000000001,0.052000000000000005,-12.2040054,4.1825934,-2.5783110000000002,95.683986,1.04278356,-16.312114259999998
2.77,277,0.022000000000000002,-1.014,0.043,-12.891555,4.4117766,-2.9220858,95.55220566,1.06570188,-16.26627762
2.78,278,0.027000000000000003,-1.0090000000000001,0.031,-13.407217200000002,4.010706000000001,-2.9220858,95.41469573999998,1.0886202,-16.22617056
2.79,279,0.031,-1.006,0.022000000000000002,-13.5791046,3.380452200000001,-2.7501984,95.27718582,1.11153852,-16.19179308
2.8,280,0.033,-1.0090000000000001,0.023,-13.6936962,2.6356068,-2.5210152000000003,95.11675757999998,1.13445684,-16.16314518
2.81,281,0.036000000000000004,-1.012,0.025,-14.438541599999999,1.5469866,-2.3491277999999998,94.97351808,1.1573751600000002,-16.14595644
2.82,282,0.038,-1.015,0.027999999999999997,-16.1001198,0.572958,-2.1772404,94.80736026,1.1745639,-16.140226860000002
2.8299999999999996,283,0.042,-1.018,0.023,-18.449247600000003,0.11459160000000004,-1.9480572,94.62401369999999,1.19175264,-16.140226860000002
2.84,284,0.049,-1.021,0.015,-20.8556712,0.11459160000000004,-1.7188740000000002,94.41201924,1.20894138,-16.140226860000002
2.8499999999999996,285,0.051,-1.0190000000000001,0.005,-23.5485738,0.2291832000000001,-1.3178034,94.15418814,1.22613012,-16.134497279999998
2.86,286,0.052000000000000005,-1.014,-0.004,-26.356068,-0.11459160000000004,-0.9167328000000001,93.89062746,1.2318597,-16.140226860000002
2.8699999999999997,287,0.046,-1.008,-0.019,-30.022999199999997,-2.2345362,-0.40107059999999994,93.58123014,1.23758928,-16.16314518
2.88,288,0.037000000000000005,-0.997,-0.026000000000000002,-33.0596766,-3.1512689999999997,-0.1718874,93.24891449999998,1.23758928,-16.197522659999994
2.8899999999999997,289,0.028999999999999998,-0.983,-0.039,-35.5806918,-3.1512689999999997,-0.2291832000000001,92.88795096,1.24331886,-16.23190014
2.9,290,0.022000000000000002,-0.975,-0.045,-37.9298196,-3.2085647999999996,-0.5156622000000001,92.49260994,1.24331886,-16.26627762
2.9099999999999997,291,0.024,-0.953,-0.027000000000000003,-40.10706,-3.380452200000001,-1.3178034,92.08580976,1.2605076000000002,-16.30638468
2.92,292,0.025,-0.9279999999999999,0.005,-41.0810886,-3.8388186,-2.4064236,91.66755042,1.28342592,-16.34649174
2.9299999999999997,293,0.027000000000000003,-0.9009999999999999,0.028999999999999998,-41.252976000000004,-4.6982555999999995,-3.2085647999999996,91.2435615,1.31207382,-16.39805796
2.94,294,0.03,-0.882,0.025,-41.7113424,-5.6149884000000005,-3.6096353999999997,90.81957258,1.3464512999999998,-16.461083340000002
2.9499999999999997,295,0.031,-0.871,0.012,-43.48751220000001,-6.417129599999999,-3.6669312000000014,90.37839492,1.38655836,-16.5298383
2.96,296,0.028999999999999998,-0.866,0.005,-44.2896534,-7.6203414,-3.6096353999999997,89.9257581,1.4209358399999998,-16.61005242
2.9699999999999998,297,0.025,-0.863,0.002,-44.2323576,-9.0527364,-3.6096353999999997,89.47885086,1.45531332,-16.701725699999994
2.98,298,0.023,-0.8690000000000001,0.009000000000000001,-44.0031744,-10.4278356,-3.8961144,89.02621404,1.4896908000000002,-16.81058772
2.9899999999999998,299,0.02,-0.885,0.015,-43.3729206,-11.2299768,-4.6982555999999995,88.58503637999998,1.53552744,-16.9309089
3.0,300,0.019,-0.9179999999999999,0.017,-42.97185,-11.2299768,-6.3598338,88.14958829999998,1.59282324,-17.0455005
3.01,301,0.013999999999999999,-0.958,0.027999999999999997,-42.5134836,-10.7143146,-8.59437,87.7198698,1.6787669399999998,-17.1600921
3.02,302,0.016,-1.0,0.018000000000000002,-42.456187799999995,-9.0527364,-10.7716104,87.28442172,1.7761698000000001,-17.25749496
3.03,303,0.027999999999999997,-1.03,-0.001,-42.62807520000001,-5.0993262,-11.8602306,86.84897364,1.8907614,-17.32052034
3.04,304,0.043,-1.036,-0.016,-41.9405256,-2.7501984,-10.7143146,86.42498472,1.99389384,-17.3606274
3.05,305,0.057999999999999996,-1.018,-0.022000000000000002,-41.0237928,-1.3178034,-7.6776372,86.00672538,2.06837838,-17.383545719999994
3.06,306,0.07200000000000001,-0.992,-0.02,-39.7059894,-0.9167328000000001,-3.6669312000000014,85.60565478000002,2.10275586,-17.40073446
3.07,307,0.08199999999999999,-0.975,-0.02,-38.61736920000001,-2.1772404,-0.057295800000000015,85.21031375999998,2.09702628,-17.42365278
3.08,308,0.079,-0.965,-0.027000000000000003,-37.3568616,-4.8128472,1.8907614,84.83216148,2.07410796,-17.475219
3.09,309,0.065,-0.953,-0.032,-35.122325399999994,-8.021412000000002,2.2345362,84.47119794,2.03973048,-17.55543312
3.0999999999999996,310,0.043,-0.937,-0.039,-32.830493399999995,-11.2299768,1.145916,84.13888229999998,2.02254174,-17.67002472
3.11,311,0.021,-0.9209999999999999,-0.043,-30.080295,-13.521808800000002,-2.1199446,83.82948498,2.02827132,-17.80753464
3.1199999999999997,312,0.006,-0.914,-0.048,-28.3041252,-13.2353298,-5.443101,83.54300598,2.06837838,-17.95077414
3.13,313,0.0,-0.9179999999999999,-0.047,-27.3873924,-11.9748222,-7.7922288,83.25652698,2.13140376,-18.0768249
3.1399999999999997,314,-0.001,-0.92,-0.055999999999999994,-27.3873924,-10.5424272,-8.3651868,82.97577756,2.2058883,-18.197146080000003
3.15,315,0.003,-0.922,-0.07400000000000001,-27.6165756,-9.396511199999999,-7.0473834,82.69502814,2.25745452,-18.30027852
3.1599999999999997,316,0.006999999999999999,-0.92,-0.08,-27.3873924,-8.3651868,-5.1566220000000005,82.41427872,2.29756158,-18.3919518
3.17,317,0.019,-0.9229999999999999,-0.10400000000000001,-26.7571386,-7.0473834,-3.380452200000001,82.13925888,2.3204799,-18.46643634
3.1799999999999997,318,0.037000000000000005,-0.929,-0.122,-26.069589,-5.5003968,-2.291832,81.8756982,2.3376686399999995,-18.52946172
3.19,319,0.048,-0.935,-0.124,-24.1788276,-6.130650599999999,-2.0053530000000004,81.62359668,2.3491278,-18.5924871
3.1999999999999997,320,0.052000000000000005,-0.934,-0.128,-22.7464326,-7.448453999999999,-2.2345362,81.3886839,2.36058696,-18.67270122
3.21,321,0.051,-0.9279999999999999,-0.133,-21.829699800000004,-8.59437,-3.0366774,81.16523028,2.3777757,-18.7643745
3.2199999999999998,322,0.048,-0.929,-0.147,-21.7151082,-9.3392154,-4.2398892,80.94177666,2.4064236,-18.86177736
3.23,323,0.046,-0.941,-0.152,-21.371333399999997,-9.3392154,-5.443101,80.72405262,2.44653066,-18.9649098
3.2399999999999998,324,0.039,-0.953,-0.165,-21.2567418,-9.682990199999999,-6.0733548,80.500599,2.4923672999999997,-19.07377182
3.25,325,0.035,-0.96,-0.17800000000000002,-20.9702628,-9.9694692,-5.6722842,80.28287496,2.53247436,-19.18263384
3.26,326,0.031,-0.958,-0.18,-19.767051000000002,-10.3705398,-4.4690724,80.07661008,2.55539268,-19.29149586
3.27,327,0.037000000000000005,-0.956,-0.196,-17.7044022,-10.599723,-3.3231564,79.89326352,2.57258142,-19.40608746
3.28,328,0.037000000000000005,-0.9570000000000001,-0.192,-15.068795399999999,-11.1153852,-2.4064236,79.73856486,2.578311,-19.52067906
3.29,329,0.033,-0.9640000000000001,-0.185,-12.834259199999998,-11.5164558,-1.8334656000000005,79.60105494000003,2.578311,-19.63527066
3.3,330,0.028999999999999998,-0.9590000000000001,-0.179,-10.7716104,-11.6310474,-1.7761698000000001,79.48646334,2.57258142,-19.75559184
3.31,331,0.018000000000000002,-0.946,-0.179,-8.9954406,-11.45916,-2.4064236,79.38906048,2.578311,-19.87018344
3.32,332,0.01,-0.93,-0.171,-7.161975,-10.828906199999999,-3.4377480000000005,79.31457594,2.59549974,-19.98477504
3.33,333,0.006,-0.9159999999999999,-0.17,-5.7868758000000025,-9.740286,-5.0993262,79.25155056000001,2.62987722,-20.08790748
3.34,334,0.009000000000000001,-0.904,-0.172,-4.6409598,-7.7922288,-6.8182002000000015,79.19998434,2.68144344,-20.17958076
3.3499999999999996,335,0.01,-0.897,-0.17600000000000002,-3.6096353999999997,-6.3025379999999975,-7.5630456000000015,79.15414770000002,2.73873924,-20.2540653
3.36,336,0.015,-0.887,-0.174,-2.9220858,-5.5003968,-7.161975,79.11977021999998,2.80176462,-20.32282026
3.3699999999999997,337,0.026000000000000002,-0.875,-0.168,-2.5210152000000003,-5.5003968,-5.958763200000001,79.09112232,2.85333084,-20.38584564
3.38,338,0.043,-0.863,-0.18600000000000005,-2.4064236,-5.9014674000000005,-4.5263682,79.06247442,2.88770832,-20.454600600000006
3.3899999999999997,339,0.052000000000000005,-0.857,-0.193,-1.2605076000000002,-6.7609043999999985,-2.86479,79.05101526000001,2.90489706,-20.52335556
3.4,340,0.044000000000000004,-0.863,-0.204,0.057295800000000015,-8.136003599999999,-1.0886202,79.02809694,2.89916748,-20.60356968
3.4099999999999997,341,0.025,-0.865,-0.217,1.3750992,-9.2819196,0.2291832000000001,79.0395561,2.88197874,-20.69524296
3.42,342,0.001,-0.86,-0.21,3.4950437999999995,-9.3392154,0.3437748,79.07393358,2.86479,-20.78691624
3.4299999999999997,343,-0.01,-0.8490000000000001,-0.201,6.0733548,-7.8495246,-1.2032118,79.13122938000002,2.86479,-20.86713036
3.44,344,-0.016,-0.836,-0.213,6.703608600000001,-6.3025379999999975,-2.7501984,79.19425475999998,2.88197874,-20.93015574
3.4499999999999997,345,-0.026000000000000002,-0.8240000000000001,-0.19899999999999998,8.4224826,-4.2398892,-4.010706000000001,79.26873930000002,2.90489706,-20.97599238
3.46,346,-0.032,-0.838,-0.213,10.026765,-2.1199446,-4.5263682,79.37187173999997,2.94500412,-21.00464028
3.4699999999999998,347,-0.019,-0.8540000000000001,-0.23800000000000002,10.5424272,0.057295800000000015,-4.2398892,79.48073375999998,2.99084076,-21.01036986
3.48,348,-0.013999999999999999,-0.887,-0.248,12.5477802,1.6042823999999998,-3.8961144,79.60678451999998,3.03094782,-20.9989107
3.4899999999999998,349,-0.009000000000000001,-0.91,-0.251,14.667724800000002,1.8907614,-3.2085647999999996,79.75575359999998,3.0653253000000005,-20.98745154
3.5,350,-0.001,-0.91,-0.253,17.18874,2.1199446,-2.7501984,79.91045226,3.08824362,-20.96453322
3.51,351,0.006999999999999999,-0.8909999999999999,-0.273,20.05353,2.5210152000000003,-2.9220858,80.11098756,3.1226211000000004,-20.9416149
3.52,352,0.015,-0.875,-0.268,23.605869600000002,3.1512689999999997,-3.4950437999999995,80.35162992,3.1627281600000003,-20.912967
3.53,353,0.017,-0.872,-0.256,26.642546999999997,3.4377480000000005,-4.3544808,80.62664975999998,3.214294380000001,-20.884319100000006
3.54,354,0.013999999999999999,-0.863,-0.257,28.877083199999998,4.0680017999999984,-5.0993262,80.91885834,3.27159018,-20.84994162
3.55,355,0.006999999999999999,-0.8540000000000001,-0.248,31.22621100000001,5.3285094000000015,-5.443101,81.22825566,3.33461556,-20.798375399999998
3.56,356,0.0,-0.846,-0.233,33.5753388,7.1046792000000005,-5.7868758000000025,81.57203046,3.40337052,-20.73535002
3.57,357,-0.004,-0.848,-0.226,35.7525792,9.1100322,-6.0160589999999985,81.93872358,3.47785506,-20.64940632
3.58,358,-0.005,-0.856,-0.222,38.445481799999996,11.0007936,-5.958763200000001,82.32833502,3.5523396000000003,-20.54627388
3.59,359,-0.005,-0.867,-0.22,41.5967508,13.2926256,-5.6722842,82.75805352,3.62109456,-20.41449354
3.5999999999999996,360,0.002,-0.878,-0.207,43.65939960000001,14.9542038,-5.2139178,83.19923118,3.68984952,-20.27125404
3.61,361,0.012,-0.884,-0.213,45.72204840000001,16.7876694,-4.9847346,83.67478632,3.75860448,-20.10509622
3.6199999999999997,362,0.022000000000000002,-0.8740000000000001,-0.23,48.4722468,18.506543399999998,-4.7555514,84.17325978,3.82162986,-19.92174966
3.63,363,0.024,-0.8690000000000001,-0.237,51.3943326,19.4232762,-4.2398892,84.70611072,3.88465524,-19.72694394
3.6399999999999997,364,0.017,-0.8740000000000001,-0.244,54.0299394,20.340009,-3.3231564,85.26760956,3.93049188,-19.52640864
3.65,365,0.001,-0.8690000000000001,-0.23800000000000002,56.436363,21.199446,-2.2345362,85.84056756,3.9648693599999993,-19.308684600000007
3.6599999999999997,366,-0.017,-0.856,-0.237,58.38442020000001,22.345361999999998,-1.4896908000000002,86.44790304,3.99351726,-19.079501399999998
3.67,367,-0.034,-0.833,-0.225,60.9627312,24.5798982,-0.9167328000000001,87.07815683999998,4.01643558,-18.83312946
3.6799999999999997,368,-0.044000000000000004,-0.7979999999999999,-0.209,62.22323879999999,27.3300966,-1.2032118,87.72559937999998,4.0393539,-18.55238004
3.69,369,-0.045,-0.758,-0.19399999999999998,63.1972674,30.366774000000003,-2.6356068,88.38450107999998,4.07373138,-18.24298272
3.6999999999999997,370,-0.022000000000000002,-0.713,-0.18,63.712929599999995,33.2888598,-4.1825934,89.04340278,4.11383844,-17.9049375
3.71,371,0.01,-0.6679999999999999,-0.18100000000000002,64.28588760000001,35.9244666,-5.5003968,89.71949322,4.17113424,-17.54397396
3.7199999999999998,372,0.054000000000000006,-0.645,-0.18,66.11935319999999,36.38283300000001,-6.3025379999999975,90.41277240000001,4.22843004,-17.17728084
3.73,373,0.07,-0.65,-0.151,69.4425096,35.5806918,-5.958763200000001,91.14042906,4.27999626,-16.8163173
3.7399999999999998,374,0.06,-0.659,-0.11800000000000001,71.44786260000002,35.52339600000001,-6.130650599999999,91.88527446,4.325832900000001,-16.44962418
3.75,375,0.067,-0.65,-0.08199999999999999,72.5364828,37.81522800000001,-6.4744254,92.64157902,4.37166954,-16.06574232
3.76,376,0.095,-0.625,-0.075,71.9635248,40.2789474,-6.990087599999999,93.39788358,4.4117766000000005,-15.65321256
3.77,377,0.12300000000000001,-0.61,-0.08,71.1613836,40.7373138,-7.906820400000001,94.14845856,4.45761324,-15.23495322
3.78,378,0.106,-0.586,-0.08,69.72898860000001,39.247623,-8.651665800000002,94.88184479999998,4.50917946,-14.83388262
3.79,379,0.063,-0.579,-0.067,67.83822719999999,37.0703826,-8.9381448,95.59231272,4.56074568,-14.45573034
3.8,380,0.019,-0.564,-0.042,65.14532460000001,35.809875,-8.307891,96.27413274,4.59512316,-14.08330764
3.81,381,-0.003,-0.55,-0.059000000000000004,65.66098679999999,33.1742682,-7.6776372,96.96741192,4.629500640000002,-13.73953284
3.82,382,0.0,-0.5710000000000001,-0.079,65.08802879999999,30.3094782,-6.703608600000001,97.64923194,4.65814854,-13.42440594
3.83,383,0.022000000000000002,-0.618,-0.065,64.17129600000001,29.67922440000001,-6.703608600000001,98.3195928,4.675337279999999,-13.120738199999998
3.84,384,0.04,-0.631,-0.067,65.4890994,29.5646328,-5.844171599999999,99.0071424,4.68679644,-12.81134088
3.8499999999999996,385,0.052000000000000005,-0.579,0.006,68.2392978,28.2468294,-4.1825934,99.71761032,4.68106686,-12.5191323
3.86,386,0.049,-0.52,0.09,77.40662579999999,29.163562199999998,-2.1199446,100.51975152,4.64668938,-12.226923719999998
3.8699999999999997,387,0.075,-0.531,0.013999999999999999,76.77637200000002,33.0596766,0.3437748,101.32189272,4.57793442,-11.89460808
3.88,388,0.071,-0.537,-0.012,78.8390208,24.923673,4.1825934,102.14122266,4.48053156,-11.65396572
3.8899999999999997,389,0.023,-0.511,0.051,85.42803780000001,15.870936600000002,6.589017,103.0178484,4.3831287,-11.50499664
3.9,390,0.043,-0.53,0.10400000000000001,91.95975899999999,16.902261,4.3544808,103.95749951999998,4.30291458,-11.33883882
3.9099999999999997,391,0.067,-0.5579999999999999,0.10400000000000001,98.09040959999999,19.767051000000002,0.6875496,104.96590559999999,4.24561878,-11.13830352
3.92,392,0.07200000000000001,-0.581,0.113,104.6794266,20.6837838,-2.291832,106.04306663999998,4.21697088,-10.92057948
3.9299999999999997,393,0.067,-0.605,0.142,111.5549226,24.064236,-2.9793816000000004,107.18898264,4.17686382,-10.67420754
3.94,394,0.057,-0.6,0.146,117.2272068,27.6738714,-1.3178034,108.39219444,4.102379279999999,-10.39345812
3.9499999999999997,395,0.04,-0.589,0.11,122.9567868,28.877083199999998,1.2605076000000002,109.65270204,3.99351726,-10.1127087
3.96,396,0.038,-0.5870000000000001,0.142,129.3166206,28.877083199999998,4.297185,110.9819646,3.85027776,-9.84341844
3.9699999999999998,397,0.068,-0.588,0.182,134.931609,30.080295,6.3598338,112.36279338,3.67839036,-9.57412818
3.98,398,0.114,-0.586,0.152,141.9789924,28.5906042,7.3911582,113.8181067,3.4950437999999995,-9.32775624
3.9899999999999998,399,0.157,-0.595,0.157,150.00040439999995,26.642546999999997,7.734933000000002,115.34790456,3.31742682,-9.10430262
4.0,400,0.17,-0.61,0.198,156.70401299999997,23.2620948,9.224623800000002,116.94645738,3.13408026,-8.91522648
4.01,401,0.125,-0.616,0.20600000000000002,162.8919594,20.1108258,11.5737516,118.602306,2.93354496,-8.77198698
4.02,402,0.042,-0.605,0.17800000000000002,168.6788352,17.7044022,14.381245800000002,120.31545042,2.7215505,-8.66885454
4.03,403,-0.057999999999999996,-0.58,0.205,174.2938236,18.1054728,16.1001198,122.08589064,2.4923672999999997,-8.57718126
4.04,404,-0.075,-0.607,0.267,177.96075480000005,23.0329116,16.329303,123.89643792,2.22880662,-8.45686008
4.05,405,-0.028999999999999998,-0.7020000000000001,0.305,179.2212624,29.8511118,17.761698000000006,125.71271477999998,1.90795014,-8.29070226
4.06,406,-0.008,-0.799,0.33799999999999997,176.9294304,33.0596766,21.314037600000002,127.50607332,1.53552744,-8.136003599999999
4.07,407,-0.044000000000000004,-0.9570000000000001,0.43799999999999994,174.00734459999995,30.022999199999997,22.5745452,129.27651354,1.1688343199999998,-8.02714158
4.08,408,-0.07400000000000001,-1.139,0.484,167.1891444,29.793815999999996,20.454600600000006,130.96673964,0.8136003599999999,-7.91254998
4.09,409,-0.07200000000000001,-1.232,0.627,162.54818459999996,31.22621100000001,22.631841,132.61685868,0.4297185000000001,-7.815147120000002
4.1,410,-0.051,-1.419,0.9670000000000001,166.90266540000005,32.142943800000005,32.7731976,134.30708478,-0.028647900000000007,-7.792228800000001
4.109999999999999,411,-0.004,-1.419,1.183,172.0019916,31.3980984,34.0337052,136.0488771,-0.4984734599999999,-7.79795838
4.12,412,-0.051,-1.273,1.6880000000000002,174.12193620000005,24.9809688,23.3766864,137.81358774,-0.8422482600000001,-7.780769640000001
4.13,413,0.005,-0.631,1.97,178.8201918,28.1895336,16.157415599999997,139.62413501999998,-1.1688343199999998,-7.6948259399999985
4.14,414,0.14300000000000002,-0.066,2.025,189.4199148,20.6837838,13.407217200000002,141.53781474,-1.42666542,-7.648989299999997
4.1499999999999995,415,-0.040999999999999995,0.059000000000000004,2.424,249.40861740000003,5.3285094000000015,20.7983754,144.07601868,-1.6042824000000002,-7.75212174
4.16,416,-0.187,0.35100000000000003,2.965,697.6909565999997,-10.7143146,32.945085,151.16350914,-1.7188740000000002,-7.9927641000000005
4.17,417,-0.003,-0.23,2.91,202.4833572,57.58227899999999,19.365980399999998,153.20896919999996,-2.33193906,-7.889631660000001
4.18,418,-0.092,-0.389,2.408,94.1369994,30.022999199999997,4.1825934,154.1543499,-2.62414764,-7.78649922
4.1899999999999995,419,-0.39399999999999996,-0.18600000000000005,2.701,208.04104980000002,57.4103916,22.6891368,156.25710576,-3.25440144,-7.746392160000001
4.2,420,-0.018000000000000002,0.061,2.568,206.72324640000002,40.33624320000001,17.3606274,158.34840246000005,-3.71276784,-7.734933000000002
4.21,421,-0.63,-0.18600000000000005,2.636,229.8134538,38.961144,14.381245800000002,160.67461194,-4.14248634,-7.717744259999999
4.22,422,-0.434,0.139,2.4459999999999997,207.4680918,56.436363,14.8396122,162.77163822,-4.73836266,-7.677637200000001
4.2299999999999995,423,-0.44,0.284,2.4019999999999997,195.2640864,44.8626114,13.636400400000001,164.74834332,-5.22537696,-7.671907620000002
4.24,424,-0.20800000000000002,-0.266,2.344,178.41912119999995,30.882436199999997,14.381245800000002,166.55889059999996,-5.574881339999999,-7.72347384
4.25,425,-0.27,-0.21899999999999997,2.167,156.47482979999995,15.928232399999999,15.297978599999999,168.15744342,-5.77541664,-7.82660628
4.26,426,-0.168,-0.10800000000000001,1.9380000000000002,137.7391032,4.6409598,15.527161800000002,169.56692009999998,-5.861360339999999,-7.9583866200000015
4.27,427,-0.225,-0.044000000000000004,1.594,125.191323,-3.380452200000001,14.7250206,170.85034602,-5.86708992,-8.09589654
4.28,428,-0.113,-0.168,1.531,117.57098159999998,-7.6203414,12.0894138,172.05928740000004,-5.82125328,-8.210488139999999
4.29,429,-0.11199999999999999,-0.284,1.381,121.98275819999999,-5.042030400000002,11.9748222,173.30833583999996,-5.79833496,-8.325079740000001
4.3,430,-0.106,-0.18100000000000002,1.2919999999999998,128.8009584,0.9740286,13.407217200000002,174.63186882,-5.83844202,-8.44540092
4.31,431,-0.13699999999999998,-0.01,1.36,129.4312122,3.8388186,12.4331886,175.9554018,-5.9014674000000005,-8.554262940000001
4.32,432,-0.126,-0.221,1.41,118.94608079999999,2.86479,12.6623718,177.17580234,-5.9473040400000015,-8.66885454
4.33,433,-0.078,-0.20600000000000002,1.344,108.002583,-1.7188740000000002,15.126091199999998,178.28734086,-5.9473040400000015,-8.81209404
4.34,434,-0.175,-0.09300000000000001,1.327,93.0483792,-7.8495246,14.0947668,179.24418071999997,-5.88427866,-8.94387438
4.35,435,-0.154,0.006999999999999999,1.251,73.5678072,-10.828906199999999,13.636400400000001,-179.98329654,-5.7868758,-9.07565472
4.36,436,-0.16699999999999998,0.092,1.129,59.24385720000001,-12.2040054,13.0634424,-179.37023148,-5.6722842,-9.1959759
4.37,437,-0.149,0.113,1.056,50.82137460000001,-14.7823164,12.7196676,-178.83738054,-5.53477428,-9.3105675
4.38,438,-0.114,0.114,0.961,48.6441342,-12.891555,13.6936962,-178.33317749999995,-5.40872352,-9.43661826
4.39,439,-0.07400000000000001,0.038,0.743,43.7166954,-10.657018800000001,13.0061466,-177.87481110000004,-5.2998615,-9.55693944
4.3999999999999995,440,-0.073,0.006999999999999999,0.703,44.6334282,-7.5057497999999985,12.7196676,-177.41071512,-5.22537696,-9.67726062
4.41,441,-0.054000000000000006,0.09,0.7070000000000001,45.607456799999994,-5.2139178,12.4331886,-176.94088956000004,-5.17381074,-9.79185222
4.42,442,-0.048,0.037000000000000005,0.6829999999999999,45.1490904,-2.9220858,11.3445684,-176.47106399999996,-5.14516284,-9.90071424
4.43,443,-0.065,0.14800000000000002,0.68,43.544808,-1.0313244000000001,8.880849000000003,-176.01842718,-5.13370368,-9.98092836
4.4399999999999995,444,-0.067,0.147,0.708,38.2162986,0.5156622000000001,5.9014674000000005,-175.62881574,-5.13943326,-10.03822416
4.45,445,-0.067,0.10400000000000001,0.763,34.262888399999994,2.0626488000000003,3.7242269999999995,-175.27358178,-5.1566220000000005,-10.07833122
4.46,446,-0.06,0.106,0.802,24.4080108,2.3491277999999998,1.9480572,-175.02148026,-5.1852699,-10.10124954
4.47,447,-0.07400000000000001,0.10300000000000001,0.856,13.8082878,2.6929026,1.3178034,-174.87824075999995,-5.2139178,-10.1127087
4.4799999999999995,448,-0.07400000000000001,0.08199999999999999,0.883,5.9014674000000005,2.4064236,0.9167328000000001,-174.82094496,-5.23683612,-10.12416786
4.49,449,-0.076,0.037000000000000005,0.903,-2.1772404,1.7761698000000001,0.8594370000000001,-174.84386328,-5.25402486,-10.13562702
4.5,450,-0.078,0.069,0.904,-8.7662574,0.572958,1.0886202,-174.93553656,-5.25402486,-10.14708618
4.51,451,-0.08199999999999999,0.040999999999999995,0.925,-14.32395,-1.0886202,0.6875496,-175.07877606,-5.2425657,-10.15281576
4.52,452,-0.078,0.047,0.92,-20.626488000000002,-2.6356068,0.0,-175.29077052,-5.2139178,-10.15281576
4.53,453,-0.087,0.053,0.902,-25.4393352,-3.3231564,-0.5156622000000001,-175.54860162,-5.17954032,-10.14708618
4.54,454,-0.073,0.061,0.899,-28.5906042,-2.9220858,-0.9167328000000001,-175.83508062,-5.14516284,-10.13562702
4.55,455,-0.08900000000000001,0.048,0.9079999999999999,-31.1689152,-1.8907614,-2.0626488000000003,-176.15593710000005,-5.127974099999999,-10.1127087
4.56,456,-0.079,0.052000000000000005,0.92,-33.9764094,0.286479,-2.9793816000000004,-176.50544148,-5.127974099999999,-10.08979038
4.57,457,-0.077,0.059000000000000004,0.938,-35.8671708,3.0366774,-4.0680017999999984,-176.87213459999995,-5.1566220000000005,-10.04968332
4.58,458,-0.09,0.064,0.9620000000000001,-37.9298196,5.72958,-4.8701430000000006,-177.26174604,-5.20818822,-10.00957626
4.59,459,-0.08199999999999999,0.068,0.981,-39.7632852,7.6203414,-4.9847346,-177.66854622,-5.2826727600000005,-9.969469199999999
4.6,460,-0.10800000000000001,0.048,1.031,-42.05511720000001,9.9694692,-4.9847346,-178.1039943,-5.38007562,-9.92936214
4.61,461,-0.114,0.057999999999999996,1.06,-43.65939960000001,11.5737516,-4.7555514,-178.55090153999996,-5.48893764,-9.88925508
4.62,462,-0.10099999999999999,0.032,1.069,-44.6334282,11.45916,-4.3544808,-179.00926794,-5.59779966,-9.8548776
4.63,463,-0.11599999999999999,0.025,1.084,-44.0031744,8.651665800000002,-3.7242269999999995,-179.46190475999995,-5.67801378,-9.826229699999999
4.64,464,-0.105,0.016,1.109,-41.3675676,5.2139178,-3.8961144,-179.88589368,-5.72385042,-9.79185222
4.6499999999999995,465,-0.11599999999999999,0.006,1.125,-37.81522800000001,0.8594370000000001,-3.4950437999999995,179.71973586,-5.72958,-9.75747474
4.66,466,-0.11199999999999999,-0.017,1.122,-34.262888399999994,-2.5210152000000003,-3.1512689999999997,179.37023148,-5.7009320999999975,-9.72882684
4.67,467,-0.131,-0.038,1.117,-30.7105488,-5.6722842,-2.7501984,179.05510458,-5.6436363,-9.70590852
4.68,468,-0.14400000000000002,-0.033,1.117,-26.929026,-7.734933000000002,-2.0053530000000004,178.78008474,-5.56342218,-9.68871978
4.6899999999999995,469,-0.109,-0.05,1.099,-22.4599536,-9.224623800000002,-1.145916,178.55663112,-5.466019319999999,-9.67726062
4.7,470,-0.11,-0.044000000000000004,1.093,-18.2200644,-9.740286,-0.6875496,178.36755498,-5.37434604,-9.67153104
4.71,471,-0.1,-0.03,1.082,-14.4958374,-9.0527364,-0.4583664000000001,178.21858590000005,-5.2826727600000005,-9.66580146
4.72,472,-0.114,-0.037000000000000005,1.072,-11.9748222,-8.651665800000002,-0.11459160000000004,178.09826472,-5.19672906,-9.66580146
4.7299999999999995,473,-0.095,-0.048,1.052,-9.224623800000002,-8.479778399999999,0.3437748,178.00659144000005,-5.11078536,-9.67153104
4.74,474,-0.094,-0.042,1.035,-7.1046792000000005,-8.651665800000002,0.572958,177.93783648000004,-5.02484166,-9.67726062
4.75,475,-0.09300000000000001,-0.039,1.0270000000000001,-5.3285094000000015,-9.453807,0.5156622000000001,177.88054068,-4.93316838,-9.6829902
4.76,476,-0.099,-0.039,1.0290000000000001,-4.4117766,-10.4851314,0.572958,177.83470404,-4.83003594,-9.68871978
4.77,477,-0.096,-0.033,1.04,-4.297185,-11.5164558,0.7448454000000001,177.79459698,-4.71544434,-9.70017894
4.78,478,-0.096,-0.03,1.0490000000000002,-4.8128472,-12.834259199999998,0.6875496,177.74876034,-4.5836640000000015,-9.7116381
4.79,479,-0.092,-0.03,1.053,-6.1879464,-14.610429000000002,0.6302538000000001,177.69146454000003,-4.4404245000000016,-9.71736768
4.8,480,-0.084,-0.034,1.043,-8.021412000000002,-16.2147114,0.6875496,177.61125041999995,-4.27999626,-9.72882684
4.81,481,-0.08199999999999999,-0.037000000000000005,1.023,-10.313244000000001,-17.7044022,0.572958,177.50811798,-4.102379279999999,-9.740286
4.82,482,-0.07,-0.034,1.006,-13.0634424,-18.048177,0.3437748,177.38206722,-3.9247623,-9.746015580000002
4.83,483,-0.061,-0.027999999999999997,1.004,-15.4125702,-17.5325148,0.11459160000000004,177.22736856,-3.74714532,-9.75174516
4.84,484,-0.061,-0.023,1.014,-17.131444199999994,-14.667724800000002,0.0,177.05548116,-3.59817624,-9.75747474
4.85,485,-0.065,-0.018000000000000002,1.03,-19.136797199999997,-12.6623718,0.0,176.86640502,-3.47212548,-9.76320432
4.86,486,-0.067,-0.013999999999999999,1.041,-21.4286292,-10.7143146,0.0,176.64868098,-3.36326346,-9.7689339
4.87,487,-0.068,-0.013999999999999999,1.038,-22.4599536,-8.4224826,0.057295800000000015,176.42522736,-3.27731976,-9.77466348
4.88,488,-0.064,-0.016,1.0070000000000001,-22.345361999999998,-6.9327918,-0.057295800000000015,176.20177374,-3.2085648000000004,-9.77466348
4.89,489,-0.062,-0.013000000000000001,0.9940000000000001,-21.199446,-6.130650599999999,-0.572958,175.9840497,-3.14553942,-9.77466348
4.8999999999999995,490,-0.057,-0.035,0.987,-19.767051000000002,-5.5576926,-1.0313244000000001,175.78924398,-3.08824362,-9.7689339
4.91,491,-0.059000000000000004,-0.012,0.985,-18.277360199999997,-5.042030400000002,-1.5469866,175.60589742,-3.03094782,-9.75747474
4.92,492,-0.047,-0.10099999999999999,0.998,-16.959556799999998,-4.1252976000000015,-1.9480572,175.43401002000004,-2.99084076,-9.740286
4.93,493,-0.055999999999999994,-0.063,0.986,-13.8082878,-3.6096353999999997,-1.8907614,175.29077052,-2.9507337000000002,-9.72882684
4.9399999999999995,494,-0.049,-0.115,0.986,-11.45916,-3.2658606,-1.6042823999999998,175.17617892,-2.91635622,-9.7116381
4.95,495,-0.059000000000000004,-0.102,0.981,-9.167328,-3.6096353999999997,-1.7761698000000001,175.09023522,-2.87624916,-9.70017894
4.96,496,-0.059000000000000004,-0.063,0.971,-7.734933000000002,-3.0366774,-1.3750992,175.01002110000005,-2.84760126,-9.68871978
4.97,497,-0.067,-0.099,1.01,-8.193299399999999,-2.4064236,-1.0886202,174.92980698,-2.81895336,-9.67726062
4.9799999999999995,498,-0.07,-0.07400000000000001,1.031,-8.3651868,-2.6929026,-1.3750992,174.84386328,-2.79030546,-9.66580146
4.99,499,-0.069,-0.052000000000000005,1.034,-8.880849000000003,-1.8334656000000005,-1.2032118,174.75218999999996,-2.77311672,-9.66007188
5.0,500,-0.023,-0.092,1.042,-10.313244000000001,-0.6302538000000001,-1.145916,174.67197588000005,-2.77311672,-9.64861272
5.01,501,-0.091,-0.085,1.021,-10.828906199999999,-1.9480572,-1.0886202,174.55738428,-2.75592798,-9.64288314
5.02,502,-0.031,-0.111,1.0090000000000001,-9.8548776,-3.7242269999999995,-1.0886202,174.45998142000005,-2.71582092,-9.63715356
5.03,503,-0.095,-0.12300000000000001,1.0270000000000001,-9.7975818,-6.3598338,-0.4583664000000001,174.36257856,-2.65279554,-9.63715356
5.04,504,-0.022000000000000002,-0.068,1.054,-8.3651868,-7.0473834,-0.8021411999999999,174.27663486,-2.578311,-9.63142398
5.05,505,-0.048,-0.12,1.04,-9.568398599999998,-6.0733548,-1.4896908000000002,174.19069116,-2.48663772,-9.6256944
5.06,506,-0.057,-0.062,1.008,-11.2872726,-3.2085647999999996,-0.9740286,174.07609956000005,-2.45226024,-9.61996482
5.07,507,-0.047,-0.129,0.997,-13.0061466,-3.6096353999999997,-1.4896908000000002,173.94431922,-2.41215318,-9.60850566
5.08,508,-0.064,-0.036000000000000004,0.987,-13.178034,-2.8074942000000003,-1.0313244000000001,173.8068093,-2.38350528,-9.60277608
5.09,509,-0.067,-0.11599999999999999,0.972,-13.464512999999998,-4.010706000000001,-0.9740286,173.66929938,-2.3376686399999995,-9.5970465
5.1,510,-0.059000000000000004,-0.076,1.002,-11.917526400000002,-4.0680017999999984,-0.572958,173.57189652,-2.30329116,-9.5970465
5.11,511,-0.03,-0.159,1.031,-12.2040054,-4.010706000000001,-0.286479,173.44584576,-2.2631841,-9.5970465
5.12,512,-0.032,-0.155,1.005,-8.9954406,-6.417129599999999,-1.5469866,173.35417248000005,-2.20015872,-9.59131692
5.13,513,-0.078,-0.062,1.022,-6.3598338,-3.3231564,-0.7448454000000001,173.29114710000005,-2.1657812400000003,-9.58558734
5.14,514,-0.009000000000000001,-0.11699999999999999,1.037,-6.3598338,-2.2345362,-1.8334656000000005,173.22812172000005,-2.13713334,-9.568398599999998
5.1499999999999995,515,-0.098,-0.129,1.05,-5.9014674000000005,0.572958,-1.0313244000000001,173.10780054,-2.17151082,-9.55120986
5.16,516,-0.002,-0.085,1.016,-4.3544808,0.5156622000000001,-1.6042823999999998,173.0619639,-2.1772404,-9.53402112
5.17,517,-0.01,-0.126,1.033,-3.8961144,-0.3437748,-1.145916,173.02185684,-2.17151082,-9.52256196
5.18,518,-0.025,-0.1,1.067,-2.8074942000000003,2.291832,-1.2032118,172.99320894,-2.18869956,-9.50537322
5.1899999999999995,519,-0.057999999999999996,-0.126,1.07,-3.6669312000000014,3.6669312000000014,-1.2032118,172.95883146,-2.22307704,-9.49391406
5.2,520,-0.037000000000000005,-0.18,0.987,-4.9847346,5.72958,-2.2345362,172.85569902,-2.2631841,-9.45953658
5.21,521,-0.021,-0.135,0.9440000000000001,-6.3025379999999975,5.9014674000000005,-3.0939732,172.79267364,-2.3147503200000004,-9.41942952
5.22,522,-0.06,-0.13699999999999998,0.9940000000000001,-3.9534102,-3.3231564,-2.5783110000000002,172.75256658,-2.28037284,-9.3965112
5.2299999999999995,523,-0.055,-0.13,1.011,-0.9740286,-4.8128472,-2.3491277999999998,172.74110742,-2.22880662,-9.37932246
5.24,524,-0.048,-0.151,1.022,2.4637194,1.5469866,-2.1199446,172.76402574,-2.24026578,-9.35640414
5.25,525,-0.054000000000000006,-0.136,1.011,3.7815228,5.72958,-2.1772404,172.79840322,-2.30329116,-9.32775624
5.26,526,-0.052000000000000005,-0.135,0.998,5.72958,5.9014674000000005,-1.5469866,172.85569902,-2.36058696,-9.30483792
5.27,527,-0.066,-0.06,1.011,5.6722842,5.958763200000001,-0.7448454000000001,172.91299482,-2.41788276,-9.29337876
5.28,528,-0.033,-0.163,0.982,4.297185,4.1825934,-0.4583664000000001,172.95310188000005,-2.45798982,-9.2819196
5.29,529,-0.052000000000000005,-0.177,0.878,-0.286479,-2.1772404,-0.8594370000000001,172.95310188000005,-2.4350715000000003,-9.27619002
5.3,530,-0.042,-0.152,0.8959999999999999,-2.4064236,-0.6302538000000001,-0.11459160000000004,172.90153565999995,-2.42934192,-9.27046044
5.31,531,-0.035,-0.136,0.929,-4.010706000000001,9.5111028,0.40107059999999994,172.86142859999995,-2.5210152000000003,-9.27046044
5.32,532,-0.043,-0.132,0.9470000000000001,-2.4064236,13.0634424,0.7448454000000001,172.83278069999997,-2.65279554,-9.26473086
5.33,533,-0.053,-0.126,0.9790000000000001,1.5469866,9.3392154,0.9740286,172.84423986000004,-2.74446882,-9.26473086
5.34,534,-0.053,-0.125,0.998,5.443101,4.2398892,0.8021411999999999,172.90153565999995,-2.79030546,-9.27046044
5.35,535,-0.051,-0.121,1.006,7.6776372,2.4637194,0.572958,172.97602020000005,-2.81322378,-9.27046044
5.36,536,-0.052000000000000005,-0.115,1.004,7.8495246,3.6096353999999997,0.40107059999999994,173.05623432,-2.85333084,-9.27046044
5.37,537,-0.055999999999999994,-0.11,1.001,6.3025379999999975,4.0680017999999984,0.2291832000000001,173.1192597,-2.8934379,-9.27046044
5.38,538,-0.057999999999999996,-0.109,1.0070000000000001,4.4117766,3.7242269999999995,0.2291832000000001,173.16509634,-2.93354496,-9.27046044
5.39,539,-0.059000000000000004,-0.11,1.016,2.8074942000000003,4.3544808,0.1718874,173.19374424,-2.9736520200000003,-9.26473086
5.3999999999999995,540,-0.06,-0.111,1.0190000000000001,1.8334656000000005,5.6149884000000005,0.11459160000000004,173.21093298,-3.0366774000000003,-9.26473086
5.41,541,-0.061,-0.111,1.016,1.4896908000000002,6.2452422,0.0,173.22812172000005,-3.0997027800000003,-9.25900128
5.42,542,-0.062,-0.113,1.012,0.9740286,6.3598338,0.0,173.2338513,-3.1627281600000003,-9.253271699999999
5.43,543,-0.062,-0.10800000000000001,1.013,0.40107059999999994,6.4744254,-0.057295800000000015,173.23958088,-3.2257535399999995,-9.24181254
5.4399999999999995,544,-0.065,-0.107,1.015,0.3437748,6.3025379999999975,-0.057295800000000015,173.23958088,-3.28877892,-9.23608296
5.45,545,-0.067,-0.106,1.018,0.0,5.1566220000000005,-0.11459160000000004,173.24531045999996,-3.34607472,-9.23035338
5.46,546,-0.067,-0.106,1.016,-0.5156622000000001,3.7242269999999995,-0.11459160000000004,173.23958088,-3.38618178,-9.23035338
5.47,547,-0.068,-0.10800000000000001,1.0090000000000001,-1.3178034,2.3491277999999998,-0.2291832000000001,173.22812172000005,-3.4091001000000003,-9.224623800000002
5.4799999999999995,548,-0.068,-0.10800000000000001,1.001,-2.1772404,1.2605076000000002,-0.2291832000000001,173.20520340000004,-3.42055926,-9.21889422
5.49,549,-0.071,-0.107,1.0,-2.8074942000000003,0.6875496,-0.286479,173.1765555,-3.42628884,-9.21889422
5.5,550,-0.07200000000000001,-0.105,0.998,-3.0939732,0.40107059999999994,-0.2291832000000001,173.15363718,-3.44347758,-9.21316464
5.51,551,-0.073,-0.10400000000000001,0.998,-3.2085647999999996,0.5156622000000001,-0.11459160000000004,173.1192597,-3.4492071599999994,-9.21316464
5.52,552,-0.073,-0.10400000000000001,0.993,-2.9220858,0.8594370000000001,0.057295800000000015,173.0906118,-3.45493674,-9.21316464
5.53,553,-0.073,-0.10300000000000001,0.996,-2.6356068,1.2032118,0.2291832000000001,173.0619639,-3.47212548,-9.21889422
5.54,554,-0.07400000000000001,-0.102,1.004,-2.0053530000000004,1.7188740000000002,0.4583664000000001,173.04477516000003,-3.48931422,-9.21889422
5.55,555,-0.075,-0.105,1.014,-1.145916,1.8907614,0.7448454000000001,173.05050474,-3.5236917,-9.23035338
5.56,556,-0.073,-0.10400000000000001,1.026,-0.1718874,1.8907614,0.9167328000000001,173.05050474,-3.54088044,-9.23608296
5.57,557,-0.073,-0.107,1.034,1.0886202,2.0626488000000003,0.9740286,173.0619639,-3.56379876,-9.24181254
5.58,558,-0.07200000000000001,-0.11,1.037,2.3491277999999998,2.291832,0.9167328000000001,173.08488222,-3.58671708,-9.253271699999999
5.59,559,-0.071,-0.111,1.033,3.3231564,2.4064236,0.9740286,173.1192597,-3.61536498,-9.25900128
5.6,560,-0.07200000000000001,-0.113,1.028,4.010706000000001,2.1772404,0.8594370000000001,173.15936676,-3.6382833,-9.26473086
5.61,561,-0.07200000000000001,-0.111,1.023,4.2398892,1.9480572,0.6875496,173.20520340000004,-3.66120162,-9.27046044
5.62,562,-0.07200000000000001,-0.113,1.015,4.3544808,1.6042823999999998,0.6302538000000001,173.25104004,-3.67839036,-9.27619002
5.63,563,-0.073,-0.114,1.01,4.3544808,0.8594370000000001,0.572958,173.29114710000005,-3.68984952,-9.27619002
5.64,564,-0.07200000000000001,-0.114,1.0070000000000001,4.1252976000000015,-0.11459160000000004,0.5156622000000001,173.33698374,-3.68984952,-9.2819196
5.6499999999999995,565,-0.07200000000000001,-0.113,1.004,3.7815228,-1.3750992,0.4583664000000001,173.37136121999995,-3.67839036,-9.28764918
5.66,566,-0.071,-0.113,1.002,3.4377480000000005,-2.5210152000000003,0.4583664000000001,173.4057387,-3.65547204,-9.29337876
5.67,567,-0.071,-0.113,1.0,3.0939732,-3.1512689999999997,0.3437748,173.44011618,-3.62682414,-9.29910834
5.68,568,-0.069,-0.113,0.9990000000000001,2.86479,-3.6096353999999997,0.3437748,173.46876408,-3.59244666,-9.30483792
5.6899999999999995,569,-0.069,-0.11199999999999999,1.0,2.3491277999999998,-3.8388186,0.3437748,173.4916824,-3.5523396000000003,-9.31629708
5.7,570,-0.068,-0.11199999999999999,1.0,1.6615782,-3.6669312000000014,0.286479,173.50314156,-3.5236917,-9.31629708
5.71,571,-0.068,-0.111,1.002,1.0313244000000001,-3.6096353999999997,0.286479,173.51460072,-3.48931422,-9.32202666
5.72,572,-0.067,-0.10800000000000001,1.002,0.40107059999999994,-3.2658606,0.3437748,173.5203303,-3.45493674,-9.33348582
5.7299999999999995,573,-0.068,-0.10800000000000001,1.005,-0.11459160000000004,-3.0366774,0.3437748,173.5203303,-3.42628884,-9.3392154
5.74,574,-0.068,-0.10800000000000001,1.008,-0.6875496,-2.9220858,0.40107059999999994,173.51460072,-3.39764094,-9.34494498
5.75,575,-0.067,-0.10800000000000001,1.006,-1.2605076000000002,-2.6929026,0.4583664000000001,173.49741197999995,-3.380452200000001,-9.350674559999998
5.76,576,-0.067,-0.10800000000000001,1.006,-1.6615782,-2.5783110000000002,0.4583664000000001,173.48022324,-3.35753388,-9.35640414
5.77,577,-0.067,-0.10800000000000001,1.01,-1.9480572,-2.2345362,0.4583664000000001,173.4630345,-3.33461556,-9.36213372
5.78,578,-0.067,-0.107,1.013,-2.0626488000000003,-2.0053530000000004,0.5156622000000001,173.44011618,-3.31742682,-9.37359288
5.79,579,-0.066,-0.109,1.013,-1.8907614,-2.0053530000000004,0.4583664000000001,173.42292744000005,-3.2945085,-9.37932246
5.8,580,-0.065,-0.11,1.013,-1.7188740000000002,-1.7188740000000002,0.5156622000000001,173.4057387,-3.28877892,-9.38505204
5.81,581,-0.065,-0.11,1.012,-1.432395,-1.5469866,0.5156622000000001,173.39427954,-3.27159018,-9.39078162
5.82,582,-0.065,-0.11,1.012,-1.0313244000000001,-1.3178034,0.5156622000000001,173.38282038,-3.26013102,-9.3965112
5.83,583,-0.064,-0.111,1.014,-0.6875496,-1.3750992,0.5156622000000001,173.37709080000005,-3.24294228,-9.407970359999998
5.84,584,-0.065,-0.11,1.016,-0.7448454000000001,-1.5469866,0.5156622000000001,173.37136121999995,-3.2314831199999987,-9.41369994
5.85,585,-0.064,-0.11,1.016,-0.6875496,-1.8907614,0.4583664000000001,173.35990206000002,-3.22002396,-9.41942952
5.86,586,-0.064,-0.109,1.0170000000000001,-0.5156622000000001,-2.291832,0.40107059999999994,173.35417248000005,-3.19710564,-9.4251591
5.87,587,-0.064,-0.11,1.013,-0.40107059999999994,-2.4064236,0.3437748,173.34844289999995,-3.1741873200000006,-9.43088868
5.88,588,-0.063,-0.109,1.01,-0.3437748,-2.3491277999999998,0.3437748,173.34844289999995,-3.1512689999999997,-9.43661826
5.89,589,-0.063,-0.10800000000000001,1.0090000000000001,-0.40107059999999994,-2.2345362,0.3437748,173.34271332,-3.12835068,-9.44234784
5.8999999999999995,590,-0.064,-0.107,1.011,-0.3437748,-2.1199446,0.2291832000000001,173.34271332,-3.13408026,-9.44234784
5.91,591,-0.061,-0.11,1.011,-0.2291832000000001,-1.6042823999999998,0.3437748,173.33698374,-3.11689152,-9.44807742
5.92,592,-0.062,-0.107,1.011,-0.11459160000000004,-1.3750992,0.286479,173.33698374,-3.1054323600000004,-9.453807000000001
5.93,593,-0.061,-0.109,1.014,0.057295800000000015,-1.0886202,0.286479,173.33698374,-3.0939732,-9.45953658
5.9399999999999995,594,-0.062,-0.10800000000000001,1.015,0.3437748,-0.8021411999999999,0.2291832000000001,173.34271332,-3.08824362,-9.45953658
5.95,595,-0.062,-0.109,1.015,0.4583664000000001,-0.572958,0.2291832000000001,173.35417248000005,-3.11689152,-9.46526616
5.96,596,-0.061,-0.109,1.014,0.572958,-0.286479,0.1718874,173.35990206000002,-3.11116194,-9.46526616
5.97,597,-0.062,-0.109,1.012,0.6875496,-0.057295800000000015,0.11459160000000004,173.36563164,-3.11116194,-9.46526616
5.9799999999999995,598,-0.061,-0.11,1.012,0.7448454000000001,0.0,0.11459160000000004,173.37709080000005,-3.11116194,-9.47099574
5.99,599,-0.061,-0.11,1.013,0.6875496,0.2291832000000001,0.11459160000000004,173.38282038,-3.11689152,-9.47099574
6.0,600,-0.061,-0.11,1.013,0.6875496,0.286479,0.11459160000000004,173.38282038,-3.1398098400000003,-9.47099574
6.01,601,-0.061,-0.111,1.011,0.572958,0.4583664000000001,0.11459160000000004,173.38854996,-3.14553942,-9.47099574
6.02,602,-0.062,-0.11,1.011,0.572958,0.4583664000000001,0.057295800000000015,173.39427954,-3.1512689999999997,-9.47099574
6.03,603,-0.062,-0.109,1.014,0.572958,0.40107059999999994,0.057295800000000015,173.4057387,-3.1512689999999997,-9.47099574
6.04,604,-0.062,-0.11,1.013,0.572958,0.4583664000000001,0.11459160000000004,173.41146827999995,-3.15699858,-9.47099574
6.05,605,-0.062,-0.111,1.011,0.572958,0.5156622000000001,0.0,173.40000912,-3.18564648,-9.46526616
6.06,606,-0.062,-0.111,1.0070000000000001,0.6875496,0.5156622000000001,0.11459160000000004,173.41146827999995,-3.1913760600000005,-9.47099574
6.07,607,-0.062,-0.11,1.008,0.6875496,0.6875496,0.057295800000000015,173.41719786,-3.19710564,-9.47099574
6.08,608,-0.062,-0.111,1.01,0.6302538000000001,0.8594370000000001,0.057295800000000015,173.42292744000005,-3.2085648000000004,-9.47099574
6.09,609,-0.063,-0.11,1.012,0.4583664000000001,0.8594370000000001,0.0,173.42865702,-3.214294380000001,-9.47099574
6.1,610,-0.063,-0.111,1.013,0.2291832000000001,0.6875496,0.0,173.42292744000005,-3.24294228,-9.46526616
6.11,611,-0.063,-0.111,1.012,0.057295800000000015,0.6302538000000001,0.0,173.42292744000005,-3.2486718599999995,-9.46526616
6.12,612,-0.063,-0.111,1.011,0.0,0.6875496,0.057295800000000015,173.42292744000005,-3.25440144,-9.46526616
6.13,613,-0.064,-0.11,1.01,0.0,0.6302538000000001,0.11459160000000004,173.42292744000005,-3.2658606,-9.46526616
6.14,614,-0.065,-0.109,1.011,-0.057295800000000015,0.8021411999999999,0.0,173.42292744000005,-3.27159018,-9.46526616
6.15,615,-0.064,-0.109,1.011,-0.057295800000000015,0.6875496,0.057295800000000015,173.42292744000005,-3.3059676599999994,-9.46526616
6.16,616,-0.065,-0.10800000000000001,1.01,-0.057295800000000015,0.4583664000000001,0.1718874,173.42292744000005,-3.3116972399999995,-9.47099574
6.17,617,-0.064,-0.11,1.0090000000000001,-0.286479,0.3437748,0.057295800000000015,173.42292744000005,-3.31742682,-9.47099574
6.18,618,-0.065,-0.10800000000000001,1.0090000000000001,-0.4583664000000001,0.2291832000000001,0.11459160000000004,173.41719786,-3.31742682,-9.47099574
6.1899999999999995,619,-0.064,-0.109,1.0090000000000001,-0.4583664000000001,0.1718874,0.1718874,173.41146827999995,-3.31742682,-9.47099574
6.2,620,-0.065,-0.109,1.01,-0.40107059999999994,0.0,0.11459160000000004,173.39427954,-3.3518043,-9.47099574
6.21,621,-0.065,-0.109,1.012,-0.2291832000000001,-0.1718874,0.2291832000000001,173.39427954,-3.3518043,-9.47099574
6.22,622,-0.063,-0.11,1.014,-0.2291832000000001,-0.40107059999999994,0.1718874,173.39427954,-3.34607472,-9.47672532
6.2299999999999995,623,-0.063,-0.11,1.014,-0.286479,-0.3437748,0.1718874,173.38854996,-3.34034514,-9.47672532
6.24,624,-0.064,-0.11,1.013,-0.286479,-0.3437748,0.11459160000000004,173.38854996,-3.34034514,-9.47672532
6.25,625,-0.064,-0.11,1.011,-0.1718874,-0.40107059999999994,0.11459160000000004,173.37709080000005,-3.3518043,-9.47672532
6.26,626,-0.064,-0.11,1.011,-0.11459160000000004,-0.2291832000000001,0.11459160000000004,173.37136121999995,-3.34607472,-9.4824549
6.27,627,-0.064,-0.11,1.011,-0.1718874,-0.11459160000000004,0.1718874,173.37136121999995,-3.34607472,-9.4824549
6.28,628,-0.065,-0.109,1.0090000000000001,-0.286479,-0.057295800000000015,0.11459160000000004,173.37136121999995,-3.34607472,-9.4824549
6.29,629,-0.064,-0.109,1.008,-0.2291832000000001,-0.11459160000000004,0.11459160000000004,173.36563164,-3.34607472,-9.48818448
6.3,630,-0.065,-0.109,1.013,-0.3437748,0.1718874,0.1718874,173.37136121999995,-3.36326346,-9.48818448
6.31,631,-0.065,-0.109,1.012,-0.40107059999999994,0.057295800000000015,0.057295800000000015,173.36563164,-3.36326346,-9.48818448
6.32,632,-0.064,-0.109,1.012,-0.3437748,-0.057295800000000015,0.11459160000000004,173.35990206000002,-3.36326346,-9.49391406
6.33,633,-0.063,-0.111,1.012,-0.40107059999999994,-0.1718874,0.11459160000000004,173.35990206000002,-3.35753388,-9.49391406
6.34,634,-0.064,-0.11,1.01,-0.3437748,-0.2291832000000001,0.057295800000000015,173.35417248000005,-3.35753388,-9.49391406
6.35,635,-0.064,-0.111,1.01,-0.286479,-0.2291832000000001,0.11459160000000004,173.32552458,-3.380452200000001,-9.48818448
6.36,636,-0.064,-0.111,1.014,-0.1718874,-0.2291832000000001,0.11459160000000004,173.32552458,-3.380452200000001,-9.49391406
6.37,637,-0.066,-0.11199999999999999,1.014,-0.2291832000000001,-0.40107059999999994,0.057295800000000015,173.32552458,-3.37472262,-9.49391406
6.38,638,-0.064,-0.111,1.015,-0.286479,-0.572958,0.11459160000000004,173.319795,-3.3689930400000003,-9.49391406
6.39,639,-0.064,-0.11199999999999999,1.013,-0.1718874,-0.572958,0.057295800000000015,173.319795,-3.36326346,-9.49391406
6.4,640,-0.064,-0.11,1.01,-0.2291832000000001,-0.572958,0.057295800000000015,173.30833583999996,-3.3689930400000003,-9.49391406
6.41,641,-0.064,-0.111,1.0090000000000001,-0.3437748,-0.6302538000000001,0.1718874,173.30260626,-3.36326346,-9.49964364
6.42,642,-0.064,-0.111,1.0090000000000001,-0.3437748,-0.6302538000000001,0.11459160000000004,173.30260626,-3.35753388,-9.49964364
6.43,643,-0.064,-0.111,1.0090000000000001,-0.3437748,-0.4583664000000001,0.11459160000000004,173.29687668,-3.3518043,-9.49964364
6.4399999999999995,644,-0.064,-0.11,1.0090000000000001,-0.1718874,-0.4583664000000001,0.1718874,173.29687668,-3.34607472,-9.50537322
6.45,645,-0.063,-0.11,1.0070000000000001,-0.1718874,-0.3437748,0.11459160000000004,173.29687668,-3.35753388,-9.50537322
6.46,646,-0.063,-0.111,1.008,-0.057295800000000015,-0.40107059999999994,0.11459160000000004,173.29687668,-3.3518043,-9.50537322
6.47,647,-0.063,-0.11,1.011,-0.057295800000000015,-0.286479,0.11459160000000004,173.29687668,-3.3518043,-9.5111028
6.4799999999999995,648,-0.064,-0.11199999999999999,1.011,-0.11459160000000004,-0.286479,0.1718874,173.29114710000005,-3.34607472,-9.5111028
6.49,649,-0.064,-0.11199999999999999,1.013,-0.11459160000000004,-0.40107059999999994,0.11459160000000004,173.29114710000005,-3.34607472,-9.5111028
6.5,650,-0.064,-0.11199999999999999,1.012,-0.11459160000000004,-0.286479,0.11459160000000004,173.28541751999995,-3.35753388,-9.5111028
6.51,651,-0.063,-0.11199999999999999,1.012,-0.057295800000000015,-0.3437748,0.11459160000000004,173.28541751999995,-3.3518043,-9.51683238
6.52,652,-0.064,-0.11199999999999999,1.012,0.0,-0.4583664000000001,0.11459160000000004,173.28541751999995,-3.34607472,-9.51683238
6.53,653,-0.065,-0.111,1.011,0.0,-0.40107059999999994,0.057295800000000015,173.28541751999995,-3.34607472,-9.51683238
6.54,654,-0.063,-0.111,1.011,0.2291832000000001,-0.11459160000000004,0.0,173.29114710000005,-3.34034514,-9.51683238
6.55,655,-0.063,-0.113,1.011,0.2291832000000001,-0.2291832000000001,0.0,173.27395836,-3.36326346,-9.5111028
6.56,656,-0.064,-0.111,1.01,0.2291832000000001,-0.286479,0.0,173.27395836,-3.35753388,-9.5111028
6.57,657,-0.063,-0.111,1.011,0.2291832000000001,-0.286479,0.0,173.27395836,-3.35753388,-9.5111028
6.58,658,-0.063,-0.111,1.01,0.3437748,-0.057295800000000015,0.0,173.27968793999997,-3.35753388,-9.5111028
6.59,659,-0.063,-0.11,1.008,0.3437748,0.0,0.0,173.28541751999995,-3.35753388,-9.5111028
6.6,660,-0.063,-0.111,1.008,0.3437748,0.286479,0.057295800000000015,173.27968793999997,-3.3689930400000003,-9.5111028
6.61,661,-0.063,-0.11,1.011,0.1718874,0.5156622000000001,0.057295800000000015,173.28541751999995,-3.37472262,-9.5111028
6.62,662,-0.063,-0.11199999999999999,1.012,0.057295800000000015,0.1718874,0.0,173.28541751999995,-3.37472262,-9.5111028
6.63,663,-0.064,-0.11199999999999999,1.012,0.0,0.057295800000000015,-0.057295800000000015,173.28541751999995,-3.37472262,-9.5111028
6.64,664,-0.063,-0.11199999999999999,1.012,-0.1718874,0.057295800000000015,0.0,173.27968793999997,-3.380452200000001,-9.5111028
6.65,665,-0.063,-0.11199999999999999,1.0090000000000001,-0.057295800000000015,0.057295800000000015,0.0,173.27395836,-3.380452200000001,-9.5111028
6.66,666,-0.063,-0.11199999999999999,1.01,0.0,0.0,0.0,173.27395836,-3.380452200000001,-9.5111028
6.67,667,-0.062,-0.11199999999999999,1.011,0.0,0.0,0.0,173.27395836,-3.380452200000001,-9.5111028
6.68,668,-0.062,-0.11199999999999999,1.011,0.11459160000000004,0.0,0.0,173.27395836,-3.380452200000001,-9.5111028
6.6899999999999995,669,-0.063,-0.11199999999999999,1.011,0.11459160000000004,0.0,0.0,173.27395836,-3.380452200000001,-9.5111028
6.7,670,-0.063,-0.11199999999999999,1.012,0.11459160000000004,-0.057295800000000015,0.0,173.26822878000004,-3.4091001000000003,-9.5111028
6.71,671,-0.062,-0.111,1.011,0.0,-0.11459160000000004,0.0,173.26822878000004,-3.40337052,-9.5111028
6.72,672,-0.062,-0.11,1.011,0.0,-0.11459160000000004,0.0,173.26822878000004,-3.40337052,-9.5111028
6.7299999999999995,673,-0.062,-0.111,1.011,0.0,-0.11459160000000004,0.0,173.27395836,-3.40337052,-9.5111028
6.74,674,-0.063,-0.11199999999999999,1.01,-0.057295800000000015,-0.057295800000000015,0.0,173.26822878000004,-3.40337052,-9.5111028
6.75,675,-0.062,-0.111,1.011,0.0,-0.057295800000000015,0.057295800000000015,173.26822878000004,-3.42055926,-9.5111028
6.76,676,-0.062,-0.111,1.011,0.057295800000000015,0.0,0.0,173.26822878000004,-3.42055926,-9.5111028
6.77,677,-0.062,-0.11199999999999999,1.0090000000000001,0.057295800000000015,0.0,0.0,173.26822878000004,-3.42055926,-9.5111028
6.78,678,-0.063,-0.11199999999999999,1.011,0.1718874,0.0,0.0,173.27395836,-3.42055926,-9.5111028
6.79,679,-0.062,-0.11199999999999999,1.01,0.11459160000000004,-0.11459160000000004,0.0,173.27395836,-3.42055926,-9.5111028
6.8,680,-0.062,-0.11199999999999999,1.011,0.11459160000000004,0.0,0.0,173.26249919999995,-3.42055926,-9.5111028
6.81,681,-0.062,-0.111,1.011,0.1718874,0.057295800000000015,0.0,173.26822878000004,-3.42055926,-9.5111028
6.82,682,-0.061,-0.113,1.011,0.11459160000000004,0.0,0.0,173.26822878000004,-3.42055926,-9.5111028
6.83,683,-0.061,-0.11199999999999999,1.011,0.11459160000000004,0.11459160000000004,0.0,173.26822878000004,-3.42055926,-9.5111028
6.84,684,-0.061,-0.11199999999999999,1.011,0.1718874,0.057295800000000015,0.0,173.27395836,-3.42628884,-9.5111028
6.85,685,-0.062,-0.11199999999999999,1.01,0.057295800000000015,0.057295800000000015,0.0,173.2338513,-3.42055926,-9.50537322
6.86,686,-0.062,-0.11199999999999999,1.0090000000000001,0.1718874,0.2291832000000001,0.0,173.23958088,-3.42055926,-9.50537322
6.87,687,-0.061,-0.111,1.01,0.1718874,0.3437748,0.0,173.23958088,-3.42628884,-9.50537322
6.88,688,-0.061,-0.111,1.012,0.057295800000000015,0.2291832000000001,0.0,173.23958088,-3.42628884,-9.50537322
6.89,689,-0.062,-0.11199999999999999,1.013,0.057295800000000015,0.2291832000000001,0.0,173.23958088,-3.43201842,-9.50537322
6.9,690,-0.062,-0.11199999999999999,1.012,0.0,0.2291832000000001,-0.057295800000000015,173.22812172000005,-3.43201842,-9.49964364
6.91,691,-0.062,-0.11199999999999999,1.01,0.057295800000000015,0.2291832000000001,-0.057295800000000015,173.2338513,-3.43201842,-9.49964364
6.92,692,-0.063,-0.111,1.008,0.057295800000000015,0.2291832000000001,0.0,173.2338513,-3.4377480000000005,-9.49964364
6.93,693,-0.062,-0.113,1.011,0.057295800000000015,0.3437748,0.0,173.2338513,-3.44347758,-9.49964364
6.9399999999999995,694,-0.063,-0.11199999999999999,1.013,-0.11459160000000004,0.2291832000000001,0.0,173.2338513,-3.44347758,-9.49964364
6.95,695,-0.062,-0.113,1.014,0.0,0.11459160000000004,0.0,173.22239214,-3.45493674,-9.49391406
6.96,696,-0.062,-0.11199999999999999,1.012,0.0,0.1718874,0.0,173.22239214,-3.45493674,-9.49391406
6.97,697,-0.062,-0.11199999999999999,1.0090000000000001,-0.11459160000000004,0.1718874,0.0,173.22239214,-3.46066632,-9.49391406
6.9799999999999995,698,-0.061,-0.11199999999999999,1.01,-0.1718874,0.11459160000000004,0.0,173.21666255999997,-3.46066632,-9.49391406
6.99,699,-0.063,-0.113,1.011,-0.1718874,0.11459160000000004,0.0,173.21666255999997,-3.46066632,-9.49391406
7.0,700,-0.062,-0.11199999999999999,1.01,-0.1718874,0.11459160000000004,-0.057295800000000015,173.21093298,-3.46066632,-9.49391406
7.01,701,-0.061,-0.111,1.01,-0.11459160000000004,0.0,-0.11459160000000004,173.21093298,-3.46066632,-9.49391406
7.02,702,-0.062,-0.111,1.0090000000000001,-0.057295800000000015,0.057295800000000015,0.0,173.21093298,-3.46066632,-9.49391406
7.03,703,-0.062,-0.11199999999999999,1.0090000000000001,0.0,0.1718874,0.0,173.21093298,-3.46066632,-9.49391406
7.04,704,-0.062,-0.11199999999999999,1.01,0.11459160000000004,0.1718874,0.0,173.21093298,-3.4663959,-9.49391406
7.05,705,-0.063,-0.111,1.01,0.1718874,0.0,0.0,173.21666255999997,-3.47212548,-9.49391406
7.06,706,-0.062,-0.11199999999999999,1.011,0.057295800000000015,0.0,0.0,173.21666255999997,-3.47212548,-9.49391406
7.07,707,-0.062,-0.111,1.012,0.0,0.0,0.0,173.21666255999997,-3.47212548,-9.49391406
7.08,708,-0.061,-0.11199999999999999,1.012,0.11459160000000004,0.0,0.0,173.21666255999997,-3.47212548,-9.49391406
7.09,709,-0.062,-0.11199999999999999,1.011,0.1718874,0.0,0.0,173.22239214,-3.47212548,-9.49391406
7.1,710,-0.061,-0.111,1.012,0.1718874,0.0,0.0,173.22239214,-3.45493674,-9.49391406
7.11,711,-0.062,-0.11199999999999999,1.012,0.11459160000000004,0.0,0.0,173.22812172000005,-3.45493674,-9.49391406
7.12,712,-0.061,-0.113,1.011,0.1718874,0.057295800000000015,0.0,173.22812172000005,-3.46066632,-9.49391406
7.13,713,-0.062,-0.11199999999999999,1.01,0.057295800000000015,0.0,0.0,173.22812172000005,-3.46066632,-9.49391406
7.14,714,-0.061,-0.11199999999999999,1.0090000000000001,0.11459160000000004,-0.11459160000000004,0.0,173.2338513,-3.45493674,-9.49391406
7.15,715,-0.062,-0.11199999999999999,1.01,0.057295800000000015,-0.057295800000000015,0.0,173.24531045999996,-3.45493674,-9.49391406
7.16,716,-0.061,-0.11199999999999999,1.008,0.057295800000000015,-0.1718874,0.057295800000000015,173.24531045999996,-3.45493674,-9.49391406
7.17,717,-0.062,-0.111,1.0090000000000001,0.057295800000000015,-0.057295800000000015,0.057295800000000015,173.25104004,-3.45493674,-9.49391406
7.18,718,-0.061,-0.11199999999999999,1.0090000000000001,0.057295800000000015,-0.057295800000000015,0.0,173.25104004,-3.45493674,-9.49391406
7.1899999999999995,719,-0.062,-0.11199999999999999,1.011,0.0,0.0,0.0,173.25104004,-3.45493674,-9.49391406
7.2,720,-0.062,-0.11199999999999999,1.013,0.0,-0.057295800000000015,0.0,173.25104004,-3.4492071599999994,-9.49964364
7.21,721,-0.062,-0.111,1.012,0.0,-0.11459160000000004,0.0,173.25104004,-3.4492071599999994,-9.49964364
7.22,722,-0.061,-0.11199999999999999,1.012,0.0,-0.057295800000000015,0.0,173.25104004,-3.4492071599999994,-9.49964364
7.2299999999999995,723,-0.061,-0.113,1.012,0.0,-0.057295800000000015,0.0,173.25104004,-3.4492071599999994,-9.49964364
7.24,724,-0.061,-0.11199999999999999,1.012,0.0,-0.057295800000000015,0.0,173.25104004,-3.44347758,-9.49964364
7.25,725,-0.062,-0.113,1.011,0.057295800000000015,0.0,0.0,173.2338513,-3.4377480000000005,-9.49391406
7.26,726,-0.062,-0.11199999999999999,1.01,0.057295800000000015,-0.057295800000000015,0.0,173.2338513,-3.4377480000000005,-9.49391406
7.27,727,-0.062,-0.11199999999999999,1.01,0.0,0.0,0.0,173.2338513,-3.4377480000000005,-9.49391406
7.28,728,-0.061,-0.11199999999999999,1.01,0.0,-0.057295800000000015,0.057295800000000015,173.2338513,-3.4377480000000005,-9.49391406
7.29,729,-0.061,-0.111,1.01,0.0,-0.1718874,0.0,173.2338513,-3.43201842,-9.49391406
7.3,730,-0.061,-0.111,1.0090000000000001,0.057295800000000015,-0.057295800000000015,0.0,173.22812172000005,-3.4091001000000003,-9.49391406
7.31,731,-0.061,-0.111,1.01,0.0,0.0,0.057295800000000015,173.22812172000005,-3.4091001000000003,-9.49964364
7.32,732,-0.062,-0.111,1.01,0.057295800000000015,0.0,0.0,173.2338513,-3.4091001000000003,-9.49964364
7.33,733,-0.062,-0.11199999999999999,1.01,0.11459160000000004,0.0,0.0,173.2338513,-3.4091001000000003,-9.49964364
7.34,734,-0.061,-0.11199999999999999,1.01,0.1718874,0.0,0.0,173.2338513,-3.4091001000000003,-9.49964364
7.35,735,-0.061,-0.11199999999999999,1.01,0.1718874,0.11459160000000004,0.0,173.2338513,-3.40337052,-9.49964364
7.36,736,-0.061,-0.11199999999999999,1.011,0.1718874,0.11459160000000004,0.0,173.2338513,-3.40337052,-9.49964364
7.37,737,-0.062,-0.111,1.011,0.286479,0.057295800000000015,0.0,173.23958088,-3.40337052,-9.49964364
7.38,738,-0.062,-0.11199999999999999,1.012,0.3437748,0.0,0.0,173.24531045999996,-3.40337052,-9.49964364
7.39,739,-0.062,-0.113,1.012,0.286479,0.0,0.0,173.24531045999996,-3.4091001000000003,-9.49964364
7.4,740,-0.062,-0.11199999999999999,1.012,0.3437748,0.0,0.0,173.25104004,-3.4091001000000003,-9.49964364
7.41,741,-0.062,-0.111,1.012,0.286479,0.11459160000000004,0.0,173.25104004,-3.4091001000000003,-9.49964364
7.42,742,-0.061,-0.111,1.011,0.3437748,0.057295800000000015,0.0,173.25676962,-3.4091001000000003,-9.49964364
7.43,743,-0.062,-0.111,1.011,0.4583664000000001,0.11459160000000004,0.0,173.26249919999995,-3.4091001000000003,-9.49964364
7.4399999999999995,744,-0.062,-0.111,1.011,0.40107059999999994,0.057295800000000015,0.0,173.26822878000004,-3.4091001000000003,-9.49964364
7.45,745,-0.061,-0.111,1.011,0.3437748,0.11459160000000004,0.0,173.27395836,-3.4091001000000003,-9.49964364
7.46,746,-0.061,-0.111,1.012,0.2291832000000001,0.057295800000000015,0.0,173.27395836,-3.4148296799999995,-9.49964364
7.47,747,-0.062,-0.111,1.01,0.2291832000000001,0.0,0.0,173.27968793999997,-3.4148296799999995,-9.49964364
7.4799999999999995,748,-0.062,-0.11199999999999999,1.0090000000000001,0.286479,0.057295800000000015,0.0,173.27968793999997,-3.4148296799999995,-9.49964364
7.49,749,-0.062,-0.111,1.011,0.286479,0.11459160000000004,0.0,173.28541751999995,-3.4148296799999995,-9.49391406
7.5,750,-0.061,-0.11,1.0090000000000001,0.3437748,0.057295800000000015,-0.057295800000000015,173.29114710000005,-3.4148296799999995,-9.49391406
7.51,751,-0.062,-0.111,1.01,0.3437748,0.11459160000000004,-0.057295800000000015,173.29114710000005,-3.4148296799999995,-9.49391406
7.52,752,-0.061,-0.111,1.008,0.40107059999999994,0.0,0.0,173.29687668,-3.42055926,-9.49391406
7.53,753,-0.061,-0.11199999999999999,1.0090000000000001,0.4583664000000001,0.057295800000000015,0.0,173.30260626,-3.42055926,-9.49391406
7.54,754,-0.061,-0.109,1.012,0.286479,0.11459160000000004,0.0,173.30260626,-3.42055926,-9.49391406
7.55,755,-0.061,-0.111,1.012,0.11459160000000004,-0.057295800000000015,0.0,173.29687668,-3.42055926,-9.49391406
7.56,756,-0.062,-0.111,1.011,0.0,-0.1718874,0.0,173.29687668,-3.42055926,-9.49391406
7.57,757,-0.061,-0.11,1.011,-0.11459160000000004,-0.057295800000000015,0.0,173.29687668,-3.42055926,-9.49391406
7.58,758,-0.061,-0.11,1.01,0.0,0.057295800000000015,0.0,173.29687668,-3.42055926,-9.49391406
7.59,759,-0.061,-0.111,1.011,0.057295800000000015,0.1718874,-0.057295800000000015,173.29687668,-3.42055926,-9.49391406
7.6,760,-0.061,-0.11199999999999999,1.014,-0.057295800000000015,0.057295800000000015,-0.057295800000000015,173.29687668,-3.42055926,-9.48818448
7.61,761,-0.061,-0.11199999999999999,1.0170000000000001,-0.057295800000000015,-0.057295800000000015,-0.057295800000000015,173.29114710000005,-3.42055926,-9.48818448
7.62,762,-0.061,-0.11199999999999999,1.014,0.0,0.0,0.0,173.29114710000005,-3.42055926,-9.48818448
7.63,763,-0.061,-0.11,1.011,-0.11459160000000004,0.0,-0.057295800000000015,173.29114710000005,-3.42055926,-9.48818448
7.64,764,-0.062,-0.11,1.01,-0.1718874,0.11459160000000004,0.0,173.29114710000005,-3.42055926,-9.48818448
7.65,765,-0.061,-0.111,1.01,-0.2291832000000001,0.1718874,0.0,173.28541751999995,-3.42628884,-9.48818448
7.66,766,-0.062,-0.11,1.011,-0.2291832000000001,0.11459160000000004,0.0,173.28541751999995,-3.42628884,-9.48818448
7.67,767,-0.062,-0.11,1.0090000000000001,-0.2291832000000001,0.0,0.0,173.27968793999997,-3.42628884,-9.48818448
7.68,768,-0.062,-0.10800000000000001,1.008,-0.11459160000000004,0.0,0.0,173.27968793999997,-3.42628884,-9.48818448
7.6899999999999995,769,-0.062,-0.109,1.0090000000000001,-0.057295800000000015,0.0,0.0,173.27968793999997,-3.42628884,-9.48818448
7.7,770,-0.061,-0.109,1.01,0.0,0.057295800000000015,0.0,173.29114710000005,-3.42055926,-9.48818448
7.71,771,-0.062,-0.109,1.011,0.057295800000000015,0.11459160000000004,0.0,173.29114710000005,-3.42628884,-9.48818448
7.72,772,-0.061,-0.11,1.013,0.1718874,0.11459160000000004,0.057295800000000015,173.29114710000005,-3.42628884,-9.48818448
7.7299999999999995,773,-0.062,-0.11,1.013,0.2291832000000001,0.0,0.0,173.29687668,-3.42628884,-9.48818448
7.74,774,-0.062,-0.11,1.013,0.1718874,0.0,0.0,173.29687668,-3.42628884,-9.48818448
7.75,775,-0.061,-0.11,1.014,0.1718874,0.0,0.057295800000000015,173.30260626,-3.42628884,-9.48818448
7.76,776,-0.061,-0.11,1.012,0.057295800000000015,0.0,0.0,173.30260626,-3.42628884,-9.48818448
7.77,777,-0.061,-0.11,1.012,0.057295800000000015,0.0,0.0,173.30833583999996,-3.42628884,-9.48818448
7.78,778,-0.061,-0.11,1.011,0.057295800000000015,0.0,0.0,173.30833583999996,-3.42055926,-9.48818448
7.79,779,-0.062,-0.109,1.01,0.11459160000000004,0.0,0.0,173.30833583999996,-3.42055926,-9.49391406
7.8,780,-0.061,-0.11,1.01,0.0,0.0,0.0,173.31406542,-3.42055926,-9.49391406
7.81,781,-0.061,-0.109,1.0090000000000001,0.0,0.0,0.0,173.31406542,-3.42055926,-9.49391406
7.82,782,-0.062,-0.109,1.01,0.0,-0.057295800000000015,0.0,173.31406542,-3.42055926,-9.49391406
7.83,783,-0.061,-0.10800000000000001,1.01,-0.057295800000000015,0.0,0.057295800000000015,173.31406542,-3.42055926,-9.49391406
7.84,784,-0.061,-0.109,1.008,-0.057295800000000015,0.0,0.057295800000000015,173.31406542,-3.42055926,-9.49391406
7.85,785,-0.062,-0.10800000000000001,1.01,-0.057295800000000015,0.0,0.057295800000000015,173.319795,-3.42055926,-9.49391406
7.86,786,-0.061,-0.109,1.012,-0.11459160000000004,0.0,0.057295800000000015,173.319795,-3.42055926,-9.49964364
7.87,787,-0.061,-0.109,1.013,-0.1718874,0.0,0.0,173.31406542,-3.42055926,-9.49964364
7.88,788,-0.062,-0.109,1.014,-0.2291832000000001,0.0,0.0,173.31406542,-3.42055926,-9.49964364
7.89,789,-0.061,-0.11,1.013,-0.1718874,0.0,0.0,173.30833583999996,-3.42055926,-9.49964364
7.9,790,-0.062,-0.11,1.014,-0.11459160000000004,0.057295800000000015,0.0,173.30260626,-3.4148296799999995,-9.49391406
7.91,791,-0.062,-0.109,1.014,-0.1718874,0.057295800000000015,0.0,173.29687668,-3.42055926,-9.49391406
7.92,792,-0.061,-0.109,1.01,-0.2291832000000001,0.057295800000000015,0.0,173.29687668,-3.42055926,-9.49391406
7.93,793,-0.062,-0.109,1.01,-0.2291832000000001,0.057295800000000015,0.0,173.29114710000005,-3.42055926,-9.49391406
7.94,794,-0.062,-0.10800000000000001,1.01,-0.286479,0.057295800000000015,0.0,173.29114710000005,-3.42055926,-9.49391406
7.95,795,-0.062,-0.10800000000000001,1.01,-0.3437748,0.057295800000000015,0.0,173.29114710000005,-3.42055926,-9.49964364
7.96,796,-0.061,-0.10800000000000001,1.0090000000000001,-0.2291832000000001,0.11459160000000004,0.0,173.29114710000005,-3.42055926,-9.49391406
7.97,797,-0.061,-0.10800000000000001,1.0090000000000001,-0.057295800000000015,0.11459160000000004,0.0,173.29114710000005,-3.42055926,-9.49391406
7.9799999999999995,798,-0.061,-0.10800000000000001,1.011,0.057295800000000015,0.057295800000000015,0.0,173.29114710000005,-3.42055926,-9.49391406
7.99,799,-0.062,-0.10800000000000001,1.016,0.0,0.0,0.0,173.29114710000005,-3.42055926,-9.49391406
8.0,800,-0.062,-0.109,1.016,0.0,-0.057295800000000015,0.0,173.29687668,-3.4148296799999995,-9.49391406
8.01,801,-0.062,-0.109,1.0170000000000001,-0.2291832000000001,-0.057295800000000015,-0.057295800000000015,173.29114710000005,-3.4148296799999995,-9.49391406
8.02,802,-0.062,-0.109,1.016,-0.286479,-0.2291832000000001,-0.057295800000000015,173.29114710000005,-3.4091001000000003,-9.49391406
8.03,803,-0.062,-0.11,1.011,-0.11459160000000004,-0.1718874,-0.057295800000000015,173.28541751999995,-3.4091001000000003,-9.49391406
8.04,804,-0.062,-0.107,1.006,0.2291832000000001,-0.057295800000000015,0.0,173.29114710000005,-3.4091001000000003,-9.49391406
8.05,805,-0.062,-0.109,1.011,0.6875496,0.0,0.0,173.30260626,-3.4091001000000003,-9.49391406
8.06,806,-0.062,-0.109,1.016,0.6875496,0.0,0.0,173.30833583999996,-3.4091001000000003,-9.49391406
8.07,807,-0.062,-0.11199999999999999,1.026,0.0,-0.057295800000000015,0.11459160000000004,173.30833583999996,-3.4091001000000003,-9.49964364
8.08,808,-0.062,-0.113,1.032,-0.8594370000000001,-0.057295800000000015,0.11459160000000004,173.30260626,-3.40337052,-9.49964364
8.09,809,-0.062,-0.11199999999999999,1.0290000000000001,-1.6042823999999998,0.057295800000000015,0.057295800000000015,173.28541751999995,-3.4091001000000003,-9.49964364
8.1,810,-0.06,-0.111,1.022,-1.5469866,0.11459160000000004,0.057295800000000015,173.26822878000004,-3.4091001000000003,-9.49964364
