TimeStamp(s),FrameCounter,AccX,AccY,AccZ,GyrX,GyrY,GyrZ,EulerX,EulerY,EulerZ
0.01,1,-0.046,-0.991,0.215,1.6042823999999998,2.3491278,-1.4896908000000002,99.30508056,-1.2318597,-41.99209182
0.02,2,-0.044,-0.992,0.213,1.432395,2.4064236,-1.3750992,99.3222693,-1.22613012,-41.96344392
0.03,3,-0.041,-0.99,0.207,1.2032118,2.291832,-1.2605076000000002,99.33372846,-1.21467096,-41.9405256
0.04,4,-0.035,-0.99,0.202,0.9740286,2.2345362,-0.9740286,99.33945804,-1.20894138,-41.91760728
0.05,5,-0.033,-0.99,0.198,0.572958,1.9480572,-0.8594370000000001,99.3795651,-1.22613012,-41.90041854
0.060000000000000005,6,-0.032,-0.991,0.196,0.4010706,1.432395,-0.6302538000000001,99.38529468,-1.22040054,-41.883229799999995
0.06999999999999999,7,-0.032,-0.993,0.195,0.286479,0.7448454000000001,-0.5156622000000001,99.38529468,-1.21467096,-41.87750022
0.08,8,-0.035,-0.995,0.195,0.057295800000000015,0.2291832000000001,-0.3437748,99.38529468,-1.21467096,-41.87177064
0.09,9,-0.04,-0.993,0.199,-0.057295800000000015,-0.4010706,-0.2291832000000001,99.38529468,-1.20894138,-41.87750022
0.09999999999999999,10,-0.045,-0.992,0.202,0.0,-0.5156622000000001,-0.3437748,99.51707502,-1.36364004,-41.883229799999995
0.11,11,-0.049,-0.99,0.204,-0.1718874,-0.4583664000000001,-0.4583664000000001,99.51134544,-1.3579104599999998,-41.88895938
0.12,12,-0.051,-0.993,0.205,-0.286479,-0.2291832000000001,-0.6302538000000001,99.51134544,-1.3464512999999998,-41.88895938
0.13,13,-0.051,-0.995,0.203,-0.5156622000000001,0.0,-0.8594370000000001,99.50561586,-1.34072172,-41.88895938
0.14,14,-0.051,-0.993,0.2,-0.6302538000000001,0.2291832000000001,-1.0313244,99.49988628,-1.32926256,-41.883229799999995
0.15000000000000002,15,-0.049,-0.989,0.199,-0.8021411999999999,0.8021411999999999,-1.0886202,99.5228046,-1.3750992,-41.87177064
0.16,16,-0.048,-0.987,0.198,-0.9167328,1.4896908000000002,-0.9740286,99.51134544,-1.36936962,-41.8545819
0.17,17,-0.046,-0.987,0.197,-1.0886202,1.8907613999999997,-0.8594370000000001,99.49988628,-1.36364004,-41.83739316
0.18000000000000002,18,-0.043,-0.991,0.199,-1.3178034,1.7761698,-0.8594370000000001,99.48842712,-1.3579104599999998,-41.81447484
0.19,19,-0.04,-0.995,0.197,-1.6615782,1.5469866,-0.8594370000000001,99.47123838,-1.35218088,-41.7972861
0.2,20,-0.038,-0.997,0.196,-1.8334656000000005,1.3178034,-0.7448454000000001,99.4655088,-1.36364004,-41.78582694
0.21000000000000002,21,-0.039,-0.997,0.196,-2.0626488000000003,1.3750992,-0.572958,99.44259048,-1.3579104599999998,-41.77436778
0.22,22,-0.041,-0.994,0.195,-2.1772404,1.3750992,-0.572958,99.41967216,-1.35218088,-41.75717904
0.23,23,-0.046,-0.995,0.193,-2.291832,0.9740286,-0.6302538000000001,99.39675384,-1.35218088,-41.74571988
0.24000000000000002,24,-0.051,-0.996,0.195,-2.578311,0.7448454000000001,-0.7448454000000001,99.36810594,-1.3464512999999998,-41.7399903
0.25,25,-0.051,-0.998,0.189,-3.151269,0.6875496,-0.7448454000000001,99.33945804,-1.36936962,-41.72853114
0.26,26,-0.047,-0.997,0.187,-4.010706000000001,-0.057295800000000015,-0.7448454000000001,99.29935098,-1.36364004,-41.72853114
0.27,27,-0.043,-0.997,0.194,-4.3544808,-0.9167328,-0.6875496,99.25924392,-1.3579104599999998,-41.73426072
0.28,28,-0.041,-0.999,0.203,-4.6982556,-0.9167328,-0.7448454000000001,99.2076777,-1.3464512999999998,-41.74571988
0.29000000000000004,29,-0.042,-1.0,0.206,-5.3285094000000015,-0.4010706,-0.8021411999999999,99.15611148,-1.3349921400000002,-41.74571988
0.3,30,-0.044,-1.001,0.202,-6.0733548,0.1718874,-0.7448454000000001,99.11027484,-1.3464512999999998,-41.74571988
0.31,31,-0.045,-1.004,0.196,-6.760904399999999,0.8021411999999999,-0.5156622000000001,99.04151988,-1.34072172,-41.7399903
0.32,32,-0.046,-1.004,0.192,-7.2765666,1.3750992,-0.3437748,98.96703534,-1.34072172,-41.72280156
0.33,33,-0.05,-0.999,0.189,-7.6776372,1.8907613999999997,-0.3437748,98.88682122,-1.34072172,-41.70561282
0.34,34,-0.053,-0.997,0.185,-7.7922288,2.291832,-0.4010706,98.8066071,-1.34072172,-41.682694500000004
0.35000000000000003,35,-0.054000000000000006,-0.995,0.182,-7.906820400000001,2.86479,-0.6302538000000001,98.73212256,-1.3579104599999998,-41.6540466
0.36000000000000004,36,-0.052000000000000005,-0.99,0.179,-7.9641161999999985,3.4950437999999995,-0.9167328,98.65190844,-1.35218088,-41.61966912000001
0.37,37,-0.05,-0.987,0.177,-7.7349330000000025,4.0680017999999984,-1.2032118,98.57169432,-1.35218088,-41.57956206
0.38,38,-0.045,-0.99,0.174,-7.6203414,4.2398892,-1.3178034,98.4914802,-1.3464512999999998,-41.539455
0.39,39,-0.043,-0.993,0.171,-7.7349330000000025,4.3544808,-1.3178034,98.41126608,-1.34072172,-41.49361836
0.4,40,-0.041,-0.993,0.16899999999999998,-7.9641161999999985,4.297185,-1.2032118,98.32532238000002,-1.34072172,-41.44778172
0.41000000000000003,41,-0.042,-0.994,0.16699999999999998,-7.906820400000001,4.1252976000000015,-1.0886202,98.24510826,-1.34072172,-41.40767466000001
0.42000000000000004,42,-0.044,-0.996,0.16699999999999998,-7.906820400000001,4.1252976000000015,-1.0313244,98.16489414,-1.3349921400000002,-41.3675676
0.43,43,-0.046,-0.999,0.17,-8.021412000000002,4.010706000000001,-0.9167328,98.07895044,-1.3349921400000002,-41.32746054
0.44,44,-0.047,-1.001,0.171,-8.250595200000001,4.1825934,-1.0313244,97.99300674,-1.32926256,-41.28735348
0.45,45,-0.05,-1.005,0.17,-8.5370742,4.6982556,-1.2032118,97.91279262,-1.34072172,-41.23578726
0.46,46,-0.05,-1.005,0.16699999999999998,-8.7662574,5.3858052,-1.4896908000000002,97.82111934,-1.3349921400000002,-41.18422104
0.47000000000000003,47,-0.051,-1.004,0.16399999999999998,-8.880849000000003,6.016058999999999,-1.6042823999999998,97.72371648,-1.32926256,-41.12119566
0.48000000000000004,48,-0.052000000000000005,-1.0,0.16,-8.9954406,6.5317212,-1.7761698,97.6320432,-1.32353298,-41.05817028
0.49,49,-0.054000000000000006,-1.002,0.157,-9.0527364,7.161975,-1.8334656000000005,97.54036992,-1.3178034,-40.98941532
0.5,50,-0.051,-1.002,0.155,-9.3392154,7.906820400000001,-1.8907613999999997,97.44296706000002,-1.3178034,-40.90920120000001
0.51,51,-0.048,-1.003,0.15,-9.5111028,8.5370742,-1.8334656000000005,97.33983462,-1.31207382,-40.8232575
0.52,52,-0.045,-1.005,0.141,-9.6256944,8.7089616,-1.6615782,97.24243176000002,-1.31207382,-40.7373138
0.53,53,-0.046,-1.006,0.13699999999999998,-9.453807000000001,8.7662574,-1.6615782,97.13929932,-1.31207382,-40.6513701
0.54,54,-0.049,-1.006,0.133,-9.2819196,9.0527364,-1.6615782,97.04189646,-1.30634424,-40.55969682
0.55,55,-0.05,-1.003,0.124,-9.2819196,9.6256944,-1.9480572,96.93303444,-1.31207382,-40.46229396
0.56,56,-0.052000000000000005,-1.001,0.112,-9.167328,10.0840608,-2.1772404,96.83563158,-1.30634424,-40.35916152
0.5700000000000001,57,-0.055,-1.001,0.104,-8.8235532,10.7143146,-2.4064236,96.7439583,-1.29488508,-40.25602908
0.5800000000000001,58,-0.054000000000000006,-1.001,0.093,-8.5370742,11.5737516,-2.6356068,96.65228502,-1.2891555000000001,-40.1357079
0.59,59,-0.052000000000000005,-0.998,0.08199999999999999,-8.078707799999998,12.0894138,-2.9220857999999996,96.56634132,-1.27769634,-40.01538672
0.6,60,-0.051,-0.996,0.07400000000000001,-7.333862400000001,12.4904844,-3.0939732,96.46320888,-1.27196676,-39.88360638
0.61,61,-0.052000000000000005,-0.997,0.07,-6.6463128000000005,13.0061466,-3.2658606,96.39445392000002,-1.2605076000000002,-39.75755562
0.62,62,-0.051,-1.002,0.065,-6.130650599999999,13.9228794,-3.380452200000001,96.32569896,-1.24331886,-39.61431612
0.63,63,-0.047,-1.003,0.054000000000000006,-5.6722842,14.7250206,-3.6669312000000014,96.26267357999998,-1.22613012,-39.46534704
0.64,64,-0.042,-1.002,0.042,-4.8128472,15.2979786,-3.8961144,96.20537778,-1.20894138,-39.31637796
0.65,65,-0.038,-1.004,0.033,-3.8388186,15.870936600000002,-4.1252976000000015,96.12516366,-1.19175264,-39.14449056
0.66,66,-0.034,-1.005,0.028,-2.9220857999999996,16.386598799999998,-4.1252976000000015,96.09078618,-1.1745638999999999,-38.98406232000001
0.67,67,-0.03,-1.008,0.025,-2.0626488000000003,16.272007199999994,-4.1825934,96.06786786,-1.1573751600000002,-38.8179045
0.68,68,-0.03,-1.019,0.022,-1.3178034,15.6990492,-4.1825934,96.04494954,-1.13445684,-38.65747626
0.6900000000000001,69,-0.029,-1.028,0.026,-1.2032118,15.469866,-4.1825934,96.0277608,-1.11153852,-38.5027776
0.7000000000000001,70,-0.033,-1.036,0.034,-2.0053530000000004,15.756345000000001,-4.1252976000000015,95.970465,-1.10007936,-38.33661978
0.7100000000000001,71,-0.036000000000000004,-1.044,0.035,-3.3231564,16.8449652,-4.3544808,95.93035794,-1.07716104,-38.17046196
0.72,72,-0.031,-1.054,0.029,-4.8128472,18.1054728,-4.1825934,95.87879172,-1.0599723,-37.9871154
0.73,73,-0.029,-1.065,0.027000000000000003,-6.990087599999999,19.3659804,-3.7815227999999994,95.7985776,-1.04851314,-37.79230968
0.74,74,-0.026,-1.077,0.023,-9.797581800000001,19.8243468,-3.724227,95.68971558,-1.03705398,-37.59750396
0.75,75,-0.027000000000000003,-1.08,0.016,-13.178034,20.1108258,-3.724227,95.52928733999998,-1.0255948199999998,-37.39123908
0.76,76,-0.027000000000000003,-1.077,0.005,-15.5844576,20.6837838,-3.6669312000000014,95.36312952,-1.01413566,-37.1849742
0.77,77,-0.028,-1.083,0.012,-19.308684600000007,21.6005166,-3.7815227999999994,95.16259422,-1.0026765,-36.97297974
0.78,78,-0.037000000000000005,-1.0759999999999998,0.044,-25.3247436,21.772404,-3.4377480000000005,94.89903354,-0.9969469199999998,-36.76098528
0.79,79,-0.041,-1.032,0.083,-28.762491600000004,22.345362,-3.2658606,94.60109538,-0.9912173399999998,-36.54326124
0.8,80,-0.032,-0.994,0.097,-26.5852512,22.459953600000002,-2.86479,94.32034596,-0.98548776,-36.31980762
0.81,81,-0.027000000000000003,-0.995,0.058,-25.3820394,23.9496444,-2.7501984,94.05678528,-0.98548776,-36.08489484
0.8200000000000001,82,-0.025,-1.026,0.015,-26.7571386,24.5798982,-2.9793816000000004,93.77603586,-0.97975818,-35.84425248
0.8300000000000001,83,-0.024,-1.058,-0.023,-27.6738714,23.6631654,-3.2085648,93.48955686,-0.9740286,-35.61506928
0.8400000000000001,84,-0.02,-1.082,-0.053,-27.3873924,21.829699800000004,-3.5523396000000003,93.20307786,-0.95683986,-35.39734524
0.85,85,-0.02,-1.089,-0.054000000000000006,-27.2728008,20.912967,-4.1825934,92.9051397,-0.93392154,-35.19108036
0.86,86,-0.019,-1.106,-0.034,-29.220858000000003,20.3973048,-4.297185,92.60147196,-0.91100322,-34.99054506
0.87,87,-0.026,-1.12,-0.008,-37.8725238,19.0222056,-3.151269,92.21186052,-0.89381448,-34.8071985
0.88,88,-0.036000000000000004,-1.065,0.067,-51.7381074,11.4018642,-1.9480572,91.67900958,-0.8880849000000001,-34.69833648
0.89,89,-0.006999999999999999,-0.883,0.213,-61.4783934,6.5317212,-3.724227,91.05448536,-0.8594370000000001,-34.64104068
0.9,90,0.016,-0.894,0.221,-59.53033620000001,12.6623718,-4.8701430000000006,90.46433862,-0.8136003599999999,-34.5207195
0.91,91,-0.015,-0.99,0.13,-67.26526919999999,16.329303,-3.7815227999999994,89.77678902,-0.7849524600000001,-34.37175042
0.92,92,-0.041,-1.05,0.031,-74.65642740000001,17.8762896,-3.7815227999999994,89.01475488,-0.75630456,-34.19986302
0.93,93,-0.047,-1.0759999999999998,-0.037000000000000005,-77.0055552,16.7876694,-4.583664,88.22980242,-0.7161975,-34.04516436
0.9400000000000001,94,-0.038,-1.048,-0.063,-79.6984578,15.5844576,-4.8128472,87.41620206,-0.67609044,-33.901924859999994
0.9500000000000001,95,-0.024,-1.028,-0.049,-83.4799806,15.2979786,-4.6982556,86.56249464,-0.6302538000000001,-33.75868536
0.9600000000000001,96,-0.023,-1.034,-0.023,-90.3554766,14.152062599999999,-3.6669312000000014,85.64576184,-0.6016058999999999,-33.6326346
0.97,97,-0.032,-1.014,-0.029,-103.0178484,11.8029348,-3.4950437999999995,84.59724870000002,-0.56722842,-33.52950216000001
0.98,98,-0.054000000000000006,-0.951,-0.036000000000000004,-106.97125859999998,5.5003968,-4.0680017999999984,83.5086285,-0.53285094,-33.4893951
0.99,99,-0.045,-0.8690000000000001,0.08900000000000001,-104.3356518,6.4744254,-6.1879464,82.4486562,-0.47555514,-33.44355846
1.0,100,-0.035,-0.865,0.109,-107.3150334,18.6784308,-9.167328,81.37149516,-0.3724227000000001,-33.2888598
1.01,101,-0.057,-0.901,0.081,-112.4716554,27.9603504,-10.026765,80.21984957999999,-0.25210152,-33.04248786
1.02,102,-0.067,-0.911,0.032,-118.88878500000001,30.5959572,-9.224623800000002,79.01090819999997,-0.12605075999999998,-32.76746802
1.03,103,-0.059,-0.9,-0.001,-127.48315500000001,29.9657034,-7.1046792000000005,77.71029354,-0.01718874,-32.50390734
1.04,104,-0.06,-0.8740000000000001,-0.012,-134.0148762,28.4760126,-4.6409598,76.34665349999999,0.06302537999999999,-32.25180582
1.05,105,-0.052000000000000005,-0.86,-0.039,-139.4006814,26.9863218,-2.578311,74.93717682,0.13178034,-32.01116346
1.06,106,-0.03,-0.8170000000000001,-0.041,-137.9109906,26.69984280000001,-2.8074942000000003,73.53342971999999,0.20626488,-31.776250680000004
1.07,107,-0.032,-0.78,0.012,-132.46788959999998,21.8869956,-2.6356068,72.18697842,0.27501984,-31.58144496
1.08,108,-0.025,-0.754,0.049,-131.60845260000002,21.5432208,-3.151269,70.85198627999998,0.35523396,-31.40382798
1.09,109,-0.015,-0.77,0.032,-132.5824812,24.0069402,-4.4117766,69.50553498000001,0.4526368200000001,-31.20329268
1.1,110,-0.019,-0.8009999999999999,-0.059,-135.6191586,26.814434400000003,-5.844171599999999,68.13616535999999,0.5786875800000001,-30.985568640000004
1.11,111,-0.022,-0.8059999999999999,-0.152,-139.0569066,30.366774000000003,-7.906820400000001,66.72668868000001,0.7448454000000001,-30.74492628
1.12,112,-0.031,-0.83,-0.196,-140.89037219999997,29.220858000000003,-6.5317212,65.29429368000001,0.89381448,-30.51574308
1.1300000000000001,113,-0.066,-0.82,-0.232,-139.22879400000002,26.7571386,-3.2658606,63.87908742,1.01413566,-30.29228946
1.1400000000000001,114,-0.084,-0.835,-0.229,-138.94231499999998,29.5646328,-2.7501984,62.46961074000001,1.1459160000000002,-30.051647100000004
1.1500000000000001,115,-0.096,-0.8370000000000001,-0.213,-136.7650746,32.658606,-3.4950437999999995,61.09451154,1.30061466,-29.78808642
1.1600000000000001,116,-0.097,-0.8220000000000001,-0.195,-134.53053839999998,35.122325399999994,-4.4117766,59.7308715,1.48396122,-29.51306658
1.17,117,-0.078,-0.7929999999999999,-0.187,-133.4419182,38.7319608,-5.042030400000002,58.38442020000001,1.6959556799999995,-29.20939884
1.18,118,-0.05,-0.7290000000000001,-0.209,-132.8116644,41.0810886,-5.1566220000000005,57.0379689,1.93086846,-28.89427194
1.19,119,-0.029,-0.6679999999999999,-0.285,-131.78034,41.3675676,-5.9014674000000005,55.708706340000006,2.18296998,-28.5906042
1.2,120,-0.013,-0.674,-0.339,-129.6030996,41.4821592,-5.3285094000000015,54.40236209999999,2.42934192,-28.28120688000001
1.21,121,-0.038,-0.703,-0.41,-126.7956054,43.0291458,-6.6463128000000005,53.124665760000006,2.71009134,-27.97753914
1.22,122,-0.073,-0.716,-0.414,-125.0194356,44.8626114,-7.5630456000000015,51.86415816,3.0137590800000003,-27.66814182
1.23,123,-0.09,-0.726,-0.4270000000000001,-120.5503632,49.1025006,-10.313244,50.6494872,3.3689930400000003,-27.34728534
1.24,124,-0.076,-0.769,-0.453,-116.883432,52.597544400000004,-10.886202,49.47492329999999,3.75860448,-27.0149697
1.25,125,-0.044,-0.758,-0.446,-113.5029798,53.68616460000001,-9.797581800000001,48.35192562,4.14821592,-26.6711949
1.26,126,-0.01,-0.725,-0.473,-110.867373,54.43101,-8.7662574,47.24038710000001,4.549286520000001,-26.321690520000004
1.27,127,0.021,-0.682,-0.511,-107.716104,55.2331512,-9.167328,46.16895564,4.96754586,-25.97791572
1.28,128,0.043,-0.659,-0.54,-104.9659056,56.4936588,-10.313244,45.12617208,5.40299394,-25.64560008
1.29,129,0.053,-0.645,-0.601,-102.7886652,58.2125328,-12.1467096,44.11203642,5.872819499999999,-25.31328444
1.3,130,0.054000000000000006,-0.6609999999999999,-0.636,-100.3822416,58.44171600000001,-13.6936962,43.1150895,6.3598338000000005,-25.00388712
1.31,131,0.078,-0.6859999999999999,-0.684,-98.3768886,58.2698286,-15.2979786,42.1410609,6.858307260000001,-24.71167854
1.32,132,0.096,-0.726,-0.713,-96.7153104,56.0925882,-14.8396122,41.18995062000001,7.35105114,-24.44238828
1.33,133,0.124,-0.737,-0.741,-95.1683238,55.6342218,-14.037471,40.2502995,7.8323358600000015,-24.17309802
1.34,134,0.16699999999999998,-0.7509999999999999,-0.795,-94.3088868,54.8320806,-13.120738199999998,39.32210754000001,8.31362058,-23.91526692
1.35,135,0.194,-0.723,-0.807,-93.0483792,51.6235158,-11.8602306,38.40537474,8.7662574,-23.67462456
1.36,136,0.206,-0.705,-0.8320000000000001,-91.386801,49.847346,-10.7143146,37.50583068,9.1959759,-23.439711780000003
1.37,137,0.196,-0.667,-0.8170000000000001,-88.52201099999998,47.269034999999995,-9.568398599999998,36.6406641,9.60850566,-23.22198774
1.3800000000000001,138,0.203,-0.636,-0.8220000000000001,-85.7145168,46.409598,-9.224623800000002,35.79841584000001,10.00957626,-23.00999328
1.3900000000000001,139,0.218,-0.62,-0.8170000000000001,-83.8810512,44.2323576,-8.5370742,34.97335632,10.3991877,-22.81518756
1.4000000000000001,140,0.221,-0.589,-0.8109999999999999,-80.2714158,43.0864416,-8.078707799999998,34.18840386,10.77733998,-22.62611142
1.4100000000000001,141,0.246,-0.579,-0.846,-77.17744259999998,43.0864416,-7.6776372,33.43782888,11.16122184,-22.44276486
1.42,142,0.257,-0.568,-0.8440000000000001,-74.5418358,40.6227222,-6.760904399999999,32.71017222,11.5164558,-22.26514788
1.43,143,0.271,-0.5579999999999999,-0.85,-71.7343416,38.90384820000001,-5.5576926,32.01116346,11.85450102,-22.09326048
1.44,144,0.298,-0.551,-0.8690000000000001,-69.21332640000001,36.32553720000001,-4.7555514,31.33507302000001,12.16962792,-21.93283224
1.45,145,0.302,-0.527,-0.865,-66.23394479999999,32.142943800000005,-3.9534102,30.68763048000001,12.45610692,-21.78959274
1.46,146,0.292,-0.506,-0.877,-63.4264506,30.5386614,-3.380452200000001,30.06883584,12.7196676,-21.657812399999997
1.47,147,0.284,-0.498,-0.879,-60.67625219999999,28.991674800000002,-2.9793816000000004,29.4786891,12.97176912,-21.52603206
1.48,148,0.27,-0.48,-0.8740000000000001,-57.92605379999999,28.304125199999998,-2.86479,28.91146068,13.21814106,-21.40571088
1.49,149,0.255,-0.457,-0.8740000000000001,-55.2331512,27.9603504,-2.6356068,28.37860974,13.464513,-21.2853897
1.5,150,0.254,-0.443,-0.879,-52.19647379999999,28.4187168,-2.9220857999999996,27.862947540000004,13.716614520000002,-21.16506852
1.51,151,0.258,-0.434,-0.89,-49.61816279999999,28.81978740000001,-3.2085648,27.381662819999995,13.97444562,-21.05047692
1.52,152,0.261,-0.4320000000000001,-0.897,-46.8679644,29.0489706,-3.5523396000000003,26.929026,14.232276719999998,-20.941614899999998
1.53,153,0.262,-0.429,-0.911,-44.34694920000001,28.5906042,-4.010706000000001,26.50503708,14.4958374,-20.83848246
1.54,154,0.262,-0.43,-0.908,-42.2270046,27.043617600000005,-4.1825934,26.09250732000001,14.74220934,-20.74680918
1.55,155,0.289,-0.436,-0.916,-40.2216516,26.1268848,-4.2398892,25.69716630000001,14.98858128,-20.66086548
1.56,156,0.314,-0.445,-0.924,-38.8465524,23.835052800000003,-3.4950437999999995,25.3247436,15.212034899999995,-20.58065136
1.57,157,0.32299999999999995,-0.449,-0.917,-37.24227,21.2567418,-2.291832,24.96378006,15.40111104,-20.50616682
1.58,158,0.328,-0.449,-0.935,-35.9244666,19.1367972,-1.2605076000000002,24.61427568,15.57299844,-20.43168228
1.59,159,0.326,-0.429,-0.948,-34.7785506,16.272007199999994,-0.1718874,24.27623046,15.71050836,-20.35719774
1.6,160,0.319,-0.423,-0.954,-32.486718599999996,15.0687954,0.6302538000000001,23.96110356,15.8422887,-20.2827132
1.61,161,0.313,-0.418,-0.962,-29.9657034,14.667724800000002,0.9740286,23.67462456,15.96260988,-20.20822866
1.62,162,0.306,-0.414,-0.958,-27.9603504,14.5531332,0.9740286,23.41106388,16.088660639999997,-20.13374412
1.6300000000000001,163,0.319,-0.412,-0.971,-26.1268848,14.5531332,0.9740286,23.16469194,16.208981819999998,-20.05925958
1.6400000000000001,164,0.321,-0.412,-0.974,-24.5798982,13.5791046,0.572958,22.92977916,16.329303000000003,-19.9962342
1.6500000000000001,165,0.327,-0.406,-0.98,-23.204799,13.178034,0.1718874,22.70059596,16.4438946,-19.9389384
1.6600000000000001,166,0.34700000000000003,-0.398,-0.987,-21.829699800000004,12.2040054,0.1718874,22.49433108,16.55275662,-19.8816426
1.6700000000000002,167,0.366,-0.393,-0.997,-20.340009,10.9434978,0.0,22.29952536,16.6444299,-19.83580596
1.68,168,0.373,-0.396,-1.008,-18.9649098,8.8235532,0.0,22.1161788,16.72464402,-19.795698899999998
1.69,169,0.37,-0.395,-0.999,-17.303331600000003,6.1879464,-0.1718874,21.9442914,16.781939819999998,-19.77278058
1.7,170,0.368,-0.395,-0.993,-15.756345000000001,4.6982556,-0.4010706,21.77813358,16.82777646,-19.76132142
1.71,171,0.358,-0.379,-0.99,-14.266654199999998,3.6096354,-0.6302538000000001,21.63489408,16.86215394,-19.74986226
1.72,172,0.34600000000000003,-0.3670000000000001,-0.981,-12.5477802,3.3231564,-1.0886202,21.50884332,16.89653142,-19.74413268
1.73,173,0.343,-0.36,-0.988,-10.886202,3.6096354,-1.3750992,21.3999813,16.9309089,-19.74413268
1.74,174,0.341,-0.361,-0.988,-9.2819196,2.9793816000000004,-1.432395,21.30257844,16.96528638,-19.74413268
1.75,175,0.337,-0.364,-0.982,-7.9641161999999985,2.8074942000000003,-1.4896908000000002,21.199446,16.999663860000002,-19.75559184
1.76,176,0.331,-0.361,-0.983,-6.589017,2.7501984,-1.7761698,21.13069104,17.02831176,-19.76132142
1.77,177,0.331,-0.365,-0.98,-5.3285094000000015,2.291832,-2.1199446,21.07339524,17.056959659999997,-19.77278058
1.78,178,0.327,-0.37,-0.978,-4.583664,1.8334656000000005,-2.0053530000000004,21.02182902,17.07987798,-19.78423974
1.79,179,0.328,-0.371,-0.975,-3.9534102,1.145916,-1.7188740000000002,20.97599238,17.09706672,-19.795698899999998
1.8,180,0.327,-0.3670000000000001,-0.967,-3.380452200000001,0.6302538000000001,-1.4896908000000002,20.912967000000002,17.108525880000002,-19.80715806
1.81,181,0.324,-0.373,-0.964,-2.7501984,0.7448454000000001,-1.3178034,20.884319100000006,17.11998504,-19.81861722
1.82,182,0.319,-0.374,-0.966,-2.5210152000000003,0.4583664000000001,-1.2605076000000002,20.8556712,17.131444199999994,-19.83007638
1.83,183,0.312,-0.368,-0.96,-2.0626488000000003,0.057295800000000015,-1.145916,20.8270233,17.131444199999994,-19.84153554
1.84,184,0.31,-0.363,-0.95,-1.3750992,-0.1718874,-1.0886202,20.80983456,17.13717378,-19.8529947
1.85,185,0.308,-0.359,-0.942,-0.572958,-0.6875496,-1.0313244,20.74680918,17.114255460000006,-19.87018344
1.86,186,0.31,-0.355,-0.937,0.0,-1.3178034,-1.0313244,20.7410796,17.108525880000002,-19.88737218
1.87,187,0.31,-0.353,-0.927,0.7448454000000001,-2.0626488000000003,-0.8594370000000001,20.7410796,17.09133714,-19.90456092
1.8800000000000001,188,0.302,-0.35,-0.92,1.3750992,-2.291832,-0.8021411999999999,20.75253876,17.0741484,-19.92174966
1.8900000000000001,189,0.297,-0.348,-0.927,1.9480572,-2.291832,-0.8021411999999999,20.7697275,17.056959659999997,-19.9389384
1.9000000000000001,190,0.28800000000000003,-0.349,-0.927,2.5210152000000003,-2.578311,-0.8594370000000001,20.75826834,17.00539344,-19.96185672
1.9100000000000001,191,0.282,-0.355,-0.919,3.0939732,-2.8074942000000003,-0.8594370000000001,20.78118666,16.98247512,-19.97904546
1.9200000000000002,192,0.278,-0.355,-0.915,3.6669312000000014,-2.6929026,-1.0313244,20.81556414,16.959556799999998,-20.00196378
1.93,193,0.273,-0.35700000000000004,-0.909,4.1252976000000015,-2.4064236,-1.2605076000000002,20.84994162,16.94236806,-20.024882100000006
1.94,194,0.27,-0.35600000000000004,-0.906,4.4690724,-1.8334656000000005,-1.3750992,20.89004868,16.9309089,-20.04780042
1.95,195,0.271,-0.35200000000000004,-0.904,4.9274388,-1.432395,-1.4896908000000002,20.912967000000002,16.89653142,-20.07071874
1.96,196,0.273,-0.355,-0.897,5.3858052,-1.0886202,-1.7188740000000002,20.95880364,16.89080184,-20.08790748
1.97,197,0.275,-0.358,-0.892,5.5003968,-0.8594370000000001,-1.7188740000000002,21.01036986,16.89080184,-20.1108258
1.98,198,0.272,-0.35700000000000004,-0.885,5.6149884000000005,-0.6875496,-1.7761698,21.06193608,16.89080184,-20.13374412
1.99,199,0.277,-0.358,-0.882,5.7868758000000025,-0.5156622000000001,-1.7761698,21.11923188,16.89080184,-20.15093286
2.0,200,0.278,-0.359,-0.883,5.72958,-0.4010706,-1.8334656000000005,21.15933894,16.87934268,-20.17385118
2.01,201,0.276,-0.359,-0.88,5.958763200000001,-0.572958,-1.8907613999999997,21.21090516,16.87934268,-20.19103992
2.02,202,0.272,-0.358,-0.884,6.0733548,-0.4583664000000001,-1.8334656000000005,21.26820096,16.88507226,-20.21395824
2.03,203,0.269,-0.358,-0.8809999999999999,6.2452422,-0.286479,-1.8334656000000005,21.32549676,16.88507226,-20.23114698
2.04,204,0.268,-0.36,-0.875,6.5317212,0.0,-1.8334656000000005,21.38852214,16.89653142,-20.24833572
2.05,205,0.269,-0.363,-0.873,6.703608600000001,0.1718874,-1.8334656000000005,21.44581794,16.87934268,-20.26552446
2.0599999999999996,206,0.266,-0.363,-0.871,6.990087599999999,0.572958,-1.9480572,21.50884332,16.89653142,-20.2827132
2.07,207,0.27,-0.364,-0.87,7.2192707999999985,1.0313244,-2.0053530000000004,21.57759828,16.91372016,-20.29990194
2.0799999999999996,208,0.28,-0.369,-0.875,7.2192707999999985,1.3178034,-1.8907613999999997,21.64635324,16.93663848,-20.3113611
2.09,209,0.284,-0.375,-0.877,6.875496000000001,0.7448454000000001,-1.7761698,21.7151082,16.94809764,-20.32854984
2.0999999999999996,210,0.287,-0.381,-0.878,6.5317212,0.2291832000000001,-1.6615782,21.78386316000001,16.94809764,-20.340009
2.11,211,0.287,-0.382,-0.8740000000000001,6.130650599999999,-0.5156622000000001,-1.432395,21.84115896,16.94809764,-20.35719774
2.1199999999999997,212,0.285,-0.382,-0.878,5.72958,-1.2032118,-1.3178034,21.89272518000001,16.94236806,-20.37438648
2.13,213,0.278,-0.382,-0.88,5.5003968,-1.9480572,-1.145916,21.9442914,16.9309089,-20.3973048
2.1399999999999997,214,0.271,-0.383,-0.873,5.5576926,-2.3491278,-0.9740286,21.99585762,16.91372016,-20.41449354
2.15,215,0.265,-0.38,-0.8740000000000001,5.5576926,-2.1772404,-0.9740286,22.04169426,16.86788352,-20.43168228
2.1599999999999997,216,0.263,-0.379,-0.873,5.844171599999999,-1.7761698,-0.9167328,22.09899006,16.85642436,-20.44887102
2.17,217,0.262,-0.385,-0.873,6.130650599999999,-1.2605076000000002,-0.9167328,22.15628586,16.850694779999998,-20.46605976
2.1799999999999997,218,0.266,-0.389,-0.88,6.1879464,-0.8021411999999999,-0.8021411999999999,22.21358166,16.844965199999994,-20.47751892
2.19,219,0.266,-0.396,-0.895,6.2452422,-1.2605076000000002,-0.4583664000000001,22.27660704,16.83923562,-20.488978080000006
2.1999999999999997,220,0.263,-0.407,-0.917,6.3598338,-1.9480572,-0.1718874,22.345362,16.781939819999998,-20.49470766
2.21,221,0.266,-0.414,-0.931,6.4744254,-2.9220857999999996,0.0,22.40838738,16.7590215,-20.50616682
2.2199999999999998,222,0.271,-0.425,-0.948,6.8182002000000015,-3.3231564,0.057295800000000015,22.47141276,16.7303736,-20.52335556
2.23,223,0.277,-0.435,-0.974,6.9327918,-4.010706000000001,0.0,22.54016772,16.69026654,-20.5405443
2.2399999999999998,224,0.28800000000000003,-0.4320000000000001,-0.98,7.7922288,-4.8701430000000006,-0.1718874,22.60892268,16.650159480000006,-20.56346262
2.25,225,0.299,-0.428,-1.001,8.9381448,-4.9274388,-0.6875496,22.6891368,16.598593259999998,-20.59211052
2.26,226,0.306,-0.4370000000000001,-1.02,10.599723,-4.8701430000000006,-0.8594370000000001,22.78653966,16.56421578,-20.62075842
2.27,227,0.318,-0.45,-1.034,12.4331886,-5.042030400000002,-0.8021411999999999,22.90686084,16.51837914,-20.64940632
2.28,228,0.333,-0.464,-1.044,14.152062599999999,-5.5576926,-0.7448454000000001,23.04437076,16.4725425,-20.6837838
2.29,229,0.344,-0.474,-1.058,15.985528200000001,-5.72958,-0.6302538000000001,23.19906942,16.426705860000002,-20.712431700000003
2.3,230,0.358,-0.482,-1.064,17.7044022,-5.6722842,-0.5156622000000001,23.36522724000001,16.386598799999998,-20.74680918
2.31,231,0.375,-0.496,-1.078,19.4232762,-6.760904399999999,0.0,23.55430338,16.323573420000002,-20.77545708
2.32,232,0.379,-0.503,-1.082,20.9702628,-9.167328,1.0313244,23.760568260000003,16.243359299999998,-20.80410498
2.3299999999999996,233,0.378,-0.503,-1.083,22.5172494,-11.6310474,1.9480572,23.98402188,16.134497279999998,-20.83848246
2.34,234,0.373,-0.508,-1.085,24.064235999999998,-13.6936962,2.9220857999999996,24.21893466,16.002716940000006,-20.87285994
2.3499999999999996,235,0.365,-0.514,-1.073,25.7258142,-15.2979786,3.724227,24.47676576,15.85374786,-20.90723742
2.36,236,0.355,-0.515,-1.067,27.501984000000004,-16.042824000000003,4.1252976000000015,24.74605602,15.6990492,-20.941614899999998
2.3699999999999997,237,0.349,-0.517,-1.061,29.335449600000004,-17.0741484,4.5263682,25.0382646,15.53289138,-20.97599238
2.38,238,0.345,-0.523,-1.06,30.8824362,-18.5065434,5.0993262,25.34193234,15.34954482,-21.01609944
2.3899999999999997,239,0.338,-0.522,-1.0490000000000002,32.372127,-20.340009,5.844171599999999,25.66278882000001,15.1547391,-21.0562065
2.4,240,0.33,-0.523,-1.034,34.5493674,-21.772404,6.703608600000001,26.00656362,14.937015060000002,-21.10204314
2.4099999999999997,241,0.328,-0.522,-1.024,36.669312,-23.204799,7.5630456000000015,26.36752716,14.707831860000002,-21.1421502
2.42,242,0.317,-0.514,-1.008,39.0184398,-24.350715,8.250595200000001,26.7571386,14.46145992,-21.18225726
2.4299999999999997,243,0.309,-0.51,-0.992,41.4248634,-25.7258142,8.880849000000003,27.16966836,14.20362882,-21.228093899999998
2.44,244,0.292,-0.503,-0.976,43.8885828,-27.1009134,9.453807000000001,27.610846020000004,13.93433856,-21.27966012
2.4499999999999997,245,0.276,-0.503,-0.957,46.5241896,-28.1895336,10.0840608,28.069212420000003,13.64785956,-21.33122634
2.46,246,0.27,-0.508,-0.936,49.2170922,-29.0489706,10.5424272,28.561956300000002,13.355650979999998,-21.38279256
2.4699999999999998,247,0.25,-0.505,-0.919,51.6235158,-29.4500412,11.1153852,29.0776185,13.05771282,-21.43435878
2.48,248,0.24,-0.513,-0.91,54.3164184,-30.252182399999995,11.516455800000001,29.621928600000004,12.75404508,-21.49165458
2.4899999999999998,249,0.231,-0.531,-0.907,57.2958,-31.111619399999995,12.032117999999999,30.194886600000004,12.438918179999998,-21.54895038
2.5,250,0.215,-0.54,-0.8909999999999999,59.53033620000001,-32.2002396,12.4904844,30.79076292,12.11233212,-21.61770534
2.51,251,0.205,-0.545,-0.872,61.9367598,-32.7731976,12.7196676,31.409557560000003,11.78001648,-21.6864603
2.52,252,0.195,-0.5579999999999999,-0.858,64.22859179999999,-33.0596766,12.891555,32.05127052,11.44770084,-21.75521526
2.53,253,0.179,-0.561,-0.8320000000000001,66.00476160000001,-34.1482968,13.178034,32.71017222,11.109655620000002,-21.83542938
2.54,254,0.16899999999999998,-0.561,-0.8029999999999999,68.6976642,-33.3461556,12.7196676,33.39199224,10.77733998,-21.92137308
2.55,255,0.16899999999999998,-0.5660000000000001,-0.7959999999999999,70.93220040000001,-32.8877892,12.1467096,34.10246016,10.45075392,-22.01304636
2.56,256,0.166,-0.575,-0.7829999999999999,73.052145,-33.74722620000001,12.0894138,34.83011682,10.12416786,-22.11044922
2.57,257,0.166,-0.5870000000000001,-0.769,75.4012728,-34.7212548,12.4904844,35.58642138000001,9.78612264,-22.21358166
2.5799999999999996,258,0.156,-0.6,-0.746,77.23473840000003,-36.5547204,12.834259199999998,36.3541851,9.43661826,-22.33390284
2.59,259,0.149,-0.605,-0.716,79.18279559999998,-37.6433406,12.6623718,37.13913756,9.081384300000002,-22.46568318
2.5999999999999996,260,0.139,-0.607,-0.6920000000000001,80.95896540000003,-37.41415739999999,12.318597,37.94700834,8.73187992,-22.6031931
2.61,261,0.123,-0.609,-0.6729999999999999,83.5945722,-38.27359439999999,11.9748222,38.78352702,8.376645960000001,-22.75216218
2.6199999999999997,262,0.124,-0.627,-0.664,85.82910840000002,-38.1590028,11.516455800000001,39.63723444,8.03287116,-22.91259042
2.63,263,0.111,-0.64,-0.6459999999999999,86.68854540000002,-38.61736920000001,10.7143146,40.49667144,7.6890963600000015,-23.08447782
2.6399999999999997,264,0.1,-0.644,-0.639,87.4333908,-38.90384820000001,9.797581800000001,41.3675676,7.3567807200000015,-23.27355396
2.65,265,0.08900000000000001,-0.6559999999999999,-0.614,88.63660259999996,-40.164355799999996,8.9954406,42.24992292,7.018735500000001,-23.47981884
2.6599999999999997,266,0.085,-0.662,-0.59,88.63660259999996,-41.023792799999995,8.250595200000001,43.12654866000001,6.6806902799999985,-23.70327246
2.67,267,0.079,-0.672,-0.575,89.4387438,-40.737313799999995,7.6203414,44.01463356000001,6.3598338000000005,-23.932455659999995
2.6799999999999997,268,0.071,-0.688,-0.578,89.8971102,-40.8519054,7.161975,44.90844804,6.03897732,-24.17309802
2.69,269,0.05,-0.693,-0.547,90.813843,-41.9978214,6.990087599999999,45.8079921,5.71812084,-24.42519954
2.6999999999999997,270,0.044,-0.693,-0.525,91.959759,-40.90920120000001,6.1879464,46.73045448000001,5.414453099999999,-24.68303064
2.71,271,0.038,-0.693,-0.515,92.3035338,-40.4508348,5.6722842,47.64718728,5.1222445200000015,-24.946591320000003
2.7199999999999998,272,0.028,-0.726,-0.505,93.4494498,-40.164355799999996,5.1566220000000005,48.57537924,4.83576552,-25.210152
2.73,273,0.011,-0.726,-0.483,93.105675,-39.877876799999996,5.443101,49.5035712,4.56074568,-25.47944226
2.7399999999999998,274,-0.004,-0.7490000000000001,-0.474,93.6213372,-38.4454818,5.6722842,50.44322232,4.29145542,-25.73727336
2.75,275,-0.012,-0.758,-0.463,93.8505204,-36.7839036,5.5003968,51.38860301999999,4.03362432,-25.98937488
2.76,276,-0.014,-0.767,-0.443,94.13699940000001,-35.46610020000001,5.3285094000000015,52.333983720000006,3.79871154,-26.23574682
2.77,277,-0.017,-0.7659999999999999,-0.431,93.7932246,-34.262888399999994,4.6409598,53.27363484,3.57525792,-26.47638918
2.78,278,-0.006,-0.764,-0.412,95.0537322,-32.8877892,3.9534102,54.22474512,3.3689930400000003,-26.71703154
2.79,279,0.0,-0.76,-0.385,94.4234784,-32.2002396,4.1825934,55.1758554,3.1741873200000006,-26.9576739
2.8,280,0.0,-0.762,-0.375,94.6526616,-30.366774000000003,3.7815227999999994,56.138424840000006,2.98511118,-27.18112752
2.81,281,-0.003,-0.778,-0.381,95.28291540000001,-29.1062664,3.9534102,57.0952647,2.81322378,-27.404581140000005
2.82,282,-0.021,-0.797,-0.374,95.970465,-28.8770832,4.1825934,58.06356372000001,2.64706596,-27.62230518
2.8299999999999996,283,-0.039,-0.809,-0.35100000000000003,96.6007188,-28.1322378,4.1825934,59.03759232,2.48090814,-27.83429964
2.84,284,-0.042,-0.821,-0.32299999999999995,97.2882684,-27.3300966,4.0680017999999984,60.02308008,2.33193906,-28.0462941
2.8499999999999996,285,-0.037000000000000005,-0.8190000000000001,-0.317,96.7726062,-26.814434400000003,3.7815227999999994,61.00856784,2.1772404,-28.25828856
2.86,286,-0.032,-0.82,-0.29,96.6007188,-27.7311672,3.6096354,61.98259644,2.0340008999999997,-28.4760126
2.8699999999999997,287,-0.025,-0.826,-0.29100000000000004,95.7985776,-27.903054600000004,4.010706000000001,62.95089546000001,1.8907613999999997,-28.7051958
2.88,288,-0.02,-0.83,-0.285,94.824549,-27.3873924,3.8961144,63.9134649,1.75325148,-28.92291984
2.8899999999999997,289,-0.026,-0.84,-0.279,94.6526616,-26.814434400000003,3.2658606,64.87030476,1.6272007199999998,-29.14637346
2.9,290,-0.022,-0.856,-0.267,93.1629708,-26.5279554,3.380452200000001,65.82141504,1.50114996,-29.369827080000004
2.9099999999999997,291,-0.028,-0.8640000000000001,-0.239,92.4181254,-25.496631,3.2658606,66.75533657999999,1.38655836,-29.58182154
2.92,292,-0.048,-0.8690000000000001,-0.228,91.100322,-25.2674478,3.3231564,67.67779895999999,1.27769634,-29.793816
2.9299999999999997,293,-0.06,-0.872,-0.207,90.06899759999996,-24.1215318,3.151269,68.59453176,1.1745638999999999,-30.000080879999995
2.94,294,-0.069,-0.882,-0.205,88.2928278,-22.9756158,2.7501984,69.48834624,1.0886202,-30.20061618
2.9499999999999997,295,-0.062,-0.884,-0.198,86.51665799999998,-22.1161788,2.2345362,70.37643114,0.9969469199999998,-30.395421899999995
2.96,296,-0.054000000000000006,-0.888,-0.184,85.3134462,-20.454600600000006,1.6042823999999998,71.24159771999999,0.93392154,-30.57303888
2.9699999999999998,297,-0.05,-0.894,-0.18,84.1675302,-18.6784308,0.6875496,72.09530514000002,0.8823553199999999,-30.7391967
2.98,298,-0.035,-0.908,-0.17,82.79243100000002,-18.3919518,0.572958,72.93755340000001,0.83651868,-30.9110841
2.9899999999999998,299,-0.027000000000000003,-0.923,-0.16899999999999998,81.2454444,-17.8189938,0.11459160000000004,73.76261292000002,0.79641162,-31.07151234
3.0,300,-0.016,-0.93,-0.155,79.75575359999998,-16.7876694,0.2291832000000001,74.58194286,0.76203414,-31.226211
3.01,301,-0.024,-0.931,-0.141,78.6671334,-17.589810600000003,0.8021411999999999,75.37835448000001,0.72192708,-31.38663924
3.02,302,-0.036000000000000004,-0.932,-0.134,76.8336678,-18.5065434,0.5156622000000001,76.15757735999998,0.68182002,-31.558526640000004
3.03,303,-0.039,-0.949,-0.129,74.59913159999998,-17.761698000000006,0.0,76.91388192,0.65317212,-31.718954879999995
3.04,304,-0.034,-0.955,-0.122,71.90622900000002,-16.1001198,-0.2291832000000001,77.64726816,0.6302538000000001,-31.87365354
3.05,305,-0.022,-0.959,-0.115,69.900876,-16.1001198,0.0,78.36346566,0.6073354799999999,-32.02262262000001
3.06,306,-0.02,-0.952,-0.112,69.041439,-16.615782,0.2291832000000001,79.06247442,0.5844171599999999,-32.177321279999994
3.07,307,-0.022,-0.958,-0.093,68.6976642,-18.162768600000003,0.9167328,79.76148318,0.55576926,-32.34920868
3.08,308,-0.025,-0.963,-0.071,66.80690279999999,-18.7930224,1.0313244,80.44330319999997,0.52712136,-32.52109608
3.09,309,-0.027000000000000003,-0.962,-0.08,64.3431834,-18.621135,1.2605076000000002,81.09647532,0.49274388,-32.69871306
3.0999999999999996,310,-0.034,-0.959,-0.059,63.82752120000001,-19.4232762,1.3750992,81.75537702,0.4583664000000001,-32.88205962
3.11,311,-0.039,-0.972,-0.054000000000000006,61.6502808,-19.4232762,1.145916,82.37990124000002,0.4297185000000001,-33.06540618
3.1199999999999997,312,-0.043,-0.966,-0.059,59.30115299999999,-18.1054728,0.3437748,82.98150714,0.41252976,-33.23729358
3.13,313,-0.036000000000000004,-0.996,-0.062,57.86875799999999,-16.673077799999998,0.0,83.57165388,0.40680018,-33.39199224
3.1399999999999997,314,-0.047,-0.976,-0.045,56.0925882,-14.8396122,0.9167328,84.14461188,0.38961144,-33.53523174
3.15,315,-0.051,-0.986,-0.033,55.9779966,-14.381245800000002,0.4583664000000001,84.71756988,0.3724227000000001,-33.66701208
3.1599999999999997,316,-0.051,-0.969,-0.044,53.22779820000001,-13.178034,0.4583664000000001,85.25615040000002,0.36096354,-33.79306284
3.17,317,-0.051,-0.971,-0.023,53.11320660000001,-11.3445684,0.8594370000000001,85.79473092,0.35523396,-33.89619528
3.1799999999999997,318,-0.045,-0.987,-0.01,51.7381074,-10.0840608,1.5469866,86.32185228,0.33804522,-33.99359814
3.19,319,-0.037000000000000005,-0.98,-0.019,49.61816279999999,-9.0527364,1.6042823999999998,86.82605532,0.32085648,-34.07381226
3.1999999999999997,320,-0.035,-0.984,-0.022,47.9565846,-8.136003599999999,1.145916,87.31879920000002,0.30939732,-34.1482968
3.21,321,-0.03,-0.987,0.006999999999999999,46.982556,-7.7349330000000025,1.3750992,87.79435434000001,0.29793816,-34.22278134
3.2199999999999998,322,-0.032,-0.995,0.009000000000000001,45.3782736,-7.5057497999999985,1.8907613999999997,88.25272074,0.28074942,-34.291536300000004
3.23,323,-0.034,-1.008,0.0,43.4302164,-7.8495246,1.9480572,88.69962798,0.26356068,-34.36029126
3.2399999999999998,324,-0.036000000000000004,-1.008,0.032,42.5707794,-8.651665800000002,1.6615782,89.12934648,0.25210152,-34.440505380000005
3.25,325,-0.038,-1.012,0.04,41.4248634,-8.7662574,1.0313244,89.55333540000002,0.24064236,-34.52644908
3.26,326,-0.039,-1.014,0.03,40.04976420000001,-8.307891,0.4583664000000001,89.96586515999998,0.24064236,-34.60093362
3.27,327,-0.039,-1.022,0.042,39.47680620000001,-7.1046792000000005,0.1718874,90.36693576,0.24064236,-34.66968858
3.28,328,-0.042,-1.011,0.042,37.1849742,-5.6722842,-0.6875496,90.74508804,0.25783110000000004,-34.7212548
3.29,329,-0.042,-1.008,0.04,36.7839036,-3.8388186,-1.2032118,91.11751074,0.26929026,-34.75563228
3.3,330,-0.036000000000000004,-1.006,0.066,36.38283300000001,-1.6042823999999998,-1.2032118,91.49566302,0.28074942,-34.767091439999994
3.31,331,-0.031,-1.004,0.079,35.9817624,-0.6302538000000001,-0.4010706,91.86235614,0.28647900000000004,-34.767091439999994
3.32,332,-0.029,-1.013,0.061,34.091001,-0.6302538000000001,0.6302538000000001,92.20613094,0.28074942,-34.772821019999995
3.33,333,-0.022,-1.022,0.054000000000000006,31.913760600000003,-0.572958,1.432395,92.532717,0.26929026,-34.772821019999995
3.34,334,-0.012,-1.016,0.071,30.252182399999995,-1.432395,2.2345362,92.83638474,0.25210152,-34.78428018
3.3499999999999996,335,-0.014,-1.012,0.076,29.392745399999995,-3.0366774,2.578311,93.1343229,0.22345362,-34.81292808
3.36,336,-0.019,-1.018,0.07,27.444688199999998,-3.3231564,2.6356068,93.41507232,0.20626488,-34.84157598
3.3699999999999997,337,-0.02,-1.016,0.068,25.8977016,-2.5210152000000003,2.4637194,93.67863300000002,0.18334656,-34.870223880000005
3.38,338,-0.021,-1.013,0.068,25.496631,-2.4064236,2.4637194,93.9364641,0.16042824,-34.8931422
3.3899999999999997,339,-0.024,-1.011,0.083,25.0955604,-2.291832,2.5210152000000003,94.1942952,0.14323950000000002,-34.91033094
3.4,340,-0.023,-1.012,0.115,23.7204612,-1.8334656000000005,2.578311,94.44639672,0.11459160000000004,-34.933249260000004
3.4099999999999997,341,-0.015,-0.993,0.142,21.6578124,-3.0366774,3.0939732,94.66985034,0.09167328,-34.96189716
3.42,342,-0.013,-0.994,0.117,20.168121600000006,-4.010706000000001,3.2658606,94.87611522,0.06302537999999999,-35.00200422
3.4299999999999997,343,-0.004,-1.003,0.091,19.4232762,-4.3544808,3.3231564,95.07092094,0.03437748,-35.04211128
3.44,344,0.0,-1.02,0.095,19.7097552,-5.2712136,3.4377480000000005,95.27145624,0.01145916,-35.09940708000001
3.4499999999999997,345,0.006,-1.027,0.11,19.480572,-7.1046792000000005,3.4950437999999995,95.47199154,-0.00572958,-35.16816204
3.46,346,0.003,-1.023,0.118,18.5638392,-9.453807000000001,3.5523396000000003,95.66106768,-0.028647900000000007,-35.2655649
3.4699999999999998,347,-0.003,-1.017,0.118,17.7044022,-11.2872726,3.3231564,95.84441424,-0.04583664,-35.37442692000001
3.48,348,-0.013,-1.01,0.118,17.18874,-11.8029348,2.86479,96.01630164,-0.057295800000000015,-35.4947481
3.4899999999999998,349,-0.02,-1.007,0.12,16.673077799999998,-11.516455800000001,2.5210152000000003,96.18818904,-0.06302537999999999,-35.60361012
3.5,350,-0.027000000000000003,-1.009,0.125,16.272007199999994,-10.886202,2.5210152000000003,96.35434686,-0.0859437,-35.71247214
3.51,351,-0.031,-1.009,0.13,15.6990492,-10.313244,2.4064236,96.5147751,-0.09167328,-35.81560458
3.52,352,-0.028,-1.011,0.13699999999999998,13.750992000000002,-10.313244,2.1199446,96.6580146,-0.09740286,-35.91873702
3.53,353,-0.024,-1.006,0.146,12.2040054,-11.3445684,2.1199446,96.78406536,-0.10313244,-36.02759904
3.54,354,-0.021,-1.002,0.151,12.0894138,-12.3758928,2.4637194,96.90438654,-0.10886202,-36.1536498
3.55,355,-0.018000000000000002,-1.0,0.151,12.5477802,-12.7769634,2.7501984,97.03616688,-0.12032118,-36.27970056
3.56,356,-0.016,-1.003,0.146,12.605076,-13.2926256,2.86479,97.16794722,-0.12605075999999998,-36.4114809
3.57,357,-0.017,-1.012,0.139,12.1467096,-14.495837400000001,2.86479,97.29399798,-0.13178034,-36.554720399999994
3.58,358,-0.021,-1.018,0.135,11.917526400000002,-15.0687954,2.4637194,97.42004874,-0.13178034,-36.70368948
3.59,359,-0.026,-1.016,0.139,11.8602306,-14.7250206,1.8907613999999997,97.54036992,-0.12605075999999998,-36.85265856
3.5999999999999996,360,-0.034,-1.005,0.146,12.318597,-13.464512999999998,1.3750992,97.66642068,-0.13178034,-36.97870931999999
3.61,361,-0.04,-1.003,0.153,12.0894138,-12.4904844,1.3178034,97.79247144,-0.12605075999999998,-37.10476008
3.6199999999999997,362,-0.043,-0.999,0.158,11.45916,-12.2040054,1.6615782,97.90706304,-0.12032118,-37.22508126
3.63,363,-0.038,-1.001,0.161,10.7143146,-11.3445684,1.8334656000000005,98.02165464,-0.12032118,-37.33394328
3.6399999999999997,364,-0.032,-1.003,0.162,9.2819196,-10.7716104,2.2345362,98.1190575,-0.12032118,-37.4428053
3.65,365,-0.027000000000000003,-1.001,0.166,8.651665800000002,-11.172681,2.8074942000000003,98.2050012,-0.13750992,-37.55166732
3.6599999999999997,366,-0.021,-0.997,0.173,8.4224826,-11.45916,3.2085648,98.29667448,-0.14896908,-37.67198850000001
3.67,367,-0.019,-0.996,0.18,8.250595200000001,-12.0894138,3.4950437999999995,98.38261818,-0.16615782,-37.79230968
3.6799999999999997,368,-0.016,-0.998,0.18600000000000005,8.021412000000002,-12.7196676,3.4950437999999995,98.4628323,-0.17761697999999998,-37.91836044
3.69,369,-0.019,-0.999,0.185,7.6776372,-13.464512999999998,3.2085648,98.54304642,-0.18334656,-38.05587036
3.6999999999999997,370,-0.021,-0.997,0.185,7.333862400000001,-14.152062599999999,2.8074942000000003,98.62899012,-0.19480572,-38.19910986
3.71,371,-0.025,-0.999,0.185,7.0473834,-14.667724800000002,2.3491278,98.70347466,-0.19480572,-38.34234936
3.7199999999999998,372,-0.033,-1.002,0.185,6.875496000000001,-15.0687954,2.291832,98.77795919999998,-0.18907614,-38.49131844
3.73,373,-0.036000000000000004,-0.999,0.187,6.8182002000000015,-15.0114996,2.3491278,98.84671416,-0.18334656,-38.64028752
3.7399999999999998,374,-0.036000000000000004,-0.999,0.187,6.9327918,-14.266654199999998,2.1772404,98.9211987,-0.17761697999999998,-38.78352702
3.75,375,-0.037000000000000005,-1.005,0.181,7.2765666,-13.407217200000002,2.2345362,98.99568324,-0.18907614,-38.91530736
3.76,376,-0.039,-0.998,0.183,7.2765666,-12.7769634,2.291832,99.07589736,-0.18907614,-39.04135812
3.77,377,-0.043,-0.988,0.189,7.448453999999999,-11.9748222,2.2345362,99.1503819,-0.18907614,-39.161679299999996
3.78,378,-0.045,-0.991,0.196,7.2765666,-11.0007936,2.1199446,99.23059602,-0.18907614,-39.27054132
3.79,379,-0.041,-0.999,0.198,6.417129599999999,-9.8548776,2.3491278,99.2936214,-0.19480572,-39.36794418
3.8,380,-0.038,-1.003,0.195,5.3858052,-9.1100322,2.4637194,99.35664678,-0.21772404,-39.45961746
3.81,381,-0.032,-1.004,0.189,4.297185,-8.8235532,2.578311,99.40248342,-0.2291832000000001,-39.55129074
3.82,382,-0.031,-1.003,0.185,3.4950437999999995,-9.0527364,2.6929026,99.4368609,-0.23491278,-39.64296402
3.83,383,-0.029,-1.001,0.185,3.151269,-9.3392154,2.4064236,99.47123838,-0.24064236,-39.734637299999996
3.84,384,-0.033,-1.01,0.185,2.7501984,-9.5111028,2.2345362,99.49988628,-0.24637194,-39.83204016
3.8499999999999996,385,-0.039,-1.004,0.179,2.291832,-8.9954406,2.0053530000000004,99.51707502,-0.27501984,-39.91798386
3.86,386,-0.041,-1.001,0.172,2.1199446,-7.9641161999999985,1.6615782,99.53999334,-0.27501984,-39.99819798
3.8699999999999997,387,-0.04,-0.995,0.172,2.4064236,-6.990087599999999,1.6042823999999998,99.56291166,-0.28074942,-40.07268252
3.88,388,-0.042,-0.99,0.17800000000000002,2.291832,-5.7868758000000025,1.2032118,99.59155956,-0.28074942,-40.12997832
3.8899999999999997,389,-0.045,-0.995,0.182,2.1199446,-4.8128472,1.0313244,99.61447788,-0.28074942,-40.17581496
3.9,390,-0.048,-0.993,0.185,2.0053530000000004,-3.8961144,0.8021411999999999,99.63166662,-0.34950438,-40.21019244
3.9099999999999997,391,-0.049,-0.991,0.188,1.8907613999999997,-2.7501984,0.4583664000000001,99.64885536,-0.3437748,-40.23884034
3.92,392,-0.047,-0.992,0.188,1.432395,-1.3178034,0.4010706,99.6660441,-0.34950438,-40.2502995
3.9299999999999997,393,-0.042,-0.991,0.18600000000000005,1.0886202,-0.4010706,0.572958,99.67750326,-0.35523396,-40.25602908
3.94,394,-0.039,-0.991,0.19,0.9167328,-0.057295800000000015,0.6875496,99.68323284,-0.36096354,-40.25602908
3.9499999999999997,395,-0.039,-0.994,0.195,1.2605076000000002,0.11459160000000004,0.4583664000000001,99.71761032,-0.4984734599999999,-40.2502995
3.96,396,-0.041,-0.998,0.2,1.432395,0.6302538000000001,-0.1718874,99.73479906,-0.4984734599999999,-40.24456992
3.9699999999999998,397,-0.039,-0.997,0.199,1.7188740000000002,1.432395,-0.8021411999999999,99.7519878,-0.49274388,-40.22738118
3.98,398,-0.037000000000000005,-0.992,0.202,2.0053530000000004,1.8907613999999997,-1.3178034,99.76917654,-0.4870143000000001,-40.20446286
3.9899999999999998,399,-0.033,-0.994,0.207,1.8907613999999997,2.3491278,-1.0886202,99.78636528,-0.47555514,-40.18154454
4.0,400,-0.029,-0.992,0.212,1.5469866,3.0366774,-0.8594370000000001,99.8379315,-0.5042030399999999,-40.15289664
4.01,401,-0.029,-0.993,0.212,1.0313244,3.3231564,-0.9167328,99.84939066,-0.4984734599999999,-40.11851916
4.02,402,-0.034,-0.992,0.212,0.572958,3.6669312000000014,-1.0313244,99.85512024,-0.49274388,-40.0784121
4.03,403,-0.039,-0.992,0.212,0.286479,4.1252976000000015,-1.2032118,99.85512024,-0.49274388,-40.03830504
4.04,404,-0.039,-0.993,0.213,0.2291832000000001,4.8128472,-1.5469866,99.86084981999998,-0.4870143000000001,-39.98673882
4.05,405,-0.039,-0.993,0.21,0.057295800000000015,5.3285094000000015,-1.7188740000000002,99.87803856,-0.5156622000000001,-39.9351726
4.06,406,-0.036000000000000004,-0.991,0.211,0.1718874,5.72958,-1.7761698,99.88376814,-0.5099326200000001,-39.8778768
4.07,407,-0.033,-0.989,0.213,0.0,5.958763200000001,-1.6615782,99.87803856,-0.5042030399999999,-39.81485142
4.08,408,-0.028,-0.988,0.213,-0.1718874,5.958763200000001,-1.5469866,99.87803856,-0.4984734599999999,-39.75182604
4.09,409,-0.025,-0.989,0.209,-0.4010706,5.5576926,-1.432395,99.87230898,-0.49274388,-39.69453024
4.1,410,-0.024,-0.99,0.208,-0.5156622000000001,5.2712136,-1.432395,99.88376814,-0.5042030399999999,-39.64296402
4.109999999999999,411,-0.024,-0.99,0.208,-0.4010706,5.0993262,-1.5469866,99.87803856,-0.4984734599999999,-39.591397799999996
4.12,412,-0.025,-0.99,0.209,-0.3437748,4.9847345999999995,-1.5469866,99.87230898,-0.49274388,-39.53983158
4.13,413,-0.025,-0.991,0.213,-0.3437748,4.8701430000000006,-1.6615782,99.8665794,-0.4870143000000001,-39.48826536
4.14,414,-0.025,-0.993,0.214,-0.4010706,4.6982556,-1.4896908000000002,99.86084981999998,-0.48128472,-39.44242872
4.1499999999999995,415,-0.028,-0.993,0.219,-0.5156622000000001,4.5263682,-1.3178034,99.89522729999999,-0.4984734599999999,-39.40232166
4.16,416,-0.028,-0.99,0.224,-0.6875496,4.297185,-1.0313244,99.88949772,-0.4984734599999999,-39.35648502
4.17,417,-0.026,-0.988,0.227,-1.0313244,4.1252976000000015,-0.8594370000000001,99.87803856,-0.49274388,-39.31637796
4.18,418,-0.025,-0.987,0.229,-1.6042823999999998,4.010706000000001,-0.8594370000000001,99.86084981999998,-0.49274388,-39.2762709
4.1899999999999995,419,-0.024,-0.987,0.227,-2.1772404,3.6669312000000014,-0.8594370000000001,99.8379315,-0.49274388,-39.23616384
4.2,420,-0.025,-0.986,0.223,-2.4064236,3.3231564,-0.8594370000000001,99.85512024,-0.5099326200000001,-39.21324552
4.21,421,-0.027000000000000003,-0.983,0.223,-2.4064236,2.9793816000000004,-0.6875496,99.82647233999998,-0.5099326200000001,-39.17886804
4.22,422,-0.028,-0.984,0.224,-2.2345362,2.86479,-0.572958,99.80355402,-0.5099326200000001,-39.15022014
4.2299999999999995,423,-0.029,-0.984,0.223,-2.0626488000000003,2.8074942000000003,-0.4583664000000001,99.78636528,-0.5099326200000001,-39.12157224
4.24,424,-0.027000000000000003,-0.985,0.222,-2.0053530000000004,2.3491278,-0.286479,99.76344696,-0.5099326200000001,-39.09865392
4.25,425,-0.027000000000000003,-0.984,0.221,-1.9480572,1.8907613999999997,-0.1718874,99.82074276,-0.53858052,-39.09292434
4.26,426,-0.027000000000000003,-0.984,0.223,-1.8907613999999997,1.3750992,-0.1718874,99.79782444,-0.53858052,-39.08146518
4.27,427,-0.028,-0.987,0.229,-2.1772404,1.6042823999999998,-0.11459160000000004,99.77490612,-0.5443101,-39.06427644
4.28,428,-0.033,-0.992,0.234,-2.8074942000000003,2.291832,0.0,99.74625822,-0.5443101,-39.04135812
4.29,429,-0.036000000000000004,-0.994,0.235,-3.6669312000000014,2.9793816000000004,0.11459160000000004,99.71188074,-0.55576926,-39.01271022
