TimeStamp(s),FrameCounter,AccX,AccY,AccZ,GyrX,GyrY,GyrZ,EulerX,EulerY,EulerZ
0.01,1,-0.006999999999999999,-1.0090000000000001,0.07,1.5469866,-0.3437748,-0.286479,92.45250288,0.00572958,10.75442166
0.02,2,-0.008,-1.008,0.076,1.0886202,-0.1718874,-0.572958,92.46396204,0.01145916,10.75442166
0.03,3,-0.009000000000000001,-1.008,0.075,1.0313244000000001,-0.11459160000000004,-0.5156622000000001,92.4754212,0.01718874,10.74869208
0.04,4,-0.01,-1.0090000000000001,0.075,0.9740286,-0.1718874,-0.5156622000000001,92.48688036,0.02291832,10.74869208
0.05,5,-0.01,-1.008,0.07200000000000001,0.9167328000000001,-0.1718874,-0.6302538000000001,92.5040691,0.01718874,10.7429625
0.060000000000000005,6,-0.009000000000000001,-1.0070000000000001,0.069,0.9740286,-0.1718874,-0.6302538000000001,92.51552826,0.02291832,10.7429625
0.06999999999999999,7,-0.01,-1.006,0.07,1.2605076000000002,-0.286479,-0.6302538000000001,92.532717,0.028647900000000007,10.73723292
0.08,8,-0.008,-1.008,0.073,1.4896908000000002,-0.2291832000000001,-0.6302538000000001,92.54417616,0.03437748,10.73723292
0.09,9,-0.009000000000000001,-1.008,0.075,1.5469866,-0.286479,-0.6875496,92.56136490000002,0.04583664,10.73150334
0.09999999999999999,10,-0.006999999999999999,-1.008,0.076,1.5469866,-0.4583664000000001,-0.6302538000000001,92.5900128,0.04583664,10.72577376
0.11,11,-0.008,-1.0070000000000001,0.075,1.6615782,-0.6875496,-0.5156622000000001,92.60720154,0.05156622,10.72004418
0.12,12,-0.006,-1.0070000000000001,0.078,1.7761698000000001,-0.7448454000000001,-0.4583664000000001,92.63011986,0.057295800000000015,10.70858502
0.13,13,-0.006,-1.006,0.08,1.6042823999999998,-0.8021411999999999,-0.4583664000000001,92.64157902,0.06302537999999999,10.70285544
0.14,14,-0.006,-1.008,0.078,1.3750992,-0.9740286,-0.4583664000000001,92.65876776,0.06875496,10.69712586
0.15000000000000002,15,-0.005,-1.0090000000000001,0.075,1.2605076000000002,-1.2605076000000002,-0.3437748,92.6759565,0.07448454,10.679937120000002
0.16,16,-0.002,-1.0070000000000001,0.071,1.3178034,-1.7761698000000001,-0.2291832000000001,92.68741566,0.08021412,10.66274838
0.17,17,-0.002,-1.006,0.069,1.5469866,-2.2345362,-0.1718874,92.70460440000001,0.08021412,10.63983006
0.18000000000000002,18,-0.005,-1.004,0.07200000000000001,1.7761698000000001,-2.5783110000000002,-0.11459160000000004,92.72752272,0.0859437,10.61691174
0.19,19,-0.009000000000000001,-1.002,0.073,1.8907614,-2.6929026,-0.057295800000000015,92.74471146,0.0859437,10.58826384
0.2,20,-0.013999999999999999,-0.9990000000000001,0.073,2.1199446,-2.5783110000000002,-0.1718874,92.76762978,0.08021412,10.56534552
0.21000000000000002,21,-0.017,-1.001,0.07200000000000001,2.1199446,-2.1199446,-0.3437748,92.7905481,0.0859437,10.5424272
0.22,22,-0.02,-1.005,0.07400000000000001,2.1199446,-1.6615782,-0.40107059999999994,92.81346642,0.09167328,10.52523846
0.23,23,-0.019,-1.0070000000000001,0.075,2.1199446,-1.432395,-0.572958,92.83638474,0.10313244,10.513779300000001
0.24000000000000002,24,-0.017,-1.006,0.076,2.4064236,-1.2032118,-0.8021411999999999,92.85930306,0.10886202,10.502320139999998
0.25,25,-0.011000000000000001,-1.004,0.08,2.6929026,-0.8594370000000001,-0.9167328000000001,92.89941012,0.11459160000000003,10.49086098
0.26,26,-0.005,-1.0,0.08199999999999999,2.8074942000000003,-0.6302538000000001,-0.8594370000000001,92.92805802,0.12605075999999998,10.4851314
0.27,27,0.0,-0.998,0.084,2.9220858,-0.6875496,-0.9167328000000001,92.95670592,0.13750992,10.47940182
0.28,28,0.003,-1.0,0.083,3.0939732,-0.9167328000000001,-0.7448454000000001,92.98535382,0.14323950000000002,10.46794266
0.29000000000000004,29,0.004,-1.002,0.083,3.3231564,-1.432395,-0.572958,93.01973129999999,0.15469866,10.4564835
0.3,30,0.004,-1.002,0.084,3.4950437999999995,-2.0053530000000004,-0.40107059999999994,93.06556794,0.16042824,10.43356518
0.31,31,0.001,-1.002,0.086,3.5523396000000003,-2.291832,-0.3437748,93.09994542,0.16615782,10.41064686
0.32,32,-0.001,-1.002,0.09,3.5523396000000003,-2.5210152000000003,-0.1718874,93.1343229,0.1718874,10.38772854
0.33,33,-0.006,-1.0,0.091,3.6669312000000014,-2.8074942000000003,-0.11459160000000004,93.17442996,0.17761697999999998,10.35908064
0.34,34,-0.006999999999999999,-1.002,0.092,3.5523396000000003,-2.9793816000000004,-0.057295800000000015,93.20880744,0.17761697999999998,10.33043274
0.35000000000000003,35,-0.006999999999999999,-1.002,0.094,3.4950437999999995,-3.2658606,0.0,93.25464408,0.17761697999999998,10.29605526
0.36000000000000004,36,-0.008,-1.003,0.095,3.4377480000000005,-3.380452200000001,0.0,93.28902156,0.18334656,10.26167778
0.37,37,-0.009000000000000001,-1.004,0.1,3.3231564,-3.4950437999999995,0.11459160000000004,93.32339904,0.18334656,10.227300300000001
0.38,38,-0.008,-1.006,0.102,2.86479,-3.380452200000001,0.11459160000000004,93.35777652,0.18334656,10.19292282
0.39,39,-0.008,-1.008,0.10099999999999999,2.3491277999999998,-3.2085647999999996,0.2291832000000001,93.38069484,0.18334656,10.16427492
0.4,40,-0.008,-1.012,0.09699999999999999,1.7761698000000001,-3.0939732,0.286479,93.40934274,0.17761697999999998,10.12989744
0.41000000000000003,41,-0.01,-1.014,0.094,1.432395,-3.1512689999999997,0.5156622000000001,93.42653148,0.17761697999999998,10.09551996
0.42000000000000004,42,-0.013000000000000001,-1.014,0.094,1.0886202,-3.1512689999999997,0.6302538000000001,93.43799064,0.1718874,10.06687206
0.43,43,-0.016,-1.014,0.092,0.8021411999999999,-2.86479,0.6302538000000001,93.4494498,0.1718874,10.03822416
0.44,44,-0.019,-1.012,0.091,0.5156622000000001,-2.3491277999999998,0.5156622000000001,93.45517938,0.16615782,10.01530584
0.45,45,-0.022000000000000002,-1.01,0.09,0.2291832000000001,-1.6042823999999998,0.4583664000000001,93.47236812,0.12032118,9.99238752
0.46,46,-0.024,-1.0090000000000001,0.08900000000000001,-0.11459160000000004,-0.8021411999999999,0.40107059999999994,93.47236812,0.11459160000000003,9.98092836
0.47000000000000003,47,-0.024,-1.008,0.087,-0.40107059999999994,-0.11459160000000004,0.40107059999999994,93.46663854,0.11459160000000003,9.98092836
0.48000000000000004,48,-0.024,-1.008,0.085,-0.5156622000000001,0.5156622000000001,0.572958,93.46090896,0.10886202,9.98665794
0.49,49,-0.022000000000000002,-1.0090000000000001,0.085,-0.7448454000000001,1.2605076000000002,0.572958,93.45517938,0.09740286,9.9981171
0.5,50,-0.021,-1.01,0.085,-0.9167328000000001,1.8334656000000005,0.572958,93.44372022,0.07448454,10.01530584
0.51,51,-0.018000000000000002,-1.011,0.083,-1.0313244000000001,2.3491277999999998,0.4583664000000001,93.43226106,0.06875496,10.03822416
0.52,52,-0.013999999999999999,-1.01,0.083,-1.3750992,2.6929026,0.40107059999999994,93.42080190000001,0.06302537999999999,10.06687206
0.53,53,-0.011000000000000001,-1.008,0.083,-1.6042823999999998,2.7501984,0.40107059999999994,93.40361316,0.05156622,10.08979038
0.54,54,-0.006999999999999999,-1.0070000000000001,0.08,-1.8334656000000005,2.7501984,0.1718874,93.38642442,0.05156622,10.11843828
0.55,55,-0.004,-1.005,0.075,-1.7188740000000002,2.5783110000000002,0.11459160000000004,93.35777652,0.04583664,10.14708618
0.56,56,-0.002,-1.002,0.075,-1.3750992,2.2345362,0.0,93.34631736,0.04583664,10.1700045
0.5700000000000001,57,-0.002,-1.001,0.077,-0.9740286,1.6615782,0.0,93.3348582,0.04010706,10.18719324
0.5800000000000001,58,-0.002,-1.001,0.079,-0.6875496,1.2605076000000002,-0.057295800000000015,93.32912862,0.04010706,10.1986524
0.59,59,-0.004,-1.0,0.08199999999999999,-0.6302538000000001,0.9167328000000001,-0.2291832000000001,93.32339904,0.04583664,10.20438198
0.6,60,-0.005,-0.998,0.086,-0.5156622000000001,0.7448454000000001,-0.2291832000000001,93.34058778,0.04010706,10.20438198
0.61,61,-0.004,-0.9990000000000001,0.087,-0.5156622000000001,0.572958,-0.4583664000000001,93.3348582,0.04583664,10.215841139999998
0.62,62,-0.005,-0.998,0.08800000000000001,-0.40107059999999994,0.572958,-0.4583664000000001,93.32912862,0.05156622,10.22157072
0.63,63,-0.004,-1.0,0.091,-0.40107059999999994,0.40107059999999994,-0.5156622000000001,93.32912862,0.05156622,10.22157072
0.64,64,-0.004,-1.002,0.092,-0.3437748,0.286479,-0.5156622000000001,93.32339904,0.057295800000000015,10.227300300000001
0.65,65,-0.005,-1.005,0.09300000000000001,-0.3437748,0.057295800000000015,-0.40107059999999994,93.38642442,0.05156622,10.21011156
0.66,66,-0.006999999999999999,-1.0070000000000001,0.09300000000000001,-0.572958,0.0,-0.5156622000000001,93.38069484,0.057295800000000015,10.21011156
0.67,67,-0.006999999999999999,-1.008,0.09300000000000001,-0.572958,0.057295800000000015,-0.572958,93.37496526,0.06302537999999999,10.21011156
0.68,68,-0.01,-1.01,0.09300000000000001,-0.7448454000000001,0.057295800000000015,-0.5156622000000001,93.3635061,0.06875496,10.21011156
0.6900000000000001,69,-0.011000000000000001,-1.01,0.092,-0.7448454000000001,0.11459160000000004,-0.4583664000000001,93.35777652,0.06875496,10.215841139999998
0.7000000000000001,70,-0.011000000000000001,-1.008,0.092,-0.8594370000000001,0.0,-0.3437748,93.38642442,0.05156622,10.20438198
0.7100000000000001,71,-0.011000000000000001,-1.005,0.096,-0.8594370000000001,0.0,-0.40107059999999994,93.37496526,0.057295800000000015,10.20438198
0.72,72,-0.01,-1.006,0.094,-1.0886202,0.2291832000000001,-0.572958,93.3635061,0.06302537999999999,10.21011156
0.73,73,-0.008,-1.006,0.091,-1.3178034,0.8021411999999999,-0.7448454000000001,93.35204694,0.06875496,10.215841139999998
0.74,74,-0.008,-1.008,0.091,-1.4896908000000002,1.0313244000000001,-0.8594370000000001,93.3348582,0.07448454,10.227300300000001
0.75,75,-0.006999999999999999,-1.0090000000000001,0.091,-1.6042823999999998,0.9740286,-0.8594370000000001,93.32912862,0.08021412,10.23302988
0.76,76,-0.006,-1.0070000000000001,0.09,-1.6615782,0.7448454000000001,-0.7448454000000001,93.31193988,0.0859437,10.24448904
0.77,77,-0.003,-1.004,0.091,-1.6042823999999998,0.4583664000000001,-0.5156622000000001,93.29475114,0.09167328,10.24448904
0.78,78,-0.002,-1.002,0.09300000000000001,-1.6042823999999998,0.11459160000000004,-0.286479,93.2775624,0.09740286,10.25021862
0.79,79,-0.004,-1.002,0.094,-1.7761698000000001,-0.057295800000000015,-0.1718874,93.26037366,0.09740286,10.25021862
0.8,80,-0.006,-1.003,0.092,-1.9480572,0.0,-0.057295800000000015,93.26610324,0.09167328,10.23875946
0.81,81,-0.01,-1.004,0.087,-2.0626488000000003,0.286479,-0.1718874,93.24318492,0.09167328,10.24448904
0.8200000000000001,82,-0.013000000000000001,-1.003,0.085,-1.8907614,0.4583664000000001,-0.3437748,93.22599618,0.09740286,10.25021862
0.8300000000000001,83,-0.013000000000000001,-1.0,0.084,-1.8334656000000005,0.6875496,-0.4583664000000001,93.20307786,0.09740286,10.255948199999999
0.8400000000000001,84,-0.011000000000000001,-0.9990000000000001,0.083,-1.7188740000000002,0.8021411999999999,-0.4583664000000001,93.18588912,0.10313244,10.26167778
0.85,85,-0.008,-0.997,0.08199999999999999,-1.6042823999999998,0.7448454000000001,-0.40107059999999994,93.18015954,0.09740286,10.26740736
0.86,86,-0.006,-0.9990000000000001,0.08199999999999999,-1.4896908000000002,0.7448454000000001,-0.4583664000000001,93.1629708,0.10313244,10.27886652
0.87,87,-0.004,-1.002,0.08,-1.3178034,0.7448454000000001,-0.2291832000000001,93.14578206000002,0.10313244,10.2845961
0.88,88,-0.005,-1.004,0.078,-1.2032118,0.6875496,-0.057295800000000015,93.1343229,0.10313244,10.29032568
0.89,89,-0.006,-1.005,0.078,-1.2032118,0.6875496,0.0,93.12286374,0.10313244,10.29605526
0.9,90,-0.006999999999999999,-1.005,0.076,-1.2032118,0.8021411999999999,0.0,93.11140458,0.09167328,10.30751442
0.91,91,-0.01,-1.005,0.075,-1.0886202,1.0313244000000001,-0.057295800000000015,93.09994542,0.09167328,10.31897358
0.92,92,-0.012,-1.006,0.076,-1.0313244000000001,1.2605076000000002,-0.11459160000000004,93.08848626,0.09167328,10.33043274
0.93,93,-0.011000000000000001,-1.005,0.076,-1.0313244000000001,1.432395,-0.2291832000000001,93.0770271,0.09740286,10.3418919
0.9400000000000001,94,-0.011000000000000001,-1.006,0.08,-1.2032118,1.5469866,-0.286479,93.06556794,0.09740286,10.35908064
0.9500000000000001,95,-0.006999999999999999,-1.006,0.08199999999999999,-1.2605076000000002,1.4896908000000002,-0.3437748,93.05983836,0.09740286,10.3705398
0.9600000000000001,96,-0.004,-1.004,0.081,-1.4896908000000002,1.3750992,-0.3437748,93.0483792,0.09740286,10.38199896
0.97,97,0.0,-1.003,0.083,-1.4896908000000002,1.145916,-0.3437748,93.03119046,0.10313244,10.399187699999999
0.98,98,0.002,-1.001,0.085,-1.3750992,1.2032118,-0.1718874,93.01400172,0.10313244,10.41064686
0.99,99,0.001,-1.0,0.086,-1.2605076000000002,1.145916,-0.11459160000000004,93.00254256,0.10313244,10.42210602
1.0,100,0.0,-0.9990000000000001,0.085,-1.2032118,0.9740286,-0.11459160000000004,93.00827214,0.10313244,10.42210602
1.01,101,-0.002,-0.9990000000000001,0.084,-1.145916,0.8021411999999999,-0.11459160000000004,92.99681298,0.10313244,10.43356518
1.02,102,-0.004,-1.0,0.08199999999999999,-1.0886202,0.8021411999999999,0.0,92.98535382,0.10313244,10.43929476
1.03,103,-0.006,-1.0,0.08,-0.8594370000000001,0.572958,0.0,92.97962424,0.10313244,10.44502434
1.04,104,-0.008,-1.003,0.077,-0.6875496,0.572958,0.0,92.96816508,0.10313244,10.45075392
1.05,105,-0.006,-1.001,0.076,-0.3437748,0.3437748,-0.057295800000000015,92.97389466,0.09167328,10.4564835
1.06,106,-0.006,-1.002,0.076,-0.3437748,0.40107059999999994,-0.3437748,92.97389466,0.09740286,10.4564835
1.07,107,-0.005,-1.004,0.077,-0.286479,0.572958,-0.40107059999999994,92.96816508,0.09740286,10.46221308
1.08,108,-0.005,-1.0070000000000001,0.077,-0.40107059999999994,0.6875496,-0.40107059999999994,92.9624355,0.10313244,10.47367224
1.09,109,-0.004,-1.01,0.075,-0.4583664000000001,0.572958,-0.2291832000000001,92.95670592,0.10313244,10.47940182
1.1,110,-0.002,-1.011,0.07400000000000001,-0.572958,0.3437748,0.0,92.95097633999998,0.11459160000000003,10.47940182
1.11,111,-0.001,-1.011,0.071,-0.572958,0.1718874,0.1718874,92.94524676,0.10886202,10.4851314
1.12,112,-0.003,-1.008,0.073,-0.572958,0.0,0.1718874,92.93951718,0.10886202,10.4851314
1.1300000000000001,113,-0.002,-1.006,0.07200000000000001,-0.572958,-0.3437748,0.1718874,92.9337876,0.10886202,10.47940182
1.1400000000000001,114,-0.004,-1.004,0.07200000000000001,-0.6302538000000001,-0.4583664000000001,0.057295800000000015,92.92232844,0.10886202,10.47367224
1.1500000000000001,115,-0.005,-1.003,0.07400000000000001,-0.572958,-0.6875496,0.0,92.92805802,0.09740286,10.46794266
1.1600000000000001,116,-0.006,-1.002,0.076,-0.6875496,-0.6302538000000001,-0.057295800000000015,92.91659886,0.10313244,10.4564835
1.17,117,-0.006,-1.004,0.077,-0.9740286,-0.4583664000000001,-0.286479,92.91086928,0.10313244,10.4564835
1.18,118,-0.006999999999999999,-1.004,0.076,-1.0313244000000001,-0.2291832000000001,-0.286479,92.89941012,0.10886202,10.45075392
1.19,119,-0.006,-1.008,0.077,-1.145916,-0.2291832000000001,-0.286479,92.88795096,0.10886202,10.45075392
1.2,120,-0.004,-1.008,0.081,-1.2032118,-0.2291832000000001,-0.2291832000000001,92.89368054,0.10886202,10.43929476
1.21,121,-0.002,-1.0070000000000001,0.083,-1.7761698000000001,-0.1718874,-0.057295800000000015,92.8764918,0.10886202,10.43929476
1.22,122,-0.001,-1.006,0.083,-2.0053530000000004,-0.286479,0.0,92.85357348,0.10886202,10.43356518
1.23,123,-0.001,-1.0070000000000001,0.079,-1.9480572,-0.40107059999999994,0.1718874,92.83638474,0.10886202,10.43356518
1.24,124,-0.001,-1.01,0.07400000000000001,-1.9480572,-0.5156622000000001,0.2291832000000001,92.81346642,0.10886202,10.4278356
1.25,125,-0.003,-1.014,0.073,-2.0053530000000004,-0.6302538000000001,0.2291832000000001,92.79627768,0.10313244,10.41637644
1.26,126,-0.005,-1.014,0.073,-1.9480572,-0.8021411999999999,0.286479,92.77335936,0.09740286,10.41064686
1.27,127,-0.006999999999999999,-1.013,0.073,-1.7761698000000001,-1.0886202,0.11459160000000004,92.75617062,0.09740286,10.399187699999999
1.28,128,-0.006,-1.006,0.07200000000000001,-1.8334656000000005,-1.2032118,0.0,92.73898188,0.10313244,10.38772854
1.29,129,-0.005,-1.0,0.073,-1.8334656000000005,-1.3750992,-0.057295800000000015,92.72179314,0.10313244,10.3705398
1.3,130,-0.002,-0.997,0.07400000000000001,-1.8334656000000005,-1.3178034,-0.11459160000000004,92.70460440000001,0.10886202,10.35908064
1.31,131,-0.002,-0.998,0.07,-1.8334656000000005,-1.3178034,0.0,92.68741566,0.10886202,10.3418919
1.32,132,-0.003,-1.0,0.068,-1.7188740000000002,-1.3178034,0.057295800000000015,92.67022692,0.10886202,10.33043274
1.33,133,-0.004,-1.002,0.068,-1.5469866,-1.3750992,0.057295800000000015,92.65303818,0.10886202,10.31897358
1.34,134,-0.004,-1.003,0.067,-1.432395,-1.3750992,0.1718874,92.64157902,0.10886202,10.30178484
1.35,135,-0.006,-1.002,0.067,-1.2605076000000002,-1.432395,0.1718874,92.62439028,0.10313244,10.29032568
1.36,136,-0.008,-1.001,0.068,-0.9167328000000001,-1.5469866,0.286479,92.61293112,0.09740286,10.27313694
1.37,137,-0.01,-1.002,0.068,-0.7448454000000001,-1.6615782,0.1718874,92.60720154,0.09740286,10.255948199999999
1.3800000000000001,138,-0.012,-1.003,0.07200000000000001,-0.572958,-1.7188740000000002,0.11459160000000004,92.60147196,0.09740286,10.23875946
1.3900000000000001,139,-0.011000000000000001,-1.005,0.073,-0.6302538000000001,-1.6615782,0.11459160000000004,92.59574238000002,0.09740286,10.22157072
1.4000000000000001,140,-0.013000000000000001,-1.005,0.07200000000000001,-0.7448454000000001,-1.4896908000000002,0.057295800000000015,92.59574238000002,0.08021412,10.20438198
1.4100000000000001,141,-0.013000000000000001,-1.006,0.07200000000000001,-0.6875496,-1.145916,0.0,92.5900128,0.08021412,10.19292282
1.42,142,-0.013000000000000001,-1.0070000000000001,0.073,-0.6302538000000001,-0.7448454000000001,-0.057295800000000015,92.58428322,0.0859437,10.18719324
1.43,143,-0.012,-1.0090000000000001,0.071,-0.4583664000000001,-0.4583664000000001,-0.11459160000000004,92.57855364,0.0859437,10.18146366
1.44,144,-0.013000000000000001,-1.011,0.071,-0.40107059999999994,-0.2291832000000001,0.0,92.57855364,0.0859437,10.17573408
1.45,145,-0.011000000000000001,-1.012,0.071,-0.3437748,-0.11459160000000004,0.11459160000000004,92.5900128,0.04010706,10.1700045
1.46,146,-0.01,-1.01,0.07200000000000001,-0.3437748,-0.11459160000000004,0.2291832000000001,92.58428322,0.03437748,10.1700045
1.47,147,-0.009000000000000001,-1.006,0.07,-0.5156622000000001,-0.11459160000000004,0.1718874,92.57855364,0.03437748,10.1700045
1.48,148,-0.008,-1.003,0.068,-0.5156622000000001,-0.1718874,0.1718874,92.57282406,0.03437748,10.16427492
1.49,149,-0.008,-1.0,0.066,-0.4583664000000001,-0.11459160000000004,0.0,92.57282406,0.03437748,10.16427492
1.5,150,-0.006,-1.0,0.067,-0.3437748,-0.11459160000000004,0.0,92.5900128,0.01718874,10.15854534
1.51,151,-0.006999999999999999,-1.002,0.068,-0.1718874,-0.2291832000000001,0.0,92.58428322,0.01718874,10.15854534
1.52,152,-0.006999999999999999,-1.0070000000000001,0.069,-0.2291832000000001,-0.286479,0.0,92.58428322,0.02291832,10.15281576
1.53,153,-0.008,-1.008,0.068,-0.286479,-0.286479,0.0,92.57855364,0.02291832,10.14708618
1.54,154,-0.01,-1.0090000000000001,0.069,-0.286479,-0.286479,0.0,92.57855364,0.02291832,10.14708618
1.55,155,-0.008,-1.005,0.069,-0.1718874,-0.3437748,-0.057295800000000015,92.58428322,0.0,10.1413566
1.56,156,-0.01,-1.005,0.07,-0.11459160000000004,-0.40107059999999994,-0.2291832000000001,92.58428322,0.00572958,10.13562702
1.57,157,-0.01,-1.003,0.071,-0.057295800000000015,-0.4583664000000001,-0.1718874,92.58428322,0.00572958,10.12989744
1.58,158,-0.01,-1.002,0.07,-0.057295800000000015,-0.40107059999999994,0.0,92.58428322,0.00572958,10.12989744
1.59,159,-0.008,-1.002,0.071,-0.057295800000000015,-0.11459160000000004,0.0,92.57855364,0.00572958,10.12416786
1.6,160,-0.006999999999999999,-1.002,0.069,-0.11459160000000004,0.11459160000000004,0.0,92.5900128,0.0,10.12416786
1.61,161,-0.006999999999999999,-1.006,0.067,-0.11459160000000004,0.3437748,0.1718874,92.5900128,0.0,10.12989744
1.62,162,-0.008,-1.0090000000000001,0.066,0.0,0.286479,0.3437748,92.5900128,0.0,10.12989744
1.6300000000000001,163,-0.008,-1.011,0.067,0.1718874,0.11459160000000004,0.40107059999999994,92.5900128,-0.00572958,10.13562702
1.6400000000000001,164,-0.009000000000000001,-1.01,0.066,0.057295800000000015,0.0,0.4583664000000001,92.5900128,-0.01145916,10.13562702
1.6500000000000001,165,-0.01,-1.008,0.065,0.0,-0.11459160000000004,0.3437748,92.57855364,-0.028647900000000007,10.13562702
1.6600000000000001,166,-0.009000000000000001,-1.005,0.066,-0.11459160000000004,-0.11459160000000004,0.1718874,92.57282406,-0.03437748,10.13562702
1.6700000000000002,167,-0.008,-1.005,0.066,-0.11459160000000004,0.0,0.057295800000000015,92.57282406,-0.03437748,10.13562702
1.68,168,-0.006999999999999999,-1.006,0.064,-0.1718874,0.0,0.0,92.57282406,-0.03437748,10.13562702
1.69,169,-0.005,-1.0070000000000001,0.062,-0.3437748,-0.11459160000000004,0.0,92.56709448,-0.03437748,10.12989744
1.7,170,-0.005,-1.008,0.062,-0.2291832000000001,-0.3437748,0.11459160000000004,92.54417616,-0.03437748,10.12989744
1.71,171,-0.005,-1.008,0.063,-0.2291832000000001,-0.6302538000000001,0.1718874,92.54417616,-0.03437748,10.12416786
1.72,172,-0.006999999999999999,-1.005,0.065,-0.2291832000000001,-0.6875496,0.1718874,92.53844658,-0.03437748,10.11843828
1.73,173,-0.01,-1.004,0.066,-0.1718874,-0.6302538000000001,0.11459160000000004,92.53844658,-0.04010706,10.1127087
1.74,174,-0.012,-1.003,0.066,-0.057295800000000015,-0.6302538000000001,0.0,92.53844658,-0.04010706,10.10697912
1.75,175,-0.012,-1.005,0.064,-0.1718874,-0.40107059999999994,-0.1718874,92.52698742,-0.06302537999999999,10.10124954
1.76,176,-0.013999999999999999,-1.008,0.067,-0.40107059999999994,-0.3437748,-0.40107059999999994,92.52125784,-0.057295800000000015,10.10124954
1.77,177,-0.013999999999999999,-1.01,0.068,-0.5156622000000001,-0.11459160000000004,-0.5156622000000001,92.51552826,-0.05156622,10.09551996
1.78,178,-0.012,-1.008,0.068,-0.4583664000000001,0.0,-0.572958,92.50979868,-0.04583664,10.10124954
1.79,179,-0.009000000000000001,-1.005,0.068,-0.5156622000000001,0.11459160000000004,-0.6302538000000001,92.5040691,-0.04010706,10.10124954
1.8,180,-0.006999999999999999,-1.003,0.071,-0.572958,0.1718874,-0.5156622000000001,92.51552826,-0.04010706,10.10124954
1.81,181,-0.006999999999999999,-1.002,0.073,-0.286479,0.4583664000000001,-0.286479,92.50979868,-0.04010706,10.10697912
1.82,182,-0.006,-1.004,0.07200000000000001,-0.2291832000000001,0.572958,-0.286479,92.50979868,-0.03437748,10.1127087
1.83,183,-0.005,-1.006,0.069,-0.40107059999999994,0.572958,-0.2291832000000001,92.5040691,-0.03437748,10.11843828
1.84,184,-0.006,-1.006,0.066,-0.4583664000000001,0.3437748,-0.11459160000000004,92.49833952,-0.03437748,10.11843828
1.85,185,-0.006,-1.005,0.067,-0.40107059999999994,0.286479,-0.286479,92.49833952,-0.03437748,10.12416786
1.86,186,-0.006999999999999999,-1.006,0.068,-0.286479,0.3437748,-0.40107059999999994,92.49260994,-0.028647900000000007,10.12416786
1.87,187,-0.008,-1.006,0.067,-0.11459160000000004,0.286479,-0.4583664000000001,92.49260994,-0.02291832,10.12989744
1.8800000000000001,188,-0.006999999999999999,-1.0070000000000001,0.067,-0.11459160000000004,0.11459160000000004,-0.4583664000000001,92.49260994,-0.01718874,10.12989744
1.8900000000000001,189,-0.006999999999999999,-1.0090000000000001,0.066,-0.057295800000000015,0.0,-0.3437748,92.49260994,-0.01718874,10.12989744
1.9000000000000001,190,-0.006999999999999999,-1.0090000000000001,0.066,0.1718874,-0.057295800000000015,-0.2291832000000001,92.48688036,-0.028647900000000007,10.13562702
1.9100000000000001,191,-0.006999999999999999,-1.0070000000000001,0.068,0.286479,-0.286479,-0.057295800000000015,92.48688036,-0.028647900000000007,10.12989744
1.9200000000000002,192,-0.009000000000000001,-1.006,0.067,0.2291832000000001,-0.2291832000000001,-0.057295800000000015,92.49260994,-0.028647900000000007,10.12989744
1.93,193,-0.008,-1.004,0.065,0.1718874,-0.057295800000000015,-0.1718874,92.49260994,-0.02291832,10.12416786
1.94,194,-0.01,-1.002,0.064,0.1718874,-0.11459160000000004,-0.2291832000000001,92.49833952,-0.02291832,10.12416786
1.95,195,-0.01,-1.003,0.063,0.11459160000000004,-0.057295800000000015,-0.286479,92.48688036,-0.04010706,10.12989744
1.96,196,-0.01,-1.004,0.061,0.286479,-0.057295800000000015,-0.3437748,92.48688036,-0.04010706,10.12416786
1.97,197,-0.01,-1.006,0.061,0.286479,-0.1718874,-0.40107059999999994,92.49260994,-0.03437748,10.12416786
1.98,198,-0.009000000000000001,-1.005,0.06,0.3437748,-0.2291832000000001,-0.40107059999999994,92.49260994,-0.028647900000000007,10.12416786
1.99,199,-0.01,-1.005,0.061,0.40107059999999994,-0.3437748,-0.572958,92.49833952,-0.02291832,10.11843828
2.0,200,-0.01,-1.004,0.061,0.4583664000000001,-0.286479,-0.6875496,92.49260994,-0.028647900000000007,10.11843828
2.01,201,-0.013000000000000001,-1.005,0.061,0.6302538000000001,-0.11459160000000004,-0.6875496,92.49833952,-0.02291832,10.11843828
2.02,202,-0.013000000000000001,-1.006,0.063,0.6875496,0.11459160000000004,-0.6875496,92.5040691,-0.01145916,10.11843828
2.03,203,-0.013000000000000001,-1.008,0.064,0.5156622000000001,0.5156622000000001,-0.8021411999999999,92.50979868,-0.00572958,10.12416786
2.04,204,-0.013000000000000001,-1.008,0.067,0.40107059999999994,1.0313244000000001,-0.8594370000000001,92.51552826,0.0,10.13562702
2.05,205,-0.013000000000000001,-1.01,0.069,0.1718874,1.7188740000000002,-0.9167328000000001,92.52125784,0.0,10.15281576
2.0599999999999996,206,-0.013999999999999999,-1.014,0.067,-0.057295800000000015,2.291832,-1.0313244000000001,92.52125784,0.00572958,10.17573408
2.07,207,-0.018000000000000002,-1.016,0.067,-0.4583664000000001,2.7501984,-1.145916,92.51552826,0.01145916,10.20438198
2.0799999999999996,208,-0.021,-1.0170000000000001,0.067,-0.8021411999999999,2.9220858,-1.3750992,92.5040691,0.02291832,10.23302988
2.09,209,-0.023,-1.0190000000000001,0.067,-0.9740286,3.380452200000001,-1.7188740000000002,92.49260994,0.04010706,10.26740736
2.0999999999999996,210,-0.023,-1.022,0.069,-1.2605076000000002,3.8388186,-2.1772404,92.48115077999998,0.05156622,10.30751442
2.11,211,-0.022000000000000002,-1.022,0.069,-1.432395,4.1252976000000015,-2.5783110000000002,92.46396204,0.07448454,10.34762148
2.1199999999999997,212,-0.019,-1.021,0.068,-1.4896908000000002,4.5263682,-2.9793816000000004,92.45250288,0.10313244,10.39345812
2.13,213,-0.015,-1.0170000000000001,0.065,-1.3178034,4.6982555999999995,-3.0366774,92.43531414,0.12605075999999998,10.43929476
2.1399999999999997,214,-0.01,-1.0090000000000001,0.065,-1.2605076000000002,4.583664,-2.9793816000000004,92.42385498,0.15469866,10.49086098
2.15,215,-0.004,-1.0,0.066,-1.2032118,4.4117766,-2.86479,92.41239582,0.17761697999999998,10.53096804
2.1599999999999997,216,0.0,-0.9940000000000001,0.067,-1.0886202,4.0680017999999984,-2.6929026,92.40093666,0.20053530000000008,10.57680468
2.17,217,0.005,-0.992,0.068,-0.8021411999999999,3.4377480000000005,-2.4637194,92.3894775,0.22345362,10.61118216
2.1799999999999997,218,0.008,-0.995,0.067,-0.8594370000000001,3.0366774,-2.291832,92.37801834,0.24637194,10.63983006
2.19,219,0.011000000000000001,-0.9990000000000001,0.068,-1.0313244000000001,2.5210152000000003,-2.2345362,92.36655918,0.26929026,10.66847796
2.1999999999999997,220,0.01,-1.0070000000000001,0.066,-1.3178034,2.0626488000000003,-2.1772404,92.35510002,0.29220857999999994,10.685666699999999
2.21,221,0.009000000000000001,-1.013,0.062,-1.6042823999999998,1.2605076000000002,-2.1199446,92.33791128,0.31512690000000004,10.70285544
2.2199999999999998,222,0.006,-1.0190000000000001,0.057999999999999996,-1.6615782,0.40107059999999994,-2.1199446,92.32072254,0.33804522,10.70858502
2.23,223,0.005,-1.02,0.055999999999999994,-1.6615782,-0.3437748,-2.0626488000000003,92.3035338,0.35523396,10.70285544
2.2399999999999998,224,0.005,-1.0170000000000001,0.06,-1.7188740000000002,-0.9740286,-1.8907614,92.28634506,0.37815228,10.69139628
2.25,225,0.002,-1.013,0.061,-2.0626488000000003,-1.3178034,-1.6042823999999998,92.26915632,0.38961144,10.679937120000002
2.26,226,-0.003,-1.01,0.062,-2.291832,-1.432395,-1.5469866,92.24050842,0.40680018,10.66847796
2.27,227,-0.005,-1.012,0.059000000000000004,-2.6929026,-1.4896908000000002,-1.5469866,92.2175901,0.42398892,10.65128922
2.28,228,-0.008,-1.018,0.06,-3.380452200000001,-1.432395,-1.8334656000000005,92.18321262,0.44117766,10.63983006
2.29,229,-0.009000000000000001,-1.022,0.063,-4.4690724,-1.2032118,-2.1772404,92.13737598,0.46409598,10.6283709
2.3,230,-0.008,-1.024,0.065,-5.443101,-1.0886202,-2.4637194,92.08008018,0.4870143000000001,10.61691174
2.31,231,-0.006,-1.023,0.065,-6.4744254,-0.8594370000000001,-2.7501984,92.0170548,0.5156622000000001,10.60545258
2.32,232,-0.002,-1.02,0.061,-7.448453999999999,-0.2291832000000001,-3.0366774,91.93684068,0.5443101,10.60545258
2.3299999999999996,233,0.0,-1.0170000000000001,0.057999999999999996,-7.734933000000002,0.5156622000000001,-2.9220858,91.86235614,0.5729580000000001,10.61118216
2.34,234,0.002,-1.014,0.054000000000000006,-7.5630456000000015,1.145916,-2.6929026,91.78214202,0.6016058999999999,10.62264132
2.3499999999999996,235,0.004,-1.008,0.05,-7.2765666,1.7761698000000001,-2.7501984,91.70765748,0.62452422,10.63983006
2.36,236,0.006999999999999999,-1.004,0.047,-7.1046792000000005,2.3491277999999998,-2.6929026,91.63317294,0.65317212,10.66274838
2.3699999999999997,237,0.005,-0.997,0.044000000000000004,-7.2765666,2.5210152000000003,-2.7501984,91.56441798,0.67609044,10.685666699999999
2.38,238,0.001,-0.992,0.051,-7.333862400000001,2.1772404,-2.86479,91.48420386,0.70473834,10.70858502
2.3899999999999997,239,-0.002,-0.99,0.063,-7.5630456000000015,1.0886202,-3.0366774,91.40971932,0.73338624,10.72004418
2.4,240,-0.003,-0.992,0.057999999999999996,-8.5370742,0.8021411999999999,-3.2085647999999996,91.32377562,0.76203414,10.72577376
2.4099999999999997,241,0.0,-0.9940000000000001,0.051,-9.3392154,1.3178034,-3.2658606,91.23210234,0.7906820400000001,10.7429625
2.42,242,0.001,-0.9940000000000001,0.042,-9.682990199999999,1.7761698000000001,-3.2658606,91.1289699,0.8250595199999999,10.76015124
2.4299999999999997,243,0.001,-0.995,0.035,-9.167328,2.2345362,-3.1512689999999997,91.03729662,0.8537074199999999,10.77733998
2.44,244,-0.003,-1.002,0.028999999999999998,-8.3651868,2.3491277999999998,-2.4637194,90.95135292,0.87662574,10.800258300000001
2.4499999999999997,245,0.002,-1.002,0.03,-6.8182002000000015,2.3491277999999998,-1.7761698000000001,90.88259796,0.89381448,10.82317662
2.46,246,0.012,-1.0,0.023,-5.3285094000000015,2.4637194,-1.4896908000000002,90.82530216,0.90527364,10.85182452
2.4699999999999998,247,0.018000000000000002,-0.996,0.022000000000000002,-4.6409598,2.6356068,-1.4896908000000002,90.77946552,0.92246238,10.87474284
2.48,248,0.011000000000000001,-0.991,0.026000000000000002,-4.5263682,2.9793816000000004,-1.432395,90.73362888,0.93392154,10.90339074
2.4899999999999998,249,-0.002,-0.982,0.037000000000000005,-4.1825934,3.2085647999999996,-1.145916,90.68779224,0.9453807,10.93776822
2.5,250,-0.005,-0.9740000000000001,0.039,-3.8961144,4.2398892,-0.9740286,90.65341476,0.9453807,10.97787528
2.51,251,-0.003,-0.972,0.026000000000000002,-4.8128472,5.3858052,-0.8021411999999999,90.60184854,0.95111028,11.029441499999999
2.52,252,0.0,-0.972,0.02,-5.958763200000001,6.2452422,-0.3437748,90.53882316,0.95111028,11.09246688
2.53,253,0.009000000000000001,-0.973,0.018000000000000002,-6.8182002000000015,7.1046792000000005,0.6302538000000001,90.4700682,0.93965112,11.16122184
2.54,254,0.018000000000000002,-0.972,0.013000000000000001,-7.333862400000001,7.448453999999999,2.0626488000000003,90.39558366,0.9167328,11.23570638
2.55,255,0.028999999999999998,-0.971,0.006,-7.906820400000001,6.9327918,4.1825934,90.30963996,0.87662574,11.30446134
2.56,256,0.035,-0.9670000000000001,-0.002,-8.7662574,4.8701430000000006,6.9327918,90.22369626,0.8021412000000001,11.35029798
2.57,257,0.043,-0.966,0.0,-8.59437,1.8907614,9.6256944,90.13775256,0.7104679199999999,11.36748672
2.5799999999999996,258,0.049,-0.966,-0.006,-8.5370742,-0.4583664000000001,11.2872726,90.05180886000002,0.59587632,11.36175714
2.59,259,0.045,-0.9670000000000001,-0.006,-8.250595200000001,-2.0626488000000003,11.9748222,89.96586515999998,0.47555514,11.33883882
2.5999999999999996,260,0.035,-0.968,-0.011000000000000001,-7.906820400000001,-3.1512689999999997,11.9748222,89.87992145999998,0.36096354,11.31019092
2.61,261,0.024,-0.973,-0.018000000000000002,-7.734933000000002,-3.7242269999999995,11.2872726,89.79970734,0.25210152,11.27008386
2.6199999999999997,262,0.015,-0.983,-0.03,-7.5057497999999985,-4.3544808,10.1413566,89.72522280000004,0.14896908,11.22424722
2.63,263,0.006,-0.99,-0.039,-7.8495246,-4.583664,8.7662574,89.64500868,0.06302537999999999,11.17841058
2.6399999999999997,264,0.0,-0.9940000000000001,-0.043,-8.193299399999999,-4.6409598,7.448453999999999,89.56479456,-0.00572958,11.13257394
2.65,265,-0.002,-0.998,-0.046,-8.3651868,-4.4117766,6.3025379999999975,89.46739170000002,-0.06875496,11.09246688
2.6599999999999997,266,-0.002,-1.001,-0.051,-8.651665800000002,-3.7815228,5.72958,89.37571842,-0.12605075999999998,11.05235982
2.67,267,-0.005,-1.0070000000000001,-0.063,-9.2819196,-3.0939732,5.443101,89.28404514,-0.18334656,11.02371192
2.6799999999999997,268,-0.006999999999999999,-1.0090000000000001,-0.075,-10.084060800000001,-2.291832,5.443101,89.1809127,-0.23491278,10.99506402
2.69,269,-0.011000000000000001,-1.0090000000000001,-0.084,-10.5424272,-1.432395,5.6722842,89.07778026000004,-0.29220857999999994,10.98360486
2.6999999999999997,270,-0.01,-1.01,-0.091,-10.886202,-0.4583664000000001,5.6722842,88.94027034,-0.34950438,10.97787528
2.71,271,-0.002,-1.011,-0.10300000000000001,-11.9748222,0.40107059999999994,5.2712136,88.81994916,-0.40680018,10.98360486
2.7199999999999998,272,0.009000000000000001,-1.012,-0.111,-13.407217200000002,0.572958,4.583664,88.68243924,-0.4526368200000001,10.98933444
2.73,273,0.013999999999999999,-1.015,-0.11599999999999999,-15.068795399999999,0.0,3.7242269999999995,88.53347016000002,-0.49274388,10.98933444
2.7399999999999998,274,0.013000000000000001,-1.013,-0.09699999999999999,-16.558486199999994,-1.2032118,2.9793816000000004,88.36158276,-0.52139178,10.97787528
2.75,275,0.015,-1.011,-0.076,-18.793022399999998,-2.1199446,1.8907614,88.16104745999998,-0.53858052,10.95495696
2.76,276,0.013999999999999999,-1.018,-0.07200000000000001,-22.1161788,-1.8907614,0.0,87.93759384,-0.53858052,10.932038639999998
2.77,277,0.002,-1.0270000000000001,-0.076,-26.1268848,-1.432395,-1.6615782,87.67403316,-0.52139178,10.914849900000002
2.78,278,-0.005,-1.035,-0.094,-30.5386614,-0.5156622000000001,-2.6929026,87.36463583999998,-0.4984734599999999,10.90339074
2.79,279,-0.006,-1.043,-0.11699999999999999,-34.8931422,0.11459160000000004,-3.0366774,87.00940188,-0.46982556,10.89766116
2.8,280,-0.002,-1.04,-0.125,-38.445481799999996,0.9167328000000001,-2.9793816000000004,86.60833127999999,-0.44690724,10.90339074
2.81,281,0.006999999999999999,-1.032,-0.139,-42.5707794,1.8334656000000005,-3.2085647999999996,86.17861278000002,-0.41825934,10.914849900000002
2.82,282,0.001,-1.013,-0.146,-45.607456799999994,1.145916,-2.86479,85.7145168,-0.38961144,10.92057948
2.8299999999999996,283,0.004,-0.9840000000000001,-0.154,-48.185767799999994,-0.286479,-2.2345362,85.2275025,-0.3724227000000001,10.90912032
2.84,284,0.013000000000000001,-0.963,-0.16399999999999998,-50.24841660000001,-2.5783110000000002,-1.5469866,84.71756988,-0.36096354,10.88047242
2.8499999999999996,285,0.022000000000000002,-0.9490000000000001,-0.157,-52.425657,-4.8701430000000006,-1.4896908000000002,84.17898936,-0.35523396,10.82317662
2.86,286,0.031,-0.9470000000000001,-0.16699999999999998,-54.54560160000001,-5.9014674000000005,-2.1199446,83.62894968,-0.3437748,10.76015124
2.8699999999999997,287,0.031,-0.9520000000000001,-0.182,-55.11855960000001,-6.2452422,-3.0939732,83.06745083999998,-0.32085648,10.685666699999999
2.88,288,0.023,-0.9570000000000001,-0.18600000000000005,-55.4623344,-6.3025379999999975,-4.6409598,82.50595200000002,-0.28647900000000004,10.61118216
2.8899999999999997,289,0.015,-0.956,-0.172,-55.3477428,-5.6722842,-6.6463128000000005,81.94445316,-0.23491278,10.5424272
2.9,290,0.01,-0.9620000000000001,-0.17,-55.290447,-4.4117766,-7.734933000000002,81.38295432,-0.16615782,10.4851314
2.9099999999999997,291,0.002,-0.968,-0.174,-55.3477428,-3.2085647999999996,-8.479778399999999,80.82145548,-0.09167328,10.43356518
2.92,292,-0.002,-0.975,-0.174,-55.06126379999999,-2.7501984,-8.9381448,80.25995664,-0.01145916,10.38772854
2.9299999999999997,293,-0.005,-0.988,-0.17800000000000002,-54.8320806,-2.9220858,-8.479778399999999,79.70418738,0.05156622,10.33616232
2.94,294,0.0,-1.002,-0.172,-54.54560160000001,-3.0939732,-7.5630456000000015,79.15414770000002,0.12032118,10.2845961
2.9499999999999997,295,0.009000000000000001,-1.006,-0.18600000000000005,-55.1758554,-4.010706000000001,-6.1879464,78.59264886000003,0.16615782,10.23302988
2.96,296,0.017,-0.993,-0.184,-54.25912260000001,-4.8701430000000006,-5.3858052,78.04260918,0.20626488,10.16427492
2.9699999999999998,297,0.018000000000000002,-0.973,-0.187,-52.19647379999999,-5.0993262,-5.72958,77.50975824000002,0.24637194,10.10124954
2.98,298,0.015,-0.9470000000000001,-0.193,-50.47759979999999,-4.7555514,-7.2192707999999985,76.99982562,0.30366774,10.03249458
2.9899999999999998,299,0.013999999999999999,-0.9329999999999999,-0.19899999999999998,-48.185767799999994,-4.1252976000000015,-8.9381448,76.50708174,0.37815228,9.969469199999999
3.0,300,0.016,-0.938,-0.171,-45.72204840000001,-3.7242269999999995,-10.084060800000001,76.04871534,0.46409598,9.906443820000002
3.01,301,0.019,-0.963,-0.161,-44.8053156,-3.8388186,-9.7975818,75.59034894,0.5443101,9.83768886
3.02,302,0.027000000000000003,-0.988,-0.16399999999999998,-45.4355694,-3.1512689999999997,-8.8235532,75.13198254,0.61879464,9.78039306
3.03,303,0.03,-1.008,-0.18100000000000002,-46.409597999999995,-2.4637194,-6.990087599999999,74.66215697999998,0.67609044,9.73455642
3.04,304,0.026000000000000002,-1.03,-0.20199999999999999,-46.466893799999994,-2.0626488000000003,-4.6982555999999995,74.18660184000002,0.7104679199999999,9.70017894
3.05,305,0.011000000000000001,-1.03,-0.23,-47.1544434,-2.3491277999999998,-2.4637194,73.71104670000003,0.72192708,9.66580146
3.06,306,0.01,-1.025,-0.264,-46.3523022,-2.3491277999999998,-1.2032118,73.24122114,0.72192708,9.63715356
3.07,307,0.01,-0.99,-0.266,-45.550160999999996,-1.8907614,-0.9740286,72.77712516,0.72192708,9.60850566
3.08,308,-0.01,-0.943,-0.233,-44.06047020000001,-1.3178034,-1.2605076000000002,72.33021792000002,0.72192708,9.59131692
3.09,309,-0.023,-0.914,-0.2,-43.544808,-1.3750992,-1.9480572,71.88904026,0.73338624,9.568398599999998
3.0999999999999996,310,-0.035,-0.897,-0.195,-44.2323576,-0.6302538000000001,-2.6929026,71.44786260000002,0.75057498,9.54548028
3.11,311,-0.042,-0.9129999999999999,-0.196,-45.034498799999994,0.11459160000000004,-3.380452200000001,70.9894962,0.7734933,9.53402112
3.1199999999999997,312,-0.038,-0.946,-0.223,-46.696077,0.572958,-3.9534102,70.51394106000002,0.8078707799999998,9.52256196
3.13,313,-0.042,-0.9590000000000001,-0.244,-47.555514,-0.11459160000000004,-3.4377480000000005,70.03265634,0.83651868,9.50537322
3.1399999999999997,314,-0.040999999999999995,-0.958,-0.266,-47.6128098,-0.7448454000000001,-2.9793816000000004,69.54564203999999,0.8537074199999999,9.4824549
3.15,315,-0.039,-0.937,-0.263,-46.1804148,-0.6302538000000001,-3.380452200000001,69.08154606000001,0.87662574,9.45953658
3.1599999999999997,316,-0.027999999999999997,-0.907,-0.271,-45.2063862,0.6875496,-4.6409598,68.62317966,0.9167328,9.44807742
3.17,317,-0.016,-0.872,-0.265,-44.9199072,2.4064236,-5.9014674000000005,68.16481326,0.9740286,9.44807742
3.1799999999999997,318,0.004,-0.877,-0.28300000000000003,-43.9458786,4.9847346,-7.906820400000001,67.71790602000002,1.0599723,9.45953658
3.19,319,0.021,-0.8690000000000001,-0.294,-43.7166954,7.3911582,-7.6776372,67.27672836,1.15164558,9.49391406
3.1999999999999997,320,0.027000000000000003,-0.8740000000000001,-0.309,-43.0864416,7.1046792000000005,-5.5576926,66.84128028,1.22613012,9.53402112
3.21,321,0.027000000000000003,-0.888,-0.294,-41.76863820000001,4.4690724,-1.6615782,66.41729136000001,1.24904844,9.568398599999998
3.2199999999999998,322,0.013999999999999999,-0.925,-0.27699999999999997,-40.966497,1.3178034,2.1199446,66.00476160000001,1.2318597,9.58558734
3.23,323,0.0,-0.9420000000000001,-0.28300000000000003,-42.398892,-0.2291832000000001,4.6982555999999995,65.5750431,1.18029348,9.5970465
3.2399999999999998,324,-0.006,-0.946,-0.311,-42.112413000000004,0.8021411999999999,5.3285094000000015,65.14532460000001,1.13445684,9.6256944
3.25,325,-0.009000000000000001,-0.9520000000000001,-0.317,-40.10706,3.6669312000000014,3.7242269999999995,64.74998358,1.10580894,9.67153104
3.26,326,-0.017,-0.95,-0.337,-39.19032720000001,7.5630456000000015,1.3750992,64.34891298,1.1172681,9.746015580000002
3.27,327,-0.023,-0.935,-0.344,-37.7006364,11.0007936,-0.6302538000000001,63.965031120000006,1.16310474,9.83768886
3.28,328,-0.022000000000000002,-0.9209999999999999,-0.35,-36.096354,14.266654199999998,-2.0053530000000004,63.60406758000001,1.23758928,9.95228046
3.29,329,-0.018000000000000002,-0.9179999999999999,-0.36,-34.0337052,16.7876694,-1.3750992,63.25456319999999,1.3178034,10.09551996
3.3,330,-0.025,-0.9259999999999999,-0.366,-32.0283522,17.303331600000003,0.8594370000000001,62.939436300000004,1.3750992,10.25021862
3.31,331,-0.047,-0.946,-0.386,-30.4813656,16.673077799999998,3.7242269999999995,62.63003898,1.40947668,10.41637644
3.32,332,-0.07400000000000001,-0.9640000000000001,-0.379,-29.1062664,15.3552744,5.72958,62.33783040000001,1.4209358399999998,10.57680468
3.33,333,-0.091,-0.9640000000000001,-0.386,-28.6479,14.9542038,6.0733548,62.051351399999994,1.42666542,10.73723292
3.34,334,-0.08199999999999999,-0.9540000000000001,-0.39799999999999996,-27.272800800000002,16.329303,4.4117766,61.77060198,1.45531332,10.89766116
3.3499999999999996,335,-0.051,-0.9440000000000001,-0.4,-25.9549974,18.334656,1.145916,61.51850046,1.5183387000000002,11.06381898
3.36,336,-0.02,-0.945,-0.41100000000000003,-24.4653066,21.027558600000006,-1.8907614,61.27212852,1.6272007199999998,11.24143596
3.3699999999999997,337,0.005,-0.945,-0.41100000000000003,-22.86102420000001,23.319390600000002,-3.380452200000001,61.04294532,1.75898106,11.4305121
3.38,338,0.018000000000000002,-0.9390000000000001,-0.41600000000000004,-22.2880662,24.2361234,-3.7815228,60.8194917,1.90222056,11.61958824
3.3899999999999997,339,0.013999999999999999,-0.9309999999999999,-0.434,-20.8556712,23.3766864,-2.8074942000000003,60.60749724,2.02827132,11.80866438
3.4,340,0.001,-0.935,-0.439,-19.136797199999997,21.829699800000004,-1.8334656000000005,60.42415067999999,2.14286292,11.99201094
3.4099999999999997,341,-0.015,-0.9329999999999999,-0.44299999999999995,-17.9908812,20.2254174,-0.9167328000000001,60.24653370000001,2.24026578,12.16389834
3.42,342,-0.031,-0.937,-0.42200000000000004,-17.8762896,18.9649098,-0.7448454000000001,60.06891672,2.33193906,12.32432658
3.4299999999999997,343,-0.03,-0.938,-0.442,-18.334656,18.621135,-0.6875496,59.88557016,2.42361234,12.47902524
3.44,344,-0.009000000000000001,-0.938,-0.439,-17.9335854,19.308684600000007,-0.8021411999999999,59.70795317999999,2.5210152000000003,12.64518306
3.4499999999999997,345,0.018000000000000002,-0.9420000000000001,-0.4370000000000001,-17.8189938,20.912967000000002,-0.8021411999999999,59.54179536,2.62414764,12.81707046
3.46,346,0.039,-0.937,-0.455,-18.162768600000003,21.886995600000002,-0.6302538000000001,59.36417838,2.73300966,13.0061466
3.4699999999999998,347,0.052000000000000005,-0.9259999999999999,-0.47600000000000003,-17.589810600000003,22.2880662,-0.11459160000000004,59.186561399999995,2.84187168,13.19522274
3.48,348,0.055,-0.922,-0.475,-15.6417534,22.2880662,0.6302538000000001,59.03759232,2.93927454,13.390028460000002
3.4899999999999998,349,0.052000000000000005,-0.9179999999999999,-0.473,-14.209358400000001,22.803728399999997,1.432395,58.9000824,3.0366774000000003,13.596293340000004
3.5,350,0.035,-0.925,-0.47200000000000003,-13.178034,22.9756158,1.8334656000000005,58.77976122,3.12835068,13.80255822
3.51,351,0.006,-0.932,-0.47,-13.464512999999998,22.91832,1.7761698000000001,58.65371046,3.2257535399999995,14.008823099999995
3.52,352,-0.006,-0.934,-0.47100000000000003,-13.6936962,22.91832,1.6615782,58.52193012,3.31742682,14.215087979999998
3.53,353,-0.005,-0.9259999999999999,-0.46799999999999997,-14.1520626,22.4599536,1.8907614,58.38442020000001,3.4148296799999995,14.41562328
3.54,354,0.006999999999999999,-0.907,-0.47600000000000003,-14.7250206,20.7983754,2.1199446,58.24691028,3.4950437999999995,14.60469942
3.55,355,0.032,-0.89,-0.48200000000000004,-14.266654199999998,18.8503182,2.7501984,58.11512994000001,3.56379876,14.77658682
3.56,356,0.062,-0.879,-0.486,-13.407217200000002,17.0741484,3.380452200000001,57.983349600000004,3.61536498,14.94274464
3.57,357,0.081,-0.871,-0.491,-12.776963400000001,15.5844576,3.5523396000000003,57.86302842,3.66120162,15.091713719999998
3.58,358,0.08800000000000001,-0.863,-0.4970000000000001,-12.318597,14.7823164,3.2085647999999996,57.74270724,3.70703826,15.23495322
3.59,359,0.078,-0.853,-0.504,-11.688343199999998,14.32395,2.2345362,57.63384522,3.75860448,15.37246314
3.5999999999999996,360,0.057999999999999996,-0.845,-0.509,-11.172680999999999,13.636400400000001,0.6875496,57.52498320000001,3.82162986,15.48705474
3.61,361,0.043,-0.8440000000000001,-0.505,-10.4851314,13.6936962,-1.0886202,57.42185076000001,3.896114400000001,15.60164634
3.6199999999999997,362,0.028999999999999998,-0.8540000000000001,-0.504,-9.7975818,13.9228794,-2.4637194,57.33017748,3.98778768,15.704778780000002
3.63,363,0.021,-0.866,-0.503,-9.7975818,14.381245800000002,-3.5523396000000003,57.23277462000001,4.09092012,15.80791122
3.6399999999999997,364,0.02,-0.875,-0.501,-9.9121734,14.896907999999998,-4.1252976000000015,57.14110134,4.19978214,15.91104366
3.65,365,0.022000000000000002,-0.882,-0.506,-9.9694692,15.3552744,-4.0680017999999984,57.04942806,4.30291458,16.01990568
3.6599999999999997,366,0.025,-0.885,-0.506,-10.084060800000001,15.5844576,-3.6096353999999997,56.9520252,4.4117766000000005,16.1287677
3.67,367,0.026000000000000002,-0.884,-0.511,-10.2559482,15.6990492,-2.7501984,56.85462234000001,4.51490904,16.24908888
3.6799999999999997,368,0.023,-0.878,-0.519,-10.886202,15.2406828,-2.1772404,56.751489899999996,4.612311900000001,16.36368048
3.69,369,0.022000000000000002,-0.873,-0.522,-11.401864199999999,14.9542038,-2.1199446,56.64262788,4.703985179999999,16.47827208
3.6999999999999997,370,0.027999999999999997,-0.875,-0.526,-11.5737516,15.183387000000002,-2.2345362,56.53376586,4.79565846,16.59286368
3.71,371,0.031,-0.867,-0.528,-12.3758928,15.4125702,-2.6929026,56.41917426,4.893061319999998,16.707455279999998
3.7199999999999998,372,0.034,-0.848,-0.532,-13.120738199999998,15.2406828,-3.6669312000000014,56.29312349999999,5.0019233399999985,16.8163173
3.73,373,0.034,-0.858,-0.529,-12.605075999999999,14.8396122,-3.9534102,56.16707274,5.11651494,16.919449739999994
3.7399999999999998,374,0.028999999999999998,-0.867,-0.527,-12.605075999999999,14.037471,-3.8388186,56.04675156,5.21964738,17.01112302
3.75,375,0.024,-0.867,-0.525,-13.0061466,13.9228794,-3.6096353999999997,55.92643038,5.311320660000002,17.108525880000002
3.76,376,0.017,-0.866,-0.523,-13.178034,14.32395,-3.4950437999999995,55.80037962,5.4144530999999985,17.21165832
3.77,377,0.011000000000000001,-0.858,-0.526,-13.521808800000002,15.2406828,-3.7815228,55.66859928,5.52331512,17.31479076
3.78,378,0.005,-0.848,-0.518,-13.464512999999998,16.157415599999997,-4.0680017999999984,55.54254852,5.6436363,17.42365278
3.79,379,0.002,-0.8320000000000001,-0.506,-13.636400400000001,17.303331600000003,-4.3544808,55.41649776000001,5.76968706,17.54397396
3.8,380,0.009000000000000001,-0.8370000000000001,-0.5,-13.464512999999998,18.793022399999998,-4.3544808,55.29617658,5.89000824,17.6757543
3.81,381,0.011000000000000001,-0.836,-0.505,-13.8082878,19.9962342,-3.8961144,55.16439624,6.0275181600000005,17.818993799999994
3.82,382,0.015,-0.82,-0.504,-14.667724800000002,20.7410796,-3.9534102,55.02688632,6.17075766,17.96796288
3.83,383,0.011000000000000001,-0.8190000000000001,-0.507,-14.1520626,20.7410796,-3.7242269999999995,54.90083556,6.31399716,18.11693196
3.84,384,0.008,-0.8290000000000001,-0.51,-13.464512999999998,20.340009,-3.0366774,54.7747848,6.451507079999999,18.27163062
3.8499999999999996,385,0.008,-0.8290000000000001,-0.506,-13.2926256,20.3973048,-2.6356068,54.6601932,6.566098679999999,18.4205997
3.86,386,0.011000000000000001,-0.825,-0.505,-13.407217200000002,20.340009,-2.86479,54.53987202,6.69787902,18.57529836
3.8699999999999997,387,0.008,-0.8240000000000001,-0.4970000000000001,-12.834259199999998,20.3973048,-2.9793816000000004,54.42528042,6.83538894,18.72426744
3.88,388,0.008,-0.815,-0.48100000000000004,-12.605075999999999,21.027558600000006,-3.3231564,54.31068882,6.97862844,18.878966100000003
3.8899999999999997,389,0.013000000000000001,-0.795,-0.475,-13.3499214,22.058882999999998,-4.7555514,54.19036764,7.13905668,19.03366476
3.9,390,0.015,-0.787,-0.47700000000000004,-12.891555,23.605869600000002,-6.3598338,54.08150562,7.305214500000001,19.18836342
3.9099999999999997,391,0.015,-0.794,-0.47700000000000004,-12.6623718,25.496631,-7.5057497999999985,53.97264360000001,7.505749800000001,19.35452124
3.92,392,0.006999999999999999,-0.7959999999999999,-0.48100000000000004,-13.178034,27.100913399999996,-8.021412000000002,53.858052,7.72347384,19.52640864
3.9299999999999997,393,-0.003,-0.7979999999999999,-0.495,-13.5791046,28.3041252,-8.021412000000002,53.73773082,7.94119788,19.71548478
3.94,394,-0.013000000000000001,-0.8009999999999999,-0.494,-13.2353298,29.392745399999995,-7.5630456000000015,53.6288688,8.17038108,19.9102905
3.9499999999999997,395,-0.018000000000000002,-0.8079999999999999,-0.496,-12.7196676,30.366774000000003,-6.589017,53.53146594,8.37091638,20.11655538
3.96,396,-0.024,-0.813,-0.489,-12.5477802,31.1689152,-5.443101,53.43406308,8.594370000000001,20.340009
3.9699999999999998,397,-0.028999999999999998,-0.79,-0.485,-13.8082878,32.257535399999995,-5.6149884000000005,53.32520106000001,8.81782362,20.5691922
3.98,398,-0.021,-0.77,-0.47,-13.5791046,33.9764094,-7.1046792000000005,53.21633904,9.06419556,20.80410498
3.9899999999999998,399,-0.009000000000000001,-0.777,-0.469,-13.120738199999998,36.32553720000001,-8.8235532,53.11893618000001,9.34494498,21.05047692
4.0,400,-0.004,-0.7809999999999999,-0.467,-13.0061466,38.90384820000001,-10.1986524,53.0272629,9.63142398,21.30830802
4.01,401,-0.004,-0.7859999999999999,-0.47200000000000003,-14.0947668,40.966497,-11.5737516,52.92413046,9.95801004,21.571868700000003
4.02,402,-0.013999999999999999,-0.7879999999999999,-0.48100000000000004,-14.8396122,42.34159620000001,-12.318597,52.81526844,10.29605526,21.84115896
4.03,403,-0.023,-0.7929999999999999,-0.48200000000000004,-14.7823164,43.0864416,-12.4904844,52.70640641999999,10.63983006,22.1161788
4.04,404,-0.036000000000000004,-0.795,-0.48100000000000004,-15.2406828,43.77399120000001,-12.261301199999998,52.60327398,10.98933444,22.39692822
4.05,405,-0.045,-0.794,-0.475,-15.2406828,44.51883660000001,-12.032118,52.50014154,11.32165008,22.6891368
4.06,406,-0.05,-0.794,-0.462,-15.068795399999999,46.123119,-12.0894138,52.40273868000001,11.68261362,22.99280454
4.07,407,-0.044000000000000004,-0.782,-0.451,-15.2406828,48.70143,-12.776963400000001,52.30533582,12.06649548,23.30793144
4.08,408,-0.038,-0.767,-0.444,-15.6417534,51.852699,-14.1520626,52.21366254,12.47902524,23.64597666
4.09,409,-0.03,-0.757,-0.44799999999999995,-16.329303,54.8893764,-15.756345,52.11625968,12.920202899999998,23.99548104
4.1,410,-0.023,-0.762,-0.44799999999999995,-16.501190400000002,57.00932099999999,-16.558486199999994,52.03031598,13.36711014,24.35644458
4.109999999999999,411,-0.026000000000000002,-0.769,-0.442,-16.7303736,58.9573782,-16.8449652,51.9386427,13.84266528,24.734596860000003
4.12,412,-0.027000000000000003,-0.768,-0.436,-17.589810600000003,61.07732280000001,-17.0168526,51.84696941999999,14.335409159999998,25.12420830000001
4.13,413,-0.039,-0.765,-0.4370000000000001,-18.449247600000003,63.25456320000001,-17.475219,51.75529614,14.8396122,25.531008480000004
4.14,414,-0.052000000000000005,-0.765,-0.434,-18.5638392,65.2026204,-17.9335854,51.66362286,15.36673356,25.954997400000003
4.1499999999999995,415,-0.066,-0.768,-0.409,-18.449247600000003,66.9787902,-18.334656,51.59486790000001,15.888125340000002,26.384715900000003
4.16,416,-0.073,-0.747,-0.405,-19.652459399999998,70.5311298,-19.136797199999997,51.5089242,16.44962418,26.84308230000001
4.17,417,-0.071,-0.722,-0.39799999999999996,-19.9962342,73.79699040000001,-21.199446,51.43443966,17.05123008,27.31863744
4.18,418,-0.057,-0.7170000000000001,-0.385,-18.907614,76.54718879999999,-23.14750320000001,51.37714386,17.687213460000006,27.79992216
4.1899999999999995,419,-0.048,-0.7140000000000001,-0.401,-18.6784308,79.1254998,-24.1788276,51.32557764000001,18.34038558,28.29839562
4.2,420,-0.039,-0.7140000000000001,-0.39299999999999996,-18.793022399999998,81.53192340000003,-25.3247436,51.29692974,19.01074644,28.80832824
4.21,421,-0.031,-0.716,-0.386,-18.506543399999998,83.53727640000002,-25.9549974,51.27401142,19.704025620000003,29.335449600000004
4.22,422,-0.027000000000000003,-0.7190000000000001,-0.385,-18.2200644,85.25615040000002,-26.1841806,51.26255225999999,20.41449354,29.8797597
4.2299999999999995,423,-0.017,-0.722,-0.371,-18.048177,86.80313699999998,-26.5279554,51.26255225999999,21.136420620000006,30.43552896
4.24,424,-0.016,-0.7170000000000001,-0.359,-18.277360199999997,89.954406,-27.501984000000004,51.27401142,21.886995600000002,31.01421654
4.25,425,-0.021,-0.7040000000000001,-0.345,-18.793022399999998,93.6213372,-28.533308399999996,51.3083889,22.64902974,31.62155202000001
4.26,426,-0.034,-0.6990000000000001,-0.33299999999999996,-17.3606274,97.0017894,-29.392745399999995,51.3656847,23.45117094,32.25180582
4.27,427,-0.046,-0.691,-0.322,-16.272007199999994,100.61142480000001,-30.022999199999997,51.45735798,24.28196004,32.922166680000004
4.28,428,-0.064,-0.674,-0.297,-15.469866,103.5908064,-30.7105488,51.57767916,25.13566746,33.60971628
4.29,429,-0.07200000000000001,-0.649,-0.294,-15.011499599999999,106.97125859999998,-32.7731976,51.71518908,26.02375236,34.32591377999999
4.3,430,-0.066,-0.64,-0.28300000000000003,-14.438541599999999,110.5235982,-34.8358464,51.89280606,26.929026,35.07075918
4.31,431,-0.06,-0.626,-0.262,-12.776963400000001,113.0446134,-36.03905820000001,52.09907094,27.874406699999998,35.8385229
4.32,432,-0.061,-0.618,-0.256,-11.0007936,115.50833279999999,-37.3568616,52.34544287999999,28.84270572,36.62347536
4.33,433,-0.046,-0.608,-0.253,-9.740286,117.39909420000001,-38.5027776,52.62619229999999,29.822463899999995,37.43707572
4.34,434,-0.02,-0.601,-0.243,-7.1046792000000005,118.3731228,-39.3622146,52.95850794,30.819410819999995,38.26786482
4.35,435,-0.005,-0.588,-0.222,-5.042030400000002,119.8628136,-40.2789474,53.33666022,31.81062816,39.12157224
4.36,436,0.0,-0.5589999999999999,-0.198,-3.380452200000001,121.8108708,-41.9978214,53.75491956,32.836222979999995,39.99819798
4.37,437,-0.006,-0.529,-0.17800000000000002,-1.8907614,123.6443364,-44.4615408,54.21328595999999,33.88473612,40.89774204
4.38,438,-0.005,-0.499,-0.14800000000000002,-0.1718874,125.93616840000001,-46.5814854,54.717489,34.95616758,41.82020442
4.39,439,-0.001,-0.455,-0.109,1.145916,128.1707046,-48.185767799999994,55.26752868000001,36.04478778,42.78850344
4.3999999999999995,440,0.001,-0.41,-0.081,3.7815228,131.9522274,-49.274388,55.90924163999999,37.15059672,43.81409826
4.41,441,0.0,-0.364,-0.055999999999999994,5.6722842,135.4472712,-49.7327544,56.61397998,38.27359439999999,44.90271846
4.42,442,-0.01,-0.33399999999999996,-0.039,8.7089616,137.9109906,-49.1597964,57.40466202,39.39659208,46.05436404
4.43,443,-0.042,-0.297,-0.004,12.0894138,139.85904779999998,-47.784697200000004,58.29847650000001,40.50240102,47.28049416
4.4399999999999995,444,-0.066,-0.264,0.028999999999999998,17.4179232,143.0103168,-46.3523022,59.31834174,41.596750799999995,48.59829756
4.45,445,-0.095,-0.22399999999999998,0.083,21.7151082,146.56265639999995,-45.1490904,60.48144648,42.67391184,50.01923340000001
4.46,446,-0.124,-0.174,0.154,26.0122932,150.34417919999999,-43.65939960000001,61.77060198,43.73961372,51.54903126000001
4.47,447,-0.13,-0.12,0.242,31.455394199999997,154.6413642,-42.2270046,63.22591529999999,44.78239728,53.20487988
4.4799999999999995,448,-0.127,-0.078,0.307,42.28430039999999,162.8346636,-42.2270046,64.93333014,45.83091042,55.03261590000001
4.49,449,-0.11900000000000001,-0.023,0.366,50.993262,172.9760202,-44.51883660000001,66.89857608,46.896612299999994,57.06661680000001
4.5,450,-0.10099999999999999,0.025,0.435,59.4157446,185.8102794,-49.3316838,69.17894892,48.00242124,59.36417838
4.51,451,-0.045,0.081,0.469,64.4004792,201.0509622,-56.78013780000001,71.74007118,49.15406682,61.94821896
4.52,452,-0.008,0.166,0.408,64.6869582,217.9532232,-66.176649,74.60486118,50.35727862,64.88176392
4.53,453,0.036000000000000004,0.245,0.373,68.52577679999999,237.83486580000002,-77.1201468,77.8936401,51.60059748,68.25648654
4.54,454,0.061,0.48100000000000004,0.534,72.4218912,275.99386860000004,-97.0017894,81.86996862,52.96423752,72.41043204
4.55,455,0.47700000000000004,0.747,0.65,54.8320806,327.9611592,-150.5733624,86.62552002,54.70030026000001,77.66445689999998
4.56,456,1.882,0.494,0.39299999999999996,77.1201468,372.0789252,-184.6643634,92.7332523,56.465010899999996,84.17325978
4.57,457,3.1319999999999997,0.20600000000000002,0.741,126.2799432,369.2141352,-179.2212624,99.88376814,57.74843682000001,91.23210234
4.58,458,3.969,-0.258,0.763,177.1586136,285.27578819999997,-169.13720159999997,106.70769792,58.67089920000001,97.18513596
4.59,459,3.9960000000000004,-2.555,0.14,309.62650319999995,185.924871,-48.4722468,112.95866969999999,58.4703639,100.85779674
4.6,460,3.9960000000000004,-2.1109999999999998,-1.672,-33.1742682,-69.0987348,-30.8251404,111.79556496,59.03759232,99.87803856
4.61,461,3.695,0.32299999999999995,1.368,-426.96830159999996,-95.970465,-284.5882385999999,107.50410954000002,62.05708098,99.8952273
4.62,462,2.476,2.576,2.966,-230.78748240000002,200.8790748,-434.3594598,111.74972832,65.40315569999999,107.27492634
4.63,463,3.668,0.722,1.689,331.3416114000001,131.32197359999998,-270.55076760000003,120.48733782,67.24235088,113.17066416
4.64,464,2.613,-0.807,1.276,479.1647754,86.0009958,-238.69430280000003,130.62296483999998,68.6403684,118.87732584
4.6499999999999995,465,2.255,-0.16899999999999998,0.6409999999999999,206.4940632,31.2835068,-292.781538,138.8850192,70.46810442,125.46061326
4.66,466,2.366,0.428,1.554,186.4405332,132.46788959999998,-305.9022762,150.05197062,71.13273569999998,135.30403169999997
4.67,467,2.6,1.115,1.2409999999999999,196.6964814,165.24108719999995,-294.2712288,161.65437012,70.80042006,145.49122494
4.68,468,3.158,0.47600000000000003,0.7979999999999999,154.69866000000005,135.04620060000002,-213.65603819999998,169.8533991,69.99827886,152.5500675
4.6899999999999995,469,2.404,0.21899999999999997,1.588,108.0598788,123.81622379999999,-150.74524979999995,175.25639304,68.9554953,157.16810898
4.7,470,1.874,0.322,1.1,79.4119788,102.7886652,-111.3830352,178.92905381999995,67.9814667,160.26208218
4.71,471,1.537,-0.034,0.948,50.0192334,82.39136040000002,-99.0071424,-178.24723380000003,67.15067760000001,162.7773678
4.72,472,1.27,-0.501,0.963,30.194886600000004,54.8320806,-108.57554099999999,-175.53141288,66.54907170000001,165.40724502
4.7299999999999995,473,1.198,-0.514,0.9059999999999999,-2.0053530000000004,14.8396122,-124.3891818,-172.78694406,66.27405186,168.42673368
4.74,474,1.2309999999999999,-0.857,0.7070000000000001,-51.6235158,-5.7868758000000025,-127.483155,-170.455005,66.14227152,171.54935478
4.75,475,1.026,0.124,0.45299999999999996,-65.08802879999999,17.761698000000006,-140.89037219999997,-168.1345251,65.71255302,174.82094496
4.76,476,0.973,-0.036000000000000004,0.445,-38.67466500000001,30.080295,-131.207382,-165.9286368,65.13386544,177.68573496000005
4.77,477,0.758,0.161,0.226,-32.4294228,37.872523799999996,-126.45183059999998,-163.91755422,64.45204542,-179.71400627999995
4.78,478,0.452,0.42100000000000004,0.244,-3.6669312000000014,34.3201842,-106.283709,-162.10700694,63.81606204,-177.65135748
4.79,479,0.342,0.5329999999999999,0.27899999999999997,7.448453999999999,27.960350399999996,-83.5945722,-160.64596404,63.28894068,-176.10437088
4.8,480,0.276,0.5720000000000001,0.406,11.172680999999999,24.4653066,-58.2125328,-159.58026216000005,62.83630386,-175.038669
4.81,481,0.304,0.585,0.48100000000000004,10.3705398,28.3041252,-44.51883660000001,-158.88698298000003,62.41804452,-174.37403772
4.82,482,0.3670000000000001,0.47700000000000004,0.545,7.0473834,35.236917,-36.4401288,-158.43434616,61.96540769999999,-173.93858964
4.83,483,0.535,0.363,0.523,11.9748222,42.62807520000001,-33.5753388,-158.05619388,61.44974549999999,-173.64065148
4.84,484,0.675,0.19,0.473,14.381245800000002,45.034498799999994,-29.0489706,-157.75252614,60.92835372,-173.45157534
4.85,485,0.713,0.18,0.451,12.032118,46.8106686,-28.2468294,-157.50042462000005,60.39550278,-173.29687668
4.86,486,0.748,0.245,0.35200000000000004,14.1520626,44.748019799999994,-30.8251404,-157.18529772000005,59.87411099999999,-173.09634137999996
4.87,487,0.652,0.28,0.325,14.667724800000002,38.10170700000001,-29.8511118,-156.8472525,59.41001502,-172.86715818
4.88,488,0.631,0.265,0.376,14.8396122,35.3515086,-24.8663772,-156.56650308000005,58.99175568,-172.70672994
4.89,489,0.626,0.325,0.336,10.2559482,34.8358464,-20.3973048,-156.40034526,58.59641466000001,-172.63224540000004
4.8999999999999995,490,0.6659999999999999,0.3670000000000001,0.332,9.1100322,35.46610020000001,-15.6417534,-156.28002408,58.2125328,-172.6035975
4.91,491,0.6829999999999999,0.38,0.366,8.3651868,36.7266078,-12.032118,-156.2742945,57.83438052,-172.68954119999995
4.92,492,0.713,0.38799999999999996,0.4370000000000001,4.5263682,39.8778768,-8.59437,-156.37169736,57.44476908,-172.86142859999995
4.93,493,0.722,0.397,0.489,-7.0473834,43.4302164,-6.6463128000000005,-156.64098761999998,57.02650974,-173.08488222
4.9399999999999995,494,0.773,0.429,0.514,-22.2307704,44.175061799999995,-3.3231564,-157.1050836,56.61970956,-173.36563164
4.95,495,0.805,0.335,0.491,-29.621928600000004,41.1383844,4.8128472,-157.71241908,56.27020517999999,-173.73232476
4.96,496,0.841,0.267,0.536,-38.5600734,38.10170700000001,16.959556799999998,-158.5661265,55.99518534,-174.28236443999995
4.97,497,0.883,0.29600000000000004,0.59,-42.2270046,37.1276784,24.2361234,-159.54588468,55.74308382,-174.93553656
4.9799999999999995,498,0.892,0.287,0.615,-44.2896534,34.262888399999994,28.3041252,-160.56574992,55.53108936,-175.62881574
4.99,499,0.909,0.251,0.626,-46.409597999999995,31.111619399999995,31.741873200000004,-161.63718138,55.35347237999999,-176.35074282
5.0,500,0.9279999999999999,0.221,0.67,-40.7373138,28.934378999999996,32.945085,-162.63412830000001,55.18731455999999,-177.06121074
5.01,501,0.9309999999999999,0.23199999999999998,0.608,-38.90384820000001,25.152856200000002,31.741873200000004,-163.58523857999995,55.04980464000001,-177.7315716
5.02,502,0.934,0.196,0.6709999999999999,-39.47680620000001,25.55392680000001,32.7731976,-164.54207844,54.90656514,-178.40766204000005
5.03,503,0.9259999999999999,0.196,0.6659999999999999,-30.080295,23.0329116,31.79916900000001,-165.37859712,54.7747848,-179.05510458
5.04,504,0.93,0.22699999999999998,0.705,-11.401864199999999,16.7876694,35.46610020000001,-166.0432284,54.70602984,-179.72546544
5.05,505,0.94,0.23199999999999998,0.736,-2.9220858,11.802934800000001,37.6433406,-166.62191597999995,54.67165236,179.59368510000004
5.06,506,0.9229999999999999,0.226,0.748,11.0007936,5.0993262,40.966497,-167.08601196,54.717489,178.88894676
5.07,507,0.861,0.127,0.745,8.307891,0.0,41.5967508,-167.57302626,54.80916228000001,178.18993799999996
5.08,508,0.825,0.14800000000000002,0.691,-1.145916,-6.875496000000001,40.10706,-168.11160678000005,54.95813136,177.54249546
5.09,509,0.815,0.156,0.665,-4.297185,-17.303331600000003,41.252976000000004,-168.67310562,55.21023288,176.90651208000003
5.1,510,0.851,0.191,0.675,-1.5469866,-27.043617600000005,43.9458786,-169.21168614,55.55400768,176.26479912
5.11,511,0.888,0.273,0.647,7.906820400000001,-37.41415739999999,49.61816279999999,-169.72161876,56.00091491999999,175.54287204000005
5.12,512,0.895,0.24600000000000002,0.649,41.5967508,-58.78549079999999,57.58227899999999,-169.95653154,56.67127578,174.74073084000003
5.13,513,0.889,0.191,0.6559999999999999,42.5134836,-67.26526919999999,58.9573782,-170.19144432000004,57.41612118000001,173.93286006
5.14,514,0.866,0.057999999999999996,0.6729999999999999,39.0757356,-69.4425096,57.4676874,-170.46073458,58.1838849,173.13644844
5.1499999999999995,515,0.892,0.263,0.638,33.518043,-71.5051584,53.5142772,-170.73575441999995,58.9573782,172.39733262
5.16,516,0.8809999999999999,0.231,0.669,49.2170922,-74.771019,52.82672760000001,-170.86180518,59.76524897999999,171.65821680000005
5.17,517,0.835,0.157,0.7240000000000001,43.602103799999995,-71.44786260000002,52.6548402,-171.07952922,60.53301269999999,170.89045308
5.18,518,0.8909999999999999,0.107,0.5489999999999999,20.7983754,-70.0154676,53.11320660000001,-171.56654352,61.29504684,170.07685272
5.1899999999999995,519,0.875,0.09300000000000001,0.539,16.7876694,-75.05749800000002,57.4676874,-172.2025269,62.10864719999999,169.14866075999996
5.2,520,0.875,0.071,0.63,20.626488000000002,-83.9956428,59.1865614,-172.84996944,62.9967321,168.16890257999995
5.21,521,0.919,0.067,0.602,15.126091199999998,-82.62054359999998,61.592985,-173.65784022,63.87908742,167.08028238000003
5.22,522,0.958,0.076,0.557,12.1467096,-73.1667366,61.5356892,-174.58603218000005,64.65831030000001,165.89998889999995
5.2299999999999995,523,0.9109999999999999,0.114,0.46,6.990087599999999,-62.45242200000001,57.92605379999999,-175.5829791,65.32294157999999,164.70823625999995
5.24,524,0.88,0.09,0.42,6.0733548,-60.733548000000006,54.3164184,-176.57419644,65.95892496,163.54513151999996
5.25,525,0.8740000000000001,0.025,0.385,5.844171599999999,-64.5723666,52.712136,-177.57687294,66.62355624,162.37056762
5.26,526,0.8809999999999999,-0.008,0.363,6.1879464,-64.6869582,50.1911208,-178.58527902,67.27672836,161.2017333
5.27,527,0.8859999999999999,-0.021,0.304,3.7815228,-61.7075766,46.00852740000001,-179.57649636,67.895523,160.07300604
5.28,528,0.8440000000000001,-0.047,0.272,2.1772404,-56.2071798,40.680018,179.47336392000003,68.45129225999999,159.02449289999996
5.29,529,0.8320000000000001,-0.042,0.255,-0.572958,-49.61816279999999,36.554720399999994,178.55663112,68.93830656,158.03900514
5.3,530,0.847,-0.039,0.256,-4.9847346,-43.888582799999995,34.0337052,177.61697999999996,69.36802506,157.08216528
5.31,531,0.89,-0.021,0.264,-8.250595200000001,-40.7946096,32.830493399999995,176.63722182,69.7576365,156.11959584000004
5.32,532,0.9359999999999999,0.002,0.295,-6.8182002000000015,-39.534102000000004,32.0283522,175.66319321999995,70.1300592,155.14556724
5.33,533,0.9520000000000001,-0.009000000000000001,0.307,-3.1512689999999997,-38.445481799999996,31.22621100000001,174.71208294,70.48529316,154.16580906
5.34,534,0.963,-0.01,0.319,-2.8074942000000003,-36.6120162,29.736520199999998,173.77243182,70.81760879999999,153.19751004
5.35,535,0.94,-0.055999999999999994,0.33299999999999996,-1.5469866,-35.236917,29.9084076,172.81559195999995,71.12700612,152.19483354
5.36,536,0.895,-0.043,0.342,-5.3285094000000015,-31.913760600000003,26.814434400000003,171.88167042,71.40775554,151.26664158
5.37,537,0.885,-0.06,0.34600000000000003,-8.7089616,-28.074942,24.1788276,170.98212636,71.6483979,150.40720458
5.38,538,0.889,-0.06,0.342,-12.9488508,-24.1215318,21.142150199999996,170.12268936,71.85466278,149.63371128
5.39,539,0.9309999999999999,-0.095,0.327,-13.980175199999998,-20.9702628,18.907614,169.32054816,72.02655018,148.93470252
5.3999999999999995,540,0.965,-0.098,0.325,-16.042824000000003,-19.136797199999997,16.902261,168.5355957,72.18124884,148.2815304
5.41,541,0.9670000000000001,-0.079,0.315,-15.126091199999998,-17.18874,12.776963400000001,167.89961232,72.32448833999999,147.77159778
5.42,542,0.9690000000000001,-0.043,0.326,-15.3552744,-13.3499214,3.4377480000000005,167.55583752,72.45053909999999,147.57106248
5.43,543,0.961,-0.147,0.299,-8.9954406,-12.776963400000001,4.4690724,167.25216977999997,72.5651307,147.34760885999995
5.4399999999999995,544,0.972,-0.098,0.319,-18.621135,-6.4744254,-5.443101,167.18341482,72.63961524,147.47365962
5.45,545,0.976,-0.109,0.309,-16.615782,-4.297185,-7.3911582,167.22352188,72.70264062,147.69138366
5.46,546,0.9570000000000001,-0.043,0.29600000000000004,-19.767051000000002,-2.9220858,-12.0894138,167.37822054,72.75993642,148.06380636
5.47,547,0.935,-0.025,0.281,-15.870936600000002,-4.9274388,-11.172680999999999,167.53291919999995,72.83442096,148.39039242
5.4799999999999995,548,0.943,-0.005,0.287,-12.261301199999998,-9.224623800000002,-9.740286,167.65324038,72.94328298,148.65395310000005
5.49,549,0.9359999999999999,0.0,0.29600000000000004,-7.6203414,-13.178034,-7.906820400000001,167.75064324,73.08652248,148.83157007999995
5.5,550,0.93,-0.01,0.295,-4.1252976000000015,-16.902261,-5.3858052,167.83658694000005,73.26413946,148.95762084
5.51,551,0.9209999999999999,-0.021,0.308,-2.1772404,-18.048177,-3.6096353999999997,167.82512778,73.44748602000001,148.96335041999995
5.52,552,0.9059999999999999,-0.027000000000000003,0.284,-1.5469866,-17.589810600000003,-3.8961144,167.83085736,73.625103,148.98626874
5.53,553,0.898,-0.037000000000000005,0.278,-1.0886202,-17.0741484,-4.4690724,167.86523484,73.80271998,149.0263758
5.54,554,0.899,-0.044000000000000004,0.267,-0.8021411999999999,-15.068795399999999,-5.443101,167.94544896,73.96314822000002,149.12377866000003
5.55,555,0.899,-0.039,0.263,-0.9167328000000001,-12.776963400000001,-6.7609043999999985,168.12879552,74.10065814,149.31858438
5.56,556,0.9129999999999999,-0.033,0.265,-1.6615782,-10.084060800000001,-7.7922288,168.31787165999995,74.21524974,149.53057884
5.57,557,0.922,-0.03,0.262,-2.4637194,-8.250595200000001,-7.6203414,168.50694779999995,74.31265259999998,149.74830288
5.58,558,0.9329999999999999,-0.025,0.26,-3.2085647999999996,-7.2192707999999985,-6.4744254,168.65591688,74.39286672,149.93737902
5.59,559,0.94,-0.01,0.255,-3.3231564,-6.7609043999999985,-4.7555514,168.74759016000004,74.47308084,150.06915936
5.6,560,0.943,0.0,0.26,-2.86479,-7.734933000000002,-2.8074942000000003,168.89655924000004,74.55902454,150.24677634
5.61,561,0.9520000000000001,0.0,0.262,-2.0626488000000003,-8.078707799999998,-1.5469866,168.88510007999997,74.64496824,150.2582355
5.62,562,0.9690000000000001,-0.008,0.263,-1.0886202,-7.7922288,-0.6875496,168.85072259999995,74.71945278000003,150.23531717999995
5.63,563,0.9840000000000001,-0.02,0.265,0.11459160000000004,-6.8182002000000015,-0.40107059999999994,168.82780428,74.78820774,150.20666928
5.64,564,0.993,-0.03,0.26899999999999996,1.3750992,-5.3858052,-0.572958,168.83353386,74.84550354000002,150.19521012
5.6499999999999995,565,0.996,-0.033,0.273,2.0626488000000003,-4.0680017999999984,-1.0313244000000001,168.97677336,74.89134018,150.3155313
5.66,566,0.993,-0.028999999999999998,0.27899999999999997,2.1772404,-2.8074942000000003,-1.6615782,169.04552832000005,74.91998808000002,150.36136793999995
5.67,567,0.985,-0.024,0.282,1.5469866,-1.7188740000000002,-2.291832,169.13147202,74.9429064,150.43585248
5.68,568,0.9740000000000001,-0.019,0.28,1.3178034,-1.2032118,-2.5783110000000002,169.23460446,74.96009513999998,150.52752575999997
5.6899999999999995,569,0.9690000000000001,-0.018000000000000002,0.278,1.7761698000000001,-1.2605076000000002,-2.291832,169.33200731999997,74.97728388,150.60773988
5.7,570,0.968,-0.017,0.278,2.291832,-1.145916,-1.7188740000000002,169.62994548,74.98874304,150.88275972
5.71,571,0.965,-0.013999999999999999,0.27699999999999997,2.86479,-1.4896908000000002,-1.2032118,169.69870043999995,75.00593178,150.92286678
5.72,572,0.9640000000000001,-0.006999999999999999,0.281,3.3231564,-2.3491277999999998,-0.9740286,169.75599624,75.0288501,150.9457851
5.7299999999999995,573,0.971,-0.009000000000000001,0.29100000000000004,3.8961144,-3.4377480000000005,-0.286479,169.79037372,75.06322758,150.94005552000004
5.74,574,0.975,-0.004,0.301,3.9534102,-4.2398892,0.40107059999999994,169.79037372,75.10333464,150.89994846
5.75,575,0.98,-0.006999999999999999,0.305,4.1252976000000015,-5.2139178,1.0313244000000001,169.9106949,75.13198254,150.96870342
5.76,576,0.981,-0.012,0.309,3.7815228,-6.1879464,1.5469866,169.85912868,75.18927834,150.87703014
5.77,577,0.9940000000000001,-0.016,0.308,3.4950437999999995,-6.703608600000001,1.6042823999999998,169.80183288,75.25230372,150.7738977
5.78,578,0.997,-0.02,0.303,3.380452200000001,-6.8182002000000015,1.3750992,169.74453708,75.32105868,150.68222441999995
5.79,579,0.985,-0.02,0.29100000000000004,3.3231564,-6.5317212,1.0313244000000001,169.70443002,75.37835448000001,150.60201030000005
5.8,580,0.975,-0.019,0.27899999999999997,3.4950437999999995,-6.589017,0.6875496,169.77891456,75.43565028,150.63638778
5.81,581,0.9690000000000001,-0.021,0.27,3.380452200000001,-6.3598338,0.6875496,169.75026666,75.49867565999998,150.5733624
5.82,582,0.9640000000000001,-0.019,0.263,2.7501984,-5.6149884000000005,0.572958,169.72734834,75.55024188,150.5160666
5.83,583,0.955,-0.018000000000000002,0.262,2.1199446,-5.042030400000002,0.572958,169.69870043999995,75.60180809999999,150.46450038
5.84,584,0.956,-0.016,0.255,1.4896908000000002,-3.9534102,0.5156622000000001,169.67005254,75.63618558,150.41866374
5.85,585,0.961,-0.02,0.256,0.8021411999999999,-3.1512689999999997,0.6302538000000001,169.87058784,75.67629264,150.60201030000005
5.86,586,0.961,-0.021,0.255,0.2291832000000001,-2.86479,0.5156622000000001,169.83621036,75.70494054,150.56763282
5.87,587,0.968,-0.022000000000000002,0.253,0.0,-2.5210152000000003,0.2291832000000001,169.81329204000005,75.72785886,150.53898492000005
5.88,588,0.975,-0.02,0.253,-0.5156622000000001,-1.6615782,0.11459160000000004,169.79037372,75.74504759999998,150.52179618
5.89,589,0.9740000000000001,-0.019,0.252,-0.5156622000000001,-0.8594370000000001,-0.057295800000000015,169.78464414,75.75077718,150.52179618
5.8999999999999995,590,0.971,-0.018000000000000002,0.253,-0.7448454000000001,0.0,-0.2291832000000001,170.5695966,75.79661381999998,151.30101906
5.91,591,0.9640000000000001,-0.015,0.248,-0.7448454000000001,0.6875496,-0.286479,170.57532618,75.79088424,151.3182078
5.92,592,0.958,-0.015,0.245,0.0,1.432395,-0.40107059999999994,170.5982445,75.7736955,151.34112612
5.93,593,0.955,-0.018000000000000002,0.247,0.5156622000000001,2.1199446,-0.5156622000000001,170.63262198,75.75650676000002,151.37550359999997
5.9399999999999995,594,0.9570000000000001,-0.019,0.254,1.0886202,2.6929026,-0.572958,170.6841882,75.72785886,151.40988108
5.95,595,0.9620000000000001,-0.017,0.265,1.432395,3.0939732,-0.6302538000000001,170.93056013999995,75.68775179999999,151.63906428
5.96,596,0.965,-0.017,0.27399999999999997,1.7188740000000002,3.5523396000000003,-0.8594370000000001,170.9993151,75.65337432,151.69636008
5.97,597,0.9690000000000001,-0.017,0.276,1.3750992,3.9534102,-0.9167328000000001,171.06807006,75.61899684,151.75365588
5.9799999999999995,598,0.972,-0.017,0.27399999999999997,0.9167328000000001,4.1825934,-0.9167328000000001,171.13682502,75.57888978000003,151.81095168
5.99,599,0.97,-0.017,0.27399999999999997,0.6302538000000001,4.0680017999999984,-1.0313244000000001,171.1998504,75.53878272,151.87397706000004
6.0,600,0.972,-0.015,0.276,0.0,3.8388186,-1.0313244000000001,171.4576815,75.48148692,152.12607857999996
6.01,601,0.968,-0.017,0.27899999999999997,-0.11459160000000004,3.7242269999999995,-0.8021411999999999,171.50351814,75.44710943999998,152.1776448
6.02,602,0.97,-0.016,0.28,-0.1718874,3.2658606,-0.6302538000000001,171.53789562,75.41846154,152.21775186
6.03,603,0.973,-0.013999999999999999,0.285,-0.1718874,3.1512689999999997,-0.572958,171.57227310000005,75.38408405999998,152.25785892000005
6.04,604,0.978,-0.013999999999999999,0.282,-0.8021411999999999,3.4377480000000005,-0.5156622000000001,171.600921,75.35543616,152.29223639999995
6.05,605,0.977,-0.012,0.27,-0.6302538000000001,3.7242269999999995,-0.40107059999999994,171.84156336,75.3153291,152.53860834
6.06,606,0.97,-0.013000000000000001,0.26899999999999996,-0.11459160000000004,3.6096353999999997,-0.286479,171.87021126,75.28095162,152.56725624
6.07,607,0.971,-0.013000000000000001,0.275,0.286479,3.1512689999999997,-0.1718874,171.89312958,75.24657413999998,152.59017456
6.08,608,0.9740000000000001,-0.012,0.28300000000000003,0.6302538000000001,2.6929026,-0.057295800000000015,171.9160479,75.22365582,152.6073633
6.09,609,0.976,-0.012,0.29100000000000004,0.9167328000000001,2.0053530000000004,0.0,171.93323664,75.2007375,152.61882246
6.1,610,0.98,-0.013000000000000001,0.295,0.572958,1.7761698000000001,0.0,172.34576639999997,75.13198254,153.01416348
6.11,611,0.978,-0.013999999999999999,0.29,0.3437748,1.7761698000000001,-0.1718874,172.36295514,75.1147938,153.02562264
6.12,612,0.971,-0.015,0.281,0.1718874,1.4896908000000002,-0.3437748,172.38587346,75.09760506,153.04854096
6.13,613,0.9670000000000001,-0.013999999999999999,0.278,0.2291832000000001,1.0886202,-0.5156622000000001,172.40879178,75.08614589999998,153.07145928
6.14,614,0.97,-0.013000000000000001,0.281,0.286479,0.9740286,-0.5156622000000001,172.43743968,75.08041632,153.10010718
6.15,615,0.976,-0.013000000000000001,0.284,0.1718874,0.6875496,-0.40107059999999994,173.13644844,75.02312051999998,153.78192719999996
6.16,616,0.975,-0.011000000000000001,0.28600000000000003,0.0,0.286479,-0.2291832000000001,173.1479076,75.01739094,153.79338636
6.17,617,0.973,-0.011000000000000001,0.28600000000000003,0.3437748,-0.40107059999999994,0.0,173.15363718,75.02312051999998,153.79338636
6.18,618,0.977,-0.013999999999999999,0.28600000000000003,0.1718874,-0.8594370000000001,0.1718874,173.14217802000005,75.03457968000002,153.78192719999996
6.1899999999999995,619,0.98,-0.013000000000000001,0.28800000000000003,0.1718874,-0.9167328000000001,0.286479,173.13071886,75.04030925999999,153.76473846
6.2,620,0.9790000000000001,-0.013999999999999999,0.28600000000000003,0.286479,-0.9740286,0.1718874,173.51460072,75.00593178,154.13143158
6.21,621,0.978,-0.015,0.285,0.057295800000000015,-1.2032118,0.0,173.50887114,75.02312051999998,154.13143158
6.22,622,0.9740000000000001,-0.013999999999999999,0.284,0.11459160000000004,-1.4896908000000002,-0.057295800000000015,173.50887114,75.03457968000002,154.125702
6.2299999999999995,623,0.976,-0.015,0.282,0.286479,-1.7761698000000001,-0.1718874,173.51460072,75.05176842,154.13143158
6.24,624,0.973,-0.013999999999999999,0.282,0.4583664000000001,-1.8907614,-0.1718874,173.5203303,75.07468673999998,154.13143158
6.25,625,0.9690000000000001,-0.013000000000000001,0.282,0.40107059999999994,-1.8334656000000005,-0.11459160000000004,173.82399804000005,75.06322758,154.41791058
6.26,626,0.9670000000000001,-0.012,0.278,0.057295800000000015,-1.9480572,0.0,173.81826845999996,75.08614589999998,154.41218099999998
6.27,627,0.9640000000000001,-0.011000000000000001,0.275,-0.11459160000000004,-1.8907614,0.1718874,173.80107972000005,75.10333464,154.40072184000005
6.28,628,0.958,-0.011000000000000001,0.272,0.057295800000000015,-2.0626488000000003,0.4583664000000001,173.77816140000004,75.12052338000002,154.37207394
6.29,629,0.96,-0.013000000000000001,0.267,-0.1718874,-1.7761698000000001,0.572958,173.74951349999995,75.13771212,154.34342604
6.3,630,0.96,-0.013000000000000001,0.263,-0.3437748,-1.3178034,0.6302538000000001,173.9786967,75.16636002,154.57260924
6.31,631,0.96,-0.012,0.26,0.0,-1.0313244000000001,0.6875496,173.95004880000005,75.17208959999998,154.53823176
6.32,632,0.965,-0.013999999999999999,0.263,0.3437748,-0.7448454000000001,0.6302538000000001,173.92713048000005,75.18354876,154.50958386
6.33,633,0.973,-0.013000000000000001,0.27399999999999997,0.5156622000000001,-0.40107059999999994,0.572958,173.90994174,75.18354876,154.48666554000005
6.34,634,0.977,-0.013999999999999999,0.281,0.8021411999999999,-0.40107059999999994,0.4583664000000001,173.89275300000003,75.18927834,154.46947680000005
6.35,635,0.975,-0.013999999999999999,0.281,0.572958,-0.11459160000000004,0.286479,174.47144058,75.12052338000002,155.01951648000005
6.36,636,0.972,-0.013999999999999999,0.275,-0.1718874,0.0,0.1718874,174.45998142000005,75.12052338000002,155.0137869
6.37,637,0.97,-0.013000000000000001,0.267,-0.40107059999999994,0.11459160000000004,0.057295800000000015,174.45425184,75.12052338000002,155.0137869
6.38,638,0.9670000000000001,-0.013999999999999999,0.271,0.057295800000000015,0.3437748,0.0,174.45425184,75.1147938,155.0137869
6.39,639,0.971,-0.015,0.276,0.0,0.572958,-0.11459160000000004,174.45998142000005,75.10906422000002,155.01951648000005
6.4,640,0.9740000000000001,-0.012,0.28,-0.286479,0.572958,0.057295800000000015,175.038669,75.04603884000002,155.5867449
6.41,641,0.976,-0.01,0.284,-0.2291832000000001,0.6302538000000001,0.3437748,175.02148026,75.04030925999999,155.57528573999997
6.42,642,0.976,-0.012,0.28300000000000003,-0.4583664000000001,0.5156622000000001,0.4583664000000001,175.00429151999995,75.03457968000002,155.55236742
6.43,643,0.975,-0.013999999999999999,0.278,-0.6875496,0.6302538000000001,0.6302538000000001,174.96991404,75.0288501,155.5294491
6.4399999999999995,644,0.97,-0.013000000000000001,0.27399999999999997,-0.8021411999999999,0.7448454000000001,0.572958,174.94126614,75.01739094,155.51226036
6.45,645,0.965,-0.013000000000000001,0.268,-0.4583664000000001,0.8594370000000001,0.572958,175.10742396,75.01739094,155.67841818
6.46,646,0.9640000000000001,-0.016,0.267,-0.11459160000000004,0.9740286,0.5156622000000001,175.09023522,75.00593178,155.65549986000005
6.47,647,0.966,-0.013000000000000001,0.271,-0.11459160000000004,1.2605076000000002,0.4583664000000001,175.07304648,74.99447262,155.64404069999995
6.4799999999999995,648,0.968,-0.013000000000000001,0.278,0.3437748,1.0313244000000001,0.40107059999999994,175.06158732,74.98301346,155.62685196
6.49,649,0.972,-0.015,0.281,0.2291832000000001,0.9167328000000001,0.4583664000000001,175.05012816,74.97155430000002,155.60966322
6.5,650,0.973,-0.012,0.282,0.0,0.9740286,0.4583664000000001,175.28504094,74.9429064,155.83884642
6.51,651,0.972,-0.012,0.27899999999999997,0.1718874,1.0313244000000001,0.5156622000000001,175.2678522,74.93144724,155.82165768
6.52,652,0.97,-0.013999999999999999,0.27899999999999997,0.057295800000000015,1.0313244000000001,0.5156622000000001,175.25066346,74.91998808000002,155.80446894000005
6.53,653,0.971,-0.013999999999999999,0.27899999999999997,-0.057295800000000015,0.9167328000000001,0.5156622000000001,175.23347472,74.90852892000002,155.7872802
6.54,654,0.972,-0.013999999999999999,0.278,-0.11459160000000004,0.8594370000000001,0.6302538000000001,175.2105564,74.89706976,155.75863230000004
6.55,655,0.9690000000000001,-0.013000000000000001,0.28,-0.286479,0.8021411999999999,0.8021411999999999,175.4110917,74.87415144,155.9591676
6.56,656,0.9670000000000001,-0.013999999999999999,0.278,-0.1718874,0.572958,0.8594370000000001,175.37671422,74.86842186,155.92479011999995
6.57,657,0.97,-0.013999999999999999,0.276,-0.3437748,0.4583664000000001,0.9740286,175.33660716,74.86269228,155.89041264
6.58,658,0.971,-0.015,0.27699999999999997,-0.286479,0.5156622000000001,0.9740286,175.2965001,74.8569627,155.85603516
6.59,659,0.972,-0.018000000000000002,0.27899999999999997,0.0,0.572958,0.8021411999999999,175.2678522,74.84550354000002,155.82165768
6.6,660,0.972,-0.018000000000000002,0.282,0.0,0.6302538000000001,0.6875496,175.40536212,74.81685564,155.95343802
6.61,661,0.9740000000000001,-0.017,0.282,-0.057295800000000015,0.572958,0.4583664000000001,175.38817338,74.81112606,155.93624928000003
6.62,662,0.972,-0.015,0.28,0.1718874,0.40107059999999994,0.40107059999999994,175.37671422,74.80539647999998,155.91906054
6.63,663,0.9740000000000001,-0.016,0.282,0.11459160000000004,0.40107059999999994,0.286479,175.36525506,74.80539647999998,155.91333096
6.64,664,0.97,-0.013999999999999999,0.281,-0.057295800000000015,0.6302538000000001,0.1718874,175.35952548,74.79393732,155.90760138
6.65,665,0.97,-0.017,0.28,0.057295800000000015,0.572958,0.1718874,175.5829791,74.771019,156.12532542
6.66,666,0.971,-0.015,0.278,-0.2291832000000001,0.8594370000000001,0.1718874,175.57724951999995,74.76528942,156.11959584000004
6.67,667,0.9670000000000001,-0.015,0.278,-0.1718874,1.0313244000000001,0.057295800000000015,175.57724951999995,74.75383026,156.11959584000004
6.68,668,0.965,-0.017,0.278,0.0,0.9740286,0.0,175.57724951999995,74.74237109999999,156.11959584000004
6.6899999999999995,669,0.9670000000000001,-0.017,0.27399999999999997,0.0,0.9740286,-0.057295800000000015,175.5829791,74.73664152,156.12532542
6.7,670,0.968,-0.016,0.275,0.0,1.2605076000000002,-0.1718874,175.74913692,74.72518235999998,156.29148324
6.71,671,0.966,-0.016,0.276,0.40107059999999994,1.2605076000000002,-0.40107059999999994,175.77205524,74.71372319999998,156.30867198
6.72,672,0.9690000000000001,-0.016,0.27699999999999997,0.572958,1.432395,-0.572958,175.80070314,74.69653446000002,156.33731988000005
6.7299999999999995,673,0.9690000000000001,-0.013999999999999999,0.278,0.572958,1.6615782,-0.572958,175.83508062,74.67934572,156.3602382
6.74,674,0.965,-0.013000000000000001,0.27899999999999997,0.6875496,1.6042823999999998,-0.6302538000000001,175.8694581,74.66788656,156.3888861
6.75,675,0.9620000000000001,-0.012,0.278,0.572958,1.3750992,-0.5156622000000001,176.03561592,74.64496824,156.54358476
6.76,676,0.965,-0.013000000000000001,0.278,0.40107059999999994,1.0313244000000001,-0.286479,176.05280466,74.63923866,156.5607735
6.77,677,0.97,-0.013000000000000001,0.282,0.572958,0.8021411999999999,-0.11459160000000004,176.06426382,74.6277795,156.56650308000005
6.78,678,0.972,-0.012,0.28600000000000003,0.7448454000000001,0.6875496,-0.11459160000000004,176.07572298,74.62204992,156.57223266
6.79,679,0.973,-0.011000000000000001,0.287,0.8021411999999999,0.4583664000000001,0.0,176.08718214,74.61632033999999,156.57223266
6.8,680,0.975,-0.013000000000000001,0.289,0.9740286,0.3437748,0.0,176.28198786000004,74.58194286,156.75557922000004
6.81,681,0.975,-0.013000000000000001,0.28800000000000003,0.8021411999999999,0.286479,0.057295800000000015,176.28771744,74.57621328,156.74984964
6.82,682,0.975,-0.013999999999999999,0.28800000000000003,0.7448454000000001,0.2291832000000001,0.1718874,176.29344701999997,74.57621328,156.74412006
6.83,683,0.975,-0.013000000000000001,0.287,0.5156622000000001,0.3437748,0.1718874,176.28771744,74.57048370000003,156.73839048
6.84,684,0.97,-0.012,0.285,0.286479,0.3437748,0.1718874,176.28771744,74.56475412,156.73266089999996
6.85,685,0.968,-0.011000000000000001,0.281,0.286479,0.286479,0.3437748,176.60284434,74.55902454,157.03632864000005
6.86,686,0.968,-0.012,0.281,0.11459160000000004,0.286479,0.5156622000000001,176.5856556,74.55902454,157.0191399
6.87,687,0.966,-0.011000000000000001,0.282,0.0,0.286479,0.8594370000000001,176.55700769999999,74.55329496,156.98476242
6.88,688,0.966,-0.013000000000000001,0.281,0.3437748,0.11459160000000004,0.9740286,176.52263022,74.55329496,156.95038494
6.89,689,0.971,-0.013999999999999999,0.28300000000000003,0.1718874,0.057295800000000015,1.0313244000000001,176.48825274,74.54756538,156.91027788
6.9,690,0.972,-0.015,0.284,0.057295800000000015,0.286479,1.0313244000000001,176.5856556,74.53610622,157.00195116
6.91,691,0.971,-0.015,0.282,0.286479,0.3437748,0.8021411999999999,176.55700769999999,74.53037664,156.96757368000004
6.92,692,0.9690000000000001,-0.017,0.28,0.3437748,0.4583664000000001,0.7448454000000001,176.53408938,74.53037664,156.93892578
6.93,693,0.9690000000000001,-0.015,0.282,0.2291832000000001,0.6302538000000001,0.572958,176.51690064,74.51891748,156.92173704
6.9399999999999995,694,0.968,-0.015,0.282,0.3437748,0.572958,0.3437748,176.50544148,74.5131879,156.90454830000004
6.95,695,0.97,-0.016,0.285,0.2291832000000001,0.5156622000000001,0.40107059999999994,176.65441056,74.49026957999997,157.04778779999995
6.96,696,0.9740000000000001,-0.013999999999999999,0.28800000000000003,0.0,0.6302538000000001,0.40107059999999994,176.6429514,74.48454000000002,157.03059906
6.97,697,0.972,-0.013000000000000001,0.289,0.0,0.286479,0.286479,176.63149224,74.47881042,157.0191399
6.9799999999999995,698,0.972,-0.013999999999999999,0.287,0.0,0.11459160000000004,0.3437748,176.62003308,74.47881042,157.00768074
6.99,699,0.97,-0.016,0.28300000000000003,-0.286479,0.1718874,0.3437748,176.60284434,74.47308084,156.99622158
7.0,700,0.965,-0.013000000000000001,0.27899999999999997,-0.11459160000000004,0.286479,0.1718874,176.85494586,74.47881042,157.24259352
7.01,701,0.9640000000000001,-0.016,0.27899999999999997,-0.057295800000000015,0.572958,0.1718874,176.84921628,74.47308084,157.23686394
7.02,702,0.965,-0.016,0.28,-0.1718874,0.8594370000000001,0.0,176.84921628,74.46162168000002,157.23686394
7.03,703,0.9640000000000001,-0.016,0.282,-0.057295800000000015,1.0313244000000001,-0.2291832000000001,176.85494586,74.45016252,157.2483231
7.04,704,0.966,-0.015,0.28300000000000003,-0.057295800000000015,0.8594370000000001,-0.2291832000000001,176.86640502,74.44443294,157.25405268000003
7.05,705,0.968,-0.013999999999999999,0.284,-0.11459160000000004,0.7448454000000001,-0.1718874,177.03256284,74.42724419999998,157.4202105
7.06,706,0.97,-0.013999999999999999,0.284,-0.057295800000000015,0.8021411999999999,-0.057295800000000015,177.03256284,74.41578503999997,157.4202105
7.07,707,0.973,-0.015,0.284,-0.057295800000000015,0.8594370000000001,0.0,177.03256284,74.41005546,157.42594007999998
7.08,708,0.971,-0.013999999999999999,0.285,-0.057295800000000015,1.0313244000000001,0.0,177.03829242,74.3985963,157.42594007999998
7.09,709,0.97,-0.013999999999999999,0.285,0.057295800000000015,0.9167328000000001,0.0,177.03829242,74.38713714000002,157.43166966
7.1,710,0.97,-0.015,0.285,0.0,0.9167328000000001,-0.057295800000000015,177.18153192,74.37567798,157.56917958000002
7.11,711,0.968,-0.012,0.28600000000000003,-0.057295800000000015,1.145916,-0.057295800000000015,177.1872615,74.36421881999998,157.57490916
7.12,712,0.9670000000000001,-0.013999999999999999,0.284,0.057295800000000015,1.0886202,0.0,177.1872615,74.35275966,157.57490916
7.13,713,0.9670000000000001,-0.013999999999999999,0.285,-0.1718874,1.2605076000000002,0.0,177.1872615,74.33557092,157.57490916
7.14,714,0.965,-0.013000000000000001,0.28300000000000003,-0.11459160000000004,1.432395,-0.057295800000000015,177.19299107999996,74.32411176,157.58063873999996
7.15,715,0.9640000000000001,-0.016,0.28300000000000003,-0.286479,1.6615782,0.0,177.23882772,74.30692302,157.63220496000002
7.16,716,0.965,-0.015,0.285,-0.572958,1.0886202,-0.3437748,177.25028688,74.29546386000001,157.6493937
7.17,717,0.9640000000000001,-0.013000000000000001,0.28300000000000003,-0.286479,0.9740286,-0.286479,177.25601646,74.2840047,157.66085286
7.18,718,0.9670000000000001,-0.013000000000000001,0.285,-0.11459160000000004,1.0313244000000001,-0.11459160000000004,177.26174604,74.27254554,157.66658244
7.1899999999999995,719,0.9670000000000001,-0.012,0.287,-0.11459160000000004,1.0886202,-0.057295800000000015,177.26747562,74.26108638000002,157.67231202
7.2,720,0.968,-0.013000000000000001,0.285,-0.057295800000000015,1.2605076000000002,0.0,177.36487848,74.24962722000002,157.77544446
7.21,721,0.965,-0.013999999999999999,0.28600000000000003,0.0,1.0313244000000001,0.057295800000000015,177.36487848,74.23816806,157.76971488
7.22,722,0.9640000000000001,-0.013000000000000001,0.28600000000000003,0.286479,0.7448454000000001,0.0,177.36487848,74.23243848,157.76971488
7.2299999999999995,723,0.966,-0.013999999999999999,0.287,0.3437748,0.5156622000000001,0.057295800000000015,177.37060806,74.2267089,157.76971488
7.24,724,0.968,-0.013999999999999999,0.29100000000000004,0.1718874,0.6302538000000001,0.0,177.37060806,74.22097932,157.76971488
7.25,725,0.97,-0.012,0.289,0.057295800000000015,0.572958,0.057295800000000015,177.51384756,74.20952016,157.90722480000005
7.26,726,0.972,-0.013000000000000001,0.29100000000000004,0.2291832000000001,0.4583664000000001,0.057295800000000015,177.51384756,74.20379058,157.90149522000004
7.27,727,0.9740000000000001,-0.016,0.294,0.286479,0.572958,0.057295800000000015,177.51384756,74.198061,157.90149522000004
7.28,728,0.971,-0.015,0.293,0.286479,0.4583664000000001,0.057295800000000015,177.51384756,74.19233141999999,157.89576563999995
7.29,729,0.972,-0.016,0.294,0.11459160000000004,-0.11459160000000004,0.0,177.51384756,74.19233141999999,157.89576563999995
7.3,730,0.972,-0.013999999999999999,0.29600000000000004,0.11459160000000004,-0.3437748,0.0,177.63416874,74.16368352,158.01035724
7.31,731,0.9670000000000001,-0.015,0.298,0.0,-0.1718874,-0.2291832000000001,177.63989832,74.16368352,158.02181639999995
7.32,732,0.965,-0.015,0.29100000000000004,-0.5156622000000001,0.0,-0.11459160000000004,177.63989832,74.16368352,158.02181639999995
7.33,733,0.9640000000000001,-0.013000000000000001,0.284,-0.6302538000000001,-0.057295800000000015,-0.057295800000000015,177.63416874,74.16368352,158.02754598
7.34,734,0.961,-0.012,0.285,-0.40107059999999994,-0.286479,0.0,177.62843916,74.1694131,158.02754598
7.35,735,0.9640000000000001,-0.015,0.287,-0.057295800000000015,-0.572958,0.0,177.74303075999995,74.15795394,158.13640800000005
7.36,736,0.97,-0.015,0.29100000000000004,-0.11459160000000004,-0.4583664000000001,-0.057295800000000015,177.74303075999995,74.16368352,158.13640800000005
7.37,737,0.971,-0.012,0.294,0.0,-0.40107059999999994,-0.057295800000000015,177.74876034,74.1694131,158.13640800000005
7.38,738,0.97,-0.013999999999999999,0.293,0.3437748,-0.6875496,-0.057295800000000015,177.75448992000003,74.17514268,158.14213758
7.39,739,0.972,-0.013999999999999999,0.293,0.2291832000000001,-0.6875496,-0.11459160000000004,177.7602195,74.18087225999999,158.14786716
7.4,740,0.971,-0.013000000000000001,0.292,0.3437748,-0.7448454000000001,-0.11459160000000004,177.83470404,74.1694131,158.21662212
7.41,741,0.9690000000000001,-0.012,0.29100000000000004,0.4583664000000001,-0.9167328000000001,-0.11459160000000004,177.8461632,74.18087225999999,158.2223517
7.42,742,0.968,-0.013999999999999999,0.29100000000000004,0.40107059999999994,-0.9740286,0.0,177.85189278,74.18660184000002,158.2223517
7.43,743,0.968,-0.013999999999999999,0.29100000000000004,0.40107059999999994,-1.0886202,0.0,177.85189278,74.198061,158.2223517
7.4399999999999995,744,0.9670000000000001,-0.013999999999999999,0.292,0.3437748,-1.3178034,0.057295800000000015,177.85189278,74.21524974,158.21662212
7.45,745,0.968,-0.012,0.292,0.2291832000000001,-1.3750992,0.11459160000000004,177.92637731999997,74.21524974,158.28537708000005
7.46,746,0.9670000000000001,-0.013000000000000001,0.289,0.11459160000000004,-1.2605076000000002,0.057295800000000015,177.92637731999997,74.2267089,158.2796475
7.47,747,0.9670000000000001,-0.013000000000000001,0.28800000000000003,0.057295800000000015,-1.2605076000000002,0.2291832000000001,177.92064774,74.23816806,158.27391791999997
7.4799999999999995,748,0.9670000000000001,-0.013999999999999999,0.29,0.11459160000000004,-1.3178034,0.1718874,177.90918858,74.24962722000002,158.26245876000004
7.49,749,0.968,-0.015,0.28800000000000003,0.11459160000000004,-1.3750992,0.1718874,177.903459,74.26681596,158.25672918
7.5,750,0.968,-0.016,0.29,0.057295800000000015,-1.3178034,0.11459160000000004,177.9321069,74.26108638000002,158.2796475
7.51,751,0.9670000000000001,-0.013000000000000001,0.292,-0.11459160000000004,-1.2032118,0.11459160000000004,177.92064774,74.27254554,158.27391791999997
7.52,752,0.968,-0.013000000000000001,0.28800000000000003,-0.057295800000000015,-1.3178034,0.2291832000000001,177.91491816,74.2840047,158.26245876000004
7.53,753,0.965,-0.013999999999999999,0.28800000000000003,0.0,-1.0886202,0.1718874,177.903459,74.29546386000001,158.25672918
7.54,754,0.963,-0.015,0.28800000000000003,0.0,-1.145916,0.11459160000000004,177.89772942,74.30692302,158.24527002
7.55,755,0.963,-0.016,0.287,0.0,-1.3178034,0.0,177.92637731999997,74.30692302,158.27391791999997
7.56,756,0.965,-0.013999999999999999,0.28800000000000003,0.0,-1.2605076000000002,-0.057295800000000015,177.9321069,74.31838218,158.2796475
7.57,757,0.966,-0.013999999999999999,0.289,0.0,-1.0886202,-0.2291832000000001,177.93783648000004,74.32984134,158.28537708000005
7.58,758,0.97,-0.015,0.287,-0.2291832000000001,-0.6875496,-0.286479,177.94929564,74.33557092,158.29683624
7.59,759,0.966,-0.013999999999999999,0.287,-0.1718874,-0.40107059999999994,-0.2291832000000001,177.95502522,74.3413005,158.30829540000005
7.6,760,0.965,-0.015,0.285,-0.057295800000000015,-0.40107059999999994,-0.3437748,178.04096892,74.33557092,158.38850952
7.61,761,0.9640000000000001,-0.015,0.285,-0.057295800000000015,-0.286479,-0.3437748,178.05242808,74.3413005,158.40569825999995
7.62,762,0.965,-0.016,0.284,-0.057295800000000015,0.0,-0.3437748,178.06388724,74.3413005,158.41715742000005
7.63,763,0.9640000000000001,-0.015,0.285,0.0,0.2291832000000001,-0.40107059999999994,178.08107597999995,74.33557092,158.43434616
7.64,764,0.9620000000000001,-0.015,0.28600000000000003,0.3437748,0.2291832000000001,-0.4583664000000001,178.09826472,74.33557092,158.4515349
7.65,765,0.963,-0.015,0.28600000000000003,0.2291832000000001,0.286479,-0.572958,178.18420842,74.31838218,158.53174902
7.66,766,0.965,-0.013000000000000001,0.285,0.2291832000000001,0.40107059999999994,-0.6875496,178.20712674,74.31838218,158.55466733999995
7.67,767,0.966,-0.012,0.28600000000000003,0.2291832000000001,0.4583664000000001,-0.6302538000000001,178.23577464,74.31265259999998,158.58331524
7.68,768,0.965,-0.012,0.289,0.286479,0.40107059999999994,-0.572958,178.25869296,74.30692302,158.60050398
7.6899999999999995,769,0.966,-0.012,0.29100000000000004,0.40107059999999994,0.1718874,-0.4583664000000001,178.28161128,74.30692302,158.61769272
7.7,770,0.968,-0.012,0.29,0.2291832000000001,0.3437748,-0.40107059999999994,178.36755498,74.27827512,158.70363642
7.71,771,0.97,-0.013000000000000001,0.292,0.1718874,0.40107059999999994,-0.2291832000000001,178.37901414,74.27254554,158.71509558
7.72,772,0.9690000000000001,-0.012,0.293,0.1718874,0.6875496,-0.2291832000000001,178.3904733,74.26681596,158.72082516
7.7299999999999995,773,0.968,-0.012,0.29100000000000004,0.1718874,0.572958,-0.11459160000000004,178.39620287999998,74.26108638000002,158.72655474
7.74,774,0.968,-0.013000000000000001,0.29100000000000004,0.2291832000000001,0.4583664000000001,-0.11459160000000004,178.40193246,74.2553568,158.73228432000005
7.75,775,0.9670000000000001,-0.013999999999999999,0.292,0.1718874,0.40107059999999994,0.0,178.476417,74.198061,158.79530970000005
7.76,776,0.966,-0.013000000000000001,0.29,0.286479,0.2291832000000001,0.11459160000000004,178.47068742000005,74.198061,158.79530970000005
7.77,777,0.9670000000000001,-0.013000000000000001,0.293,0.286479,0.057295800000000015,0.057295800000000015,178.476417,74.198061,158.78958011999995
7.78,778,0.97,-0.013000000000000001,0.294,0.286479,0.0,0.11459160000000004,178.47068742000005,74.198061,158.78385054
7.79,779,0.97,-0.012,0.29600000000000004,0.286479,-0.057295800000000015,0.11459160000000004,178.47068742000005,74.198061,158.78385054
7.8,780,0.971,-0.012,0.29600000000000004,0.1718874,-0.1718874,0.1718874,178.59100859999995,74.1121173,158.89271256
7.81,781,0.968,-0.011000000000000001,0.29600000000000004,0.0,-0.286479,0.286479,178.57954944,74.11784688,158.88698298000003
7.82,782,0.9690000000000001,-0.013000000000000001,0.294,0.057295800000000015,-0.40107059999999994,0.286479,178.56809028,74.11784688,158.86979424
7.83,783,0.968,-0.013000000000000001,0.292,-0.057295800000000015,-0.40107059999999994,0.4583664000000001,178.55090153999996,74.12357646,158.85260549999995
7.84,784,0.9640000000000001,-0.013000000000000001,0.293,0.0,-0.572958,0.5156622000000001,178.5337128,74.12930604,158.83541676
7.85,785,0.9640000000000001,-0.013999999999999999,0.292,0.0,-0.6302538000000001,0.4583664000000001,178.53944238000003,74.11784688,158.84114634
7.86,786,0.9640000000000001,-0.013999999999999999,0.293,0.0,-0.6302538000000001,0.5156622000000001,178.51652406,74.12357646,158.81822802000005
7.87,787,0.966,-0.015,0.292,0.0,-0.9167328000000001,0.3437748,178.5050649,74.13503562,158.80676885999995
7.88,788,0.966,-0.015,0.294,0.057295800000000015,-0.9167328000000001,0.2291832000000001,178.49933532,74.14649478,158.79530970000005
7.89,789,0.968,-0.017,0.294,0.057295800000000015,-0.9167328000000001,0.11459160000000004,178.49360574,74.15222436,158.78958011999995
7.9,790,0.9690000000000001,-0.013999999999999999,0.293,0.0,-0.9167328000000001,0.0,178.52225364,74.15222436,158.8239576
7.91,791,0.971,-0.013999999999999999,0.294,0.057295800000000015,-0.8594370000000001,0.0,178.52798321999995,74.15795394,158.81822802000005
7.92,792,0.968,-0.013000000000000001,0.295,0.1718874,-1.2032118,0.0,178.52798321999995,74.1694131,158.8239576
7.93,793,0.9690000000000001,-0.015,0.293,0.1718874,-1.3178034,-0.057295800000000015,178.5337128,74.18660184000002,158.8239576
7.94,794,0.97,-0.013000000000000001,0.295,0.057295800000000015,-1.2605076000000002,0.0,178.5337128,74.198061,158.8239576
7.95,795,0.97,-0.013999999999999999,0.295,0.057295800000000015,-1.3750992,0.0,178.55663112,74.19233141999999,158.84114634
7.96,796,0.9690000000000001,-0.013999999999999999,0.293,0.0,-1.3750992,0.0,178.55090153999996,74.20952016,158.84114634
7.97,797,0.966,-0.013999999999999999,0.29,0.0,-1.432395,0.057295800000000015,178.55090153999996,74.22097932,158.84114634
7.9799999999999995,798,0.963,-0.015,0.28800000000000003,0.0,-1.3178034,0.0,178.55090153999996,74.23243848,158.84114634
7.99,799,0.963,-0.016,0.29,0.057295800000000015,-1.3178034,-0.057295800000000015,178.55663112,74.24962722000002,158.84114634
8.0,800,0.963,-0.013000000000000001,0.289,0.057295800000000015,-1.2032118,0.0,178.59100859999995,74.24389764,158.87552381999996
8.01,801,0.9620000000000001,-0.013000000000000001,0.28800000000000003,0.057295800000000015,-1.0313244000000001,-0.1718874,178.60246776000002,74.2553568,158.88698298000003
8.02,802,0.963,-0.015,0.287,0.1718874,-0.8021411999999999,-0.1718874,178.60819734,74.26108638000002,158.89271256
8.03,803,0.9640000000000001,-0.013999999999999999,0.28600000000000003,0.2291832000000001,-0.7448454000000001,-0.3437748,178.62538608,74.27254554,158.90417172
8.04,804,0.9640000000000001,-0.012,0.284,0.572958,-0.7448454000000001,-0.40107059999999994,178.6483044,74.27827512,158.92136046
8.05,805,0.9670000000000001,-0.012,0.29,1.2605076000000002,-0.7448454000000001,-0.3437748,178.68841146,74.27254554,158.95000836000003
8.06,806,0.97,-0.012,0.293,1.3750992,-0.6302538000000001,-0.2291832000000001,178.71132977999997,74.2840047,158.96146752
8.07,807,0.975,-0.009000000000000001,0.292,1.0313244000000001,-0.1718874,0.0,178.72278894000004,74.2840047,158.96146752
8.08,808,0.9790000000000001,-0.004,0.29,1.4896908000000002,0.0,0.1718874,178.7342481,74.2840047,158.95573794
8.09,809,0.978,0.003,0.297,2.9220858,0.40107059999999994,0.1718874,178.75716642,74.27827512,158.94427878
