TimeStamp(s),FrameCounter,AccX,AccY,AccZ,GyrX,GyrY,GyrZ,EulerX,EulerY,EulerZ
0.01,1,0.025,-1.011,-0.019,-0.1718874,0.0,0.4583664000000001,88.79703083999998,1.3750992,-46.42678674
0.02,2,0.023,-1.01,-0.018000000000000002,-0.4583664000000001,-0.7448454000000001,0.286479,88.79130126,1.36936962,-46.43251632
0.03,3,0.023,-1.009,-0.016,-0.8021411999999999,-1.3178034,0.057295800000000015,88.7798421,1.36936962,-46.44397548
0.04,4,0.023,-1.013,-0.016,-1.0886202,-1.7188740000000002,0.057295800000000015,88.76838294000002,1.36936962,-46.46116422
0.05,5,0.019,-1.014,-0.017,-1.6042823999999998,-1.6042823999999998,0.286479,88.72827588,1.36364004,-46.48408254
0.060000000000000005,6,0.015,-1.015,-0.02,-1.7188740000000002,-1.145916,0.5156622000000001,88.71108714,1.3579104599999998,-46.495541700000004
0.06999999999999999,7,0.012,-1.014,-0.024,-1.8334656000000005,-0.6302538000000001,0.6875496,88.68816882,1.35218088,-46.50127128
0.08,8,0.013,-1.012,-0.022,-1.8907613999999997,0.0,0.572958,88.67098008,1.3464512999999998,-46.50127128
0.09,9,0.015,-1.01,-0.021,-2.1199446,0.4583664000000001,0.4583664000000001,88.64806175999998,1.34072172,-46.495541700000004
0.09999999999999999,10,0.017,-1.008,-0.022,-2.291832,0.4583664000000001,0.3437748,88.59076596,1.3349921400000002,-46.48981212
0.11,11,0.019,-1.007,-0.027000000000000003,-2.6356068,0.4583664000000001,0.286479,88.56211806,1.32926256,-46.48981212
0.12,12,0.021,-1.004,-0.035,-2.6929026,0.11459160000000004,0.286479,88.53919973999999,1.32926256,-46.48981212
0.13,13,0.023,-1.003,-0.037000000000000005,-2.6356068,-0.11459160000000004,0.2291832000000001,88.51055184,1.32353298,-46.48981212
0.14,14,0.021,-1.004,-0.033,-2.291832,-0.6875496,0.286479,88.48763352,1.32353298,-46.495541700000004
0.15000000000000002,15,0.019,-1.005,-0.03,-2.291832,-0.7448454000000001,0.4583664000000001,88.42460814,1.3178034,-46.50700086000001
0.16,16,0.016,-1.003,-0.033,-2.291832,-0.6875496,0.4583664000000001,88.40168982,1.31207382,-46.51273044
0.17,17,0.014,-1.001,-0.033,-2.291832,-0.572958,0.3437748,88.3787715,1.31207382,-46.51846002
0.18000000000000002,18,0.014,-1.003,-0.029,-2.4637194,-0.4010706,0.1718874,88.35012359999996,1.30634424,-46.52418959999999
0.19,19,0.015,-1.008,-0.029,-2.1772404,-0.3437748,0.057295800000000015,88.32720528,1.30634424,-46.52418959999999
0.2,20,0.014,-1.014,-0.033,-2.1199446,-0.3437748,0.11459160000000004,88.26417990000002,1.29488508,-46.53564876
0.21000000000000002,21,0.014,-1.013,-0.023,-2.1199446,0.4010706,0.11459160000000004,88.24126158,1.29488508,-46.52991918
0.22,22,0.013,-1.012,-0.01,-1.9480572,2.1199446,0.0,88.21834326000004,1.29488508,-46.50700086000001
0.23,23,0.015,-1.015,-0.015,-2.1199446,3.0366774,-0.057295800000000015,88.20115452,1.29488508,-46.47835296
0.24000000000000002,24,0.016,-1.012,-0.033,-2.86479,2.9793816000000004,0.057295800000000015,88.17250662000002,1.29488508,-46.44970506
0.25,25,0.02,-1.005,-0.039,-2.7501984,2.6929026,0.1718874,88.11521081999999,1.29488508,-46.42105716
0.26,26,0.025,-1.004,-0.035,-2.578311,1.9480572,0.286479,88.08656292,1.29488508,-46.40386842
0.27,27,0.026,-1.003,-0.032,-2.86479,1.0313244,0.4010706,88.05791502,1.2891555000000001,-46.39240926
0.28,28,0.023,-1.01,-0.031,-3.0366774,0.4583664000000001,0.572958,88.02926712000001,1.28342592,-46.38667968
0.29000000000000004,29,0.017,-1.017,-0.028,-3.6096354,-0.057295800000000015,0.6875496,87.98916005999996,1.27769634,-46.39240926
0.3,30,0.018000000000000002,-1.017,-0.034,-3.724227,-0.11459160000000004,0.5156622000000001,87.92613467999998,1.27196676,-46.39240926
0.31,31,0.018000000000000002,-1.015,-0.038,-4.010706000000001,-0.286479,0.286479,87.88602762000002,1.26623718,-46.39240926
0.32,32,0.019,-1.009,-0.042,-4.4690724,-0.057295800000000015,-0.11459160000000004,87.84019098,1.27196676,-46.39813884
0.33,33,0.019,-1.005,-0.047,-4.0680017999999984,-0.11459160000000004,-0.2291832000000001,87.80008391999998,1.27196676,-46.39813884
0.34,34,0.016,-1.003,-0.052000000000000005,-3.724227,-0.3437748,-0.286479,87.75997686000002,1.27196676,-46.40386842
0.35000000000000003,35,0.015,-0.998,-0.056,-3.0366774,-0.5156622000000001,-0.11459160000000004,87.67403316,1.27196676,-46.409598
0.36000000000000004,36,0.015,-0.994,-0.052000000000000005,-2.2345362,-0.7448454000000001,0.11459160000000004,87.65111484,1.27196676,-46.42105716
0.37,37,0.016,-0.995,-0.047,-1.8334656000000005,-0.9167328,0.1718874,87.6339261,1.26623718,-46.42678674
0.38,38,0.016,-0.996,-0.043,-1.8334656000000005,-1.3178034,0.11459160000000004,87.61673736,1.26623718,-46.44397548
0.39,39,0.013,-0.998,-0.041,-2.0053530000000004,-1.432395,0.0,87.59381904,1.26623718,-46.45543464000001
0.4,40,0.012,-1.001,-0.037000000000000005,-2.4637194,-1.3178034,-0.2291832000000001,87.54798240000002,1.2605076000000002,-46.47262338
0.41000000000000003,41,0.014,-1.003,-0.04,-2.9793816000000004,-1.2032118,-0.4583664000000001,87.51360492,1.26623718,-46.48408254
0.42000000000000004,42,0.015,-1.007,-0.044,-3.3231564,-1.0886202,-0.6302538000000001,87.47922744,1.27196676,-46.495541700000004
0.43,43,0.016,-1.008,-0.051,-3.5523396000000003,-0.9740286,-0.5156622000000001,87.44484996,1.27769634,-46.50700086000001
0.44,44,0.015,-1.01,-0.055,-3.3231564,-1.0313244,-0.11459160000000004,87.41047248,1.27769634,-46.51846002
0.45,45,0.017,-1.008,-0.059,-2.86479,-0.9167328,0.057295800000000015,87.33025836,1.27196676,-46.52991918
0.46,46,0.016,-1.004,-0.063,-2.2345362,-0.9740286,0.057295800000000015,87.30734004,1.27196676,-46.54137834
0.47000000000000003,47,0.016,-1.001,-0.061,-1.7761698,-1.0313244,0.0,87.29015129999998,1.27196676,-46.5528375
0.48000000000000004,48,0.017,-0.999,-0.058,-1.432395,-0.9740286,-0.1718874,87.27296256,1.27196676,-46.56429666
0.49,49,0.016,-1.001,-0.048,-1.145916,-0.9167328,-0.3437748,87.26150340000002,1.27769634,-46.57002624
0.5,50,0.018000000000000002,-1.004,-0.049,-1.6615782,-0.9167328,-0.4583664000000001,87.20993718,1.28342592,-46.58148540000001
0.51,51,0.019,-1.006,-0.049,-1.9480572,-1.2032118,-0.3437748,87.18701886,1.2891555000000001,-46.59294456
0.52,52,0.015,-1.006,-0.048,-2.5210152000000003,-1.6615782,-0.2291832000000001,87.16410053999998,1.2891555000000001,-46.6101333
0.53,53,0.015,-1.007,-0.049,-2.9793816000000004,-1.9480572,-0.11459160000000004,87.13545264000004,1.2891555000000001,-46.63305162
0.54,54,0.018000000000000002,-1.01,-0.052000000000000005,-3.0939732,-2.0053530000000004,-0.057295800000000015,87.10107516000002,1.2891555000000001,-46.65024036
0.55,55,0.018000000000000002,-1.006,-0.059,-3.3231564,-1.7188740000000002,-0.1718874,87.03232019999999,1.2891555000000001,-46.6674291
0.56,56,0.019,-1.002,-0.063,-3.0366774,-1.2032118,-0.2291832000000001,87.0036723,1.29488508,-46.68461784
0.5700000000000001,57,0.018000000000000002,-0.999,-0.065,-2.2345362,-0.8021411999999999,-0.286479,86.98075398,1.29488508,-46.69034742
0.5800000000000001,58,0.018000000000000002,-1.002,-0.058,-1.7188740000000002,-0.572958,-0.1718874,86.96356524000002,1.29488508,-46.696077
0.59,59,0.021,-1.003,-0.055,-1.5469866,-0.4583664000000001,-0.057295800000000015,86.94637650000001,1.29488508,-46.70180658
0.6,60,0.023,-1.003,-0.051,-1.0886202,-0.6875496,0.0,86.89481028,1.30634424,-46.70753616
0.61,61,0.02,-1.004,-0.042,-1.5469866,-1.3178034,0.057295800000000015,86.87762153999998,1.30634424,-46.71899532
0.62,62,0.017,-1.004,-0.035,-2.0626488000000003,-1.4896908000000002,-0.11459160000000004,86.85470322,1.30634424,-46.73618406
0.63,63,0.018000000000000002,-1.006,-0.035,-2.4637194,-1.6615782,-0.3437748,86.83178489999996,1.31207382,-46.7533728
0.64,64,0.018000000000000002,-1.009,-0.035,-3.4377480000000005,-1.7188740000000002,-0.572958,86.79740741999998,1.3178034,-46.77056154
0.65,65,0.016,-1.013,-0.038,-4.297185,-1.6615782,-0.572958,86.7458412,1.3178034,-46.78775028
0.66,66,0.01,-1.019,-0.042,-4.583664,-1.6042823999999998,-0.4010706,86.70000456,1.32353298,-46.80493902
0.67,67,0.006999999999999999,-1.023,-0.039,-4.9847345999999995,-1.2605076000000002,-0.4010706,86.64843834,1.32353298,-46.81639818
0.68,68,0.008,-1.023,-0.044,-5.6149884000000005,-0.2291832000000001,-0.4583664000000001,86.59114253999998,1.32926256,-46.82212776
0.6900000000000001,69,0.01,-1.024,-0.049,-5.844171599999999,0.8021411999999999,-0.572958,86.53384674,1.3349921400000002,-46.81639818
0.7000000000000001,70,0.013,-1.022,-0.055,-6.417129599999999,1.432395,-0.5156622000000001,86.45363262000002,1.3349921400000002,-46.80493902
0.7100000000000001,71,0.014,-1.014,-0.055,-6.3598338,1.2605076000000002,-0.286479,86.39060724,1.34072172,-46.79347986
0.72,72,0.015,-1.01,-0.054000000000000006,-6.016058999999999,0.9167328,-0.11459160000000004,86.32758186,1.34072172,-46.78202069999999
0.73,73,0.017,-1.008,-0.055,-6.0733548,0.7448454000000001,-0.057295800000000015,86.27028606,1.34072172,-46.77629112
0.74,74,0.02,-1.008,-0.06,-6.1879464,0.8021411999999999,-0.11459160000000004,86.20726068,1.34072172,-46.77056154
0.75,75,0.02,-1.012,-0.053,-6.4744254,0.8021411999999999,-0.11459160000000004,86.13850572,1.3464512999999998,-46.75910238
0.76,76,0.017,-1.015,-0.05,-6.875496000000001,0.5156622000000001,-0.11459160000000004,86.06402118000004,1.3464512999999998,-46.7533728
0.77,77,0.013,-1.017,-0.05,-7.161975,0.3437748,-0.4010706,85.99526621999998,1.3464512999999998,-46.7533728
0.78,78,0.014,-1.017,-0.057,-7.7349330000000025,0.2291832000000001,-0.6875496,85.9150521,1.3579104599999998,-46.7533728
0.79,79,0.013,-1.018,-0.062,-8.307891,0.4583664000000001,-0.8594370000000001,85.82910840000002,1.36364004,-46.74764322
0.8,80,0.017,-1.019,-0.059,-8.078707799999998,0.8594370000000001,-0.9167328,85.7431647,1.3750992,-46.74191363999999
0.81,81,0.021,-1.018,-0.058,-8.3651868,1.2032118,-0.8021411999999999,85.65722099999998,1.38082878,-46.73045448000001
0.8200000000000001,82,0.024,-1.012,-0.061,-8.479778399999999,2.0626488000000003,-0.5156622000000001,85.57127729999998,1.38655836,-46.71326574
0.8300000000000001,83,0.027000000000000003,-1.008,-0.066,-8.136003599999999,2.291832,-0.2291832000000001,85.49106318,1.39228794,-46.69034742
0.8400000000000001,84,0.03,-1.008,-0.066,-8.136003599999999,2.1199446,-0.11459160000000004,85.40511948000002,1.39228794,-46.6674291
0.85,85,0.033,-1.009,-0.066,-8.307891,1.9480572,-0.2291832000000001,85.31917578,1.4037471,-46.65024036
0.86,86,0.034,-1.014,-0.058,-8.136003599999999,1.6615782,-0.2291832000000001,85.23896166,1.4037471,-46.63305162
0.87,87,0.038,-1.019,-0.049,-9.3965112,1.3178034,-0.3437748,85.1415588,1.40947668,-46.62159246
0.88,88,0.045,-1.017,-0.052000000000000005,-10.4851314,0.2291832000000001,-0.4583664000000001,85.03269678,1.40947668,-46.62159246
0.89,89,0.046,-1.015,-0.055,-11.2872726,-1.5469866,-0.11459160000000004,84.91810518,1.40947668,-46.638781200000004
0.9,90,0.048,-1.012,-0.06,-12.3758928,-3.4377480000000005,0.11459160000000004,84.79205442,1.41520626,-46.6674291
0.91,91,0.043,-1.013,-0.064,-12.834259199999998,-4.9847345999999995,0.286479,84.66600365999999,1.40947668,-46.71899532
0.92,92,0.039,-1.018,-0.069,-13.750992000000002,-5.6149884000000005,0.0,84.52276416000002,1.4037471,-46.77629112
0.93,93,0.035,-1.023,-0.07400000000000001,-14.495837400000001,-5.2139178,-0.4583664000000001,84.37379508000002,1.4037471,-46.83358692
0.9400000000000001,94,0.032,-1.023,-0.083,-14.7823164,-4.7555514,-0.6875496,84.22482600000002,1.4037471,-46.879423560000006
0.9500000000000001,95,0.028,-1.021,-0.093,-15.4125702,-4.4690724,-0.7448454000000001,84.06439776,1.40947668,-46.9252602
0.9600000000000001,96,0.025,-1.015,-0.098,-15.469866,-4.4117766,-0.6875496,83.90396952,1.41520626,-46.97109684
0.97,97,0.025,-1.013,-0.099,-15.985528200000001,-4.297185,-0.7448454000000001,83.74354128,1.41520626,-47.01693347999999
0.98,98,0.025,-1.011,-0.101,-16.386598799999998,-4.583664,-0.572958,83.57738346,1.41520626,-47.068499700000004
0.99,99,0.023,-1.01,-0.102,-16.7303736,-4.7555514,-0.572958,83.40549606,1.41520626,-47.11433634000001
1.0,100,0.019,-1.011,-0.1,-17.475219,-4.7555514,-0.6875496,83.22787908000002,1.41520626,-47.16590255999999
1.01,101,0.017,-1.013,-0.102,-18.1054728,-4.3544808,-0.9167328,83.03880294000002,1.4209358399999998,-47.2117392
1.02,102,0.015,-1.014,-0.105,-19.0222056,-3.8961144,-0.9740286,82.84972680000001,1.42666542,-47.25184625999999
1.03,103,0.013,-1.015,-0.107,-19.9962342,-3.6096354,-0.9740286,82.64346192,1.42666542,-47.29195332
1.04,104,0.009000000000000001,-1.015,-0.1,-20.798375399999998,-2.9220857999999996,-0.9167328,82.43146746,1.432395,-47.3263308
1.05,105,0.011,-1.019,-0.085,-22.0015872,-1.6615782,-0.9167328,82.21374342,1.43812458,-47.34351954
1.06,106,0.014,-1.021,-0.067,-23.835052800000003,0.2291832000000001,-0.9167328,81.97310106,1.44385416,-47.34924912
1.07,107,0.026,-1.025,-0.067,-25.9549974,2.0053530000000004,-0.7448454000000001,81.70954037999998,1.44958374,-47.33206038
1.08,108,0.036000000000000004,-1.029,-0.097,-27.6165756,1.8334656000000005,-0.4010706,81.42879096,1.45531332,-47.31487163999999
1.09,109,0.043,-1.036,-0.112,-29.1635622,0.4010706,-0.1718874,81.1308528,1.45531332,-47.31487163999999
1.1,110,0.048,-1.041,-0.116,-30.7678446,-1.2032118,-0.11459160000000004,80.82718506,1.45531332,-47.3263308
1.11,111,0.046,-1.045,-0.118,-31.741873200000004,-2.6929026,-0.11459160000000004,80.500599,1.44958374,-47.36070828
1.12,112,0.035,-1.045,-0.122,-32.486718599999996,-3.4950437999999995,0.0,80.17401294,1.44385416,-47.39508576
1.1300000000000001,113,0.022,-1.0490000000000002,-0.127,-33.804522,-3.6669312000000014,0.0,79.83023813999998,1.432395,-47.43519282
1.1400000000000001,114,0.011,-1.039,-0.132,-34.5493674,-2.9220857999999996,-0.057295800000000015,79.47500418000001,1.42666542,-47.4695703
1.1500000000000001,115,0.006,-1.032,-0.138,-35.6379876,-1.8907613999999997,-0.1718874,79.11977021999998,1.4209358399999998,-47.49248862
1.1600000000000001,116,0.0,-1.022,-0.146,-36.2109456,-0.5156622000000001,-0.11459160000000004,78.7530771,1.41520626,-47.4982182
1.17,117,0.0,-1.022,-0.155,-36.669312,0.1718874,0.11459160000000004,78.38065440000003,1.40947668,-47.50394778
1.18,118,0.0,-1.019,-0.157,-38.10170700000001,0.286479,0.5156622000000001,77.99104296,1.4037471,-47.4982182
1.19,119,0.008,-1.01,-0.165,-39.0757356,-0.057295800000000015,0.8594370000000001,77.59570194,1.39228794,-47.50394778
1.2,120,0.015,-1.006,-0.16699999999999998,-40.33624320000001,-1.0313244,1.0886202,77.18890176,1.3750992,-47.51540694
1.21,121,0.019,-0.999,-0.172,-42.62807520000001,-1.6042823999999998,1.0313244,76.75918326,1.3579104599999998,-47.53259568
1.22,122,0.018000000000000002,-0.991,-0.185,-43.8885828,-2.1772404,0.7448454000000001,76.31227602,1.34072172,-47.555514
1.23,123,0.015,-0.985,-0.198,-44.6334282,-2.1772404,0.286479,75.85390962,1.32926256,-47.57843232000001
1.24,124,0.004,-0.979,-0.207,-45.3209778,-1.8334656000000005,-0.11459160000000004,75.39554322000002,1.3178034,-47.60135064
1.25,125,0.0,-0.978,-0.218,-45.4928652,-1.3750992,-0.6302538000000001,74.93717682,1.31207382,-47.62426896
1.26,126,0.0,-0.979,-0.225,-45.9512316,-1.145916,-0.8021411999999999,74.46735126,1.31207382,-47.6414577
1.27,127,0.002,-0.981,-0.229,-46.6387812,-1.145916,-1.0886202,73.99179612,1.3178034,-47.65864644
1.28,128,0.0,-0.982,-0.233,-47.841993,-1.0886202,-1.2032118,73.51051140000001,1.32353298,-47.67583517999999
1.29,129,0.002,-0.986,-0.236,-49.1025006,-1.3750992,-1.4896908000000002,73.01203794,1.32926256,-47.698753499999995
1.3,130,0.006,-0.984,-0.243,-50.706783,-1.7761698,-2.0626488000000003,72.49637574,1.3349921400000002,-47.72740140000001
1.31,131,0.002,-0.984,-0.257,-51.852699,-2.4064236,-2.4637194,71.96925438,1.3464512999999998,-47.76177888
1.32,132,0.004,-0.979,-0.274,-53.285094,-2.578311,-3.0366774,71.43067386,1.36364004,-47.80188594
1.33,133,0.002,-0.967,-0.29100000000000004,-53.628868800000006,-2.4064236,-3.4950437999999995,70.88636376,1.38082878,-47.83626342
1.34,134,0.002,-0.962,-0.303,-53.628868800000006,-1.9480572,-3.8961144,70.33632408,1.4037471,-47.87637048
1.35,135,0.003,-0.977,-0.297,-53.9153478,-1.432395,-4.3544808,69.79774356,1.432395,-47.90501838
1.36,136,0.013,-0.99,-0.28,-55.80610920000001,-0.9167328,-4.2398892,69.23051514,1.46677248,-47.93366628
1.37,137,0.016,-0.986,-0.276,-58.38442020000001,-1.0886202,-4.297185,68.63463881999999,1.49542038,-47.96804376
1.3800000000000001,138,0.032,-0.988,-0.28800000000000003,-60.5616606,-2.4064236,-4.1252976000000015,68.02157376,1.5183387000000002,-48.00815082
1.3900000000000001,139,0.039,-0.997,-0.28600000000000003,-61.134618599999996,-5.9014674000000005,-3.9534102,67.39704954,1.52406828,-48.08263536
1.4000000000000001,140,0.036000000000000004,-0.988,-0.278,-62.051351399999994,-9.0527364,-3.8961144,66.77252532,1.52406828,-48.1857678
1.4100000000000001,141,0.028,-0.978,-0.313,-62.5670136,-9.3965112,-3.8388186,66.13654194,1.51260912,-48.29462982
1.42,142,0.016,-0.983,-0.348,-62.6243094,-6.1879464,-4.1252976000000015,65.50055856,1.5183387000000002,-48.36911436000001
1.43,143,0.021,-0.977,-0.348,-62.16594300000001,-3.8961144,-4.9847345999999995,64.86457518,1.5412570200000002,-48.43213974
1.44,144,0.025,-0.978,-0.371,-60.332477399999995,-2.9220857999999996,-5.72958,64.25151012,1.5756344999999998,-48.48943554
1.45,145,0.015,-0.963,-0.394,-59.014674,-0.9740286,-6.5317212,63.6556338,1.62147114,-48.529542600000006
1.46,146,0.024,-0.957,-0.361,-54.4883058,1.0886202,-6.8182002000000015,63.10559412,1.6787669399999998,-48.55246092
1.47,147,0.005,-0.978,-0.3670000000000001,-51.1651494,2.9220857999999996,-6.8182002000000015,62.58420234,1.7475218999999995,-48.5581905
1.48,148,0.0,-1.003,-0.4370000000000001,-51.6235158,5.5576926,-7.0473834,62.05708098,1.82773602,-48.54673134
1.49,149,0.004,-1.033,-0.48,-51.3943326,5.2712136,-6.589017,61.5356892,1.90222056,-48.53527218
1.5,150,0.014,-1.044,-0.51,-51.852699,5.1566220000000005,-5.7868758000000025,61.00856784,1.97097552,-48.51808344
1.51,151,0.029,-1.062,-0.5529999999999999,-50.76407879999999,5.042030400000002,-4.4690724,60.49290564,2.02254174,-48.5008947
1.52,152,0.045,-1.084,-0.5820000000000001,-49.5035712,3.8961144,-3.0366774,59.99443218,2.0626488000000003,-48.48370596
1.53,153,0.058,-1.08,-0.635,-47.4409224,1.5469866,-1.7761698,59.513147460000006,2.07983754,-48.48370596
1.54,154,0.053,-1.075,-0.677,-42.685371,-1.4896908000000002,-1.145916,59.07769938,2.07983754,-48.5008947
1.55,155,0.065,-1.075,-0.647,-36.1536498,-2.7501984,-1.8907613999999997,58.70527668,2.07983754,-48.54100175999999
1.56,156,0.09,-1.072,-0.654,-33.518043,-1.6615782,-3.0366774,58.36723145999999,2.0912967,-48.56964966
1.57,157,0.127,-1.069,-0.6990000000000001,-30.5386614,0.3437748,-3.9534102,58.05783414,2.1199446,-48.59256798
1.58,158,0.142,-1.071,-0.743,-26.814434400000003,0.8594370000000001,-3.724227,57.78281430000001,2.15432208,-48.60402714000001
1.59,159,0.113,-1.067,-0.775,-24.694489800000003,-0.7448454000000001,-2.2345362,57.53071278,2.1657812400000003,-48.62121588000001
1.6,160,0.051,-1.061,-0.802,-22.9756158,-2.1199446,-0.11459160000000004,57.290070420000006,2.15432208,-48.6441342
1.61,161,-0.002,-1.0490000000000002,-0.802,-20.2254174,-2.578311,1.4896908000000002,57.08380553999999,2.12567418,-48.66132294000001
1.62,162,-0.028,-1.034,-0.787,-17.761698000000006,-2.0053530000000004,2.1199446,56.90045898,2.0912967,-48.66705252
1.6300000000000001,163,-0.029,-1.007,-0.787,-16.615782,-0.3437748,1.8907613999999997,56.73430116,2.07410796,-48.66132294000001
1.6400000000000001,164,-0.013,-0.972,-0.802,-14.667724800000002,1.6615782,0.7448454000000001,56.58533208,2.07410796,-48.6441342
1.6500000000000001,165,0.0,-0.944,-0.7979999999999999,-11.6310474,2.9220857999999996,-0.4583664000000001,56.44782216,2.08556712,-48.62121588000001
1.6600000000000001,166,0.0,-0.94,-0.79,-8.651665800000002,4.010706000000001,-1.5469866,56.35614888,2.1199446,-48.59829756
1.6700000000000002,167,0.003,-0.956,-0.77,-6.5317212,5.3285094000000015,-1.7761698,56.29312349999999,2.16005166,-48.56392008
1.68,168,0.019,-0.979,-0.7440000000000001,-4.4690724,6.589017,-0.8594370000000001,56.24728686,2.2058883,-48.51235386000001
1.69,169,0.027000000000000003,-0.992,-0.718,-3.0939732,8.59437,0.9167328,56.21863896,2.24026578,-48.43786932
1.7,170,0.036000000000000004,-0.986,-0.71,-2.0053530000000004,10.4851314,3.0366774,56.18999106,2.26891368,-48.33473688
1.71,171,0.043,-0.964,-0.695,-0.4583664000000001,10.886202,4.7555514,56.18999106,2.28610242,-48.2144157
1.72,172,0.037000000000000005,-0.938,-0.684,1.4896908000000002,11.745639,5.9014674000000005,56.20717980000001,2.30329116,-48.08263536
1.73,173,0.031,-0.907,-0.67,2.9220857999999996,12.261301199999998,5.72958,56.24155728000001,2.3204799,-47.95085502
1.74,174,0.021,-0.877,-0.6559999999999999,4.0680017999999984,12.6623718,4.7555514,56.28739392,2.3491277999999998,-47.81334510000001
1.75,175,0.013,-0.86,-0.635,5.7868758000000025,13.2353298,3.6669312000000014,56.33323056,2.3777757,-47.68729434
1.76,176,0.029,-0.855,-0.606,7.7349330000000025,13.8082878,2.9220857999999996,56.41917426,2.42934192,-47.555514
1.77,177,0.032,-0.838,-0.586,7.3911582,13.8655836,2.6929026,56.49365879999999,2.48090814,-47.42373366
1.78,178,0.04,-0.833,-0.5710000000000001,8.9954406,14.152062599999999,2.4637194,56.59106166,2.53247436,-47.29195332
1.79,179,0.048,-0.825,-0.556,9.3965112,13.750992000000002,2.5210152000000003,56.68846452,2.58404058,-47.16017298
1.8,180,0.068,-0.813,-0.55,11.0580894,13.407217200000002,2.7501984,56.79732654000001,2.6413363800000003,-47.02839264
1.81,181,0.086,-0.794,-0.5379999999999999,13.0634424,12.5477802,2.7501984,56.93483646,2.68717302,-46.90807146
1.82,182,0.091,-0.774,-0.525,14.9542038,11.745639,2.5210152000000003,57.08953512000001,2.72728008,-46.79347986
1.83,183,0.08900000000000001,-0.753,-0.516,16.329303,10.7716104,1.8334656000000005,57.26142252,2.76738714,-46.69034742
1.84,184,0.077,-0.735,-0.496,18.048177,9.3392154,0.9740286,57.44476908,2.8074942000000003,-46.60440372
1.85,185,0.068,-0.721,-0.505,19.7097552,8.9954406,0.057295800000000015,57.63384522,2.85906042,-46.52418959999999
1.86,186,0.057,-0.7070000000000001,-0.488,21.829699800000004,8.8235532,-1.145916,57.85729884,2.91635622,-46.45543464000001
1.87,187,0.06,-0.696,-0.475,23.204799,8.7089616,-2.8074942000000003,58.0979412,2.99084076,-46.39813884
1.8800000000000001,188,0.058,-0.68,-0.476,24.064235999999998,8.651665800000002,-4.5263682,58.34431314,3.07105488,-46.34084304
1.8900000000000001,189,0.066,-0.6609999999999999,-0.471,26.1268848,9.740286,-5.9014674000000005,58.60787382,3.1741873200000006,-46.28927682000001
1.9000000000000001,190,0.068,-0.64,-0.474,28.0176462,10.7143146,-6.589017,58.88289365999999,3.28877892,-46.22625144
1.9100000000000001,191,0.07,-0.612,-0.471,29.67922440000001,10.1986524,-6.703608600000001,59.1865614,3.40337052,-46.17468522
1.9200000000000002,192,0.07200000000000001,-0.5920000000000001,-0.465,30.93973200000001,9.167328,-6.4744254,59.50168829999999,3.50650296,-46.123119
1.93,193,0.068,-0.5770000000000001,-0.471,31.79916900000001,8.193299399999999,-6.1879464,59.82827436,3.60390582,-46.08301193999999
1.94,194,0.071,-0.5710000000000001,-0.501,31.971056400000002,8.5370742,-6.589017,60.15486042,3.70130868,-46.0371753
1.95,195,0.08,-0.5660000000000001,-0.516,32.7731976,8.3651868,-6.760904399999999,60.46425774000001,3.810170700000002,-45.99706824
1.96,196,0.08199999999999999,-0.5589999999999999,-0.512,34.66395900000001,7.9641161999999985,-6.4744254,60.8194917,3.90757356,-45.95696118
1.97,197,0.084,-0.56,-0.521,36.03905820000001,6.4744254,-5.443101,61.18618482000001,3.98778768,-45.922583700000004
1.98,198,0.081,-0.561,-0.532,36.2109456,4.9274388,-4.1825934,61.55860752,4.05081306,-45.89966538
1.99,199,0.081,-0.5539999999999999,-0.552,35.695283399999994,4.6409598,-2.8074942000000003,61.91957106,4.102379279999999,-45.86528790000001
2.0,200,0.069,-0.545,-0.557,34.8931422,4.7555514,-1.3750992,62.24615712000001,4.14248634,-45.83091042
2.01,201,0.056,-0.537,-0.569,34.0337052,6.016058999999999,-0.1718874,62.59566150000001,4.17113424,-45.779344200000004
2.02,202,0.043,-0.536,-0.603,32.7159018,7.7349330000000025,1.0313244,62.92797714000001,4.19978214,-45.69913008
2.03,203,0.016,-0.546,-0.604,32.31483119999999,10.1413566,1.7188740000000002,63.26602236,4.23415962,-45.60172722
2.04,204,-0.015,-0.569,-0.565,31.8564648,12.4904844,2.86479,63.598338,4.26280752,-45.46994688
2.05,205,-0.033,-0.5870000000000001,-0.534,30.1375908,15.183387000000002,4.2398892,63.88481700000001,4.27999626,-45.3209778
2.0599999999999996,206,-0.025,-0.606,-0.515,27.501984000000004,18.621135,5.5576926,64.17702557999999,4.30864416,-45.12617208
2.07,207,0.006,-0.624,-0.5,25.2674478,21.199446,7.6203414,64.44631584,4.3315624800000005,-44.90271846
2.0799999999999996,208,0.059,-0.634,-0.501,22.345362,23.032911600000002,10.1986524,64.69268778,4.3315624800000005,-44.64488736
2.09,209,0.104,-0.639,-0.525,19.3659804,23.032911600000002,13.120738199999998,64.90468224,4.30864416,-44.38132668
2.0999999999999996,210,0.14,-0.627,-0.5489999999999999,17.18874,22.91832,15.813640800000002,65.06511048,4.2685371,-44.10630684
2.11,211,0.151,-0.604,-0.555,15.3552744,22.1161788,17.589810600000003,65.24272746,4.19978214,-43.82555742
2.1199999999999997,212,0.135,-0.575,-0.55,13.6936962,21.199446,18.048177,65.39742612,4.11956802,-43.56199674
2.13,213,0.114,-0.5579999999999999,-0.551,10.6570188,22.0015872,16.386598799999998,65.52347688,4.05654264,-43.2869769
2.1399999999999997,214,0.095,-0.545,-0.529,7.906820400000001,23.3193906,13.2926256,65.62087973999999,4.02789474,-43.02341622
2.15,215,0.092,-0.534,-0.487,6.2452422,23.204799,9.8548776,65.67244595999999,4.02789474,-42.77131470000001
2.1599999999999997,216,0.103,-0.52,-0.447,3.724227,22.4026578,6.8182002000000015,65.72401218,4.05654264,-42.53640192
2.17,217,0.128,-0.5,-0.416,0.4010706,20.05353,4.5263682,65.73547134,4.09092012,-42.33586662
2.1799999999999997,218,0.156,-0.469,-0.384,-2.6356068,16.1001198,3.2658606,65.71828260000001,4.11956802,-42.17543838
2.19,219,0.185,-0.436,-0.34,-5.5576926,11.0580894,3.0939732,65.67244595999999,4.13675676,-42.06084678000001
2.1999999999999997,220,0.2,-0.393,-0.315,-9.5111028,4.2398892,4.1252976000000015,65.56358394,4.1252976000000015,-42.00355098
2.21,221,0.182,-0.341,-0.31,-13.980175199999998,-4.3544808,6.3025379999999975,65.42034444,4.05081306,-42.01501014
2.2199999999999998,222,0.14400000000000002,-0.304,-0.284,-15.3552744,-11.1153852,8.9954406,65.25991619999999,3.9247623,-42.0837651
2.23,223,0.117,-0.267,-0.241,-15.469866,-14.2093584,11.745639,65.09948796,3.75860448,-42.16397922
2.2399999999999998,224,0.07400000000000001,-0.241,-0.208,-17.303331600000003,-16.2147114,14.037471,64.92187098,3.56952834,-42.255652500000004
2.25,225,0.029,-0.23,-0.175,-16.7303736,-19.595163600000006,15.6417534,64.744254,3.34607472,-42.3702441
2.26,226,-0.015,-0.199,-0.122,-13.349921400000001,-23.4339822,15.813640800000002,64.60101449999999,3.1054323600000004,-42.5134836
2.27,227,-0.068,-0.191,-0.051,-11.1153852,-25.55392680000001,15.126091199999998,64.48642290000001,2.87051958,-42.685371
2.28,228,-0.125,-0.16,-0.014,-9.969469199999999,-26.5852512,13.6936962,64.37756088,2.6356068,-42.86871756
2.29,229,-0.134,-0.118,-0.01,-6.3025379999999975,-26.642547,10.255948199999999,64.30880592,2.4350715000000003,-43.06352328
2.3,230,-0.122,-0.071,-0.051,-8.307891,-22.5745452,7.2765666,64.21713264,2.26891368,-43.24114026
2.31,231,-0.08800000000000001,-0.034,-0.11,-6.4744254,-16.042824000000003,3.7815227999999994,64.14837768,2.1657812400000003,-43.3729206
2.32,232,-0.03,-0.056,-0.16899999999999998,-3.151269,-8.5370742,0.9167328,64.11400019999999,2.1199446,-43.44740514
2.3299999999999996,233,0.043,-0.223,-0.615,-13.6936962,-6.9327918,0.6875496,63.97076069999999,2.08556712,-43.50470094
2.34,234,-0.02,-0.327,-1.078,-44.690724,-31.340802600000004,1.3178034,63.5123943,1.94232762,-43.78545036000001
2.3499999999999996,235,0.18600000000000005,-0.328,-0.92,-40.10706,-15.0687954,-5.3285094000000015,63.00246168,1.95378678,-43.95160818
2.36,236,0.277,-0.4,-0.589,-25.210152,-11.8029348,-11.229976800000001,62.74463058,1.99962342,-44.10630684
2.3699999999999997,237,0.179,-0.504,-0.175,-6.875496000000001,-25.6685184,-10.7716104,62.66441646,1.98243468,-44.38705626
2.38,238,-0.017,-0.537,-0.208,-14.8396122,-24.2934192,-5.3858052,62.5097178,1.92513888,-44.62769862
2.3899999999999997,239,-0.083,-0.493,-0.315,-27.3873924,-20.626488,-3.0939732,62.22896838000001,1.8621135,-44.82823392
2.4,240,-0.139,-0.539,-0.371,-19.8816426,-21.3140376,-0.057295800000000015,62.01124434000001,1.74179232,-45.02876922
2.4099999999999997,241,-0.162,-0.644,-0.409,-3.9534102,-17.7044022,1.145916,61.96540769999999,1.6558486199999998,-45.1777383
2.42,242,-0.158,-0.65,-0.284,11.0007936,-14.0947668,0.8594370000000001,62.07999930000001,1.5870936600000003,-45.29805948
2.4299999999999997,243,-0.135,-0.593,-0.25,25.3820394,-4.5263682,-2.9793816000000004,62.33210082,1.59282324,-45.349625700000004
2.44,244,-0.049,-0.5720000000000001,-0.313,44.2323576,9.8548776,-9.8548776,62.78473764,1.73033316,-45.30378906
2.4499999999999997,245,0.031,-0.601,-0.349,60.2751816,13.2353298,-14.32395,63.39207312,1.9194093000000003,-45.24649326
2.46,246,0.041,-0.623,-0.389,67.0933818,11.516455800000001,-14.495837400000001,64.07389314,2.10848544,-45.2063862
2.4699999999999998,247,0.096,-0.667,-0.605,69.38521379999999,11.45916,-11.745639,64.77863147999999,2.26891368,-45.14336082
2.48,248,0.241,-0.907,-0.962,69.4425096,9.9121734,-6.9327918,65.48336982,2.3777757,-45.08033544
2.4899999999999998,249,0.433,-1.508,-0.935,81.932994,2.86479,-2.9793816000000004,66.31415892,2.42361234,-45.05741712
2.5,250,0.354,-2.675,-0.609,132.5824812,-4.7555514,8.5370742,67.66061022,2.34339822,-45.05741712
2.51,251,0.18600000000000005,-3.4760000000000004,-0.43,101.127087,-11.6310474,16.329303,68.68620503999999,2.1657812400000003,-45.10325376
2.52,252,-0.046,-3.397,-0.542,57.6968706,-24.1788276,12.891555,69.2706222,1.97097552,-45.27514116
2.53,253,-0.151,-3.14,-0.5429999999999999,68.6976642,-13.750992000000002,7.7349330000000025,69.96963095999999,1.86784308,-45.37254402
2.54,254,-0.234,-2.713,-0.6940000000000001,67.26526919999999,7.9641161999999985,4.7555514,70.65145097999998,1.85065434,-45.27514116
2.55,255,-0.226,-2.619,-0.8290000000000001,78.95361240000003,18.9649098,-2.6356068,71.45932176,1.94232762,-45.09752418000001
2.56,256,-0.024,-2.694,-0.687,78.5525418,17.7044022,-10.1413566,72.25573338000002,2.09702628,-44.95428468
2.57,257,0.184,-2.404,-0.335,46.29500640000001,16.329303,-8.8235532,72.73128852,2.22880662,-44.82250434
2.5799999999999996,258,0.239,-2.0,-0.223,22.631841,22.345362,-4.6409598,72.9662013,2.3376686399999995,-44.62196904
2.59,259,0.194,-1.884,-0.224,35.809875,27.2728008,-1.7761698,73.33862400000002,2.42934192,-44.36413794
2.5999999999999996,260,0.108,-1.7,-0.229,41.6540466,16.501190400000002,11.688343199999998,73.76834249999997,2.36631654,-44.16933222
2.61,261,0.093,-1.533,-0.15,45.0344988,-1.0313244,23.204799,74.2267089,2.14286292,-44.11203642
2.6199999999999997,262,0.11,-1.435,-0.021,52.3110654,-6.990087599999999,20.3973048,74.75955984,1.93659804,-44.117766
2.63,263,0.109,-1.264,0.062,57.00932099999999,-6.5317212,10.1413566,75.33824741999999,1.8334656000000005,-44.15214348
2.6399999999999997,264,0.07200000000000001,-1.064,0.085,59.186561399999995,-4.2398892,3.5523396000000003,75.93985332,1.7933585399999998,-44.18079138
2.65,265,0.051,-0.937,0.179,60.6189564,-2.5210152000000003,3.2085648,76.60448459999998,1.77044022,-44.18652096
2.6599999999999997,266,0.056,-0.847,0.267,54.029939399999996,-1.5469866,5.72958,77.15452428,1.71314442,-44.18652096
2.67,267,0.075,-0.773,0.21,42.91455420000001,-0.5156622000000001,7.7349330000000025,77.58997236,1.64438946,-44.16933222
2.6799999999999997,268,0.075,-0.715,0.059,34.4920716,-0.9167328,7.3911582,77.93947674,1.56990492,-44.16360264
2.69,269,0.067,-0.5720000000000001,-0.006,32.8877892,-4.297185,5.2139178,78.27179238,1.5183387000000002,-44.19225054
2.6999999999999997,270,0.057,-0.369,-0.015,33.804522,-7.8495246,3.8388186,78.61556718,1.47250206,-44.25527592
2.71,271,0.054000000000000006,-0.232,-0.013,36.1536498,-10.1986524,5.72958,78.98226030000002,1.4037471,-44.34121962
2.7199999999999998,272,0.041,-0.123,-0.018000000000000002,34.262888399999994,-10.8289062,8.021412000000002,79.33176468,1.31207382,-44.42716332
2.73,273,0.034,-0.057,-0.037000000000000005,28.8770832,-8.5370742,9.3392154,79.62397326,1.20894138,-44.4901887
2.7399999999999998,274,0.013,-0.091,-0.041,30.5959572,-5.9014674000000005,8.078707799999998,79.93910016,1.12299768,-44.53029576
2.75,275,-0.004,-0.193,-0.011,39.820581,-3.6096354,5.443101,80.34590034,1.07143146,-44.55321408
2.76,276,-0.01,-0.399,-0.001,44.06047020000001,-2.1772404,3.5523396000000003,80.79280758000002,1.03705398,-44.56467324
2.77,277,-0.005,-0.624,-0.04,37.757932200000006,-1.7188740000000002,2.4637194,81.17668943999998,1.01413566,-44.5761324
2.78,278,-0.008,-0.82,-0.087,29.5646328,-1.9480572,1.8907613999999997,81.47462759999998,0.9969469199999998,-44.58759156
2.79,279,-0.001,-0.949,-0.113,26.9863218,-2.9220857999999996,1.5469866,81.74964744,0.97975818,-44.61623946
2.8,280,0.006,-1.051,-0.127,29.8511118,-4.4690724,1.2032118,82.05331518,0.96256944,-44.65634652
2.81,281,0.021,-1.119,-0.142,32.544014399999995,-5.9014674000000005,0.6302538000000001,82.37990124000002,0.95683986,-44.70791274
2.82,282,0.042,-1.165,-0.171,29.392745399999995,-5.72958,0.286479,82.67783940000002,0.9453806999999999,-44.75947896
2.8299999999999996,283,0.063,-1.138,-0.199,23.8923486,-5.958763200000001,-2.2345362,82.92421134,0.96829902,-44.82250434
2.84,284,0.051,-1.095,-0.204,26.814434400000003,-4.6409598,-3.9534102,83.19350159999998,1.0026765,-44.868340980000006
2.8499999999999996,285,0.042,-1.117,-0.18,28.7051958,-4.297185,-3.3231564,83.47425102000003,1.03705398,-44.91417762
2.86,286,0.047,-1.179,-0.165,27.444688199999998,-5.7868758000000025,-2.4637194,83.75500044,1.0599723,-44.96574384
2.8699999999999997,287,-0.018000000000000002,-1.252,-0.11,38.2162986,-5.3858052,-0.286479,84.13888229999998,1.06570188,-45.01731006
2.88,288,-0.047,-1.436,-0.07400000000000001,52.712136,-2.0626488000000003,0.3437748,84.67746281999997,1.06570188,-45.0344988
2.8899999999999997,289,-0.087,-1.495,-0.07,59.58763199999999,-1.6042823999999998,0.0,85.27906872,1.06570188,-45.04022838
2.9,290,-0.092,-1.822,0.009000000000000001,55.86340500000001,-0.11459160000000004,-1.432395,85.84629714,1.0886202,-45.04022838
2.9099999999999997,291,-0.093,-1.492,-0.025,31.4553942,1.8334656000000005,-3.8388186,86.16715362,1.12872726,-45.02303963999999
2.92,292,-0.04,-1.467,-0.009000000000000001,66.86419860000001,4.6409598,-3.0366774,86.84897364,1.1688343199999998,-44.97147342
2.9299999999999997,293,0.006999999999999999,-1.237,-0.002,51.3943326,6.016058999999999,0.0,87.37036542000001,1.1745638999999999,-44.90271846
2.94,294,0.017,-1.134,-0.008,50.5921914,8.136003599999999,1.9480572,87.88602762000002,1.1573751600000002,-44.81677476
2.9499999999999997,295,0.028,-1.099,-0.014,49.3316838,9.969469199999999,3.9534102,88.38450107999998,1.12299768,-44.70791274
2.96,296,0.027000000000000003,-1.083,0.003,42.8572584,9.6256944,6.1879464,88.81994916,1.06570188,-44.61050988
2.9699999999999998,297,0.028,-1.0759999999999998,0.016,31.22621100000001,9.224623800000002,6.875496000000001,89.14080564,1.0026765,-44.51310702
2.98,298,0.041,-1.135,0.035,19.0795014,7.2765666,7.2192707999999985,89.33561136,0.92819196,-44.43862248000001
2.9899999999999998,299,0.038,-1.127,0.036000000000000004,-10.6570188,4.6982556,6.760904399999999,89.22674934,0.8594370000000001,-44.39278584
3.0,300,0.017,-0.7859999999999999,-0.068,-2.291832,3.724227,4.9274388,89.1809127,0.8078707799999998,-44.35840836
3.01,301,0.034,-0.89,-0.028,32.372127,3.380452200000001,3.380452200000001,89.51322834,0.7792228800000001,-44.3183013
3.02,302,0.015,-1.015,0.055,8.651665800000002,1.7188740000000002,2.6356068,89.59917204,0.75057498,-44.30111256
3.03,303,0.031,-1.075,0.08800000000000001,-5.5003968,3.724227,2.4637194,89.54187624,0.72765666,-44.261005499999996
3.04,304,0.006999999999999999,-0.807,0.002,-23.032911600000002,3.9534102,3.151269,89.31269304,0.69327918,-44.22662802000001
3.05,305,0.011,-0.812,-0.001,15.2406828,3.6669312000000014,2.86479,89.47312128,0.66463128,-44.18652096
3.06,306,0.029,-0.951,0.075,-4.8701430000000006,2.6356068,2.7501984,89.42155505999996,0.63598338,-44.15787306
3.07,307,0.022,-0.905,0.06,-28.5906042,2.9220857999999996,3.2085648,89.12934648,0.6016058999999999,-44.13495474
3.08,308,0.015,-0.835,0.01,-10.6570188,2.8074942000000003,2.2345362,89.02048446,0.5786875800000001,-44.10630684
3.09,309,0.021,-0.943,0.033,-5.9014674000000005,2.9220857999999996,1.4896908000000002,88.96318865999999,0.56149884,-44.07765894
3.0999999999999996,310,0.028,-0.986,0.044,-10.6570188,2.7501984,0.7448454000000001,88.87724496000001,0.56722842,-44.04901104
3.11,311,0.03,-0.994,0.05,-12.261301199999998,2.7501984,0.4583664000000001,88.7511942,0.56149884,-44.02036314
3.1199999999999997,312,0.026,-0.993,0.034,-13.5791046,3.151269,0.3437748,88.61368428,0.55576926,-43.99171524000001
3.13,313,0.025,-1.01,0.022,-15.183387000000002,3.8961144,0.11459160000000004,88.45898561999998,0.55576926,-43.95160818
3.1399999999999997,314,0.036000000000000004,-1.022,0.026,-15.4125702,3.4377480000000005,0.057295800000000015,88.30428696,0.55576926,-43.92296028
3.15,315,0.051,-1.054,0.052000000000000005,-20.798375399999998,0.9167328,0.1718874,88.10948124000002,0.56149884,-43.91150112
3.1599999999999997,316,0.027000000000000003,-1.016,0.029,-23.835052800000003,0.11459160000000004,1.432395,87.86883888,0.5443101,-43.91150112
3.17,317,0.011,-1.007,-0.006999999999999999,-19.595163600000006,-0.2291832000000001,2.9220857999999996,87.66830358,0.5156622000000001,-43.91150112
3.1799999999999997,318,0.01,-1.016,-0.037000000000000005,-14.2093584,-0.6302538000000001,3.4950437999999995,87.52506408,0.48128472,-43.92296028
3.19,319,0.019,-1.069,-0.043,-13.8082878,-0.8021411999999999,3.0939732,87.38182458,0.44690724,-43.92868986
3.1999999999999997,320,0.022,-1.156,-0.029,-22.5745452,-1.9480572,1.7188740000000002,87.15837096,0.4297185000000001,-43.95160818
3.21,321,-0.023,-1.125,-0.042,-34.3201842,0.1718874,1.0886202,86.80886658,0.41252976,-43.95160818
3.2199999999999998,322,-0.035,-1.099,-0.076,-32.7731976,2.8074942000000003,0.4010706,86.47655094000002,0.40680018,-43.92868986
3.23,323,-0.033,-0.976,-0.116,-38.0444112,3.8388186,-0.3437748,86.0869395,0.41252976,-43.89431238
3.2399999999999998,324,-0.024,-0.97,-0.108,-14.610429000000002,3.4377480000000005,-0.9167328,85.93797042,0.41825934,-43.8599349
3.25,325,-0.003,-1.037,-0.085,-21.5432208,2.4637194,-1.3178034,85.70878722,0.43544808,-43.84274616
3.26,326,0.025,-0.95,-0.104,-25.0955604,0.4583664000000001,-1.8334656000000005,85.45668570000002,0.44690724,-43.83701658
3.27,327,0.027000000000000003,-0.952,-0.105,-15.813640800000002,-2.4637194,-1.9480572,85.29625746,0.46409598,-43.86566448
3.28,328,0.027000000000000003,-0.972,-0.09,-6.3025379999999975,-4.8128472,-1.7761698,85.23323208,0.48128472,-43.91723070000001
3.29,329,0.017,-1.022,-0.078,-14.0947668,-5.5576926,-1.6042823999999998,85.08999258,0.49274388,-43.9745265
3.3,330,0.012,-1.011,-0.083,-16.272007199999994,-6.130650599999999,-1.7761698,84.91810518,0.5042030399999999,-44.03755188
3.31,331,0.002,-1.01,-0.08199999999999999,-12.261301199999998,-5.2139178,-1.9480572,84.79205442,0.52139178,-44.09484768
3.32,332,-0.003,-1.008,-0.087,-11.8602306,-3.0939732,-2.4637194,84.67173324000002,0.5443101,-44.12922516
3.33,333,-0.01,-0.998,-0.097,-13.2926256,-0.1718874,-2.578311,84.53422332,0.56722842,-44.13495474
3.34,334,-0.002,-0.992,-0.103,-13.349921400000001,2.2345362,-2.1772404,84.40244298,0.59014674,-44.117766
3.3499999999999996,335,0.0,-0.987,-0.105,-13.980175199999998,2.7501984,-1.7761698,84.24201474,0.6073354799999999,-44.09484768
3.36,336,0.006,-0.99,-0.114,-14.4385416,2.2345362,-1.145916,84.09877524000002,0.61879464,-44.07192936
3.3699999999999997,337,0.015,-0.986,-0.123,-14.7823164,1.145916,-0.2291832000000001,83.94407658,0.61879464,-44.06047020000001
3.38,338,0.022,-0.986,-0.135,-15.0114996,-0.1718874,0.2291832000000001,83.7951075,0.61306506,-44.06619978
3.3899999999999997,339,0.026,-0.993,-0.142,-15.0687954,-2.1199446,0.3437748,83.64040884,0.6073354799999999,-44.08911810000001
3.4,340,0.029,-0.999,-0.14400000000000002,-14.610429000000002,-3.6669312000000014,-0.057295800000000015,83.46852143999998,0.61306506,-44.12349558
3.4099999999999997,341,0.024,-1.005,-0.151,-14.5531332,-4.297185,-0.8021411999999999,83.31955236,0.61879464,-44.16933222
3.42,342,0.016,-1.009,-0.152,-14.7250206,-4.0680017999999984,-1.5469866,83.17058328,0.6302538000000001,-44.21516886
3.4299999999999997,343,0.005,-1.006,-0.14400000000000002,-14.2093584,-3.3231564,-2.0626488000000003,83.02734378,0.64171296,-44.24954634
3.44,344,-0.001,-1.003,-0.14,-13.980175199999998,-2.0053530000000004,-2.4637194,82.88410428,0.66463128,-44.27246466
3.4499999999999997,345,-0.005,-0.998,-0.14,-13.8655836,-0.6302538000000001,-2.291832,82.72367604,0.68182002,-44.28965340000001
3.46,346,-0.005,-0.995,-0.138,-13.349921400000001,0.5156622000000001,-1.9480572,82.58616612,0.69900876,-44.28392382
3.4699999999999998,347,0.0,-0.998,-0.135,-12.7196676,1.6615782,-1.2032118,82.46011536,0.7104679199999999,-44.27246466
3.48,348,0.005,-0.999,-0.132,-12.3758928,2.291832,-0.572958,82.33406459999998,0.7161975,-44.24954634
3.4899999999999998,349,0.01,-1.001,-0.132,-11.5737516,2.86479,0.057295800000000015,82.21374342,0.72192708,-44.22662802000001
3.5,350,0.016,-0.996,-0.131,-10.886202,3.2658606,0.4010706,82.09342224,0.72192708,-44.19225054
3.51,351,0.023,-0.99,-0.126,-10.4851314,2.9220857999999996,0.572958,81.9902898,0.72192708,-44.16360264
3.52,352,0.028,-0.983,-0.122,-10.4278356,2.291832,0.4010706,81.88142778,0.7161975,-44.14068432
3.53,353,0.029,-0.977,-0.123,-10.1413566,1.6615782,0.057295800000000015,81.77829534,0.7161975,-44.12349558
3.54,354,0.027000000000000003,-0.972,-0.127,-9.6829902,1.0313244,-0.057295800000000015,81.68089248,0.7161975,-44.117766
3.55,355,0.026,-0.974,-0.13,-8.8235532,0.6302538000000001,-0.286479,81.58348962,0.7391158200000001,-44.10630684
3.56,356,0.024,-0.981,-0.131,-8.250595200000001,0.4010706,-0.5156622000000001,81.49754592000002,0.7391158200000001,-44.10630684
3.57,357,0.024,-0.987,-0.133,-7.7349330000000025,0.0,-0.7448454000000001,81.4173318,0.75057498,-44.10630684
3.58,358,0.025,-0.993,-0.14,-7.161975,-0.057295800000000015,-0.9167328,81.34857683999998,0.75630456,-44.11203642
3.59,359,0.026,-1.0,-0.145,-6.6463128000000005,-0.8594370000000001,-1.145916,81.27982188,0.76776372,-44.12349558
3.5999999999999996,360,0.026,-1.001,-0.146,-6.6463128000000005,-2.0053530000000004,-1.432395,81.19960776,0.7906820400000001,-44.14068432
3.61,361,0.026,-0.999,-0.151,-6.760904399999999,-2.9793816000000004,-1.7761698,81.1308528,0.8078707799999998,-44.175061799999995
3.6199999999999997,362,0.028,-1.0,-0.157,-6.9327918,-3.3231564,-2.0053530000000004,81.05636826,0.8193299399999999,-44.20943928000001
3.63,363,0.028,-1.003,-0.157,-7.2765666,-4.010706000000001,-2.0053530000000004,80.98188372,0.83651868,-44.25527592
3.6399999999999997,364,0.03,-1.001,-0.16,-7.6203414,-4.8701430000000006,-1.8334656000000005,80.90739918,0.8479778399999999,-44.30684214
3.65,365,0.031,-0.998,-0.166,-7.906820400000001,-6.130650599999999,-1.5469866,80.80999632,0.86516658,-44.36986752
3.6599999999999997,366,0.031,-0.993,-0.171,-8.3651868,-7.0473834,-1.3750992,80.72405262,0.86516658,-44.43862248000001
3.67,367,0.026,-0.989,-0.17600000000000002,-8.307891,-7.6203414,-1.2032118,80.63810892000002,0.86516658,-44.51883660000001
3.6799999999999997,368,0.022,-0.993,-0.179,-8.136003599999999,-7.7922288,-0.9740286,80.55789480000001,0.86516658,-44.59905072
3.69,369,0.016,-0.992,-0.182,-8.021412000000002,-7.6776372,-0.8594370000000001,80.4719511,0.86516658,-44.67353526
3.6999999999999997,370,0.009000000000000001,-0.989,-0.181,-7.5630456000000015,-7.2765666,-0.7448454000000001,80.38027782,0.8594370000000001,-44.748019799999994
3.71,371,0.003,-0.988,-0.177,-7.333862400000001,-6.703608600000001,-0.7448454000000001,80.3000637,0.8537074199999999,-44.81677476
3.7199999999999998,372,0.002,-0.983,-0.17600000000000002,-7.2765666,-5.7868758000000025,-0.8021411999999999,80.22557916000002,0.8537074199999999,-44.87407056
3.73,373,0.0,-0.98,-0.174,-7.161975,-5.042030400000002,-1.0886202,80.1568242,0.8594370000000001,-44.92563678000001
3.7399999999999998,374,0.001,-0.976,-0.174,-7.3911582,-3.8961144,-1.0886202,80.08233966,0.86516658,-44.97147342
3.75,375,0.003,-0.974,-0.17800000000000002,-7.0473834,-3.0939732,-1.2605076000000002,79.9849368,0.86516658,-45.0058509
3.76,376,0.006999999999999999,-0.975,-0.182,-6.760904399999999,-2.4637194,-1.3750992,79.91618184000002,0.87662574,-45.0344988
3.77,377,0.008,-0.974,-0.18600000000000005,-6.760904399999999,-2.1772404,-1.432395,79.84742688,0.8823553199999999,-45.05741712
3.78,378,0.008,-0.972,-0.188,-5.844171599999999,-1.8334656000000005,-1.432395,79.7844015,0.89381448,-45.08033544
3.79,379,0.011,-0.97,-0.189,-5.042030400000002,-1.2032118,-1.3750992,79.73283528,0.90527364,-45.0917946
3.8,380,0.015,-0.969,-0.193,-4.297185,-0.7448454000000001,-1.3750992,79.63543242,0.92246238,-45.10325376
3.81,381,0.019,-0.969,-0.195,-3.6096354,-0.2291832000000001,-1.2605076000000002,79.60105494000003,0.93392154,-45.10898334
3.82,382,0.022,-0.969,-0.192,-3.0939732,0.0,-1.0886202,79.56667746000002,0.9453806999999999,-45.10898334
3.83,383,0.021,-0.969,-0.193,-2.6356068,-0.2291832000000001,-0.9167328,79.54375913999998,0.95683986,-45.11471292
3.84,384,0.019,-0.97,-0.191,-1.8334656000000005,-0.572958,-0.8021411999999999,79.52084082,0.96256944,-45.12617208
3.8499999999999996,385,0.016,-0.974,-0.185,-1.3750992,-0.9167328,-0.8021411999999999,79.44635628,0.9740286,-45.13763124000001
3.86,386,0.014,-0.977,-0.181,-1.145916,-1.3178034,-1.0313244,79.43489712,0.98548776,-45.1490904
3.8699999999999997,387,0.01,-0.98,-0.18,-1.3750992,-1.2032118,-1.145916,79.41770838,0.9912173399999998,-45.16627914
3.88,388,0.011,-0.984,-0.187,-1.432395,-0.6875496,-1.2605076000000002,79.40624921999998,1.0026765,-45.17200872
3.8899999999999997,389,0.013,-0.984,-0.188,-1.2605076000000002,-0.8594370000000001,-1.432395,79.38906048,1.01413566,-45.18346788
3.9,390,0.014,-0.982,-0.189,-0.9740286,-0.9740286,-1.3750992,79.30311678,1.0313244,-45.20065662
3.9099999999999997,391,0.014,-0.981,-0.188,-0.5156622000000001,-0.8594370000000001,-1.3750992,79.2973872,1.04278356,-45.21211578
3.92,392,0.015,-0.98,-0.187,-0.5156622000000001,-0.5156622000000001,-1.3750992,79.29165762,1.0599723,-45.21784536
3.9299999999999997,393,0.019,-0.981,-0.187,-0.3437748,0.2291832000000001,-1.432395,79.29165762,1.07143146,-45.21784536
3.94,394,0.022,-0.982,-0.189,-0.286479,0.6875496,-1.3178034,79.28592804,1.0886202,-45.21211578
3.9499999999999997,395,0.024,-0.983,-0.19,-0.1718874,1.0886202,-1.2605076000000002,79.19425475999998,1.12872726,-45.20065662
3.96,396,0.028,-0.987,-0.189,0.11459160000000004,1.2605076000000002,-1.145916,79.19998434,1.1459160000000002,-45.18919746
3.9699999999999998,397,0.032,-0.99,-0.187,0.6875496,1.0313244,-0.8594370000000001,79.20571392,1.1573751600000002,-45.18346788
3.98,398,0.034,-0.991,-0.18600000000000005,0.8021411999999999,0.8021411999999999,-0.572958,79.21717308,1.16310474,-45.17200872
3.9899999999999998,399,0.032,-0.99,-0.18600000000000005,0.9167328,0.5156622000000001,-0.3437748,79.22290266,1.1688343199999998,-45.17200872
4.0,400,0.03,-0.987,-0.184,1.145916,0.2291832000000001,-0.2291832000000001,79.14268854000002,1.23758928,-45.15481998
4.01,401,0.028,-0.984,-0.183,1.2032118,-0.1718874,-0.11459160000000004,79.15414770000002,1.23758928,-45.15481998
4.02,402,0.028,-0.982,-0.184,1.3178034,-0.1718874,-0.11459160000000004,79.16560686,1.23758928,-45.16054956
4.03,403,0.027000000000000003,-0.981,-0.18600000000000005,1.7188740000000002,-0.11459160000000004,-0.2291832000000001,79.18279559999998,1.23758928,-45.16054956
4.04,404,0.029,-0.981,-0.188,1.9480572,-0.11459160000000004,-0.4010706,79.20571392,1.24331886,-45.16054956
4.05,405,0.027000000000000003,-0.981,-0.191,2.578311,-0.4010706,-0.4583664000000001,79.17706602000001,1.26623718,-45.16627914
4.06,406,0.03,-0.98,-0.194,3.4377480000000005,-0.7448454000000001,-0.4583664000000001,79.2114435,1.27196676,-45.17200872
4.07,407,0.029,-0.979,-0.195,4.0680017999999984,-0.7448454000000001,-0.5156622000000001,79.25728014,1.27769634,-45.18346788
4.08,408,0.032,-0.978,-0.195,4.8128472,-0.7448454000000001,-0.4010706,79.30311678,1.27769634,-45.18919746
4.09,409,0.035,-0.979,-0.187,5.5576926,-0.9167328,-0.2291832000000001,79.36041258,1.27769634,-45.20065662
4.1,410,0.035,-0.983,-0.17800000000000002,5.3858052,-1.3178034,0.057295800000000015,79.40051964,1.29488508,-45.2063862
4.109999999999999,411,0.035,-0.985,-0.163,5.5003968,-1.7188740000000002,0.1718874,79.45781544,1.2891555000000001,-45.22357494
4.12,412,0.032,-0.989,-0.152,4.9847345999999995,-2.0053530000000004,0.11459160000000004,79.50938166,1.2891555000000001,-45.24076368
4.13,413,0.027000000000000003,-0.992,-0.157,3.6669312000000014,-2.0626488000000003,0.2291832000000001,79.54375913999998,1.28342592,-45.263682
4.14,414,0.022,-0.997,-0.159,2.86479,-2.1772404,0.1718874,79.57240704,1.27769634,-45.28087074
4.1499999999999995,415,0.017,-1.003,-0.157,2.0053530000000004,-2.0626488000000003,0.2291832000000001,79.59532535999998,1.27196676,-45.30378906
4.16,416,0.015,-1.006,-0.159,1.3178034,-1.5469866,0.286479,79.6125141,1.26623718,-45.31524822
4.17,417,0.014,-1.009,-0.163,0.8594370000000001,-0.9740286,0.2291832000000001,79.61824368,1.2605076000000002,-45.32670738
4.18,418,0.014,-1.008,-0.166,0.572958,-0.4583664000000001,0.057295800000000015,79.62397326,1.2605076000000002,-45.33243696
4.1899999999999995,419,0.017,-1.006,-0.16699999999999998,0.3437748,-0.057295800000000015,-0.057295800000000015,79.62970284,1.2605076000000002,-45.33243696
4.2,420,0.021,-1.001,-0.165,0.057295800000000015,-0.057295800000000015,-0.1718874,79.5265704,1.31207382,-45.32670738
4.21,421,0.024,-0.997,-0.163,-0.2291832000000001,-0.4010706,-0.286479,79.5265704,1.31207382,-45.32670738
4.22,422,0.025,-0.998,-0.16,-0.3437748,-0.9167328,-0.2291832000000001,79.52084082,1.3178034,-45.33816654
4.2299999999999995,423,0.026,-0.998,-0.16,-0.4583664000000001,-1.3750992,-0.057295800000000015,79.51511124,1.31207382,-45.35535528000001
4.24,424,0.025,-0.999,-0.159,-0.286479,-1.7188740000000002,0.0,79.50938166,1.31207382,-45.37254402
4.25,425,0.025,-1.002,-0.156,-0.4583664000000001,-1.7188740000000002,0.11459160000000004,79.51511124,1.32926256,-45.3782736
4.26,426,0.022,-1.005,-0.155,-0.4583664000000001,-1.7188740000000002,0.3437748,79.50938166,1.3178034,-45.39546234
4.27,427,0.018000000000000002,-1.005,-0.153,-0.572958,-1.4896908000000002,0.286479,79.50365208,1.31207382,-45.41265108
4.28,428,0.016,-1.004,-0.153,-0.8021411999999999,-0.8594370000000001,0.2291832000000001,79.4979225,1.31207382,-45.41838066
4.29,429,0.016,-1.001,-0.154,-0.9740286,-0.4010706,0.11459160000000004,79.48646334,1.30634424,-45.42411024
4.3,430,0.018000000000000002,-0.996,-0.156,-1.3178034,-0.4010706,0.057295800000000015,79.48073375999998,1.30634424,-45.42983982
4.31,431,0.019,-0.991,-0.157,-1.3178034,-0.4583664000000001,0.0,79.46927459999998,1.30061466,-45.4355694
4.32,432,0.021,-0.987,-0.159,-1.3750992,-0.5156622000000001,0.0,79.45781544,1.30061466,-45.44129898
4.33,433,0.024,-0.988,-0.162,-1.432395,-0.4010706,0.057295800000000015,79.4406267,1.30061466,-45.44129898
4.34,434,0.025,-0.989,-0.161,-1.432395,-0.4583664000000001,0.11459160000000004,79.42343796,1.30061466,-45.44702856
4.35,435,0.027000000000000003,-0.991,-0.163,-1.3750992,-0.7448454000000001,0.2291832000000001,79.40051964,1.3178034,-45.45275814
4.36,436,0.027000000000000003,-0.992,-0.168,-1.2605076000000002,-0.9740286,0.057295800000000015,79.3833309,1.31207382,-45.45848772
4.37,437,0.027000000000000003,-0.992,-0.171,-1.432395,-1.2032118,0.0,79.37187173999997,1.31207382,-45.47567646
4.38,438,0.028,-0.995,-0.172,-1.3750992,-1.3750992,-0.11459160000000004,79.354683,1.31207382,-45.48713562
4.39,439,0.025,-0.995,-0.175,-1.432395,-1.3750992,0.0,79.34322384000002,1.30634424,-45.50432436
4.3999999999999995,440,0.024,-0.997,-0.174,-1.432395,-1.0886202,0.057295800000000015,79.2973872,1.3178034,-45.51005394
4.41,441,0.022,-0.995,-0.17600000000000002,-1.4896908000000002,-0.9740286,0.2291832000000001,79.28019846,1.31207382,-45.52151310000001
4.42,442,0.019,-0.992,-0.17800000000000002,-1.6042823999999998,-1.0313244,0.286479,79.26873930000002,1.31207382,-45.53297226
4.43,443,0.018000000000000002,-0.988,-0.18,-1.8334656000000005,-0.9740286,0.286479,79.24582097999998,1.30634424,-45.53870184
4.4399999999999995,444,0.018000000000000002,-0.985,-0.181,-1.8334656000000005,-0.9740286,0.286479,79.22863224,1.30061466,-45.550161
4.45,445,0.02,-0.982,-0.185,-1.8334656000000005,-0.8594370000000001,0.286479,79.16560686,1.30061466,-45.55589058
4.46,446,0.021,-0.982,-0.187,-1.7188740000000002,-0.8021411999999999,0.2291832000000001,79.14841812,1.29488508,-45.56734974
4.47,447,0.021,-0.979,-0.188,-1.5469866,-0.8021411999999999,0.2291832000000001,79.13122938000002,1.29488508,-45.57307932
4.4799999999999995,448,0.021,-0.979,-0.185,-1.4896908000000002,-1.0313244,0.2291832000000001,79.11404064,1.2891555000000001,-45.584538480000006
4.49,449,0.019,-0.979,-0.182,-1.432395,-0.8594370000000001,0.286479,79.0968519,1.28342592,-45.59026806
4.5,450,0.02,-0.982,-0.18,-1.6615782,-0.572958,0.3437748,79.05101526000001,1.28342592,-45.59599764
4.51,451,0.021,-0.987,-0.18,-2.0053530000000004,-0.5156622000000001,0.3437748,79.02809694,1.27769634,-45.60172722
4.52,452,0.02,-0.991,-0.179,-2.291832,-0.7448454000000001,0.3437748,79.00517862,1.27196676,-45.6074568
4.53,453,0.02,-0.992,-0.177,-2.4637194,-1.0313244,0.4010706,78.98226030000002,1.26623718,-45.61891596
4.54,454,0.021,-0.992,-0.177,-2.6356068,-1.0886202,0.286479,78.95361240000003,1.26623718,-45.63037512
4.55,455,0.02,-0.993,-0.175,-2.6929026,-0.8021411999999999,0.11459160000000004,78.91923492,1.26623718,-45.6361047
4.56,456,0.019,-0.992,-0.171,-2.86479,-0.5156622000000001,0.11459160000000004,78.89058702,1.2605076000000002,-45.64183428
4.57,457,0.019,-0.991,-0.173,-2.9220857999999996,-0.057295800000000015,0.1718874,78.86193912,1.2605076000000002,-45.64183428
4.58,458,0.021,-0.99,-0.177,-2.86479,0.057295800000000015,0.1718874,78.83329122,1.25477802,-45.64183428
