TimeStamp(s),FrameCounter,AccX,AccY,AccZ,GyrX,GyrY,GyrZ,EulerX,EulerY,EulerZ
0.01,1,0.017,-1.015,-0.006,-0.4010706,3.6669312000000014,-0.3437748,87.19847802,1.35218088,-19.222740899999998
0.02,2,0.018000000000000002,-1.015,-0.006999999999999999,-0.11459160000000004,3.0939732,-0.2291832000000001,87.19847802,1.3579104599999998,-19.194093
0.03,3,0.02,-1.013,-0.006,-0.286479,2.5210152000000003,-0.1718874,87.28442172,1.3750992,-19.17117468
0.04,4,0.024,-1.008,-0.003,-0.6875496,2.4637194,-0.11459160000000004,87.27869214,1.3750992,-19.14825636
0.05,5,0.025,-1.006,-0.003,-0.7448454000000001,2.3491278,0.0,87.27296256,1.38082878,-19.12533804
0.060000000000000005,6,0.025,-1.003,-0.004,-0.6875496,2.2345362,-0.057295800000000015,87.26150340000002,1.38082878,-19.10241972
0.06999999999999999,7,0.022,-1.001,-0.005,-0.6875496,2.291832,-0.1718874,87.25577381999999,1.38082878,-19.0795014
0.08,8,0.021,-1.0,-0.009000000000000001,-0.572958,2.4637194,-0.286479,87.30734004,1.38655836,-19.056583080000006
0.09,9,0.019,-1.002,-0.011,-0.6875496,2.4637194,-0.3437748,87.30161045999998,1.39228794,-19.03366476
0.09999999999999999,10,0.019,-1.003,-0.012,-0.7448454000000001,2.291832,-0.2291832000000001,87.29015129999998,1.39228794,-19.01074644
0.11,11,0.021,-1.005,-0.012,-0.6875496,2.0053530000000004,-0.1718874,87.28442172,1.39801752,-18.98782812
0.12,12,0.024,-1.005,-0.012,-0.4010706,1.6042823999999998,-0.057295800000000015,87.27869214,1.39801752,-18.97636896
0.13,13,0.025,-1.006,-0.012,0.0,0.9740286,0.0,87.41620206,1.4610428999999998,-18.97063938
0.14,14,0.025,-1.006,-0.009000000000000001,0.286479,0.5156622000000001,0.0,87.42193164,1.4610428999999998,-18.9649098
0.15000000000000002,15,0.026,-1.008,-0.008,0.4583664000000001,0.057295800000000015,0.057295800000000015,87.42193164,1.4610428999999998,-18.9649098
0.16,16,0.024,-1.009,-0.006999999999999999,0.4010706,-0.1718874,0.0,87.42766122,1.4610428999999998,-18.9649098
0.17,17,0.023,-1.01,-0.006,0.3437748,-0.3437748,0.0,87.4333908,1.4610428999999998,-18.97063938
0.18000000000000002,18,0.022,-1.009,-0.006,0.286479,-0.6302538000000001,0.0,87.59954862,1.47250206,-18.982098540000006
0.19,19,0.023,-1.009,-0.005,0.11459160000000004,-1.145916,0.057295800000000015,87.6052782,1.47250206,-18.9935577
0.2,20,0.024,-1.01,-0.006,0.0,-1.3178034,0.11459160000000004,87.6052782,1.46677248,-19.00501686
0.21000000000000002,21,0.022,-1.012,-0.008,0.0,-1.2605076000000002,0.1718874,87.6052782,1.46677248,-19.01647602
0.22,22,0.023,-1.013,-0.009000000000000001,0.057295800000000015,-1.3750992,0.286479,87.6052782,1.46677248,-19.02793518
0.23,23,0.023,-1.014,-0.012,0.0,-1.5469866,0.286479,87.63965568,1.47250206,-19.04512392
0.24000000000000002,24,0.025,-1.014,-0.012,0.0,-1.8907613999999997,0.3437748,87.63965568,1.47250206,-19.06804224
0.25,25,0.027000000000000003,-1.012,-0.013,-0.11459160000000004,-2.291832,0.286479,87.63965568,1.46677248,-19.09096056
0.26,26,0.027000000000000003,-1.012,-0.013,-0.5156622000000001,-2.9793816000000004,0.4583664000000001,87.6339261,1.4610428999999998,-19.11960846
0.27,27,0.025,-1.012,-0.015,-0.9167328,-3.6669312000000014,0.572958,87.62246694,1.45531332,-19.15398594
0.28,28,0.021,-1.015,-0.018000000000000002,-0.9167328,-3.8961144,0.6875496,87.61673736,1.44385416,-19.194093
0.29000000000000004,29,0.019,-1.016,-0.02,-0.9740286,-3.8388186,0.6875496,87.6052782,1.43812458,-19.23420006
0.3,30,0.018000000000000002,-1.016,-0.022,-1.0886202,-3.6669312000000014,0.6875496,87.59381904,1.42666542,-19.268577540000006
0.31,31,0.019,-1.015,-0.025,-1.2032118,-3.4377480000000005,0.6875496,87.58235988,1.4209358399999998,-19.30295502
0.32,32,0.022,-1.012,-0.03,-1.3178034,-3.2658606,0.6875496,87.56517113999998,1.41520626,-19.33160292
0.33,33,0.025,-1.01,-0.032,-1.145916,-3.3231564,0.6875496,87.53079366,1.4209358399999998,-19.365980399999998
0.34,34,0.03,-1.011,-0.035,-1.2032118,-3.2085648,0.8594370000000001,87.5193345,1.40947668,-19.40035788
0.35000000000000003,35,0.036000000000000004,-1.014,-0.037000000000000005,-1.3178034,-3.2085648,0.9740286,87.50214575999998,1.4037471,-19.42900578
0.36000000000000004,36,0.042,-1.022,-0.039,-1.432395,-3.4377480000000005,1.0886202,87.49068659999998,1.39228794,-19.46338326
0.37,37,0.047,-1.03,-0.041,-1.9480572,-4.1825934,1.3178034,87.46776828,1.3750992,-19.509219899999998
0.38,38,0.052000000000000005,-1.032,-0.042,-2.4637194,-5.2712136,1.7761698,87.42193164,1.38655836,-19.56078612
0.39,39,0.054000000000000006,-1.031,-0.04,-2.4637194,-6.6463128000000005,2.3491278,87.39901332,1.36364004,-19.6238115
0.4,40,0.051,-1.025,-0.035,-2.291832,-7.7922288,2.86479,87.37036542000001,1.3349921400000002,-19.704025620000003
0.41000000000000003,41,0.045,-1.017,-0.031,-2.2345362,-8.59437,3.2658606,87.3474471,1.30061466,-19.78423974
0.42000000000000004,42,0.034,-1.005,-0.029,-2.4637194,-8.8235532,3.2658606,87.32452878000002,1.26623718,-19.87018344
0.43,43,0.027000000000000003,-0.996,-0.027000000000000003,-3.0939732,-8.8235532,3.0939732,87.29015129999998,1.23758928,-19.96185672
0.44,44,0.024,-0.992,-0.028,-3.2658606,-8.7662574,2.7501984,87.25577381999999,1.20894138,-20.04780042
0.45,45,0.024,-0.988,-0.032,-3.2658606,-8.5370742,2.4637194,87.22139634,1.18029348,-20.12801454
0.46,46,0.025,-0.988,-0.035,-3.151269,-8.4224826,2.1772404,87.18701886,1.1573751600000002,-20.21395824
0.47000000000000003,47,0.031,-0.989,-0.042,-3.0366774,-8.7089616,2.1199446,87.15837096,1.13445684,-20.29990194
0.48000000000000004,48,0.035,-0.99,-0.044,-3.0939732,-9.1100322,2.0626488000000003,87.11253432000002,1.12872726,-20.38584564
0.49,49,0.038,-0.993,-0.042,-3.4377480000000005,-9.5111028,1.8907613999999997,87.07815683999998,1.10580894,-20.4832485
0.5,50,0.036000000000000004,-0.992,-0.04,-3.4950437999999995,-9.740286,1.6042823999999998,87.03804978000002,1.0886202,-20.58065136
0.51,51,0.033,-0.991,-0.042,-2.86479,-10.599723,1.145916,87.00940188,1.07143146,-20.6837838
0.52,52,0.028,-0.992,-0.041,-2.4637194,-11.45916,0.8021411999999999,86.98648356,1.0599723,-20.7983754
0.53,53,0.023,-0.998,-0.038,-2.7501984,-11.9748222,0.3437748,86.95210608,1.0599723,-20.912967000000002
0.54,54,0.02,-1.002,-0.034,-3.4377480000000005,-11.9748222,0.057295800000000015,86.91199902000002,1.05424272,-21.03328818
0.55,55,0.018000000000000002,-1.005,-0.035,-3.4950437999999995,-11.9748222,-0.11459160000000004,86.87762153999998,1.05424272,-21.15360936
0.56,56,0.016,-1.008,-0.038,-3.2658606,-12.3758928,-0.2291832000000001,86.84324405999998,1.05424272,-21.27393054
0.5700000000000001,57,0.013,-1.009,-0.035,-3.0939732,-12.9488508,-0.572958,86.80886658,1.05424272,-21.40571088
0.5800000000000001,58,0.01,-1.006,-0.028,-3.0366774,-12.891555,-0.8594370000000001,86.78594826,1.05424272,-21.53176164
0.59,59,0.006,-1.0,-0.023,-2.9793816000000004,-11.9748222,-1.3178034,86.75157078,1.06570188,-21.65208282
0.6,60,0.001,-0.995,-0.02,-2.8074942000000003,-10.4851314,-1.6042823999999998,86.72292288,1.07716104,-21.76094484
0.61,61,-0.004,-0.989,-0.018000000000000002,-2.6356068,-8.7089616,-2.0626488000000003,86.69427498,1.09434978,-21.84688854
0.62,62,-0.008,-0.989,-0.015,-2.578311,-6.760904399999999,-2.4064236,86.67135666,1.1172681,-21.9156435
0.63,63,-0.011,-0.992,-0.011,-2.6356068,-4.8128472,-2.86479,86.66562708000002,1.1172681,-21.96148014
0.64,64,-0.01,-0.997,-0.01,-2.6929026,-2.9220857999999996,-3.0939732,86.63697918,1.1459160000000002,-21.99585762
0.65,65,-0.006999999999999999,-1.006,-0.009000000000000001,-2.7501984,-1.2605076000000002,-3.151269,86.60833127999999,1.18029348,-22.01304636
0.66,66,-0.002,-1.016,-0.012,-3.0366774,0.0,-2.9220857999999996,86.57968338,1.20894138,-22.01304636
0.67,67,0.0,-1.021,-0.014,-3.0366774,1.7761698,-2.6356068,86.55103548,1.2318597,-21.99585762
0.68,68,0.004,-1.024,-0.015,-2.6356068,2.6356068,-2.3491278,86.55103548,1.24331886,-21.9729393
0.6900000000000001,69,0.009000000000000001,-1.026,-0.014,-2.2345362,3.2658606,-2.0053530000000004,86.52811716,1.26623718,-21.93856182
0.7000000000000001,70,0.013,-1.03,-0.013,-2.1199446,3.7815227999999994,-1.5469866,86.51092842,1.28342592,-21.90418434
0.7100000000000001,71,0.02,-1.032,-0.012,-1.9480572,3.8961144,-1.2605076000000002,86.48801010000004,1.29488508,-21.86407728
0.72,72,0.027000000000000003,-1.032,-0.014,-2.2345362,3.6669312000000014,-0.9740286,86.46509178,1.30634424,-21.829699800000004
0.73,73,0.034,-1.03,-0.017,-2.6356068,2.86479,-0.6875496,86.47655094000002,1.3464512999999998,-21.80678148
0.74,74,0.041,-1.025,-0.021,-3.4377480000000005,1.2032118,-0.5156622000000001,86.44217346,1.35218088,-21.79532232
0.75,75,0.046,-1.019,-0.023,-3.8388186,-0.8594370000000001,-0.286479,86.40206640000002,1.35218088,-21.8010519
0.76,76,0.046,-1.013,-0.025,-4.1252976000000015,-2.4637194,-0.1718874,86.36195934,1.35218088,-21.829699800000004
0.77,77,0.042,-1.009,-0.027000000000000003,-4.3544808,-3.8961144,-0.11459160000000004,86.31612270000002,1.35218088,-21.86980686
0.78,78,0.035,-1.004,-0.03,-5.2712136,-4.7555514,-0.4583664000000001,86.27028606,1.36936962,-21.9156435
0.79,79,0.029,-1.001,-0.031,-6.760904399999999,-4.8128472,-0.9740286,86.2015311,1.3750992,-21.96720972
0.8,80,0.024,-1.001,-0.032,-8.193299399999999,-4.1825934,-1.6042823999999998,86.11558740000002,1.39228794,-22.007316780000004
0.81,81,0.02,-1.003,-0.033,-9.1100322,-2.8074942000000003,-2.2345362,86.02391412,1.40947668,-22.04169426
0.8200000000000001,82,0.018000000000000002,-1.007,-0.036000000000000004,-8.8235532,-1.3750992,-2.8074942000000003,85.93224083999998,1.43812458,-22.058883
0.8300000000000001,83,0.017,-1.013,-0.031,-8.9381448,0.0,-3.2658606,85.85775629999998,1.46677248,-22.058883
0.8400000000000001,84,0.026,-1.012,-0.028,-9.3965112,0.6875496,-3.2658606,85.76608302,1.50114996,-22.058883
0.85,85,0.038,-1.011,-0.024,-9.568398599999998,0.7448454000000001,-2.8074942000000003,85.66868016,1.52979786,-22.05315342
0.86,86,0.049,-1.008,-0.016,-9.740286,0.6302538000000001,-2.1772404,85.56554772,1.5469866,-22.04742384
0.87,87,0.055,-1.005,-0.01,-10.0840608,0.11459160000000004,-1.6615782,85.46241528,1.56417534,-22.04742384
0.88,88,0.055,-1.006,-0.005,-10.3705398,0.1718874,-1.3750992,85.40511948000002,1.6042824000000002,-22.05315342
0.89,89,0.052000000000000005,-1.01,0.0,-10.7143146,1.0886202,-1.2605076000000002,85.29625746,1.6157415599999996,-22.04169426
0.9,90,0.047,-1.018,0.003,-10.7716104,2.3491278,-1.7188740000000002,85.18739544,1.6329303,-22.01877594
0.91,91,0.044,-1.026,0.006999999999999999,-11.0007936,3.2658606,-2.4064236,85.07280384,1.6615782,-21.99012804
0.92,92,0.039,-1.032,0.003,-11.5737516,3.7815227999999994,-2.8074942000000003,84.95821224,1.6902260999999998,-21.95575056
0.93,93,0.033,-1.035,0.0,-12.605076,4.9274388,-2.9220857999999996,84.86080938,1.7246035799999997,-21.9156435
0.9400000000000001,94,0.03,-1.03,-0.006,-14.2093584,6.417129599999999,-2.9220857999999996,84.71756988,1.75325148,-21.85261812
0.9500000000000001,95,0.027000000000000003,-1.022,-0.012,-15.6417534,7.9641161999999985,-2.578311,84.55714164,1.78762896,-21.77813358
0.9600000000000001,96,0.023,-1.014,-0.024,-16.673077799999998,9.740286,-2.1199446,84.39098382,1.81054728,-21.6864603
0.97,97,0.018000000000000002,-1.007,-0.035,-17.0741484,12.0894138,-1.7188740000000002,84.21909642,1.8334656000000005,-21.571868700000003
0.98,98,0.014,-1.0,-0.042,-17.18874,15.0687954,-1.432395,84.05866818,1.85638392,-21.42289962
0.99,99,0.018000000000000002,-0.995,-0.049,-17.131444199999994,19.308684600000007,-1.6042823999999998,83.88678078000002,1.88503182,-21.23955306
1.0,100,0.023,-0.989,-0.051,-17.0741484,22.2307704,-1.8334656000000005,83.72062296,1.9194093000000003,-21.02182902
1.01,101,0.027000000000000003,-0.987,-0.058,-16.8449652,24.4080108,-2.0053530000000004,83.55446514,1.9595163600000003,-20.78691624
1.02,102,0.032,-0.986,-0.061,-16.959556799999998,25.8977016,-1.9480572,83.38257774,1.99962342,-20.53481472
1.03,103,0.034,-0.982,-0.066,-17.246035799999998,26.642547,-1.3178034,83.2221495,2.0340008999999997,-20.27125404
1.04,104,0.036000000000000004,-0.979,-0.071,-17.18874,27.1009134,-0.4010706,83.0502621,2.0626488000000003,-20.00769336
1.05,105,0.038,-0.977,-0.078,-17.475219,27.1009134,0.3437748,82.8783747,2.07983754,-19.74413268
1.06,106,0.042,-0.98,-0.09,-18.449247600000003,26.5852512,0.8594370000000001,82.70075771999998,2.09702628,-19.480572
1.07,107,0.051,-0.986,-0.106,-19.938938399999998,24.2934192,1.2032118,82.50022242,2.10848544,-19.24565922
1.08,108,0.062,-0.99,-0.114,-21.7151082,21.829699800000004,1.3178034,82.28249838,2.1199446,-19.02793518
1.09,109,0.073,-0.999,-0.119,-24.1788276,18.8503182,1.432395,82.04185602,2.12567418,-18.844588620000003
1.1,110,0.083,-1.011,-0.124,-27.903054600000004,14.610429000000002,1.6615782,81.76110659999998,2.12567418,-18.70134912
1.11,111,0.093,-1.03,-0.122,-33.74722620000001,8.479778399999999,1.9480572,81.42306138000002,2.10848544,-18.61540542
1.12,112,0.102,-1.054,-0.11,-42.1697088,1.4896908000000002,1.8907613999999997,80.99334288,2.0912967,-18.60394626
1.1300000000000001,113,0.108,-1.074,-0.129,-51.4516284,-4.5263682,2.0626488000000003,80.4719511,2.06837838,-18.649782899999998
1.1400000000000001,114,0.105,-1.067,-0.16699999999999998,-57.6968706,-10.7716104,2.5210152000000003,79.88180436,2.02254174,-18.75864492
1.1500000000000001,115,0.079,-1.027,-0.182,-59.0719698,-17.18874,3.2085648,79.28019846,1.9595163600000003,-18.92480274
1.1600000000000001,116,0.023,-0.967,-0.171,-55.6342218,-20.454600600000006,3.4377480000000005,78.71297003999999,1.88503182,-19.12533804
1.17,117,-0.055,-0.917,-0.14300000000000002,-50.8786704,-20.626488,2.5210152000000003,78.19157826,1.82200644,-19.32587334
1.18,118,-0.142,-0.895,-0.128,-48.70143,-19.9962342,0.2291832000000001,77.69883438,1.7475218999999995,-19.52640864
1.19,119,-0.23,-0.898,-0.121,-49.5035712,-19.480572,-3.9534102,77.19463134,1.74179232,-19.72694394
1.2,120,-0.301,-0.918,-0.103,-50.6494872,-17.8762896,-9.6256944,76.67323956,1.79908812,-19.927479240000004
1.21,121,-0.336,-0.958,-0.08900000000000001,-51.4516284,-15.3552744,-15.6417534,76.15184778,1.91367972,-20.11655538
1.22,122,-0.298,-0.988,-0.104,-50.6494872,-13.8655836,-22.058883,75.63045600000002,2.0912967,-20.30563152
1.23,123,-0.191,-1.006,-0.125,-46.982556,-14.7250206,-25.6112226,75.16063044,2.2746432600000004,-20.51762598
1.24,124,-0.08,-1.033,-0.122,-41.596750799999995,-17.18874,-26.356068,74.73091194,2.48663772,-20.75253876
1.25,125,0.012,-1.063,-0.112,-37.2995658,-18.907614000000002,-25.0955604,74.3413005,2.67571386,-21.00464028
1.26,126,0.091,-1.098,-0.106,-35.4088044,-21.199446,-22.2307704,73.96887779999999,2.8361421,-21.27393054
1.27,127,0.106,-1.126,-0.084,-34.0337052,-24.694489800000003,-17.7044022,73.61364384000002,2.93927454,-21.56040954
1.28,128,0.068,-1.151,-0.059,-29.2781538,-28.361421000000004,-12.7196676,73.33289442,2.98511118,-21.86980686
1.29,129,0.02,-1.16,-0.051,-26.5279554,-30.7105488,-7.2192707999999985,73.052145,2.96792244,-22.18493376
1.3,130,0.006,-1.128,-0.076,-28.074942,-32.0283522,-1.4896908000000002,72.75420684000002,2.8934379,-22.50006066
1.31,131,0.006,-1.086,-0.105,-31.2835068,-32.2002396,1.0886202,72.4218912,2.79603504,-22.8037284
1.32,132,0.009000000000000001,-1.064,-0.14300000000000002,-34.091001,-30.93973200000001,0.8594370000000001,72.06665724,2.69863218,-23.10166656
1.33,133,0.012,-1.061,-0.174,-36.8411994,-29.335449600000004,0.0,71.70569370000003,2.6069589,-23.38241598
1.34,134,0.034,-1.062,-0.211,-40.5654264,-28.4187168,-0.8021411999999999,71.28170478000001,2.52674478,-23.65743582
1.35,135,0.049,-1.051,-0.257,-43.8885828,-28.1895336,-1.145916,70.82906796,2.45226024,-23.932455659999995
1.36,136,0.049,-1.036,-0.275,-43.4302164,-28.4760126,-0.3437748,70.38216072,2.36631654,-24.20174592
1.37,137,0.053,-1.022,-0.289,-40.6227222,-28.934379,1.3750992,69.9581718,2.25745452,-24.47676576
1.3800000000000001,138,0.055,-1.01,-0.295,-36.7839036,-30.8251404,4.9274388,69.59147868,2.10848544,-24.7517856
1.3900000000000001,139,0.042,-1.008,-0.226,-33.002380800000005,-31.6845774,8.8235532,69.24770388,1.92513888,-25.02107586
1.4000000000000001,140,0.034,-1.01,-0.168,-30.8824362,-30.1375908,12.6623718,68.93257698,1.70168526,-25.25598864
1.4100000000000001,141,0.021,-1.018,-0.147,-29.9657034,-28.6479,15.756345000000001,68.62890924,1.4610428999999998,-25.4679831
1.42,142,-0.019,-1.048,-0.166,-28.2468294,-28.81978740000001,18.334656,68.33670065999999,1.18602306,-25.67424798
1.43,143,-0.058,-1.098,-0.188,-25.6112226,-30.3094782,19.938938399999998,68.10178787999999,0.8880849000000001,-25.88624244
1.44,144,-0.081,-1.156,-0.191,-23.376686399999997,-33.518043,20.912967,67.86687509999999,0.5786875800000001,-26.12115522
1.45,145,-0.08800000000000001,-1.214,-0.177,-23.14750320000001,-36.4974246,20.7410796,67.63196232,0.25783110000000004,-26.384715900000003
1.46,146,-0.102,-1.244,-0.189,-25.84040580000001,-37.24227,19.0222056,67.37413122000001,-0.04583664,-26.65400616
1.47,147,-0.126,-1.247,-0.204,-27.1009134,-36.898495200000006,15.6990492,67.10484096,-0.32658606,-26.94048516
1.48,148,-0.131,-1.234,-0.198,-24.064235999999998,-37.757932200000006,11.745639,66.89284649999999,-0.5844171599999999,-27.2441529
1.49,149,-0.132,-1.2,-0.205,-21.6578124,-40.680018,7.0473834,66.68085204,-0.79641162,-27.593657279999995
1.5,150,-0.146,-1.162,-0.194,-17.246035799999998,-42.5707794,2.8074942000000003,66.52042379999999,-0.97975818,-27.97180956
1.51,151,-0.183,-1.104,-0.18,-14.0947668,-41.9405256,-0.3437748,66.38864346,-1.13445684,-28.361421000000004
1.52,152,-0.238,-1.047,-0.131,-9.453807000000001,-36.4401288,-2.6356068,66.30842934,-1.24904844,-28.7051958
1.53,153,-0.284,-1.012,-0.086,-6.016058999999999,-26.4706596,-5.72958,66.34280681999999,-1.38082878,-28.974486060000004
1.54,154,-0.336,-1.018,-0.032,-1.7188740000000002,-12.605076,-10.7716104,66.33134765999999,-1.32926256,-29.129184719999994
1.55,155,-0.383,-1.045,0.093,-0.057295800000000015,3.2658606,-16.4438946,66.33134765999999,-1.16310474,-29.1635622
1.56,156,-0.358,-1.142,-0.053,-8.3651868,19.0795014,-20.5691922,66.23967438,-0.90527364,-29.07188892
1.57,157,-0.302,-1.314,-0.488,-10.9434978,17.0741484,-19.2513888,66.12508278,-0.6703608600000001,-28.9916748
1.58,158,-0.278,-1.4409999999999998,-0.82,-9.3392154,10.8289062,-11.172681,66.02767992,-0.53285094,-28.940108580000004
1.59,159,-0.349,-1.426,-0.911,-12.891555,13.2353298,-0.7448454000000001,65.89017,-0.47555514,-28.82551698
1.6,160,-0.297,-1.219,-0.765,-27.444688199999998,21.485925,9.8548776,65.60942058,-0.4870143000000001,-28.5906042
1.61,161,-0.005,-0.823,-0.622,-35.7525792,22.4026578,13.9228794,65.23699787999999,-0.53285094,-28.32704352
1.62,162,0.245,-0.529,-0.634,-37.0703826,28.5906042,3.3231564,64.85884560000001,-0.4526368200000001,-28.057753260000005
1.6300000000000001,163,0.374,-0.324,-0.623,-37.9298196,33.2888598,-6.016058999999999,64.4004792,-0.21772404,-27.79419258
1.6400000000000001,164,0.397,-0.301,-0.644,-37.5860448,29.621928600000004,-10.4278356,64.01659734,-0.01145916,-27.57073896
1.6500000000000001,165,0.365,-0.472,-0.682,-35.17962120000001,24.694489800000003,-10.9434978,63.6556338,0.18334656,-27.398851560000004
1.6600000000000001,166,0.297,-0.754,-0.649,-26.41336380000001,18.5638392,-8.9381448,63.38634354000001,0.33231564,-27.2728008
1.6700000000000002,167,0.193,-1.071,-0.616,-15.0114996,15.0114996,-9.0527364,63.23164488,0.47555514,-27.18112752
1.68,168,0.07200000000000001,-1.295,-0.539,-8.9381448,13.8082878,-13.8655836,63.14570118,0.6589017,-27.11810214
1.69,169,-0.029,-1.289,-0.456,-10.313244,12.9488508,-21.027558600000006,63.04256874,0.89954406,-27.100913400000003
1.7,170,-0.106,-1.164,-0.465,-12.032117999999999,13.5791046,-25.0955604,62.91651798,1.1745638999999999,-27.08945424
1.71,171,-0.136,-1.038,-0.444,-9.6256944,15.527161800000002,-25.84040580000001,62.81338553999999,1.47250206,-27.06653592
1.72,172,-0.098,-1.0,-0.395,-7.0473834,17.8189938,-22.9756158,62.74463058,1.7475218999999995,-27.0149697
1.73,173,-0.027000000000000003,-1.013,-0.373,-6.3025379999999975,22.91832,-17.9908812,62.70452352000001,1.99962342,-26.88891894
1.74,174,0.066,-1.08,-0.379,-5.7868758000000025,29.7365202,-12.891555,62.64722772,2.24026578,-26.68265406
1.75,175,0.111,-1.153,-0.397,-5.2139178,37.1276784,-8.7662574,62.60139108,2.48090814,-26.39617506
1.76,176,0.106,-1.205,-0.391,-4.4690724,43.48751220000001,-6.4744254,62.5670136,2.7215505,-26.03521152
1.77,177,0.067,-1.241,-0.369,-4.9274388,49.1597964,-5.72958,62.52690654000001,2.98511118,-25.62268176
1.78,178,0.011,-1.26,-0.362,-3.9534102,55.4623344,-5.7868758000000025,62.52117696000001,3.27159018,-25.15858578000001
1.79,179,-0.059,-1.285,-0.35100000000000003,-3.0366774,62.3951262,-6.4744254,62.51544738,3.59817624,-24.631464420000004
1.8,180,-0.106,-1.294,-0.336,-4.4690724,68.98414319999999,-6.9327918,62.49825864,3.9534102,-24.04704726
1.81,181,-0.124,-1.279,-0.31,-6.417129599999999,75.17208959999998,-6.703608600000001,62.46961074000001,4.33729206,-23.41106388
1.82,182,-0.092,-1.238,-0.307,-7.333862400000001,81.1308528,-5.1566220000000005,62.43523326,4.73263308,-22.71205512
1.83,183,-0.029,-1.198,-0.349,-6.130650599999999,87.31879920000002,-3.0939732,62.44096284,5.1279740999999985,-21.9442914
1.84,184,0.055,-1.156,-0.386,-4.010706000000001,90.6992514,-0.3437748,62.46388115999999,5.52331512,-21.136420620000006
1.85,185,0.162,-1.094,-0.408,-1.2605076000000002,92.3608296,1.9480572,62.52117696000001,5.90719698,-20.29990194
1.86,186,0.255,-1.031,-0.406,2.6929026,91.8451674,3.6096354,62.63003898,6.2738901,-19.46338326
1.87,187,0.355,-0.931,-0.39,8.3651868,86.5739538,3.8961144,62.79046722,6.611935319999999,-18.66697164
1.8800000000000001,188,0.43,-0.831,-0.37,15.756345000000001,76.37530140000001,2.4637194,63.02538000000001,6.955710119999999,-17.973692460000006
1.8900000000000001,189,0.489,-0.72,-0.337,25.0382646,62.22323879999999,1.4896908000000002,63.3405069,7.20781164,-17.40646404
1.9000000000000001,190,0.537,-0.602,-0.297,35.4088044,44.7480198,2.0053530000000004,63.74730708,7.37969904,-16.9882047
1.9100000000000001,191,0.555,-0.503,-0.221,43.3729206,22.9756158,4.8128472,64.21713264,7.43699484,-16.753291920000002
1.9200000000000002,192,0.5479999999999999,-0.402,-0.107,48.0138804,0.0,9.1100322,64.70987652,7.3625102999999985,-16.71318486
1.93,193,0.477,-0.32299999999999995,-0.124,48.0711762,-28.762491600000004,16.329303,65.17397249999999,7.13905668,-16.90799058
1.94,194,0.429,-0.225,-0.16399999999999998,49.1597964,-69.32791800000001,24.9809688,65.61515016,6.65204238,-17.435111940000002
1.95,195,0.472,-0.111,-0.187,54.602897399999996,-108.9193158,31.2835068,66.0907053,5.96449278,-18.3060081
1.96,196,0.556,-0.035,-0.203,60.0459984,-126.22264740000001,35.7525792,66.61782666,5.17954032,-19.32014376
1.97,197,0.495,-0.061,-0.461,50.0765292,-141.23414699999995,34.4347758,67.05327473999999,4.3544808,-20.488978080000006
1.98,198,0.378,-0.138,-0.6890000000000001,37.0130868,-123.3005616,24.7517856,67.31683542,3.71276784,-21.53749122
1.99,199,0.315,-0.319,-0.937,25.3247436,-77.0055552,8.307891,67.54601862,3.3689930400000003,-22.21358166
2.0,200,0.325,-0.6459999999999999,-0.897,32.2002396,-21.3140376,-15.870936600000002,67.86114552,3.44347758,-22.47141276
2.01,201,-0.657,-1.592,-0.758,49.61816279999999,-22.91832,-61.24921020000001,68.33670065999999,3.93622146,-22.90686084
2.02,202,-1.4409999999999998,-1.324,-0.182,26.642547,-74.771019,-73.6823988,68.54869512,4.36593996,-23.86370070000001
2.03,203,-1.047,-0.45,-0.076,-10.3705398,-82.9643184,-31.1689152,68.36534856,4.27999626,-24.7517856
2.04,204,-0.5720000000000001,-0.526,-0.605,-9.568398599999998,-51.5089242,-17.7044022,68.23356822000001,4.2685371,-25.30182528000001
2.05,205,-0.239,-1.0,-0.606,9.2819196,-23.0902074,-23.0902074,68.30805276,4.40604702,-25.59976344
2.0599999999999996,206,0.086,-1.374,-0.279,15.3552744,-0.4583664000000001,-23.204799,68.45702184000001,4.6180414800000005,-25.68570714
2.07,207,0.416,-1.517,-0.183,20.2254174,15.985528200000001,-13.8655836,68.6690163,4.80711762,-25.58830428
2.0799999999999996,208,0.618,-1.425,-0.279,20.6837838,14.4385416,-1.6615782,68.89246992,4.893061319999998,-25.45652394
2.09,209,0.629,-1.263,-0.426,17.0168526,-9.1100322,14.266654199999998,69.06435732,4.73263308,-25.49090142
2.0999999999999996,210,0.511,-1.15,-0.416,0.11459160000000004,-34.37748,26.1268848,69.05289816,4.37739912,-25.72008462
2.11,211,0.241,-0.999,-0.377,-17.0741484,-45.779344200000004,26.356068,68.86382202,3.97632852,-26.05812984
2.1199999999999997,212,0.002,-0.903,-0.376,-23.4339822,-47.0398518,18.7357266,68.60599092,3.6440128800000013,-26.43055254
2.13,213,-0.149,-0.8690000000000001,-0.371,-26.8717302,-44.8626114,8.136003599999999,68.30805276,3.37472262,-26.82016398
2.1399999999999997,214,-0.226,-0.883,-0.332,-28.361421000000004,-40.8519054,-1.8334656000000005,68.00438502,3.2486718599999995,-27.20977542
2.15,215,-0.236,-0.939,-0.264,-26.1841806,-37.5860448,-6.9327918,67.7236356,3.1799169000000003,-27.58219812
2.1599999999999997,216,-0.177,-1.018,-0.194,-24.1788276,-36.5547204,-5.1566220000000005,67.46007492,3.0997027800000003,-27.94316166
2.17,217,-0.056,-1.09,-0.03,-20.912967,-34.950438,4.4117766,67.2366213,2.92781538,-28.25255898
2.1799999999999997,218,0.091,-1.133,0.054000000000000006,-17.131444199999994,-30.93973200000001,20.3973048,67.11057054,2.6413363800000003,-28.458823859999995
2.19,219,0.238,-1.182,-0.07200000000000001,-10.1986524,-34.091001,35.8671708,67.0074381,2.18869956,-28.63644084
2.1999999999999997,220,0.278,-1.2009999999999998,-0.263,-10.1986524,-50.0765292,46.1804148,66.89857608,1.5870936600000003,-28.92291984
2.21,221,0.294,-1.213,-0.426,-3.5523396000000003,-63.7129296,53.1705024,66.86419860000001,0.87089616,-29.30107212
2.2199999999999998,222,0.338,-1.254,-0.425,10.7143146,-72.5937786,56.0352924,66.97879019999999,0.09167328,-29.75370894
2.23,223,0.281,-1.253,-0.36,14.4385416,-80.2714158,55.4623344,67.15067760000001,-0.68182002,-30.2808303
2.2399999999999998,224,0.08800000000000001,-1.156,-0.308,8.307891,-85.48533359999998,53.5142772,67.25953962000001,-1.4782316400000002,-30.85951788
2.25,225,-0.145,-1.055,-0.26,8.59437,-85.65722099999998,50.3057124,67.37413122000001,-2.24599536,-31.46112378
2.26,226,-0.34,-0.999,-0.208,21.485925,-74.88561059999998,43.3729206,67.62623274,-2.90489706,-31.988245140000004
2.27,227,-0.535,-0.936,-0.145,36.38283300000001,-57.00932099999999,34.262888399999994,68.02730333999999,-3.4148296799999995,-32.38358616
2.28,228,-0.652,-0.865,-0.087,45.83664,-40.164355799999996,27.3873924,68.53723596,-3.86173692,-32.65287642
2.29,229,-0.6759999999999999,-0.768,-0.059,56.72284200000001,-21.199446,20.511896399999998,69.1273827,-4.11383844,-32.7731976
2.3,230,-0.667,-0.722,-0.051,70.1300592,5.1566220000000005,10.9434978,69.83212104,-4.19405256,-32.68152432
2.31,231,-0.61,-0.703,-0.08199999999999999,81.932994,42.4561878,-1.7188740000000002,70.62853265999998,-4.03362432,-32.280453720000004
2.32,232,-0.5770000000000001,-0.703,-0.06,87.37609499999998,72.88025760000002,-14.152062599999999,71.45932176,-3.67839036,-31.6272816
2.3299999999999996,233,-0.488,-0.688,-0.394,63.1399716,93.5640414,-17.761698000000006,72.01509102,-3.27159018,-30.78503334
2.34,234,-0.386,-0.695,-0.642,43.8885828,101.413566,-10.1413566,72.39897288,-2.88770832,-29.8511118
2.3499999999999996,235,-0.261,-0.8079999999999999,-1.015,24.8663772,97.6320432,3.0939732,72.5937786,-2.65279554,-28.91146068
2.36,236,-0.105,-0.969,-1.098,29.2781538,82.1048814,20.340009,72.84015054,-2.61841806,-28.06348284
2.3699999999999997,237,0.267,-1.037,-0.809,37.52874900000001,94.6526616,32.658606,73.16100702,-2.68144344,-27.06653592
2.38,238,0.6809999999999999,-0.902,-0.55,23.032911600000002,113.61757140000002,36.898495200000006,73.3099761,-2.6929026,-25.87478328000001
2.3899999999999997,239,0.743,-0.659,-0.491,-14.0947668,104.9086098,30.3094782,73.10371122000002,-2.71009134,-24.78616308
2.4,240,0.565,-0.5379999999999999,-0.545,-33.6899304,86.5739538,24.064235999999998,72.7083702,-2.71582092,-23.89807818
2.4099999999999997,241,0.295,-0.6,-0.535,-31.913760600000003,75.2866812,19.2513888,72.3359475,-2.69863218,-23.12458488
2.42,242,0.039,-0.764,-0.514,-26.929026,68.52577679999999,13.2353298,72.02082060000002,-2.6356068,-22.43703528
2.4299999999999997,243,-0.205,-0.972,-0.454,-21.6578124,63.1399716,6.9327918,71.75725992,-2.5496631,-21.81251106
2.44,244,-0.412,-1.151,-0.363,-10.7716104,60.7908438,-1.7188740000000002,71.61402042,-2.36631654,-21.245282640000006
2.4499999999999997,245,-0.54,-1.221,-0.254,2.5210152000000003,60.9627312,-8.7089616,71.60829084,-2.10848544,-20.69524296
2.46,246,-0.56,-1.135,-0.17,6.589017,67.7809314,-11.5737516,71.6483979,-1.8048176999999999,-20.08790748
2.4699999999999998,247,-0.444,-1.02,-0.141,5.042030400000002,79.9849368,-14.2093584,71.66558663999999,-1.43812458,-19.37170998
2.48,248,-0.25,-0.916,-0.122,0.9167328,92.13164640000001,-17.6471064,71.66558663999999,-1.0255948199999998,-18.55810962
2.4899999999999998,249,0.009000000000000001,-0.855,-0.12,-3.8961144,102.559482,-21.2567418,71.59683168000002,-0.53285094,-17.65283598
2.5,250,0.197,-0.8340000000000001,-0.141,-10.026765,112.4143596,-20.7410796,71.47651049999997,-0.01718874,-16.65588906
2.51,251,0.28800000000000003,-0.8190000000000001,-0.16899999999999998,-14.0947668,119.748222,-15.183387000000002,71.32181184,0.46409598,-15.57299844
2.52,252,0.28600000000000003,-0.8220000000000001,-0.179,-14.266654199999998,123.70163219999999,-7.2765666,71.17284276000002,0.89381448,-14.427082439999998
2.53,253,0.215,-0.843,-0.156,-11.1153852,125.191323,0.286479,71.07543989999998,1.27196676,-13.246788959999998
2.54,254,0.109,-0.871,-0.141,-9.6829902,124.44647759999998,5.1566220000000005,70.9894962,1.5870936600000003,-12.05503632
2.55,255,0.008,-0.8809999999999999,-0.134,-8.59437,120.89413799999998,6.0733548,70.92074124,1.8907613999999997,-10.89766116
2.56,256,-0.026,-0.858,-0.105,-7.8495246,115.85210759999998,4.9847345999999995,70.86344543999998,2.18869956,-9.78612264
2.57,257,-0.006,-0.812,-0.083,-9.167328,112.4143596,1.8334656000000005,70.80042006,2.50382646,-8.72042076
2.5799999999999996,258,0.029,-0.787,-0.093,-9.6829902,110.0652318,-3.2085648,70.74885384000002,2.86479,-7.6948259399999985
2.59,259,0.105,-0.785,-0.094,-6.6463128000000005,108.6328368,-6.0733548,70.72020594,3.2486718599999995,-6.69214944
2.5999999999999996,260,0.191,-0.833,-0.104,-5.5576926,106.3983006,-6.417129599999999,70.70874678,3.62682414,-5.70666168
2.61,261,0.267,-0.903,-0.14,-8.9954406,105.08049720000001,-4.8701430000000006,70.66863972,3.98778768,-4.73263308
2.6199999999999997,262,0.334,-0.985,-0.159,-11.0007936,104.5075392,-2.1199446,70.61134392,4.320103319999999,-3.752874900000001
2.63,263,0.378,-1.077,-0.156,-12.2040054,102.3875946,1.4896908000000002,70.56550728,4.63523022,-2.78457588
2.6399999999999997,264,0.404,-1.165,-0.17800000000000002,-12.261301199999998,99.5801004,5.3285094000000015,70.50821148,4.88733174,-1.82773602
2.65,265,0.415,-1.222,-0.173,-9.9121734,94.0797036,9.1100322,70.473834,5.08786704,-0.91100322
2.6599999999999997,266,0.406,-1.213,-0.182,-4.583664,80.7297822,13.6364004,70.48529316,5.2024586400000015,-0.10313244
2.67,267,0.393,-1.151,-0.199,3.0939732,67.036086,17.0168526,70.57123686,5.24829528,0.5786875800000001
2.6799999999999997,268,0.35200000000000004,-1.0590000000000002,-0.181,13.6936962,51.9099948,19.0795014,70.77750174,5.25975444,1.13445684
2.69,269,0.285,-0.955,-0.112,25.1528562,37.757932200000006,20.6837838,71.06398074,5.17954032,1.55844576
2.6999999999999997,270,0.233,-0.8540000000000001,-0.017,34.7785506,24.8090814,23.0902074,71.44213302,5.03630082,1.87357266
2.71,271,0.21,-0.759,0.046,44.0031744,14.381245800000002,26.4706596,71.90622900000002,4.83576552,2.09702628
2.7199999999999998,272,0.21600000000000005,-0.706,0.06,51.33703679999999,4.8701430000000006,29.793816,72.43907994,4.57220484,2.2345362
2.73,273,0.284,-0.6920000000000001,0.083,59.1292656,-1.0313244,31.971056400000002,73.0807929,4.30291458,2.32620948
2.7399999999999998,274,0.329,-0.821,-0.095,50.5921914,-6.875496000000001,31.51269000000001,73.5964551,3.98778768,2.3491277999999998
2.75,275,0.37,-1.038,-0.475,27.501984000000004,14.5531332,25.3247436,73.88866368000002,3.78725238,2.56685184
2.76,276,0.34,-1.295,-0.768,5.2712136,29.5646328,16.1001198,73.96314822000002,3.70703826,2.8934379
2.77,277,0.247,-1.535,-0.901,-8.250595200000001,55.86340500000001,2.6356068,73.90585242,3.82162986,3.4377480000000005
2.78,278,0.019,-1.515,-0.785,-0.8594370000000001,68.58307260000001,-11.688343199999998,73.92304116,4.0966497,4.06227222
2.79,279,-0.384,-1.294,-0.588,12.6623718,66.3485364,-13.178034,74.08919897999998,4.38885828,4.66387812
2.8,280,-0.555,-0.815,-0.504,11.917526400000002,49.1025006,9.6256944,74.24389764,4.41750618,5.16235158
2.81,281,-0.399,-0.65,-0.561,4.9274388,49.274388,23.777757,74.32984134,4.30864416,5.7009320999999975
2.82,282,-0.14300000000000002,-0.748,-0.662,6.2452422,69.0987348,23.2620948,74.43870336,4.25134836,6.428588760000001
2.8299999999999996,283,0.141,-0.928,-0.568,9.3965112,84.7404882,15.183387000000002,74.55902454,4.320103319999999,7.282296179999999
2.84,284,0.329,-1.022,-0.418,6.3025379999999975,91.6159842,8.193299399999999,74.68507530000002,4.45761324,8.18756982
2.8499999999999996,285,0.395,-1.05,-0.404,1.4896908000000002,92.9910834,5.6149884000000005,74.75955984,4.62377106,9.098573040000002
2.86,286,0.35600000000000004,-1.064,-0.456,-3.4950437999999995,92.3035338,6.016058999999999,74.78247816,4.77846972,10.00384668
2.8699999999999997,287,0.268,-1.108,-0.469,-9.740286,90.7565472,7.333862400000001,74.74810068,4.921709219999999,10.89766116
2.88,288,0.102,-1.151,-0.463,-15.0114996,89.49603959999996,10.7716104,74.65069782,5.01911208,11.78574606
2.8899999999999997,289,-0.095,-1.11,-0.416,-17.5325148,89.6106312,16.7876694,74.5418358,5.0706783,12.691019699999998
2.9,290,-0.306,-1.05,-0.382,-17.5325148,92.5900128,22.9756158,74.43297378,5.06494872,13.642129979999998
2.9099999999999997,291,-0.438,-1.025,-0.328,-15.3552744,97.2309726,23.777757,74.35275966,5.0706783,14.64480648
2.92,292,-0.462,-0.984,-0.27,-10.5424272,102.3302988,22.345362,74.32411176,5.0993262,15.68759004
2.9299999999999997,293,-0.389,-0.961,-0.207,-4.9847345999999995,109.0912032,21.829699800000004,74.36421881999998,5.11651494,16.79339898
2.94,294,-0.269,-0.953,-0.174,-2.4637194,115.96669920000001,22.91832,74.42724419999998,5.17381074,17.973692460000006
2.9499999999999997,295,-0.147,-0.944,-0.168,0.0,123.47244899999998,25.2674478,74.53037664,5.22537696,19.22847048
2.96,296,-0.04,-0.924,-0.163,2.6356068,130.0041702,29.335449600000004,74.66215697999998,5.25402486,20.55773304
2.9699999999999998,297,0.057,-0.895,-0.146,3.0366774,134.64513,35.9244666,74.7996669,5.22537696,21.95002098
2.98,298,0.127,-0.857,-0.152,0.4010706,138.7131318,45.0344988,74.91998808000002,5.11651494,23.4053343
2.9899999999999998,299,0.16,-0.8290000000000001,-0.171,-2.6356068,138.1401738,53.11320660000001,75.00593178,4.921709219999999,24.87783636
3.0,300,0.154,-0.816,-0.197,-5.5576926,133.499214,60.44706899999999,75.05176842,4.64668938,26.315960940000004
3.01,301,0.109,-0.8109999999999999,-0.213,-4.9274388,125.477802,66.176649,75.09187548,4.297185000000002,27.69678972
3.02,302,0.046,-0.823,-0.188,-0.4010706,115.68022020000001,69.6716928,75.16636002,3.89038482,28.9916748
3.03,303,-0.009000000000000001,-0.845,-0.132,3.7815227999999994,108.17447040000002,71.44786260000002,75.27522203999997,3.44347758,30.212075339999995
3.04,304,-0.048,-0.873,-0.114,5.7868758000000025,102.6740736,72.13541219999998,75.38981364,2.9793816000000004,31.380909660000004
3.05,305,-0.061,-0.919,-0.079,8.193299399999999,101.127087,73.625103,75.51586440000001,2.49809688,32.53828482
3.06,306,-0.066,-0.973,-0.084,11.0580894,104.278356,77.80769640000003,75.66483348,1.9767051,33.73576704
3.07,307,-0.077,-0.996,-0.087,13.980175199999998,109.0339074,82.1621772,75.8309913,1.42666542,34.99054506
3.08,308,-0.091,-1.018,-0.066,18.2200644,116.76884040000002,85.5999252,76.03725618000001,0.8479778399999999,36.32553720000001
3.09,309,-0.07400000000000001,-1.079,-0.096,21.027558600000006,123.5870406,88.17823620000001,76.24925064,0.25783110000000004,37.7292843
3.0999999999999996,310,-0.058,-1.115,-0.117,24.1215318,129.488508,88.98037740000002,76.47843384000002,-0.32658606,39.18459762
3.11,311,-0.05,-1.152,-0.114,28.991674800000002,134.072172,88.98037740000002,76.73626494,-0.91100322,40.69147716
3.1199999999999997,312,-0.035,-1.189,-0.134,30.9970278,136.02022920000002,88.80849,77.00555519999998,-1.50114996,42.20981586
3.13,313,-0.067,-1.177,-0.125,33.116972399999995,138.42665280000003,87.94905299999998,77.28057504,-2.08556712,43.745343299999995
3.1399999999999997,314,-0.115,-1.159,-0.103,34.4347758,147.42209340000005,84.56860079999998,77.54413572000001,-2.62414764,45.36108486
3.15,315,-0.16899999999999998,-1.102,-0.152,34.37748,157.1050836,80.09952840000003,77.79050766,-3.1054323600000004,47.05704054
3.1599999999999997,316,-0.262,-1.034,-0.151,37.8725238,168.3350604,73.73969459999998,78.04833876000002,-3.51796212,48.85612866
3.17,317,-0.349,-0.995,-0.07400000000000001,39.6486936,183.0027852,65.7755784,78.30616986,-3.83308902,50.77553796
3.1799999999999997,318,-0.41,-0.951,-0.034,37.8725238,202.3114698,57.63957480000001,78.52389389999998,-4.05654264,52.86683466000001
3.19,319,-0.401,-0.929,0.05,38.0444112,224.599536,50.420304,78.71869962000002,-4.16540466,55.15866666000001
3.1999999999999997,320,-0.409,-0.924,0.128,38.7892566,251.9869284,44.1750618,78.89058702,-4.17686382,57.70832975999999
3.21,321,-0.397,-0.993,0.056,28.991674800000002,282.2964065999999,41.19568020000001,78.94215324000002,-4.11383844,60.55020144
3.2199999999999998,322,-0.371,-1.0590000000000002,-0.128,12.261301199999998,321.8305086000001,45.1490904,78.79891374,-4.02789474,63.78168456
3.23,323,-0.284,-1.116,-0.188,8.9381448,334.2064014,52.3110654,78.60983759999998,-3.9820580999999997,67.15067760000001
3.2399999999999998,324,-0.116,-1.221,-0.147,9.167328,325.03907339999995,61.9940556,78.43222062,-4.03362432,70.44518609999999
3.25,325,0.172,-1.266,-0.19,0.286479,300.1154004,70.93220040000001,78.17438952,-4.20551172,73.51051140000001
3.26,326,0.412,-1.154,-0.227,-4.8701430000000006,274.27499460000007,77.2920342,77.87645136,-4.4690724,76.34665349999999
3.27,327,0.5429999999999999,-0.862,-0.14300000000000002,7.0473834,256.8570714,76.77637200000002,77.69883438,-4.74409224,79.01090819999997
3.28,328,0.5760000000000001,-0.564,-0.038,13.8082878,244.4811786,66.11935319999999,77.60143152,-4.90452048,81.53192340000003
3.29,329,0.573,-0.353,0.112,9.453807000000001,237.491091,49.4462754,77.45819202,-4.93889796,83.94980616
3.3,330,0.509,-0.373,0.161,-0.2291832000000001,238.8088944,36.4401288,77.21754966,-4.8414950999999995,86.35622975999998
3.31,331,0.377,-0.5770000000000001,0.111,-5.0993262,240.1266978,30.080295,76.93680024,-4.66387812,88.75692378
3.32,332,0.136,-0.8540000000000001,0.052000000000000005,-4.1252976000000015,239.8402188,26.814434400000003,76.67323956,-4.45188366,91.14615864
3.33,333,-0.15,-1.195,0.041,-6.8182002000000015,242.3039382,26.41336380000001,76.39821972,-4.21697088,93.55831182
3.34,334,-0.395,-1.476,0.091,-6.3598338,244.13740380000002,29.7365202,76.12319987999999,-3.99924684,95.98765374
3.3499999999999996,335,-0.4920000000000001,-1.494,0.245,10.886202,238.86619019999998,36.955791,76.04298576,-3.85027776,98.38834776
3.36,336,-0.399,-1.3,0.332,22.4026578,239.782923,43.0291458,76.07736324,-3.752874900000001,100.81768968
3.3699999999999997,337,-0.192,-1.043,0.29100000000000004,26.5279554,246.085461,42.685371,76.15184778,-3.6440128800000013,103.29859782
3.38,338,-0.026,-0.898,0.258,27.3873924,246.4865316,38.1590028,76.26643938,-3.48931422,105.77377638
3.3899999999999997,339,0.073,-0.855,0.265,26.5279554,236.918133,34.7212548,76.35811265999997,-3.33461556,108.15155208000002
3.4,340,0.162,-0.8809999999999999,0.252,23.376686399999997,225.8600436,33.6326346,76.43832678,-3.1913760600000005,110.42046576
3.4099999999999997,341,0.23,-0.909,0.226,20.798375399999998,217.0364904,33.4607472,76.50135216,-3.07105488,112.60343573999998
3.42,342,0.28,-0.931,0.198,19.767051,209.9318112,32.257535399999995,76.56437754,-2.9507337,114.71192118000002
3.4299999999999997,343,0.306,-0.945,0.174,18.162768600000003,201.8531034,29.4500412,76.63886208,-2.8074942000000003,116.73446291999998
3.44,344,0.308,-0.938,0.138,14.5531332,192.4565922,24.923673,76.67323956,-2.65852512,118.65960179999999
3.4499999999999997,345,0.284,-0.916,0.108,12.318597,184.3205886,18.6784308,76.6904283,-2.46944898,120.48733782
3.46,346,0.257,-0.9,0.08900000000000001,11.4018642,173.319795,11.688343199999998,76.71334662,-2.2345362,122.19475266000002
3.4699999999999998,347,0.223,-0.899,0.105,11.917526400000002,164.2097628,6.875496000000001,76.75345368,-1.97097552,123.79903506
3.48,348,0.179,-0.902,0.134,11.5737516,156.64671719999996,3.7815227999999994,76.82793822,-1.6787669399999998,125.32883292
3.4899999999999998,349,0.145,-0.887,0.151,10.886202,151.89116579999995,2.9793816000000004,76.87950443999998,-1.4037471,126.80706456
3.5,350,0.138,-0.86,0.181,10.026765,148.3388262,3.724227,76.93107066,-1.1459160000000002,128.25091872000002
3.51,351,0.147,-0.831,0.19,8.9954406,145.87510680000003,5.443101,76.97690730000002,-0.91100322,129.67758414
3.52,352,0.16899999999999998,-0.795,0.201,8.193299399999999,147.536685,9.1100322,77.01701435999998,-0.7104679199999999,131.13289746
3.53,353,0.227,-0.787,0.204,6.5317212,148.396122,13.0634424,77.08003973999998,-0.52712136,132.59966994
3.54,354,0.26,-0.773,0.171,3.0939732,148.682601,18.2200644,77.08003973999998,-0.41252976,134.07790158
3.55,355,0.289,-0.769,0.134,1.2605076000000002,148.109643,22.173474600000002,77.062851,-0.3437748,135.5618628
3.56,356,0.308,-0.77,0.112,0.6875496,146.1615858,24.9809688,77.03993267999998,-0.29793816,137.03436486
3.57,357,0.324,-0.774,0.08800000000000001,0.6875496,142.60924619999997,25.7258142,77.02274394,-0.26929026,138.47248944
3.58,358,0.324,-0.7709999999999999,0.067,1.7188740000000002,137.7391032,24.5798982,77.0342031,-0.21199446,139.86477738000002
3.59,359,0.321,-0.7659999999999999,0.056,3.2658606,132.8116644,22.8037284,77.04566226,-0.1718874,141.19976952
3.5999999999999996,360,0.322,-0.763,0.062,4.3544808,127.9415214,21.199446,77.07431016000002,-0.12605075999999998,142.48892501999995
3.61,361,0.334,-0.765,0.093,5.3858052,125.2486188,20.168121600000006,77.10868764,-0.08021412,143.74943262
3.6199999999999997,362,0.35100000000000003,-0.769,0.107,5.844171599999999,124.7329566,20.2254174,77.14879470000002,-0.03437748,145.00421064
3.63,363,0.35100000000000003,-0.775,0.103,5.5576926,125.0194356,21.1421502,77.21182008000002,0.028647900000000007,146.26471824
3.6399999999999997,364,0.329,-0.787,0.083,5.3285094000000015,126.16535159999998,22.631841,77.25192713999998,0.05156622,147.53668499999995
3.65,365,0.292,-0.8009999999999999,0.043,4.8701430000000006,127.5404508,23.8923486,77.28630462,0.06302537999999999,148.8258405
3.6599999999999997,366,0.242,-0.825,0.004,4.6409598,128.91555,25.0955604,77.3206821,0.06875496,150.13218474
3.67,367,0.184,-0.8420000000000001,-0.039,5.443101,130.17605759999998,25.78311,77.36078916,0.06302537999999999,151.44998814000004
3.6799999999999997,368,0.127,-0.8290000000000001,-0.08,8.9381448,129.0874374,25.55392680000001,77.44100327999998,0.06875496,152.75633238
3.69,369,0.077,-0.779,-0.099,14.667724800000002,126.2799432,24.5226024,77.57278362,0.06875496,154.03975830000005
3.6999999999999997,370,0.065,-0.73,-0.119,20.2254174,120.89413799999998,22.91832,77.76758934,0.07448454,155.26015883999997
3.71,371,0.076,-0.682,-0.154,18.449247600000003,112.4143596,20.9702628,77.93947674,0.07448454,156.40034526
3.7199999999999998,372,0.111,-0.654,-0.229,11.1153852,103.8772854,17.131444199999994,78.04260918,0.09167328,157.4488584
3.73,373,0.147,-0.629,-0.302,-0.2291832000000001,91.8451674,11.1153852,78.00250212,0.1718874,158.35986162
3.7399999999999998,374,0.205,-0.617,-0.362,-11.45916,81.81840240000002,3.5523396000000003,77.87645136,0.28074942,159.16200282
3.75,375,0.229,-0.62,-0.413,-22.459953600000002,68.1247062,-2.6356068,77.64153858,0.4297185000000001,159.81517494
3.76,376,0.213,-0.648,-0.469,-34.1482968,53.858052,-7.2192707999999985,77.2920342,0.59587632,160.31937798
3.77,377,0.16,-0.732,-0.523,-44.34694920000001,44.2323576,-11.8029348,76.84512696,0.7906820400000001,160.72044857999995
3.78,378,0.126,-0.925,-0.5670000000000001,-61.4210976,45.3782736,-17.0741484,76.19195484000002,1.05424272,161.11578960000003
3.79,379,0.093,-1.199,-0.591,-78.5525418,50.8786704,-21.2567418,75.39554322000002,1.3579104599999998,161.5455081
3.8,380,-0.038,-1.589,-0.584,-87.8917572,37.8725238,-21.485925,74.50745832,1.6386598799999998,161.84917584
3.81,381,-0.317,-2.158,-0.54,-96.3715356,20.3973048,-23.491278,73.52770014000002,1.90795014,161.96949702
3.82,382,-0.562,-2.476,-0.443,-96.6007188,24.9809688,-31.741873200000004,72.54794196,2.2631841,162.11273652
3.83,383,-0.4970000000000001,-1.887,-0.474,-101.70004499999999,47.3263308,-28.1895336,71.52807672,2.6413363800000003,162.46797048000005
3.84,384,-0.155,-1.047,-0.355,-69.041439,66.749607,-6.4744254,70.8462567,2.88770832,163.06957638
3.8499999999999996,385,0.267,-0.83,0.03,-14.896907999999998,59.93140680000001,14.7250206,70.72020594,2.92781538,163.68264144
3.86,386,0.463,-0.773,0.228,1.2605076000000002,13.5791046,33.4607472,70.74312426,2.65279554,163.91755422
3.8699999999999997,387,0.481,-0.731,0.12,-3.0366774,-19.194093,42.5134836,70.71447636,2.20015872,163.87744716
3.88,388,0.403,-0.711,-0.063,-6.417129599999999,-37.41415739999999,49.61816279999999,70.66291014,1.6673077799999998,163.68837102
3.8899999999999997,389,0.282,-0.769,-0.073,-8.250595200000001,-52.139178,50.6494872,70.57696644,1.03705398,163.36178496
3.9,390,0.212,-0.899,0.006,-19.1367972,-52.712136,41.1383844,70.38789030000002,0.4870143000000001,163.00082142000005
3.9099999999999997,391,0.208,-1.063,-0.04,-28.762491600000004,-41.596750799999995,20.7410796,70.1014113,0.16042824,162.67423535999995
3.92,392,0.14800000000000002,-1.28,-0.13,-29.67922440000001,-32.372127,-6.5317212,69.80347314,0.11459160000000004,162.3476493
3.9299999999999997,393,0.001,-1.411,-0.108,-23.032911600000002,-33.116972399999995,-35.6379876,69.59147868,0.33804522,161.91220122
3.94,394,-0.146,-1.307,-0.079,-20.626488,-40.737313799999995,-48.529542600000006,69.37948422,0.6589017,161.36216154000005
3.9499999999999997,395,-0.212,-1.129,-0.108,-18.449247600000003,-43.4302164,-47.555514,69.19040808,0.95683986,160.78920354
3.96,396,-0.23,-1.005,-0.087,-6.760904399999999,-42.91455420000001,-42.97185,69.11592354000001,1.21467096,160.23916386
3.9699999999999998,397,-0.247,-0.954,-0.13,6.016058999999999,-38.7319608,-37.1276784,69.16748976,1.432395,159.74641997999996
3.98,398,-0.276,-0.885,-0.091,19.8243468,-33.4607472,-30.1375908,69.39667296,1.5527161800000002,159.32816064
3.9899999999999998,399,-0.315,-0.8490000000000001,-0.026,30.7678446,-19.0222056,-24.8663772,69.70607028,1.73033316,159.06459996
4.0,400,-0.308,-0.835,0.05,38.67466500000001,-4.7555514,-22.459953600000002,70.09568172,1.93086846,158.95000836000003
4.01,401,-0.28600000000000003,-0.8340000000000001,0.086,45.6074568,9.568398599999998,-22.631841,70.5597777,2.1772404,158.9671971
4.02,402,-0.252,-0.818,0.12,55.2331512,27.3300966,-22.7464326,71.12127654,2.47517856,159.15627324
4.03,403,-0.208,-0.8170000000000001,0.136,63.1399716,37.2995658,-20.454600600000006,71.81455572,2.75592798,159.44848182
4.04,404,-0.16,-0.8370000000000001,0.107,67.83822719999999,44.0031744,-15.4125702,72.51356448,3.0366774000000003,159.8266341
4.05,405,-0.127,-0.865,0.055,69.72898860000001,49.847346,-7.1046792000000005,73.24122114,3.24294228,160.29073008
4.06,406,-0.126,-0.856,0.002,67.895523,54.6601932,4.8701430000000006,73.95741863999999,3.34034514,160.8293106
4.07,407,-0.156,-0.779,-0.034,63.5410422,59.1292656,17.9908812,74.6277795,3.31742682,161.45383482
4.08,408,-0.214,-0.6729999999999999,-0.069,58.9000824,63.4264506,29.9657034,75.26376287999999,3.15699858,162.14711400000004
4.09,409,-0.294,-0.531,-0.104,55.4623344,65.66098679999999,39.7059894,75.8596392,2.9220858,162.88050024
4.1,410,-0.34700000000000003,-0.425,-0.094,53.0559108,68.41118519999999,45.0344988,76.42686762000002,2.6413363800000003,163.65399354
4.109999999999999,411,-0.293,-0.388,-0.156,42.28430039999999,79.92764100000002,46.753372799999994,76.88523402000001,2.35485738,164.53634886
4.12,412,-0.181,-0.373,-0.295,26.0122932,86.1728832,47.4409224,77.17171302,2.0626488000000003,165.48172956000005
4.13,413,0.067,-0.424,-0.274,13.120738199999998,95.4548028,47.3263308,77.31495251999998,1.8048176999999999,166.51305396
4.14,414,0.402,-0.635,-0.24,-0.6875496,104.851314,50.5348956,77.32641168,1.51260912,167.63605164
4.1499999999999995,415,0.794,-1.324,-0.539,-39.0184398,78.8390208,67.0933818,76.94252982,1.00840608,168.54132528
4.16,416,1.278,-2.33,-0.882,-63.311859,14.5531332,107.9452872,76.30654644,-0.00572958,168.92520714
4.17,417,1.6880000000000002,-2.076,-0.652,-17.475219,-10.4851314,116.4250656,76.12892946000002,-1.15164558,169.09136496000005
4.18,418,1.526,-1.791,-0.6859999999999999,-83.4799806,-46.352302200000004,108.575541,75.29241078,-2.30329116,168.90228882
4.1899999999999995,419,1.034,-1.409,-0.75,-96.9444936,-76.77637200000002,101.127087,74.34703008,-3.46066632,168.41527451999997
4.2,420,0.446,-1.132,-0.6970000000000001,-77.6931048,-100.1530584,64.457775,73.63083258,-4.3315624800000005,167.61886289999995
4.21,421,-0.305,-1.148,-0.5,-41.539455,-111.440331,11.6310474,73.30424652,-4.73263308,166.58180892
4.22,422,-0.946,-1.195,-0.44,-2.291832,-102.6167778,-32.658606,73.38446064,-4.68679644,165.50464788
4.2299999999999995,423,-1.3030000000000002,-1.252,-0.39,19.595163600000006,-75.00020219999998,-62.3378304,73.65948048,-4.297185000000002,164.61656298
4.24,424,-1.37,-1.224,-0.188,17.8762896,-32.257535399999995,-74.3699484,73.88293409999999,-3.6669312000000014,164.10090078
4.25,425,-1.115,-1.157,0.116,9.797581800000001,18.907614000000002,-64.51507079999999,73.98033696,-3.00229992,164.10663036
4.26,426,-0.6679999999999999,-1.154,0.241,-6.760904399999999,79.0109082,-40.2789474,73.87147494000001,-2.42361234,164.75407289999995
4.27,427,-0.257,-1.3030000000000002,0.114,-18.9649098,102.1584114,-15.2979786,73.625103,-2.02254174,165.68799443999995
4.28,428,0.009000000000000001,-1.415,-0.033,-19.3659804,112.0705848,6.8182002000000015,73.39019022,-1.79908812,166.77661464
4.29,429,0.245,-1.431,-0.085,-11.172681,116.4823614,23.2620948,73.2240324,-1.7188740000000002,167.95690812
4.3,430,0.486,-1.33,-0.13,-7.5057497999999985,111.84140159999998,33.4607472,73.09798164,-1.7475218999999995,169.12001286
4.31,431,0.652,-1.163,-0.231,-5.443101,95.970465,36.5547204,73.00057878,-1.84492476,170.1398781
4.32,432,0.7070000000000001,-0.944,-0.275,2.4064236,71.1040878,31.79916900000001,72.98911962000003,-1.9595163600000003,170.90764182
4.33,433,0.635,-0.7659999999999999,-0.28800000000000003,15.183387000000002,41.8832298,18.334656,73.10944079999999,-1.86784308,171.36600822
4.34,434,0.536,-0.6940000000000001,-0.202,28.7051958,4.9274388,5.2139178,73.3959198,-1.90222056,171.4290336
4.35,435,0.445,-0.6509999999999999,-0.098,35.2942128,-19.1367972,-2.1199446,73.76261292000002,-1.92513888,171.23995746
4.36,436,0.364,-0.5920000000000001,0.005,36.6120162,-36.4401288,-7.5630456000000015,74.15222436,-1.94232762,170.87326434
4.37,437,0.302,-0.509,0.046,38.7892566,-47.1544434,-12.9488508,74.57048370000003,-1.92513888,170.39197962
4.38,438,0.264,-0.441,0.068,47.0398518,-53.34238979999999,-18.907614000000002,75.08614589999998,-1.8334656000000005,169.83621036
4.39,439,0.241,-0.4270000000000001,0.094,57.2385042,-57.1239126,-24.8663772,75.69348138000002,-1.7188740000000002,169.22887488
4.3999999999999995,440,0.219,-0.465,0.104,66.00476160000001,-57.811462199999994,-30.5386614,76.39249013999998,-1.53552744,168.60435066
4.41,441,0.192,-0.532,0.06,69.6716928,-57.7541664,-34.8931422,77.12014680000001,-1.30634424,167.96836728
4.42,442,0.16699999999999998,-0.608,-0.013,68.98414319999999,-58.3271244,-38.10170700000001,77.84207388,-1.03705398,167.33238390000002
4.43,443,0.151,-0.65,-0.066,66.749607,-59.58763199999999,-39.1330314,78.54108264,-0.7448454000000001,166.67921178
4.4399999999999995,444,0.126,-0.649,-0.126,63.5410422,-63.6556338,-39.6486936,79.19998434,-0.4526368200000001,165.98593259999996
4.45,445,0.059,-0.635,-0.227,53.39968560000001,-73.3959198,-38.67466500000001,79.75575359999998,-0.18334656,165.20670972
4.46,446,0.009000000000000001,-0.5760000000000001,-0.257,43.6021038,-71.1613836,-38.7892566,80.20839042,0.09167328,164.45040516
4.47,447,-0.073,-0.58,-0.28800000000000003,24.8090814,-69.38521379999999,-39.877876799999996,80.46622152,0.38961144,163.71128934
4.4799999999999995,448,-0.16,-0.605,-0.343,-8.4224826,-67.49445240000001,-44.34694920000001,80.34590034,0.70473834,162.97217352
4.49,449,-0.329,-0.677,-0.406,-38.10170700000001,-56.78013780000001,-52.82672760000001,79.9562889,1.14018642,162.32473098
4.5,450,-0.627,-0.938,-0.47,-54.25912260000001,-11.45916,-70.5311298,79.40051964,1.8048176999999999,162.08408862000005
4.51,451,-0.8440000000000001,-1.403,-0.479,-37.5860448,37.0130868,-95.0537322,79.02236736,2.78457588,162.26743518
4.52,452,-0.8540000000000001,-1.446,-0.371,-29.4500412,40.6227222,-98.2050012,78.7244292,3.810170700000002,162.47370006
4.53,453,-0.6729999999999999,-1.336,-0.33,-42.05511720000001,36.669312,-68.0674104,78.30616986,4.50917946,162.6914241
4.54,454,-0.544,-1.862,-0.537,-46.4668938,36.4401288,-42.62807520000001,77.85353303999999,4.9847346,162.96071436
4.55,455,-0.401,-2.318,-0.358,-34.8358464,57.00932099999999,-26.929026,77.53267656,5.3456981400000005,163.45345823999997
4.56,456,0.012,-1.793,-0.067,-33.804522,102.5021862,-3.7815227999999994,77.26911588,5.574881339999999,164.44467558000005
4.57,457,0.4320000000000001,-1.33,-0.149,-18.2200644,120.66495479999999,24.5226024,77.18890176,5.56915176,165.67080570000005
4.58,458,0.6729999999999999,-1.213,-0.124,24.637194,91.3295052,49.4462754,77.52694698,5.28840234,166.6734822
4.59,459,0.6890000000000001,-1.122,-0.068,31.8564648,46.352302200000004,50.993262,77.89936967999998,4.88160216,167.23498104
4.6,460,0.5920000000000001,-1.064,0.001,25.6112226,9.797581800000001,41.7113424,78.17438952,4.4977203,167.4183276
4.61,461,0.47,-1.113,0.08800000000000001,13.9228794,-13.0634424,30.0229992,78.31189943999998,4.1825934,167.34957264
4.62,462,0.278,-1.247,0.07200000000000001,-3.4950437999999995,-21.3140376,14.9542038,78.2660628,3.99924684,167.17195566
4.63,463,0.127,-1.345,0.014,-15.126091199999998,-20.626488,-2.9793816000000004,78.12282330000002,3.99351726,166.96569078
4.64,464,-0.071,-1.3769999999999998,-0.015,-17.475219,-13.2353298,-18.162768600000003,77.93374716000002,4.14248634,166.79380338
4.6499999999999995,465,-0.267,-1.367,-0.033,-13.6364004,-5.3858052,-26.7571386,77.79050766,4.38885828,166.68494135999995
4.66,466,-0.397,-1.25,-0.095,-5.6149884000000005,2.1772404,-23.491278,77.72748228,4.62377106,166.65629346
4.67,467,-0.438,-1.079,-0.135,0.9740286,10.1986524,-10.8289062,77.74467102000001,4.74409224,166.73650758
4.68,468,-0.484,-0.897,-0.131,10.7716104,21.5432208,3.724227,77.87645136,4.5836640000000015,166.94850204000005
4.6899999999999995,469,-0.526,-0.7709999999999999,-0.104,19.938938399999998,34.7212548,15.9282324,78.10563456,4.49199072,167.32092473999995
4.7,470,-0.522,-0.6940000000000001,-0.063,24.064235999999998,48.8160216,24.694489800000003,78.38638397999998,4.34302164,167.84804609999995
4.71,471,-0.475,-0.64,-0.021,25.8977016,65.14532460000001,30.366774000000003,78.69005172,4.15967508,168.54705486
4.72,472,-0.405,-0.5710000000000001,-0.017,26.5852512,82.1048814,34.4920716,79.01663778,3.95913978,169.41795101999998
4.7299999999999995,473,-0.328,-0.488,-0.032,28.304125199999998,97.975818,38.5600734,79.36041258,3.71276784,170.44927542
4.74,474,-0.258,-0.419,-0.065,29.1062664,112.5289512,42.7426668,79.71564654,3.4663959,171.62956889999995
4.75,475,-0.16899999999999998,-0.362,-0.118,28.0176462,121.6962792,47.4409224,80.05942134,3.18564648,172.90153565999995
4.76,476,-0.076,-0.309,-0.152,25.8977016,127.3112676,51.9672906,80.37454824,2.85906042,174.24225738
4.77,477,0.035,-0.231,-0.132,23.777757,126.623718,54.4883058,80.66675682,2.49809688,175.57151994
4.78,478,0.138,-0.121,-0.069,20.7410796,119.97740520000002,53.9153478,80.90739918,2.15432208,176.83202753999996
4.79,479,0.254,-0.029,0.034,15.6417534,115.45103700000001,49.1025006,81.09074574,1.81627686,178.04096892
4.8,480,0.425,-0.042,-0.055,-0.1718874,118.1439396,40.393539,81.11366405999998,1.56990492,179.26136946
4.81,481,0.536,-0.153,-0.19,-25.55392680000001,100.9551996,33.4607472,80.86729212,1.36936962,-179.69108795999998
4.82,482,0.6509999999999999,-0.35,-0.23,-57.1239126,77.0055552,31.340802600000004,80.29433412,1.1573751600000002,-178.89467634
4.83,483,0.785,-0.629,-0.417,-77.23473840000003,56.2071798,32.2002396,79.49219292000002,0.96829902,-178.29880002
4.84,484,1.022,-1.413,-0.91,-108.05987879999999,3.2085648,43.3156248,78.39784313999998,0.53858052,-178.19566758
4.85,485,1.252,-2.815,-0.937,-109.0912032,-52.54024860000001,77.5785132,77.29776378,-0.32085648,-178.55663112
4.86,486,1.13,-2.391,-0.272,-15.0687954,-42.4561878,72.0208206,77.15452428,-1.10007936,-178.81446222
4.87,487,0.604,-2.002,-0.429,-83.4799806,-38.0444112,57.2958,76.31800559999998,-1.73606274,-179.06083415999996
4.88,488,0.18,-1.584,-0.493,-68.35388940000001,-31.1689152,45.3782736,75.63045600000002,-2.24599536,-179.25563988000005
4.89,489,-0.309,-1.2009999999999998,-0.348,-6.875496000000001,-39.9351726,5.2712136,75.57888978000003,-2.38923486,-179.63379216
4.8999999999999995,490,-0.826,-1.102,-0.135,30.3094782,-30.0229992,-30.65325300000001,75.90547584,-2.15432208,-179.99475569999996
4.91,491,-1.063,-1.118,-0.103,44.1750618,-7.7922288,-47.269034999999995,76.36384224,-1.7074148399999998,179.81713872
4.92,492,-1.054,-1.16,-0.024,35.5806918,30.4813656,-39.19032720000001,76.71334662,-1.26623718,-179.96610780000003
4.93,493,-0.852,-1.146,0.132,10.3705398,73.96887779999999,-12.6623718,76.82220864,-1.04278356,-179.2785582
4.9399999999999995,494,-0.539,-1.197,0.145,-3.9534102,106.570188,18.449247600000003,76.7477241,-1.00840608,-178.20712674
4.95,495,-0.29100000000000004,-1.354,0.086,-10.255948199999999,118.60230599999998,39.820581,76.60448459999998,-1.1573751600000002,-176.96953746
4.96,496,-0.071,-1.4280000000000002,0.04,-7.9641161999999985,123.18597,54.20182679999999,76.47843384000002,-1.42666542,-175.65173406
4.97,497,0.182,-1.454,0.012,5.0993262,124.10270279999999,63.5410422,76.47843384000002,-1.78762896,-174.30528276
4.9799999999999995,498,0.473,-1.338,-0.016,22.1161788,113.0446134,63.59833800000001,76.65605081999998,-2.1485925000000003,-173.0619639
4.99,499,0.634,-1.103,-0.035,30.7105488,95.397507,53.858052,76.91388192,-2.47517856,-172.01345076
5.0,500,0.653,-0.935,0.083,37.7006364,81.64651500000002,42.5707794,77.24619756,-2.7215505,-171.12536586000004
5.01,501,0.575,-0.858,0.16,38.61736920000001,69.2706222,34.091001,77.58997236,-2.9220858,-170.37479088
5.02,502,0.4320000000000001,-0.868,0.15,34.8358464,57.4103916,33.2888598,77.90509926,-3.13408026,-169.74453708
5.03,503,0.28,-0.878,0.147,31.741873200000004,53.11320660000001,35.0077338,78.22595574,-3.34034514,-169.15439034000005
5.04,504,0.171,-0.846,0.13,36.4974246,52.139178,34.4920716,78.55827138,-3.5809875,-168.57570276
5.05,505,0.1,-0.7909999999999999,0.103,46.123119,51.7381074,31.1689152,78.98226030000002,-3.79871154,-168.00274475999996
5.06,506,0.061,-0.728,0.066,55.00396800000001,48.7587258,27.3873924,79.4979225,-3.9820580999999997,-167.46989381999995
5.07,507,0.046,-0.6609999999999999,0.02,63.5410422,42.34159620000001,24.7517856,80.10525798,-4.1539455,-167.00579784
5.08,508,0.024,-0.619,-0.083,65.7755784,32.372127,21.8869956,80.73551178,-4.31437374,-166.6448343
5.09,509,-0.009000000000000001,-0.579,-0.151,63.7129296,29.0489706,16.2147114,81.35430642,-4.42896534,-166.32970740000005
5.1,510,-0.005,-0.604,-0.273,55.40503860000001,40.8519054,6.016058999999999,81.88142778,-4.43469492,-165.91144806
5.11,511,0.025,-0.7190000000000001,-0.409,34.950438,60.44706899999999,-8.4224826,82.18509551999998,-4.27999626,-165.3270309
5.12,512,0.023,-0.924,-0.55,9.453807000000001,88.8657858,-26.069589,82.20801384,-3.93049188,-164.48478264
5.13,513,-0.181,-1.221,-0.7290000000000001,-11.0007936,116.3677698,-43.48751220000001,81.99601937999998,-3.380452200000001,-163.39616244
5.14,514,-0.518,-1.543,-0.7959999999999999,-10.313244,125.6496894,-50.133825,81.80694324,-2.7501984,-162.23305770000005
5.1499999999999995,515,-0.7020000000000001,-1.7519999999999998,-0.745,-5.5003968,112.013289,-39.9351726,81.69235164,-2.22880662,-161.18454456
5.16,516,-0.519,-1.713,-0.652,-11.745639,97.3455642,-16.7876694,81.52619381999997,-1.9480572000000005,-160.25635259999999
5.17,517,-0.165,-1.615,-0.471,-0.9167328,102.1011156,0.6875496,81.46889802,-1.8334656000000005,-159.2536761
5.18,518,0.172,-1.54,-0.202,25.3247436,112.6435428,11.516455800000001,81.68089248,-1.8048176999999999,-158.12494884
5.1899999999999995,519,0.353,-1.416,-0.016,39.534102,115.5083328,14.152062599999999,82.03039686,-1.8048176999999999,-156.96757368000004
5.2,520,0.302,-1.543,-0.043,34.091001,114.018642,6.990087599999999,82.32260544,-1.75325148,-155.83311684
5.21,521,-0.006,-1.895,-0.102,17.589810600000003,118.48771440000002,-15.0114996,82.45438578,-1.4782316400000002,-154.68720084
5.22,522,-0.207,-2.162,-0.102,4.6982556,126.2799432,-35.4088044,82.45438578,-1.0026765,-153.48971862000005
5.2299999999999995,523,-0.339,-2.097,-0.116,-5.443101,130.920903,-42.05511720000001,82.36844208,-0.4526368200000001,-152.25785892000005
5.24,524,-0.321,-1.773,-0.069,-7.333862400000001,136.9942578,-34.7785506,82.27103922,0.02291832,-150.95724426
5.25,525,-0.227,-1.472,0.015,0.286479,149.1982632,-21.027558600000006,82.25958005999998,0.38961144,-149.51339009999995
5.26,526,-0.118,-1.224,0.081,10.3705398,164.84001659999996,-5.042030400000002,82.35698292000002,0.61306506,-147.90337812
5.27,527,-0.044,-1.024,0.114,12.6623718,178.0180506,11.8602306,82.48303368,0.68182002,-146.1329379
5.28,528,-0.022,-0.853,0.112,6.130650599999999,186.1540542,27.501984000000004,82.55751822,0.59587632,-144.26509482
5.29,529,-0.043,-0.73,0.1,-3.4950437999999995,191.8263384,42.5707794,82.51168158,0.3724227000000001,-142.32849678
5.3,530,-0.07200000000000001,-0.649,0.092,-9.797581800000001,199.9050462,51.9672906,82.39708998,0.06302537999999999,-140.29449588
5.31,531,-0.101,-0.608,0.097,-14.152062599999999,209.8745154,57.06661679999999,82.219473,-0.27501984,-138.16309212000002
5.32,532,-0.105,-0.605,0.093,-19.767051,223.22443680000003,58.0406454,81.97310106,-0.6016058999999999,-135.89417844
5.33,533,-0.101,-0.649,0.061,-25.0382646,238.29323219999998,54.43101,81.66370374,-0.87662574,-133.48202526
5.34,534,-0.111,-0.723,0.047,-28.4187168,253.7630982,46.8106686,81.29701062000002,-1.03705398,-130.92663258
5.35,535,-0.156,-0.8170000000000001,0.042,-33.3461556,269.003781,36.5547204,80.87302170000002,-1.0599723,-128.23372998
5.36,536,-0.192,-0.911,0.039,-39.591397799999996,281.15049060000007,25.84040580000001,80.3860074,-0.93965112,-125.44342451999998
5.37,537,-0.188,-0.994,0.045,-43.9458786,290.776185,15.985528200000001,79.85888604,-0.6875496,-122.57863452
5.38,538,-0.142,-1.083,0.075,-43.544808,299.7143298,8.078707799999998,79.36041258,-0.32085648,-119.63935998
5.39,539,-0.064,-1.133,0.116,-39.247623,306.6471216,4.3544808,78.91350534,0.11459160000000004,-116.64278964
5.3999999999999995,540,0.061,-1.137,0.146,-33.8618178,311.0588982,2.7501984,78.54681221999998,0.6016058999999999,-113.61184182
5.41,541,0.202,-1.082,0.151,-28.2468294,311.00160239999997,2.4064236,78.2660628,1.10580894,-110.580894
5.42,542,0.3,-1.012,0.11,-24.2361234,306.58982579999997,1.5469866,78.04833876000002,1.6272007199999998,-107.59578282
5.43,543,0.332,-0.937,0.047,-22.5172494,299.1986676,0.3437748,77.88791051999998,2.1772404,-104.68515618
5.4399999999999995,544,0.34,-0.865,-0.066,-21.772404,289.5156774,-0.057295800000000015,77.74467102000001,2.69863218,-101.8719324
5.45,545,0.28300000000000003,-0.8059999999999999,-0.154,-20.454600600000006,273.1863744,1.3750992,77.63580900000002,3.18564648,-99.21340727999998
5.46,546,0.22,-0.809,-0.174,-17.131444199999994,254.5079436,2.9220857999999996,77.5785132,3.62682414,-96.73822872
5.47,547,0.183,-0.8490000000000001,-0.16399999999999998,-17.9335854,242.53312140000003,3.6669312000000014,77.52121740000003,4.0393539,-94.37191218
5.4799999999999995,548,0.179,-0.907,-0.179,-17.8762896,232.44906060000002,3.9534102,77.47538076,4.4404245000000016,-92.1029985
5.49,549,0.195,-0.987,-0.21,-15.9282324,222.594183,2.9220857999999996,77.45819202,4.83003594,-89.9257581
5.5,550,0.222,-1.074,-0.235,-14.8396122,212.7393054,0.2291832000000001,77.46392159999998,5.22537696,-87.85737972
5.51,551,0.255,-1.12,-0.204,-14.7250206,204.83248500000002,-2.9220857999999996,77.47538076,5.63790672,-85.86921545999998
5.52,552,0.258,-1.119,-0.08199999999999999,-15.469866,192.9149586,-4.5263682,77.48111034,6.03897732,-83.9956428
5.53,553,0.24,-1.116,-0.02,-20.168121600000006,174.40841519999995,-5.6722842,77.45246244,6.428588760000001,-82.3054167
5.54,554,0.215,-1.082,-0.02,-28.762491600000004,157.62074579999995,-5.443101,77.30922294000001,6.77809314,-80.78134842
5.55,555,0.218,-1.053,-0.004,-34.5493674,147.3647976,-3.380452200000001,77.11441721999998,7.0874904600000015,-79.34895342
5.56,556,0.245,-1.037,-0.034,-39.3049188,141.5779218,-0.6875496,76.86804528,7.36823988,-77.97385421999998
5.57,557,0.299,-1.023,-0.083,-42.112413,142.09358400000005,2.0626488000000003,76.60448459999998,7.62607098,-76.58729586000003
5.58,558,0.361,-1.028,-0.111,-44.2896534,143.7551622,3.2658606,76.32946476,7.90109082,-75.17781918
5.59,559,0.436,-1.028,-0.142,-46.2377106,149.255559,2.7501984,76.04871534,8.18184024,-73.72250586
5.6,560,0.487,-1.028,-0.13,-47.4982182,151.08902460000004,5.2712136,75.75650676000002,8.451130500000001,-72.23854464
5.61,561,0.462,-1.028,-0.177,-57.2958,140.60389320000002,11.9748222,75.36689532,8.640206639999999,-70.84052712
5.62,562,0.336,-0.963,-0.252,-64.8588456,120.4357716,24.4080108,74.87415144,8.66885454,-69.614397
5.63,563,0.193,-0.902,-0.235,-57.811462199999994,105.9399342,37.4714532,74.44443294,8.554262940000001,-68.49139932
5.64,564,0.055,-0.912,-0.17,-45.3782736,99.2363256,48.3003594,74.12930604,8.325079740000001,-67.40277911999999
5.6499999999999995,565,-0.048,-0.958,-0.108,-34.7212548,99.0644382,56.2071798,73.92304116,8.02714158,-66.29124060000001
5.66,566,-0.106,-0.983,-0.048,-25.7258142,103.6481022,60.6189564,73.80844956,7.7062851,-65.12813586000001
5.67,567,-0.118,-0.985,0.022,-18.048177,111.84140159999998,61.134618599999996,73.77980166,7.39688778,-63.87908742
5.68,568,-0.084,-0.973,0.093,-12.4904844,123.3005616,57.467687399999996,73.83709746000002,7.144786260000001,-62.52690654000001
5.6899999999999995,569,-0.026,-0.941,0.127,-8.021412000000002,140.08823099999998,50.3630082,73.91731158,7.00727634,-61.04294532
5.7,570,0.05,-0.931,0.14400000000000002,-4.010706000000001,158.36559119999995,43.1437374,74.0548215,6.98435802,-59.39282628
5.71,571,0.142,-0.966,0.12,-3.0366774,170.741484,38.8465524,74.21524974,7.030194660000001,-57.63957480000001
5.72,572,0.223,-1.026,0.07,-4.7555514,176.12728919999995,38.5027776,74.3699484,7.08176088,-55.84048668000001
5.7299999999999995,573,0.301,-1.08,0.019,-6.417129599999999,174.9240774,41.3675676,74.51891748,7.116138359999999,-54.03566897999999
5.74,574,0.362,-1.091,-0.019,-6.3025379999999975,169.0799058,45.6074568,74.65069782,7.076031300000001,-52.2824175
5.75,575,0.383,-1.05,-0.033,-3.0366774,160.4855358,48.70143,74.80539647999998,6.98435802,-50.60365056000001
5.76,576,0.39,-0.971,-0.043,1.7761698,151.08902460000004,48.414951,74.99447262,6.86976642,-49.01082732
5.77,577,0.361,-0.902,-0.044,7.448453999999999,140.8330764,44.404245,75.2293854,6.76663398,-47.53259568
5.78,578,0.325,-0.862,-0.024,10.1413566,132.1814106,38.2162986,75.49294608,6.7150677599999975,-46.15749648
5.79,579,0.298,-0.8540000000000001,-0.014,10.4278356,126.96749280000002,32.257535399999995,75.73358843999998,6.6806902799999985,-44.84542266
5.8,580,0.293,-0.88,-0.008,9.6256944,122.899491,27.788463,75.96277164,6.6806902799999985,-43.57918548
5.81,581,0.307,-0.915,-0.019,7.3911582,119.5190388,24.637194,76.16330694,6.69787902,-42.35878494
5.82,582,0.339,-0.954,-0.042,5.9014674000000005,116.1385866,22.459953600000002,76.34665349999999,6.72079734,-41.17849146
5.83,583,0.378,-0.994,-0.07200000000000001,5.443101,112.299768,21.199446,76.53572964,6.77809314,-40.03257546
5.84,584,0.415,-1.022,-0.118,5.6722842,107.6588082,20.798375399999998,76.71334662,6.79528188,-38.93822568
5.85,585,0.433,-1.026,-0.147,7.333862400000001,100.6687206,21.485925,76.89669318,6.783822719999999,-37.90690128
5.86,586,0.435,-1.009,-0.161,9.5111028,92.7619002,22.86102420000001,77.0914989,6.74944524,-36.95006142
5.87,587,0.425,-0.98,-0.157,10.7716104,85.37074199999998,24.4653066,77.2920342,6.6749607000000015,-36.06197652
5.88,588,0.402,-0.949,-0.161,9.2819196,76.89096359999998,25.8977016,77.47538076,6.611935319999999,-35.25410574
5.89,589,0.37,-0.921,-0.172,7.8495246,67.609044,27.043617600000005,77.63007941999999,6.474425399999999,-34.53790823999999
5.8999999999999995,590,0.332,-0.92,-0.185,7.2192707999999985,56.78013780000001,27.8457588,77.76185976,6.30826758,-33.9191136
5.91,591,0.292,-0.933,-0.205,7.3911582,47.2117392,27.7311672,77.88791051999998,6.12492102,-33.39772182
5.92,592,0.247,-0.963,-0.239,8.59437,42.112413,26.1841806,78.01969086,5.9473040400000015,-32.933625840000005
5.93,593,0.213,-0.991,-0.253,11.45916,41.3675676,22.6891368,78.16293035999998,5.82125328,-32.48098902
5.9399999999999995,594,0.171,-1.02,-0.253,14.0947668,43.0864416,18.334656,78.34627692000002,5.71812084,-32.02262262000001
5.95,595,0.112,-1.045,-0.245,15.9282324,47.4409224,14.4385416,78.5525418,5.66082504,-31.52987874
5.96,596,0.047,-1.062,-0.247,17.303331600000003,52.425657,11.8602306,78.77599542,5.63790672,-30.99129822
5.97,597,-0.012,-1.063,-0.235,19.1367972,56.608250399999996,11.229976800000001,79.01663778,5.62071798,-30.41261064
5.9799999999999995,598,-0.05,-1.042,-0.21,21.0848544,58.8427866,12.7769634,79.28019846,5.56342218,-29.811004740000005
5.99,599,-0.052000000000000005,-1.006,-0.188,23.2620948,58.49901179999999,16.4438946,79.56667746000002,5.4946672199999975,-29.203669260000005
6.0,600,-0.025,-0.969,-0.16399999999999998,23.835052800000003,55.3477428,21.5432208,79.85888604,5.37434604,-28.6192521
6.01,601,0.01,-0.945,-0.157,21.7151082,49.90464179999999,26.356068,80.12244672,5.1852699,-28.08067158
6.02,602,0.057,-0.942,-0.133,20.1108258,45.8939358,28.6479,80.36308908,4.97327544,-27.58219812
6.03,603,0.1,-0.96,-0.093,19.4232762,46.29500640000001,27.7311672,80.60946102,4.77274014,-27.07799508
6.04,604,0.133,-1.001,-0.08,17.9908812,47.841993,24.2361234,80.82718506,4.6008527400000006,-26.56806246
6.05,605,0.165,-1.043,-0.08800000000000001,15.469866,46.982556,19.194093,81.0162612,4.4748019800000005,-26.07531858
6.06,606,0.19,-1.055,-0.103,11.45916,42.8572584,14.0947668,81.1595007,4.38885828,-25.62841134
6.07,607,0.204,-1.027,-0.108,7.5630456000000015,36.5547204,10.4851314,81.26263314,4.3315624800000005,-25.25598864
6.08,608,0.201,-0.973,-0.104,4.4117766,28.6479,8.4224826,81.33711767999998,4.34302164,-24.96378006
6.09,609,0.177,-0.913,-0.094,0.057295800000000015,18.6784308,7.2192707999999985,81.34857683999998,4.297185000000002,-24.768974340000003
6.1,610,0.125,-0.8590000000000001,-0.08,-4.8128472,9.568398599999998,5.72958,81.30846978000002,4.25134836,-24.6658419
6.11,611,0.061,-0.8270000000000001,-0.068,-9.5111028,4.5263682,3.0366774,81.21106692,4.22270046,-24.61427568
6.12,612,-0.005,-0.828,-0.068,-13.5791046,4.7555514,-0.9740286,81.07928658,4.2398892,-24.57416862
6.13,613,-0.051,-0.882,-0.08800000000000001,-16.7876694,9.568398599999998,-5.9014674000000005,80.92458792,4.25134836,-24.48822492
6.14,614,-0.079,-0.978,-0.115,-18.2200644,15.5844576,-10.255948199999999,80.74697094,4.37166954,-24.350715
6.15,615,-0.097,-1.104,-0.13699999999999998,-16.1001198,19.8243468,-12.7769634,80.59227228,4.5206386200000015,-24.1788276
6.16,616,-0.101,-1.237,-0.13699999999999998,-10.313244,20.8556712,-12.5477802,80.500599,4.675337279999999,-23.99548104
6.17,617,-0.077,-1.283,-0.12,-3.151269,18.7357266,-8.7089616,80.47768067999998,4.784199299999999,-23.82359364
6.18,618,-0.028,-1.25,-0.101,2.578311,15.469866,-2.578311,80.54070606,4.80138804,-23.67462456
6.1899999999999995,619,0.013,-1.173,-0.085,6.6463128000000005,13.464512999999998,3.0366774,80.61519059999998,4.78992888,-23.53138506
6.2,620,0.035,-1.099,-0.059,8.59437,12.0894138,6.9327918,80.71259346,4.73836266,-23.4053343
6.21,621,0.04,-1.04,-0.025,9.2819196,10.313244,8.9954406,80.8157259,4.66387812,-23.28501312
6.22,622,0.028,-1.005,-0.006,11.229976800000001,9.5111028,9.740286,80.93604708,4.5836640000000015,-23.1761511
6.2299999999999995,623,0.002,-0.989,-0.014,13.407217200000002,10.3705398,10.313244,81.1308528,4.45761324,-23.05010034
6.24,624,-0.046,-0.985,-0.019,14.667724800000002,11.2872726,10.886202,81.29128104,4.36593996,-22.92404958
6.25,625,-0.101,-0.977,-0.009000000000000001,14.037471,12.4331886,10.9434978,81.44025012,4.27426668,-22.78081008
6.26,626,-0.141,-0.963,-0.003,11.4018642,13.6364004,10.1413566,81.56630088,4.19405256,-22.631841
6.27,627,-0.172,-0.935,-0.025,8.9381448,16.4438946,9.0527364,81.66943332,4.1252976000000015,-22.45422402
6.28,628,-0.195,-0.905,-0.054000000000000006,7.2765666,21.6005166,8.193299399999999,81.77256575999998,3.95913978,-22.22504082
6.29,629,-0.203,-0.885,-0.094,5.3285094000000015,26.642547,7.8495246,81.84132072,3.91330314,-21.95002098
6.3,630,-0.193,-0.888,-0.113,3.2085648,30.252182399999995,7.5630456000000015,81.89288694,3.873196080000002,-21.64635324
6.31,631,-0.14800000000000002,-0.914,-0.116,1.7761698,32.7731976,6.760904399999999,81.92726442,3.84454818,-21.3140376
6.32,632,-0.043,-0.979,-0.126,2.5210152000000003,34.5493674,5.72958,81.97310106,3.82735944,-20.96453322
6.33,633,0.068,-1.0590000000000002,-0.153,1.7188740000000002,36.2109456,4.4690724,81.99601937999998,3.8388186000000006,-20.60356968
6.34,634,0.17600000000000002,-1.137,-0.196,0.0,35.0077338,3.5523396000000003,82.0189377,3.8388186000000006,-20.24833572
6.35,635,0.245,-1.185,-0.22,0.6302538000000001,31.627281600000003,4.1825934,82.04185602,3.83308902,-19.93320882
6.36,636,0.262,-1.182,-0.212,5.2139178,26.0122932,6.1879464,82.11061098,3.80444112,-19.66964814
6.37,637,0.235,-1.138,-0.183,11.8602306,19.7097552,8.250595200000001,82.24239132,3.74141574,-19.46338326
6.38,638,0.18600000000000005,-1.079,-0.163,16.1001198,14.7823164,9.568398599999998,82.39708998,3.70130868,-19.30295502
6.39,639,0.136,-1.015,-0.152,16.673077799999998,10.3705398,10.1413566,82.57470696,3.61536498,-19.18836342
6.4,640,0.08800000000000001,-0.955,-0.132,16.501190400000002,6.4744254,9.9121734,82.74659436,3.5236917,-19.1081493
6.41,641,0.057,-0.919,-0.107,16.558486199999994,2.4064236,8.59437,82.91848175999998,3.44347758,-19.07377182
6.42,642,0.045,-0.907,-0.085,17.0741484,0.7448454000000001,7.2765666,83.09036916,3.37472262,-19.056583080000006
6.43,643,0.046,-0.908,-0.079,17.303331600000003,0.4010706,6.417129599999999,83.26798613999998,3.3116972399999995,-19.03939434
6.4399999999999995,644,0.052000000000000005,-0.913,-0.078,16.7303736,-0.4583664000000001,5.958763200000001,83.43987354000002,3.25440144,-19.03939434
6.45,645,0.056,-0.916,-0.078,15.6990492,-2.2345362,5.9014674000000005,83.60030178,3.1913760600000005,-19.0508535
6.46,646,0.056,-0.92,-0.073,14.0947668,-3.724227,5.9014674000000005,83.74354128,3.13408026,-19.0795014
6.47,647,0.061,-0.922,-0.07200000000000001,12.1467096,-4.5263682,5.9014674000000005,83.86386246,3.07105488,-19.11960846
6.4799999999999995,648,0.069,-0.933,-0.07,10.7716104,-4.1825934,5.9014674000000005,83.97845406,3.03094782,-19.15398594
6.49,649,0.075,-0.944,-0.07400000000000001,9.3965112,-2.1772404,5.72958,84.07012734,2.9736520200000003,-19.165445100000003
6.5,650,0.08,-0.964,-0.08199999999999999,8.8235532,0.0,5.443101,84.16180062,2.9220858,-19.15971552
6.51,651,0.086,-0.989,-0.08800000000000001,8.307891,1.7761698,5.2139178,84.24774432000002,2.87051958,-19.136797199999997
6.52,652,0.098,-1.019,-0.096,7.5630456000000015,3.6096354,4.8128472,84.32795844,2.82468294,-19.09669014
6.53,653,0.111,-1.043,-0.101,6.760904399999999,5.3858052,4.2398892,84.37379508000002,2.84760126,-19.03939434
6.54,654,0.123,-1.0590000000000002,-0.107,6.1879464,6.3025379999999975,3.2085648,84.44255003999999,2.81895336,-18.97636896
6.55,655,0.131,-1.0659999999999998,-0.103,6.016058999999999,6.6463128000000005,1.8907613999999997,84.50557542,2.8074942000000003,-18.907614
6.56,656,0.127,-1.065,-0.1,6.0733548,6.417129599999999,0.6875496,84.56860079999998,2.8074942000000003,-18.844588620000003
6.57,657,0.117,-1.056,-0.096,6.016058999999999,5.1566220000000005,-0.5156622000000001,84.63162618,2.81322378,-18.793022399999998
6.58,658,0.108,-1.039,-0.08900000000000001,5.72958,3.7815227999999994,-1.432395,84.67173324000002,2.91062664,-18.75864492
6.59,659,0.101,-1.02,-0.078,5.2712136,2.5210152000000003,-2.1199446,84.72902904,2.93354496,-18.7357266
6.6,660,0.097,-0.999,-0.071,4.9847345999999995,1.432395,-2.8074942000000003,84.78059526000001,2.96219286,-18.71853786
6.61,661,0.101,-0.982,-0.065,4.3544808,0.7448454000000001,-3.2085648,84.82070232,2.9965703400000003,-18.71853786
6.62,662,0.107,-0.974,-0.064,3.6669312000000014,0.2291832000000001,-3.4950437999999995,84.86080938,3.03094782,-18.71853786
6.63,663,0.11,-0.973,-0.068,2.9793816000000004,-0.3437748,-3.7815227999999994,84.87799812,3.20283522,-18.729997020000006
6.64,664,0.113,-0.976,-0.07,2.2345362,-0.7448454000000001,-3.9534102,84.90091644,3.24294228,-18.74145618
6.65,665,0.109,-0.983,-0.071,1.8907613999999997,-1.7761698,-3.8388186,84.91810518,3.27731976,-18.75864492
6.66,666,0.105,-0.989,-0.067,1.6615782,-2.5210152000000003,-3.6669312000000014,84.93529392,3.3116972399999995,-18.78729282
6.67,667,0.098,-0.993,-0.062,1.7188740000000002,-2.9220857999999996,-3.151269,84.95248266,3.34607472,-18.8216703
6.68,668,0.08900000000000001,-0.999,-0.055,1.8334656000000005,-3.2085648,-2.578311,84.98686014,3.43201842,-18.85604778
6.6899999999999995,669,0.079,-1.005,-0.055,1.8907613999999997,-3.5523396000000003,-2.0626488000000003,85.00404888,3.4492071599999994,-18.89042526
6.7,670,0.07,-1.013,-0.054000000000000006,2.0626488000000003,-3.4950437999999995,-1.6042823999999998,85.0269672,3.46066632,-18.93053232
6.71,671,0.06,-1.022,-0.05,2.291832,-2.9220857999999996,-1.2605076000000002,85.04988552,3.47212548,-18.95918022
6.72,672,0.05,-1.028,-0.047,2.4637194,-2.5210152000000003,-0.9167328,85.07280384,3.48358464,-18.982098540000006
6.7299999999999995,673,0.043,-1.023,-0.051,2.8074942000000003,-1.2605076000000002,-0.6302538000000001,85.13582922,3.43201842,-18.9935577
6.74,674,0.04,-1.013,-0.051,3.0366774,-0.286479,-0.286479,85.16447712,3.4377480000000005,-18.99928728
6.75,675,0.043,-1.003,-0.052000000000000005,2.9220857999999996,0.9740286,-0.1718874,85.19885459999998,3.4377480000000005,-18.98782812
6.76,676,0.052000000000000005,-0.995,-0.049,3.0939732,2.7501984,-0.057295800000000015,85.2275025,3.44347758,-18.95918022
6.77,677,0.061,-0.992,-0.051,3.2085648,3.8388186,-0.057295800000000015,85.26187998,3.44347758,-18.91907316
6.78,678,0.07,-0.998,-0.055,3.151269,4.1252976000000015,0.057295800000000015,85.30198704,3.48358464,-18.878966100000003
6.79,679,0.077,-1.005,-0.061,2.8074942000000003,3.7815227999999994,0.286479,85.33063494000002,3.48358464,-18.844588620000003
6.8,680,0.08199999999999999,-1.011,-0.07,2.3491278,2.7501984,0.7448454000000001,85.35355326,3.47785506,-18.81594072
6.81,681,0.086,-1.013,-0.077,1.6615782,0.5156622000000001,1.3178034,85.37647158,3.4663959,-18.80448156
6.82,682,0.084,-1.009,-0.079,1.4896908000000002,-1.3178034,1.7188740000000002,85.38793074,3.44347758,-18.8216703
6.83,683,0.08,-1.005,-0.079,2.0626488000000003,-2.7501984,1.9480572,85.36501242,3.47212548,-18.8503182
6.84,684,0.075,-1.001,-0.075,2.6356068,-4.010706000000001,2.0053530000000004,85.39366032000002,3.4492071599999994,-18.88469568
6.85,685,0.069,-1.0,-0.07400000000000001,2.9793816000000004,-5.042030400000002,1.7761698,85.42230822,3.43201842,-18.936261899999998
6.86,686,0.059,-1.003,-0.075,2.9793816000000004,-5.844171599999999,1.5469866,85.44522654,3.4148296799999995,-18.9935577
6.87,687,0.051,-1.003,-0.076,2.6356068,-6.2452422,1.3178034,85.47387444,3.39764094,-19.0508535
6.88,688,0.044,-1.002,-0.07400000000000001,2.6356068,-6.2452422,0.9740286,85.46814486,3.36326346,-19.11387888
6.89,689,0.034,-1.004,-0.073,3.2658606,-5.7868758000000025,0.8594370000000001,85.49679276,3.3518043,-19.17117468
6.9,690,0.03,-1.001,-0.069,3.7815227999999994,-5.042030400000002,0.6302538000000001,85.53689982,3.34607472,-19.222740899999998
6.91,691,0.031,-1.001,-0.066,4.3544808,-4.583664,0.4010706,85.57700688,3.34034514,-19.26284796
6.92,692,0.035,-1.0,-0.062,4.4690724,-4.3544808,0.2291832000000001,85.62284352,3.33461556,-19.308684600000007
6.93,693,0.041,-1.001,-0.058,4.4117766,-4.0680017999999984,0.11459160000000004,85.65722099999998,3.31742682,-19.34879166
6.9399999999999995,694,0.051,-1.002,-0.058,4.1252976000000015,-4.1252976000000015,0.057295800000000015,85.69732806,3.3116972399999995,-19.38889872
6.95,695,0.057,-1.002,-0.059,4.1252976000000015,-4.2398892,0.057295800000000015,85.73743512,3.3116972399999995,-19.42900578
6.96,696,0.058,-1.002,-0.059,4.0680017999999984,-4.5263682,0.057295800000000015,85.77754218,3.3059676599999994,-19.47484242
6.97,697,0.057,-1.0,-0.06,3.4377480000000005,-5.0993262,0.057295800000000015,85.81191966,3.3059676599999994,-19.52640864
6.9799999999999995,698,0.054000000000000006,-0.999,-0.059,2.86479,-5.6722842,0.11459160000000004,85.81764924000002,3.30023808,-19.57797486
6.99,699,0.051,-0.998,-0.058,2.6929026,-6.3598338,0.2291832000000001,85.84629714,3.2945085,-19.64100024
7.0,700,0.045,-0.995,-0.058,2.86479,-6.9327918,0.11459160000000004,85.86921545999998,3.28877892,-19.7097552
7.01,701,0.04,-0.994,-0.054000000000000006,3.0366774,-6.875496000000001,0.0,85.89786336,3.28877892,-19.77851016
7.02,702,0.038,-0.993,-0.048,3.0939732,-6.4744254,0.0,85.92651126,3.28877892,-19.84153554
7.03,703,0.037000000000000005,-0.997,-0.044,2.9793816000000004,-5.844171599999999,-0.11459160000000004,85.96088874,3.26013102,-19.89883134
7.04,704,0.034,-1.003,-0.043,3.151269,-5.1566220000000005,-0.11459160000000004,85.98953664,3.26013102,-19.950397560000006
7.05,705,0.036000000000000004,-1.012,-0.045,3.6669312000000014,-4.297185,-0.286479,86.02964370000002,3.26013102,-19.9962342
7.06,706,0.039,-1.018,-0.041,3.7815227999999994,-3.8388186,-0.286479,86.06402118000004,3.26013102,-20.03061168
7.07,707,0.045,-1.02,-0.038,3.7815227999999994,-3.4377480000000005,-0.11459160000000004,86.10412824,3.2658606,-20.06498916
7.08,708,0.048,-1.02,-0.038,3.5523396000000003,-3.0366774,0.0,86.14996488,3.25440144,-20.09363706
7.09,709,0.051,-1.017,-0.035,3.3231564,-2.9220857999999996,0.2291832000000001,86.18434235999996,3.2486718599999995,-20.12228496
7.1,710,0.051,-1.012,-0.034,3.0939732,-2.8074942000000003,0.3437748,86.21299026,3.24294228,-20.15093286
7.11,711,0.05,-1.009,-0.033,2.9793816000000004,-2.6356068,0.286479,86.24163816000002,3.24294228,-20.17385118
7.12,712,0.05,-1.011,-0.032,2.578311,-2.578311,0.2291832000000001,86.27028606,3.2372127,-20.20249908
7.13,713,0.05,-1.009,-0.034,2.1199446,-2.6356068,0.0,86.31039312,3.2314831199999987,-20.2254174
7.14,714,0.047,-1.01,-0.036000000000000004,1.8907613999999997,-2.6356068,-0.057295800000000015,86.32758186,3.2314831199999987,-20.2540653
7.15,715,0.044,-1.01,-0.038,1.6615782,-2.6356068,0.0,86.33904102,3.2314831199999987,-20.276983620000006
7.16,716,0.044,-1.012,-0.039,1.2605076000000002,-2.578311,0.11459160000000004,86.35622975999998,3.2314831199999987,-20.30563152
7.17,717,0.044,-1.012,-0.041,0.9167328,-2.3491278,0.2291832000000001,86.36195934,3.2257535399999995,-20.32854984
7.18,718,0.046,-1.013,-0.043,0.6302538000000001,-2.0053530000000004,0.3437748,86.36195934,3.1913760600000005,-20.34573858
7.1899999999999995,719,0.042,-1.01,-0.043,0.5156622000000001,-1.432395,0.4583664000000001,86.36768892,3.18564648,-20.36292732
7.2,720,0.041,-1.006,-0.041,0.6302538000000001,-0.6875496,0.4583664000000001,86.37341849999999,3.1799169000000003,-20.3686569
7.21,721,0.04,-1.007,-0.04,0.572958,-0.2291832000000001,0.5156622000000001,86.37914808000002,3.1741873200000006,-20.3686569
7.22,722,0.038,-1.01,-0.039,0.0,0.4010706,0.572958,86.37914808000002,3.16845774,-20.3686569
7.2299999999999995,723,0.037000000000000005,-1.013,-0.041,-0.286479,1.0313244,0.572958,86.37341849999999,3.0825140400000004,-20.35146816
7.24,724,0.037000000000000005,-1.017,-0.044,-0.6302538000000001,1.6042823999999998,0.572958,86.36768892,3.07678446,-20.33427942
7.25,725,0.04,-1.017,-0.048,-0.8021411999999999,2.0053530000000004,0.6875496,86.36195934,3.07105488,-20.31709068
7.26,726,0.044,-1.016,-0.051,-0.9740286,2.4064236,0.7448454000000001,86.35050018,3.0653253000000005,-20.28844278
7.27,727,0.045,-1.016,-0.051,-1.0313244,2.6929026,0.8021411999999999,86.33904102,3.05386614,-20.26552446
7.28,728,0.045,-1.011,-0.054000000000000006,-1.0886202,2.578311,0.9167328,86.29320437999998,3.0366774000000003,-20.23687656
7.29,729,0.046,-1.007,-0.054000000000000006,-1.0313244,2.0053530000000004,0.9740286,86.28174521999998,3.03094782,-20.21968782
7.3,730,0.047,-1.003,-0.052000000000000005,-1.2605076000000002,1.3178034,0.9740286,86.27028606,3.01948866,-20.20249908
7.31,731,0.048,-1.002,-0.049,-1.432395,1.145916,0.8594370000000001,86.25309732000002,3.0137590800000003,-20.19103992
7.32,732,0.046,-1.001,-0.051,-1.3178034,1.2605076000000002,0.8021411999999999,86.24163816000002,3.00229992,-20.17958076
7.33,733,0.045,-1.001,-0.051,-1.0886202,1.432395,0.7448454000000001,86.2015311,2.99084076,-20.16239202
7.34,734,0.041,-1.003,-0.052000000000000005,-0.8021411999999999,1.432395,0.572958,86.19580152,2.98511118,-20.15093286
7.35,735,0.037000000000000005,-1.005,-0.053,-0.5156622000000001,1.3750992,0.4010706,86.19007194,2.9793816000000004,-20.13374412
7.36,736,0.032,-1.003,-0.052000000000000005,-0.3437748,1.3750992,0.4010706,86.18434235999996,2.9793816000000004,-20.12228496
7.37,737,0.031,-1.004,-0.049,-0.286479,0.9740286,0.3437748,86.18434235999996,2.9736520200000003,-20.1108258
7.38,738,0.032,-1.003,-0.047,-0.2291832000000001,0.572958,0.286479,86.13277614,2.84760126,-20.10509622
7.39,739,0.035,-1.005,-0.046,-0.11459160000000004,0.057295800000000015,0.1718874,86.12704656,2.84760126,-20.09936664
7.4,740,0.037000000000000005,-1.006,-0.045,-0.11459160000000004,-0.3437748,0.11459160000000004,86.12704656,2.84760126,-20.10509622
7.41,741,0.039,-1.009,-0.045,-0.286479,-0.8594370000000001,0.057295800000000015,86.12704656,2.84187168,-20.1108258
7.42,742,0.038,-1.012,-0.044,-0.5156622000000001,-1.3178034,0.11459160000000004,86.12131698,2.84187168,-20.12801454
7.43,743,0.037000000000000005,-1.013,-0.043,-0.6302538000000001,-1.6042823999999998,0.2291832000000001,86.10985782,2.8074942000000003,-20.139473700000003
7.4399999999999995,744,0.037000000000000005,-1.012,-0.043,-0.6302538000000001,-1.6615782,0.3437748,86.10412824,2.80176462,-20.15666244
7.45,745,0.037000000000000005,-1.009,-0.041,-0.572958,-1.432395,0.572958,86.09839866,2.79603504,-20.17385118
7.46,746,0.036000000000000004,-1.007,-0.041,-0.5156622000000001,-0.9167328,0.6302538000000001,86.09266908,2.78457588,-20.17958076
7.47,747,0.037000000000000005,-1.005,-0.041,-0.4010706,-0.6302538000000001,0.6875496,86.0869395,2.7788463,-20.18531034
7.4799999999999995,748,0.036000000000000004,-1.004,-0.042,-0.11459160000000004,-0.5156622000000001,0.8021411999999999,86.0869395,2.71582092,-20.19103992
7.49,749,0.034,-1.004,-0.045,0.11459160000000004,-0.6875496,0.8594370000000001,86.0869395,2.71009134,-20.1967695
7.5,750,0.034,-1.005,-0.047,0.2291832000000001,-1.0313244,0.9740286,86.09266908,2.69863218,-20.20822866
7.51,751,0.033,-1.005,-0.046,0.4010706,-1.6042823999999998,1.0886202,86.09266908,2.68717302,-20.21968782
7.52,752,0.035,-1.006,-0.045,0.4583664000000001,-2.4064236,1.0886202,86.09839866,2.67571386,-20.24833572
7.53,753,0.035,-1.005,-0.044,0.5156622000000001,-2.9793816000000004,1.2032118,86.10985782,2.65279554,-20.276983620000006
7.54,754,0.037000000000000005,-1.004,-0.043,0.5156622000000001,-3.4950437999999995,1.2032118,86.10985782,2.6356068,-20.30563152
7.55,755,0.04,-1.003,-0.041,0.4583664000000001,-3.6096354,1.145916,86.11558740000002,2.62414764,-20.34573858
7.56,756,0.039,-1.002,-0.042,0.4583664000000001,-3.724227,1.2032118,86.12131698,2.61268848,-20.38011606
7.57,757,0.039,-1.002,-0.041,0.5156622000000001,-3.9534102,1.3178034,86.12131698,2.59549974,-20.42022312
7.58,758,0.039,-1.004,-0.04,0.4010706,-4.1825934,1.3178034,86.13850572,2.5783110000000002,-20.46033018
7.59,759,0.039,-1.005,-0.041,0.4010706,-4.6409598,1.432395,86.13850572,2.5611222600000003,-20.50616682
7.6,760,0.036000000000000004,-1.006,-0.04,0.4010706,-5.2139178,1.5469866,86.1442353,2.54393352,-20.55773304
7.61,761,0.034,-1.007,-0.042,0.2291832000000001,-5.9014674000000005,1.7761698,86.1442353,2.52674478,-20.61502884
7.62,762,0.033,-1.007,-0.045,0.1718874,-6.5317212,1.8907613999999997,86.1442353,2.50382646,-20.67805422
7.63,763,0.03,-1.007,-0.045,0.3437748,-7.1046792000000005,1.9480572,86.1442353,2.46944898,-20.74680918
7.64,764,0.028,-1.005,-0.043,0.4583664000000001,-7.6203414,2.0626488000000003,86.14996488,2.44653066,-20.82129372
7.65,765,0.027000000000000003,-1.006,-0.042,0.6302538000000001,-8.136003599999999,2.1199446,86.14996488,2.42361234,-20.90150784
7.66,766,0.026,-1.006,-0.039,0.572958,-8.479778399999999,2.1772404,86.15569446,2.39496444,-20.98172196
7.67,767,0.023,-1.006,-0.037000000000000005,0.2291832000000001,-8.7662574,2.1772404,86.15569446,2.37204612,-21.06766566
7.68,768,0.022,-1.007,-0.035,0.0,-8.880849000000003,2.0053530000000004,86.16142404,2.3376686399999995,-21.15360936
