TimeStamp(s),FrameCounter,AccX,AccY,AccZ,GyrX,GyrY,GyrZ,EulerX,EulerY,EulerZ
0.01,1,-0.001,-1.006,-0.07200000000000001,-0.8594370000000001,-0.6875496,0.8594370000000001,84.3394176,0.4526368200000001,-40.15289664
0.02,2,-0.002,-1.003,-0.069,-0.8021411999999999,-0.572958,0.9167328,84.33368802,0.44690724,-40.15862622
0.03,3,-0.004,-1.001,-0.058,-1.432395,0.057295800000000015,0.7448454000000001,84.31649927999999,0.43544808,-40.15862622
0.04,4,-0.006,-0.998,-0.056,-2.0053530000000004,0.8594370000000001,0.4010706,84.29931054,0.43544808,-40.14716706
0.05,5,-0.006,-1.001,-0.064,-2.1772404,1.3750992,0.057295800000000015,84.29358096,0.41252976,-40.1357079
0.060000000000000005,6,-0.003,-1.005,-0.073,-1.9480572,1.6042823999999998,-0.057295800000000015,84.27066264,0.41252976,-40.11851916
0.06999999999999999,7,-0.002,-1.008,-0.078,-1.7188740000000002,1.7188740000000002,-0.11459160000000004,84.25347389999997,0.41825934,-40.10133042
0.08,8,0.001,-1.01,-0.077,-1.5469866,1.8907613999999997,-0.1718874,84.23628516,0.41825934,-40.08414168
0.09,9,0.001,-1.01,-0.078,-1.3750992,1.9480572,-0.11459160000000004,84.22482600000002,0.42398892,-40.06695294000001
0.09999999999999999,10,0.003,-1.007,-0.079,-1.0886202,1.9480572,-0.11459160000000004,84.20763725999998,0.4297185000000001,-40.04403462
0.11,11,0.006,-1.003,-0.083,-0.8594370000000001,1.6042823999999998,-0.11459160000000004,84.1961781,0.4297185000000001,-40.02684588
0.12,12,0.011,-0.999,-0.084,-0.7448454000000001,1.145916,-0.2291832000000001,84.19044852,0.43544808,-40.01538672
0.13,13,0.012,-0.994,-0.081,-0.4583664000000001,0.5156622000000001,-0.3437748,84.18471894,0.44117766,-40.01538672
0.14,14,0.012,-0.995,-0.077,-0.2291832000000001,-0.11459160000000004,-0.4583664000000001,84.17898936,0.44117766,-40.01538672
0.15000000000000002,15,0.013,-0.997,-0.079,-0.3437748,-0.057295800000000015,-0.7448454000000001,84.15607104,0.49274388,-40.01538672
0.16,16,0.01,-0.998,-0.083,-0.4583664000000001,-0.057295800000000015,-0.7448454000000001,84.15607104,0.5042030399999999,-40.01538672
0.17,17,0.008,-1.001,-0.08199999999999999,-0.572958,0.0,-0.6302538000000001,84.15034145999998,0.5099326200000001,-40.01538672
0.18000000000000002,18,0.006,-1.004,-0.081,-0.6302538000000001,0.057295800000000015,-0.572958,84.13888229999998,0.5156622000000001,-40.01538672
0.19,19,0.004,-1.005,-0.08199999999999999,-0.5156622000000001,0.1718874,-0.3437748,84.13315272,0.52139178,-40.01538672
0.2,20,0.006,-1.006,-0.084,-0.4583664000000001,0.2291832000000001,-0.2291832000000001,84.10450482,0.53285094,-40.00965714
0.21000000000000002,21,0.009000000000000001,-1.003,-0.085,-0.5156622000000001,0.5156622000000001,-0.2291832000000001,84.09877524000002,0.53285094,-40.00392756
0.22,22,0.009000000000000001,-1.0,-0.086,-0.4583664000000001,0.2291832000000001,-0.2291832000000001,84.09877524000002,0.53858052,-40.00392756
0.23,23,0.01,-1.0,-0.08199999999999999,-0.3437748,-0.1718874,-0.4583664000000001,84.09304566,0.5443101,-40.00392756
0.24000000000000002,24,0.009000000000000001,-1.001,-0.079,-0.1718874,-0.3437748,-0.6302538000000001,84.09304566,0.55003968,-40.00965714
0.25,25,0.006,-1.002,-0.077,-0.3437748,-0.3437748,-0.8594370000000001,84.09304566,0.55576926,-40.01538672
0.26,26,0.005,-1.002,-0.078,-0.3437748,-0.4010706,-0.9740286,84.09304566,0.56722842,-40.0211163
0.27,27,0.008,-1.007,-0.077,-0.1718874,-0.3437748,-1.2032118,84.08731608000002,0.5786875800000001,-40.02684588
0.28,28,0.009000000000000001,-1.008,-0.077,-0.1718874,-0.4583664000000001,-1.3178034,84.08731608000002,0.59587632,-40.03257546
0.29000000000000004,29,0.006,-1.008,-0.076,0.0,-0.6302538000000001,-1.3178034,84.08731608000002,0.6073354799999999,-40.03830504
0.3,30,0.006,-1.004,-0.076,0.0,-0.572958,-1.2605076000000002,84.10450482,0.62452422,-40.04403462
0.31,31,0.008,-1.002,-0.076,0.0,-0.11459160000000004,-1.2032118,84.10450482,0.63598338,-40.04976420000001
0.32,32,0.006999999999999999,-1.001,-0.075,0.3437748,0.0,-1.0886202,84.11023440000002,0.64744254,-40.04976420000001
0.33,33,0.006999999999999999,-1.001,-0.069,0.1718874,0.4583664000000001,-1.0313244,84.11023440000002,0.6589017,-40.04403462
0.34,34,0.006,-1.001,-0.067,0.11459160000000004,1.6042823999999998,-0.8021411999999999,84.11596397999998,0.6703608600000001,-40.03257546
0.35000000000000003,35,0.008,-1.003,-0.069,0.286479,2.578311,-0.572958,84.13315272,0.68182002,-40.00392756
0.36000000000000004,36,0.01,-1.005,-0.073,0.1718874,3.2085648,-0.4010706,84.13315272,0.6875496,-39.97527966
0.37,37,0.015,-1.007,-0.073,0.286479,3.0366774,-0.1718874,84.13888229999998,0.6875496,-39.94090218
0.38,38,0.015,-1.007,-0.07400000000000001,0.3437748,1.5469866,0.0,84.14461188,0.69327918,-39.92944302
0.39,39,0.014,-1.003,-0.077,0.1718874,0.6302538000000001,-0.11459160000000004,84.14461188,0.69327918,-39.91798386
0.4,40,0.014,-1.002,-0.079,0.1718874,0.0,-0.3437748,84.14461188,0.73338624,-39.91798386
0.41000000000000003,41,0.015,-1.002,-0.079,0.11459160000000004,-0.286479,-0.8594370000000001,84.15034145999998,0.7448454000000001,-39.92371344
0.42000000000000004,42,0.014,-1.003,-0.079,0.0,-0.057295800000000015,-1.2032118,84.15034145999998,0.75630456,-39.92371344
0.43,43,0.013,-1.002,-0.078,0.3437748,0.057295800000000015,-1.2605076000000002,84.15034145999998,0.76776372,-39.92371344
0.44,44,0.014,-1.002,-0.078,0.2291832000000001,0.9740286,-1.2605076000000002,84.15607104,0.7849524600000001,-39.91798386
0.45,45,0.016,-0.999,-0.08,0.1718874,1.6615782,-0.9740286,84.15034145999998,0.8136003599999999,-39.90079512000001
0.46,46,0.021,-0.999,-0.084,0.5156622000000001,2.3491278,-0.572958,84.15607104,0.8193299399999999,-39.8778768
0.47000000000000003,47,0.025,-0.999,-0.091,1.0313244,2.4064236,-0.2291832000000001,84.1675302,0.8250595199999999,-39.85495848000001
0.48000000000000004,48,0.028,-1.0,-0.101,1.7761698,1.8907613999999997,0.0,84.18471894,0.8250595199999999,-39.83204016
0.49,49,0.033,-0.998,-0.099,2.6356068,0.9167328,-0.11459160000000004,84.21336684,0.8250595199999999,-39.82631058
0.5,50,0.033,-0.995,-0.091,2.9793816000000004,-0.3437748,-0.4010706,84.22482600000002,0.8594370000000001,-39.82631058
0.51,51,0.022,-0.989,-0.086,3.6669312000000014,-1.6615782,-0.8021411999999999,84.26493306,0.87089616,-39.84349932
0.52,52,0.01,-0.986,-0.08800000000000001,4.297185,-2.8074942000000003,-1.4896908000000002,84.31076970000002,0.8823553199999999,-39.87214722
0.53,53,0.001,-0.985,-0.085,4.6409598,-3.724227,-2.291832,84.35660634000001,0.90527364,-39.91225428
0.54,54,-0.001,-0.985,-0.081,5.0993262,-3.4950437999999995,-3.2085648,84.40817256,0.93392154,-39.94663176
0.55,55,0.003,-0.986,-0.075,5.6722842,-3.0939732,-3.5523396000000003,84.46546836,0.96256944,-39.98100924
0.56,56,0.014,-0.991,-0.076,6.016058999999999,-2.8074942000000003,-3.2085648,84.52276416000002,0.9969469199999998,-40.01538672
0.5700000000000001,57,0.028,-0.995,-0.078,6.4744254,-2.9220857999999996,-2.4637194,84.59151912,1.01986524,-40.04403462
0.5800000000000001,58,0.044,-1.002,-0.08199999999999999,7.1046792000000005,-3.8961144,-1.4896908000000002,84.66600365999999,1.0313244,-40.08414168
0.59,59,0.051,-1.01,-0.08,7.1046792000000005,-6.5317212,-0.4010706,84.73475862000002,1.0313244,-40.14716706
0.6,60,0.044,-1.013,-0.062,6.5317212,-10.7143146,0.11459160000000004,84.80924316,1.0313244,-40.2502995
0.61,61,0.041,-1.01,-0.05,6.5317212,-13.8082878,0.0,84.87226854000002,1.0255948199999998,-40.38780942
0.62,62,0.058,-1.027,-0.053,5.5003968,-17.475219,-1.0313244,84.92956434,1.0255948199999998,-40.55969682
0.63,63,0.061,-1.031,-0.044,3.380452200000001,-21.0848544,-2.6356068,84.96394182,1.03705398,-40.77169128
0.64,64,0.049,-1.035,-0.038,1.7188740000000002,-24.1215318,-4.4690724,84.98113056000003,1.07143146,-41.01233364
0.65,65,0.033,-1.041,-0.06,-0.11459160000000004,-26.5852512,-6.6463128000000005,84.97540097999997,1.12299768,-41.2816239
0.66,66,0.023,-1.045,-0.086,-2.9793816000000004,-26.5852512,-8.479778399999999,84.9410235,1.19175264,-41.55091416
0.67,67,0.015,-1.036,-0.11,-5.3285094000000015,-24.1215318,-10.026765,84.8837277,1.27196676,-41.7972861
0.68,68,0.006999999999999999,-1.02,-0.121,-5.5003968,-21.0848544,-11.5737516,84.8264319,1.3750992,-42.01501014
0.6900000000000001,69,-0.005,-0.982,-0.132,-3.2658606,-18.7357266,-13.349921400000001,84.79205442,1.49542038,-42.21554544
0.7000000000000001,70,-0.021,-0.945,-0.125,0.3437748,-17.8762896,-15.469866,84.78059526000001,1.6272007199999998,-42.40462158
0.7100000000000001,71,-0.028,-0.916,-0.113,2.3491278,-18.1054728,-17.4179232,84.80351358,1.78762896,-42.5994273
0.72,72,-0.032,-0.895,-0.1,3.724227,-18.334656,-19.2513888,84.83789106,1.97097552,-42.7999626
0.73,73,-0.032,-0.894,-0.076,5.443101,-18.5638392,-21.027558600000006,84.8837277,2.1657812400000003,-43.0004979
0.74,74,-0.034,-0.907,-0.055,6.703608600000001,-18.621135,-22.631841,84.94675308000002,2.38350528,-43.20103320000001
0.75,75,-0.034,-0.938,-0.042,7.906820400000001,-17.5325148,-23.7204612,85.0269672,2.59549974,-43.39583892
0.76,76,-0.031,-0.972,-0.034,7.906820400000001,-15.870936600000002,-24.2361234,85.10145173999999,2.82468294,-43.56772632000001
0.77,77,-0.032,-1.007,-0.043,7.2765666,-14.495837400000001,-24.1788276,85.16447712,3.05959572,-43.73388414
0.78,78,-0.037000000000000005,-1.028,-0.052000000000000005,7.2765666,-12.318597,-23.6631654,85.23323208,3.28877892,-43.87139406
0.79,79,-0.041,-1.036,-0.049,7.2192707999999985,-10.1413566,-23.14750320000001,85.30198704,3.5122325400000003,-43.99171524000001
0.8,80,-0.042,-1.042,-0.051,8.307891,-7.6776372,-22.6891368,85.38220116,3.71276784,-44.08338852
0.81,81,-0.048,-1.048,-0.046,9.1100322,-5.0993262,-22.8037284,85.46814486,3.94195104,-44.15214348
0.8200000000000001,82,-0.05,-1.042,-0.032,9.1100322,-2.4064236,-23.204799,85.55981814,4.17113424,-44.19225054
0.8300000000000001,83,-0.051,-1.039,-0.02,9.6829902,-0.11459160000000004,-23.5485738,85.65722099999998,4.40031744,-44.20943928000001
0.8400000000000001,84,-0.045,-1.041,-0.017,9.1100322,2.578311,-23.6631654,85.74889427999999,4.6409598,-44.20370970000001
0.85,85,-0.028,-1.044,-0.023,9.224623800000002,4.8128472,-23.4339822,85.85202672,4.858683839999999,-44.16933222
0.86,86,-0.011,-1.051,-0.041,8.7662574,8.250595200000001,-23.376686399999997,85.9437,5.0935966200000005,-44.10630684
0.87,87,0.013,-1.052,-0.059,9.1100322,10.255948199999999,-23.491278,86.04110286,5.3285094000000015,-44.01463356000001
0.88,88,0.035,-1.051,-0.046,8.9381448,10.8289062,-24.1788276,86.13850572,5.574881339999999,-43.92296028
0.89,89,0.057,-1.035,-0.021,8.4224826,10.0840608,-25.1528562,86.23590858,5.8269828599999975,-43.83701658
0.9,90,0.07,-1.021,-0.022,8.4224826,9.0527364,-26.298772200000002,86.32758186,6.09054354,-43.76253204
0.91,91,0.079,-1.008,-0.035,6.016058999999999,9.453807000000001,-27.2728008,86.39633682,6.3655633799999976,-43.688047499999996
0.92,92,0.098,-0.995,-0.034,5.0993262,9.2819196,-28.1895336,86.45363262000002,6.6463128,-43.60783338
0.93,93,0.11,-0.989,-0.044,5.72958,8.9954406,-28.934379,86.52238758000001,6.93852138,-43.53334884
0.9400000000000001,94,0.117,-0.99,-0.056,6.417129599999999,9.453807000000001,-29.793816,86.59114253999998,7.23645954,-43.4588643
0.9500000000000001,95,0.121,-0.99,-0.051,6.6463128000000005,9.1100322,-30.65325300000001,86.66562708000002,7.545856859999999,-43.38437976
0.9600000000000001,96,0.117,-0.986,-0.028,7.0473834,8.880849000000003,-31.51269000000001,86.7458412,7.860983760000001,-43.30989522
0.97,97,0.109,-0.979,-0.015,7.3911582,8.307891,-32.7159018,86.83178489999996,8.18756982,-43.24686984
0.98,98,0.104,-0.97,-0.016,6.875496000000001,8.9381448,-34.091001,86.90626943999996,8.53134462,-43.1723853
0.99,99,0.11,-0.969,-0.025,6.589017,9.969469199999999,-35.4088044,86.98648356,8.880849000000003,-43.08644159999999
1.0,100,0.117,-0.97,-0.037000000000000005,6.6463128000000005,11.1153852,-36.5547204,87.06669767999998,9.24754212,-42.99476832
1.01,101,0.136,-0.974,-0.046,7.2765666,12.1467096,-37.41415739999999,87.15264138,9.61996482,-42.89163588
1.02,102,0.15,-0.979,-0.053,8.193299399999999,12.6623718,-38.2162986,87.25577381999999,10.00384668,-42.78277386
1.03,103,0.165,-0.977,-0.059,9.167328,12.261301199999998,-38.90384820000001,87.36463583999998,10.39345812,-42.67391184
1.04,104,0.168,-0.97,-0.054000000000000006,10.313244,11.172681,-39.3622146,87.48495702,10.78306956,-42.57650898
1.05,105,0.175,-0.958,-0.031,10.7143146,8.9381448,-39.4195104,87.6052782,11.17841058,-42.50202444
1.06,106,0.17600000000000002,-0.939,0.0,11.8029348,6.875496000000001,-40.164355799999996,87.73132896,11.579481179999998,-42.44472864
1.07,107,0.177,-0.937,0.021,12.0894138,6.3598338,-41.8832298,87.8631093,11.99774052,-42.39316242
1.08,108,0.172,-0.939,0.027000000000000003,10.6570188,6.3598338,-43.544808,87.98343048000002,12.4331886,-42.34159620000001
1.09,109,0.189,-0.952,0.016,9.6256944,6.9327918,-44.977203,88.0922925,12.88009584,-42.28430039999999
1.1,110,0.213,-0.976,0.001,8.59437,6.016058999999999,-45.4928652,88.18969536,13.33273266,-42.23846376
1.11,111,0.241,-0.997,-0.002,7.3911582,5.0993262,-44.5761324,88.27563906,13.77391032,-42.19835670000001
1.12,112,0.263,-1.015,-0.001,5.9014674000000005,3.4377480000000005,-42.685371,88.33866443999996,14.197899240000002,-42.17543838
1.1300000000000001,113,0.276,-1.024,-0.01,5.0993262,2.6929026,-40.7946096,88.39596024,14.60469942,-42.15824964
1.1400000000000001,114,0.276,-1.034,-0.021,4.8128472,2.291832,-39.534102,88.44752645999998,15.000040439999998,-42.1410609
1.1500000000000001,115,0.269,-1.03,-0.027000000000000003,4.1825934,2.0053530000000004,-39.47680620000001,88.48763352,15.38965188,-42.12960174
1.1600000000000001,116,0.259,-1.022,-0.022,4.6409598,1.5469866,-40.5081306,88.53347016000002,15.79072248,-42.12387216000001
1.17,117,0.251,-1.014,-0.006,5.72958,1.2605076000000002,-42.398892,88.59076596,16.214711400000002,-42.11814258
1.18,118,0.251,-1.008,0.003,5.443101,1.9480572,-45.1490904,88.64806175999998,16.66161864,-42.10668342
1.19,119,0.261,-1.001,0.01,4.8701430000000006,3.151269,-47.269034999999995,88.70535756,17.131444199999994,-42.0837651
1.2,120,0.275,-1.003,0.025,4.7555514,3.7815227999999994,-49.2170922,88.76838294000002,17.6184585,-42.05511720000001
1.21,121,0.284,-1.001,0.03,4.2398892,4.010706000000001,-50.3057124,88.81994916,18.11693196,-42.02073972
1.22,122,0.293,-0.995,0.037000000000000005,3.9534102,3.9534102,-50.5921914,88.8657858,18.621135,-41.98636224
1.23,123,0.312,-0.985,0.034,3.4377480000000005,4.6409598,-50.6494872,88.91162244,19.12533804,-41.94625518
1.24,124,0.34,-0.983,0.032,3.4377480000000005,5.958763200000001,-50.9359662,88.96318865999999,19.629541080000006,-41.89468896
1.25,125,0.358,-0.975,0.033,3.2085648,6.8182002000000015,-50.993262,89.02048446,20.13374412,-41.825934000000004
1.26,126,0.3720000000000001,-0.97,0.036000000000000004,3.2085648,7.161975,-50.82137460000001,89.07778026000004,20.63794716,-41.75717904
1.27,127,0.384,-0.967,0.044,2.3491278,6.6463128000000005,-50.3630082,89.12361690000002,21.1421502,-41.69415366
1.28,128,0.382,-0.952,0.056,1.3750992,5.042030400000002,-49.9619376,89.1522648,21.63489408,-41.64831702
1.29,129,0.38,-0.938,0.053,0.6875496,3.8388186,-49.90464179999999,89.16945354,22.13336754,-41.61393954
1.3,130,0.385,-0.928,0.049,0.057295800000000015,3.4377480000000005,-50.0765292,89.18664228,22.631841,-41.57956206
1.31,131,0.398,-0.929,0.033,-1.3178034,3.8388186,-50.133825,89.18664228,23.12458488,-41.54518458
1.32,132,0.411,-0.929,0.01,-2.0626488000000003,4.6982556,-49.7900502,89.1809127,23.61732876,-41.49934794
1.33,133,0.4,-0.923,-0.006,-1.2605076000000002,5.6722842,-49.274388,89.18664228,24.11007264,-41.44205214
1.34,134,0.385,-0.922,0.0,0.4010706,6.417129599999999,-48.1857678,89.21529018,24.58562778000001,-41.37902676
1.35,135,0.383,-0.923,0.006999999999999999,2.8074942000000003,6.9327918,-47.3836266,89.27258598,25.04972376,-41.3102718
1.36,136,0.382,-0.932,0.012,4.4690724,6.589017,-47.1544434,89.34707052,25.51954932,-41.24151684
1.37,137,0.392,-0.938,0.029,5.3285094000000015,5.042030400000002,-46.696077,89.42155505999996,25.9836453,-41.18995062000001
1.3800000000000001,138,0.42,-0.941,0.054000000000000006,6.589017,2.6929026,-46.4668938,89.50176918,26.4420117,-41.16130272
1.3900000000000001,139,0.452,-0.943,0.08199999999999999,7.2765666,0.2291832000000001,-46.8679644,89.57625372,26.91183726,-41.16130272
1.4000000000000001,140,0.489,-0.926,0.08199999999999999,6.703608600000001,-2.3491278,-48.0138804,89.6392791,27.39312198,-41.18422104
1.4100000000000001,141,0.515,-0.893,0.068,6.417129599999999,-4.583664,-49.04520479999999,89.67938615999998,27.88013628,-41.23578726
1.42,142,0.522,-0.865,0.071,6.6463128000000005,-6.760904399999999,-49.1597964,89.70803406,28.37288016,-41.3102718
1.43,143,0.517,-0.86,0.075,5.958763200000001,-6.8182002000000015,-48.2430636,89.73668196000001,28.854164879999995,-41.39048592
1.44,144,0.4920000000000001,-0.855,0.071,5.042030400000002,-4.4117766,-47.3836266,89.75960028,29.32399044,-41.44205214
1.45,145,0.474,-0.853,0.064,4.3544808,-0.4583664000000001,-47.2117392,89.8111665,29.793816,-41.44205214
1.46,146,0.462,-0.857,0.061,3.2085648,3.0366774,-47.9565846,89.85700313999996,30.269371140000004,-41.40767466000001
1.47,147,0.45,-0.858,0.061,1.432395,5.2139178,-49.3316838,89.90283978,30.75638544000001,-41.34464928
1.48,148,0.447,-0.853,0.054000000000000006,0.9167328,7.333862400000001,-51.33703679999999,89.95440599999998,31.26631806,-41.25870558
1.49,149,0.462,-0.851,0.047,0.4583664000000001,9.6829902,-53.456981400000004,90.01743138,31.79343942000001,-41.14411398
1.5,150,0.485,-0.838,0.045,-0.9167328,11.45916,-55.06126379999999,90.08045676,32.33774952,-41.00660406
1.51,151,0.499,-0.813,0.033,-1.8334656000000005,13.0061466,-55.80610920000001,90.14348214,32.8877892,-40.8519054
1.52,152,0.5,-0.794,0.021,-1.2032118,15.0114996,-56.0352924,90.22369626,33.43782888,-40.67428842
1.53,153,0.505,-0.779,0.012,-1.9480572,17.8762896,-56.3790672,90.32109912,33.99359814,-40.45656438
1.54,154,0.517,-0.763,0.009000000000000001,-3.0939732,21.027558600000006,-56.66554620000001,90.42996114,34.5493674,-40.19873328
1.55,155,0.52,-0.748,0.006999999999999999,-3.6669312000000014,22.86102420000001,-57.35309579999999,90.55028232,35.11086624,-39.91798386
1.56,156,0.523,-0.737,0.002,-2.1199446,23.376686399999997,-58.44171600000001,90.69352182,35.68382424,-39.62004570000001
1.57,157,0.55,-0.7290000000000001,0.006999999999999999,-1.2032118,22.8037284,-59.8168152,90.84822048,36.2682414,-39.3335667
1.58,158,0.585,-0.728,0.019,-2.0053530000000004,20.5691922,-61.592985,90.98000082,36.869847299999996,-39.06427644
1.59,159,0.614,-0.736,0.034,-2.6356068,17.9335854,-63.3691548,91.09459242,37.48864194,-38.82936366
1.6,160,0.638,-0.7490000000000001,0.027000000000000003,-4.297185,14.5531332,-64.28588760000001,91.16907696,38.12462532,-38.62882836
1.61,161,0.653,-0.7390000000000001,0.013,-5.042030400000002,12.318597,-63.4264506,91.22064318,38.74914954000001,-38.45121138
1.62,162,0.655,-0.721,0.005,-4.010706000000001,12.261301199999998,-60.733548000000006,91.28939814,39.34502586,-38.27932398
1.6300000000000001,163,0.6459999999999999,-0.7,-0.005,-2.0626488000000003,13.521808800000002,-57.6968706,91.386801,39.91225428,-38.08451826
1.6400000000000001,164,0.615,-0.6829999999999999,-0.008,2.291832,16.2147114,-56.436363,91.55868840000001,40.46229396,-37.85533506
1.6500000000000001,165,0.573,-0.674,-0.012,7.1046792000000005,19.0795014,-58.38442020000001,91.79933076,41.03525196,-37.586044799999996
1.6600000000000001,166,0.545,-0.688,0.008,11.229976800000001,21.0848544,-64.5723666,92.11445766,41.65977618,-37.2709179
1.6700000000000002,167,0.525,-0.706,0.055,12.0894138,21.6005166,-71.44786260000002,92.45250288,42.35878494,-36.94433184
1.68,168,0.524,-0.7190000000000001,0.092,10.6570188,20.511896399999998,-77.062851,92.77908894,43.10935992,-36.61774578
1.69,169,0.541,-0.723,0.105,10.5424272,19.0222056,-81.3027402,93.105675,43.90004196,-36.2968893
1.7,170,0.56,-0.713,0.11,11.745639,19.595163600000006,-83.4226848,93.46090896,44.70218316,-35.95311450000001
1.71,171,0.573,-0.696,0.106,11.917526400000002,24.7517856,-82.5632478,93.8791683,45.49859478,-35.52339600000001
1.72,172,0.556,-0.6759999999999999,0.106,11.0580894,31.79916900000001,-80.32871159999998,94.37191218,46.2663585,-34.99054506
1.73,173,0.509,-0.6659999999999999,0.112,10.7716104,40.2216516,-78.32335859999998,94.9677885,46.99974474,-34.31445462
1.74,174,0.479,-0.665,0.104,11.516455800000001,50.993262,-77.2920342,95.70117474,47.70448308,-33.46647678
1.75,175,0.483,-0.6579999999999999,0.101,14.896907999999998,58.44171600000001,-76.8336678,96.57780048,48.37484394,-32.48098902
1.76,176,0.496,-0.643,0.111,17.246035799999998,63.08267579999999,-77.6931048,97.55755866,49.04520480000001,-31.3980984
1.77,177,0.541,-0.601,0.107,18.7930224,65.66098679999999,-79.9849368,98.61753096,49.72702482,-30.234993660000004
1.78,178,0.584,-0.588,0.118,23.4339822,65.08802879999999,-82.04758559999998,99.76344696,50.40884484,-29.03751144
1.79,179,0.614,-0.5760000000000001,0.1,24.9809688,62.7961968,-83.76645959999998,100.94374043999998,51.10212402000001,-27.83429964
1.8,180,0.66,-0.581,0.094,28.991674800000002,59.186561399999995,-84.05293859999998,102.1584114,51.78394404000001,-26.642547
1.81,181,0.7090000000000001,-0.589,0.099,31.6845774,57.00932099999999,-82.2767688,103.41318942,52.44284574000001,-25.45079436
1.82,182,0.752,-0.573,0.085,35.9817624,58.613603399999995,-79.6984578,104.7653703,53.05591080000001,-24.19601634
1.83,183,0.769,-0.5710000000000001,0.058,41.596750799999995,60.38977320000001,-78.7244292,106.23787236,53.63459838,-22.87821294
1.84,184,0.764,-0.57,0.006,47.555514,60.8481396,-79.6984578,107.81923644,54.201826800000006,-21.50311374
1.85,185,0.763,-0.5770000000000001,-0.029,54.4883058,58.5563076,-81.47462759999998,109.48654422,54.76905522,-20.12228496
1.86,186,0.737,-0.573,-0.006999999999999999,58.613603399999995,52.712136,-82.8497268,111.18822948,55.347742800000006,-18.75864492
1.87,187,0.708,-0.575,0.07200000000000001,59.0719698,46.8679644,-84.11023440000002,112.872726,55.93788954,-17.435111940000002
1.8800000000000001,188,0.7,-0.569,0.119,57.983349600000004,42.2270046,-85.0269672,114.54576336,56.53376586,-16.12303812
1.8900000000000001,189,0.708,-0.583,0.201,56.608250399999996,37.0130868,-85.1988546,116.17869366,57.12964218,-14.845341780000002
1.9000000000000001,190,0.757,-0.606,0.259,52.19647379999999,29.67922440000001,-82.2767688,117.69703236,57.71405934000001,-13.6650483
1.9100000000000001,191,0.826,-0.635,0.328,49.1025006,25.6112226,-77.17744259999998,119.14088652,58.26409902,-12.5477802
1.9200000000000002,192,0.916,-0.657,0.406,43.544808,28.5333084,-73.625103,120.5790111,58.74538374,-11.37894588
1.93,193,1.063,-0.6509999999999999,0.431,37.1849742,36.898495200000006,-71.67704579999999,122.08589064,59.15791349999999,-10.04968332
1.94,194,1.22,-0.609,0.406,34.950438,47.555514,-71.5051584,123.74746883999998,59.48449956,-8.519885460000001
1.95,195,1.356,-0.552,0.326,35.0077338,52.19647379999999,-72.4218912,125.51217948,59.77670814,-6.8812255800000015
1.96,196,1.472,-0.474,0.219,32.0283522,46.696077,-69.0987348,127.1680281,60.04026882,-5.3285094000000015
1.97,197,1.541,-0.35200000000000004,0.17800000000000002,28.7051958,32.142943800000005,-60.2751816,128.53739772,60.31528866,-4.08519054
1.98,198,1.442,-0.266,0.201,25.210152,12.5477802,-45.9512316,129.47131926000003,60.58457892,-3.30023808
1.99,199,1.328,-0.246,0.231,23.6631654,-0.286479,-35.3515086,130.11303221999998,60.85386918,-2.84187168
2.0,200,1.243,-0.276,0.271,21.829699800000004,-7.7922288,-28.2468294,130.57139862000002,61.14034818,-2.57258142
2.01,201,1.168,-0.279,0.31,18.6784308,-10.1986524,-24.1215318,130.91517342,61.38672012000001,-2.39496444
2.02,202,1.073,-0.282,0.326,17.246035799999998,-6.8182002000000015,-21.3713334,131.25894822,61.592985,-2.20015872
2.03,203,0.987,-0.262,0.314,14.495837400000001,-1.5469866,-18.7357266,131.61991176,61.74195407999999,-1.9595163600000003
2.04,204,0.901,-0.233,0.28300000000000003,14.152062599999999,2.86479,-17.246035799999998,132.02098236,61.850816099999996,-1.6673077799999998
2.05,205,0.794,-0.175,0.301,14.9542038,8.8235532,-18.048177,132.56529246,61.93103021999999,-1.23758928
2.0599999999999996,206,0.728,-0.129,0.35100000000000003,17.0741484,20.340009,-21.4286292,133.28148996,61.94821896,-0.61306506
2.07,207,0.7070000000000001,-0.106,0.391,18.7357266,31.111619399999995,-24.350715,134.19249318,61.90238232,0.20053530000000008
2.0799999999999996,208,0.715,-0.073,0.377,20.9702628,36.2682414,-26.814434400000003,135.21808800000002,61.83362736,1.13445684
2.09,209,0.747,-0.044,0.349,26.41336380000001,34.8358464,-28.4187168,136.30097862,61.77633156,2.0626488000000003
2.0999999999999996,210,0.787,-0.036000000000000004,0.306,31.3980984,27.2728008,-28.81978740000001,137.38386924000002,61.78206114,2.92781538
2.11,211,0.7879999999999999,-0.038,0.277,35.0077338,16.386598799999998,-27.8457588,138.32924994,61.84508652000001,3.59817624
2.1199999999999997,212,0.722,-0.041,0.287,37.52874900000001,8.250595200000001,-26.69984280000001,139.18868694,61.95394854,4.14248634
2.13,213,0.633,-0.058,0.333,38.5027776,8.021412000000002,-26.1841806,140.0595831,62.06281056,4.68106686
2.1399999999999997,214,0.547,-0.102,0.376,41.7113424,17.6471064,-27.3300966,141.08517792,62.09145846,5.37434604
2.15,215,0.473,-0.154,0.444,47.1544434,30.8251404,-28.991674800000002,142.36860384,62.01124434000001,6.2796196800000015
2.1599999999999997,216,0.465,-0.18600000000000005,0.498,52.6548402,44.1750618,-31.3980984,143.85256506000005,61.83935694,7.3625102999999985
2.17,217,0.504,-0.226,0.5379999999999999,57.983349600000004,55.92070079999999,-33.8618178,145.52560241999996,61.57006668,8.60582916
2.1799999999999997,218,0.5760000000000001,-0.251,0.534,60.6189564,61.36380179999999,-35.9817624,147.28458347999995,61.24921019999999,9.91790298
2.19,219,0.6729999999999999,-0.233,0.484,60.9627312,58.72819499999999,-37.4714532,149.01491664,60.93981288,11.19559932
2.1999999999999997,220,0.76,-0.214,0.47,61.4783934,51.6235158,-37.4714532,150.66503568000005,60.67052262,12.38162238
2.21,221,0.831,-0.192,0.488,60.2178858,46.696077,-36.7839036,152.22348144,60.42988026,13.47597216
2.2199999999999998,222,0.857,-0.158,0.512,56.9520252,44.404245,-36.1536498,153.70171308000005,60.1892379,14.518755719999998
2.23,223,0.895,-0.127,0.531,54.3164184,44.5761324,-37.52874900000001,155.15129682,59.94286595999999,15.567268860000002
2.2399999999999998,224,0.933,-0.145,0.552,54.3737142,43.9458786,-40.164355799999996,156.62379887999995,59.7022236,16.632970739999998
2.25,225,0.991,-0.173,0.579,56.9520252,41.0810886,-43.65939960000001,158.14213758,59.48449956,17.733050100000003
2.26,226,1.093,-0.21,0.585,54.7747848,31.3980984,-48.9306132,159.64901712,59.36417838,18.844588620000003
2.27,227,1.18,-0.242,0.58,50.5921914,16.1001198,-55.80610920000001,161.13870792,59.39282628,19.97904546
2.28,228,1.234,-0.243,0.605,44.690724,-0.286479,-62.7961968,162.59975082,59.58190241999999,21.15360936
2.29,229,1.3090000000000002,-0.272,0.7240000000000001,40.7946096,-5.9014674000000005,-64.8588456,164.05506413999996,59.81681519999999,22.35682116000001
2.3,230,1.328,-0.284,0.915,32.31483119999999,7.906820400000001,-58.5563076,165.3843267,59.88557016,23.5199259
2.31,231,1.351,-0.201,1.007,14.667724800000002,27.3873924,-53.9726436,166.5302427,59.74806024000001,24.67157148
2.32,232,1.321,-0.11,0.919,-0.4010706,36.898495200000006,-51.10785360000001,167.48708256,59.50741787999999,25.79456916
2.3299999999999996,233,1.268,-0.059,0.828,-4.6409598,41.4248634,-51.33703679999999,168.39808578,59.20947972,26.91756684
2.34,234,1.115,-0.061,0.7340000000000001,-3.7815227999999994,42.4561878,-51.1651494,169.30335942,58.88862324,28.02337578
2.3499999999999996,235,1.042,-0.12,0.591,3.4377480000000005,38.5027776,-48.1857678,170.1971739,58.60214424,29.03751144
2.36,236,1.008,-0.208,0.517,12.6623718,31.1689152,-40.33624320000001,171.03369258,58.36150188000001,29.874030120000004
2.3699999999999997,237,1.002,-0.29100000000000004,0.514,15.126091199999998,25.84040580000001,-26.9863218,171.66394638,58.14377784,30.44125854
2.38,238,0.981,-0.243,0.505,15.469866,19.9962342,-16.2147114,172.11658319999995,57.96616086,30.79076292
2.3899999999999997,239,0.905,-0.134,0.46,17.475219,12.3758928,-9.2819196,172.460358,57.85729884,30.99129822
2.4,240,0.7859999999999999,-0.023,0.408,19.9962342,3.4377480000000005,-9.167328,172.83851027999995,57.84583968000001,31.19183352
2.4099999999999997,241,0.7,0.08900000000000001,0.418,20.9702628,-2.9793816000000004,-13.178034,173.25676962,57.89167632,31.43247588
2.42,242,0.688,0.16899999999999998,0.496,17.8189938,-5.2712136,-17.246035799999998,173.70940644,57.96043128,31.74760278
2.4299999999999997,243,0.659,0.173,0.563,7.5630456000000015,-4.7555514,-20.6837838,174.11047704,58.02918624,32.13148464
2.44,244,0.698,0.157,0.62,4.7555514,-6.990087599999999,-23.14750320000001,174.51727722,58.11512994000001,32.55547356
2.4499999999999997,245,0.743,0.128,0.65,5.042030400000002,-9.3965112,-21.829699800000004,174.99283236000005,58.19534406,33.03102869999999
2.46,246,0.7509999999999999,0.106,0.638,7.5057497999999985,-10.6570188,-19.0222056,175.36525506,58.31566524000001,33.38053308
2.4699999999999998,247,0.768,0.08,0.624,10.255948199999999,-8.9381448,-15.183387000000002,175.71475944,58.4130681,33.6612825
2.48,248,0.795,0.053,0.61,11.4018642,-5.958763200000001,-11.516455800000001,176.0126976,58.48182306,33.87327696
2.4899999999999998,249,0.8370000000000001,0.008,0.612,9.453807000000001,-2.578311,-8.4224826,176.24761038,58.51047096,34.0337052
2.5,250,0.871,-0.022,0.624,5.1566220000000005,1.0313244,-5.9014674000000005,176.4137682,58.470363899999995,34.16548554000001
2.51,251,0.908,-0.03,0.632,0.286479,5.443101,-3.7815227999999994,176.48252316,58.41879768,34.23997008
2.52,252,0.941,-0.025,0.637,-2.7501984,8.59437,-2.0626488000000003,176.48825274,58.33285398,34.28580672
2.53,253,0.953,-0.002,0.6459999999999999,-3.2658606,8.3651868,-0.5156622000000001,176.46533442,58.25263986,34.29726588
2.54,254,0.942,0.015,0.633,-3.724227,5.2712136,1.8334656000000005,176.40230904,58.20107363999999,34.26861798
2.55,255,0.929,0.027000000000000003,0.616,-4.010706000000001,1.8907613999999997,4.6982556,176.35074282,58.16669616,34.23997008
2.56,256,0.907,0.021,0.596,-2.5210152000000003,-1.145916,7.6776372,176.20177374,58.17815532,34.091001
2.57,257,0.8909999999999999,0.016,0.564,-0.057295800000000015,-3.4950437999999995,9.6256944,176.04707507999996,58.20680322000001,33.90765444
2.5799999999999996,258,0.873,0.034,0.5429999999999999,1.4896908000000002,-5.958763200000001,8.7089616,175.92102432,58.25836943999999,33.74149662000001
2.59,259,0.93,0.058,0.529,4.010706000000001,-9.2819196,5.5003968,175.8694581,58.34431314,33.626905019999995
2.5999999999999996,260,0.917,0.062,0.557,9.6829902,-11.2872726,3.2658606,175.96686096000005,58.45890474,33.60971628
2.61,261,0.8859999999999999,0.029,0.5579999999999999,16.4438946,-10.4851314,4.0680017999999984,176.06426382,58.5563076,33.52950216000001
2.6199999999999997,262,0.84,0.006999999999999999,0.568,21.3140376,-12.5477802,7.161975,176.16166668,58.67089920000001,33.38626266
2.63,263,0.8809999999999999,0.0,0.5660000000000001,21.5432208,-18.2200644,9.6829902,176.21896248000004,58.8427866,33.19145694
2.6399999999999997,264,0.901,-0.001,0.584,20.5691922,-24.7517856,12.032117999999999,176.21896248000004,59.07769938,32.945085
2.65,265,0.928,-0.015,0.602,19.8816426,-28.304125199999998,13.6364004,176.184585,59.34698964,32.66433558
2.6599999999999997,266,0.931,-0.032,0.619,17.8762896,-28.1895336,14.5531332,176.11010045999996,59.61055032,32.36066784
2.67,267,0.946,-0.023,0.618,13.980175199999998,-26.2414764,14.610429000000002,175.98977928000005,59.86265184,32.057000099999996
2.6799999999999997,268,0.947,-0.003,0.615,14.152062599999999,-25.210152,13.178034,175.89810599999996,60.09756462,31.776250680000004
2.69,269,0.936,-0.027000000000000003,0.5920000000000001,14.32395,-26.1268848,12.318597,175.8121623,60.34966614,31.506960419999995
2.6999999999999997,270,0.934,-0.049,0.599,13.9228794,-31.1689152,13.0061466,175.70902986000004,60.63614514,31.22048142
2.71,271,0.941,-0.064,0.579,7.0473834,-36.6120162,15.0114996,175.49130582,60.98564952,30.8824362
2.7199999999999998,272,0.927,-0.05,0.5589999999999999,5.3285094000000015,-42.62807520000001,16.8449652,175.20482682,61.39817928,30.48709518
2.73,273,0.908,-0.067,0.545,4.1825934,-45.3209778,18.6784308,174.86105202,61.82789778,30.04591752
2.7399999999999998,274,0.888,-0.06,0.509,2.9793816000000004,-46.8679644,20.2254174,174.465711,62.26907544000001,29.55317364
2.75,275,0.861,-0.053,0.4920000000000001,3.7815227999999994,-47.7846972,21.2567418,174.04745166,62.71598268,29.02605228
2.76,276,0.85,-0.049,0.468,6.130650599999999,-47.4982182,20.626488,173.64638106,63.16288992,28.49893092000001
2.77,277,0.84,-0.048,0.457,8.136003599999999,-48.128471999999995,19.0222056,173.27968793999997,63.61552673999999,27.9889983
2.78,278,0.856,-0.055,0.467,10.7716104,-49.3316838,16.673077799999998,172.97029062,64.07962272,27.51344316
2.79,279,0.8740000000000001,-0.065,0.481,10.1986524,-50.6494872,13.8655836,172.69527078,64.56090744000001,27.08945424
2.8,280,0.89,-0.079,0.482,8.5370742,-52.0245864,10.6570188,172.44889884,65.05365132,26.71703154
2.81,281,0.903,-0.098,0.476,7.8495246,-52.425657,7.5630456000000015,172.25982270000003,65.55785436,26.40763422
2.82,282,0.902,-0.117,0.462,5.2712136,-52.139178,5.042030400000002,172.0879353,66.06205739999999,26.14980312
2.8299999999999996,283,0.89,-0.134,0.439,2.9220857999999996,-50.82137460000001,3.5523396000000003,171.9160479,66.55480127999999,25.92061992
2.84,284,0.877,-0.138,0.418,0.9740286,-49.04520479999999,1.8907613999999997,171.75561966,67.036086,25.73154378
2.8499999999999996,285,0.88,-0.126,0.392,0.057295800000000015,-47.4982182,0.286479,171.59519142000005,67.50018198000001,25.55392680000001
2.86,286,0.89,-0.118,0.38,-0.1718874,-46.6387812,-1.2605076000000002,171.49778855999998,67.95854838,25.44506478
2.8699999999999997,287,0.904,-0.106,0.375,-1.6042823999999998,-46.5241896,-3.0366774,171.42330402,68.42264436,25.37630982
2.88,288,0.917,-0.097,0.368,-3.151269,-45.8939358,-5.0993262,171.38319696,68.88101076000001,25.35912108
2.8899999999999997,289,0.931,-0.094,0.35700000000000004,-4.1252976000000015,-45.263682,-7.161975,171.38892654,69.33364758,25.40495772
2.9,290,0.935,-0.096,0.345,-5.3858052,-44.8626114,-8.8235532,171.40611528,69.7862844,25.47944226
2.9099999999999997,291,0.934,-0.1,0.33,-7.0473834,-44.51883660000001,-10.255948199999999,171.46914066,70.23892122,25.61695218
2.92,292,0.932,-0.102,0.317,-8.250595200000001,-44.404245,-11.1153852,171.54935478,70.69155803999998,25.78311
2.9299999999999997,293,0.928,-0.102,0.31,-8.9381448,-44.7480198,-11.688343199999998,171.64102806,71.14992443999998,25.97218614
2.94,294,0.927,-0.097,0.305,-9.740286,-44.690724,-12.318597,171.75561966,71.60829084,26.18991018
2.9499999999999997,295,0.932,-0.08900000000000001,0.298,-10.599723,-44.0031744,-12.6623718,171.8587521,72.06092766,26.40763422
2.96,296,0.935,-0.08,0.28800000000000003,-11.8029348,-43.0291458,-12.9488508,171.99053243999995,72.50210532,26.66546532
2.9699999999999998,297,0.931,-0.068,0.28,-12.7769634,-41.3675676,-13.0634424,172.13377194,72.92609424,26.94621474
2.98,298,0.925,-0.058,0.274,-13.349921400000001,-39.3049188,-13.178034,172.2884706,73.33289442,27.2441529
2.9899999999999998,299,0.918,-0.049,0.27,-13.6364004,-37.1849742,-13.2926256,172.460358,73.71677628,27.56500938
3.0,300,0.915,-0.04,0.267,-13.8082878,-35.122325399999994,-13.8082878,172.67235246,74.0834694,27.92597292
3.01,301,0.914,-0.033,0.261,-14.152062599999999,-32.8877892,-13.6936962,172.89580608,74.42151462000002,28.304125200000005
3.02,302,0.912,-0.029,0.251,-14.2093584,-29.8511118,-13.521808800000002,173.13644844,74.73664152,28.69373664
3.03,303,0.911,-0.027000000000000003,0.236,-14.152062599999999,-27.1009134,-13.178034,173.38282038,75.01739094,29.100536819999995
3.04,304,0.911,-0.019,0.219,-13.8082878,-24.2361234,-12.891555,173.64065148,75.27522203999997,29.507337
3.05,305,0.916,-0.013,0.207,-12.834259199999998,-21.6005166,-12.1467096,173.92713048000005,75.51013481999998,29.93132592
3.06,306,0.924,-0.003,0.197,-11.45916,-19.1367972,-11.2872726,174.18496158,75.71067012,30.32093736
3.07,307,0.935,0.003,0.194,-10.313244,-17.589810600000003,-10.255948199999999,174.43133352,75.89401668000002,30.68190090000001
3.08,308,0.949,0.005,0.19,-8.8235532,-16.272007199999994,-8.9954406,174.65478714,76.06590408,31.00275738
3.09,309,0.958,0.006999999999999999,0.19,-7.2765666,-15.527161800000002,-7.2192707999999985,174.83240412,76.22633232000003,31.2548589
3.0999999999999996,310,0.963,0.012,0.187,-5.72958,-15.126091199999998,-5.9014674000000005,175.038669,76.40394930000002,31.52414916
3.11,311,0.963,0.01,0.18600000000000005,-4.4690724,-14.7250206,-4.9847345999999995,175.16471976,76.55291838000002,31.69603656
3.1199999999999997,312,0.962,0.011,0.189,-3.0366774,-14.0947668,-4.4690724,175.28504094,76.69615788,31.856464799999998
3.13,313,0.96,0.011,0.194,-1.9480572,-13.464512999999998,-4.1252976000000015,175.4110917,76.8336678,32.005433880000005
3.1399999999999997,314,0.963,0.009000000000000001,0.202,-1.6042823999999998,-13.464512999999998,-4.010706000000001,175.54287204000005,76.97117771999999,32.14867338
3.15,315,0.97,0.006,0.21,-2.0626488000000003,-13.8655836,-3.9534102,175.7262186,77.12014680000001,32.35493826
3.1599999999999997,316,0.979,0.003,0.211,-2.9793816000000004,-14.5531332,-3.8388186,175.83508062,77.26911588,32.49817776
3.17,317,0.98,0.008,0.198,-3.5523396000000003,-14.896907999999998,-3.7815227999999994,175.93821306,77.41808496,32.635687680000004
3.1799999999999997,318,0.977,0.018000000000000002,0.184,-3.0939732,-13.2353298,-3.2658606,176.02988634,77.55559488,32.76173844
3.19,319,0.973,0.026,0.174,-1.2032118,-10.6570188,-2.1199446,176.09291172000005,77.65872732,32.84195256
3.1999999999999997,320,0.97,0.031,0.17600000000000002,0.6875496,-7.7922288,-0.8021411999999999,176.37366114000002,77.78477808,33.11124282
3.21,321,0.96,0.024,0.182,2.6356068,-5.3285094000000015,0.2291832000000001,176.37939072,77.83634430000002,33.08832450000001
3.2199999999999998,322,0.957,0.011,0.188,4.2398892,-3.4377480000000005,0.9740286,176.37366114000002,77.87072178,33.03675828
3.23,323,0.954,0.0,0.195,5.3285094000000015,-1.7761698,1.432395,176.36220197999995,77.88218094,32.968003319999994
3.2399999999999998,324,0.948,-0.011,0.199,5.5576926,0.057295800000000015,1.5469866,176.35074282,77.88218094,32.89924836
3.25,325,0.961,-0.015,0.203,4.8128472,1.8907613999999997,1.8334656000000005,176.34501324,77.87645136,32.84768214
3.26,326,0.964,-0.013,0.204,3.9534102,3.8961144,2.4064236,176.28198786000004,77.83634430000002,32.73882012
3.27,327,0.971,-0.004,0.201,3.7815227999999994,5.2139178,2.9793816000000004,176.19031458,77.7790485,32.607039779999994
3.28,328,0.972,0.003,0.197,4.1252976000000015,6.417129599999999,3.6669312000000014,176.07572298,77.71602312,32.446611540000006
3.29,329,0.97,0.006999999999999999,0.194,4.7555514,7.2765666,4.4690724,175.93821306,77.63580900000002,32.25180582
3.3,330,0.967,0.004,0.2,5.5003968,8.307891,5.1566220000000005,175.82935103999995,77.56132446000002,32.085648
3.31,331,0.967,-0.006999999999999999,0.206,5.844171599999999,9.2819196,5.6722842,175.65173406,77.46392159999998,31.84500564
3.32,332,0.966,-0.023,0.214,5.7868758000000025,10.255948199999999,5.844171599999999,175.47984666,77.36078916,31.60436328
3.33,333,0.965,-0.033,0.22,5.443101,11.45916,5.5576926,175.31368884,77.24046797999998,31.38663924
3.34,334,0.969,-0.038,0.222,4.8128472,13.178034,5.0993262,175.17617892,77.10868764,31.19183352
3.3499999999999996,335,0.973,-0.038,0.221,4.6409598,13.9228794,4.5263682,175.04439857999995,76.97117771999999,31.01421654
3.36,336,0.978,-0.035,0.225,4.6982556,14.0947668,3.9534102,174.95845488,76.82793822,30.87670662
3.3699999999999997,337,0.982,-0.034,0.228,4.7555514,13.750992000000002,3.6096354,174.88969992,76.68469872,30.75638544000001
3.38,338,0.985,-0.034,0.234,4.5263682,13.2353298,3.4377480000000005,174.82667454,76.55291838000002,30.64752342
3.3899999999999997,339,0.986,-0.035,0.241,4.1252976000000015,12.891555,3.2658606,174.76364916,76.42113803999997,30.54439098000001
3.4,340,0.984,-0.037000000000000005,0.25,3.6669312000000014,13.0061466,3.151269,174.6948942,76.28935770000002,30.42979938
3.4099999999999997,341,0.982,-0.04,0.258,3.2085648,13.2926256,2.9793816000000004,174.63759840000003,76.15184778,30.34385568
3.42,342,0.98,-0.041,0.266,2.6356068,13.521808800000002,2.8074942000000003,174.58603218000005,76.01433786,30.263641560000003
3.4299999999999997,343,0.979,-0.041,0.269,2.1199446,13.349921400000001,2.5210152000000003,174.54592512,75.88255752,30.20061618
3.44,344,0.977,-0.041,0.273,1.5469866,12.834259199999998,2.2345362,174.50581806,75.75077718,30.14332038
3.4499999999999997,345,0.978,-0.042,0.276,1.2605076000000002,12.1467096,1.8334656000000005,174.45998142000005,75.62472642,30.09175416
3.46,346,0.976,-0.039,0.276,0.8021411999999999,11.6310474,1.4896908000000002,174.44279268,75.50440524000003,30.06310626
3.4699999999999998,347,0.977,-0.037000000000000005,0.277,0.7448454000000001,11.0007936,1.3178034,174.42560394,75.39554322000002,30.04018794000001
3.48,348,0.979,-0.034,0.281,0.4010706,10.9434978,1.3750992,174.40268562,75.2866812,30.01154004
3.4899999999999998,349,0.98,-0.034,0.28800000000000003,0.11459160000000004,10.9434978,1.4896908000000002,174.37976730000003,75.17781918,29.98289214
3.5,350,0.983,-0.034,0.293,-0.11459160000000004,10.7143146,1.4896908000000002,174.35684898,75.05176842,29.9657034
3.51,351,0.984,-0.03,0.299,-0.4583664000000001,10.026765,1.3178034,174.32820108,74.95436556000001,29.94278508
3.52,352,0.986,-0.028,0.303,-0.5156622000000001,8.880849000000003,0.9740286,174.30528276,74.86269228,29.92559634
3.53,353,0.987,-0.027000000000000003,0.306,-0.3437748,7.7922288,0.6875496,174.29382360000002,74.78247816,29.91986676
3.54,354,0.988,-0.029,0.314,-0.4010706,6.990087599999999,0.4010706,174.29382360000002,74.71372319999998,29.92559634
3.55,355,0.986,-0.034,0.317,-0.572958,6.3598338,0.11459160000000004,174.31674192,74.60486118,29.95424424
3.56,356,0.983,-0.034,0.318,-0.7448454000000001,5.3285094000000015,0.0,174.3224715,74.55329496,29.97143298
3.57,357,0.977,-0.033,0.315,-0.9167328,4.1252976000000015,-0.286479,174.33966024,74.5131879,29.994351300000005
3.58,358,0.973,-0.03,0.312,-1.0313244,2.578311,-0.4583664000000001,174.35111940000004,74.49026957999997,30.01726962
3.59,359,0.972,-0.027000000000000003,0.311,-0.9740286,1.7188740000000002,-0.6875496,174.36830814,74.47308084,30.051647100000004
3.5999999999999996,360,0.973,-0.025,0.308,-0.8021411999999999,1.0313244,-0.8594370000000001,174.56884344,74.36421881999998,30.252182399999995
3.61,361,0.974,-0.026,0.31,-0.5156622000000001,0.5156622000000001,-1.0313244,174.59749133999995,74.35848924,30.29228946
3.6199999999999997,362,0.976,-0.027000000000000003,0.31,-0.2291832000000001,0.286479,-1.145916,174.63759840000003,74.35848924,30.3381261
3.63,363,0.979,-0.026,0.306,-0.057295800000000015,0.11459160000000004,-1.2605076000000002,174.68343504,74.35275966,30.38396274
3.6399999999999997,364,0.981,-0.023,0.303,0.0,-0.4583664000000001,-1.0886202,174.72354209999997,74.35848924,30.424069799999995
3.65,365,0.978,-0.021,0.3,0.11459160000000004,-1.0313244,-1.145916,174.91261823999997,74.3413005,30.61314594
3.6599999999999997,366,0.979,-0.021,0.297,0.5156622000000001,-1.6042823999999998,-1.0313244,174.9527253,74.35848924,30.64752342
3.67,367,0.977,-0.022,0.29600000000000004,0.7448454000000001,-2.0053530000000004,-1.0313244,174.99283236000005,74.37567798,30.68190090000001
3.6799999999999997,368,0.976,-0.024,0.29600000000000004,0.9167328,-2.0053530000000004,-0.9167328,175.03293942,74.3985963,30.71627838
3.69,369,0.978,-0.027000000000000003,0.292,0.9167328,-1.7761698,-0.8594370000000001,175.07304648,74.41578503999997,30.74492628
3.6999999999999997,370,0.981,-0.028,0.287,0.8021411999999999,-1.6615782,-0.6302538000000001,175.13607186,74.43297378,30.80222208
3.71,371,0.979,-0.026,0.281,0.572958,-1.8334656000000005,-0.4583664000000001,175.15899018,74.45016252,30.81368124
3.7199999999999998,372,0.978,-0.024,0.276,0.8021411999999999,-2.1772404,-0.1718874,175.17044934,74.47308084,30.819410819999995
3.73,373,0.974,-0.022,0.271,1.0313244,-2.7501984,-0.057295800000000015,175.17617892,74.50172874,30.81368124
3.7399999999999998,374,0.972,-0.024,0.268,1.4896908000000002,-3.3231564,0.0,175.18763808,74.53610622,30.80795166
3.75,375,0.97,-0.027000000000000003,0.27,1.7761698,-3.7815227999999994,-0.1718874,175.21628598,74.58194286,30.819410819999995
3.76,376,0.968,-0.03,0.269,1.6042823999999998,-3.8388186,-0.1718874,175.2392043,74.62204992,30.819410819999995
3.77,377,0.97,-0.032,0.268,1.2032118,-3.8388186,-0.2291832000000001,175.25066346,74.66215697999998,30.8251404
3.78,378,0.973,-0.03,0.267,1.0886202,-4.010706000000001,-0.4583664000000001,175.27358178,74.70226404,30.83659956
3.79,379,0.974,-0.028,0.266,0.8021411999999999,-4.010706000000001,-0.4583664000000001,175.2965001,74.74237109999999,30.84232914
3.8,380,0.974,-0.029,0.264,0.7448454000000001,-4.1252976000000015,-0.4583664000000001,175.31941842,74.7996669,30.86524746
3.81,381,0.97,-0.028,0.263,0.572958,-4.010706000000001,-0.5156622000000001,175.33660716,74.83977395999997,30.87670662
3.82,382,0.962,-0.029,0.264,0.4583664000000001,-3.8961144,-0.5156622000000001,175.35952548,74.87988102,30.88816578
3.83,383,0.959,-0.03,0.264,0.286479,-3.6669312000000014,-0.6302538000000001,175.37671422,74.91425849999997,30.905354520000003
3.84,384,0.96,-0.03,0.264,0.0,-3.2085648,-0.7448454000000001,175.39963254,74.94863597999998,30.92827284
3.8499999999999996,385,0.965,-0.03,0.265,-0.057295800000000015,-3.0366774,-0.8021411999999999,175.41682128,74.98301346,30.94546158
3.86,386,0.969,-0.03,0.267,-0.286479,-3.2085648,-0.8594370000000001,175.4397396,75.01739094,30.97410948
3.8699999999999997,387,0.972,-0.03,0.265,-0.3437748,-3.6669312000000014,-0.8594370000000001,175.46265792,75.05176842,31.00275738
3.88,388,0.975,-0.027000000000000003,0.263,-0.4583664000000001,-4.010706000000001,-0.8594370000000001,175.48557624,75.09187548,31.0256757
3.8899999999999997,389,0.976,-0.021,0.259,-0.4010706,-4.010706000000001,-0.8594370000000001,175.50849456,75.13198254,31.054323600000004
3.9,390,0.973,-0.018000000000000002,0.255,0.11459160000000004,-3.9534102,-0.6302538000000001,175.60589742,75.2007375,31.15172646000001
3.9099999999999997,391,0.971,-0.017,0.253,0.8021411999999999,-3.8388186,-0.5156622000000001,175.62881574,75.23511498,31.16318562
3.92,392,0.97,-0.015,0.255,1.2605076000000002,-3.5523396000000003,-0.2291832000000001,175.64600448,75.27522203999997,31.168915200000004
3.9299999999999997,393,0.965,-0.015,0.258,1.5469866,-2.6356068,-0.2291832000000001,175.66892280000005,75.29814036,31.17464478
3.94,394,0.964,-0.016,0.263,1.5469866,-1.3178034,-0.057295800000000015,175.68611154,75.3153291,31.17464478
3.9499999999999997,395,0.964,-0.017,0.266,1.2605076000000002,0.0,0.057295800000000015,175.89237642,75.29814036,31.36372092
3.96,396,0.97,-0.016,0.267,0.9167328,0.8021411999999999,0.286479,175.89237642,75.2866812,31.352261760000005
3.9699999999999998,397,0.974,-0.018000000000000002,0.267,0.8021411999999999,0.8021411999999999,0.572958,175.87518768,75.28095162,31.32934344
3.98,398,0.977,-0.021,0.267,0.9167328,0.11459160000000004,0.8021411999999999,175.85226935999995,75.27522203999997,31.30069554
3.9899999999999998,399,0.977,-0.024,0.266,1.145916,-0.5156622000000001,1.0313244,175.82935103999995,75.28095162,31.2548589
4.0,400,0.975,-0.027000000000000003,0.266,1.2032118,-1.0886202,0.9740286,175.80070314,75.29814036,31.21475184
4.01,401,0.97,-0.03,0.266,1.0313244,-1.3178034,0.7448454000000001,175.77778482,75.30959952,31.18037436
4.02,402,0.965,-0.029,0.266,0.8594370000000001,-1.2605076000000002,0.4583664000000001,175.76632566,75.32105868,31.16318562
4.03,403,0.965,-0.027000000000000003,0.265,0.7448454000000001,-0.8021411999999999,0.1718874,175.76632566,75.32678826,31.15172646000001
4.04,404,0.964,-0.025,0.265,0.8594370000000001,-0.286479,0.0,175.77778482,75.33251784000002,31.15172646000001
4.05,405,0.967,-0.025,0.267,0.8594370000000001,0.4583664000000001,-0.286479,175.82935103999995,75.32678826,31.197563100000004
4.06,406,0.971,-0.028,0.266,0.6875496,1.145916,-0.5156622000000001,175.85799894000004,75.3153291,31.22048142
4.07,407,0.977,-0.029,0.267,0.5156622000000001,1.145916,-0.6302538000000001,175.88664684,75.30386994,31.24339974
4.08,408,0.98,-0.029,0.265,0.1718874,0.9740286,-0.572958,175.91529473999995,75.29241078,31.27204764
4.09,409,0.98,-0.029,0.264,-0.057295800000000015,0.7448454000000001,-0.4583664000000001,175.93248348,75.2866812,31.28923638
4.1,410,0.979,-0.024,0.261,-0.2291832000000001,0.6302538000000001,-0.3437748,176.04707507999996,75.32105868,31.40382798
4.109999999999999,411,0.975,-0.021,0.26,-0.286479,0.7448454000000001,-0.2291832000000001,176.05280466,75.3153291,31.41528714
4.12,412,0.97,-0.021,0.259,-0.057295800000000015,0.8594370000000001,-0.11459160000000004,176.05853424000003,75.30959952,31.42101672
4.13,413,0.968,-0.022,0.261,0.11459160000000004,1.145916,0.0,176.06426382,75.29814036,31.4267463
4.14,414,0.967,-0.024,0.261,0.11459160000000004,1.7188740000000002,0.0,176.06999340000004,75.28095162,31.43247588
4.1499999999999995,415,0.968,-0.026,0.262,0.11459160000000004,1.9480572,0.0,176.08718214,75.26949246000002,31.44966462
4.16,416,0.968,-0.026,0.26,0.1718874,2.2345362,-0.1718874,176.09864130000003,75.24657413999998,31.46112378
4.17,417,0.97,-0.026,0.261,0.4010706,2.1199446,-0.1718874,176.11583004,75.22365582,31.47258294
4.18,418,0.972,-0.024,0.261,0.5156622000000001,1.8334656000000005,-0.2291832000000001,176.13301878,75.20646708,31.484042100000003
4.1899999999999995,419,0.973,-0.021,0.265,0.572958,1.7761698,-0.057295800000000015,176.14447794,75.18927834,31.48977168
4.2,420,0.973,-0.021,0.266,0.5156622000000001,1.9480572,0.11459160000000004,176.2132329,75.17781918,31.54706748000001
4.21,421,0.975,-0.017,0.267,0.4583664000000001,2.0053530000000004,0.4583664000000001,176.20177374,75.16063044,31.53560832
4.22,422,0.974,-0.014,0.269,0.7448454000000001,2.4064236,0.6875496,176.184585,75.13198254,31.51269000000001
4.2299999999999995,423,0.972,-0.014,0.27,1.0886202,3.0366774,1.0313244,176.16166668,75.10333464,31.47258294
4.24,424,0.972,-0.016,0.27,1.5469866,3.5523396000000003,1.3750992,176.13301878,75.06322758,31.4267463
4.25,425,0.974,-0.019,0.27,2.0626488000000003,4.010706000000001,1.5469866,176.12155962,75.0288501,31.39236882
4.26,426,0.974,-0.021,0.268,2.7501984,4.0680017999999984,1.7761698,176.08718214,74.98301346,31.33507302000001
4.27,427,0.973,-0.022,0.266,3.3231564,3.724227,1.7188740000000002,176.06426382,74.94863597999998,31.27204764
4.28,428,0.975,-0.021,0.268,3.6096354,2.9220857999999996,1.5469866,176.04707507999996,74.91425849999997,31.22048142
4.29,429,0.974,-0.022,0.276,3.6096354,2.291832,1.432395,176.03561592,74.89134018,31.168915200000004
4.3,430,0.974,-0.022,0.28,3.151269,2.1772404,1.3750992,176.05280466,74.86269228,31.14599688
4.31,431,0.972,-0.021,0.281,2.9220857999999996,2.5210152000000003,1.2032118,176.0413455,74.83404438,31.10588982
4.32,432,0.966,-0.022,0.28,2.9793816000000004,2.86479,1.2032118,176.02988634,74.80539647999998,31.06578276
4.33,433,0.962,-0.02,0.276,3.151269,3.2085648,1.2605076000000002,176.01842718,74.771019,31.01994612
4.34,434,0.962,-0.023,0.275,3.151269,3.4377480000000005,1.3750992,176.00696802,74.73664152,30.97410948
4.35,435,0.963,-0.023,0.274,2.9220857999999996,3.3231564,1.4896908000000002,176.00123844,74.70226404,30.93973200000001
4.36,436,0.965,-0.025,0.279,2.5210152000000003,3.0366774,1.432395,175.98404969999999,74.66788656,30.88816578
4.37,437,0.97,-0.026,0.282,2.1199446,2.86479,1.4896908000000002,175.9554018,74.63923866,30.83659956
4.38,438,0.971,-0.029,0.285,1.5469866,2.7501984,1.4896908000000002,175.92102432,74.61059076000002,30.78503334
4.39,439,0.97,-0.031,0.285,1.0313244,2.6929026,1.432395,175.88091726,74.58194286,30.7391967
4.3999999999999995,440,0.968,-0.031,0.282,0.6302538000000001,2.9220857999999996,1.2605076000000002,175.84081020000005,74.54756538,30.68763048000001
4.41,441,0.969,-0.032,0.28,0.4010706,3.151269,1.0886202,175.8121623,74.5131879,30.65325300000001
4.42,442,0.969,-0.032,0.279,0.11459160000000004,3.4377480000000005,1.0313244,175.77778482,74.47881042,30.61887552
4.43,443,0.97,-0.033,0.278,-0.057295800000000015,3.4950437999999995,0.8021411999999999,175.7548665,74.44443294,30.595957199999997
4.4399999999999995,444,0.972,-0.034,0.28,-0.3437748,3.4950437999999995,0.5156622000000001,175.73767776,74.41005546,30.57876846
4.45,445,0.97,-0.034,0.279,-0.5156622000000001,3.2085648,0.286479,175.6975707,74.38140755999999,30.55012056
4.46,446,0.967,-0.033,0.28,-0.8594370000000001,2.9793816000000004,0.0,175.69184112,74.35275966,30.55585014
4.47,447,0.963,-0.032,0.281,-1.145916,3.2085648,-0.1718874,175.69184112,74.31838218,30.567309299999998
4.4799999999999995,448,0.962,-0.031,0.28,-1.2032118,3.380452200000001,-0.2291832000000001,175.69184112,74.2840047,30.58449804
4.49,449,0.965,-0.03,0.28,-1.145916,3.7815227999999994,-0.4010706,175.70330028,74.24962722000002,30.60168678
4.5,450,0.967,-0.027000000000000003,0.279,-1.0313244,4.0680017999999984,-0.3437748,175.73194818,74.21524974,30.64179384
4.51,451,0.969,-0.024,0.279,-0.8594370000000001,3.724227,-0.3437748,175.73767776,74.18087225999999,30.66471216
4.52,452,0.971,-0.024,0.281,-0.7448454000000001,3.380452200000001,-0.3437748,175.74913692,74.14649478,30.68190090000001
4.53,453,0.976,-0.027000000000000003,0.28800000000000003,-0.8594370000000001,3.0366774,-0.2291832000000001,175.7548665,74.11784688,30.693360060000003
4.54,454,0.976,-0.027000000000000003,0.287,-1.2032118,2.8074942000000003,-0.2291832000000001,175.7548665,74.08919897999998,30.710548800000005
4.55,455,0.971,-0.026,0.28300000000000003,-0.9740286,2.9793816000000004,-0.2291832000000001,175.77205524,74.06628065999998,30.7391967
4.56,456,0.969,-0.029,0.282,-0.7448454000000001,3.3231564,-0.286479,175.7835144,74.03190318,30.75638544000001
4.57,457,0.965,-0.029,0.279,-0.286479,4.010706000000001,-0.4583664000000001,175.80070314,73.99179612,30.78503334
4.58,458,0.961,-0.024,0.274,0.6302538000000001,4.5263682,-0.4010706,175.82935103999995,73.95168906,30.80795166
4.59,459,0.967,-0.019,0.278,1.8907613999999997,3.5523396000000003,0.0,175.85799894000004,73.911582,30.81368124
4.6,460,0.978,-0.021,0.29600000000000004,3.151269,2.0626488000000003,0.5156622000000001,175.91529473999995,73.87720451999998,30.83659956
4.61,461,0.988,-0.026,0.311,3.7815227999999994,1.2605076000000002,0.9740286,175.92102432,73.86574535999998,30.80222208
4.62,462,0.995,-0.029,0.315,3.151269,0.0,1.2605076000000002,175.90956516,73.86574535999998,30.76211502
4.63,463,0.995,-0.037000000000000005,0.31,1.9480572,-1.0886202,1.432395,175.88091726,73.87147494000001,30.70481922
4.64,464,0.984,-0.039,0.304,0.11459160000000004,-0.9167328,1.432395,175.82935103999995,73.88293409999999,30.65325300000001
4.6499999999999995,465,0.974,-0.042,0.29600000000000004,-1.8907613999999997,0.4010706,1.3750992,175.67465238,73.87147494000001,30.52147266
4.66,466,0.96,-0.048,0.279,-4.2398892,2.0053530000000004,1.0886202,175.60016783999995,73.8542862,30.481365600000004
4.67,467,0.941,-0.045,0.262,-6.1879464,3.5523396000000003,0.572958,175.51995372000005,73.81990872,30.46417686
4.68,468,0.926,-0.042,0.25,-6.703608600000001,6.3025379999999975,-0.4583664000000001,175.47411707999996,73.75688333999999,30.49282476
4.6899999999999995,469,0.916,-0.047,0.245,-8.193299399999999,9.3392154,-1.4896908000000002,175.45692834000005,73.66521005999998,30.56157972
4.7,470,0.914,-0.046,0.249,-10.1413566,11.5737516,-2.291832,175.42828043999995,73.56207762,30.64752342
4.71,471,0.912,-0.04,0.264,-11.2872726,12.261301199999998,-3.2085648,175.4397396,73.44175643999998,30.77930376
4.72,472,0.907,-0.037000000000000005,0.268,-11.45916,13.8082878,-4.2398892,175.48557624,73.3099761,30.94546158
4.7299999999999995,473,0.914,-0.035,0.271,-11.229976800000001,16.272007199999994,-5.443101,175.57151994,73.15527744,31.15745604
4.74,474,0.922,-0.034,0.269,-10.8289062,19.0795014,-6.8182002000000015,175.70902986000004,72.97193088,31.42101672
4.75,475,0.931,-0.039,0.27,-9.969469199999999,21.485925,-7.8495246,175.87518768,72.77139558,31.70176614
4.76,476,0.934,-0.047,0.28,-8.9954406,21.829699800000004,-8.193299399999999,176.06999340000004,72.5651307,32.005433880000005
4.77,477,0.949,-0.054000000000000006,0.298,-8.9381448,21.7151082,-8.307891,176.25906954,72.35313624,32.30337204
4.78,478,0.977,-0.057,0.298,-8.8235532,20.798375399999998,-7.8495246,176.43095694,72.15260094,32.58412146
4.79,479,1.002,-0.057,0.303,-8.59437,19.308684600000007,-7.1046792000000005,176.57992602,71.96925438,32.8304934
4.8,480,1.022,-0.05,0.305,-8.021412000000002,17.4179232,-6.5317212,176.69451762,71.80882614,33.04248786
4.81,481,1.025,-0.036000000000000004,0.306,-6.417129599999999,15.6990492,-6.1879464,176.82629795999995,71.65985706000002,33.25448232
4.82,482,1.023,-0.022,0.319,-5.2139178,14.32395,-6.016058999999999,176.9580783,71.52234714,33.45501762
4.83,483,1.006,-0.008,0.33,-4.9847345999999995,13.464512999999998,-5.6722842,177.08412906,71.39056679999999,33.63836418
4.84,484,0.991,0.0,0.33,-4.9274388,13.349921400000001,-4.8701430000000006,177.18153192,71.25878646,33.79879242
4.85,485,0.978,0.003,0.333,-4.2398892,13.6936962,-3.0366774,177.26174604,71.13273569999998,33.93057276
4.86,486,0.974,0.003,0.335,-3.2658606,13.178034,-1.3178034,177.27320519999995,71.00095536,33.9764094
4.87,487,0.967,0.005,0.335,-2.1772404,10.8289062,-0.286479,177.26747562,70.89209334,33.99359814
4.88,488,0.981,-0.005,0.331,-0.8594370000000001,7.7922288,0.3437748,177.25028688,70.81760879999999,33.98786856
4.89,489,0.983,-0.01,0.339,-0.1718874,3.380452200000001,0.4583664000000001,177.23309813999995,70.78323132,33.9764094
4.8999999999999995,490,0.989,-0.009000000000000001,0.36,0.7448454000000001,-1.145916,0.572958,177.3018531,70.77750174,34.02797562
4.91,491,0.984,0.006,0.393,2.6356068,-5.844171599999999,1.2032118,177.29039394,70.83479754,33.98786856
4.92,492,0.966,0.034,0.428,4.297185,-10.599723,2.1199446,177.27320519999995,70.93792998,33.9191136
4.93,493,0.955,0.058,0.457,6.130650599999999,-15.5844576,3.3231564,177.23309813999995,71.08689906,33.81025158
4.9399999999999995,494,0.953,0.069,0.477,8.078707799999998,-20.7410796,4.297185,177.18153192,71.28743435999998,33.6612825
4.95,495,0.967,0.062,0.476,11.0580894,-23.2620948,5.042030400000002,177.17580234,71.49369924,33.53523174
4.96,496,0.986,0.048,0.465,14.495837400000001,-23.6058696,5.72958,177.14142486,71.72288244,33.34042602
4.97,497,1.0,0.042,0.461,16.386598799999998,-23.2620948,6.4744254,177.10704738,71.95206564,33.12270198
4.9799999999999995,498,1.025,0.041,0.463,17.0168526,-23.3193906,7.906820400000001,177.02683326,72.17551926,32.853411720000004
4.99,499,1.052,0.047,0.459,16.8449652,-24.7517856,10.255948199999999,176.86640502,72.41616162,32.50390734
5.0,500,1.077,0.055,0.45,16.8449652,-27.3873924,13.120738199999998,176.63149224,72.66826314,32.07418884
5.01,501,1.091,0.058,0.415,17.761698000000006,-31.51269000000001,16.4438946,176.26479912,72.9662013,31.48977168
5.02,502,1.081,0.054000000000000006,0.378,18.7930224,-37.7006364,19.1367972,175.7835144,73.32716484,30.78503334
5.03,503,1.061,0.042,0.36,18.3919518,-41.825934,21.199446,175.19909724,73.72250586,29.97716256
5.04,504,1.048,0.031,0.376,16.501190400000002,-45.550161,23.14750320000001,174.48862932,74.14649478,29.05470018
5.05,505,1.011,0.025,0.379,12.0894138,-48.414951,25.496631,173.61200358,74.59340202,28.00618704
5.06,506,0.953,0.03,0.376,7.0473834,-48.3576552,27.788463,172.52338337999996,75.03457968000002,26.79724566
5.07,507,0.926,0.025,0.364,3.0366774,-44.5761324,29.793816,171.25714620000005,75.43565028,25.45079436
5.08,508,0.932,0.022,0.333,0.0,-40.4508348,30.8251404,169.87058784,75.77942508000002,24.01266978
5.09,509,0.954,0.01,0.29600000000000004,-3.5523396000000003,-37.0130868,30.4813656,168.41527451999997,76.08309282,22.5458973
5.1,510,0.956,-0.002,0.271,-8.136003599999999,-33.5753388,29.220858000000003,166.95423162,76.34665349999999,21.11923188
5.11,511,0.978,-0.025,0.262,-11.9748222,-31.1689152,28.304125199999998,165.42443376,76.58729586000003,19.66391856
5.12,512,0.995,-0.056,0.253,-18.449247600000003,-30.3094782,28.7051958,163.76858513999997,76.80501989999998,18.15130944
5.13,513,1.004,-0.078,0.238,-26.5852512,-29.793816,29.9657034,161.92366038,77.00555519999998,16.5298383
5.14,514,1.002,-0.079,0.208,-33.9764094,-27.788463,31.51269000000001,159.9125778,77.16598344,14.81669388
5.1499999999999995,515,1.022,-0.075,0.166,-36.03905820000001,-25.0382646,33.2888598,157.80409236,77.2920342,13.02333534
5.16,516,1.039,-0.08800000000000001,0.152,-33.3461556,-23.2620948,34.4920716,155.66695902,77.37224832,11.17841058
5.17,517,1.038,-0.097,0.145,-32.372127,-21.485925,35.236917,153.52409609999995,77.41808496,9.31629708
5.18,518,1.042,-0.119,0.132,-33.116972399999995,-22.2880662,35.8671708,151.32393738000005,77.45819202,7.4026173600000025
5.1899999999999995,519,1.061,-0.138,0.128,-33.74722620000001,-24.7517856,36.2682414,149.03210538,77.49829908000002,5.40299394
5.2,520,1.096,-0.16399999999999998,0.132,-35.3515086,-26.69984280000001,36.7266078,146.63141136,77.53267656,3.3059676599999994
5.21,521,1.151,-0.19,0.162,-36.955791,-26.9863218,38.10170700000001,144.16769196,77.54413572000001,1.16310474
5.22,522,1.216,-0.201,0.194,-39.591397799999996,-25.210152,40.393539,141.64094717999996,77.50975824000002,-1.01413566
5.2299999999999995,523,1.289,-0.208,0.212,-43.0864416,-25.210152,43.3156248,138.99388122,77.43527370000002,-3.27731976
5.24,524,1.317,-0.196,0.209,-47.2117392,-26.5279554,46.5241896,136.19211660000002,77.32641168,-5.66082504
5.25,525,1.2919999999999998,-0.168,0.171,-48.7587258,-29.4500412,50.420304,133.22419416,77.18317218,-8.204758559999998
5.26,526,1.258,-0.158,0.162,-47.3263308,-33.9191136,55.2331512,130.05573642000002,77.00555519999998,-10.96641612
5.27,527,1.186,-0.168,0.146,-45.263682,-34.950438,60.9627312,126.81852372,76.75345368,-13.82547654
5.28,528,1.094,-0.156,0.105,-42.398892,-35.0077338,65.89017,123.6156885,76.42686762000002,-16.68453696
5.29,529,1.015,-0.161,0.091,-37.8725238,-36.7839036,69.61439700000001,120.47014907999998,76.04298576,-19.52640864
5.3,530,0.995,-0.19,0.09,-35.3515086,-37.8725238,73.1667366,117.42201252,75.60180809999999,-22.31098452
5.31,531,1.016,-0.221,0.095,-32.085648000000006,-38.8465524,76.4325972,114.49992672,75.09760506,-24.99815754
5.32,532,1.034,-0.248,0.099,-29.1062664,-41.252976,78.4379502,111.69816210000002,74.55329496,-27.60511644
5.33,533,1.048,-0.274,0.109,-28.304125199999998,-45.263682,79.354683,108.94796370000002,73.98033696,-30.166238699999997
5.34,534,1.05,-0.284,0.101,-29.0489706,-51.0505578,78.7244292,106.20349488000002,73.3959198,-32.72736096
5.35,535,1.025,-0.278,0.08800000000000001,-28.81978740000001,-54.602897399999996,77.23473840000003,103.55069934,72.81150264,-35.20826909999999
5.36,536,0.987,-0.26,0.081,-30.080295,-57.35309579999999,75.05749800000002,100.9838475,72.21562631999998,-37.586044799999996
5.37,537,0.952,-0.243,0.083,-30.7678446,-58.38442020000001,72.13541219999998,98.55450558,71.62547958,-39.820581
5.38,538,0.913,-0.239,0.08,-29.507337,-58.2125328,68.75496,96.30278064,71.03533284,-41.88895938
5.39,539,0.884,-0.241,0.081,-28.934379,-58.2698286,65.603691,94.1942952,70.45091568,-43.81982784
5.3999999999999995,540,0.8540000000000001,-0.247,0.048,-28.4187168,-58.15523699999999,63.6556338,92.2175901,69.8722281,-45.63037512
5.41,541,0.8009999999999999,-0.259,0.033,-28.6479,-56.436363,62.96808420000001,90.3841245,69.2706222,-47.28049416
5.42,542,0.794,-0.22,-0.002,-28.934379,-51.9099948,62.3951262,88.76265336,68.65755714000001,-48.71288916
5.43,543,0.8029999999999999,-0.226,-0.019,-24.1788276,-49.3316838,61.7648724,87.33598794000002,68.03876249999999,-49.9905855
5.4399999999999995,544,0.79,-0.261,-0.036000000000000004,-20.2254174,-46.409598,60.50436480000001,86.09266908,67.42569744,-51.11931276
5.45,545,0.7979999999999999,-0.303,-0.042,-19.0795014,-43.3729206,59.24385720000001,84.98686014,66.81836196,-52.12198926
5.46,546,0.826,-0.307,-0.05,-18.907614000000002,-41.4248634,58.3271244,83.97845406,66.21102648,-53.01580374
5.47,547,0.8270000000000001,-0.32,-0.041,-16.329303,-38.961144,55.86340500000001,83.09036916,65.62660932,-53.81221536
5.4799999999999995,548,0.848,-0.35,-0.033,-15.870936600000002,-36.669312,52.6548402,82.28822796,65.07084006,-54.52268328
5.49,549,0.8420000000000001,-0.369,-0.031,-17.9335854,-35.122325399999994,49.7327544,81.52046424,64.53798911999999,-55.1758554
5.5,550,0.845,-0.402,0.0,-18.449247600000003,-33.9764094,47.1544434,80.79853716,64.03378608,-55.77746129999999
5.51,551,0.848,-0.4370000000000001,0.027000000000000003,-19.308684600000007,-34.0337052,46.753372799999994,80.08233966,63.52385346,-56.36760803999999
5.52,552,0.861,-0.446,0.037000000000000005,-22.2307704,-31.913760600000003,46.123119,79.39479005999998,63.02538000000001,-56.88327024
5.53,553,0.885,-0.466,0.023,-24.7517856,-29.0489706,45.72204840000001,78.75880667999998,62.52690654000001,-57.32444790000001
5.54,554,0.8909999999999999,-0.454,0.001,-27.5592798,-27.043617600000005,45.72204840000001,78.14574162,62.03416266000001,-57.70260018000001
5.55,555,0.877,-0.4270000000000001,-0.026,-29.67922440000001,-24.350715,45.9512316,77.58424278,61.54714836000001,-58.006267920000006
5.56,556,0.866,-0.422,-0.07,-28.2468294,-22.6891368,46.4668938,77.07431016000002,61.048674899999995,-58.26409902
5.57,557,0.8590000000000001,-0.431,-0.114,-25.6685184,-21.3140376,46.696077,76.6331325,60.55020144,-58.47609348
5.58,558,0.853,-0.459,-0.119,-19.938938399999998,-21.3713334,46.1804148,76.25498022,60.05745756,-58.68235836
5.59,559,0.857,-0.483,-0.114,-16.272007199999994,-22.631841,44.977203,75.89401668000002,59.57617283999999,-58.91154156
5.6,560,0.88,-0.508,-0.104,-14.4385416,-24.9809688,43.6021038,75.52732356,59.1006177,-59.17510224
5.61,561,0.904,-0.532,-0.09,-13.8655836,-28.074942,41.4821592,75.10906422000002,58.63652172,-59.50168829999999
5.62,562,0.945,-0.536,-0.095,-15.756345000000001,-31.111619399999995,40.10706,74.63350908,58.17815532,-59.87984058000001
5.63,563,0.954,-0.523,-0.111,-16.272007199999994,-32.31483119999999,40.680018,74.14649478,57.70832975999999,-60.26372244
5.64,564,0.929,-0.524,-0.14,-14.32395,-34.1482968,42.398892,73.67093964,57.215585880000006,-60.65906345999999
5.6499999999999995,565,0.883,-0.523,-0.193,-13.980175199999998,-35.695283399999994,44.404245,73.18965492,56.69992368000001,-61.07159322
5.66,566,0.823,-0.52,-0.235,-13.120738199999998,-35.0650296,46.4668938,72.75993642,56.16707274,-61.43255676
5.67,567,0.772,-0.519,-0.243,-10.599723,-32.31483119999999,47.67010560000001,72.40470246,55.62849222,-61.73622450000001
5.68,568,0.742,-0.501,-0.21600000000000005,-8.651665800000002,-30.0229992,48.70143,72.11822346,55.08418212,-61.97686686
5.6899999999999995,569,0.743,-0.486,-0.18600000000000005,-6.3598338,-27.788463,49.5035712,71.90049941999997,54.53414244,-62.17740216
5.7,570,0.778,-0.465,-0.168,-5.042030400000002,-26.4706596,50.24841660000001,71.71142327999998,53.99556192,-62.34928956
5.71,571,0.816,-0.443,-0.16899999999999998,-5.72958,-24.1788276,50.6494872,71.55672462,53.44552223999999,-62.46961074000001
5.72,572,0.8109999999999999,-0.411,-0.16899999999999998,-8.078707799999998,-17.9908812,50.3057124,71.45932176,52.91840088,-62.49252906
5.7299999999999995,573,0.7829999999999999,-0.391,-0.197,-8.8235532,-7.7922288,49.274388,71.47651049999997,52.43138658,-62.36074872
5.74,574,0.74,-0.413,-0.256,-6.5317212,3.6096354,49.3316838,71.65412748,51.973020180000006,-62.05708098
5.75,575,0.705,-0.466,-0.287,-3.0939732,7.448453999999999,51.56622,71.8775811,51.5089242,-61.7075766
5.76,576,0.6779999999999999,-0.531,-0.278,-0.286479,6.8182002000000015,55.4623344,72.16978968,51.00472116,-61.3351539
5.77,577,0.6659999999999999,-0.594,-0.246,1.2032118,3.4377480000000005,59.35844880000001,72.43907994,50.4489519,-61.00283826
5.78,578,0.643,-0.635,-0.213,1.3750992,0.4583664000000001,61.592985,72.67972230000002,49.87026432,-60.71062968
5.79,579,0.627,-0.66,-0.193,1.432395,0.286479,61.9367598,72.9089055,49.28011758000001,-60.42988026
5.8,580,0.631,-0.6729999999999999,-0.166,0.572958,3.8961144,61.87946400000001,73.16673660000002,48.68997084,-60.09756462
5.81,581,0.638,-0.6659999999999999,-0.159,-1.0886202,9.740286,62.6243094,73.45894518,48.12274242,-59.69076444
5.82,582,0.63,-0.644,-0.171,-2.1199446,16.157415599999997,64.11400019999999,73.80271998,47.54978442,-59.19802056000001
5.83,583,0.608,-0.638,-0.196,-0.9167328,18.9649098,64.9161414,74.18087225999999,46.97682642,-58.67089920000001
5.84,584,0.597,-0.632,-0.205,0.057295800000000015,19.767051,64.51507079999999,74.56475412,46.40386842,-58.14377784
5.85,585,0.6,-0.624,-0.209,0.5156622000000001,19.938938399999998,63.48374640000001,74.92571766,45.83664,-57.63957480000001
5.86,586,0.622,-0.625,-0.208,1.0886202,20.1108258,62.22323879999999,75.29241078,45.28660032,-57.13537176
5.87,587,0.654,-0.6409999999999999,-0.201,2.0053530000000004,20.454600600000006,61.4210976,75.66483348,44.74229022,-56.64262788
5.88,588,0.677,-0.6729999999999999,-0.191,2.9220857999999996,21.3713334,61.30650600000001,76.03725618000001,44.19798012,-56.14988400000001
5.89,589,0.677,-0.703,-0.188,2.86479,22.86102420000001,62.3951262,76.42113803999997,43.64221086,-55.63995138
5.8999999999999995,590,0.6729999999999999,-0.715,-0.173,2.86479,23.2620948,65.08802879999999,76.79929032,43.05779370000001,-55.12428918000001
5.91,591,0.652,-0.715,-0.16399999999999998,3.4377480000000005,22.4026578,68.1247062,77.17171302,42.44472864,-54.62581572000001
5.92,592,0.644,-0.7090000000000001,-0.175,3.9534102,22.5172494,70.4165382,77.54413572000001,41.80301568,-54.12734226
5.93,593,0.662,-0.7020000000000001,-0.181,4.6982556,23.0902074,72.192708,77.92228800000002,41.14411398,-53.62313922
5.9399999999999995,594,0.687,-0.696,-0.187,5.3285094000000015,22.86102420000001,74.31265259999998,78.29471070000002,40.46229396,-53.13039533999999
5.95,595,0.7090000000000001,-0.6990000000000001,-0.18600000000000005,6.3598338,22.058883,77.34933000000002,78.66140382,39.75755562,-52.6548402
5.96,596,0.7170000000000001,-0.7020000000000001,-0.17600000000000002,7.1046792000000005,20.340009,80.78707800000002,79.02236736,39.00698064,-52.19647379999999
5.97,597,0.7120000000000001,-0.7,-0.162,8.136003599999999,18.5065434,82.90702259999998,79.37187173999997,38.22775776,-51.77248488
5.9799999999999995,598,0.696,-0.6990000000000001,-0.156,8.9954406,16.157415599999997,83.53727640000002,79.6984578,37.43707572,-51.38287344
5.99,599,0.679,-0.6940000000000001,-0.139,10.026765,14.2093584,82.90702259999998,80.01358470000002,36.64639368,-51.02763948000001
6.0,600,0.6509999999999999,-0.6970000000000001,-0.124,10.7716104,12.4904844,81.8756982,80.31152286,35.87290038,-50.706783
6.01,601,0.619,-0.6970000000000001,-0.121,11.745639,12.032117999999999,80.95896540000003,80.60946102,35.09940708000001,-50.39738568
6.02,602,0.583,-0.7120000000000001,-0.118,12.9488508,11.229976800000001,80.21412,80.90739918,34.32591377999999,-50.11090668000001
6.03,603,0.564,-0.727,-0.115,13.2353298,10.599723,79.92764100000002,81.19387818,33.55815006,-49.83588684
6.04,604,0.5479999999999999,-0.7559999999999999,-0.114,13.6936962,9.2819196,79.18279559999998,81.46889802,32.79038634,-49.5895149
6.05,605,0.531,-0.7879999999999999,-0.112,14.5531332,7.161975,78.32335859999998,81.73245870000002,32.03408178,-49.37179086
6.06,606,0.512,-0.802,-0.097,14.7823164,5.6149884000000005,77.23473840000003,81.98456021999998,31.2835068,-49.18271471999999
6.07,607,0.513,-0.8,-0.08800000000000001,15.9282324,4.5263682,75.74504759999998,82.23666174,30.54439098000001,-49.01082732
6.08,608,0.503,-0.799,-0.08,16.558486199999994,2.9793816000000004,73.51051140000001,82.4773041,29.822463899999995,-48.86185824
6.09,609,0.5,-0.797,-0.071,17.18874,2.2345362,71.04679200000002,82.71794646,29.129184719999994,-48.73007790000001
6.1,610,0.4970000000000001,-0.804,-0.056,17.246035799999998,1.3178034,69.0987348,82.95285924,28.458823859999995,-48.61548629999999
6.11,611,0.4920000000000001,-0.8170000000000001,-0.033,16.8449652,0.286479,68.35388940000001,83.17058328,27.78273342,-48.52381301999999
6.12,612,0.465,-0.8370000000000001,-0.011,15.870936600000002,-1.0313244,69.32791800000001,83.37111858,27.100913400000003,-48.4435989
6.13,613,0.41,-0.858,-0.012,14.5531332,-0.286479,71.1613836,83.56019472,26.39617506,-48.3576552
6.14,614,0.37,-0.843,-0.024,11.9748222,3.9534102,72.4218912,83.73781170000002,25.68570714,-48.22587486
6.15,615,0.344,-0.838,-0.018000000000000002,11.1153852,9.224623800000002,70.76031300000002,83.938347,24.99242796,-48.03679872
6.16,616,0.343,-0.851,-0.01,11.172681,14.037471,69.15603060000001,84.14461188,24.3220671,-47.80761552
6.17,617,0.359,-0.885,-0.006,12.0894138,17.7044022,67.83822719999999,84.37379508000002,23.6631654,-47.54405484
6.18,618,0.385,-0.915,-0.014,11.8602306,19.938938399999998,66.5204238,84.60297828,23.02145244,-47.26330542
6.1899999999999995,619,0.405,-0.933,-0.021,10.4278356,20.798375399999998,65.317212,84.82070232,22.39119864,-46.97682642
6.2,620,0.414,-0.94,-0.031,9.9121734,20.5691922,64.28588760000001,85.0269672,21.772404,-46.696077
6.21,621,0.404,-0.938,-0.044,8.3651868,19.1367972,63.7702254,85.20458418000003,21.15360936,-46.43251632
6.22,622,0.397,-0.941,-0.059,6.875496000000001,15.813640800000002,64.11400019999999,85.35355326,20.52335556,-46.21479228000001
6.2299999999999995,623,0.374,-0.948,-0.067,6.1879464,12.605076,64.3431834,85.47960402,19.89310176,-46.02571614
6.24,624,0.334,-0.954,-0.079,4.9274388,10.3705398,65.8328742,85.58273646,19.2513888,-45.86528790000001
6.25,625,0.309,-0.971,-0.086,5.7868758000000025,8.479778399999999,66.69231119999999,85.6858689,18.5924871,-45.7220484
6.26,626,0.29100000000000004,-0.999,-0.095,5.958763200000001,7.2765666,66.9214944,85.78327176,17.9335854,-45.59599764
6.27,627,0.277,-1.03,-0.105,5.5003968,6.5317212,67.0933818,85.88067462000002,17.268954119999997,-45.48140604
6.28,628,0.266,-1.06,-0.109,5.3285094000000015,5.3285094000000015,67.26526919999999,85.96088874,16.604322840000002,-45.3782736
6.29,629,0.246,-1.069,-0.109,5.3858052,4.1252976000000015,67.7809314,86.04683244,15.93969156,-45.28660032
6.3,630,0.229,-1.067,-0.116,5.7868758000000025,2.0053530000000004,67.036086,86.11558740000002,15.2693307,-45.22357494
6.31,631,0.215,-1.065,-0.116,6.6463128000000005,0.11459160000000004,65.8328742,86.19580152,14.61615858,-45.1777383
6.32,632,0.195,-1.061,-0.108,7.448453999999999,-1.2032118,64.744254,86.28174521999998,13.97444562,-45.1490904
6.33,633,0.171,-1.05,-0.097,8.59437,-1.7188740000000002,63.5410422,86.37341849999999,13.34419182,-45.1204425
6.34,634,0.145,-1.037,-0.078,9.568398599999998,-1.432395,62.5097178,86.47655094000002,12.72539718,-45.09752418000001
6.35,635,0.122,-1.025,-0.053,10.6570188,-0.8594370000000001,61.24921020000001,86.59114253999998,12.10660254,-45.06887628
6.36,636,0.098,-1.017,-0.011,11.6310474,0.7448454000000001,60.0459984,86.72292288,11.51072622,-45.02876922
6.37,637,0.086,-1.014,0.018000000000000002,10.7143146,4.010706000000001,58.8427866,86.84324405999998,10.932038639999998,-44.95428468
6.38,638,0.08199999999999999,-1.006,0.01,7.8495246,6.990087599999999,57.86875799999999,86.94637650000001,10.35908064,-44.85115224
6.39,639,0.076,-0.997,0.002,7.0473834,6.6463128000000005,57.06661679999999,87.03232019999999,9.7975818,-44.75374938
6.4,640,0.071,-0.987,0.013,7.8495246,5.0993262,56.72284200000001,87.12972306,9.224623800000002,-44.67926484
6.41,641,0.062,-0.992,0.023,8.651665800000002,4.6982556,56.78013780000001,87.2328555,8.663124960000001,-44.59905072
6.42,642,0.054000000000000006,-1.006,0.028,7.906820400000001,6.703608600000001,56.66554620000001,87.32452878000002,8.10162612,-44.50737744
6.43,643,0.044,-1.019,0.026,6.417129599999999,9.969469199999999,56.5509546,87.41047248,7.54012728,-44.38132668
6.4399999999999995,644,0.026,-1.036,0.004,4.6982556,13.349921400000001,56.0925882,87.47349786,6.990087599999999,-44.22662802000001
6.45,645,-0.006999999999999999,-1.052,-0.004,2.86479,16.042824000000003,55.40503860000001,87.52506408,6.4228591800000014,-44.04328146
6.46,646,-0.034,-1.064,-0.012,0.3437748,19.595163600000006,52.998615,87.55371198,5.9014674000000005,-43.82555742
6.47,647,-0.055,-1.063,-0.034,-1.7761698,22.345362,51.1651494,87.55371198,5.397264359999999,-43.58491506
6.4799999999999995,648,-0.053,-1.069,-0.063,-1.7188740000000002,23.7204612,49.847346,87.55944156000002,4.90452048,-43.32708396
6.49,649,-0.042,-1.0659999999999998,-0.078,-1.7188740000000002,23.0902074,48.70143,87.55944156000002,4.42323576,-43.08071202
6.5,650,-0.028,-1.053,-0.073,-1.2032118,21.6578124,48.987909,87.55371198,3.93049188,-42.84579924
6.51,651,0.0,-1.05,-0.064,-1.3178034,19.308684600000007,49.6754586,87.55371198,3.44347758,-42.63380478
6.52,652,0.035,-1.04,-0.061,-1.432395,15.527161800000002,50.8786704,87.54798240000002,2.93927454,-42.46191738
6.53,653,0.056,-1.028,-0.063,-1.5469866,12.2040054,52.19647379999999,87.53652324,2.42361234,-42.31867788
6.54,654,0.054000000000000006,-1.02,-0.05,-2.1199446,7.6203414,53.9726436,87.5193345,1.88503182,-42.2270046
6.55,655,0.044,-1.019,-0.024,-1.3750992,5.5003968,53.7434604,87.50787534,1.3579104599999998,-42.14679048
6.56,656,0.025,-1.024,-0.008,-2.0053530000000004,4.3544808,51.5089242,87.49068659999998,0.8479778399999999,-42.0837651
6.57,657,0.002,-1.032,-0.004,-2.578311,3.724227,48.4722468,87.46203870000002,0.36669312,-42.0264693
6.58,658,-0.027000000000000003,-1.044,0.003,-3.2658606,3.5523396000000003,45.4928652,87.42766122,-0.08021412,-41.97490308
6.59,659,-0.059,-1.047,0.01,-4.6409598,3.9534102,42.7426668,87.38182458,-0.5042030399999999,-41.91760728
6.6,660,-0.079,-1.051,0.008,-5.1566220000000005,4.297185,40.680018,87.33598794000002,-0.9167328000000001,-41.8545819
6.61,661,-0.095,-1.053,0.004,-6.130650599999999,4.297185,39.247623,87.27296256,-1.30634424,-41.7972861
6.62,662,-0.111,-1.05,0.0,-7.9641161999999985,4.9847345999999995,38.5027776,87.18701886,-1.6902260999999998,-41.73426072
6.63,663,-0.113,-1.036,0.008,-8.479778399999999,6.016058999999999,38.1590028,87.10107516000002,-2.06837838,-41.6540466
6.64,664,-0.102,-1.024,0.005,-8.8235532,7.2765666,37.6433406,87.0036723,-2.44080108,-41.5681029
6.65,665,-0.09,-1.017,-0.026,-10.255948199999999,8.193299399999999,37.1276784,86.89481028,-2.81322378,-41.46497046
6.66,666,-0.084,-1.016,-0.048,-10.7716104,8.7662574,36.32553720000001,86.78021868,-3.1741873200000006,-41.36183802
6.67,667,-0.079,-1.022,-0.049,-10.3705398,9.0527364,35.5806918,86.66562708000002,-3.5236917,-41.252976000000004
6.68,668,-0.073,-1.026,-0.023,-9.224623800000002,8.5370742,34.5493674,86.56822422,-3.86173692,-41.14984356
6.6899999999999995,669,-0.07400000000000001,-1.03,-0.002,-8.7089616,8.307891,33.002380800000005,86.47082136,-4.1883229800000015,-41.0524407
6.7,670,-0.095,-1.024,0.002,-9.6829902,8.021412000000002,30.9970278,86.37341849999999,-4.4977203,-40.95503784
6.71,671,-0.118,-1.01,0.0,-10.4851314,8.479778399999999,29.1062664,86.2588269,-4.784199299999999,-40.8519054
6.72,672,-0.14300000000000002,-0.992,-0.008,-10.7143146,8.078707799999998,27.501984000000004,86.13850572,-5.05348956,-40.75450254
6.7299999999999995,673,-0.163,-0.97,-0.02,-10.8289062,7.333862400000001,26.0122932,86.01818454000002,-5.311320660000002,-40.66855884
6.74,674,-0.17800000000000002,-0.957,-0.02,-10.4851314,6.3025379999999975,24.637194,85.90359294,-5.5519630200000005,-40.58834472
6.75,675,-0.182,-0.954,-0.019,-10.1413566,5.844171599999999,23.376686399999997,85.8004605,-5.80406454,-40.51958976
6.76,676,-0.179,-0.96,-0.021,-9.3965112,5.958763200000001,22.1161788,85.69732806,-6.02178858,-40.44510522
6.77,677,-0.17600000000000002,-0.969,-0.02,-8.9954406,5.958763200000001,20.626488,85.5999252,-6.22805346,-40.37062068
6.78,678,-0.189,-0.971,-0.015,-8.7089616,6.417129599999999,19.3659804,85.50252234,-6.417129600000001,-40.29040656
6.79,679,-0.209,-0.974,-0.016,-7.6776372,6.990087599999999,17.9908812,85.41084906,-6.589017,-40.21019244
6.8,680,-0.233,-0.967,-0.029,-7.2192707999999985,8.250595200000001,16.7876694,85.33636451999998,-6.7895523,-40.11851916
6.81,681,-0.252,-0.957,-0.035,-5.7868758000000025,10.1413566,15.5844576,85.26187998,-6.93852138,-40.00392756
6.82,682,-0.266,-0.95,-0.045,-3.8388186,12.3758928,14.495837400000001,85.20458418000003,-7.076031300000001,-39.87214722
6.83,683,-0.273,-0.953,-0.06,-2.3491278,14.5531332,13.2926256,85.15874754000002,-7.20208206,-39.71171898
6.84,684,-0.263,-0.95,-0.07,-1.3750992,16.615782,12.2040054,85.11864048,-7.31094408,-39.53983158
6.85,685,-0.242,-0.961,-0.084,-0.286479,17.6471064,10.5424272,85.07853342,-7.4427244199999985,-39.35075544
6.86,686,-0.222,-0.974,-0.094,0.057295800000000015,18.2200644,9.1100322,85.0556151,-7.52293854,-39.161679299999996
6.87,687,-0.194,-0.994,-0.101,-0.11459160000000004,18.162768600000003,7.8495246,85.0269672,-7.5916935,-38.97833274
6.88,688,-0.171,-1.016,-0.104,-0.6302538000000001,17.761698000000006,6.9327918,84.99258972,-7.6489892999999975,-38.79498618
6.89,689,-0.15,-1.032,-0.1,-1.7188740000000002,16.902261,5.9014674000000005,84.95248266,-7.70055552,-38.62309878
6.9,690,-0.135,-1.038,-0.094,-3.3231564,15.756345000000001,4.8128472,84.8837277,-7.72920342,-38.45694096
6.91,691,-0.13,-1.037,-0.099,-4.8128472,14.152062599999999,3.6096354,84.81497274,-7.75785132,-38.31370146
6.92,692,-0.13,-1.03,-0.107,-6.760904399999999,11.8029348,2.2345362,84.72902904,-7.7750400599999985,-38.19338028
6.93,693,-0.135,-1.011,-0.11,-8.136003599999999,9.9121734,0.3437748,84.63162618,-7.7750400599999985,-38.09597742
6.9399999999999995,694,-0.141,-0.989,-0.112,-9.224623800000002,8.250595200000001,-1.7188740000000002,84.52276416000002,-7.75212174,-38.015763299999996
6.95,695,-0.147,-0.97,-0.113,-9.797581800000001,7.2765666,-3.8961144,84.39671340000002,-7.717744259999999,-37.94700834
6.96,696,-0.155,-0.949,-0.11,-10.255948199999999,6.8182002000000015,-5.844171599999999,84.2821218,-7.65471888,-37.88398296
6.97,697,-0.16,-0.932,-0.104,-10.1413566,6.417129599999999,-7.2192707999999985,84.1675302,-7.58023434,-37.83241674
6.9799999999999995,698,-0.17,-0.925,-0.109,-9.740286,5.72958,-8.021412000000002,84.06439776,-7.49429064,-37.78085052
6.99,699,-0.17800000000000002,-0.924,-0.112,-9.3965112,5.2139178,-8.136003599999999,83.96126532,-7.41407652,-37.74074346
7.0,700,-0.17800000000000002,-0.929,-0.116,-8.651665800000002,4.583664,-7.6203414,83.84667372,-7.3567807200000015,-37.7006364
7.01,701,-0.177,-0.942,-0.121,-8.021412000000002,3.6096354,-6.875496000000001,83.76073002,-7.288025760000001,-37.67198850000001
7.02,702,-0.16899999999999998,-0.955,-0.114,-7.0473834,2.578311,-6.5317212,83.68624548,-7.2192707999999985,-37.65479976
7.03,703,-0.16399999999999998,-0.967,-0.104,-6.703608600000001,1.9480572,-6.9327918,83.61749052,-7.15051584,-37.6433406
7.04,704,-0.152,-0.976,-0.106,-6.6463128000000005,0.7448454000000001,-8.021412000000002,83.54873556,-7.0703017200000025,-37.6433406
7.05,705,-0.155,-0.979,-0.112,-6.703608600000001,-0.7448454000000001,-9.5111028,83.46852143999998,-6.99581718,-37.66052934
7.06,706,-0.16,-0.981,-0.116,-6.3025379999999975,-2.2345362,-11.3445684,83.41122564,-6.886955159999999,-37.7006364
7.07,707,-0.16399999999999998,-0.987,-0.115,-6.3025379999999975,-3.6096354,-13.407217200000002,83.35392984,-6.760904399999999,-37.75220262000001
7.08,708,-0.168,-0.99,-0.107,-6.3025379999999975,-4.010706000000001,-15.469866,83.29663404,-6.611935319999999,-37.80949842
7.09,709,-0.168,-0.987,-0.101,-6.3025379999999975,-4.010706000000001,-17.131444199999994,83.23933824000002,-6.4457775,-37.872523799999996
7.1,710,-0.16899999999999998,-0.982,-0.092,-6.2452422,-3.380452200000001,-18.2200644,83.18204244,-6.29107884,-37.92409002
7.11,711,-0.16899999999999998,-0.975,-0.08,-5.6149884000000005,-1.7761698,-18.7357266,83.13047622,-6.1077322800000005,-37.96419708000001
7.12,712,-0.165,-0.977,-0.07,-4.4117766,0.2291832000000001,-18.9649098,83.08463958,-5.91865614,-37.9871154
7.13,713,-0.153,-0.986,-0.066,-4.0680017999999984,2.0626488000000003,-18.5638392,83.04453251999998,-5.735309579999999,-37.9871154
7.14,714,-0.14,-1.0,-0.071,-4.0680017999999984,4.1252976000000015,-17.5325148,82.99869588,-5.5576926,-37.96992666
7.15,715,-0.132,-1.017,-0.076,-3.724227,5.7868758000000025,-16.1001198,82.9643184,-5.40872352,-37.9298196
7.16,716,-0.124,-1.028,-0.079,-3.8388186,7.2765666,-14.667724800000002,82.91848175999998,-5.25402486,-37.87825338
7.17,717,-0.115,-1.032,-0.087,-4.0680017999999984,8.479778399999999,-13.178034,82.87264512,-5.11651494,-37.80949842
7.18,718,-0.104,-1.027,-0.099,-4.010706000000001,9.2819196,-12.605076,82.82107890000002,-4.9847346,-37.73501388
7.1899999999999995,719,-0.09,-1.02,-0.106,-3.6669312000000014,9.9121734,-12.4331886,82.77524226,-4.85295426,-37.64907018
7.2,720,-0.07200000000000001,-1.012,-0.105,-2.9793816000000004,10.1986524,-12.891555,82.7351352,-4.703985179999999,-37.56885606
7.21,721,-0.053,-1.0,-0.097,-2.6929026,10.599723,-13.464512999999998,82.70075771999998,-4.56074568,-37.47718278000001
7.22,722,-0.032,-0.993,-0.099,-2.5210152000000003,10.8289062,-13.9228794,82.66638024,-4.41750618,-37.39123908
7.2299999999999995,723,-0.017,-0.989,-0.103,-2.6356068,9.740286,-14.2093584,82.63200276,-4.26280752,-37.31102496
7.24,724,-0.006999999999999999,-0.986,-0.108,-2.578311,8.479778399999999,-13.9228794,82.59762528,-4.11956802,-37.24799958000001
7.25,725,-0.002,-0.988,-0.116,-2.5210152000000003,7.0473834,-13.2926256,82.5632478,-3.94768062,-37.19070377999999
7.26,726,0.002,-0.991,-0.125,-2.2345362,5.443101,-12.5477802,82.5345999,-3.82162986,-37.15059672
7.27,727,0.006,-0.991,-0.131,-2.0053530000000004,3.8388186,-11.8602306,82.51168158,-3.70130868,-37.1276784
7.28,728,0.009000000000000001,-0.988,-0.131,-1.6615782,2.291832,-11.4018642,82.49449283999998,-3.5809875,-37.12194882
7.29,729,0.009000000000000001,-0.984,-0.132,-1.145916,1.145916,-11.1153852,82.48303368,-3.47212548,-37.1276784
7.3,730,0.01,-0.982,-0.136,-0.7448454000000001,-0.057295800000000015,-10.9434978,82.4486562,-3.3059676599999994,-37.13913756
7.31,731,0.008,-0.98,-0.136,-0.4583664000000001,-1.145916,-11.1153852,82.4486562,-3.20283522,-37.16205588
7.32,732,0.006,-0.982,-0.135,-0.11459160000000004,-1.6042823999999998,-11.229976800000001,82.4486562,-3.08824362,-37.19070377999999
7.33,733,0.003,-0.983,-0.129,0.286479,-2.1199446,-11.5737516,82.45438578,-2.9793816000000004,-37.23081084
7.34,734,0.001,-0.985,-0.126,0.6302538000000001,-2.4064236,-11.6310474,82.46011536,-2.86479,-37.26518832
7.35,735,-0.003,-0.991,-0.126,1.0313244,-2.578311,-11.45916,82.46584494,-2.72728008,-37.30529538
7.36,736,-0.006,-0.994,-0.124,1.145916,-2.9793816000000004,-11.2872726,82.4773041,-2.61841806,-37.35113202
7.37,737,-0.006999999999999999,-0.997,-0.127,1.2032118,-3.3231564,-10.886202,82.49449283999998,-2.50955604,-37.39696866
7.38,738,-0.01,-1.001,-0.126,1.5469866,-3.5523396000000003,-10.599723,82.51168158,-2.41215318,-37.44853488
7.39,739,-0.01,-1.002,-0.125,1.5469866,-3.6096354,-10.255948199999999,82.52887032,-2.3147503200000004,-37.49437152
7.4,740,-0.011,-1.004,-0.118,1.5469866,-3.3231564,-10.0840608,82.54032948,-2.19442914,-37.54020816
7.41,741,-0.01,-1.003,-0.114,1.5469866,-2.8074942000000003,-9.740286,82.55751822,-2.10275586,-37.58031522
7.42,742,-0.006999999999999999,-0.999,-0.119,1.5469866,-2.6929026,-9.224623800000002,82.58043654000002,-2.01681216,-37.62042228
7.43,743,-0.006,-1.001,-0.119,1.5469866,-3.2658606,-8.7089616,82.59762528,-1.93086846,-37.66052934
7.4399999999999995,744,-0.005,-1.001,-0.115,1.5469866,-3.9534102,-8.193299399999999,82.61481402000003,-1.85638392,-37.71209556
7.45,745,-0.002,-1.006,-0.113,1.4896908000000002,-4.6409598,-7.5057497999999985,82.62627318,-1.75898106,-37.76366178
7.46,746,-0.001,-1.006,-0.112,1.2605076000000002,-5.844171599999999,-6.760904399999999,82.64346192,-1.70168526,-37.83241674
7.47,747,-0.006,-1.004,-0.109,1.2032118,-6.5317212,-6.130650599999999,82.65492108,-1.64438946,-37.901171700000006
7.4799999999999995,748,-0.012,-1.006,-0.103,0.9740286,-7.1046792000000005,-5.6722842,82.67210982,-1.59282324,-37.98138582
7.49,749,-0.019,-1.007,-0.095,0.4010706,-7.3911582,-5.5003968,82.67783940000002,-1.5469866,-38.06159994
7.5,750,-0.027000000000000003,-1.005,-0.09,-0.057295800000000015,-7.448453999999999,-5.3858052,82.69502814,-1.50114996,-38.14181406
7.51,751,-0.033,-1.001,-0.086,-0.4583664000000001,-7.161975,-5.5003968,82.68929856,-1.45531332,-38.2162986
7.52,752,-0.036000000000000004,-1.001,-0.085,-0.4583664000000001,-6.3598338,-5.3285094000000015,82.68929856,-1.40947668,-38.28505356
7.53,753,-0.034,-1.002,-0.084,-0.4583664000000001,-5.6722842,-5.2712136,82.68929856,-1.36364004,-38.34807894
7.54,754,-0.027000000000000003,-1.001,-0.08199999999999999,-0.4583664000000001,-4.6982556,-5.042030400000002,82.68356897999998,-1.3178034,-38.39964516
7.55,755,-0.019,-1.001,-0.083,-0.3437748,-4.1252976000000015,-4.8128472,82.70075771999998,-1.2605076000000002,-38.45121138
7.56,756,-0.014,-1.002,-0.092,-0.2291832000000001,-4.0680017999999984,-4.4690724,82.70075771999998,-1.22040054,-38.49704802
7.57,757,-0.012,-1.004,-0.097,-0.057295800000000015,-4.4117766,-4.1825934,82.70075771999998,-1.18602306,-38.54288466000001
7.58,758,-0.012,-1.003,-0.1,0.0,-5.0993262,-3.8961144,82.70075771999998,-1.15164558,-38.60018046
7.59,759,-0.013,-1.001,-0.104,0.4010706,-5.5576926,-3.5523396000000003,82.7064873,-1.1172681,-38.65747626
7.6,760,-0.017,-1.001,-0.105,0.7448454000000001,-5.844171599999999,-3.2085648,82.71794646,-1.0886202,-38.72050164
7.61,761,-0.021,-1.0,-0.102,0.8021411999999999,-5.72958,-2.9220857999999996,82.72940562,-1.06570188,-38.77779744
7.62,762,-0.021,-0.997,-0.101,0.9740286,-5.3285094000000015,-2.8074942000000003,82.74086478000002,-1.04278356,-38.83509324
7.63,763,-0.022,-0.994,-0.1,1.3750992,-4.9274388,-2.6929026,82.75805352,-1.01986524,-38.88665946
7.64,764,-0.021,-0.994,-0.103,1.6042823999999998,-4.9274388,-2.578311,82.77524226,-0.9969469199999998,-38.93822568
7.65,765,-0.019,-0.995,-0.104,1.6615782,-4.8128472,-2.6356068,82.79243100000002,-0.9740286,-38.9897919
7.66,766,-0.015,-0.996,-0.105,1.7188740000000002,-4.9847345999999995,-2.6356068,82.80961973999997,-0.95111028,-39.04135812
7.67,767,-0.019,-0.999,-0.104,1.6615782,-4.8701430000000006,-2.7501984,82.82680848,-0.92819196,-39.09292434
7.68,768,-0.016,-0.997,-0.107,1.7761698,-4.4690724,-2.6929026,82.84972680000001,-0.91100322,-39.13876098
7.69,769,-0.017,-1.001,-0.109,1.5469866,-3.9534102,-2.4637194,82.86691554,-0.8880849000000001,-39.18459762
