TimeStamp(s),FrameCounter,AccX,AccY,AccZ,GyrX,GyrY,GyrZ,EulerX,EulerY,EulerZ
0.01,1,-0.052000000000000005,-1.022,-0.062,-1.6615782,0.3437748,-1.0313244,85.81764924000002,-5.0935966200000005,-30.07456542
0.02,2,-0.042,-1.016,-0.063,-1.6042823999999998,1.432395,-0.4010706,85.8004605,-5.08786704,-30.06310626
0.03,3,-0.04,-1.007,-0.062,-1.3750992,1.5469866,-0.11459160000000004,85.76608302,-4.96181628,-30.04018794000001
0.04,4,-0.041,-0.996,-0.054000000000000006,-1.8334656000000005,1.5469866,-0.057295800000000015,85.7431647,-4.96181628,-30.022999200000005
0.05,5,-0.041,-0.985,-0.044,-2.291832,1.4896908000000002,-0.3437748,85.72024638,-4.9560867,-30.01154004
0.060000000000000005,6,-0.042,-0.982,-0.038,-2.6929026,1.8334656000000005,-0.9740286,85.69159848,-4.94462754,-29.994351300000005
0.06999999999999999,7,-0.042,-0.985,-0.04,-3.380452200000001,2.3491278,-1.432395,85.65722099999998,-4.9274388,-29.97143298
0.08,8,-0.041,-0.997,-0.05,-4.010706000000001,3.0366774,-1.6042823999999998,85.60565478000002,-4.87587258,-29.94278508
0.09,9,-0.033,-1.009,-0.061,-4.6409598,3.4950437999999995,-1.2032118,85.55981814,-4.858683839999999,-29.9084076
0.09999999999999999,10,-0.03,-1.022,-0.069,-4.3544808,3.8961144,-0.5156622000000001,85.50825191999998,-4.85295426,-29.86830054
0.11,11,-0.029,-1.025,-0.07,-4.010706000000001,4.3544808,0.3437748,85.46241528,-4.85295426,-29.828193480000003
0.12,12,-0.027000000000000003,-1.022,-0.07200000000000001,-3.7815227999999994,5.042030400000002,1.0313244,85.42230822,-4.86441342,-29.77662726
0.13,13,-0.025,-1.013,-0.06,-3.380452200000001,5.3285094000000015,1.3178034,85.38220116,-4.83003594,-29.71933146
0.14,14,-0.024,-1.001,-0.05,-2.9220857999999996,5.6149884000000005,1.2605076000000002,85.34782368,-4.8414950999999995,-29.66203566
0.15000000000000002,15,-0.021,-0.994,-0.056,-3.0939732,4.6982556,0.9740286,85.3134462,-4.84722468,-29.61619902
0.16,16,-0.019,-0.991,-0.059,-3.151269,3.6096354,0.7448454000000001,85.27333913999998,-4.85295426,-29.58182154
0.17,17,-0.024,-0.995,-0.06,-2.86479,2.4064236,0.572958,85.24469124,-4.858683839999999,-29.55317364
0.18000000000000002,18,-0.028,-1.002,-0.064,-3.151269,1.2605076000000002,0.2291832000000001,85.20458418000003,-4.76128098,-29.5359849
0.19,19,-0.024,-1.008,-0.062,-3.151269,0.2291832000000001,0.0,85.17020670000002,-4.76128098,-29.5359849
0.2,20,-0.017,-1.021,-0.053,-4.2398892,-2.2345362,-0.3437748,85.13009964,-4.7555514,-29.55890322
0.21000000000000002,21,-0.013,-1.026,-0.025,-6.130650599999999,-8.307891,-0.8594370000000001,85.07280384,-4.7555514,-29.64484692000001
0.22,22,-0.032,-1.025,-0.002,-6.703608600000001,-15.870936600000002,-1.6615782,85.02123762,-4.749821819999998,-29.80527516
0.23,23,-0.07200000000000001,-1.02,-0.008,-6.3025379999999975,-19.0795014,-2.9793816000000004,84.98686014,-4.73263308,-29.994351300000005
0.24000000000000002,24,-0.104,-1.018,-0.054000000000000006,-7.7922288,-16.272007199999994,-4.5263682,84.92383476,-4.69252602,-30.16050912
0.25,25,-0.116,-1.018,-0.073,-9.3965112,-7.3911582,-5.5576926,84.83789106,-4.64668938,-30.24072324
0.26,26,-0.103,-1.025,-0.058,-8.9954406,-0.2291832000000001,-6.589017,84.74621778000002,-4.5836640000000015,-30.252182399999995
0.27,27,-0.075,-1.034,-0.051,-8.479778399999999,2.0053530000000004,-6.5317212,84.6545445,-4.51490904,-30.234993660000004
0.28,28,-0.045,-1.037,-0.053,-9.1100322,2.0626488000000003,-5.2712136,84.56860079999998,-4.4404245000000016,-30.2235345
0.29000000000000004,29,-0.018000000000000002,-1.036,-0.056,-9.8548776,1.4896908000000002,-3.3231564,84.47119794,-4.40604702,-30.212075339999995
0.3,30,0.0,-1.027,-0.066,-10.1413566,1.3178034,-1.3750992,84.3680655,-4.39458786,-30.20061618
0.31,31,0.005,-1.013,-0.07400000000000001,-10.255948199999999,2.0053530000000004,0.11459160000000004,84.25920348,-4.39458786,-30.17769786
0.32,32,0.004,-0.999,-0.08,-9.6829902,2.8074942000000003,1.3750992,84.15607104,-4.40604702,-30.14904996
0.33,33,-0.005,-0.994,-0.07400000000000001,-9.2819196,3.6096354,2.291832,84.06439776,-4.40031744,-30.11467248000001
0.34,34,-0.012,-0.984,-0.065,-8.7089616,5.2712136,2.291832,83.97272448,-4.41750618,-30.057376680000004
0.35000000000000003,35,-0.011,-0.974,-0.076,-8.3651868,7.2192707999999985,1.3178034,83.8810512,-4.42323576,-29.98862172
0.36000000000000004,36,-0.002,-0.962,-0.086,-8.479778399999999,7.7349330000000025,0.11459160000000004,83.78364833999998,-4.42323576,-29.9084076
0.37,37,0.001,-0.951,-0.096,-8.021412000000002,7.3911582,-0.9167328,83.69770464000001,-4.40604702,-29.839652640000004
0.38,38,0.016,-0.953,-0.115,-7.333862400000001,6.3598338,-1.7188740000000002,83.60030178,-4.33729206,-29.77662726
0.39,39,0.043,-0.958,-0.124,-6.760904399999999,3.6669312000000014,-2.4064236,83.52581724,-4.30864416,-29.74224978
0.4,40,0.067,-0.965,-0.13,-6.0733548,0.286479,-2.9793816000000004,83.46279186000002,-4.27999626,-29.74797936
0.41000000000000003,41,0.068,-0.977,-0.128,-5.6722842,-2.6929026,-3.6096354,83.41122564,-4.25134836,-29.77662726
0.42000000000000004,42,0.059,-0.987,-0.128,-4.6982556,-4.0680017999999984,-3.2085648,83.36538900000002,-4.22270046,-29.822463899999995
0.43,43,0.032,-1.008,-0.14,-3.380452200000001,-3.6096354,-3.0939732,83.29090446000002,-4.11383844,-29.86257096
0.44,44,-0.005,-1.014,-0.171,-1.7761698,-0.8021411999999999,-3.2085648,83.27371572000001,-4.08519054,-29.874030120000004
0.45,45,-0.045,-1.017,-0.208,0.2291832000000001,1.8334656000000005,-4.3544808,83.27371572000001,-4.0393539,-29.85684138
0.46,46,-0.091,-1.009,-0.239,2.0626488000000003,4.4690724,-6.2452422,83.29090446000002,-3.97059894,-29.822463899999995
0.47000000000000003,47,-0.152,-1.004,-0.268,4.9847345999999995,10.8289062,-9.224623800000002,83.3367411,-3.873196080000002,-29.72506104
0.48000000000000004,48,-0.204,-1.0,-0.281,7.6776372,20.2827132,-13.2353298,83.37111858,-3.74141574,-29.54171448
0.49,49,-0.21600000000000005,-0.991,-0.272,11.516455800000001,30.8251404,-17.475219,83.46852143999998,-3.54088044,-29.25523548
0.5,50,-0.17,-0.958,-0.272,14.381245800000002,35.809875,-20.626488,83.58884262000002,-3.3059676599999994,-28.92291984
0.51,51,-0.094,-0.8959999999999999,-0.251,17.8762896,31.51269000000001,-22.5745452,83.74927086,-3.05959572,-28.63071126
0.52,52,-0.026,-0.856,-0.189,20.6837838,23.6058696,-24.5226024,83.94407658,-2.79603504,-28.4187168
0.53,53,0.036000000000000004,-0.856,-0.17600000000000002,20.5691922,16.959556799999998,-26.41336380000001,84.12742313999998,-2.50955604,-28.28120688000001
0.54,54,0.084,-0.903,-0.225,20.7410796,12.605076,-27.788463,84.33368802,-2.22307704,-28.17807444
0.55,55,0.085,-0.947,-0.21,20.454600600000006,10.4851314,-29.2781538,84.53422332,-1.92513888,-28.10358990000001
0.56,56,0.042,-1.01,-0.159,18.5638392,8.021412000000002,-33.1742682,84.72329946,-1.5870936600000003,-28.05202368
0.5700000000000001,57,-0.027000000000000003,-1.032,-0.139,19.6524594,5.844171599999999,-36.7839036,84.91810518,-1.22040054,-28.02337578
0.5800000000000001,58,-0.07400000000000001,-1.057,-0.077,18.9649098,3.5523396000000003,-39.7059894,85.1129109,-0.8307891,-28.017646199999994
0.59,59,-0.101,-1.067,-0.033,16.272007199999994,1.0313244,-41.4821592,85.27906872,-0.41825934,-28.04056452
0.6,60,-0.115,-1.032,-0.034,11.229976800000001,0.1718874,-43.20103320000001,85.38793074,0.00572958,-28.069212420000003
0.61,61,-0.1,-1.012,-0.041,8.7662574,-0.286479,-44.919907200000004,85.47960402,0.4526368200000001,-28.10358990000001
0.62,62,-0.077,-0.989,-0.018000000000000002,6.417129599999999,-1.0886202,-46.982556,85.54262940000002,0.9167328000000001,-28.14942654
0.63,63,-0.063,-0.971,0.078,6.9327918,-1.8907613999999997,-48.70143,85.63430267999998,1.38655836,-28.20099276
0.64,64,-0.058,-1.001,0.073,6.1879464,-1.6042823999999998,-52.0245864,85.69159848,1.90222056,-28.25828856
0.65,65,-0.053,-0.999,0.024,3.0366774,-1.9480572,-56.608250399999996,85.72024638,2.4637194,-28.31558436000001
0.66,66,-0.061,-0.99,-0.003,3.380452200000001,-2.0626488000000003,-60.38977320000001,85.75462386000002,3.05959572,-28.37860974
0.67,67,-0.071,-0.983,0.004,5.958763200000001,-0.6302538000000001,-64.5723666,85.80619008000002,3.70130868,-28.43017596
0.68,68,-0.057,-0.988,0.033,7.333862400000001,1.4896908000000002,-69.72898860000001,85.8864042,4.3831287,-28.46455344
0.6900000000000001,69,-0.065,-0.998,0.025,7.448453999999999,3.0366774,-75.9742308,85.96088874,5.13943326,-28.48174218
0.7000000000000001,70,-0.08800000000000001,-0.983,-0.011,8.021412000000002,4.6409598,-82.1621772,86.04110286,5.953033619999999,-28.49320134
0.7100000000000001,71,-0.128,-0.961,-0.031,9.969469199999999,5.958763200000001,-87.31879920000002,86.13850572,6.82392978,-28.48747176
0.72,72,-0.142,-0.953,-0.027000000000000003,12.834259199999998,8.651665800000002,-90.5846598,86.27028606,7.72347384,-28.458823859999995
0.73,73,-0.13,-0.961,-0.043,17.4179232,12.032117999999999,-93.6213372,86.45363262000002,8.640206639999999,-28.39006890000001
0.74,74,-0.099,-0.971,-0.059,20.5691922,15.2979786,-94.9964364,86.67135666,9.59131692,-28.29266604
0.75,75,-0.061,-0.981,-0.053,23.2620948,17.4179232,-95.5120986,86.92918776,10.5424272,-28.16661528
0.76,76,-0.015,-0.991,-0.049,25.3247436,17.9908812,-95.7985776,87.20993718,11.49926706,-28.02910536
0.77,77,0.03,-1.004,-0.067,26.5279554,17.5325148,-95.970465,87.50214575999998,12.45610692,-27.891595440000003
0.78,78,0.069,-1.013,-0.078,27.2728008,16.042824000000003,-96.1996482,87.80008391999998,13.4072172,-27.7598151
0.79,79,0.08900000000000001,-1.015,-0.056,27.501984000000004,15.0687954,-96.3142398,88.10948124000002,14.36978664,-27.63949392
0.8,80,0.11,-1.005,-0.063,27.043617600000005,14.152062599999999,-96.6580146,88.40741940000002,15.33235608,-27.51917274
0.81,81,0.123,-0.996,-0.076,26.41336380000001,13.2353298,-96.6580146,88.70535756,16.28919594,-27.398851560000004
0.8200000000000001,82,0.127,-0.981,-0.049,24.350715,13.2353298,-96.7153104,88.98610698,17.251765380000002,-27.27853038
0.8300000000000001,83,0.147,-0.969,0.015,21.5432208,14.9542038,-97.4601558,89.24393807999998,18.21433482,-27.13529088
0.8400000000000001,84,0.165,-0.966,0.027000000000000003,16.386598799999998,16.8449652,-99.5801004,89.46166212,19.19982258,-26.96340348
0.85,85,0.152,-0.968,0.014,11.172681,17.7044022,-101.8719324,89.63354952,20.20822866,-26.780056920000003
0.86,86,0.162,-0.961,0.001,6.0733548,18.621135,-103.418919,89.75960028,21.23382348,-26.5852512
0.87,87,0.234,-0.965,-0.021,3.724227,16.042824000000003,-104.3356518,89.85700313999996,22.26514788,-26.41336380000001
0.88,88,0.361,-1.0,-0.069,4.3544808,12.891555,-105.4815678,89.94294684,23.30793144,-26.27585388
0.89,89,0.435,-1.03,-0.091,4.583664,13.2926256,-108.575541,90.04607927999999,24.38509248,-26.13261438
0.9,90,0.429,-1.008,-0.083,4.297185,19.3659804,-112.0705848,90.17785962,25.49090142,-25.91489034
0.91,91,0.413,-0.983,-0.075,5.958763200000001,27.8457588,-115.33644540000002,90.37266534,26.62535826,-25.59403386
0.92,92,0.382,-0.931,-0.087,4.9274388,33.74722620000001,-118.88878500000001,90.59611896,27.79419258,-25.20442242
0.93,93,0.354,-0.861,-0.099,5.3858052,38.7892566,-120.8368422,90.85395006,28.974486060000004,-24.7517856
0.9400000000000001,94,0.335,-0.8109999999999999,-0.11,12.2040054,46.2377106,-123.8735196,91.2435615,30.18915702,-24.19601634
0.9500000000000001,95,0.315,-0.7709999999999999,-0.07400000000000001,20.2254174,52.597544400000004,-127.2539718,91.77641244,31.42101672,-23.548573800000003
0.9600000000000001,96,0.309,-0.722,0.042,27.444688199999998,56.2644756,-130.7490156,92.42385498,32.6872539,-22.82664672
0.97,97,0.345,-0.6920000000000001,0.134,33.4607472,57.1239126,-135.16079219999997,93.17442996,33.98786856,-22.06461258
0.98,98,0.4270000000000001,-0.645,0.171,38.1590028,57.1239126,-138.9996108,94.01094864,35.31713112,-21.26247138
0.99,99,0.502,-0.604,0.192,44.5761324,55.92070079999999,-141.74980920000004,94.9391406,36.66358242,-20.43741186
1.0,100,0.574,-0.568,0.212,48.529542600000006,54.029939399999996,-142.78113359999998,95.93608752,38.01003372,-19.58943402
1.01,101,0.619,-0.544,0.237,52.0245864,51.6235158,-140.7757806,96.99033024,39.3335667,-18.72426744
1.02,102,0.642,-0.542,0.275,53.68616460000001,49.560867,-137.05155359999998,98.09040960000002,40.60553346,-17.847641699999997
1.03,103,0.619,-0.535,0.309,53.34238979999999,50.133825,-133.6711014,99.24778476,41.83739316,-16.91372016
1.04,104,0.579,-0.52,0.374,54.20182679999999,54.6601932,-131.78034,100.49110362000002,43.02341622,-15.876666179999996
1.05,105,0.57,-0.523,0.38,54.029939399999996,54.7747848,-131.83763580000002,101.78025912,44.18652096,-14.7823164
1.06,106,0.546,-0.542,0.377,52.998615,50.0765292,-132.2960022,103.0751442,45.35535528000001,-13.6936962
1.07,107,0.541,-0.532,0.3720000000000001,50.706783,46.9252602,-131.1500862,104.37575886,46.495541700000004,-12.58788726
1.08,108,0.5720000000000001,-0.523,0.35200000000000004,49.560867,50.24841660000001,-129.774987,105.76231722,47.60135064,-11.37894588
1.09,109,0.597,-0.513,0.36,47.1544434,56.2071798,-127.65504240000001,107.23481928,48.6441342,-10.03249458
1.1,110,0.62,-0.463,0.333,43.8885828,62.051351399999994,-127.2539718,108.79899462,49.64108112,-8.5370742
1.11,111,0.644,-0.41,0.292,45.206386200000004,65.14532460000001,-128.34259200000002,110.48922072,50.60938014,-6.9156030600000005
1.12,112,0.6679999999999999,-0.371,0.258,48.6441342,66.2912406,-130.8063114,112.32268632,51.56049042000001,-5.1852699
1.1300000000000001,113,0.6779999999999999,-0.332,0.247,54.3164184,65.3745078,-134.53053839999998,114.31085058,52.52305986,-3.3518043
1.1400000000000001,114,0.72,-0.312,0.261,60.0459984,61.134618599999996,-136.1348208,116.40787686000002,53.46844056,-1.47250206
1.1500000000000001,115,0.813,-0.311,0.257,63.7702254,50.8786704,-136.87966619999997,118.52782146,54.43101,0.35523396
1.1600000000000001,116,0.942,-0.299,0.234,65.14532460000001,36.32553720000001,-137.5672158,120.60192942,55.4336865,2.08556712
1.17,117,1.075,-0.304,0.201,65.54639519999999,24.5226024,-139.2860898,122.65311906,56.47647006,3.76433406
1.18,118,1.116,-0.289,0.16,64.744254,19.8816426,-141.5779218,124.76733408,57.53644236,5.51185596
1.19,119,1.101,-0.25,0.113,63.9994086,19.3659804,-144.78648660000005,127.03051818,58.58495550000001,7.4198061
1.2,120,1.0590000000000002,-0.215,0.13,65.603691,16.2147114,-148.5680094,129.44267136,59.63919822,9.45953658
1.21,121,1.029,-0.166,0.077,72.9948492,10.886202,-154.29758940000005,132.08973731999998,60.72208884000001,11.659695300000001
1.22,122,1.078,-0.08,-0.086,90.7565472,0.11459160000000004,-155.7299844,134.98317522,61.83935694,13.911420239999998
1.23,123,1.097,0.113,-0.115,109.0339074,-23.491278,-156.01646340000005,137.98547514,63.08840538,16.04855358
1.24,124,1.028,0.112,-0.063,114.878079,-51.3943326,-151.7192784,140.86172430000005,64.457775,17.95650372
1.25,125,1.022,-0.012,0.004,111.153852,-72.07811640000001,-145.58862779999995,143.60046354,65.90735873999999,19.71548478
1.26,126,1.039,-0.18,0.17,102.2157072,-77.2920342,-141.5779218,146.37358025999995,67.34548332,21.6005166
1.27,127,1.081,-0.19,0.211,77.9795838,-76.0888224,-143.35409159999998,149.24409984,68.74350084,23.82932322
1.28,128,1.06,0.049,0.26,42.97185,-76.31800559999998,-157.21967519999995,152.4354759,70.17016626,26.762868180000005
1.29,129,1.024,0.422,0.277,-4.6409598,-59.64492779999999,-187.643745,156.55504392,71.51088797999998,31.168915200000004
1.3,130,1.44,0.501,0.394,-14.152062599999999,-30.7105488,-198.529947,161.78042088,72.49637574,36.8125515
1.31,131,1.86,0.255,0.5760000000000001,-22.91832,0.6302538000000001,-179.049375,167.05736406,72.9662013,42.58796814
1.32,132,2.259,0.155,0.903,-39.9924684,43.6021038,-142.26547140000002,171.36600822,72.80004348,47.5268661
1.33,133,2.283,0.209,0.877,-58.0979412,70.5884256,-99.981171,174.09901788,72.23854464,51.0219099
1.34,134,1.997,0.142,0.6940000000000001,-26.9863218,75.00020219999998,-67.1506776,175.97832011999995,71.55672462,53.29655316
1.35,135,1.6909999999999998,-0.063,0.608,-3.151269,70.07276340000001,-48.3576552,177.40498554,70.88636376,54.84926934
1.36,136,1.6740000000000002,-0.388,0.455,-12.605076,57.811462199999994,-29.220858000000003,178.10972388,70.33059449999999,55.73735424
1.37,137,1.536,-0.502,0.279,-19.1367972,35.0077338,7.906820400000001,177.69719412,69.98109012,55.51390062
1.3800000000000001,138,1.298,-0.28300000000000003,0.175,-7.9641161999999985,23.376686399999997,37.0130868,176.5856556,69.75190692,54.41955084
1.3900000000000001,139,1.087,-0.12,0.046,4.7555514,18.449247600000003,56.0352924,175.15899018,69.5284533,52.84964592
1.4000000000000001,140,0.7709999999999999,0.252,0.052000000000000005,-0.11459160000000004,11.745639,55.9779966,173.70367686,69.36229548,51.29692974
1.4100000000000001,141,0.482,0.597,0.13,-15.0114996,12.032117999999999,46.123119,172.36868471999995,69.19040808,50.03642214
1.42,142,0.343,0.685,0.213,-24.7517856,16.042824000000003,35.17962120000001,171.25141662,68.98414319999999,49.11395975999999
1.43,143,0.11,0.723,0.276,-27.2728008,19.4232762,26.41336380000001,170.64408114,68.73777126,48.72434832
1.44,144,0.048,0.66,0.292,-23.032911600000002,24.923673,9.224623800000002,170.25446970000004,68.47994016,48.5581905
1.45,145,0.119,0.455,0.324,-9.224623800000002,33.1742682,-5.72958,170.41489794,68.16481326,48.83893992
1.46,146,0.193,0.267,0.35700000000000004,-3.0939732,39.3622146,-13.9228794,170.84461644,67.80384971999999,49.34314296
1.47,147,0.341,0.194,0.36,-11.3445684,44.0031744,-18.3919518,171.29152368,67.40277911999999,49.95620802
1.48,148,0.5579999999999999,0.151,0.429,-13.0061466,50.8786704,-20.912967,171.8301042,66.9214944,50.68959425999999
1.49,149,0.833,0.103,0.522,-13.2353298,61.6502808,-21.2567418,172.32857766,66.34280681999999,51.38287344
1.5,150,1.09,0.044,0.596,-20.7410796,69.4425096,-18.162768600000003,172.66089330000003,65.68390511999999,51.99020892
1.51,151,1.244,0.03,0.593,-32.6013102,69.4998054,-12.032117999999999,172.72391868,65.01927384000001,52.43711616
1.52,152,1.331,0.079,0.632,-37.24227,64.51507079999999,-3.8388186,172.5463017,64.39474962,52.66629936
1.53,153,1.293,0.156,0.7440000000000001,-34.37748,67.322565,4.5263682,172.24836354,63.73011834,52.72932474
1.54,154,1.166,0.181,0.784,-28.934379,75.05749800000002,11.688343199999998,171.87594084,62.97954336,52.64911062
1.55,155,1.061,0.157,0.715,-32.486718599999996,80.2714158,18.334656,171.36027864,62.16594299999999,52.4543049
1.56,156,1.021,0.16,0.625,-39.3049188,78.49524600000002,23.376686399999997,170.70137694,61.36380180000001,52.17355548000001
1.57,157,0.993,0.14300000000000002,0.557,-36.5547204,71.2759752,25.84040580000001,170.03674566,60.63041556,51.84696941999999
1.58,158,0.954,0.09,0.532,-24.350715,65.030733,28.1895336,169.48670597999995,59.94859554,51.50319462
1.59,159,0.917,0.035,0.539,-13.8655836,62.051351399999994,30.7678446,168.98823252,59.28969384000001,51.09639444
1.6,160,0.8220000000000001,0.044,0.528,-11.2872726,60.67625219999999,30.7105488,168.5355957,58.64225129999999,50.706783
1.61,161,0.852,0.065,0.498,-4.4117766,58.38442020000001,27.6738714,168.20900964,58.01772708,50.38592652000001
1.62,162,0.815,0.058,0.52,8.307891,54.889376399999996,24.5226024,168.06004056,57.43330992,50.12236584
1.6300000000000001,163,0.8109999999999999,0.009000000000000001,0.498,22.86102420000001,50.706783,25.0955604,168.07149972,56.88899982,49.85880516
1.6400000000000001,164,0.715,-0.018000000000000002,0.515,32.4294228,46.00852740000001,27.6165756,168.11160678000005,56.38479678,49.52075994000001
1.6500000000000001,165,0.75,-0.014,0.516,36.1536498,40.2216516,29.9657034,168.15171384,55.92643038,49.1311485
1.6600000000000001,166,0.7959999999999999,0.019,0.546,38.5027776,32.257535399999995,31.5699858,168.18036174000005,55.54827810000001,48.69570042
1.6700000000000002,167,0.838,0.031,0.5820000000000001,41.252976,23.8923486,33.804522,168.18609132,55.24461036,48.19722696000001
1.68,168,0.8390000000000001,0.092,0.618,42.2270046,16.8449652,34.2055926,168.22046880000005,55.00396800000001,47.70448308
1.69,169,0.858,0.123,0.628,44.2323576,8.651665800000002,33.2888598,168.23765754,54.84926934,47.17736172
1.7,170,0.885,0.116,0.6759999999999999,45.4928652,4.4117766,33.1742682,168.25484627999995,54.73467774000001,46.638781200000004
1.71,171,0.885,0.079,0.71,44.8053156,4.6409598,32.7731976,168.27776459999995,54.62008614,46.11165984
1.72,172,0.919,-0.014,0.767,47.1544434,5.2139178,33.9764094,168.31214208,54.49976496000001,45.56162016
1.73,173,0.93,-0.11,0.8170000000000001,45.6074568,4.1825934,35.236917,168.31787165999995,54.37944378,44.99439174
1.74,174,0.941,-0.161,0.816,41.252976,-0.11459160000000004,36.669312,168.24338712000005,54.29922966,44.39278584
1.75,175,0.909,-0.181,0.83,38.1590028,-5.5003968,34.262888399999994,168.163173,54.28204092,43.80836868
1.76,176,0.88,-0.21600000000000005,0.7829999999999999,31.4553942,-9.2819196,30.080295,168.05431098,54.31068882,43.2869769
1.77,177,0.845,-0.175,0.73,16.272007199999994,-12.4904844,27.1582092,167.82512778,54.37371420000001,42.7999626
1.78,178,0.83,-0.128,0.665,12.318597,-13.5791046,25.4393352,167.58448542,54.44246916000001,42.34159620000001
1.79,179,0.812,-0.094,0.619,10.026765,-15.469866,24.923673,167.30946558,54.53987202,41.87750022
1.8,180,0.787,-0.068,0.5770000000000001,7.6776372,-16.8449652,25.0382646,167.00579784,54.64873404,41.40194508
1.81,181,0.767,-0.052000000000000005,0.5489999999999999,5.3285094000000015,-17.4179232,25.496631,166.66775262,54.76332563999999,40.91493078
1.82,182,0.768,-0.066,0.523,5.958763200000001,-17.9335854,26.4706596,166.31824824,54.87218766,40.41072774
1.83,183,0.778,-0.084,0.523,7.5630456000000015,-17.4179232,26.5279554,165.99166218,54.98104968,39.91225428
1.84,184,0.7859999999999999,-0.114,0.524,8.136003599999999,-15.813640800000002,24.9809688,165.68799443999995,55.07845254,39.43096956
1.85,185,0.799,-0.149,0.518,9.1100322,-12.4331886,19.8816426,165.4702704,55.14720749999999,39.05281728
1.86,186,0.804,-0.187,0.519,9.6256944,-10.7716104,15.4125702,165.32130132,55.21023288,38.74914954000001
1.87,187,0.8240000000000001,-0.2,0.529,8.7089616,-9.969469199999999,11.45916,165.22389846000004,55.27898784,38.51996634
1.8800000000000001,188,0.84,-0.2,0.5379999999999999,5.5576926,-9.6829902,7.906820400000001,165.09784770000005,55.35920196000001,38.31370146
1.8900000000000001,189,0.867,-0.201,0.526,2.9220857999999996,-10.3705398,5.5576926,165.01763358,55.44514566,38.17619154000001
1.9000000000000001,190,0.882,-0.195,0.523,0.057295800000000015,-12.605076,4.1252976000000015,164.92023072,55.55973726,38.05587036
1.9100000000000001,191,0.897,-0.181,0.521,-0.6302538000000001,-15.6990492,2.3491278,164.82855744,55.70297676,37.95273792
1.9200000000000002,192,0.91,-0.181,0.519,-1.4896908000000002,-18.7930224,1.3178034,164.73115458,55.88059374000001,37.84960548
1.93,193,0.906,-0.165,0.526,-3.6096354,-21.7151082,0.286479,164.6108334,56.10404736,37.74647304
1.94,194,0.887,-0.156,0.531,-4.8128472,-22.058883,-0.5156622000000001,164.49051222,56.3217714,37.66052934
1.95,195,0.873,-0.146,0.534,-6.3025379999999975,-20.5691922,-1.6042823999999998,164.38165020000002,56.5223067,37.59750396
1.96,196,0.863,-0.139,0.536,-7.0473834,-17.246035799999998,-2.8074942000000003,164.28997692000004,56.69419409999999,37.56885606
1.97,197,0.862,-0.133,0.541,-7.7922288,-14.0947668,-4.4117766,164.22122196,56.84316318,37.586044799999996
1.98,198,0.86,-0.133,0.539,-8.479778399999999,-11.917526400000002,-5.72958,164.18684448,56.980673100000004,37.6433406
1.99,199,0.861,-0.132,0.521,-8.5370742,-10.7143146,-6.8182002000000015,164.16392616000005,57.10672386,37.71209556
2.0,200,0.858,-0.13,0.4920000000000001,-7.7922288,-11.172681,-7.906820400000001,164.15819658,57.23277462000001,37.79803926
2.01,201,0.858,-0.125,0.481,-7.5630456000000015,-13.2353298,-9.0527364,164.16392616000005,57.38747328,37.901171700000006
2.02,202,0.86,-0.127,0.479,-8.193299399999999,-13.8655836,-9.2819196,164.16965574,57.54217193999999,37.99857456
2.03,203,0.857,-0.12,0.482,-9.0527364,-12.891555,-8.8235532,164.17538532,57.70832975999999,38.10743658
2.04,204,0.851,-0.102,0.478,-9.167328,-10.8289062,-8.479778399999999,164.16965574,57.83438052,38.21056902
2.05,205,0.8440000000000001,-0.084,0.469,-8.078707799999998,-8.7089616,-8.307891,164.1811149,57.94324253999999,38.31943104
2.0599999999999996,206,0.8420000000000001,-0.071,0.473,-6.3025379999999975,-7.6203414,-8.021412000000002,164.2097628,58.0406454,38.42829306
2.07,207,0.8390000000000001,-0.066,0.487,-4.4117766,-7.3911582,-7.6203414,164.24986986000005,58.13231868,38.5314255
2.0799999999999996,208,0.845,-0.067,0.51,-2.5210152000000003,-7.161975,-7.2765666,164.39310935999995,58.22972154,38.70331289999999
2.09,209,0.852,-0.071,0.525,-1.2605076000000002,-6.703608600000001,-7.2192707999999985,164.4675939,58.31566524000001,38.80071576
2.0999999999999996,210,0.86,-0.078,0.528,-1.6042823999999998,-6.417129599999999,-7.2765666,164.54207844,58.39587936,38.9038482
2.11,211,0.863,-0.083,0.529,-2.291832,-6.417129599999999,-7.2765666,164.60510382,58.47609348,39.00698064
2.1199999999999997,212,0.8690000000000001,-0.085,0.526,-3.2658606,-6.703608600000001,-7.5630456000000015,164.66239962,58.56203718,39.11584266
2.13,213,0.878,-0.084,0.521,-3.8388186,-6.6463128000000005,-7.9641161999999985,164.77699122,58.65944003999999,39.28200048
2.1399999999999997,214,0.877,-0.08,0.514,-3.6096354,-6.990087599999999,-8.307891,164.84574618000005,58.74538374,39.40232166
2.15,215,0.8759999999999999,-0.08,0.512,-3.151269,-7.2765666,-8.3651868,164.92023072,58.83705702,39.52264284
2.1599999999999997,216,0.8809999999999999,-0.07200000000000001,0.516,-2.4637194,-7.5630456000000015,-7.9641161999999985,164.99471526,58.93445988,39.63723444
2.17,217,0.884,-0.06,0.515,-2.0053530000000004,-7.7349330000000025,-7.5057497999999985,165.06347022,59.02613315999999,39.74609646
2.1799999999999997,218,0.885,-0.051,0.514,-1.8907613999999997,-8.193299399999999,-6.8182002000000015,165.21816887999995,59.14072476,39.91798386
2.19,219,0.882,-0.044,0.51,-1.5469866,-8.59437,-6.016058999999999,165.26400552,59.23812762,39.9924684
2.1999999999999997,220,0.8859999999999999,-0.037000000000000005,0.507,-0.9167328,-8.880849000000003,-5.2712136,165.30984216,59.33553048,40.05549378
2.21,221,0.884,-0.035,0.504,-0.2291832000000001,-9.3392154,-4.583664,165.34994922,59.43866292,40.10133042
2.2199999999999998,222,0.885,-0.031,0.4970000000000001,-0.2291832000000001,-9.8548776,-4.4690724,165.3843267,59.54179536,40.14143748
2.23,223,0.882,-0.033,0.494,-0.4583664000000001,-10.0840608,-4.5263682,165.52756619999997,59.6735757,40.28467698
2.2399999999999998,224,0.882,-0.036000000000000004,0.488,-0.6302538000000001,-10.255948199999999,-4.5263682,165.56194368,59.78243772,40.32478404
2.25,225,0.888,-0.035,0.484,-1.8907613999999997,-10.4851314,-4.6409598,165.57913242,59.89702932,40.37062068
2.26,226,0.887,-0.032,0.484,-2.9220857999999996,-10.313244,-4.8701430000000006,165.59059158,60.01162092,40.41645732
2.27,227,0.888,-0.029,0.479,-3.151269,-9.6256944,-4.8701430000000006,165.60778032000005,60.11475336000001,40.46802354
2.28,228,0.883,-0.028,0.477,-2.6356068,-8.4224826,-4.583664,165.74529024,60.23507453999999,40.62845178
2.29,229,0.883,-0.027000000000000003,0.477,-1.8907613999999997,-7.3911582,-3.9534102,165.76247898000003,60.31528866,40.66855884
2.3,230,0.8809999999999999,-0.028,0.474,-1.2605076000000002,-6.589017,-3.0366774,165.77966772,60.38977319999999,40.70293632
2.31,231,0.885,-0.034,0.476,-1.0313244,-6.1879464,-2.0053530000000004,165.77966772,60.45279858,40.71439548
2.32,232,0.892,-0.042,0.482,-0.8594370000000001,-6.4744254,-0.5156622000000001,165.7567494,60.51582396,40.69720674
2.3299999999999996,233,0.889,-0.044,0.484,-1.0886202,-7.2192707999999985,1.0313244,165.85415226,60.61322682,40.77742086
2.34,234,0.887,-0.039,0.482,-1.6615782,-7.3911582,1.8907613999999997,165.77393813999996,60.68198178,40.7086659
2.3499999999999996,235,0.885,-0.038,0.473,-1.8907613999999997,-6.990087599999999,2.3491278,165.68799443999995,60.73927758000001,40.63418136
2.36,236,0.8809999999999999,-0.041,0.465,-1.4896908000000002,-6.130650599999999,2.86479,165.60205073999995,60.79657338000001,40.54823766
2.3699999999999997,237,0.879,-0.046,0.46,-1.145916,-5.5003968,3.380452200000001,165.51037746,60.83668044,40.45656438
2.38,238,0.879,-0.048,0.456,-1.2032118,-5.2139178,3.4377480000000005,165.55621409999995,60.92262414,40.48521228
2.3899999999999997,239,0.8859999999999999,-0.05,0.453,-1.2605076000000002,-4.9274388,3.3231564,165.4702704,60.96273120000001,40.39926858
2.4,240,0.889,-0.058,0.451,-0.9740286,-4.5263682,3.4377480000000005,165.37859712,61.00283826,40.3075953
2.4099999999999997,241,0.89,-0.062,0.452,-0.3437748,-3.9534102,3.6096354,165.298383,61.03148616,40.21592202
2.42,242,0.893,-0.059,0.451,-0.3437748,-3.4950437999999995,3.6669312000000014,165.21243930000003,61.05440448,40.12424874
2.4299999999999997,243,0.899,-0.058,0.453,-0.11459160000000004,-3.0366774,3.6669312000000014,165.30984216,61.14034818,40.1930037
2.44,244,0.893,-0.062,0.456,0.11459160000000004,-2.6356068,3.7815227999999994,165.23535762,61.15753692,40.10133042
2.4499999999999997,245,0.888,-0.064,0.458,0.3437748,-2.0626488000000003,4.010706000000001,165.16087308000004,61.16899608,40.00965714
2.46,246,0.885,-0.062,0.457,0.2291832000000001,-1.432395,4.1252976000000015,165.08638853999997,61.16899608,39.92371344
2.4699999999999998,247,0.889,-0.063,0.457,0.11459160000000004,-0.8021411999999999,3.8961144,165.01763358,61.16899608,39.83776974
2.48,248,0.89,-0.069,0.456,0.3437748,-0.572958,3.5523396000000003,165.17806181999995,61.24348062,39.9638205
2.4899999999999998,249,0.889,-0.075,0.46,0.8594370000000001,-0.5156622000000001,3.2658606,165.1264956,61.24348062,39.89506554
2.5,250,0.894,-0.076,0.462,0.8021411999999999,-0.4583664000000001,3.0366774,165.08065896,61.23775104,39.83204016
2.51,251,0.894,-0.075,0.461,0.11459160000000004,-0.286479,2.578311,165.03482232,61.23775104,39.78047393999999
2.52,252,0.893,-0.07400000000000001,0.464,-0.3437748,0.0,2.4064236,164.98898567999996,61.23202146,39.72890772
2.53,253,0.8909999999999999,-0.073,0.469,-0.3437748,0.572958,2.5210152000000003,165.21816887999995,61.2778581,39.92944302
2.54,254,0.89,-0.07400000000000001,0.471,-0.057295800000000015,1.0313244,2.578311,165.17806181999995,61.26639894,39.8778768
2.55,255,0.8909999999999999,-0.07400000000000001,0.47,-0.4583664000000001,1.432395,2.3491278,165.13795476,61.24348062,39.83776974
2.56,256,0.89,-0.078,0.467,-0.8594370000000001,1.432395,1.8907613999999997,165.09784770000005,61.22629188,39.80912184
2.57,257,0.892,-0.085,0.465,-1.0313244,1.5469866,1.5469866,165.0691998,61.20337356,39.78047393999999
2.5799999999999996,258,0.8909999999999999,-0.085,0.463,-1.0886202,1.8907613999999997,1.3178034,165.21816887999995,61.24921019999999,39.92371344
2.59,259,0.8909999999999999,-0.079,0.461,-1.432395,2.1199446,0.8594370000000001,165.19525056,61.22629188,39.91225428
2.5999999999999996,260,0.888,-0.075,0.464,-1.6042823999999998,2.4637194,0.4010706,165.18379140000005,61.20337356,39.91798386
2.61,261,0.887,-0.07400000000000001,0.465,-1.2032118,2.6929026,0.1718874,165.17806181999995,61.17472566,39.92371344
2.6199999999999997,262,0.889,-0.073,0.468,-0.6302538000000001,2.8074942000000003,0.057295800000000015,165.17806181999995,61.15180734000001,39.9351726
2.63,263,0.8909999999999999,-0.073,0.47,-0.5156622000000001,2.8074942000000003,-0.1718874,165.45308166,61.18618482000001,40.18727412
2.6399999999999997,264,0.895,-0.07400000000000001,0.474,-0.6875496,2.6356068,-0.572958,165.46454082,61.16326650000001,40.21592202
2.65,265,0.895,-0.076,0.474,-0.7448454000000001,2.578311,-1.0886202,165.48745914,61.14034818,40.24456992
2.6599999999999997,266,0.894,-0.077,0.472,-0.8021411999999999,2.578311,-1.3750992,165.51610704,61.11742986,40.28467698
2.67,267,0.894,-0.071,0.472,-1.0886202,2.4637194,-1.6615782,165.53902536,61.10024112,40.33051362
2.6799999999999997,268,0.8959999999999999,-0.066,0.473,-1.432395,2.4064236,-2.1772404,165.74529024,61.12315944,40.5367785
2.69,269,0.898,-0.066,0.473,-0.9167328,2.1199446,-2.3491278,165.78539730000003,61.10597070000001,40.5940743
2.6999999999999997,270,0.8959999999999999,-0.067,0.473,-0.4010706,2.0626488000000003,-2.4064236,165.83123394,61.09451154,40.65709968
2.71,271,0.894,-0.064,0.472,-0.5156622000000001,2.1772404,-2.291832,165.87707058,61.07732280000001,40.7086659
2.7199999999999998,272,0.89,-0.059,0.472,-0.9167328,2.3491278,-2.1772404,165.91144806,61.06013406,40.76596170000001
2.73,273,0.8909999999999999,-0.058,0.471,-0.9167328,3.0366774,-1.9480572,166.13490167999996,61.08305237999999,40.98368574
2.7399999999999998,274,0.893,-0.059,0.472,-0.286479,3.2085648,-1.6042823999999998,166.17500874,61.05440448,41.02952238
2.75,275,0.8909999999999999,-0.059,0.476,0.286479,2.9220857999999996,-1.432395,166.20938622,61.03148616,41.06962944
2.76,276,0.892,-0.057,0.478,0.3437748,2.8074942000000003,-1.3750992,166.24949327999997,61.00283826,41.1097365
2.77,277,0.895,-0.059,0.48,0.1718874,2.578311,-1.3750992,166.28387076,60.97991994,41.14984356
2.78,278,0.894,-0.062,0.48,-0.057295800000000015,2.5210152000000003,-1.145916,166.57034976,61.01429741999999,41.41340424
2.79,279,0.892,-0.062,0.481,-0.286479,2.2345362,-0.9167328,166.59326808,60.991379099999996,41.44205214
2.8,280,0.8909999999999999,-0.057,0.483,-0.572958,1.9480572,-1.0886202,166.6161864,60.97991994,41.47070004
2.81,281,0.889,-0.056,0.48,-0.4583664000000001,1.6042823999999998,-0.9740286,166.63337514,60.96273120000001,41.49934794
2.82,282,0.887,-0.057,0.478,-0.11459160000000004,1.3750992,-0.7448454000000001,166.65056388,60.951272040000006,41.52226626
2.8299999999999996,283,0.885,-0.055,0.474,0.0,1.3178034,-0.3437748,167.26935852,61.06586364,42.07230594
2.84,284,0.89,-0.053,0.473,0.2291832000000001,1.3178034,-0.1718874,167.2750881,61.05440448,42.0837651
2.8499999999999996,285,0.892,-0.051,0.473,0.3437748,1.3178034,-0.057295800000000015,167.28654726,61.04294532,42.08949468
2.86,286,0.893,-0.054000000000000006,0.477,0.6875496,1.145916,0.057295800000000015,167.29800642,61.03148616,42.09522426
2.8699999999999997,287,0.89,-0.054000000000000006,0.479,1.2032118,1.0886202,0.5156622000000001,167.30373600000001,61.020027000000006,42.0837651
2.88,288,0.897,-0.056,0.481,1.3750992,1.3178034,0.8021411999999999,167.55010794,61.06013406,42.29002998
2.8899999999999997,289,0.901,-0.059,0.481,0.4583664000000001,1.145916,0.9167328,167.54437836,61.04294532,42.27857082
2.9,290,0.895,-0.062,0.482,0.1718874,0.9740286,1.0313244,167.52718962,61.03148616,42.26138208
2.9099999999999997,291,0.893,-0.065,0.489,0.0,0.6875496,1.145916,167.51000088,61.02575657999999,42.23846376
2.92,292,0.884,-0.069,0.489,-1.7188740000000002,0.057295800000000015,1.145916,167.46989381999995,61.020027000000006,42.21554544
2.9299999999999997,293,0.875,-0.076,0.494,-5.042030400000002,-0.4583664000000001,0.9167328,167.46416424,61.01429741999999,42.255652500000004
2.94,294,0.867,-0.091,0.502,-10.1986524,-2.0626488000000003,0.4010706,167.34957264,61.03148616,42.23846376
2.9499999999999997,295,0.88,-0.102,0.479,-16.2147114,-2.9793816000000004,-0.8594370000000001,167.18341482,61.06586364,42.23846376
2.96,296,0.899,-0.108,0.458,-18.7357266,-3.6096354,-2.578311,167.02298658,61.11170028,42.27284124000001
2.9699999999999998,297,0.912,-0.114,0.455,-20.9702628,-7.161975,-4.9847345999999995,166.86828792,61.191914399999995,42.33586662
2.98,298,0.915,-0.109,0.457,-22.0015872,-10.1413566,-6.8182002000000015,166.73077800000004,61.31796515999999,42.4275399
2.9899999999999998,299,0.921,-0.1,0.458,-20.8556712,-12.4904844,-8.59437,166.62191597999995,61.45547508000001,42.54786108
3.0,300,0.924,-0.097,0.446,-18.6784308,-13.8655836,-10.7143146,166.57034976,61.61590332,42.70255974000001
3.01,301,0.945,-0.104,0.425,-16.902261,-13.8082878,-13.120738199999998,166.58180892,61.78206114,42.90882462
3.02,302,0.95,-0.101,0.41,-15.0114996,-13.0061466,-14.667724800000002,166.63910472,61.94248938,43.14946698
3.03,303,0.946,-0.103,0.399,-11.0007936,-10.8289062,-13.5791046,166.73650758,62.10291762000001,43.3729206
3.04,304,0.939,-0.095,0.396,-6.4744254,-9.224623800000002,-10.4278356,166.82245128,62.21750922,43.55053758
3.05,305,0.942,-0.087,0.431,-2.3491278,-9.740286,-7.1046792000000005,166.89693582,62.33210082,43.65367002
3.06,306,0.969,-0.11,0.436,-0.057295800000000015,-13.0061466,-5.2712136,166.94277246,62.46961074000001,43.71096582
3.07,307,0.999,-0.128,0.436,-1.7188740000000002,-20.05353,-6.0733548,166.96569078,62.67587562,43.75107288
3.08,308,1.02,-0.131,0.465,-2.9793816000000004,-26.298772200000002,-8.479778399999999,166.99433868,62.95662503999999,43.81409826
3.09,309,1.001,-0.132,0.505,-3.9534102,-29.67922440000001,-11.229976800000001,167.05736406,63.26602236,43.92296028
3.0999999999999996,310,1.001,-0.12,0.5329999999999999,-8.078707799999998,-30.252182399999995,-13.5791046,167.12038944,63.59260842,44.08911810000001
3.11,311,1.014,-0.083,0.532,-10.4278356,-30.65325300000001,-14.266654199999998,167.17768524000005,63.91919448,44.261005499999996
3.1199999999999997,312,1.036,-0.063,0.517,-8.7662574,-32.6013102,-13.2926256,167.22925146,64.26869886,44.40997458
3.13,313,1.046,-0.019,0.507,-4.0680017999999984,-40.8519054,-10.8289062,167.2750881,64.68695819999999,44.50164786000001
3.1399999999999997,314,1.046,0.045,0.53,4.297185,-49.1025006,-7.6203414,167.28654726,65.17970208,44.45581122
3.15,315,1.021,0.096,0.561,12.891555,-57.1239126,-3.7815227999999994,167.26935852,65.74120092000001,44.28392382
3.1599999999999997,316,0.979,0.104,0.595,16.272007199999994,-62.7961968,-0.057295800000000015,167.17768524000005,66.35426598000001,43.99744482000001
3.17,317,0.945,0.1,0.59,12.4904844,-66.749607,2.4637194,166.9599612,66.99024935999999,43.60783338
3.1799999999999997,318,0.902,0.109,0.581,8.5370742,-70.87490460000002,4.1252976000000015,166.68494135999995,67.65488064,43.20676278000001
3.19,319,0.882,0.122,0.601,9.167328,-75.4012728,5.5003968,166.27814118,68.37107814,42.65099352
3.1999999999999997,320,0.8690000000000001,0.139,0.609,11.229976800000001,-79.75575359999998,6.8182002000000015,165.80258604,69.12165311999999,42.00928055999999
3.21,321,0.927,0.14400000000000002,0.593,13.2353298,-83.07891,9.2819196,165.22389846000004,69.900876,41.23005768
3.2199999999999998,322,0.98,0.163,0.5479999999999999,14.610429000000002,-84.11023440000002,13.178034,164.49051222,70.6743693,40.28467698
3.23,323,1.05,0.195,0.516,16.329303,-85.54262940000002,17.475219,163.62534564,71.44213302,39.17886804
3.2399999999999998,324,1.079,0.258,0.515,18.5065434,-88.4647152,22.1161788,162.48515922,72.2213559,37.76939136
3.25,325,1.0759999999999998,0.308,0.5529999999999999,22.4026578,-90.527364,24.5798982,161.1730854,73.00057878,36.14219064
3.26,326,1.041,0.306,0.5820000000000001,21.829699800000004,-90.9284346,28.4760126,159.59172131999995,73.75688333999999,34.24569966
3.27,327,0.981,0.248,0.53,11.917526400000002,-89.7825186,34.0337052,157.56345,74.46735126,31.9997043
3.28,328,0.915,0.212,0.384,0.1718874,-86.11558740000002,41.0810886,155.12264892000005,75.09760506,29.4500412
3.29,329,0.8390000000000001,0.18600000000000005,0.332,-10.255948199999999,-78.4379502,47.269034999999995,152.16618564,75.59607852,26.49357792
3.3,330,0.7809999999999999,0.159,0.318,-19.767051,-73.51051140000001,50.5921914,148.89459545999995,75.99141954000002,23.31366102
3.31,331,0.782,0.099,0.247,-31.4553942,-63.7129296,53.5142772,145.43392913999998,76.24925064,20.06498916
3.32,332,0.912,0.037000000000000005,0.118,-37.9298196,-48.5868384,52.48295279999999,142.18525728,76.33519434,17.114255460000006
3.33,333,1.074,-0.021,0.004,-42.62807520000001,-34.950438,48.0711762,139.33192644000002,76.32946476,14.61615858
3.34,334,1.1840000000000002,-0.056,-0.059,-49.1597964,-28.1322378,42.685371,136.77653376,76.2607098,12.4904844
3.3499999999999996,335,1.294,-0.051,-0.103,-56.9520252,-30.8824362,40.04976420000001,134.15811570000002,76.20341400000002,10.38772854
3.36,336,1.472,-0.047,-0.077,-61.30650600000001,-34.262888399999994,41.825934,131.37353982,76.14038862,8.15319234
3.3699999999999997,337,1.7180000000000002,-0.098,-0.065,-61.36380179999999,-38.4454818,48.4722468,128.31967368,76.02006744,5.6436363
3.38,338,1.788,-0.171,-0.017,-59.1292656,-47.6128098,57.58227899999999,124.84181862,75.8596392,2.67571386
3.3899999999999997,339,1.721,-0.208,0.023,-58.78549079999999,-61.020027,69.8435802,120.77954640000002,75.61899684,-0.90527364
3.4,340,1.629,-0.203,0.037000000000000005,-55.6342218,-72.192708,82.2767688,116.310474,75.2580333,-4.9560867
3.4099999999999997,341,1.564,-0.188,0.0,-49.4462754,-79.46927459999998,92.8764918,111.73826916,74.75383026,-9.17878716
3.42,342,1.462,-0.168,-0.025,-42.91455420000001,-86.40206640000002,101.986524,107.21190096,74.10638772,-13.44159468
3.4299999999999997,343,1.351,-0.135,-0.036000000000000004,-35.5806918,-91.7878716,109.0912032,102.89179763999998,73.32143526,-17.57835144
3.44,344,1.234,-0.117,-0.056,-26.4706596,-96.829902,115.1072622,98.88109164,72.40470246,-21.50884332
3.4499999999999997,345,1.103,-0.151,0.034,-14.610429000000002,-101.4708618,119.34715140000002,95.2542675,71.37910764,-25.1815041
3.46,346,0.966,-0.192,0.095,-11.516455800000001,-102.1011156,120.77954640000002,92.02851396,70.27329870000001,-28.49320134
3.4699999999999998,347,0.888,-0.282,0.14800000000000002,-8.250595200000001,-97.0590852,119.1179682,89.31842262,69.1273827,-31.30642512
3.48,348,0.785,-0.336,0.16699999999999998,-7.5630456000000015,-89.7252228,113.84675459999998,87.10107516000002,67.99292586,-33.626905019999995
3.4899999999999998,349,0.69,-0.408,0.145,-12.9488508,-80.44330319999997,106.91396280000001,85.2275025,66.89857608,-35.52339600000001
3.5,350,0.633,-0.43,0.094,-14.7823164,-73.338624,102.1011156,83.64613842,65.83860378,-37.09330092
3.51,351,0.58,-0.418,0.054000000000000006,-17.0741484,-69.7862844,100.3249458,82.2481209,64.78436106000001,-38.45694096
3.52,352,0.54,-0.417,0.029,-20.1108258,-66.749607,98.3195928,80.98188372,63.73584792000001,-39.6486936
3.53,353,0.502,-0.431,0.001,-19.595163600000006,-60.9627312,94.6526616,79.91618184000002,62.71598268,-40.63418136
3.54,354,0.517,-0.435,-0.004,-18.8503182,-54.3164184,90.2981808,79.02809694,61.74768365999999,-41.43059298
3.55,355,0.5670000000000001,-0.408,-0.039,-20.626488,-46.9252602,88.52201099999998,78.30044028,60.80230296,-42.03219888
3.56,356,0.619,-0.377,-0.035,-19.308684600000007,-42.05511720000001,86.23017899999998,77.69883438,59.89129974,-42.50775402
3.57,357,0.687,-0.341,-0.018000000000000002,-23.14750320000001,-36.1536498,83.76645959999998,77.17171302,59.00894442,-42.85152882
3.58,358,0.759,-0.29100000000000004,-0.023,-26.929026,-33.403451399999994,82.4486562,76.67323956,58.14950742,-43.12081908
3.59,359,0.826,-0.277,-0.07,-30.252182399999995,-32.544014399999995,81.932994,76.16330694,57.290070420000006,-43.36146144
3.5999999999999996,360,0.8390000000000001,-0.265,-0.104,-34.60666320000001,-31.8564648,82.04758559999998,75.64191516,56.43063342000001,-43.573455900000006
3.61,361,0.825,-0.274,-0.109,-35.9817624,-26.642547,81.64651500000002,75.19500792,55.58265558000001,-43.67658834
3.6199999999999997,362,0.812,-0.28800000000000003,-0.128,-38.5027776,-22.058883,81.2454444,74.7996669,54.746136899999996,-43.69377708
3.63,363,0.7909999999999999,-0.284,-0.162,-38.3308902,-19.194093,82.2767688,74.43297378,53.92107738,-43.65939960000001
3.6399999999999997,364,0.8340000000000001,-0.295,-0.253,-33.0596766,-17.5325148,82.50595200000002,74.1694131,53.0845587,-43.57918548
3.65,365,0.962,-0.321,-0.308,-27.3300966,-22.1161788,83.5945722,73.911582,52.23085128,-43.55626716
3.6599999999999997,366,1.087,-0.311,-0.201,-18.9649098,-37.757932200000006,88.2928278,73.57353678,51.29120016,-43.75107288
3.67,367,1.178,-0.331,-0.098,-15.9282324,-46.8106686,96.4288314,73.20111408,50.254146180000006,-44.0318223
3.6799999999999997,368,1.156,-0.301,-0.118,-20.1108258,-48.0711762,105.25238459999998,72.81723222,49.14260766,-44.27819424
3.69,369,0.936,-0.278,-0.159,-17.246035799999998,-42.7426668,108.002583,72.54221238,48.00242124,-44.41570416
3.6999999999999997,370,0.7170000000000001,-0.3,-0.108,-13.178034,-38.7319608,109.3203864,72.37032497999998,46.86223482000001,-44.48445912
3.71,371,0.506,-0.33,-0.095,-13.120738199999998,-33.9764094,110.8100772,72.25000379999999,45.71631882,-44.47299996
3.7199999999999998,372,0.362,-0.321,-0.129,-13.8655836,-26.356068,108.8047242,72.18697842,44.61050988,-44.36413794
3.73,373,0.319,-0.332,-0.157,-9.9121734,-16.157415599999997,104.3929476,72.24427422,43.573455900000006,-44.1464139
3.7399999999999998,374,0.344,-0.383,-0.136,-5.5003968,-10.5424272,102.6167778,72.38178414,42.57650898,-43.86566448
3.75,375,0.404,-0.474,-0.12,-1.0313244,-6.9327918,103.5908064,72.58804902,41.57383248,-43.53907842
3.76,376,0.502,-0.5429999999999999,-0.146,3.151269,-5.958763200000001,107.2004418,72.85160970000003,40.54250808,-43.20103320000001
3.77,377,0.574,-0.618,-0.188,8.880849000000003,-10.4851314,112.6435428,73.13235912,39.44242872,-42.90882462
3.78,378,0.595,-0.6459999999999999,-0.22,13.750992000000002,-13.6364004,118.2585312,73.43602686,38.28505356,-42.64526393999999
3.79,379,0.595,-0.675,-0.222,17.475219,-15.6417534,122.2119414,73.76834249999997,37.08184176,-42.40462158
3.8,380,0.609,-0.73,-0.219,19.6524594,-15.870936600000002,123.5297448,74.10638772,35.8671708,-42.17543838
3.81,381,0.625,-0.7929999999999999,-0.238,20.3973048,-16.329303,122.09734979999999,74.43870336,34.66395900000001,-41.96344392
3.82,382,0.617,-0.848,-0.259,21.6578124,-17.4179232,119.5190388,74.76528942,33.477935939999995,-41.79155652
3.83,383,0.599,-0.925,-0.261,24.8663772,-19.938938399999998,118.6596018,75.09187548,32.29764246,-41.6540466
3.84,384,0.546,-0.978,-0.242,26.0122932,-22.058883,120.2065884,75.41846154,31.09443066,-41.55091416
3.8499999999999996,385,0.462,-0.99,-0.207,25.9549974,-25.3820394,120.72225060000001,75.7163997,29.8797597,-41.48788878
3.86,386,0.376,-0.974,-0.165,24.7517856,-25.84040580000001,119.6336304,75.99714911999997,28.670818319999995,-41.44205214
3.8699999999999997,387,0.299,-0.95,-0.14400000000000002,22.459953600000002,-22.7464326,117.1126152,76.2607098,27.496254420000003,-41.37902676
3.88,388,0.244,-0.912,-0.13,20.2254174,-17.8189938,113.6748672,76.52427048,26.350338420000003,-41.27016474
3.8899999999999997,389,0.2,-0.884,-0.1,20.168121600000006,-12.5477802,109.89334440000002,76.79356074,25.2674478,-41.12692524
3.9,390,0.153,-0.867,-0.078,18.5638392,-5.958763200000001,105.8826384,77.06858058,24.23039382,-40.93211952
3.9099999999999997,391,0.115,-0.857,-0.068,14.7823164,3.380452200000001,102.273003,77.33214126,23.25063564,-40.6513701
3.92,392,0.126,-0.884,-0.07200000000000001,11.6310474,12.7769634,100.2103542,77.58997236,22.29952536,-40.28467698
3.9299999999999997,393,0.177,-0.92,-0.1,10.1413566,22.173474600000002,98.9498466,77.87072178,21.3713334,-39.82631058
3.94,394,0.213,-0.972,-0.107,11.4018642,24.7517856,98.6060718,78.1514712,20.46033018,-39.35075544
3.9499999999999997,395,0.219,-1.006,-0.095,9.3392154,24.923673,100.6687206,78.40930230000002,19.52640864,-38.88092988
3.96,396,0.24,-1.045,-0.078,9.6829902,26.5852512,103.13244,78.66140382,18.5638392,-38.39391558
3.9699999999999998,397,0.27,-1.106,-0.108,5.6722842,28.7051958,108.002583,78.87912786,17.561162699999993,-37.87825338
3.98,398,0.299,-1.092,-0.094,-0.2291832000000001,29.8511118,112.299768,79.03382652,16.51264956,-37.35113202
3.9899999999999998,399,0.304,-1.057,-0.106,-2.9793816000000004,30.9970278,114.0759378,79.14841812,15.452677260000002,-36.81828108000001
4.0,400,0.289,-1.017,-0.126,-7.333862400000001,27.3873924,112.4716554,79.19998434,14.39843454,-36.33126678
4.01,401,0.269,-0.961,-0.182,-12.318597,18.7930224,108.9193158,79.16560686,13.361380559999995,-35.93592576
4.02,402,0.251,-0.903,-0.222,-16.959556799999998,9.8548776,103.991877,79.06247442,12.35870406,-35.64371718
4.03,403,0.272,-0.865,-0.237,-19.7097552,1.8907613999999997,95.7985776,78.89058702,11.43624168,-35.44318188
4.04,404,0.336,-0.825,-0.282,-21.485925,-6.3025379999999975,86.63124959999998,78.6957813,10.58253426,-35.34004944
4.05,405,0.378,-0.7759999999999999,-0.319,-21.9442914,-12.7769634,77.2920342,78.48378684000002,9.80331138,-35.31713112
4.06,406,0.403,-0.7440000000000001,-0.342,-21.6578124,-16.8449652,68.0674104,78.26033322,9.1100322,-35.3515086
4.07,407,0.39,-0.7140000000000001,-0.3670000000000001,-20.511896399999998,-20.340009,60.67625219999999,78.04260918,8.479778399999999,-35.43172272
4.08,408,0.34600000000000003,-0.693,-0.402,-20.340009,-23.032911600000002,55.9779966,77.79623724,7.9182795599999976,-35.5520439
4.09,409,0.264,-0.718,-0.418,-17.131444199999994,-25.6112226,52.54024860000001,77.60716109999998,7.3567807200000015,-35.68955382
4.1,410,0.165,-0.775,-0.424,-14.7823164,-24.923673,50.0765292,77.44100327999998,6.82392978,-35.83279331999999
4.109999999999999,411,0.105,-0.8190000000000001,-0.452,-14.037471,-19.4232762,48.128471999999995,77.2920342,6.31972674,-35.91873702
4.12,412,0.095,-0.889,-0.489,-9.3392154,-13.2926256,47.7274014,77.20036092000002,5.8269828599999975,-35.94165534
4.13,413,0.096,-0.974,-0.502,-5.5003968,-9.8548776,49.388979600000006,77.10868764,5.3285094000000015,-35.94165534
4.14,414,0.097,-1.033,-0.479,-3.0366774,-7.7922288,53.0559108,77.08576932000003,4.80138804,-35.90154828
4.1499999999999995,415,0.107,-1.038,-0.454,0.0,-5.2712136,57.1812084,77.0914989,4.23415962,-35.82706374
4.16,416,0.121,-1.03,-0.452,2.578311,-4.6409598,60.7908438,77.12587638,3.6382833,-35.74112004000001
4.17,417,0.13,-1.012,-0.454,4.7555514,-6.875496000000001,63.4264506,77.18317218,3.0137590800000003,-35.6666355
4.18,418,0.109,-0.993,-0.43,6.703608600000001,-8.9381448,63.82752120000001,77.22900881999998,2.38350528,-35.620798859999994
4.1899999999999995,419,0.071,-0.982,-0.435,7.7922288,-9.568398599999998,61.5356892,77.31495251999998,1.77044022,-35.5806918
4.2,420,0.031,-0.979,-0.446,9.6829902,-9.8548776,57.2385042,77.41235538,1.19748222,-35.5520439
4.21,421,-0.015,-0.992,-0.408,11.688343199999998,-10.4851314,52.3683612,77.53840613999998,0.6703608600000001,-35.54058474
4.22,422,-0.067,-1.013,-0.32,12.032117999999999,-11.9748222,47.555514,77.65872732,0.18907614,-35.55777348
4.2299999999999995,423,-0.131,-1.016,-0.261,10.1413566,-11.5737516,42.685371,77.76185976,-0.26356068,-35.5806918
4.24,424,-0.189,-1.011,-0.244,9.167328,-9.3965112,37.7006364,77.85353303999999,-0.64171296,-35.59215096
4.25,425,-0.217,-0.971,-0.224,6.760904399999999,-4.7555514,33.9764094,77.92228800000002,-0.97975818,-35.56923264
4.26,426,-0.232,-0.928,-0.163,6.589017,-0.2291832000000001,31.913760600000003,77.99104296,-1.29488508,-35.50620726000001
4.27,427,-0.237,-0.912,-0.138,5.5576926,3.7815227999999994,30.5959572,78.04260918,-1.5813640800000002,-35.40307482
4.28,428,-0.231,-0.926,-0.195,3.7815227999999994,6.8182002000000015,30.9970278,78.07125708,-1.9194093000000003,-35.27702406
4.29,429,-0.228,-0.975,-0.174,5.2139178,6.417129599999999,32.085648000000006,78.11709372,-2.21734746,-35.1509733
4.3,430,-0.232,-1.055,-0.097,5.5576926,5.6149884000000005,33.231564,78.16865994000003,-2.53247436,-35.03065212
4.31,431,-0.242,-1.122,-0.119,0.6875496,5.72958,34.7785506,78.16865994000003,-2.85906042,-34.90460136
4.32,432,-0.245,-1.14,-0.123,-3.2085648,6.9327918,37.41415739999999,78.12855288,-3.2085648000000004,-34.76136186
4.33,433,-0.249,-1.129,-0.115,-4.297185,7.9641161999999985,40.10706,78.08844581999998,-3.6096353999999997,-34.60093362
4.34,434,-0.268,-1.092,-0.116,-4.4117766,9.5111028,41.76863820000001,78.03115002,-3.99924684,-34.42331664
4.35,435,-0.271,-1.06,-0.101,-0.6302538000000001,11.4018642,41.9978214,78.00823170000002,-4.38885828,-34.228510920000005
4.36,436,-0.29100000000000004,-1.05,-0.108,2.6356068,13.8082878,40.5654264,78.01969086,-4.7555514,-34.01078688
4.37,437,-0.31,-1.024,-0.087,4.1252976000000015,17.303331600000003,38.5027776,78.03687959999998,-5.0993262,-33.75868536
4.38,438,-0.303,-0.99,-0.047,6.703608600000001,21.3713334,35.809875,78.09990497999998,-5.43737142,-33.477935939999995
4.39,439,-0.282,-0.985,-0.038,8.479778399999999,25.0955604,32.31483119999999,78.1514712,-5.70666168,-33.16853862
4.3999999999999995,440,-0.266,-0.965,-0.051,7.9641161999999985,29.9657034,28.4760126,78.19157826,-5.930115299999999,-32.81330466
4.41,441,-0.25,-0.947,-0.055,9.797581800000001,35.9244666,24.694489800000003,78.24887406,-6.1077322800000005,-32.41223406
4.42,442,-0.215,-0.944,-0.056,11.8029348,41.1383844,21.199446,78.31189943999998,-6.23951262,-31.965326819999994
4.43,443,-0.179,-0.943,-0.065,13.521808800000002,45.0917946,18.162768600000003,78.40357272,-6.348374640000001,-31.48977168
4.4399999999999995,444,-0.151,-0.954,-0.063,14.8396122,47.67010560000001,14.7823164,78.495246,-6.411400019999999,-30.99129822
4.45,445,-0.122,-0.963,-0.049,14.381245800000002,49.2170922,11.3445684,78.58118970000002,-6.43431834,-30.481365600000004
4.46,446,-0.093,-0.965,-0.056,12.261301199999998,48.3003594,9.3965112,78.64421508000002,-6.4457775,-29.98862172
4.47,447,-0.078,-0.986,-0.08800000000000001,11.229976800000001,44.919907200000004,8.021412000000002,78.6957813,-6.4457775,-29.5359849
4.4799999999999995,448,-0.085,-1.011,-0.122,8.3651868,41.8832298,8.078707799999998,78.73588836,-6.451507079999999,-29.1062664
4.49,449,-0.083,-1.021,-0.145,6.417129599999999,38.61736920000001,9.5111028,78.7530771,-6.48015498,-28.7051958
4.5,450,-0.07,-1.034,-0.161,6.703608600000001,36.669312,11.0007936,78.77599542,-6.525991620000001,-28.32704352
4.51,451,-0.06,-1.041,-0.17,6.760904399999999,35.695283399999994,11.5737516,78.79318416,-6.57755784,-27.954620819999995
4.52,452,-0.047,-1.042,-0.181,5.844171599999999,34.091001,10.9434978,78.8103729,-6.62912406,-27.593657279999995
4.53,453,-0.037000000000000005,-1.041,-0.187,5.2712136,31.8564648,9.2819196,78.82183205999998,-6.6463128,-27.26134164
4.54,454,-0.027000000000000003,-1.034,-0.182,4.8128472,28.991674800000002,7.0473834,78.82756164,-6.669231119999999,-26.96340348
4.55,455,-0.022,-1.021,-0.175,3.380452200000001,25.9549974,4.6982556,78.82756164,-6.669231119999999,-26.69984280000001
4.56,456,-0.021,-1.007,-0.173,1.9480572,23.491278,2.578311,78.82183205999998,-6.65777196,-26.46493002
4.57,457,-0.019,-1.003,-0.181,-0.057295800000000015,21.9442914,0.1718874,78.79318416,-6.623394479999999,-26.24720598
4.58,458,-0.014,-0.989,-0.202,-2.4637194,21.2567418,-1.3750992,78.7244292,-6.5317212,-26.0409411
4.59,459,-0.005,-0.989,-0.217,-2.7501984,20.05353,-2.291832,78.67286298,-6.474425399999999,-25.85186496
4.6,460,-0.004,-0.996,-0.222,-3.380452200000001,17.8762896,-3.0939732,78.61556718,-6.417129600000001,-25.679977560000005
4.61,461,-0.006999999999999999,-0.998,-0.219,-4.297185,15.527161800000002,-3.9534102,78.5525418,-6.35410422,-25.53673806
4.62,462,-0.006,-0.99,-0.215,-4.7555514,13.8655836,-4.9847345999999995,78.48951642,-6.2796196800000015,-25.41068730000001
4.63,463,-0.003,-0.976,-0.222,-4.583664,12.6623718,-6.4744254,78.40357272,-6.147839339999999,-25.30182528000001
4.64,464,0.001,-0.963,-0.24,-4.4117766,11.4018642,-8.136003599999999,78.34627692000002,-6.05043648,-25.20442242
4.6499999999999995,465,0.002,-0.957,-0.245,-3.380452200000001,8.880849000000003,-9.6829902,78.30044028,-5.94157446,-25.13566746
4.66,466,0.0,-0.96,-0.232,-2.1199446,6.3025379999999975,-10.4851314,78.27752196,-5.8269828599999975,-25.0955604
4.67,467,-0.002,-0.958,-0.222,-1.7188740000000002,4.0680017999999984,-10.1413566,78.25460364,-5.72385042,-25.07837166
4.68,468,-0.004,-0.959,-0.212,-1.0313244,2.578311,-9.1100322,78.21449658,-5.54623344,-25.07264208
4.6899999999999995,469,-0.003,-0.962,-0.205,-0.11459160000000004,1.4896908000000002,-7.7349330000000025,78.21449658,-5.4717489000000015,-25.07264208
4.7,470,-0.005,-0.96,-0.203,0.5156622000000001,0.9167328,-6.130650599999999,78.22022616,-5.40872352,-25.07264208
4.71,471,0.0,-0.961,-0.19,1.6615782,0.6302538000000001,-4.6409598,78.2374149,-5.3628868800000005,-25.07837166
4.72,472,0.015,-0.967,-0.185,2.7501984,0.4583664000000001,-3.9534102,78.2660628,-5.32277982,-25.07837166
4.7299999999999995,473,0.031,-0.971,-0.189,2.9220857999999996,-0.286479,-3.380452200000001,78.27752196,-5.11651494,-25.08410124000001
4.74,474,0.039,-0.98,-0.191,2.86479,-1.9480572,-4.1252976000000015,78.31189943999998,-5.07640788,-25.11274914
4.75,475,0.041,-0.985,-0.194,1.8907613999999997,-4.6982556,-5.72958,78.33481775999998,-5.03057124,-25.17004494
4.76,476,0.038,-0.984,-0.197,1.0313244,-7.6776372,-7.3911582,78.35200649999999,-4.96754586,-25.26171822
4.77,477,0.031,-0.983,-0.196,0.9740286,-10.1413566,-9.0527364,78.37492482,-4.898790900000002,-25.37630982
4.78,478,0.01,-0.978,-0.189,1.3750992,-11.1153852,-10.5424272,78.39784313999998,-4.77846972,-25.50809016
4.79,479,0.001,-0.978,-0.18600000000000005,1.9480572,-11.229976800000001,-11.5737516,78.42649104,-4.68106686,-25.6398705
4.8,480,-0.006999999999999999,-0.979,-0.171,2.7501984,-10.4851314,-11.6310474,78.46659809999998,-4.5836640000000015,-25.76592126
4.81,481,-0.008,-0.987,-0.162,3.8961144,-9.167328,-10.886202,78.51816432000003,-4.4977203,-25.87478328000001
4.82,482,-0.006,-0.993,-0.161,4.583664,-8.5370742,-9.3965112,78.57546012,-4.41750618,-25.97791572
4.83,483,-0.001,-1.001,-0.16399999999999998,4.8701430000000006,-8.250595200000001,-7.6203414,78.6384855,-4.31437374,-26.069589
4.84,484,0.005,-1.006,-0.17,4.5263682,-8.3651868,-5.6722842,78.69005172,-4.27426668,-26.16126228
4.85,485,0.013,-1.004,-0.174,4.3544808,-9.0527364,-4.1252976000000015,78.74161794,-4.24561878,-26.25866514
4.86,486,0.005,-1.003,-0.181,4.5263682,-10.1986524,-3.380452200000001,78.79891374,-4.22843004,-26.36752716
4.87,487,-0.001,-1.003,-0.182,3.9534102,-11.0580894,-2.9220857999999996,78.85047996,-4.22270046,-26.48211876
4.88,488,-0.019,-0.991,-0.174,4.1252976000000015,-10.9434978,-3.2658606,78.90204618,-4.17686382,-26.59098078
4.89,489,-0.028,-0.987,-0.16899999999999998,4.4690724,-9.797581800000001,-4.2398892,78.95934198,-4.14821592,-26.69411322
4.8999999999999995,490,-0.038,-0.986,-0.16899999999999998,4.297185,-8.307891,-5.443101,79.01090819999997,-4.10810886,-26.7857865
4.91,491,-0.04,-0.987,-0.168,4.297185,-6.875496000000001,-6.1879464,79.05674484,-4.06227222,-26.86600062
4.92,492,-0.039,-0.987,-0.166,3.6669312000000014,-6.016058999999999,-6.3025379999999975,79.10258148,-4.010706,-26.934755579999994
4.93,493,-0.032,-0.993,-0.168,3.4950437999999995,-5.443101,-5.844171599999999,79.14268854000002,-3.93049188,-26.99778096
4.9399999999999995,494,-0.028,-0.996,-0.161,2.9220857999999996,-4.9274388,-4.9847345999999995,79.17706602000001,-3.89038482,-27.05507676
4.95,495,-0.021,-0.998,-0.159,2.6356068,-3.8961144,-4.010706000000001,79.20571392,-3.85600734,-27.100913400000003
4.96,496,-0.016,-1.002,-0.162,2.4637194,-3.0366774,-2.7501984,79.23436182,-3.83308902,-27.13529088
4.97,497,-0.014,-1.003,-0.166,2.3491278,-2.291832,-1.4896908000000002,79.26300972,-3.82162986,-27.163938779999995
4.9799999999999995,498,-0.015,-1.002,-0.166,2.2345362,-1.432395,-0.8021411999999999,79.28019846,-3.68411994,-27.17539794
4.99,499,-0.016,-1.001,-0.165,2.1772404,-0.2291832000000001,-0.3437748,79.30311678,-3.67839036,-27.17539794
5.0,500,-0.014,-0.998,-0.162,2.1199446,0.8021411999999999,-0.2291832000000001,79.32603509999998,-3.67266078,-27.16966836
5.01,501,-0.011,-0.995,-0.162,1.7761698,1.8907613999999997,-0.11459160000000004,79.34322384000002,-3.67266078,-27.14675004
5.02,502,-0.006,-0.991,-0.161,1.5469866,2.6356068,-0.286479,79.354683,-3.66120162,-27.12383172
5.03,503,-0.003,-0.989,-0.159,1.2032118,2.8074942000000003,-0.4010706,79.36614216000002,-3.50077338,-27.08945424
5.04,504,0.001,-0.988,-0.16399999999999998,1.145916,2.4064236,-0.4583664000000001,79.37760132,-3.4950437999999995,-27.06653592
5.05,505,0.008,-0.988,-0.166,1.2605076000000002,1.9480572,-0.2291832000000001,79.38906048,-3.48931422,-27.04934718
5.06,506,0.013,-0.99,-0.163,1.3178034,1.4896908000000002,0.057295800000000015,79.40051964,-3.48931422,-27.03215844
5.07,507,0.012,-0.991,-0.157,1.5469866,1.5469866,0.3437748,79.41770838,-3.48931422,-27.0149697
5.08,508,0.012,-0.993,-0.156,1.6042823999999998,1.8334656000000005,0.572958,79.4406267,-3.3059676599999994,-26.992051380000003
5.09,509,0.012,-0.992,-0.157,1.3750992,1.8334656000000005,0.9740286,79.45781544,-3.3116972399999995,-26.96913306
5.1,510,0.013,-0.992,-0.161,1.2032118,1.6042823999999998,1.2032118,79.46927459999998,-3.3231564,-26.95194432000001
5.11,511,0.011,-0.993,-0.16,1.145916,1.3750992,1.3178034,79.47500418000001,-3.33461556,-26.934755579999994
5.12,512,0.006,-0.996,-0.16,1.0313244,1.0886202,1.3750992,79.48646334,-3.34607472,-26.92329642
5.13,513,0.006999999999999999,-0.997,-0.161,1.0313244,0.572958,1.432395,79.4979225,-3.13408026,-26.90610768
5.14,514,0.01,-0.996,-0.16,0.5156622000000001,-0.057295800000000015,1.4896908000000002,79.50365208,-3.14553942,-26.90610768
5.1499999999999995,515,0.006999999999999999,-0.994,-0.161,0.5156622000000001,-0.572958,1.3178034,79.50938166,-3.1627281600000003,-26.90610768
5.16,516,0.001,-0.993,-0.163,0.6302538000000001,-1.145916,1.145916,79.51511124,-3.1741873200000006,-26.91756684
5.17,517,-0.003,-0.994,-0.168,0.4010706,-1.4896908000000002,1.0313244,79.52084082,-3.18564648,-26.929026
5.18,518,-0.006999999999999999,-0.992,-0.162,0.4010706,-1.2032118,0.9740286,79.50938166,-3.00229992,-26.934755579999994
5.1899999999999995,519,-0.006999999999999999,-0.991,-0.161,0.5156622000000001,-0.4583664000000001,0.8021411999999999,79.51511124,-3.0137590800000003,-26.94048516
5.2,520,-0.006,-0.989,-0.16399999999999998,0.5156622000000001,0.1718874,0.8021411999999999,79.52084082,-3.01948866,-26.934755579999994
5.21,521,-0.003,-0.989,-0.168,0.7448454000000001,0.1718874,0.9740286,79.53229998,-3.03094782,-26.929026
5.22,522,0.0,-0.991,-0.173,0.8021411999999999,-0.2291832000000001,1.3178034,79.53802956,-3.04240698,-26.929026
5.2299999999999995,523,0.003,-0.991,-0.173,0.9167328,-1.0313244,1.6615782,79.51511124,-2.92781538,-26.94048516
5.24,524,0.001,-0.99,-0.16899999999999998,1.0313244,-1.7188740000000002,1.8334656000000005,79.5265704,-2.94500412,-26.95194432000001
