TimeStamp(s),FrameCounter,AccX,AccY,AccZ,GyrX,GyrY,GyrZ,EulerX,EulerY,EulerZ
0.01,1,0.004,-0.985,0.2,-8.8235532,-9.453807,3.2085647999999996,97.98154758,5.43737142,-32.81330466
0.02,2,-0.01,-0.998,0.20199999999999999,-10.5424272,-11.45916,4.1825934,97.8612264,5.4144530999999985,-32.933625840000005
0.03,3,0.002,-1.014,0.20600000000000002,-9.682990199999999,-12.891555,4.297185,97.75236438,5.3972643599999985,-33.06540618
0.04,4,0.01,-1.032,0.22399999999999998,-9.7975818,-13.464512999999998,4.6409598,97.64350236,5.36861646,-33.2029161
0.05,5,0.016,-1.046,0.23800000000000002,-11.172680999999999,-13.5791046,5.3285094000000015,97.5460995,5.28840234,-33.31177812
0.060000000000000005,6,0.015,-1.0390000000000001,0.23800000000000002,-11.6310474,-14.209358400000001,6.4744254,97.42004874,5.2425657,-33.4607472
0.06999999999999999,7,0.019,-1.024,0.239,-10.313244000000001,-14.7823164,7.6776372,97.29972756,5.19099948,-33.62117544
0.08,8,0.018000000000000002,-1.01,0.249,-9.3392154,-14.610429000000002,8.7089616,97.19086554,5.127974099999999,-33.7758741
0.09,9,0.011000000000000001,-1.002,0.258,-10.026765,-13.8082878,9.2819196,97.08200352,5.05348956,-33.92484318
0.09999999999999999,10,0.009000000000000001,-0.996,0.262,-11.3445684,-12.834259199999998,9.453807,96.99605982,4.9217092199999986,-34.02224604
0.11,11,0.006,-0.997,0.259,-13.464512999999998,-12.1467096,9.0527364,96.84709073999998,4.84722468,-34.15402638
0.12,12,0.002,-0.996,0.23800000000000002,-15.6990492,-11.5164558,8.3651868,96.68093292,4.77846972,-34.28007714
0.13,13,0.001,-0.995,0.21899999999999997,-16.7303736,-11.5164558,7.6776372,96.50331594,4.72117392,-34.4061279
0.14,14,0.001,-0.987,0.20600000000000002,-17.18874,-11.45916,6.8182002000000015,96.31996938,4.6696076999999985,-34.52644908
0.15000000000000002,15,0.006999999999999999,-0.981,0.204,-17.8189938,-11.3445684,5.6722842,96.15954114000002,4.57793442,-34.61812236
0.16,16,0.013999999999999999,-0.975,0.204,-18.6784308,-11.0580894,4.6982555999999995,95.95900584,4.54355694,-34.73271396
0.17,17,0.018000000000000002,-0.9690000000000001,0.204,-19.308684600000007,-10.828906199999999,4.0680017999999984,95.75847054,4.5206386200000015,-34.84730556
0.18000000000000002,18,0.023,-0.9690000000000001,0.20199999999999999,-20.2827132,-10.5424272,3.4950437999999995,95.54647608,4.4977203,-34.96189716
0.19,19,0.027000000000000003,-0.966,0.198,-21.142150199999996,-10.5424272,2.9793816000000004,95.32302246,4.4748019800000005,-35.07075918
0.2,20,0.03,-0.9640000000000001,0.196,-20.8556712,-10.599723,2.5210152000000003,95.13394632,4.42323576,-35.1509733
0.21000000000000002,21,0.028999999999999998,-0.966,0.19699999999999998,-20.5118964,-10.3705398,2.0626488000000003,94.91622228,4.41750618,-35.25983532
0.22,22,0.028999999999999998,-0.968,0.19699999999999998,-19.9962342,-10.3705398,1.5469866,94.7099574,4.4117766000000005,-35.36296776
0.23,23,0.025,-0.976,0.204,-19.365980399999998,-10.026765,0.9167328000000001,94.50369252,4.4117766000000005,-35.46610020000001
0.24000000000000002,24,0.017,-0.983,0.203,-19.308684600000007,-8.9954406,0.8021411999999999,94.30315722,4.4117766000000005,-35.55777348
0.25,25,0.011000000000000001,-0.9840000000000001,0.196,-19.194093,-7.7922288,0.9167328000000001,94.14845856,4.34302164,-35.59788054
0.26,26,0.003,-0.98,0.19899999999999998,-18.449247600000003,-6.2452422,0.9167328000000001,93.95938242,4.33729206,-35.66090592
0.27,27,-0.004,-0.978,0.2,-17.8762896,-4.010706000000001,0.6875496,93.77030628,4.33729206,-35.70674256
0.28,28,-0.005,-0.978,0.19899999999999998,-17.3606274,-1.8334656000000005,0.286479,93.59268929999999,4.3315624800000005,-35.72393130000001
0.29000000000000004,29,-0.006,-0.976,0.2,-16.902261,0.4583664000000001,-0.2291832000000001,93.42653148,4.3315624800000005,-35.72393130000001
0.3,30,-0.002,-0.9690000000000001,0.198,-16.615782,2.4637194,-0.8594370000000001,93.32912862,4.24561878,-35.63225802
0.31,31,0.0,-0.9640000000000001,0.20199999999999999,-15.6417534,4.6409598,-1.4896908000000002,93.17442996,4.25134836,-35.58642138000001
0.32,32,0.006,-0.963,0.207,-14.7250206,6.3025379999999975,-1.9480572,93.02546088,4.2685371,-35.52339600000001
0.33,33,0.01,-0.963,0.217,-14.266654199999998,7.9641161999999985,-2.0053530000000004,92.88795096,4.27999626,-35.44891146
0.34,34,0.01,-0.9640000000000001,0.21899999999999997,-13.8082878,9.1100322,-2.0053530000000004,92.75044104,4.29145542,-35.35723818
0.35000000000000003,35,0.008,-0.961,0.215,-13.407217200000002,10.1986524,-2.1199446,92.68168608,4.22843004,-35.20253952
0.36000000000000004,36,0.005,-0.9590000000000001,0.214,-12.6623718,10.7716104,-2.291832,92.56136490000002,4.24561878,-35.09940708000001
0.37,37,0.001,-0.9570000000000001,0.215,-12.261301199999998,11.2872726,-2.6929026,92.44104372,4.26280752,-34.984815479999995
0.38,38,-0.002,-0.9540000000000001,0.21100000000000002,-12.1467096,11.6310474,-3.0366774,92.32645212,4.27999626,-34.870223880000005
0.39,39,-0.006999999999999999,-0.9490000000000001,0.203,-11.8602306,11.917526400000002,-3.7815228,92.21186052,4.30864416,-34.7499027
0.4,40,-0.008,-0.9490000000000001,0.196,-11.0580894,12.0894138,-4.2398892,92.16602387999998,4.2685371,-34.5780153
0.41000000000000003,41,-0.009000000000000001,-0.9490000000000001,0.19,-10.4851314,12.605075999999999,-4.583664,92.06862102,4.30291458,-34.45196454
0.42000000000000004,42,-0.012,-0.9520000000000001,0.184,-9.9121734,13.120738199999998,-4.7555514,91.97694774,4.34302164,-34.32591377999999
0.43,43,-0.019,-0.953,0.18,-8.880849000000003,13.5791046,-4.8701430000000006,91.89100404,4.3831287,-34.18840386
0.44,44,-0.023,-0.9570000000000001,0.179,-8.078707799999998,14.7250206,-4.9274388,91.82224908,4.42323576,-34.03943478
0.45,45,-0.028999999999999998,-0.9540000000000001,0.17800000000000002,-7.3911582,15.813640800000002,-4.8701430000000006,91.8165195,4.37166954,-33.82171074
0.46,46,-0.040999999999999995,-0.951,0.17800000000000002,-5.958763200000001,16.272007199999994,-4.583664,91.76495328,4.40604702,-33.6612825
0.47000000000000003,47,-0.049,-0.951,0.18,-3.8388186,16.329303,-3.7815228,91.73630538,4.43469492,-33.50085426
0.48000000000000004,48,-0.054000000000000006,-0.956,0.185,-2.5783110000000002,16.501190400000002,-2.8074942000000003,91.71911664,4.45188366,-33.33469644
0.49,49,-0.057999999999999996,-0.9590000000000001,0.177,-1.6615782,16.329303,-1.7188740000000002,91.71338706000002,4.45761324,-33.1742682
0.5,50,-0.059000000000000004,-0.9570000000000001,0.16699999999999998,0.057295800000000015,16.042824000000003,-0.8021411999999999,91.82224908,4.28572584,-32.90497794
0.51,51,-0.059000000000000004,-0.965,0.16,1.6042823999999998,16.157415599999997,0.3437748,91.85089698,4.27426668,-32.75027928
0.52,52,-0.046,-0.993,0.107,0.5156622000000001,16.157415599999997,1.4896908000000002,91.86235614,4.25134836,-32.58985104
0.53,53,-0.001,-1.069,0.008,-3.380452200000001,15.126091199999998,3.8961144,91.83943782,4.20551172,-32.44088196
0.54,54,0.048,-1.165,-0.079,-4.4690724,11.8602306,8.078707799999998,91.79933076,4.11383844,-32.32629036
0.55,55,0.07,-1.2329999999999999,-0.09,2.4637194,6.3598338,15.6417534,91.8165195,3.9648693599999993,-32.274724140000004
0.56,56,0.065,-1.262,-0.05,8.479778399999999,3.5523396000000003,21.142150199999996,91.9024632,3.752874900000001,-32.24607624
0.5700000000000001,57,0.013000000000000001,-1.24,-0.006,11.2299768,3.2658606,22.7464326,92.02278438,3.5236917,-32.217428340000005
0.5800000000000001,58,-0.06,-1.177,0.083,9.9694692,0.40107059999999994,18.277360199999997,92.12018724,3.34607472,-32.22315792
0.59,59,-0.11699999999999999,-1.094,0.10400000000000001,2.8074942000000003,-3.4950437999999995,8.651665800000002,92.14883514,3.26013102,-32.2575354
0.6,60,-0.142,-1.016,0.08,-0.6875496,-2.1199446,-1.3178034,92.37801834,2.57258142,-31.902301439999995
0.61,61,-0.154,-0.996,0.069,4.1252976000000015,6.1879464,-9.167328,92.42385498,2.65852512,-31.83354648000001
0.62,62,-0.128,-1.0490000000000002,0.122,8.9381448,15.870936600000002,-14.610429000000002,92.52125784,2.79030546,-31.67311824
0.63,63,-0.078,-1.084,0.139,5.6149884000000005,24.2361234,-18.3919518,92.58428322,2.9564632800000004,-31.42101672
0.64,64,-0.04,-1.063,0.102,-2.0626488000000003,28.533308399999996,-19.7097552,92.57855364,3.13408026,-31.12880814
0.65,65,0.004,-1.026,0.05,-7.6203414,30.8251404,-18.506543399999998,92.50979868,3.28877892,-30.819410819999995
0.66,66,0.075,-0.991,0.003,-9.8548776,30.7105488,-14.209358400000001,92.42385498,3.4091001000000003,-30.510013500000003
0.67,67,0.153,-0.9540000000000001,-0.016,-9.568398599999998,26.5852512,-8.136003599999999,92.33791128,3.47212548,-30.24072324
0.68,68,0.205,-0.907,0.006999999999999999,-8.250595200000001,19.2513888,-2.5783110000000002,92.26342674,3.48358464,-30.051647100000004
0.6900000000000001,69,0.23,-0.884,0.034,-8.021412000000002,11.802934800000001,1.7188740000000002,92.1889422,3.45493674,-29.9370555
0.7000000000000001,70,0.19899999999999998,-0.868,0.04,-8.193299399999999,4.9847346,4.583664,92.06862102,3.51796212,-29.94851466
0.7100000000000001,71,0.166,-0.898,0.053,-5.5003968,-2.1199446,6.0160589999999985,92.0170548,3.46066632,-29.97143298
0.72,72,0.134,-0.9420000000000001,0.057999999999999996,-4.4117766,-6.130650599999999,4.6982555999999995,91.96548857999998,3.4148296799999995,-30.03445836
0.73,73,0.107,-0.992,0.055,-2.2345362,-9.1100322,1.2605076000000002,91.93684068,3.4091001000000003,-30.12613164
0.74,74,0.09300000000000001,-1.046,0.08900000000000001,0.5156622000000001,-11.688343199999998,-4.0680017999999984,91.93684068,3.45493674,-30.24072324
0.75,75,0.092,-1.091,0.10800000000000001,0.9740286,-13.3499214,-10.886202,91.94829984,3.5809875,-30.37250358
0.76,76,0.087,-1.109,0.11599999999999999,2.3491277999999998,-13.9228794,-17.7044022,91.96548857999998,3.76433406,-30.50428392
0.77,77,0.07,-1.104,0.11,2.8074942000000003,-13.8082878,-23.14750320000001,91.9884069,4.00497642,-30.63033468
0.78,78,0.06,-1.079,0.095,2.86479,-13.178034,-26.069589,92.01132522,4.2685371,-30.75065586
0.79,79,0.059000000000000004,-1.036,0.083,0.057295800000000015,-11.802934800000001,-25.3247436,92.00559564,4.5263682,-30.85951788
0.8,80,0.064,-0.9940000000000001,0.069,-3.8388186,-11.2299768,-21.7151082,91.95975899999999,4.74409224,-30.95692074
0.81,81,0.067,-0.963,0.057,-7.5630456000000015,-11.401864199999999,-17.303331600000003,91.87381529999999,4.9217092199999986,-31.06578276
0.8200000000000001,82,0.077,-0.932,0.05,-9.8548776,-12.5477802,-13.0061466,91.76495328,5.05921914,-31.18610394
0.8300000000000001,83,0.09300000000000001,-0.899,0.053,-11.401864199999999,-14.266654199999998,-9.9121734,91.63890252,5.16235158,-31.32361386
0.8400000000000001,84,0.11699999999999999,-0.8740000000000001,0.064,-11.3445684,-16.501190400000002,-8.7089616,91.51285176,5.25975444,-31.48977168
0.85,85,0.132,-0.861,0.076,-9.167328,-18.5638392,-9.167328,91.40398974,5.38007562,-31.67884782
0.86,86,0.13699999999999998,-0.866,0.10400000000000001,-8.9954406,-20.6837838,-11.3445684,91.29512772,5.5003968,-31.87938312
0.87,87,0.136,-0.865,0.127,-6.4744254,-22.91832,-14.209358400000001,91.20918402,5.65509546,-32.10856632
0.88,88,0.126,-0.8740000000000001,0.154,-4.7555514,-23.319390600000002,-15.068795399999999,91.14042906,5.815523699999999,-32.33774952
0.89,89,0.11,-0.888,0.16699999999999998,-2.9793816000000004,-22.9756158,-14.7823164,91.09459242,5.97022236,-32.56120314
0.9,90,0.098,-0.902,0.188,-0.8021411999999999,-22.517249399999997,-13.521808800000002,91.09459242,6.09627312,-32.76173844
0.91,91,0.09300000000000001,-0.9279999999999999,0.209,0.6302538000000001,-22.058882999999998,-10.943497800000001,91.08313326,6.210864720000001,-32.97946248
0.92,92,0.09300000000000001,-0.95,0.21899999999999997,0.4583664000000001,-21.7151082,-7.5057497999999985,91.06594452,6.29680842,-33.19145694
0.93,93,0.102,-0.961,0.217,0.8594370000000001,-22.345361999999998,-3.380452200000001,91.05448536,6.34264506,-33.41491056
0.9400000000000001,94,0.11900000000000001,-0.9590000000000001,0.21,0.40107059999999994,-24.1788276,1.5469866,91.03729662,6.33691548,-33.65555292
0.9500000000000001,95,0.145,-0.943,0.183,-1.3750992,-28.81978740000001,6.7609043999999985,91.01437829999999,6.2853492599999985,-33.93630234
0.9600000000000001,96,0.168,-0.927,0.156,-1.6042823999999998,-33.002380800000005,10.1413566,90.96854166,6.1994055600000015,-34.26861798
0.97,97,0.188,-0.919,0.127,-1.5469866,-37.586044799999996,12.3758928,90.91697544,6.09627312,-34.64677026
0.98,98,0.198,-0.919,0.113,-1.0313244000000001,-41.6540466,13.636400400000001,90.8711388,5.97595194,-35.05930002
0.99,99,0.19399999999999998,-0.929,0.106,0.2291832000000001,-45.0917946,14.5531332,90.83103174,5.849901179999999,-35.51193684000001
1.0,100,0.182,-0.9440000000000001,0.111,2.1772404,-47.0971476,15.126091199999998,90.813843,5.735309579999999,-35.98749198
1.01,101,0.17800000000000002,-0.973,0.131,3.8961144,-47.841993,15.2406828,90.813843,5.6035292399999985,-36.46304712
1.02,102,0.18600000000000005,-1.024,0.14300000000000002,3.2658606,-47.269035,14.381245800000002,90.80811342,5.48320806,-36.93860226
1.03,103,0.18100000000000002,-1.071,0.147,2.0053530000000004,-45.263682,12.776963400000001,90.79665426,5.37434604,-37.3855095
1.04,104,0.162,-1.113,0.172,3.0366774,-45.263682,11.2299768,90.79092468,5.2826727600000005,-37.83814632
1.05,105,0.134,-1.151,0.209,4.9847346,-46.7533728,10.1413566,90.81957258,5.19099948,-38.29651272
1.06,106,0.11900000000000001,-1.168,0.254,7.448453999999999,-48.529542600000006,9.3392154,90.85967964,5.1222445200000015,-38.77779744
1.07,107,0.127,-1.1840000000000002,0.244,9.2819196,-51.1651494,9.2819196,90.91697544,5.04775998,-39.28200048
1.08,108,0.1,-1.319,-0.064,-0.057295800000000015,-56.0925882,9.3392154,90.87686838,4.97900502,-39.84349932
1.09,109,0.063,-1.381,0.1,5.3858052,-44.5761324,6.9327918,90.8997867,4.93316838,-40.28467698
1.1,110,0.042,-1.41,0.361,11.802934800000001,-42.2270046,0.7448454000000001,91.00291914,4.9274388,-40.69147716
1.11,111,0.045,-1.4669999999999999,0.266,5.958763200000001,-44.4615408,-1.432395,91.03156704,4.96181628,-41.13265482
1.12,112,0.15,-1.4680000000000002,-0.001,-2.6356068,-40.6227222,0.9167328000000001,90.98000082,4.97327544,-41.53372542
1.1300000000000001,113,0.19399999999999998,-1.3969999999999998,-0.152,-5.0993262,-37.9871154,4.6982555999999995,90.8997867,4.93889796,-41.91187770000001
1.1400000000000001,114,0.174,-1.318,-0.14400000000000002,-6.5317212,-36.32553720000001,5.6149884000000005,90.80811342,4.898790900000002,-42.27284124000001
1.1500000000000001,115,0.094,-1.258,-0.079,-2.5783110000000002,-40.393539000000004,3.1512689999999997,90.74508804,4.88160216,-42.67391184
1.1600000000000001,116,-0.008,-1.213,-0.035,-4.3544808,-46.7533728,0.9167328000000001,90.66487392,4.893061319999998,-43.13800782
1.17,117,-0.027000000000000003,-1.061,-0.10099999999999999,-11.917526400000002,-52.2537696,0.3437748,90.51017526,4.90452048,-43.65939960000001
1.18,118,0.013999999999999999,-0.809,-0.128,-12.605075999999999,-55.06126379999999,1.5469866,90.33828786,4.91025006,-44.20943928000001
1.19,119,0.079,-0.632,-0.182,-14.7823164,-56.9520252,0.9167328000000001,90.14921172,4.91597964,-44.7766677
1.2,120,0.159,-0.552,-0.177,-16.8449652,-55.80610920000001,-2.3491277999999998,89.90856936,4.9847345999999995,-45.3496257
1.21,121,0.185,-0.597,-0.153,-17.0741484,-53.858052,-5.958763200000001,89.6965749,5.05348956,-45.88820622
1.22,122,0.16399999999999998,-0.733,-0.109,-16.2147114,-52.19647379999999,-6.875496000000001,89.49031002000002,5.13370368,-46.409597999999995
1.23,123,0.1,-0.888,-0.075,-15.928232399999999,-49.61816279999999,-3.6096353999999997,89.28977472,5.17381074,-46.90234188
1.24,124,0.043,-1.008,-0.067,-15.928232399999999,-45.1490904,1.0313244000000001,89.09496899999998,5.16808116,-47.3549787
1.25,125,0.002,-1.088,-0.07200000000000001,-15.928232399999999,-40.680018,5.443101,88.90016328,5.10505578,-47.75604930000001
1.26,126,-0.04,-1.139,-0.087,-15.756345,-36.32553720000001,9.2819196,88.71108714,5.0133825000000005,-48.11701284
1.27,127,-0.087,-1.153,-0.107,-14.7823164,-29.220858000000003,12.1467096,88.53919973999999,4.893061319999998,-48.40349184
1.28,128,-0.126,-1.137,-0.11599999999999999,-14.8396122,-22.7464326,13.178034,88.37304191999998,4.76128098,-48.62694546
1.29,129,-0.154,-1.095,-0.125,-13.0634424,-15.870936600000002,13.8655836,88.22980242,4.62377106,-48.7873737
1.3,130,-0.175,-1.037,-0.098,-11.2872726,-9.1100322,14.266654199999998,88.13812913999998,4.38885828,-48.83321034
1.31,131,-0.179,-0.982,-0.07,-10.943497800000001,-3.1512689999999997,15.527161800000002,88.02353753999998,4.23415962,-48.86185824
1.32,132,-0.161,-0.938,-0.043,-9.740286,1.6615782,17.589810600000003,87.92613467999998,4.06227222,-48.83893992
1.33,133,-0.115,-0.899,-0.006999999999999999,-8.59437,5.3285094000000015,19.5378678,87.84019098,3.8674665,-48.78164412
1.34,134,-0.042,-0.8640000000000001,0.032,-7.7922288,7.734933000000002,21.142150199999996,87.76570644,3.65547204,-48.69570042
1.35,135,0.03,-0.855,0.032,-7.5057497999999985,8.307891,22.1161788,87.70841064,3.43201842,-48.59829756
1.36,136,0.07400000000000001,-0.866,0.032,-6.589017,6.990087599999999,22.5745452,87.64538526,3.20283522,-48.52381301999999
1.37,137,0.11199999999999999,-0.8909999999999999,0.042,-4.7555514,4.583664,23.14750320000001,87.59954862,2.9736520200000003,-48.46651722
1.3800000000000001,138,0.132,-0.899,0.067,-3.2658606,2.0626488000000003,23.7204612,87.56517113999998,2.73873924,-48.43786932
1.3900000000000001,139,0.105,-0.894,0.085,-2.1199446,-0.572958,22.803728399999997,87.54798240000002,2.51528562,-48.43786932
1.4000000000000001,140,0.052000000000000005,-0.88,0.077,-2.9793816000000004,-2.9793816000000004,19.9389384,87.54798240000002,2.29756158,-48.43786932
1.4100000000000001,141,-0.001,-0.863,0.091,-2.0053530000000004,-3.9534102,16.157415599999997,87.53079366,2.13140376,-48.47224680000001
1.42,142,-0.051,-0.865,0.12300000000000001,-1.2032118,-3.2658606,11.6310474,87.51360492,2.01681216,-48.5008947
1.43,143,-0.091,-0.879,0.125,-1.3750992,-0.572958,7.0473834,87.50214575999998,1.9480572000000005,-48.50662428
1.44,144,-0.13,-0.897,0.136,-1.0886202,2.5783110000000002,4.4117766,87.49068659999998,1.90222056,-48.47797638
1.45,145,-0.154,-0.9279999999999999,0.134,-1.0886202,6.4744254,2.6356068,87.72559937999998,1.59282324,-48.22587486
1.46,146,-0.159,-0.953,0.145,-2.0053530000000004,10.943497800000001,1.8334656000000005,87.70841064,1.5756344999999998,-48.11701284
1.47,147,-0.147,-0.958,0.12,-4.4117766,15.068795399999999,2.0053530000000004,87.66257399999998,1.5527161800000002,-47.96804376
1.48,148,-0.13,-0.9570000000000001,0.1,-5.6149884000000005,18.277360199999997,2.1199446,87.61100778,1.53552744,-47.784697200000004
1.49,149,-0.092,-0.953,0.08199999999999999,-6.9327918,20.168121600000006,1.7761698000000001,87.54225282,1.5183387000000002,-47.58989147999999
1.5,150,-0.055,-0.946,0.066,-7.1046792000000005,20.7983754,1.145916,87.5193345,1.4610428999999998,-47.34924912
1.51,151,-0.032,-0.94,0.075,-6.4744254,20.5691922,-0.1718874,87.45630911999999,1.46677248,-47.14871382
1.52,152,-0.024,-0.935,0.079,-6.990087599999999,20.2827132,-1.2605076000000002,87.38755416000002,1.48396122,-46.948178520000006
1.53,153,-0.03,-0.9420000000000001,0.083,-6.417129599999999,20.6837838,-2.291832,87.32452878000002,1.50687954,-46.74191363999999
1.54,154,-0.047,-0.96,0.091,-5.6149884000000005,22.5745452,-2.9793816000000004,87.26723297999996,1.5412570200000002,-46.52418959999999
1.55,155,-0.067,-0.981,0.115,-4.3544808,25.4393352,-3.380452200000001,87.29588088,1.51260912,-46.22625144
1.56,156,-0.091,-1.006,0.14300000000000002,-2.3491277999999998,29.4500412,-3.4377480000000005,87.27869214,1.5527161800000002,-45.93404286
1.57,157,-0.11199999999999999,-1.034,0.17800000000000002,0.9167328000000001,33.6899304,-4.8701430000000006,87.29015129999998,1.6042824000000002,-45.60172722
1.58,158,-0.138,-1.05,0.21899999999999997,2.86479,38.3308902,-6.130650599999999,87.32452878000002,1.67303736,-45.22357494
1.59,159,-0.159,-1.0759999999999998,0.251,4.583664,44.8053156,-7.333862400000001,87.38182458,1.75898106,-44.78812686
1.6,160,-0.17,-1.105,0.267,4.6409598,49.560867,-8.193299399999999,87.49068659999998,1.7933585399999998,-44.2610055
1.61,161,-0.17600000000000002,-1.133,0.272,4.010706000000001,54.717489,-8.5370742,87.54225282,1.88503182,-43.72242498
1.62,162,-0.17800000000000002,-1.173,0.266,1.3750992,59.93140680000001,-8.479778399999999,87.56517113999998,1.9767051,-43.13227824
1.6300000000000001,163,-0.174,-1.234,0.217,-5.2139178,63.712929599999995,-8.5370742,87.52506408,2.07410796,-42.50775402
1.6400000000000001,164,-0.151,-1.317,0.068,-15.928232399999999,63.9994086,-8.021412000000002,87.37609499999998,2.16005166,-41.87750022
1.6500000000000001,165,-0.07400000000000001,-1.432,-0.11900000000000001,-27.788463,59.874111,-5.5003968,87.10680474,2.22307704,-41.29308306
1.6600000000000001,166,0.086,-1.538,-0.217,-32.2002396,54.6028974,-1.4896908000000002,86.79740741999998,2.25172494,-40.75450254
1.6700000000000002,167,0.281,-1.584,-0.19699999999999998,-25.0382646,47.8992888,2.1199446,86.55103548,2.24026578,-40.28467698
1.68,168,0.42200000000000004,-1.5519999999999998,-0.109,-18.7357266,39.19032720000001,2.4064236,86.37341849999999,2.22880662,-39.89506554
1.69,169,0.465,-1.444,-0.053,-16.7876694,22.1161788,1.8907614,86.20726068,2.21734746,-39.6773415
1.7,170,0.359,-1.272,-0.08,-17.0168526,11.0007936,0.11459160000000004,86.01245496,2.2746432600000004,-39.60285696
1.71,171,0.223,-1.136,-0.09300000000000001,-12.0894138,8.3651868,-2.86479,85.89213378,2.30329116,-39.52264284
1.72,172,0.10099999999999999,-1.097,-0.08,-5.7868758000000025,5.6149884000000005,-7.448453999999999,85.83483798,2.38350528,-39.47107662000001
1.73,173,-0.021,-1.08,-0.10400000000000001,-3.2085647999999996,9.9694692,-13.0061466,85.80619008000002,2.51528562,-39.37940334
1.74,174,-0.11699999999999999,-1.054,-0.109,0.40107059999999994,15.6417534,-17.761698000000006,85.81191966,2.69863218,-39.24189342
1.75,175,-0.174,-0.98,-0.153,0.11459160000000004,24.1215318,-22.7464326,85.82337881999999,2.87624916,-38.99552148
1.76,176,-0.184,-0.884,-0.19699999999999998,-0.572958,28.9916748,-25.78311,85.82337881999999,3.14553942,-38.72623122
1.77,177,-0.155,-0.8029999999999999,-0.21899999999999997,-2.6356068,30.194886600000004,-25.78311,85.81191966,3.4148296799999995,-38.4454818
1.78,178,-0.08900000000000001,-0.721,-0.266,-6.3025379999999975,31.6845774,-23.4339822,85.76035343999997,3.66120162,-38.14754364
1.79,179,0.013000000000000001,-0.653,-0.299,-8.4224826,33.6899304,-20.168121600000006,85.69159848,3.873196080000002,-37.82668716
1.8,180,0.12,-0.627,-0.298,-9.3392154,34.8358464,-17.6471064,85.57127729999998,4.102379279999999,-37.52301942
1.81,181,0.205,-0.638,-0.299,-10.1986524,33.6899304,-16.1001198,85.48533359999998,4.27999626,-37.20216294
1.82,182,0.225,-0.674,-0.289,-9.740286,30.595957199999997,-15.011499599999999,85.40511948000002,4.44615408,-36.91568394
1.83,183,0.223,-0.72,-0.26899999999999996,-8.4224826,26.5279554,-13.8082878,85.33636451999998,4.59512316,-36.66358242
1.84,184,0.174,-0.764,-0.24,-8.4224826,25.152856200000002,-11.2872726,85.26760956,4.72117392,-36.42294006
1.85,185,0.13699999999999998,-0.8079999999999999,-0.22899999999999998,-7.448453999999999,25.496631,-9.2819196,85.16447712,4.8586838399999985,-36.20521602
1.86,186,0.1,-0.8590000000000001,-0.20600000000000002,-6.130650599999999,25.55392680000001,-9.453807,85.11864048,4.96754586,-35.95884408
1.87,187,0.059000000000000004,-0.9,-0.19699999999999998,-7.2192707999999985,25.78311,-10.4278356,85.06134468,5.08786704,-35.71247214
1.8800000000000001,188,0.028999999999999998,-0.9420000000000001,-0.19899999999999998,-6.589017,26.069589,-12.318597,85.01550804,5.22537696,-35.46610020000001
1.8900000000000001,189,0.016,-0.981,-0.18899999999999997,-4.2398892,25.6112226,-14.32395,84.99258972,5.38007562,-35.22545784
1.9000000000000001,190,0.032,-1.0090000000000001,-0.18100000000000002,-2.5210152000000003,24.809081399999997,-16.042824000000003,84.96394182,5.54623344,-34.99627464
1.9100000000000001,191,0.07,-1.011,-0.174,0.4583664000000001,22.345361999999998,-17.0168526,84.98686014,5.72958,-34.79000976
1.9200000000000002,192,0.11800000000000001,-1.01,-0.162,2.4064236,19.308684600000007,-15.928232399999999,85.0269672,5.895737819999999,-34.60666320000001
1.93,193,0.165,-1.01,-0.152,3.7242269999999995,16.1001198,-13.2926256,85.07853342,6.03897732,-34.45769412
1.94,194,0.2,-1.016,-0.14300000000000002,4.4117766,13.120738199999998,-9.682990199999999,85.13582922,6.14210976,-34.33737294
1.95,195,0.225,-1.024,-0.129,4.4690724,10.026765,-6.4744254,85.13582922,6.31972674,-34.30299546
1.96,196,0.22899999999999998,-1.034,-0.10800000000000001,4.6982555999999995,6.9327918,-4.3544808,85.18739544,6.3655633799999976,-34.23424050000001
1.97,197,0.215,-1.0490000000000002,-0.09300000000000001,4.4690724,4.1825934,-3.4377480000000005,85.23896166,6.40567044,-34.19413344
1.98,198,0.179,-1.07,-0.076,4.010706000000001,1.8334656000000005,-3.6096353999999997,85.27906872,6.4400479200000005,-34.17694470000001
1.99,199,0.129,-1.075,-0.059000000000000004,2.8074942000000003,-0.11459160000000004,-4.4690724,85.30771662,6.48588456,-34.18267428
2.0,200,0.094,-1.074,-0.036000000000000004,2.3491277999999998,-1.0886202,-5.5003968,85.370742,6.48588456,-34.16548554000001
2.01,201,0.08,-1.067,-0.026000000000000002,-0.1718874,-0.6875496,-5.844171599999999,85.36501242,6.543180359999999,-34.17694470000001
2.02,202,0.075,-1.048,-0.021,-0.9740286,0.3437748,-5.6722842,85.35355326,6.60047616,-34.17694470000001
2.03,203,0.087,-1.023,-0.004,1.0313244000000001,0.7448454000000001,-6.4744254,85.36501242,6.66350154,-34.17694470000001
2.04,204,0.10400000000000001,-0.991,0.018000000000000002,0.0,0.8594370000000001,-6.3598338,85.36501242,6.72652692,-34.17121512000001
2.05,205,0.115,-0.961,0.018000000000000002,-3.6669312000000014,1.2605076000000002,-4.8701430000000006,85.37647158,6.76663398,-34.14256722
2.0599999999999996,206,0.135,-0.932,0.006999999999999999,-5.2712136,1.6615782,-3.7815228,85.32490535999997,6.80674104,-34.131108059999995
2.07,207,0.154,-0.9129999999999999,0.017,-4.8128472,0.9167328000000001,-2.6356068,85.27906872,6.829659359999999,-34.12537848
2.0799999999999996,208,0.162,-0.9079999999999999,0.03,-5.1566220000000005,-0.4583664000000001,-1.9480572,85.22177292,6.85257768,-34.131108059999995
2.09,209,0.16899999999999998,-0.909,0.031,-7.3911582,-2.0626488000000003,-1.5469866,85.14728838,6.86403684,-34.15402638
2.0999999999999996,210,0.172,-0.9009999999999999,0.036000000000000004,-9.1100322,-3.8388186,-1.145916,85.08426299999998,6.90987348,-34.19986302
2.11,211,0.17,-0.903,0.042,-11.172680999999999,-5.9014674000000005,-0.40107059999999994,84.96394182,6.90987348,-34.25715882
2.1199999999999997,212,0.162,-0.887,0.021,-14.7250206,-7.333862400000001,1.2605076000000002,84.80351358,6.89268474,-34.33164336
2.13,213,0.171,-0.868,0.013000000000000001,-15.9855282,-9.682990199999999,2.6929026,84.63162618,6.858307260000001,-34.429046220000004
2.1399999999999997,214,0.174,-0.86,0.013999999999999999,-15.5844576,-12.3758928,2.9793816000000004,84.45973878,6.8182002000000015,-34.5493674
2.15,215,0.18100000000000002,-0.8540000000000001,0.02,-14.266654199999998,-15.4125702,2.6929026,84.31076970000002,6.80674104,-34.70979564
2.1599999999999997,216,0.183,-0.843,0.046,-10.084060800000001,-18.9649098,2.0053530000000004,84.19044852,6.77236356,-34.89887178
2.17,217,0.17800000000000002,-0.825,0.08199999999999999,-4.4117766,-22.6891368,1.7761698000000001,84.12169356000003,6.7379860800000015,-35.122325399999994
2.1799999999999997,218,0.16899999999999998,-0.795,0.11900000000000001,1.7761698000000001,-25.668518399999996,2.86479,84.11023440000002,6.686419860000001,-35.37442692000001
2.19,219,0.156,-0.75,0.179,10.5424272,-28.533308399999996,4.8701430000000006,84.19044852,6.6176648999999985,-35.64944676000001
2.1999999999999997,220,0.142,-0.718,0.239,19.5378678,-31.627281600000003,7.333862400000001,84.39671340000002,6.52026204,-35.94165534
2.21,221,0.141,-0.706,0.271,26.9863218,-34.4347758,9.6256944,84.63735576,6.39994086,-36.2682414
2.2199999999999998,222,0.16,-0.7120000000000001,0.28,32.7159018,-36.955791,11.745639,84.93529392,6.26816052,-36.62347536
2.23,223,0.182,-0.742,0.263,36.38283300000001,-40.5654264,13.8082878,85.26760956,6.1077322800000005,-37.00735722
2.2399999999999998,224,0.201,-0.802,0.209,35.5806918,-44.977203,15.5844576,85.59419562000002,5.93584488,-37.442805299999996
2.25,225,0.213,-0.866,0.177,34.0337052,-49.2170922,16.959556799999998,85.9150521,5.7582279000000005,-37.91263086
2.26,226,0.23800000000000002,-0.972,0.11699999999999999,28.934378999999996,-52.48295279999999,16.673077799999998,86.16715362,5.574881339999999,-38.4168339
2.27,227,0.243,-1.11,-0.027000000000000003,18.334656,-53.39968560000001,15.469866,86.31039312,5.40299394,-38.93822568
2.28,228,0.221,-1.265,-0.127,6.0733548,-49.1597964,13.178034,86.33331144,5.25402486,-39.41378082
2.29,229,0.16,-1.429,-0.094,-2.7501984,-40.1643558,8.5370742,86.27601564,5.1566220000000005,-39.80912184
2.3,230,-0.001,-1.584,-0.067,-4.4690724,-35.9244666,1.5469866,86.2015311,5.11651494,-40.1643558
2.31,231,-0.124,-1.619,-0.057,0.0,-37.7006364,-4.4117766,86.17288319999999,5.14516284,-40.5367785
2.32,232,-0.141,-1.6,-0.08199999999999999,0.0,-35.695283399999994,-4.2398892,86.14996488,5.17381074,-40.89774204
2.3299999999999996,233,-0.051,-1.473,-0.172,0.2291832000000001,-33.518043,2.1199446,86.12704656,5.13943326,-41.23005768
2.34,234,0.064,-1.361,-0.252,5.2712136,-33.6326346,13.2353298,86.15569446,4.99619376,-41.55091416
2.3499999999999996,235,0.161,-1.276,-0.27899999999999997,10.313244000000001,-34.4920716,24.637194,86.21871984,4.7555514,-41.88895938
2.36,236,0.21100000000000002,-1.217,-0.24,14.7250206,-34.7212548,31.79916900000001,86.35050018,4.42896534,-42.20981586
2.3699999999999997,237,0.20600000000000002,-1.185,-0.215,16.615782,-35.17962120000001,32.7731976,86.49946926,4.09092012,-42.5421315
2.38,238,0.163,-1.135,-0.263,15.4125702,-35.7525792,29.163562199999998,86.63697918,3.79298196,-42.87444714
2.3899999999999997,239,0.114,-1.07,-0.294,13.636400400000001,-37.872523799999996,23.777757,86.75730036,3.54661002,-43.23541068
2.4,240,0.06,-0.9670000000000001,-0.3,11.172680999999999,-40.966497,20.454600600000006,86.81459616,3.3518043,-43.64794044
2.4099999999999997,241,0.026000000000000002,-0.8759999999999999,-0.28300000000000003,8.651665800000002,-42.398892,17.475219,86.88335112,3.16845774,-44.06047020000001
2.42,242,0.011000000000000001,-0.815,-0.254,6.0160589999999985,-40.6227222,13.2353298,86.92918776,3.02521824,-44.45581122
2.4299999999999997,243,-0.004,-0.8029999999999999,-0.21899999999999997,3.9534102,-36.03905820000001,8.7089616,86.95783566,2.93354496,-44.8053156
2.44,244,-0.042,-0.85,-0.209,0.5156622000000001,-30.8251404,5.6149884000000005,86.95210608,2.87051958,-45.10898334
2.4499999999999997,245,-0.10300000000000001,-0.93,-0.20199999999999999,-2.3491277999999998,-24.2934192,4.6982555999999995,86.88335112,2.76165756,-45.33816654
2.46,246,-0.163,-1.047,-0.191,-4.2398892,-17.475219,5.6722842,86.83751448000002,2.69863218,-45.51005394
2.4699999999999998,247,-0.184,-1.122,-0.193,-6.7609043999999985,-9.396511199999999,7.3911582,86.76302994,2.62414764,-45.59599764
2.48,248,-0.175,-1.16,-0.198,-6.875496000000001,-3.4950437999999995,9.1100322,86.69427498,2.53247436,-45.63037512
2.4899999999999998,249,-0.135,-1.157,-0.183,-5.2712136,0.40107059999999994,10.5424272,86.64270875999998,2.42361234,-45.61891596
2.5,250,-0.087,-1.138,-0.18,-3.7242269999999995,2.4064236,13.0634424,86.5739538,2.2746432600000004,-45.59026806
2.51,251,-0.027999999999999997,-1.103,-0.163,-1.9480572,2.9793816000000004,15.870936600000002,86.55676506,2.11421502,-45.550160999999996
2.52,252,0.01,-1.062,-0.158,-0.5156622000000001,2.5783110000000002,17.6471064,86.55103548,1.94232762,-45.51578352
2.53,253,0.034,-1.016,-0.128,0.9740286,1.145916,17.5325148,86.56249464,1.76471064,-45.4928652
2.54,254,0.047,-0.968,-0.08900000000000001,1.2032118,-0.057295800000000015,15.813640800000002,86.5739538,1.61001198,-45.48713562
2.55,255,0.048,-0.934,-0.078,-0.8021411999999999,-1.145916,12.1467096,86.52811716,1.5183387000000002,-45.51005394
2.56,256,0.026000000000000002,-0.9059999999999999,-0.076,-2.9220858,-1.7761698000000001,8.4224826,86.49946926,1.43812458,-45.52724268
2.57,257,-0.001,-0.887,-0.061,-4.010706000000001,-1.5469866,5.9014674000000005,86.4593622,1.3750992,-45.53870184
2.5799999999999996,258,-0.031,-0.8809999999999999,-0.032,-5.3285094000000015,-0.1718874,4.6409598,86.40206640000002,1.32926256,-45.53870184
2.59,259,-0.068,-0.8909999999999999,-0.013000000000000001,-7.5057497999999985,1.7188740000000002,4.6982555999999995,86.32758186,1.28342592,-45.51578352
2.5999999999999996,260,-0.106,-0.9079999999999999,-0.013999999999999999,-9.9694692,4.1825934,5.3285094000000015,86.27028606,1.1459160000000002,-45.4355694
2.61,261,-0.141,-0.917,-0.023,-11.3445684,7.3911582,5.9014674000000005,86.15569446,1.0886202,-45.36108486
2.6199999999999997,262,-0.159,-0.915,-0.006999999999999999,-11.2872726,10.886202,5.72958,86.04110286,1.03705398,-45.24649326
2.63,263,-0.153,-0.914,0.01,-11.0580894,15.813640800000002,4.8128472,85.92651126,0.9912173399999998,-45.0917946
2.6399999999999997,264,-0.125,-0.912,0.026000000000000002,-12.261301199999998,19.9962342,4.2398892,85.80619008000002,0.95683986,-44.8912593
2.65,265,-0.1,-0.902,0.036000000000000004,-10.4851314,23.835052800000003,3.380452200000001,85.73743512,0.8880849000000001,-44.62769862
2.6599999999999997,266,-0.09,-0.902,0.057,-10.084060800000001,26.929026,2.3491277999999998,85.63430267999998,0.87662574,-44.35840836
2.67,267,-0.079,-0.899,0.066,-11.0007936,29.67922440000001,1.5469866,85.52544065999999,0.87089616,-44.06619978
2.6799999999999997,268,-0.07,-0.892,0.066,-11.1153852,31.9710564,1.145916,85.41084906,0.87662574,-43.75107288
2.69,269,-0.048,-0.894,0.057999999999999996,-11.745639,33.74722620000001,1.0313244000000001,85.29052787999998,0.8823553199999999,-43.41875724000001
2.6999999999999997,270,-0.027999999999999997,-0.885,0.035,-13.980175199999998,34.091001,1.0313244000000001,85.17020670000002,0.87089616,-43.06925286
2.71,271,-0.025,-0.868,0.03,-16.1001198,34.8358464,0.7448454000000001,85.00977845999998,0.8823553199999999,-42.72547806
2.7199999999999998,272,-0.034,-0.872,0.031,-17.475219,36.096354,-0.572958,84.83216148,0.91100322,-42.3702441
2.73,273,-0.042,-0.887,0.037000000000000005,-18.3919518,38.0444112,-2.5210152000000003,84.64308534,0.95683986,-42.00355098
2.7399999999999998,274,-0.061,-0.907,0.022000000000000002,-18.2200644,40.4508348,-2.7501984,84.45973878,1.00840608,-41.60820996
2.75,275,-0.08800000000000001,-0.925,0.021,-15.813640800000002,43.831286999999996,-2.6929026,84.33368802,1.0313244000000001,-41.15557314
2.76,276,-0.099,-0.9229999999999999,0.08,-10.1986524,48.071176200000004,-2.6929026,84.23055558,1.0886202,-40.68574758
2.77,277,-0.106,-0.909,0.16,-4.9274388,52.48295279999999,-2.86479,84.18471894,1.1573751600000002,-40.17008538
2.78,278,-0.105,-0.878,0.225,-0.286479,56.837433600000004,-2.6356068,84.18471894,1.22613012,-39.61431612
2.79,279,-0.09300000000000001,-0.878,0.25,5.5003968,62.6243094,-1.8907614,84.24201474,1.2891555,-38.99552148
2.8,280,-0.08199999999999999,-0.89,0.262,10.657018800000001,65.603691,-1.5469866,84.41390214,1.30634424,-38.31943104
2.81,281,-0.061,-0.899,0.284,12.891555,68.35388940000001,-1.3750992,84.55141205999998,1.36936962,-37.64907018
2.82,282,-0.052000000000000005,-0.902,0.264,13.750992000000002,70.5311298,-1.6042823999999998,84.70038114,1.432395,-36.95006142
2.8299999999999996,283,-0.057,-0.945,0.222,12.834259199999998,71.7343416,-2.1772404,84.83789106,1.50114996,-36.24532308
2.84,284,-0.07,-1.0290000000000001,0.152,8.078707799999998,72.82296179999999,-2.2345362,84.92956434,1.56990492,-35.52339600000001
2.8499999999999996,285,-0.063,-1.18,-0.053,-2.5210152000000003,72.9948492,-1.7188740000000002,84.91237559999998,1.62147114,-34.8071985
2.86,286,0.002,-1.421,-0.285,-14.9542038,67.3798608,1.2605076000000002,84.7691361,1.65011904,-34.14256722
2.8699999999999997,287,0.11699999999999999,-1.5930000000000002,-0.266,-18.2200644,55.40503860000001,5.042030400000002,84.59151912,1.6329303,-33.592527540000006
2.88,288,0.24100000000000002,-1.662,-0.141,-12.318597,50.8786704,4.6982555999999995,84.47119794,1.62147114,-33.08832450000001
2.8899999999999997,289,0.28,-1.617,-0.14800000000000002,-8.9381448,50.706783,0.057295800000000015,84.39098382,1.6558486199999998,-32.58412146
2.9,290,0.225,-1.469,-0.235,-6.703608600000001,43.9458786,-5.5003968,84.31649927999999,1.75325148,-32.16586212
2.9099999999999997,291,0.183,-1.349,-0.311,-3.8388186,37.299565799999996,-10.943497800000001,84.28785138,1.8907614,-31.81062816
2.92,292,0.151,-1.2919999999999998,-0.33299999999999996,-2.5210152000000003,33.6326346,-16.386598799999998,84.26493306,2.07410796,-31.48977168
2.9299999999999997,293,0.11900000000000001,-1.2570000000000001,-0.337,-1.9480572,31.22621100000001,-20.912967000000002,84.25347389999997,2.30329116,-31.20329268
2.94,294,0.081,-1.199,-0.361,-1.4896908000000002,28.762491600000004,-23.9496444,84.24201474,2.5611222600000003,-30.94546158
2.9499999999999997,295,0.07,-1.125,-0.369,-0.6302538000000001,25.668518399999996,-24.694489800000003,84.20763725999998,2.84187168,-30.727737540000003
2.96,296,0.065,-1.043,-0.39,-2.4637194,21.371333399999997,-23.2620948,84.18471894,3.08824362,-30.5386614
2.9699999999999998,297,0.092,-0.9590000000000001,-0.405,-3.7242269999999995,17.7044022,-20.5118964,84.15607104,3.30023808,-30.38396274
2.98,298,0.145,-0.904,-0.391,-3.2085647999999996,15.068795399999999,-17.18874,84.12742313999998,3.48358464,-30.252182399999995
2.9899999999999998,299,0.18600000000000005,-0.8640000000000001,-0.369,-2.1199446,12.032118,-13.8082878,84.11023440000002,3.62682414,-30.14904996
3.0,300,0.19399999999999998,-0.8390000000000001,-0.34700000000000003,-0.9167328000000001,7.734933000000002,-11.2299768,83.94407658,3.9190327200000006,-30.18342744
3.01,301,0.185,-0.821,-0.332,0.572958,2.5783110000000002,-8.8235532,83.94980616,4.00497642,-30.1662387
3.02,302,0.172,-0.815,-0.295,1.0886202,-1.5469866,-6.589017,83.95553574,4.0680017999999984,-30.18915702
3.03,303,0.136,-0.833,-0.255,0.5156622000000001,-6.0160589999999985,-5.9014674000000005,83.96126532,4.1252976000000015,-30.25791198
3.04,304,0.10400000000000001,-0.865,-0.222,0.572958,-8.651665800000002,-8.021412000000002,83.96126532,4.19978214,-30.34958526
3.05,305,0.1,-0.92,-0.18,-1.5469866,-9.6256944,-11.0580894,83.89823994000002,4.3315624800000005,-30.481365600000004
3.06,306,0.09300000000000001,-0.9570000000000001,-0.175,-3.5523396000000003,-9.3392154,-14.32395,83.85240329999998,4.46334282,-30.58449804
3.07,307,0.095,-0.98,-0.168,-4.0680017999999984,-8.136003599999999,-16.959556799999998,83.80656666,4.62377106,-30.68763048000001
3.08,308,0.08199999999999999,-0.96,-0.16699999999999998,-3.4950437999999995,-6.703608600000001,-18.277360199999997,83.76073002,4.80138804,-30.773574180000004
3.09,309,0.077,-0.9329999999999999,-0.162,-1.7188740000000002,-5.2139178,-18.162768600000003,83.73781170000002,4.97900502,-30.84232914
3.0999999999999996,310,0.066,-0.912,-0.146,0.4583664000000001,-4.1252976000000015,-17.0168526,83.71489338,5.14516284,-30.9110841
3.11,311,0.062,-0.904,-0.134,2.5210152000000003,-3.7815228,-14.610429000000002,83.73781170000002,5.2826727600000005,-30.96265032
3.1199999999999997,312,0.057999999999999996,-0.909,-0.11800000000000001,3.6096353999999997,-4.1825934,-11.3445684,83.76645959999998,5.3972643599999985,-31.01421654
3.13,313,0.061,-0.91,-0.096,4.4117766,-4.6409598,-7.7922288,83.80656666,5.466019319999999,-31.07151234
3.1399999999999997,314,0.069,-0.91,-0.076,5.042030400000002,-5.6149884000000005,-5.2139178,83.85240329999998,5.51758554,-31.12880814
3.15,315,0.086,-0.904,-0.07,4.8128472,-6.3025379999999975,-3.8388186,83.89823994000002,5.5576926,-31.197563100000004
3.1599999999999997,316,0.11,-0.889,-0.07,4.6982555999999995,-7.3911582,-3.8961144,83.938347,5.59207008,-31.27777722
3.17,317,0.132,-0.8740000000000001,-0.057,5.3858052,-9.167328,-5.042030400000002,83.98418364,5.63217714,-31.37518008
3.1799999999999997,318,0.152,-0.861,-0.054000000000000006,5.958763200000001,-11.45916,-6.9327918,84.03574986,5.6952025200000005,-31.49550126
3.19,319,0.155,-0.855,-0.047,6.7609043999999985,-14.610429000000002,-8.4224826,84.09304566,5.76968706,-31.64447034
3.1999999999999997,320,0.152,-0.855,-0.03,7.6776372,-17.246035799999998,-9.167328,84.16180062,5.86708992,-31.83354648000001
3.21,321,0.14800000000000002,-0.865,-0.013000000000000001,8.307891,-19.2513888,-9.396511199999999,84.22482600000002,5.9473040400000015,-32.03408178
3.2199999999999998,322,0.135,-0.8809999999999999,-0.006,8.3651868,-20.7983754,-9.0527364,84.28785138,6.02178858,-32.24607624
3.23,323,0.126,-0.8959999999999999,0.005,7.448453999999999,-21.772404,-8.3651868,84.34514718,6.09054354,-32.46952986
3.2399999999999998,324,0.11699999999999999,-0.904,0.003,7.6203414,-21.600516600000002,-7.6776372,84.40244298,6.15356892,-32.69298348
3.25,325,0.106,-0.915,0.019,8.3651868,-21.657812399999997,-7.6776372,84.48838668,6.210864720000001,-32.90497794
3.26,326,0.095,-0.924,0.022000000000000002,6.3598338,-21.886995600000002,-7.3911582,84.53422332,6.26816052,-33.12843156
3.27,327,0.085,-0.925,0.021,5.0993262,-21.600516600000002,-6.6463128000000005,84.56287122,6.31972674,-33.3461556
3.28,328,0.076,-0.922,0.018000000000000002,3.2658606,-21.371333399999997,-5.6149884000000005,84.57433037999998,6.3655633799999976,-33.56387964
3.29,329,0.07,-0.909,0.001,0.9167328000000001,-21.0848544,-4.297185,84.56287122,6.39421128,-33.7758741
3.3,330,0.07400000000000001,-0.892,-0.022000000000000002,0.5156622000000001,-20.5118964,-3.4950437999999995,84.56287122,6.39994086,-33.9764094
3.31,331,0.073,-0.871,-0.02,3.4377480000000005,-20.7410796,-3.0939732,84.58005996,6.417129600000001,-34.18267428
3.32,332,0.07400000000000001,-0.843,-0.005,8.8235532,-21.886995600000002,-2.8074942000000003,84.64881491999998,6.428588760000001,-34.40039832
3.33,333,0.071,-0.802,0.035,18.048177,-24.064236,-2.291832,84.80924316,6.4400479200000005,-34.64104068
3.34,334,0.066,-0.741,0.121,30.65325300000001,-26.1268848,-1.7761698000000001,85.09572216000002,6.4457775,-34.89887178
3.3499999999999996,335,0.07200000000000001,-0.69,0.244,48.0138804,-29.335449600000004,-1.3178034,85.58846604,6.43431834,-35.17389162
3.36,336,0.095,-0.679,0.311,57.696870600000004,-30.8251404,-0.286479,86.1442353,6.428588760000001,-35.47182978
3.3699999999999997,337,0.133,-0.691,0.29100000000000004,61.8221682,-29.67922440000001,1.432395,86.7458412,6.40567044,-35.75830878
3.38,338,0.171,-0.727,0.22899999999999998,61.994055599999996,-28.0176462,3.6096353999999997,87.3474471,6.37129296,-36.02759904
3.3899999999999997,339,0.19399999999999998,-0.784,0.171,59.0719698,-28.1895336,5.844171599999999,87.92040510000002,6.31399716,-36.30261888
3.4,340,0.204,-0.856,0.11599999999999999,53.22779820000001,-29.621928600000004,8.250595200000001,88.44179688,6.25097178,-36.58909788
3.4099999999999997,341,0.183,-0.925,0.083,46.409597999999995,-32.544014399999995,10.3705398,88.88297453999998,6.15356892,-36.90995436
3.42,342,0.136,-1.028,0.054000000000000006,38.67466500000001,-36.669312,12.834259199999998,89.24393807999998,6.0332477399999975,-37.26518832
3.4299999999999997,343,0.055,-1.101,0.011000000000000001,26.1841806,-39.9351726,13.3499214,89.47312128,5.90719698,-37.66052934
3.44,344,0.011000000000000001,-1.146,0.031,24.5798982,-41.4821592,9.1100322,89.68511574,5.8269828599999975,-38.06732952
3.4499999999999997,345,0.023,-1.2009999999999998,0.102,30.022999199999997,-44.748019799999994,0.5156622000000001,89.96586515999998,5.82125328,-38.5027776
3.46,346,0.08199999999999999,-1.265,0.099,31.111619399999995,-45.4355694,-8.7662574,90.24088499999999,5.92438572,-38.94968484
3.4699999999999998,347,0.156,-1.264,-0.012,30.252182399999995,-43.258328999999996,-14.896907999999998,90.51017526,6.09054354,-39.37367376
3.48,348,0.21,-1.199,-0.11,35.0077338,-40.8519054,-15.928232399999999,90.82530216,6.26816052,-39.77474436
3.4899999999999998,349,0.20600000000000002,-1.122,-0.166,39.9924684,-40.2216516,-11.688343199999998,91.19199528,6.40567044,-40.17008538
3.5,350,0.109,-1.016,-0.213,37.4714532,-41.0810886,-5.0993262,91.49566302,6.48588456,-40.58261514
3.51,351,-0.027999999999999997,-0.9179999999999999,-0.261,27.501984000000004,-42.398892,-2.9793816000000004,91.73630538,6.543180359999999,-41.00087448
3.52,352,-0.155,-0.866,-0.304,19.767051000000002,-43.65939960000001,-7.3911582,91.89100404,6.640583220000001,-41.43059298
3.53,353,-0.217,-0.8140000000000001,-0.29,15.6417534,-42.112413000000004,-15.6990492,92.00559564,6.82392978,-41.84312274
3.54,354,-0.20199999999999999,-0.8029999999999999,-0.209,13.636400400000001,-35.52339600000001,-24.809081399999997,92.10872808,7.098949620000001,-42.18116796
3.55,355,-0.126,-0.818,-0.146,10.2559482,-24.9809688,-33.6326346,92.17175346,7.41407652,-42.41035116
3.56,356,-0.043,-0.878,-0.133,6.703608600000001,-13.636400400000001,-40.2789474,92.22331968,7.82660628,-42.53067234
3.57,357,0.036000000000000004,-0.986,-0.154,2.6356068,-2.6356068,-42.34159620000001,92.246238,8.24486562,-42.5421315
3.58,358,0.092,-1.156,-0.185,-3.0366774,7.3911582,-38.159002799999996,92.22904926,8.623017899999999,-42.45045822
3.59,359,0.08900000000000001,-1.315,-0.20800000000000002,-6.7609043999999985,16.042824000000003,-29.67922440000001,92.18321262,8.90376732,-42.27857082
3.5999999999999996,360,0.057,-1.432,-0.214,-9.682990199999999,19.595163600000006,-21.142150199999996,92.1029985,9.09284346,-42.07803552
3.61,361,0.005,-1.464,-0.201,-7.6776372,23.5485738,-13.407217200000002,92.06289144000002,9.21316464,-41.83739316
3.6199999999999997,362,-0.028999999999999998,-1.4169999999999998,-0.122,-0.9740286,28.9916748,-7.5057497999999985,92.09153934,9.27046044,-41.54518458
3.63,363,-0.047,-1.308,-0.052000000000000005,5.844171599999999,35.52339600000001,-2.9220858,92.20613094,9.27619002,-41.18422104
3.6399999999999997,364,-0.044000000000000004,-1.1520000000000001,-0.027000000000000003,12.3758928,40.04976420000001,0.9740286,92.3894775,9.24181254,-40.78315044
3.65,365,-0.008,-0.997,0.01,19.5378678,41.0237928,4.9274388,92.65303818,9.13295052,-40.3648911
3.6599999999999997,366,0.059000000000000004,-0.855,0.109,27.6165756,38.5027776,9.740286,92.9910834,9.00689976,-39.98100924
3.67,367,0.128,-0.7909999999999999,0.183,31.627281600000003,31.51269000000001,13.9228794,93.35777652,8.84647152,-39.67161192
3.6799999999999997,368,0.19899999999999998,-0.765,0.19899999999999998,34.0337052,23.4339822,14.381245800000002,93.7359288,8.68604328,-39.44242872
3.69,369,0.298,-0.779,0.21100000000000002,39.1330314,14.8396122,11.6310474,94.15418814,8.55999252,-39.29918922
3.6999999999999997,370,0.369,-0.8109999999999999,0.225,42.456187799999995,5.2139178,7.3911582,94.60109538,8.554262940000001,-39.26481174
3.71,371,0.39399999999999996,-0.84,0.243,43.1437374,-5.1566220000000005,2.9793816000000004,95.03081388,8.53134462,-39.31064838
3.7199999999999998,372,0.34600000000000003,-0.833,0.223,42.5707794,-14.7823164,-1.0886202,95.44334364,8.565722099999999,-39.45388788
3.73,373,0.255,-0.787,0.204,42.5707794,-21.772404,-4.2398892,95.85014382,8.634477059999998,-39.66015276
3.7399999999999998,374,0.09699999999999999,-0.72,0.243,45.83664,-25.3247436,-6.990087599999999,96.27986232,8.74333908,-39.89506554
3.75,375,-0.057999999999999996,-0.691,0.256,45.2063862,-25.3247436,-10.1413566,96.73822872,8.83501236,-40.10706
3.76,376,-0.165,-0.6629999999999999,0.24100000000000002,45.0917946,-20.912967000000002,-12.9488508,97.16794722,8.9954406,-40.29040656
3.77,377,-0.198,-0.643,0.255,48.414951,-14.1520626,-14.667724800000002,97.64350236,9.167328,-40.40499816
3.78,378,-0.172,-0.634,0.319,52.6548402,-10.886202,-15.469866,98.17062372,9.3392154,-40.48521228
3.79,379,-0.107,-0.637,0.34600000000000003,53.0559108,-10.4278356,-15.756345,98.69774508,9.51683238,-40.55969682
3.8,380,-0.008,-0.636,0.384,53.571573,-9.6256944,-16.673077799999998,99.27643266,9.67153104,-40.594074299999996
3.81,381,0.094,-0.6779999999999999,0.413,53.858052,-10.599723,-17.8762896,99.8092836,9.87206634,-40.66282926
3.82,382,0.17800000000000002,-0.743,0.369,52.139178,-16.615782,-17.303331600000003,100.31921622,10.07833122,-40.78888002
3.83,383,0.18,-0.8,0.324,52.2537696,-32.085648000000006,-12.7196676,100.80623052,10.27313694,-41.06962944
3.84,384,0.18899999999999997,-0.807,0.28300000000000003,54.6601932,-44.977203,-6.589017,101.28751524,10.43356518,-41.49361836
3.8499999999999996,385,0.20199999999999999,-0.757,0.255,56.72284200000001,-57.123912600000004,-1.7188740000000002,101.77452954000002,10.58826384,-42.03792846
3.86,386,0.18600000000000005,-0.6990000000000001,0.19,58.0406454,-65.2599162,0.286479,102.25581426,10.7429625,-42.67391184
3.8699999999999997,387,0.19699999999999998,-0.627,0.146,60.67625219999999,-66.3485364,-1.7761698000000001,102.7600173,10.92057948,-43.30989522
3.88,388,0.198,-0.612,0.092,64.28588760000001,-66.3485364,-8.5370742,103.3043274,11.172680999999999,-43.92296028
3.8899999999999997,389,0.172,-0.642,0.006999999999999999,65.89017,-67.2079734,-14.667724800000002,103.86009666,11.49353748,-44.53602534
3.9,390,0.052000000000000005,-0.6409999999999999,0.025,71.2759752,-64.9161414,-17.589810600000003,104.47316172,11.831582699999998,-45.11471292
3.9099999999999997,391,-0.08199999999999999,-0.584,0.091,76.20341400000002,-51.9099948,-19.308684600000007,105.16071132,12.16389834,-45.55589058
3.92,392,-0.171,-0.524,0.106,79.0109082,-35.0650296,-19.9962342,105.91128629999999,12.4618365,-45.82518084
3.9299999999999997,393,-0.195,-0.505,0.06,74.65642740000001,-15.6990492,-17.589810600000003,106.65040212,12.67956054,-45.91685412
3.94,394,-0.226,-0.442,-0.039,72.0208206,-0.3437748,-15.870936600000002,107.38951794,12.834259200000002,-45.86528790000001
3.9499999999999997,395,-0.28800000000000003,-0.414,-0.075,86.05829159999998,11.917526400000002,-17.6471064,108.30052116000002,12.925932479999995,-45.67048218
3.96,396,-0.32899999999999996,-0.47700000000000004,-0.003,96.543423,16.673077799999998,-20.3973048,109.33184556,13.0634424,-45.42983982
3.9699999999999998,397,-0.248,-0.527,-0.015,90.1262934,22.4599536,-22.2307704,110.31160374,13.19522274,-45.12617208
3.98,398,-0.10800000000000001,-0.534,-0.18,67.1506776,31.1689152,-18.334656,111.07363788,13.246788959999998,-44.75947896
3.9899999999999998,399,0.136,-0.583,-0.379,23.7204612,29.67922440000001,-5.958763200000001,111.38303520000002,13.18949316,-44.45581122
4.0,400,0.5329999999999999,-0.883,-0.701,-29.163562199999998,25.55392680000001,6.1879464,111.09082662,13.0634424,-44.26673508
4.01,401,0.97,-1.6669999999999998,-1.4669999999999999,-144.9010782,-3.0366774,33.8618178,109.58394708,12.7483155,-44.43862248000001
4.02,402,1.359,-2.1319999999999997,-3.02,-272.728008,-98.0331138,73.052145,106.57018799999999,12.3758928,-45.64183428
4.03,403,2.908,-2.166,-2.408,-60.2178858,-103.41891899999999,68.58307260000001,105.72221016,12.02065884,-46.83931650000001
4.04,404,2.231,-2.335,1.042,267.1703154,-73.052145,32.2002396,108.28333242,11.95763346,-47.60135064
4.05,405,0.515,-1.781,0.705,61.7075766,-95.970465,13.636400400000001,108.72451008,12.15816876,-48.54673134
4.06,406,-0.013000000000000001,-1.178,0.695,48.5868384,-101.9292282,-43.029145799999995,109.05682571999998,12.920202899999998,-49.36606128
4.07,407,-0.24600000000000002,-1.1520000000000001,0.605,82.62054359999998,-90.1262934,-74.02617359999998,109.76729364,13.93433856,-49.95620802
4.08,408,-0.358,-1.053,0.35100000000000003,58.49901179999999,-83.65186800000002,-46.466893799999994,110.21993046,14.67345438,-50.57500266
4.09,409,-0.312,-0.807,0.354,51.7954032,-90.240885,-24.923673,110.55797568,15.240682800000002,-51.33703680000001
4.1,410,-0.314,-0.877,0.42200000000000004,40.8519054,-81.2454444,-16.902261,110.82153635999998,15.6417534,-52.00739766
4.109999999999999,411,-0.214,-0.8490000000000001,0.265,2.8074942000000003,-64.8015498,-15.928232399999999,110.70694475999998,16.031364840000002,-52.56316691999999
4.12,412,0.038,-0.602,0.081,-19.079501399999998,-54.8893764,-22.91832,110.39754744,16.44962418,-53.00434458
4.13,413,0.27899999999999997,-0.442,0.005,-15.4125702,-50.1911208,-30.137590799999998,110.13971634,16.91372016,-53.37676728
4.14,414,0.461,-0.315,0.016,-10.084060800000001,-46.3523022,-33.116972399999995,109.94491062,17.3892753,-53.70908292
4.1499999999999995,415,0.5589999999999999,-0.19399999999999998,0.128,3.7242269999999995,-47.1544434,-35.3515086,109.88761482,17.94504456,-54.05285772
4.16,416,0.606,-0.27399999999999997,0.20199999999999999,13.0634424,-54.20182679999999,-34.60666320000001,109.89907398,18.46643634,-54.44819874
4.17,417,0.5870000000000001,-0.436,0.172,18.048177,-61.4210976,-29.621928600000004,109.93345146,18.9649098,-54.94094262
4.18,418,0.485,-0.638,0.142,25.496631,-68.41118519999999,-22.91832,110.01366558,19.42900578,-55.5196302
4.1899999999999995,419,0.321,-0.8009999999999999,0.08199999999999999,28.877083199999998,-71.79163740000001,-19.308684600000007,110.10533886,19.87018344,-56.14415441999999
4.2,420,0.19699999999999998,-0.785,0.132,29.4500412,-72.65107440000001,-19.194093,110.18555298,20.30563152,-56.78586738
4.21,421,-0.027000000000000003,-0.7490000000000001,0.02,16.272007199999994,-69.041439,-20.5691922,110.14544592,20.75253876,-57.3817437
4.22,422,-0.247,-0.606,-0.259,-0.572958,-51.9099948,-16.558486199999994,109.98501768,21.09631356,-57.83438052
4.2299999999999995,423,-0.337,-0.462,-0.12300000000000001,18.277360199999997,-29.335449600000004,-10.026765,110.08815012,21.29684886,-58.08075246000001
4.24,424,-0.29600000000000004,-0.409,0.146,30.4240698,-21.772404,-12.605075999999999,110.34025164,21.49738416,-58.24691028
4.25,425,-0.16,-0.33799999999999997,0.20600000000000002,32.945085,-22.2880662,-21.199446,110.64391938,21.74948568,-58.36150188000001
4.26,426,-0.052000000000000005,-0.3670000000000001,0.114,34.5493674,-23.4339822,-31.2835068,110.95904628,22.12763796,-58.4703639
4.27,427,0.019,-0.479,0.02,43.65939960000001,-19.136797199999997,-42.2270046,111.39449436,22.59173394,-58.48755264
4.28,428,0.055,-0.7190000000000001,0.040999999999999995,67.2079734,-11.745639,-47.7274014,112.11069186,23.08447782,-58.40160894
4.29,429,0.023,-0.981,0.179,86.63124959999998,-7.7922288,-48.071176200000004,113.0446134,23.55430338,-58.26409902
4.3,430,-0.09,-1.084,0.29,92.3035338,-7.448453999999999,-42.685371,114.03583073999998,23.93818524,-58.12085952
4.31,431,-0.223,-0.907,0.317,85.82910840000002,-5.0993262,-30.595957199999997,114.95256354,24.236123400000004,-58.02345666
4.32,432,-0.26899999999999996,-0.7020000000000001,0.21899999999999997,85.25615040000002,0.8594370000000001,-23.14750320000001,115.86929633999998,24.44238828,-57.89167632
4.33,433,-0.247,-0.552,0.193,89.20956059999996,7.6203414,-21.027558600000006,116.8547841,24.59708694,-57.70260018000001
4.34,434,-0.166,-0.441,0.196,91.7305758,13.464512999999998,-22.7464326,117.89183808,24.734596860000003,-57.44476908
4.35,435,-0.064,-0.41100000000000003,0.187,96.7726062,18.048177,-25.152856200000002,119.00337659999998,24.84918846,-57.11818301999999
4.36,436,0.028999999999999998,-0.47100000000000003,0.21899999999999997,106.1691174,23.605869600000002,-27.903054600000004,120.24096588,24.96950964,-56.73430116
4.37,437,0.092,-0.5660000000000001,0.341,117.2272068,30.595957199999997,-32.257535399999995,121.63325382,25.08410124000001,-56.24728686
4.38,438,0.11800000000000001,-0.669,0.495,128.1707046,38.2162986,-37.4714532,123.17451084,25.1815041,-55.6628697
4.39,439,0.085,-0.871,0.555,138.4839486,42.91455420000001,-41.76863820000001,124.85900736,25.27890696,-55.00396800000001
4.3999999999999995,440,-0.011000000000000001,-1.188,0.5760000000000001,148.5680094,45.893935799999994,-39.5913978,126.64663632,25.30755486,-54.32214798
4.41,441,-0.027999999999999997,-1.45,0.69,154.81325159999997,52.0818822,-30.4813656,128.49156108,25.22161116,-53.65178712000001
4.42,442,-0.083,-1.777,0.748,155.7872802,59.4157446,-15.183387000000002,130.33075626,24.952320900000004,-53.03299248
4.43,443,-0.002,-1.8330000000000002,0.7290000000000001,146.3334732,69.21332640000001,6.417129599999999,132.02671193999998,24.4366587,-52.50587112
4.4399999999999995,444,0.171,-1.584,0.499,133.2700308,71.44786260000002,17.303331600000003,133.55078022,23.81213448,-52.05896388
4.45,445,0.218,-1.3659999999999999,0.42100000000000004,145.64592359999997,68.6403684,24.522602399999997,135.13787387999997,23.153232780000003,-51.72091866
4.46,446,0.369,-1.169,0.27399999999999997,150.687954,63.770225399999994,25.210151999999997,136.77080417999997,22.51151982,-51.43443966
4.47,447,0.599,-0.914,0.39299999999999996,164.66812919999995,57.696870600000004,22.7464326,138.52978524,21.92137308,-51.18806772
4.4799999999999995,448,0.943,-0.78,0.532,171.3717378,53.11320660000001,23.9496444,140.32887336000002,21.34841508,-51.00472116
4.49,449,1.3230000000000002,-0.792,0.626,176.64295140000004,43.602103799999995,29.392745399999995,142.13942064,20.82129372,-50.94169578
4.5,450,1.827,-0.445,0.7440000000000001,152.2349406,23.777757,17.18874,143.68640724,20.52908514,-50.92450704
4.51,451,3.034,-0.624,1.004,233.8814556,20.7410796,-26.69984280000001,146.19596328,20.50043724,-50.5348956
4.52,452,1.3519999999999999,0.466,3.6719999999999997,424.7910612,149.4274464,-71.1613836,150.99162174,19.54932696,-49.06239354
4.53,453,0.44,-0.7959999999999999,2.9219999999999997,243.7363332,20.05353,-12.834259199999998,153.54128483999997,19.4232762,-48.8160216
4.54,454,0.504,-1.043,2.9189999999999996,109.9506402,-76.1461182,15.813640800000002,154.51531344,20.03061168,-49.28011758000001
4.55,455,1.138,-1.219,3.3489999999999998,185.29461719999998,-47.211739200000004,-30.252182399999995,156.44045232,20.5691922,-49.1597964
4.56,456,1.439,-0.853,3.775,236.6889498,-18.9649098,-45.893935799999994,158.99011542,20.90150784,-48.74726663999999
4.57,457,1.249,-0.594,3.6210000000000004,232.67824380000002,0.11459160000000004,-51.68081160000001,161.5455081,21.05047692,-48.20295654
4.58,458,1.252,-0.353,3.0469999999999997,199.1602008,-3.380452200000001,-66.176649,163.81442178,21.2567418,-47.51540694
4.59,459,0.7240000000000001,-0.114,2.427,174.8667816,-2.0626488000000003,-66.23394479999999,165.8426931,21.43435878,-46.81639818
4.6,460,0.45299999999999996,-0.038,1.848,146.4480648,-0.8021411999999999,-62.2805346,167.57875584,21.56040954,-46.14603732
4.61,461,0.27899999999999997,-0.068,1.247,134.931609,1.3178034,-65.603691,169.20595656,21.66354198,-45.44702856
4.62,462,0.29600000000000004,-0.429,1.062,142.49465460000005,12.032118,-84.7404882,170.99358552,21.67500114,-44.51883660000001
4.63,463,0.35700000000000004,-0.6779999999999999,0.778,127.59774660000001,32.085648000000006,-123.9308154,172.78121448,21.5145729,-43.15519656
4.64,464,0.68,-0.787,0.69,134.87431320000002,50.993262,-120.55036319999999,174.63186882,21.12496146,-41.82020442
4.6499999999999995,465,0.578,-0.5660000000000001,0.7759999999999999,162.4908888,62.6243094,-95.7985776,176.63722182,20.58065136,-40.76596170000001
4.66,466,0.369,-0.7190000000000001,0.784,175.611627,58.9000824,-79.4119788,178.71132977999997,20.00769336,-39.90652470000001
4.67,467,0.07,-1.271,0.899,170.2258218,71.21867940000001,-29.5646328,-179.46190475999995,19.28576628,-39.5913978
4.68,468,0.07200000000000001,-0.48700000000000004,0.28300000000000003,240.355881,52.712136,-61.5356892,-176.82629795999995,18.71280828,-38.961144
4.6899999999999995,469,0.309,-0.594,0.17600000000000002,291.57832620000005,21.485925,-96.37153559999999,-173.5489782,18.38622222,-37.9584675
4.7,470,0.616,-0.293,0.38299999999999995,299.7716256,17.9908812,-62.2805346,-170.33468381999995,18.11120238,-37.33967286
4.71,471,0.648,-1.133,1.031,158.995845,65.66098679999999,51.68081160000001,-168.93093672,17.55543312,-38.00430414
4.72,472,0.142,0.541,-0.124,60.7908438,52.712136,10.2559482,-168.3923562,17.056959659999997,-38.22775776
4.7299999999999995,473,0.578,0.063,0.309,37.7006364,56.78013780000001,20.454600600000006,-168.11160678000005,16.54702704,-38.57153256
4.74,474,0.364,0.16399999999999998,0.057,11.0580894,70.5884256,53.858052,-168.20900964,15.97979862,-39.28200048
4.75,475,0.40399999999999997,0.256,0.37,24.0069402,55.290447,16.501190400000002,-168.0485814,15.51570264,-39.5913978
4.76,476,0.13699999999999998,0.828,0.275,27.100913399999996,53.571573,15.068795399999999,-167.85377567999996,15.028688340000002,-39.87214722
4.77,477,0.081,0.49,0.633,3.2085647999999996,41.9978214,0.11459160000000004,-167.85377567999996,14.62761774,-39.97527966
4.78,478,-0.09300000000000001,0.401,0.818,-40.7946096,44.748019799999994,-10.4278356,-168.27203502,14.180710500000002,-39.98100924
4.79,479,-0.078,0.526,0.797,-66.2912406,55.2331512,-18.048177,-168.94239588,13.61921166,-39.92944302
4.8,480,0.046,0.429,1.016,-65.4318036,62.2805346,-9.167328,-169.58983842,12.977498700000002,-39.95236134
4.81,481,0.08800000000000001,0.331,1.186,-68.8122558,69.8435802,9.167328,-170.35187256,12.330056160000002,-40.18727412
4.82,482,0.10800000000000001,0.304,1.294,-84.11023440000002,77.635809,18.9649098,-171.28579409999998,11.613858660000002,-40.53104892
4.83,483,0.08900000000000001,0.473,1.325,-87.7198698,89.03767320000001,24.2934192,-172.26555228,10.79452872,-40.93211952
4.84,484,0.187,0.254,1.453,-86.51665799999998,99.7519878,26.9863218,-173.2338513,9.86633676,-41.36183802
4.85,485,0.312,0.135,1.5530000000000002,-87.54798240000002,98.548776,29.621928600000004,-174.21360948,8.949603960000003,-41.80301568
4.86,486,0.308,0.23600000000000002,1.473,-91.4440968,96.6007188,42.05511720000001,-175.23347472,8.0500599,-42.34732578
4.87,487,0.377,0.313,1.396,-101.2989744,76.31800559999998,40.90920120000001,-176.33928366,7.34532156,-42.84006966
4.88,488,0.397,0.27699999999999997,1.325,-109.3776822,52.3683612,36.898495200000006,-177.50811798,6.858307260000001,-43.258329
4.89,489,0.223,0.3720000000000001,1.2209999999999999,-111.0965562,32.658606,32.8877892,-178.67695229999995,6.560369099999999,-43.61929254
4.8999999999999995,490,0.009000000000000001,0.583,1.043,-106.5128922,11.1153852,10.7716104,-179.72546544,6.4400479200000005,-43.71096582
4.91,491,0.004,0.42100000000000004,1.112,-86.8604328,0.9167328000000001,-7.6203414,179.3931498,6.4400479200000005,-43.64221086
4.92,492,-0.168,0.526,0.9309999999999999,-87.31879920000002,-6.1879464,-6.8182002000000015,178.51652406,6.51453246,-43.58491506
4.93,493,-0.247,0.552,0.872,-65.66098679999999,-5.3285094000000015,-4.6982555999999995,177.85762236,6.57755784,-43.53907842
4.9399999999999995,494,-0.29600000000000004,0.414,0.887,-44.06047020000001,-3.1512689999999997,3.4377480000000005,177.40498554,6.611935319999999,-43.57918548
4.95,495,-0.243,0.20800000000000002,0.895,-27.3873924,0.8021411999999999,8.5370742,177.2445573,6.40567044,-43.56772632000001
4.96,496,-0.114,0.065,0.9359999999999999,-12.1467096,2.2345362,5.6722842,177.11277696,6.382752120000001,-43.62502212
4.97,497,-0.006,0.0,0.948,-4.1252976000000015,3.4950437999999995,6.130650599999999,177.06694032,6.348374640000001,-43.6880475
4.9799999999999995,498,0.076,-0.06,0.9520000000000001,0.6875496,4.583664,8.193299399999999,177.06121074,6.29680842,-43.76826162
4.99,499,0.11699999999999999,-0.113,0.961,4.1252976000000015,5.042030400000002,9.682990199999999,177.09558822,6.2452422000000025,-43.8599349
5.0,500,0.14,-0.14300000000000002,0.963,5.72958,4.9274388,10.1413566,177.06121074,6.2452422000000025,-44.0031744
5.01,501,0.14800000000000002,-0.14400000000000002,0.9640000000000001,6.4744254,4.6409598,9.568398599999998,177.11277696,6.19367598,-44.10057726
5.02,502,0.132,-0.115,0.977,6.2452422,3.3231564,7.333862400000001,177.17007275999995,6.1592985,-44.16933222
5.03,503,0.107,-0.071,1.008,3.5523396000000003,0.8594370000000001,5.9014674000000005,177.19872066,6.147839339999999,-44.22662802000001
5.04,504,0.09699999999999999,-0.051,1.033,0.1718874,-1.4896908000000002,4.8701430000000006,177.19872066,6.1592985,-44.27819424
5.05,505,0.098,-0.054000000000000006,1.056,-2.5210152000000003,-3.0366774,3.7815228,177.15861360000005,6.17648724,-44.318301299999995
5.06,506,0.092,-0.068,1.073,-4.5263682,-3.9534102,3.2085647999999996,177.10704738,6.2165943,-44.35267878
5.07,507,0.095,-0.071,1.08,-5.7868758000000025,-4.9847346,3.1512689999999997,177.04975158,6.26243094,-44.38132668
5.08,508,0.094,-0.07,1.0859999999999999,-6.8182002000000015,-6.130650599999999,3.8388186,176.97526704,6.3254563200000025,-44.42143374000001
5.09,509,0.10300000000000001,-0.052000000000000005,1.083,-6.6463128000000005,-6.9327918,5.042030400000002,176.9007825,6.3884817000000025,-44.47872954
5.1,510,0.092,-0.06,1.084,-6.417129599999999,-6.4744254,6.6463128000000005,176.82056838,6.4400479200000005,-44.547484499999996
5.11,511,0.092,-0.057,1.072,-6.1879464,-5.2712136,7.6776372,176.75181342000005,6.49161414,-44.62196904
5.12,512,0.087,-0.053,1.056,-4.9274388,-4.1252976000000015,8.4224826,176.68878804000005,6.525991620000001,-44.71364232000001
5.13,513,0.043,-0.057999999999999996,1.048,-4.1825934,-2.4637194,9.167328,176.63722182,6.54890994,-44.8053156
5.14,514,0.159,-0.013000000000000001,1.0090000000000001,0.286479,-2.9220858,8.880849000000003,176.63149224,6.5718282599999975,-44.8912593
5.1499999999999995,515,0.2,-0.114,1.002,1.8907614,-4.4690724,9.568398599999998,176.55127812,6.7036086,-45.04595796
5.16,516,0.133,-0.111,0.991,4.297185,-4.8128472,10.7143146,176.5856556,6.743715660000001,-45.15481998
5.17,517,0.12,-0.115,0.976,6.7609043999999985,-6.1879464,9.9121734,176.6429514,6.8010114600000025,-45.25222284
5.18,518,0.11,-0.106,0.968,8.136003599999999,-8.307891,9.396511199999999,176.71743594,6.875496000000001,-45.3496257
5.1899999999999995,519,0.11,-0.07,0.948,8.7662574,-10.886202,9.740286,176.79765006,6.97862844,-45.44702856
5.2,520,0.135,-0.07,0.941,9.1100322,-12.891555,10.4851314,176.86067544,7.116138359999999,-45.56734974
5.21,521,0.141,-0.08199999999999999,0.9440000000000001,7.1046792000000005,-14.7823164,9.1100322,176.92370082,7.259377859999999,-45.6647526
5.22,522,0.133,-0.09300000000000001,0.945,4.2398892,-15.183387000000002,7.734933000000002,176.9580783,7.402617360000002,-45.74496672
5.2299999999999995,523,0.11599999999999999,-0.094,0.955,1.7761698000000001,-14.667724800000002,6.5317212,176.96953746,7.545856859999999,-45.81372168
5.24,524,0.11199999999999999,-0.08900000000000001,0.966,-0.6302538000000001,-13.750992000000002,4.8128472,176.9580783,7.677637200000001,-45.86528790000001
5.25,525,0.12,-0.092,0.985,-3.1512689999999997,-12.261301199999998,3.6669312000000014,176.89505291999996,7.80368796,-45.91685412
5.26,526,0.129,-0.086,0.9990000000000001,-6.130650599999999,-10.943497800000001,3.0939732,176.82629795999995,7.906820399999999,-45.9512316
5.27,527,0.135,-0.077,1.0070000000000001,-9.224623800000002,-9.740286,2.9220858,176.7288951,8.00422326,-45.98560908
5.28,528,0.134,-0.069,1.011,-10.943497800000001,-8.479778399999999,2.86479,176.6143035,8.09016696,-46.014256980000006
5.29,529,0.139,-0.073,1.013,-11.8602306,-7.2192707999999985,2.7501984,176.49398232,8.158921920000001,-46.04863446
5.3,530,0.138,-0.071,1.013,-11.8602306,-5.9014674000000005,2.5210152000000003,176.36220197999995,8.21621772,-46.07728236
5.31,531,0.13699999999999998,-0.077,1.0090000000000001,-11.1153852,-4.583664,2.291832,176.24188080000005,8.262054359999999,-46.10593026
5.32,532,0.134,-0.08,1.0070000000000001,-9.9694692,-3.5523396000000003,1.9480572,176.13874836,8.29643184,-46.12884858
5.33,533,0.128,-0.086,1.004,-8.59437,-2.4637194,1.6042823999999998,176.05280466,8.325079740000001,-46.14603732
5.34,534,0.12300000000000001,-0.08199999999999999,1.0,-6.990087599999999,-2.2345362,1.4896908000000002,175.97832011999995,8.34226848,-46.16322606
5.35,535,0.124,-0.085,0.995,-5.6722842,-2.5783110000000002,1.432395,175.89237642,8.34799806,-46.18041480000001
5.36,536,0.128,-0.08800000000000001,0.992,-4.6409598,-2.9793816000000004,1.432395,175.84653978,8.376645960000001,-46.19760354
5.37,537,0.128,-0.086,0.997,-3.7815228,-3.3231564,1.3750992,175.80643272,8.41102344,-46.21479228000001
5.38,538,0.12,-0.08,1.0,-3.7242269999999995,-3.4377480000000005,1.2032118,175.76632566,8.44540092,-46.22625144
5.39,539,0.13699999999999998,-0.08,0.997,-3.8961144,-3.8961144,0.9740286,175.72048902,8.48550798,-46.2377106
5.3999999999999995,540,0.149,-0.09300000000000001,0.995,-4.010706000000001,-4.6982555999999995,1.2605076000000002,175.65746364,8.5370742,-46.2663585
5.41,541,0.14300000000000002,-0.081,0.998,-3.9534102,-5.2139178,1.3750992,175.611627,8.58864042,-46.28354724
5.42,542,0.131,-0.07400000000000001,1.0170000000000001,-3.9534102,-5.443101,1.2605076000000002,175.57151994,8.640206639999999,-46.30073598
5.43,543,0.131,-0.068,1.055,-3.8961144,-5.6722842,0.9740286,175.53141288,8.69750244,-46.31219514
5.4399999999999995,544,0.141,-0.068,1.089,-4.6982555999999995,-6.0733548,0.9740286,175.47984666,8.75479824,-46.323654299999994
5.45,545,0.138,-0.085,1.09,-7.333862400000001,-6.875496000000001,1.0886202,175.40536212,8.81209404,-46.33511346
5.46,546,0.135,-0.099,1.061,-11.2299768,-8.307891,1.0886202,175.29077052,8.89230816,-46.352302200000004
5.47,547,0.138,-0.10800000000000001,1.048,-13.2926256,-9.6256944,0.8594370000000001,175.15326059999995,8.98971102,-46.36949094
5.4799999999999995,548,0.13,-0.11800000000000001,1.03,-13.178034,-10.886202,0.7448454000000001,175.01575068,9.098573040000002,-46.38667968
5.49,549,0.131,-0.12,0.99,-13.407217200000002,-10.828906199999999,0.9167328000000001,174.87824075999995,9.20743506,-46.40386842
5.5,550,0.139,-0.11900000000000001,0.968,-13.0061466,-8.479778399999999,1.2032118,174.73500126,9.2819196,-46.42105716
5.51,551,0.14400000000000002,-0.106,0.9790000000000001,-11.5164558,-5.1566220000000005,1.3178034,174.61468008,9.32775624,-46.43824590000001
5.52,552,0.146,-0.106,0.988,-7.8495246,-3.4377480000000005,1.432395,174.52873638,9.36213372,-46.45543464000001
5.53,553,0.139,-0.124,0.9890000000000001,-6.9327918,-2.9793816000000004,1.432395,174.45998142000005,9.39078162,-46.47835296
5.54,554,0.141,-0.122,0.9940000000000001,-5.1566220000000005,-3.3231564,1.5469866,174.40268562,9.4251591,-46.4955417
5.55,555,0.14,-0.122,0.99,-2.5210152000000003,-4.3544808,1.6042823999999998,174.34538981999995,9.44234784,-46.51846002
5.56,556,0.152,-0.08900000000000001,0.995,-0.057295800000000015,-5.5003968,2.4064236,174.33966024,9.49391406,-46.54710792
5.57,557,0.166,-0.086,0.997,1.145916,-4.9274388,1.3750992,174.35111940000004,9.539750699999999,-46.56429666
5.58,558,0.172,-0.048,0.991,1.145916,-2.4637194,1.4896908000000002,174.36257856,9.568398599999998,-46.58148540000001
5.59,559,0.174,-0.038,0.99,1.5469866,0.6875496,1.5469866,174.37403772,9.55693944,-46.59867414
5.6,560,0.18100000000000002,-0.039,0.996,2.0626488000000003,3.1512689999999997,1.145916,174.47717016,9.53402112,-46.57575582
5.61,561,0.172,-0.054000000000000006,1.002,3.3231564,5.3858052,0.4583664000000001,174.50581806,9.4824549,-46.57575582
5.62,562,0.16899999999999998,-0.068,1.0090000000000001,4.6409598,7.448453999999999,0.057295800000000015,174.55738428,9.407970359999998,-46.57575582
5.63,563,0.17,-0.08199999999999999,1.013,5.3858052,8.9954406,-0.057295800000000015,174.60895050000005,9.31629708,-46.56429666
5.64,564,0.16,-0.09699999999999999,1.004,5.6149884000000005,9.9121734,0.0,174.66624629999995,9.21889422,-46.55856708
5.6499999999999995,565,0.159,-0.092,1.004,5.5003968,10.7143146,0.11459160000000004,174.71781252,9.11576178,-46.5528375
5.66,566,0.158,-0.085,1.006,4.297185,12.318597,0.3437748,174.76364916,8.9954406,-46.5528375
5.67,567,0.15,-0.08,1.001,2.1772404,14.4958374,0.4583664000000001,174.78656748,8.84647152,-46.54710792
5.68,568,0.145,-0.078,0.993,-0.11459160000000004,15.4125702,0.7448454000000001,174.7808379,8.69750244,-46.54137834
5.6899999999999995,569,0.136,-0.076,0.982,-1.432395,14.896907999999998,1.5469866,174.76364916,8.54853336,-46.5528375
5.7,570,0.127,-0.083,0.9790000000000001,-0.8021411999999999,13.178034,2.4637194,174.75218999999996,8.39956428,-46.55856708
5.71,571,0.122,-0.08199999999999999,0.976,0.11459160000000004,10.7143146,3.7242269999999995,174.75218999999996,8.29070226,-46.59294456
5.72,572,0.11900000000000001,-0.081,0.9790000000000001,0.5156622000000001,9.1100322,5.2712136,174.74646042,8.193299399999999,-46.6387812
5.7299999999999995,573,0.126,-0.09699999999999999,0.992,-2.6356068,9.3392154,6.703608600000001,174.71208294,8.09589654,-46.70180658
5.74,574,0.134,-0.102,1.0490000000000002,-9.167328,16.4438946,6.417129599999999,174.60895050000005,7.929738719999999,-46.753372799999994
5.75,575,0.114,-0.125,1.0270000000000001,-19.595163600000006,34.7785506,3.8961144,174.39695604,7.58023434,-46.77056154
5.76,576,0.08,-0.14800000000000002,0.997,-25.668518399999996,45.4928652,0.8594370000000001,174.13339535999995,7.1333271000000025,-46.753372799999994
5.77,577,0.040999999999999995,-0.177,0.978,-19.308684600000007,43.48751220000001,1.0313244000000001,173.93286006,6.7036086,-46.73045448000001
5.78,578,0.078,-0.13,0.867,-15.126091199999998,40.5081306,0.286479,173.77816140000004,6.30826758,-46.70180658
5.79,579,0.151,-0.09300000000000001,0.875,-16.7876694,41.825934000000004,-1.4896908000000002,173.60627399999996,5.895737819999999,-46.65596994000001
5.8,580,0.124,-0.11599999999999999,1.031,-15.4125702,46.466893799999994,-1.7188740000000002,173.44011618,5.43737142,-46.59867414
5.81,581,0.027000000000000003,-0.205,1.193,-5.6149884000000005,47.1544434,-1.3750992,173.38282038,4.97900502,-46.54710792
5.82,582,0.06,-0.12300000000000001,1.236,17.6471064,35.17962120000001,-0.572958,173.56043736,4.629500640000002,-46.50700086000001
5.83,583,0.107,-0.092,1.225,31.22621100000001,13.5791046,0.2291832000000001,173.87556426,4.49199072,-46.4955417
5.84,584,0.095,-0.067,1.18,30.5386614,-1.9480572,3.5523396000000003,174.18496158,4.50344988,-46.52991918
5.85,585,0.084,-0.065,1.1540000000000001,24.064236,-10.828906199999999,8.136003599999999,174.43133352,4.6008527400000006,-46.61586288
5.86,586,0.096,-0.065,1.082,19.079501399999998,-12.4331886,11.8602306,174.61468008,4.70971476,-46.73618406
5.87,587,0.08199999999999999,-0.073,1.028,18.6784308,-11.2299768,12.0894138,174.79802664,4.80711762,-46.86223482000001
5.88,588,0.064,-0.106,0.97,17.246035799999998,-7.2192707999999985,8.59437,174.96991404,4.8701430000000006,-46.9539081
5.89,589,0.052000000000000005,-0.136,0.909,13.120738199999998,-2.6356068,3.8961144,175.09596480000005,4.893061319999998,-46.99401516
5.8999999999999995,590,0.052000000000000005,-0.152,0.877,9.224623800000002,1.6042823999999998,-0.057295800000000015,175.13607186,4.87587258,-47.00547432000001
5.91,591,0.061,-0.133,0.865,4.9274388,4.0680017999999984,-2.0626488000000003,175.18763808,4.83576552,-46.982556
5.92,592,0.052000000000000005,-0.111,0.873,1.3178034,4.3544808,-2.6356068,175.20482682,4.79565846,-46.9539081
5.93,593,0.051,-0.11199999999999999,0.879,-1.3178034,5.0993262,-2.8074942000000003,175.19336766,4.749821819999998,-46.91953062
5.9399999999999995,594,0.046,-0.105,0.885,-2.5783110000000002,5.958763200000001,-2.9220858,175.17044934,4.69252602,-46.89088271999999
5.95,595,0.045,-0.10300000000000001,0.888,-2.4637194,6.589017,-2.86479,175.1246127,4.612311900000001,-46.85650524
5.96,596,0.044000000000000004,-0.096,0.902,-2.1772404,6.6463128000000005,-2.6356068,175.10169438,4.549286520000001,-46.82785734
5.97,597,0.049,-0.096,0.9229999999999999,-2.4064236,6.3598338,-2.2345362,175.07877606,4.49199072,-46.80493902
5.9799999999999995,598,0.052000000000000005,-0.09300000000000001,0.95,-2.6929026,5.7868758000000025,-1.6615782,175.05585774000005,4.43469492,-46.78202069999999
5.99,599,0.053,-0.08900000000000001,0.987,-3.380452200000001,4.7555514,-1.0886202,175.02148026,4.38885828,-46.77056154
6.0,600,0.054000000000000006,-0.081,1.022,-4.010706000000001,2.6929026,-0.572958,174.99283236000005,4.31437374,-46.74764322
6.01,601,0.052000000000000005,-0.085,1.057,-4.6409598,0.2291832000000001,-0.11459160000000004,174.94699572,4.31437374,-46.74764322
6.02,602,0.06,-0.109,1.0759999999999998,-6.3598338,-1.4896908000000002,0.3437748,174.88397034,4.3315624800000005,-46.74764322
6.03,603,0.067,-0.109,1.075,-8.193299399999999,-3.0939732,0.6875496,174.79802664,4.36021038,-46.75910238
6.04,604,0.069,-0.111,1.074,-10.084060800000001,-3.2085647999999996,0.5156622000000001,174.6948942,4.39458786,-46.77056154
6.05,605,0.061,-0.095,1.0759999999999998,-11.5737516,-0.3437748,-0.3437748,174.59176176,4.3831287,-46.75910238
6.06,606,0.061,-0.10300000000000001,1.078,-11.9748222,6.417129599999999,-2.6356068,174.465711,4.3201033199999985,-46.73045448000001
6.07,607,0.049,-0.111,1.074,-10.4278356,17.131444199999994,-5.5003968,174.36257856,4.15967508,-46.66169952
6.08,608,0.03,-0.106,1.067,-7.0473834,25.84040580000001,-7.8495246,174.29382360000002,3.91330314,-46.57002624
6.09,609,0.027999999999999997,-0.109,1.058,-3.6096353999999997,32.372127,-9.1100322,174.25944612,3.60390582,-46.45543464000001
6.1,610,0.031,-0.102,1.062,0.5156622000000001,35.2942128,-8.8235532,174.27090528000005,3.25440144,-46.34084304
6.11,611,0.049,-0.094,1.079,4.9274388,34.60666320000001,-7.0473834,174.3224715,2.9220857999999996,-46.24344018
6.12,612,0.07200000000000001,-0.081,1.089,9.0527364,31.741873200000004,-5.1566220000000005,174.41414478,2.61268848,-46.16895564
6.13,613,0.07400000000000001,-0.086,1.06,11.745639,25.0955604,-3.7815228,174.52873638,2.36631654,-46.11738942
6.14,614,0.064,-0.094,1.028,11.2299768,14.7250206,-2.5783110000000002,174.64332798,2.22307704,-46.07728236
6.15,615,0.055999999999999994,-0.11,0.992,8.880849000000003,5.2139178,-2.1199446,174.70062378,2.19442914,-46.065823200000004
6.16,616,0.040999999999999995,-0.11199999999999999,0.9640000000000001,7.161975,1.5469866,-2.1199446,174.76937874,2.18296998,-46.04290488
6.17,617,0.035,-0.10400000000000001,0.953,6.1879464,0.572958,-2.3491277999999998,174.8381337,2.1772404,-46.01998656
6.18,618,0.031,-0.094,0.953,4.9847346,1.6615782,-2.9220858,174.88969992,2.16005166,-45.99133866
6.1899999999999995,619,0.031,-0.087,0.961,3.2085647999999996,4.297185,-3.5523396000000003,174.92407740000004,2.1199446,-45.9512316
6.2,620,0.031,-0.085,0.97,1.0886202,7.2192707999999985,-4.2398892,174.92980698,2.05118964,-45.90539496
6.21,621,0.031,-0.084,0.983,-1.432395,10.084060800000001,-4.8701430000000006,174.91834782,1.9595163600000003,-45.84809916
6.22,622,0.028999999999999998,-0.086,0.991,-4.1252976000000015,12.5477802,-5.1566220000000005,174.87251118,1.83919518,-45.79080336
6.2299999999999995,623,0.024,-0.091,0.996,-6.990087599999999,14.7250206,-5.3285094000000015,174.80375622,1.6959556799999995,-45.72777798
6.24,624,0.012,-0.099,0.997,-8.59437,15.756345,-5.1566220000000005,174.71208294,1.5469866,-45.67048218
6.25,625,0.015,-0.096,1.0070000000000001,-9.167328,16.042824000000003,-4.8701430000000006,174.62040966,1.39228794,-45.61318638
6.26,626,0.012,-0.106,1.0170000000000001,-8.7662574,15.756345,-4.4690724,174.52873638,1.24331886,-45.55589058
6.27,627,-0.006999999999999999,-0.098,1.0290000000000001,-7.9641161999999985,14.438541599999999,-4.010706000000001,174.44852226,1.10580894,-45.51005394
6.28,628,-0.011000000000000001,-0.10300000000000001,1.037,-7.2765666,12.7196676,-3.5523396000000003,174.37403772,0.98548776,-45.4642173
6.29,629,-0.009000000000000001,-0.10300000000000001,1.047,-6.5317212,10.657018800000001,-3.2085647999999996,174.30528276,0.8823553199999999,-45.42411024
6.3,630,-0.013000000000000001,-0.105,1.047,-5.9014674000000005,8.7662574,-2.6929026,174.24225738,0.7792228800000001,-45.38973276
6.31,631,-0.018000000000000002,-0.10800000000000001,1.046,-5.2712136,6.589017,-2.3491277999999998,174.19069116,0.7161975,-45.36108486
6.32,632,-0.017,-0.113,1.0390000000000001,-5.5003968,4.6409598,-1.8334656000000005,174.13339535999995,0.6703608600000001,-45.33816654
6.33,633,-0.018000000000000002,-0.11699999999999999,1.028,-5.5003968,2.5210152000000003,-0.9740286,174.07609956000005,0.64744254,-45.32670738
6.34,634,-0.016,-0.11800000000000001,1.014,-5.0993262,0.0,0.1718874,174.02453334,0.64744254,-45.33243696
6.35,635,-0.016,-0.122,1.001,-4.1252976000000015,-3.0939732,1.3178034,173.95577838,0.64744254,-45.34389612
6.36,636,-0.017,-0.122,0.995,-2.6356068,-5.6149884000000005,2.3491277999999998,173.92713048000005,0.69900876,-45.37254402
6.37,637,-0.015,-0.121,0.996,-0.8021411999999999,-7.2192707999999985,2.7501984,173.91567132,0.76776372,-45.4069215
6.38,638,-0.011000000000000001,-0.11699999999999999,1.0,1.0886202,-7.6776372,2.4064236,173.93286006,0.8422482600000001,-45.4355694
6.39,639,-0.008,-0.114,1.004,3.0366774,-7.2192707999999985,1.9480572,173.96150796,0.91100322,-45.45848772
6.4,640,-0.004,-0.113,1.0070000000000001,4.4690724,-6.1879464,1.3750992,173.99588544,0.95683986,-45.47567646
6.41,641,0.0,-0.113,1.008,5.3285094000000015,-4.9847346,1.0313244000000001,174.05318124,1.0026765,-45.4928652
6.42,642,0.001,-0.11199999999999999,1.004,5.72958,-4.010706000000001,0.9167328000000001,174.11047704,1.04278356,-45.50432436
6.43,643,0.002,-0.11,1.0,5.5576926,-3.4950437999999995,0.9167328000000001,174.16777284,1.07716104,-45.51578352
6.4399999999999995,644,0.003,-0.10800000000000001,0.996,5.1566220000000005,-3.1512689999999997,0.9740286,174.21933905999995,1.10580894,-45.52724268
6.45,645,0.006,-0.105,0.997,4.6982555999999995,-3.0366774,1.0313244000000001,174.25944612,1.1172681,-45.53870184
6.46,646,0.006999999999999999,-0.10400000000000001,0.995,4.010706000000001,-3.0939732,0.9167328000000001,174.29955318,1.15164558,-45.550160999999996
6.47,647,0.009000000000000001,-0.106,0.9990000000000001,2.8074942000000003,-3.1512689999999997,0.8594370000000001,174.32820108,1.18029348,-45.55589058
6.4799999999999995,648,0.01,-0.102,1.004,1.9480572,-3.3231564,0.6875496,174.35111940000004,1.20894138,-45.56734974
6.49,649,0.011000000000000001,-0.10400000000000001,1.0070000000000001,0.8594370000000001,-3.3231564,0.5156622000000001,174.35684898,1.24331886,-45.57307932
6.5,650,0.011000000000000001,-0.105,1.01,-0.057295800000000015,-3.2658606,0.40107059999999994,174.3224715,1.25477802,-45.584538480000006
6.51,651,0.013000000000000001,-0.106,1.013,-0.8594370000000001,-3.2085647999999996,0.286479,174.31101234,1.28342592,-45.59026806
6.52,652,0.013000000000000001,-0.106,1.015,-1.5469866,-2.9793816000000004,0.1718874,174.29955318,1.31207382,-45.59599764
6.53,653,0.015,-0.106,1.0170000000000001,-2.1772404,-2.86479,0.11459160000000004,174.27663486,1.34072172,-45.59599764
6.54,654,0.017,-0.106,1.0170000000000001,-2.5210152000000003,-2.86479,0.057295800000000015,174.24798696,1.36936962,-45.60172722
6.55,655,0.019,-0.106,1.0170000000000001,-2.86479,-2.86479,0.0,174.20215032000004,1.39801752,-45.607456799999994
6.56,656,0.02,-0.106,1.016,-2.86479,-2.8074942000000003,0.0,174.17350242,1.42666542,-45.607456799999994
6.57,657,0.02,-0.107,1.0170000000000001,-2.5210152000000003,-2.8074942000000003,0.0,174.14485452,1.45531332,-45.61318638
6.58,658,0.02,-0.106,1.0190000000000001,-1.8907614,-2.7501984,0.0,174.12766577999997,1.48396122,-45.61318638
6.59,659,0.02,-0.106,1.021,-1.0313244000000001,-2.8074942000000003,0.057295800000000015,174.11620662,1.51260912,-45.61891596
6.6,660,0.02,-0.106,1.022,-0.057295800000000015,-2.7501984,0.11459160000000004,174.08755872,1.52406828,-45.62464554
6.61,661,0.019,-0.106,1.025,0.7448454000000001,-2.6356068,0.11459160000000004,174.09901788,1.5527161800000002,-45.62464554
6.62,662,0.02,-0.106,1.026,1.5469866,-2.1199446,0.057295800000000015,174.11620662,1.56990492,-45.63037512
6.63,663,0.019,-0.107,1.0270000000000001,2.0053530000000004,-1.3178034,0.057295800000000015,174.13339535999995,1.5813640800000002,-45.63037512
6.64,664,0.019,-0.106,1.026,2.1199446,-0.286479,-0.057295800000000015,174.15631367999995,1.5870936600000003,-45.63037512
6.65,665,0.018000000000000002,-0.106,1.023,2.1199446,0.7448454000000001,-0.11459160000000004,174.14485452,1.55844576,-45.63037512
6.66,666,0.017,-0.105,1.0190000000000001,1.8907614,1.8334656000000005,-0.2291832000000001,174.16777284,1.5412570200000002,-45.62464554
6.67,667,0.016,-0.105,1.016,1.3750992,2.86479,-0.4583664000000001,174.179232,1.51260912,-45.61891596
6.68,668,0.015,-0.10400000000000001,1.013,0.8594370000000001,3.7242269999999995,-0.5156622000000001,174.19069116,1.4782316400000002,-45.607456799999994
6.6899999999999995,669,0.013000000000000001,-0.10400000000000001,1.008,0.286479,4.4117766,-0.572958,174.19069116,1.432395,-45.60172722
6.7,670,0.013000000000000001,-0.10400000000000001,1.006,-0.3437748,4.7555514,-0.6302538000000001,174.16777284,1.3750992,-45.59026806
6.71,671,0.011000000000000001,-0.105,1.005,-0.9167328000000001,4.9274388,-0.572958,174.16204326,1.32353298,-45.5788089
6.72,672,0.01,-0.105,1.003,-1.432395,4.9847346,-0.572958,174.14485452,1.27769634,-45.57307932
6.7299999999999995,673,0.009000000000000001,-0.105,1.0,-1.7761698000000001,4.7555514,-0.572958,174.12766577999997,1.2318597,-45.56162016
6.74,674,0.006999999999999999,-0.10800000000000001,1.0,-2.0626488000000003,4.5263682,-0.5156622000000001,174.10474746,1.18602306,-45.55589058
6.75,675,0.006,-0.10800000000000001,1.003,-2.2345362,4.0680017999999984,-0.5156622000000001,174.06464039999997,1.12872726,-45.54443142
6.76,676,0.006,-0.10800000000000001,1.005,-2.2345362,3.4377480000000005,-0.4583664000000001,174.04172208,1.09434978,-45.53870184
6.77,677,0.004,-0.10800000000000001,1.0090000000000001,-2.2345362,2.9793816000000004,-0.40107059999999994,174.01880376,1.06570188,-45.53297226
6.78,678,0.003,-0.109,1.011,-2.0626488000000003,2.5210152000000003,-0.40107059999999994,174.00161502,1.04278356,-45.52724268
6.79,679,0.004,-0.109,1.013,-1.7761698000000001,2.0626488000000003,-0.286479,173.9786967,1.0255948199999998,-45.52151310000001
6.8,680,0.003,-0.109,1.015,-1.3750992,1.6615782,-0.286479,173.93858964,0.96829902,-45.51005394
6.81,681,0.002,-0.109,1.018,-0.9167328000000001,1.2032118,-0.286479,173.92713048000005,0.95683986,-45.51005394
6.82,682,0.001,-0.109,1.02,-0.6875496,1.0313244000000001,-0.286479,173.9214009,0.9453807,-45.50432436
6.83,683,0.001,-0.11,1.022,-0.286479,0.7448454000000001,-0.286479,173.91567132,0.93965112,-45.49859478
6.84,684,0.001,-0.11,1.023,0.057295800000000015,0.4583664000000001,-0.2291832000000001,173.91567132,0.93392154,-45.49859478
6.85,685,0.001,-0.11,1.02,0.4583664000000001,0.2291832000000001,-0.2291832000000001,173.8641051,0.83651868,-45.48140604
6.86,686,0.001,-0.11,1.018,0.7448454000000001,0.3437748,-0.1718874,173.86983468,0.8307891,-45.48140604
6.87,687,0.001,-0.11,1.015,0.9740286,0.3437748,-0.2291832000000001,173.88129383999996,0.8307891,-45.47567646
6.88,688,0.002,-0.11,1.013,0.9167328000000001,0.5156622000000001,-0.1718874,173.89275300000003,0.8250595199999999,-45.47567646
6.89,689,0.002,-0.111,1.013,0.6875496,0.40107059999999994,-0.1718874,173.89848258,0.8193299399999999,-45.47567646
6.9,690,0.001,-0.11,1.013,0.3437748,0.2291832000000001,-0.11459160000000004,173.79535013999995,0.68182002,-45.45848772
6.91,691,0.002,-0.109,1.011,0.11459160000000004,-0.2291832000000001,0.0,173.79535013999995,0.68182002,-45.45848772
6.92,692,0.002,-0.109,1.0090000000000001,0.0,-0.3437748,0.0,173.79535013999995,0.6875496,-45.45848772
6.93,693,0.003,-0.10800000000000001,1.0070000000000001,0.0,-0.4583664000000001,0.057295800000000015,173.79535013999995,0.69327918,-45.45848772
6.9399999999999995,694,0.003,-0.10800000000000001,1.004,-0.11459160000000004,-0.572958,0.11459160000000004,173.79535013999995,0.69900876,-45.4642173
6.95,695,0.005,-0.107,1.005,-0.057295800000000015,-0.8021411999999999,0.1718874,173.75524308,0.66463128,-45.4642173
6.96,696,0.004,-0.10800000000000001,1.006,-0.2291832000000001,-0.9167328000000001,0.2291832000000001,173.75524308,0.67609044,-45.4642173
6.97,697,0.004,-0.10800000000000001,1.006,-0.3437748,-1.2032118,0.1718874,173.74951349999995,0.6875496,-45.46994688
6.9799999999999995,698,0.004,-0.10800000000000001,1.0070000000000001,-0.4583664000000001,-1.432395,0.2291832000000001,173.74378392,0.70473834,-45.47567646
6.99,699,0.005,-0.10800000000000001,1.0090000000000001,-0.286479,-1.6615782,0.2291832000000001,173.74378392,0.7161975,-45.47567646
7.0,700,0.005,-0.10800000000000001,1.01,-0.11459160000000004,-1.9480572,0.3437748,173.72659518,0.72192708,-45.48140604
7.01,701,0.006,-0.109,1.014,0.0,-2.0626488000000003,0.3437748,173.72659518,0.7391158200000001,-45.48713562
7.02,702,0.006999999999999999,-0.109,1.018,0.057295800000000015,-2.1199446,0.3437748,173.72659518,0.76203414,-45.4928652
7.03,703,0.008,-0.10800000000000001,1.021,0.11459160000000004,-2.1199446,0.3437748,173.72659518,0.7792228800000001,-45.49859478
7.04,704,0.006999999999999999,-0.10800000000000001,1.022,0.2291832000000001,-1.8907614,0.1718874,173.73232476,0.8021412000000001,-45.49859478
7.05,705,0.009000000000000001,-0.109,1.022,0.3437748,-1.6615782,0.1718874,173.7208656,0.8136003599999999,-45.50432436
7.06,706,0.008,-0.109,1.02,0.5156622000000001,-1.432395,0.1718874,173.72659518,0.8250595199999999,-45.51005394
7.07,707,0.008,-0.109,1.02,0.572958,-1.145916,0.11459160000000004,173.73232476,0.83651868,-45.51005394
7.08,708,0.01,-0.10800000000000001,1.0170000000000001,0.7448454000000001,-0.8021411999999999,0.057295800000000015,173.73805434000005,0.8479778399999999,-45.51578352
7.09,709,0.01,-0.10800000000000001,1.015,0.6875496,-0.4583664000000001,0.0,173.74378392,0.8537074199999999,-45.51578352
7.1,710,0.009000000000000001,-0.109,1.012,0.6875496,0.0,0.0,173.70940644,0.8250595199999999,-45.51578352
7.11,711,0.009000000000000001,-0.109,1.01,0.5156622000000001,0.2291832000000001,-0.057295800000000015,173.71513602,0.8250595199999999,-45.51578352
7.12,712,0.009000000000000001,-0.10800000000000001,1.0090000000000001,0.286479,0.40107059999999994,-0.1718874,173.71513602,0.8193299399999999,-45.51578352
7.13,713,0.009000000000000001,-0.10800000000000001,1.0070000000000001,0.2291832000000001,0.5156622000000001,-0.11459160000000004,173.7208656,0.8136003599999999,-45.51005394
7.14,714,0.009000000000000001,-0.10800000000000001,1.006,0.057295800000000015,0.7448454000000001,-0.1718874,173.7208656,0.8078707799999998,-45.51005394
7.15,715,0.009000000000000001,-0.10800000000000001,1.006,-0.057295800000000015,0.8594370000000001,-0.1718874,173.6922177,0.7849524600000001,-45.51005394
7.16,716,0.009000000000000001,-0.109,1.0070000000000001,-0.1718874,0.8594370000000001,-0.1718874,173.6922177,0.7792228800000001,-45.50432436
7.17,717,0.008,-0.109,1.01,-0.286479,0.8594370000000001,-0.2291832000000001,173.68648811999995,0.76776372,-45.50432436
7.18,718,0.008,-0.109,1.012,-0.4583664000000001,0.8594370000000001,-0.2291832000000001,173.68075854,0.76203414,-45.49859478
7.1899999999999995,719,0.006999999999999999,-0.10800000000000001,1.012,-0.5156622000000001,0.7448454000000001,-0.1718874,173.67502896000005,0.75057498,-45.49859478
7.2,720,0.006999999999999999,-0.109,1.014,-0.6302538000000001,0.8021411999999999,-0.11459160000000004,173.65784022,0.73338624,-45.49859478
7.21,721,0.006999999999999999,-0.109,1.016,-0.6875496,0.8594370000000001,-0.11459160000000004,173.65211064,0.72765666,-45.4928652
7.22,722,0.006,-0.10800000000000001,1.015,-0.6302538000000001,0.8021411999999999,-0.11459160000000004,173.64065148,0.7161975,-45.4928652
7.2299999999999995,723,0.006,-0.10800000000000001,1.0170000000000001,-0.572958,0.8021411999999999,-0.11459160000000004,173.6349219,0.7104679199999999,-45.48713562
7.24,724,0.005,-0.10800000000000001,1.0170000000000001,-0.5156622000000001,0.8021411999999999,-0.057295800000000015,173.62919232,0.70473834,-45.48713562
7.25,725,0.005,-0.11,1.0170000000000001,-0.40107059999999994,0.8021411999999999,-0.057295800000000015,173.61200358,0.6703608600000001,-45.48140604
7.26,726,0.004,-0.109,1.016,-0.286479,0.8594370000000001,-0.057295800000000015,173.61200358,0.66463128,-45.48140604
7.27,727,0.005,-0.109,1.016,-0.2291832000000001,0.6302538000000001,-0.057295800000000015,173.60627399999996,0.6589017,-45.48140604
7.28,728,0.004,-0.109,1.016,-0.11459160000000004,0.6302538000000001,-0.11459160000000004,173.60627399999996,0.64744254,-45.48140604
7.29,729,0.004,-0.11,1.013,0.0,0.6302538000000001,0.0,173.60627399999996,0.64171296,-45.47567646
7.3,730,0.004,-0.109,1.013,0.0,0.5156622000000001,-0.057295800000000015,173.57762610000003,0.6016058999999999,-45.47567646
7.31,731,0.004,-0.11,1.013,0.057295800000000015,0.572958,-0.11459160000000004,173.57762610000003,0.59587632,-45.46994688
7.32,732,0.003,-0.109,1.01,0.1718874,0.3437748,0.0,173.57762610000003,0.59014674,-45.46994688
7.33,733,0.003,-0.109,1.011,0.11459160000000004,0.2291832000000001,-0.057295800000000015,173.57762610000003,0.59014674,-45.46994688
7.34,734,0.003,-0.109,1.01,0.057295800000000015,0.1718874,-0.11459160000000004,173.57762610000003,0.59014674,-45.46994688
7.35,735,0.003,-0.109,1.01,0.057295800000000015,0.1718874,-0.057295800000000015,173.5203303,0.53285094,-45.4642173
7.36,736,0.003,-0.11,1.01,0.0,0.057295800000000015,-0.057295800000000015,173.52605988,0.53285094,-45.4642173
7.37,737,0.004,-0.11,1.01,0.0,0.0,-0.057295800000000015,173.52605988,0.53285094,-45.4642173
7.38,738,0.004,-0.11,1.011,-0.057295800000000015,-0.11459160000000004,-0.057295800000000015,173.5203303,0.53285094,-45.4642173
7.39,739,0.003,-0.11,1.011,0.0,-0.286479,0.0,173.5203303,0.53858052,-45.4642173
7.4,740,0.003,-0.11,1.013,0.0,-0.3437748,0.0,173.4916824,0.5156622000000001,-45.4642173
7.41,741,0.004,-0.11,1.014,0.0,-0.5156622000000001,0.0,173.4916824,0.52139178,-45.4642173
7.42,742,0.005,-0.11,1.014,0.057295800000000015,-0.6875496,0.0,173.4916824,0.52712136,-45.4642173
7.43,743,0.004,-0.11,1.014,0.057295800000000015,-0.572958,0.0,173.4916824,0.53285094,-45.4642173
7.4399999999999995,744,0.004,-0.11,1.014,0.057295800000000015,-0.6875496,0.0,173.4916824,0.53858052,-45.46994688
7.45,745,0.005,-0.11,1.014,0.057295800000000015,-0.6875496,0.0,173.4916824,0.53285094,-45.4642173
7.46,746,0.006,-0.109,1.014,0.057295800000000015,-0.6302538000000001,0.0,173.4916824,0.53858052,-45.4642173
7.47,747,0.005,-0.11,1.014,0.11459160000000004,-0.7448454000000001,0.0,173.4916824,0.55003968,-45.46994688
7.4799999999999995,748,0.006,-0.109,1.013,0.11459160000000004,-0.572958,0.0,173.4916824,0.55576926,-45.46994688
7.49,749,0.006,-0.109,1.013,0.2291832000000001,-0.572958,0.0,173.49741197999995,0.56149884,-45.46994688
7.5,750,0.006,-0.11,1.015,0.1718874,-0.5156622000000001,0.0,173.48595282,0.56149884,-45.46994688
7.51,751,0.006,-0.109,1.014,0.1718874,-0.4583664000000001,0.0,173.4916824,0.56722842,-45.46994688
7.52,752,0.006,-0.109,1.013,0.11459160000000004,-0.3437748,0.0,173.4916824,0.56722842,-45.46994688
7.53,753,0.006,-0.109,1.013,0.0,-0.2291832000000001,0.0,173.4916824,0.5729580000000001,-45.46994688
7.54,754,0.006999999999999999,-0.109,1.013,0.057295800000000015,-0.11459160000000004,0.0,173.4916824,0.5729580000000001,-45.46994688
7.55,755,0.006,-0.109,1.01,0.057295800000000015,-0.057295800000000015,0.0,173.45157534,0.56149884,-45.47567646
7.56,756,0.006999999999999999,-0.109,1.01,0.0,0.057295800000000015,0.0,173.45157534,0.56149884,-45.47567646
7.57,757,0.006,-0.109,1.01,-0.11459160000000004,0.11459160000000004,-0.057295800000000015,173.44584576,0.56149884,-45.47567646
7.58,758,0.006,-0.10800000000000001,1.011,-0.057295800000000015,0.057295800000000015,-0.057295800000000015,173.44584576,0.55576926,-45.47567646
7.59,759,0.006,-0.109,1.013,-0.057295800000000015,0.057295800000000015,0.0,173.44584576,0.55576926,-45.47567646
7.6,760,0.006,-0.109,1.013,-0.057295800000000015,0.11459160000000004,0.0,173.44584576,0.53285094,-45.46994688
7.61,761,0.005,-0.109,1.013,-0.057295800000000015,0.286479,-0.057295800000000015,173.44584576,0.53285094,-45.46994688
7.62,762,0.005,-0.11,1.012,0.0,0.4583664000000001,-0.057295800000000015,173.44584576,0.52712136,-45.46994688
7.63,763,0.006,-0.11,1.014,0.0,0.572958,-0.11459160000000004,173.44584576,0.52139178,-45.4642173
7.64,764,0.005,-0.11,1.015,-0.057295800000000015,0.572958,-0.057295800000000015,173.44584576,0.5156622000000001,-45.4642173
7.65,765,0.005,-0.11,1.018,-0.286479,0.40107059999999994,-0.057295800000000015,173.44011618,0.5099326200000001,-45.4642173
7.66,766,0.005,-0.11,1.0190000000000001,-0.40107059999999994,0.1718874,-0.057295800000000015,173.43438659999995,0.5042030399999999,-45.4642173
7.67,767,0.005,-0.11,1.018,-0.2291832000000001,0.11459160000000004,-0.057295800000000015,173.42865702,0.5042030399999999,-45.4642173
7.68,768,0.005,-0.11,1.0170000000000001,-0.057295800000000015,0.2291832000000001,0.0,173.42865702,0.5042030399999999,-45.4642173
7.6899999999999995,769,0.004,-0.111,1.013,0.0,0.4583664000000001,-0.057295800000000015,173.42865702,0.4984734599999999,-45.45848772
7.7,770,0.005,-0.11,1.013,0.0,0.4583664000000001,-0.057295800000000015,173.42865702,0.4870143000000001,-45.45848772
7.71,771,0.004,-0.11,1.011,-0.057295800000000015,0.5156622000000001,-0.057295800000000015,173.42292744000005,0.48128472,-45.45848772
7.72,772,0.003,-0.11,1.008,-0.2291832000000001,0.5156622000000001,-0.057295800000000015,173.42292744000005,0.48128472,-45.45848772
7.7299999999999995,773,0.003,-0.11,1.006,-0.057295800000000015,0.3437748,0.0,173.42292744000005,0.47555514,-45.45848772
7.74,774,0.003,-0.11,1.0070000000000001,-0.057295800000000015,0.2291832000000001,0.0,173.42292744000005,0.46982556,-45.45848772
7.75,775,0.003,-0.109,1.008,0.0,0.11459160000000004,0.0,173.42292744000005,0.44117766,-45.45275814
7.76,776,0.003,-0.11,1.0090000000000001,0.0,0.0,-0.057295800000000015,173.42292744000005,0.44117766,-45.44702856
7.77,777,0.003,-0.11,1.012,0.0,0.0,0.0,173.42292744000005,0.44117766,-45.44702856
7.78,778,0.003,-0.109,1.014,0.0,-0.1718874,0.0,173.42292744000005,0.44117766,-45.44702856
7.79,779,0.003,-0.109,1.014,0.057295800000000015,-0.2291832000000001,-0.057295800000000015,173.42292744000005,0.44117766,-45.44702856
7.8,780,0.003,-0.109,1.015,0.0,-0.2291832000000001,0.0,173.43438659999995,0.44117766,-45.44702856
7.81,781,0.004,-0.109,1.015,0.057295800000000015,-0.2291832000000001,-0.057295800000000015,173.43438659999995,0.44117766,-45.44702856
7.82,782,0.004,-0.11,1.015,0.057295800000000015,-0.1718874,0.0,173.43438659999995,0.44690724,-45.44702856
7.83,783,0.004,-0.11,1.014,0.11459160000000004,-0.2291832000000001,-0.057295800000000015,173.44011618,0.44690724,-45.44702856
7.84,784,0.004,-0.11,1.014,0.057295800000000015,-0.1718874,0.0,173.44011618,0.44690724,-45.44702856
7.85,785,0.004,-0.111,1.012,0.2291832000000001,-0.2291832000000001,0.057295800000000015,173.43438659999995,0.4526368200000001,-45.44702856
7.86,786,0.004,-0.11,1.012,0.2291832000000001,-0.4583664000000001,0.0,173.44011618,0.4526368200000001,-45.44702856
7.87,787,0.003,-0.111,1.012,0.11459160000000004,-0.3437748,0.057295800000000015,173.44011618,0.4583664000000001,-45.44702856
7.88,788,0.004,-0.11,1.012,0.1718874,-0.4583664000000001,0.0,173.44011618,0.46409598,-45.44702856
7.89,789,0.005,-0.11,1.012,0.1718874,-0.4583664000000001,0.057295800000000015,173.44584576,0.46982556,-45.45275814
7.9,790,0.005,-0.109,1.011,0.1718874,-0.4583664000000001,0.057295800000000015,173.44584576,0.46982556,-45.45275814
7.91,791,0.005,-0.11,1.011,0.1718874,-0.4583664000000001,0.0,173.44584576,0.47555514,-45.45275814
7.92,792,0.005,-0.11,1.012,0.11459160000000004,-0.40107059999999994,0.0,173.45157534,0.47555514,-45.45275814
7.93,793,0.005,-0.111,1.012,0.057295800000000015,-0.4583664000000001,0.0,173.45157534,0.48128472,-45.45275814
7.94,794,0.005,-0.111,1.013,0.0,-0.4583664000000001,0.0,173.45157534,0.4870143000000001,-45.45275814
7.95,795,0.006,-0.11,1.014,0.0,-0.5156622000000001,0.057295800000000015,173.44584576,0.4870143000000001,-45.45275814
7.96,796,0.005,-0.11,1.014,0.0,-0.286479,0.0,173.44584576,0.4870143000000001,-45.45275814
7.97,797,0.006,-0.11,1.014,-0.11459160000000004,-0.11459160000000004,0.0,173.44584576,0.49274388,-45.45848772
7.9799999999999995,798,0.006,-0.11,1.014,-0.11459160000000004,0.0,0.0,173.44011618,0.49274388,-45.45848772
7.99,799,0.005,-0.11,1.014,-0.11459160000000004,0.0,0.0,173.44011618,0.49274388,-45.45848772
8.0,800,0.005,-0.11,1.014,-0.1718874,0.057295800000000015,0.0,173.42292744000005,0.48128472,-45.45848772
8.01,801,0.004,-0.109,1.014,-0.1718874,0.11459160000000004,0.0,173.42292744000005,0.48128472,-45.45848772
8.02,802,0.005,-0.11,1.013,-0.1718874,0.2291832000000001,0.0,173.42292744000005,0.47555514,-45.45848772
8.03,803,0.003,-0.11,1.013,-0.1718874,0.2291832000000001,-0.057295800000000015,173.41719786,0.47555514,-45.45848772
8.04,804,0.004,-0.11,1.013,-0.11459160000000004,0.2291832000000001,-0.11459160000000004,173.41719786,0.46982556,-45.45275814
8.05,805,0.004,-0.11,1.013,-0.057295800000000015,0.286479,0.0,173.41146827999995,0.46409598,-45.45275814
8.06,806,0.005,-0.11,1.012,0.0,0.3437748,-0.057295800000000015,173.4057387,0.4583664000000001,-45.45275814
8.07,807,0.005,-0.11,1.013,0.0,0.286479,0.0,173.4057387,0.4583664000000001,-45.45275814
8.08,808,0.004,-0.109,1.013,0.0,0.286479,0.0,173.4057387,0.4526368200000001,-45.45275814
8.09,809,0.003,-0.111,1.012,0.057295800000000015,0.3437748,0.0,173.41146827999995,0.4526368200000001,-45.45275814
8.1,810,0.004,-0.11,1.013,0.057295800000000015,0.286479,-0.057295800000000015,173.40000912,0.44117766,-45.44702856
8.11,811,0.003,-0.111,1.013,0.11459160000000004,0.3437748,0.0,173.4057387,0.43544808,-45.44702856
8.12,812,0.004,-0.11,1.013,0.11459160000000004,0.286479,-0.057295800000000015,173.4057387,0.43544808,-45.44702856
8.13,813,0.005,-0.11,1.012,0.057295800000000015,0.286479,0.0,173.4057387,0.4297185000000001,-45.44702856
8.14,814,0.004,-0.111,1.013,0.0,0.1718874,0.0,173.4057387,0.4297185000000001,-45.44702856
8.15,815,0.003,-0.11,1.012,0.0,0.1718874,-0.057295800000000015,173.40000912,0.41825934,-45.44702856
8.16,816,0.003,-0.11,1.012,0.0,0.057295800000000015,0.0,173.40000912,0.41825934,-45.44129898
8.17,817,0.003,-0.11,1.012,0.0,0.0,0.0,173.40000912,0.41825934,-45.44702856
8.18,818,0.003,-0.111,1.013,-0.057295800000000015,0.0,0.0,173.40000912,0.41825934,-45.44129898
8.19,819,0.003,-0.11,1.012,-0.057295800000000015,-0.057295800000000015,0.0,173.39427954,0.41825934,-45.44129898
8.2,820,0.004,-0.111,1.011,-0.057295800000000015,-0.11459160000000004,0.0,173.38854996,0.42398892,-45.44702856
8.209999999999999,821,0.004,-0.11,1.013,0.0,-0.11459160000000004,0.0,173.38854996,0.42398892,-45.44702856
8.22,822,0.003,-0.11199999999999999,1.013,0.0,-0.11459160000000004,0.0,173.38854996,0.4297185000000001,-45.44702856
8.23,823,0.003,-0.111,1.013,0.0,-0.11459160000000004,0.0,173.38854996,0.4297185000000001,-45.44702856
8.24,824,0.003,-0.11,1.012,0.057295800000000015,-0.057295800000000015,0.0,173.38854996,0.4297185000000001,-45.44702856
8.25,825,0.003,-0.11,1.012,0.057295800000000015,-0.11459160000000004,0.0,173.37136121999995,0.4297185000000001,-45.44702856
8.26,826,0.004,-0.11,1.014,0.057295800000000015,-0.1718874,0.0,173.37136121999995,0.4297185000000001,-45.44702856
8.27,827,0.003,-0.109,1.015,0.057295800000000015,-0.2291832000000001,0.057295800000000015,173.37136121999995,0.4297185000000001,-45.44702856
8.28,828,0.004,-0.11,1.014,0.11459160000000004,-0.286479,0.057295800000000015,173.37136121999995,0.43544808,-45.45275814
8.29,829,0.005,-0.111,1.013,0.057295800000000015,-0.2291832000000001,0.057295800000000015,173.37709080000005,0.43544808,-45.45275814
8.3,830,0.004,-0.111,1.012,0.1718874,-0.3437748,0.11459160000000004,173.37136121999995,0.44117766,-45.45275814
8.31,831,0.004,-0.11,1.013,0.11459160000000004,-0.3437748,0.057295800000000015,173.37136121999995,0.44117766,-45.45275814
8.32,832,0.004,-0.111,1.014,0.0,-0.2291832000000001,0.057295800000000015,173.37136121999995,0.44690724,-45.45848772
8.33,833,0.004,-0.109,1.013,0.057295800000000015,-0.286479,0.057295800000000015,173.37136121999995,0.44690724,-45.45848772
8.34,834,0.004,-0.109,1.013,0.11459160000000004,-0.2291832000000001,0.0,173.37136121999995,0.4526368200000001,-45.45848772
8.35,835,0.004,-0.11,1.011,0.0,-0.11459160000000004,0.0,173.35990206000002,0.4526368200000001,-45.45848772
8.36,836,0.005,-0.111,1.01,0.1718874,-0.057295800000000015,0.057295800000000015,173.35990206000002,0.4526368200000001,-45.45848772
8.37,837,0.004,-0.111,1.011,0.11459160000000004,0.0,0.0,173.36563164,0.4526368200000001,-45.45848772
8.38,838,0.004,-0.109,1.011,0.0,0.0,0.0,173.36563164,0.4526368200000001,-45.45848772
8.39,839,0.005,-0.11,1.015,0.0,-0.11459160000000004,0.0,173.35990206000002,0.4526368200000001,-45.45848772
8.4,840,0.005,-0.11,1.015,0.0,-0.057295800000000015,0.0,173.35990206000002,0.44690724,-45.4642173
8.41,841,0.003,-0.11,1.013,0.0,0.0,0.057295800000000015,173.35990206000002,0.44690724,-45.4642173
8.42,842,0.003,-0.11,1.012,0.057295800000000015,0.1718874,0.0,173.35990206000002,0.44690724,-45.4642173
8.43,843,0.004,-0.111,1.012,0.057295800000000015,0.3437748,-0.057295800000000015,173.35990206000002,0.44117766,-45.45848772
8.44,844,0.004,-0.111,1.013,0.0,0.286479,0.0,173.35990206000002,0.44117766,-45.45848772
8.45,845,0.004,-0.111,1.016,-0.11459160000000004,0.2291832000000001,0.0,173.35990206000002,0.43544808,-45.45848772
8.459999999999999,846,0.003,-0.11,1.0170000000000001,-0.286479,0.0,0.057295800000000015,173.35417248000005,0.43544808,-45.45848772
8.47,847,0.005,-0.111,1.015,-0.40107059999999994,-0.057295800000000015,0.0,173.34844289999995,0.43544808,-45.45848772
8.48,848,0.004,-0.11,1.0170000000000001,-0.2291832000000001,0.11459160000000004,0.0,173.34844289999995,0.43544808,-45.4642173
8.49,849,0.004,-0.11,1.015,-0.057295800000000015,0.1718874,0.0,173.34844289999995,0.43544808,-45.4642173
8.5,850,0.003,-0.111,1.013,-0.057295800000000015,0.2291832000000001,0.0,173.34271332,0.42398892,-45.45848772
8.51,851,0.004,-0.111,1.011,-0.057295800000000015,0.3437748,0.0,173.34271332,0.41825934,-45.45848772
8.52,852,0.003,-0.11,1.0090000000000001,-0.11459160000000004,0.2291832000000001,0.0,173.33698374,0.41825934,-45.45848772
8.53,853,0.002,-0.11,1.0090000000000001,-0.2291832000000001,0.286479,0.0,173.33698374,0.41825934,-45.45848772
8.54,854,0.003,-0.11,1.0090000000000001,-0.11459160000000004,0.2291832000000001,0.057295800000000015,173.33698374,0.41252976,-45.45848772
8.55,855,0.003,-0.109,1.0090000000000001,0.0,0.0,0.0,173.319795,0.38961144,-45.45848772
8.56,856,0.003,-0.111,1.011,0.057295800000000015,0.0,0.0,173.319795,0.38961144,-45.45848772
8.57,857,0.003,-0.11,1.012,0.11459160000000004,0.0,0.0,173.319795,0.38961144,-45.45848772
8.58,858,0.003,-0.11,1.015,0.1718874,-0.11459160000000004,-0.057295800000000015,173.32552458,0.38961144,-45.45848772
8.59,859,0.003,-0.11,1.015,0.1718874,-0.057295800000000015,0.0,173.32552458,0.39534102,-45.45848772
8.6,860,0.002,-0.109,1.016,0.1718874,0.0,0.0,173.33698374,0.38961144,-45.45848772
8.61,861,0.004,-0.11,1.016,0.057295800000000015,0.0,0.0,173.33698374,0.38961144,-45.45848772
8.62,862,0.003,-0.11,1.014,0.11459160000000004,0.0,-0.057295800000000015,173.33698374,0.38961144,-45.45848772
8.63,863,0.003,-0.111,1.014,0.11459160000000004,0.0,-0.057295800000000015,173.34271332,0.38961144,-45.45275814
8.64,864,0.003,-0.111,1.012,0.11459160000000004,0.057295800000000015,0.0,173.34271332,0.38961144,-45.45275814
8.65,865,0.003,-0.111,1.012,0.11459160000000004,0.0,0.0,173.34271332,0.38388186,-45.45275814
8.66,866,0.003,-0.111,1.01,0.057295800000000015,0.0,-0.057295800000000015,173.34271332,0.38388186,-45.45275814
8.67,867,0.003,-0.111,1.011,0.11459160000000004,-0.057295800000000015,0.0,173.34844289999995,0.38388186,-45.45275814
8.68,868,0.004,-0.111,1.011,0.057295800000000015,-0.2291832000000001,0.0,173.34844289999995,0.38388186,-45.45275814
