TimeStamp(s),FrameCounter,AccX,AccY,AccZ,GyrX,GyrY,GyrZ,EulerX,EulerY,EulerZ
0.01,1,0.133,-0.986,0.1,-4.2398892,-6.875496000000001,-3.7815228,96.03921996,2.2918320000000003,-14.82242346
0.02,2,0.155,-0.981,0.096,-5.7868758000000025,-9.453807,-4.3544808,95.98192416,2.3491278,-14.90836716
0.03,3,0.157,-0.98,0.096,-5.7868758000000025,-10.026765,-4.010706000000001,95.91889878,2.40069402,-15.00577002
0.04,4,0.16,-0.978,0.096,-5.7868758000000025,-10.7143146,-3.5523396000000003,95.8558734,2.44653066,-15.10890246
0.05,5,0.16,-0.978,0.098,-5.5003968,-11.2872726,-3.0939732,95.79284802,2.55539268,-15.24641238
0.060000000000000005,6,0.159,-0.98,0.098,-5.0993262,-11.8602306,-2.7501984,95.73555222,2.6012293200000003,-15.36100398
0.06999999999999999,7,0.156,-0.986,0.09300000000000001,-5.0993262,-11.8602306,-2.5783110000000002,95.67825642,2.6413363800000003,-15.47559558
0.08,8,0.153,-0.993,0.085,-5.3285094000000015,-11.3445684,-2.6356068,95.62096062,2.68144344,-15.584457600000002
0.09,9,0.14800000000000002,-0.997,0.079,-5.3858052,-10.886202,-2.5210152000000003,95.56366482,2.71582092,-15.68759004
0.09999999999999999,10,0.14,-0.997,0.073,-5.1566220000000005,-10.4851314,-2.4064236,95.49490986,2.8074942000000003,-15.813640799999998
0.11,11,0.134,-0.998,0.07400000000000001,-5.1566220000000005,-10.1413566,-2.0626488000000003,95.43761406,2.84187168,-15.91104366
0.12,12,0.127,-0.997,0.075,-5.5576926,-9.682990199999999,-1.7188740000000002,95.38031826,2.87051958,-16.00844652
0.13,13,0.12,-0.995,0.066,-6.130650599999999,-8.8235532,-1.2605076000000002,95.31156330000002,2.8934379,-16.09439022
0.14,14,0.11800000000000001,-0.993,0.062,-6.3025379999999975,-7.9641161999999985,-1.0886202,95.24853792,2.91062664,-16.17460434
0.15000000000000002,15,0.11599999999999999,-0.997,0.066,-6.589017,-7.2192707999999985,-1.0886202,95.16259422,2.9793816000000004,-16.26627762
0.16,16,0.115,-1.0,0.069,-7.3911582,-5.7868758000000025,-0.9167328000000001,95.0823801,2.9965703400000003,-16.323573420000002
0.17,17,0.115,-1.01,0.065,-8.136003599999999,-4.3544808,-0.7448454000000001,95.00216598,3.0080294999999997,-16.36368048
0.18000000000000002,18,0.113,-1.0190000000000001,0.061,-8.8235532,-3.3231564,-0.6302538000000001,94.9104927,3.0137590800000003,-16.39805796
0.19,19,0.11,-1.026,0.055,-9.682990199999999,-2.6929026,-0.4583664000000001,94.81308984,3.02521824,-16.426705860000002
0.2,20,0.111,-1.025,0.048,-10.1986524,-2.6929026,-0.3437748,94.68130949999998,3.07678446,-16.47827208
0.21000000000000002,21,0.11900000000000001,-1.015,0.045,-10.1986524,-2.9793816000000004,-0.11459160000000004,94.57817706,3.0825140400000004,-16.50691998
0.22,22,0.131,-1.001,0.046,-9.8548776,-3.7815228,0.0,94.47504462,3.0825140400000004,-16.54702704
0.23,23,0.146,-0.993,0.048,-9.453807,-5.0993262,-0.057295800000000015,94.37764176,3.08824362,-16.598593259999998
0.24000000000000002,24,0.157,-0.99,0.053,-9.453807,-7.2765666,-0.3437748,94.28023890000001,3.0997027800000003,-16.6730778
0.25,25,0.165,-0.993,0.055,-9.568398599999998,-8.9381448,-0.6302538000000001,94.1656473,3.1799169000000003,-16.787669400000002
0.26,26,0.16899999999999998,-1.0,0.057999999999999996,-9.453807,-10.4278356,-0.9167328000000001,94.06824444,3.19710564,-16.89080184
0.27,27,0.165,-1.01,0.061,-9.453807,-11.802934800000001,-1.145916,93.965112,3.22002396,-17.00539344
0.28,28,0.158,-1.018,0.057,-9.5111028,-12.3758928,-1.3178034,93.86197956,3.24294228,-17.131444199999994
0.29000000000000004,29,0.149,-1.022,0.055999999999999994,-9.2819196,-12.834259199999998,-1.6042823999999998,93.7645767,3.27159018,-17.25749496
0.3,30,0.141,-1.023,0.057,-9.224623800000002,-13.2926256,-1.8334656000000005,93.65571468,3.33461556,-17.40073446
0.31,31,0.135,-1.0190000000000001,0.06,-9.568398599999998,-13.636400400000001,-2.291832,93.55258224,3.3689930400000003,-17.538244380000002
0.32,32,0.136,-1.014,0.063,-10.5424272,-13.6936962,-2.6929026,93.43799064,3.4091001000000003,-17.67002472
0.33,33,0.141,-1.0070000000000001,0.061,-11.8602306,-13.464512999999998,-2.9220858,93.31193988,3.4492071599999994,-17.80753464
0.34,34,0.14400000000000002,-1.001,0.057999999999999996,-12.776963400000001,-13.0634424,-2.9220858,93.17442996,3.48931422,-17.9335854
0.35000000000000003,35,0.14400000000000002,-0.9940000000000001,0.054000000000000006,-13.178034,-12.261301199999998,-2.6356068,93.03119046,3.5580691799999995,-18.07109532
0.36000000000000004,36,0.141,-0.992,0.055,-12.9488508,-11.1153852,-2.4637194,92.89368054,3.58671708,-18.17995734
0.37,37,0.13699999999999998,-0.995,0.06,-12.776963400000001,-9.9694692,-2.4637194,92.7619002,3.62109456,-18.2773602
0.38,38,0.13,-0.998,0.062,-13.2353298,-8.5370742,-2.4637194,92.62439028,3.64974246,-18.3633039
0.39,39,0.122,-1.002,0.06,-13.9228794,-7.2765666,-2.291832,92.4754212,3.67839036,-18.43778844
0.4,40,0.121,-0.998,0.057999999999999996,-14.7823164,-6.0733548,-2.0053530000000004,92.32072254,3.7299565800000014,-18.51227298
0.41000000000000003,41,0.12,-0.995,0.059000000000000004,-15.297978599999999,-4.8701430000000006,-1.8907614,92.16602387999998,3.74714532,-18.55810962
0.42000000000000004,42,0.124,-0.9890000000000001,0.062,-16.042824000000003,-3.8961144,-1.7188740000000002,91.99986606,3.77006364,-18.59821668
0.43,43,0.131,-0.986,0.065,-16.558486199999994,-3.2085647999999996,-1.8334656000000005,91.82797866,3.78725238,-18.63259416
0.44,44,0.141,-0.985,0.069,-17.131444199999994,-2.5210152000000003,-1.6615782,91.65609126,3.80444112,-18.66124206
0.45,45,0.149,-0.988,0.068,-17.7044022,-1.9480572,-1.0886202,91.47847428,3.86173692,-18.70134912
0.46,46,0.156,-0.988,0.067,-17.589810600000003,-1.7188740000000002,-0.4583664000000001,91.3008573,3.8674665,-18.71853786
0.47000000000000003,47,0.158,-0.997,0.07,-16.7303736,-1.7188740000000002,0.057295800000000015,91.1289699,3.8674665,-18.74145618
0.48000000000000004,48,0.155,-1.003,0.076,-16.7303736,-0.8021411999999999,0.40107059999999994,90.9570825,3.86173692,-18.74718576
0.49,49,0.152,-1.008,0.083,-17.589810600000003,-0.11459160000000004,0.7448454000000001,90.77946552,3.85027776,-18.75291534
0.5,50,0.149,-1.004,0.08,-18.9649098,0.572958,1.0313244000000001,90.59611896,3.87892566,-18.77010408
0.51,51,0.149,-0.998,0.07400000000000001,-20.8556712,1.7761698000000001,1.7188740000000002,90.38985408,3.86173692,-18.75291534
0.52,52,0.155,-0.99,0.06,-22.6891368,2.6929026,2.7501984,90.16067088,3.83308902,-18.729997020000006
0.53,53,0.161,-0.978,0.05,-22.9756158,2.2345362,3.7815228,89.9257581,3.79298196,-18.707078699999997
0.54,54,0.16899999999999998,-0.971,0.048,-22.4599536,1.0886202,4.4117766,89.6965749,3.74714532,-18.70134912
0.55,55,0.174,-0.968,0.049,-21.485925,0.286479,4.7555514,89.49031002000002,3.74141574,-18.71853786
0.56,56,0.17600000000000002,-0.972,0.05,-20.5118964,-0.6875496,4.6982555999999995,89.27831556,3.6955791,-18.729997020000006
0.5700000000000001,57,0.17300000000000001,-0.973,0.055999999999999994,-19.365980399999998,-1.3750992,4.583664,89.08350984,3.64974246,-18.74145618
0.5800000000000001,58,0.171,-0.978,0.059000000000000004,-18.9649098,-1.4896908000000002,4.4117766,88.88870412,3.60390582,-18.75864492
0.59,59,0.162,-0.981,0.057,-19.079501399999998,-1.2032118,4.2398892,88.69389840000002,3.5580691799999995,-18.77583366
0.6,60,0.159,-0.9840000000000001,0.057,-19.079501399999998,-0.9740286,4.0680017999999984,88.51628142,3.5580691799999995,-18.80448156
0.61,61,0.157,-0.986,0.066,-19.136797199999997,-1.2605076000000002,4.010706000000001,88.3214757,3.51796212,-18.81594072
0.62,62,0.162,-0.983,0.068,-19.652459399999998,-1.8334656000000005,4.010706000000001,88.12094040000002,3.47785506,-18.83885904
0.63,63,0.17600000000000002,-0.978,0.063,-20.3973048,-2.5783110000000002,4.2398892,87.91467551999996,3.43201842,-18.86177736
0.64,64,0.196,-0.9790000000000001,0.055,-21.027558600000006,-4.297185,4.5263682,87.69695148,3.38618178,-18.907614000000002
0.65,65,0.213,-0.981,0.044000000000000004,-21.7151082,-6.417129599999999,5.1566220000000005,87.48495702,3.380452200000001,-18.9935577
0.66,66,0.228,-0.982,0.036000000000000004,-22.058882999999998,-9.6256944,6.130650599999999,87.25577381999999,3.31742682,-19.08523098
0.67,67,0.23600000000000002,-0.981,0.026000000000000002,-21.886995600000002,-13.178034,7.5630456000000015,87.02659062000002,3.2372127,-19.21701132
0.68,68,0.24,-0.98,0.02,-21.485925,-17.18874,8.880849000000003,86.80313699999998,3.14553942,-19.38316914
0.6900000000000001,69,0.242,-0.977,0.016,-21.199446,-21.657812399999997,10.4851314,86.57968338,3.03094782,-19.595163600000006
0.7000000000000001,70,0.249,-0.966,0.008,-20.9702628,-26.0122932,12.0894138,86.36195934,2.93927454,-19.86445386
0.7100000000000001,71,0.254,-0.9520000000000001,-0.002,-19.9962342,-30.366774000000003,14.0947668,86.1442353,2.78457588,-20.15666244
0.72,72,0.255,-0.9390000000000001,-0.008,-18.449247600000003,-36.2109456,16.1001198,85.94942957999999,2.6069589,-20.50616682
0.73,73,0.251,-0.927,-0.009000000000000001,-16.615782,-41.825934000000004,17.9908812,85.76608302,2.41215318,-20.912967
0.74,74,0.24100000000000002,-0.9209999999999999,-0.023,-14.5531332,-47.7274014,20.2827132,85.60565478000002,2.18296998,-21.371333399999997
0.75,75,0.225,-0.92,-0.057,-12.776963400000001,-52.0818822,22.1734746,85.46241528,1.96524594,-21.88126602
0.76,76,0.218,-0.927,-0.075,-12.0894138,-54.25912260000001,23.204798999999998,85.33063494000002,1.7074148399999998,-22.4026578
0.77,77,0.198,-0.9490000000000001,-0.10800000000000001,-13.636400400000001,-55.3477428,23.0902074,85.18739544,1.44385416,-22.92977916
0.78,78,0.162,-0.9740000000000001,-0.161,-16.7303736,-55.977996600000004,22.517249399999997,85.01550804,1.18602306,-23.46835968
0.79,79,0.11599999999999999,-0.98,-0.22399999999999998,-18.7357266,-55.290447,21.0848544,84.82070232,0.9453807,-23.99548104
0.8,80,0.051,-0.965,-0.282,-13.0061466,-56.2071798,18.5638392,84.67173324000002,0.72765666,-24.53979114
0.81,81,-0.019,-0.943,-0.214,-7.906820400000001,-56.436363,15.068795399999999,84.59151912,0.53858052,-25.08410124000001
0.8200000000000001,82,-0.08199999999999999,-0.907,-0.091,-14.32395,-50.76407879999999,9.682990199999999,84.44827962000002,0.40680018,-25.57684512
0.8300000000000001,83,-0.125,-0.826,-0.057,-20.6837838,-43.029145799999995,4.8701430000000006,84.24201474,0.32658606,-26.00083404
0.8400000000000001,84,-0.163,-0.758,-0.013000000000000001,-20.168121600000006,-36.6120162,1.6042823999999998,84.04147944,0.28074942,-26.36179758
0.85,85,-0.158,-0.703,0.024,-17.9908812,-30.022999199999997,0.11459160000000004,83.86959204,0.23491278,-26.64827658
0.86,86,-0.131,-0.688,0.053,-16.329303,-23.491278,1.0886202,83.7091638,0.20053530000000008,-26.87745978
0.87,87,-0.11900000000000001,-0.73,0.075,-13.5791046,-17.7044022,3.9534102,83.57165388,0.14896908,-27.04934718
0.88,88,-0.126,-0.879,0.06,-9.3392154,-8.3651868,8.7089616,83.47425102000003,0.05156622,-27.12383172
0.89,89,-0.155,-1.07,0.031,-7.1046792000000005,1.8334656000000005,11.3445684,83.40549606,-0.05156622,-27.09518382
0.9,90,-0.188,-1.317,-0.013000000000000001,-7.2765666,12.5477802,11.6310474,83.33101152,-0.1718874,-26.95194432000001
0.91,91,-0.221,-1.558,-0.031,-7.448453999999999,21.2567418,10.828906199999999,83.25079740000002,-0.25783110000000004,-26.73422028
0.92,92,-0.24,-1.706,-0.018000000000000002,-7.2765666,25.4393352,10.886202,83.17631286,-0.3437748,-26.4706596
0.93,93,-0.2,-1.715,-0.006,-6.589017,25.0955604,11.9748222,83.10182832,-0.44117766,-26.20709892
0.9400000000000001,94,-0.11199999999999999,-1.6440000000000001,0.006,-5.6149884000000005,23.7204612,13.9228794,83.03880294000002,-0.55576926,-25.96072698
0.9500000000000001,95,-0.019,-1.595,0.031,-3.8388186,21.371333399999997,16.902261,82.99869588,-0.70473834,-25.73154378
0.9600000000000001,96,0.076,-1.591,0.062,-2.1199446,16.329303,20.340009,82.97004798,-0.8880849000000001,-25.54819722
0.97,97,0.15,-1.605,0.07400000000000001,-1.7188740000000002,9.7975818,22.2880662,82.95285924,-1.10007936,-25.42214646
0.98,98,0.196,-1.597,0.083,-2.5783110000000002,2.1772404,22.91832,82.92421134,-1.32353298,-25.37058024
0.99,99,0.198,-1.5619999999999998,0.086,-3.380452200000001,-5.5003968,22.517249399999997,82.88983386,-1.5527161800000002,-25.39922814
1.0,100,0.168,-1.4969999999999999,0.078,-4.2398892,-12.834259199999998,21.485925,82.86118596,-1.76471064,-25.50809016
1.01,101,0.122,-1.409,0.071,-5.6722842,-18.3919518,19.8816426,82.80961973999997,-1.98243468,-25.66278882000001
1.02,102,0.054000000000000006,-1.311,0.053,-7.161975,-22.058882999999998,18.9649098,82.74659436,-2.18869956,-25.85759454
1.03,103,-0.02,-1.22,0.042,-7.9641161999999985,-23.9496444,19.2513888,82.67783940000002,-2.4064236,-26.069589
1.04,104,-0.075,-1.123,0.033,-9.682990199999999,-23.777757,19.9389384,82.59189570000002,-2.62414764,-26.28158346
1.05,105,-0.114,-1.034,0.024,-10.599723,-21.886995600000002,20.2254174,82.51741116,-2.86479,-26.46493002
1.06,106,-0.14,-0.934,0.008,-9.9694692,-18.2200644,19.8816426,82.42573788,-3.0825140400000004,-26.61962868
1.07,107,-0.157,-0.8220000000000001,-0.012,-8.8235532,-13.2353298,19.365980399999998,82.33979418,-3.28877892,-26.728490700000002
1.08,108,-0.16399999999999998,-0.701,-0.05,-5.3858052,-7.0473834,18.6784308,82.29395754,-3.47785506,-26.77432734000001
1.09,109,-0.154,-0.5760000000000001,-0.08,0.2291832000000001,0.0,17.246035799999998,82.29395754,-3.64974246,-26.75140902
1.1,110,-0.138,-0.451,-0.086,7.5057497999999985,6.7609043999999985,15.4125702,82.3627125,-3.80444112,-26.659735739999995
1.11,111,-0.109,-0.34299999999999997,-0.05,14.896907999999998,13.0634424,12.032118,82.50022242,-3.90757356,-26.510766659999994
1.12,112,-0.068,-0.275,-0.024,19.2513888,20.3973048,7.6776372,82.67783940000002,-3.9648693599999993,-26.2987722
1.1300000000000001,113,-0.037000000000000005,-0.233,-0.042,20.454600600000006,26.642546999999997,2.8074942000000003,82.86691554,-3.9648693599999993,-26.02948194
1.1400000000000001,114,-0.034,-0.201,-0.064,22.803728399999997,31.2835068,-2.291832,83.07318042,-3.90757356,-25.72008462
1.1500000000000001,115,-0.051,-0.172,-0.028999999999999998,27.8457588,36.03905820000001,-7.333862400000001,83.32528194,-3.810170700000002,-25.36485066
1.1600000000000001,116,-0.07,-0.158,0.043,32.4294228,43.315624799999995,-11.745639,83.62322009999998,-3.64974246,-24.946591320000003
1.17,117,-0.067,-0.125,0.081,35.695283399999994,54.3737142,-15.6990492,83.94407658,-3.4492071599999994,-24.42519954
1.18,118,-0.062,-0.115,0.11599999999999999,38.3308902,65.2026204,-18.7357266,84.28785138,-3.214294380000001,-23.79494574
1.19,119,-0.044000000000000004,-0.161,0.109,37.299565799999996,74.02617359999998,-21.371333399999997,84.62016702,-2.9507337000000002,-23.07874824
1.2,120,0.018000000000000002,-0.264,-0.046,28.81978740000001,79.06820400000002,-21.027558600000006,84.8550798,-2.68144344,-22.3167141
1.21,121,0.105,-0.41200000000000003,-0.19399999999999998,19.8816426,80.67248640000003,-18.449247600000003,85.01550804,-2.44653066,-21.53176164
1.22,122,0.18100000000000002,-0.57,-0.337,10.828906199999999,77.75040059999998,-14.667724800000002,85.08426299999998,-2.25745452,-20.77545708
1.23,123,0.225,-0.7929999999999999,-0.41100000000000003,4.583664,68.01011460000001,-9.8548776,85.09572216000002,-2.1199446,-20.1108258
1.24,124,0.324,-1.1520000000000001,-0.441,0.6875496,60.5616606,-3.7815228,85.07280384,-2.04546006,-19.51494948
1.25,125,0.382,-1.6030000000000002,-0.509,-2.1772404,51.10785360000001,3.4950437999999995,85.02123762,-2.04546006,-19.01074644
1.26,126,0.396,-2.004,-0.445,-0.4583664000000001,39.018439799999996,9.2819196,84.99831929999998,-2.11421502,-18.61540542
1.27,127,0.335,-2.114,-0.253,4.297185,29.507337,12.4331886,85.0269672,-2.22307704,-18.31746726
1.28,128,0.20800000000000002,-1.811,-0.17,0.5156622000000001,23.5485738,11.2872726,85.02123762,-2.3204799,-18.07109532
1.29,129,0.07,-1.485,-0.203,0.2291832000000001,21.2567418,7.6776372,85.00977845999998,-2.38350528,-17.85337128
1.3,130,-0.08900000000000001,-1.43,-0.19399999999999998,2.6929026,19.308684600000007,2.1772404,85.0269672,-2.39496444,-17.66429514
1.31,131,-0.172,-1.544,-0.165,-0.7448454000000001,16.8449652,-5.443101,85.00977845999998,-2.33193906,-17.498137319999998
1.32,132,-0.134,-1.652,-0.105,-6.130650599999999,13.464512999999998,-11.5164558,84.9410235,-2.21161788,-17.37781614
1.33,133,-0.038,-1.67,-0.033,-12.1467096,11.0007936,-13.8082878,84.80924316,-2.06837838,-17.280413279999998
1.34,134,0.044000000000000004,-1.646,0.003,-18.506543399999998,9.2819196,-13.636400400000001,84.62016702,-1.93086846,-17.20592874
1.35,135,0.083,-1.639,0.04,-19.767051000000002,9.5111028,-13.521808800000002,84.41390214,-1.78762896,-17.12571462
1.36,136,0.09699999999999999,-1.671,0.078,-19.136797199999997,11.5164558,-13.407217200000002,84.21909642,-1.65011904,-17.02831176
1.37,137,0.081,-1.694,0.096,-18.7357266,14.037471,-13.6936962,84.01856111999999,-1.50687954,-16.902261000000006
1.3800000000000001,138,0.047,-1.655,0.109,-17.303331600000003,15.870936600000002,-14.209358400000001,83.84094414,-1.35218088,-16.764751080000003
1.3900000000000001,139,0.02,-1.565,0.129,-16.272007199999994,17.589810600000003,-15.068795399999999,83.66905674,-1.19175264,-16.604322840000002
1.4000000000000001,140,0.017,-1.426,0.14800000000000002,-18.907614,20.7983754,-16.7303736,83.4799806,-1.00840608,-16.420976279999998
1.4100000000000001,141,0.004,-1.307,0.13699999999999998,-18.1054728,21.027558600000006,-17.8762896,83.29090446000002,-0.8136003599999999,-16.23762972
1.42,142,0.015,-1.179,0.133,-14.4958374,20.8556712,-20.1108258,83.1362058,-0.6016058999999999,-16.05428316
1.43,143,0.024,-1.06,0.11699999999999999,-14.4958374,22.91832,-19.8816426,82.98150714,-0.38388186,-15.85374786
1.44,144,0.034,-0.96,0.09300000000000001,-13.464512999999998,25.3247436,-17.303331600000003,82.84399721999998,-0.18907614,-15.63029424
1.45,145,0.051,-0.867,0.085,-13.178034,27.215505,-14.8396122,82.72367604,-0.00572958,-15.3839223
1.46,146,0.084,-0.7509999999999999,0.063,-11.5737516,28.1895336,-13.120738199999998,82.60335486,0.14323950000000002,-15.126091199999998
1.47,147,0.12300000000000001,-0.64,0.017,-9.568398599999998,28.7051958,-10.886202,82.50022242,0.28074942,-14.85680094
1.48,148,0.156,-0.511,-0.047,-7.6776372,29.621928600000004,-9.9694692,82.42000829999998,0.41252976,-14.581781099999999
1.49,149,0.184,-0.406,-0.076,-2.9793816000000004,29.621928600000004,-8.9381448,82.38563081999997,0.52712136,-14.30103168
1.5,150,0.18600000000000005,-0.32,-0.075,1.6042823999999998,26.814434400000003,-7.161975,82.40281956,0.64744254,-14.05465974
1.51,151,0.154,-0.26,-0.037000000000000005,4.6982555999999995,19.9389384,-3.0939732,82.4486562,0.69900876,-13.85985402
1.52,152,0.10800000000000001,-0.188,0.001,6.7609043999999985,9.9121734,3.3231564,82.51741116,0.67609044,-13.75672158
1.53,153,0.08800000000000001,-0.141,-0.02,9.8548776,2.5210152000000003,11.172680999999999,82.61481402000003,0.5729580000000001,-13.716614520000002
1.54,154,0.09300000000000001,-0.057,-0.08800000000000001,16.615782,-5.72958,19.595163600000006,82.78670142,0.3724227000000001,-13.74526242
1.55,155,0.11800000000000001,0.023,-0.086,30.4240698,-17.8189938,25.6112226,83.09036916,0.12605075999999998,-13.894231499999998
1.56,156,0.124,0.06,-0.018000000000000002,41.1383844,-28.877083199999998,28.074942,83.51435808,-0.1718874,-14.14633302
1.57,157,0.114,0.06,-0.005,43.1437374,-37.1849742,27.215505,83.95553574,-0.46409598,-14.47864866
1.58,158,0.10099999999999999,0.018000000000000002,-0.13699999999999998,36.898495200000006,-37.24227,23.892348600000002,84.3394176,-0.72192708,-14.81669388
1.59,159,0.11699999999999999,-0.126,-0.406,15.9855282,-18.449247600000003,17.6471064,84.51130500000002,-0.91100322,-14.9828517
1.6,160,0.023,-0.27899999999999997,-0.522,5.042030400000002,-8.9381448,15.011499599999999,84.51703458,-1.07143146,-15.04587708
1.61,161,-0.111,-0.555,-0.33,4.0680017999999984,-10.7143146,13.0634424,84.55714164,-1.20894138,-15.14327994
1.62,162,-0.125,-0.968,-0.24,7.6203414,-12.0894138,8.021412000000002,84.64308534,-1.29488508,-15.25214196
1.6300000000000001,163,-0.124,-1.5630000000000002,-0.303,12.834259199999998,-26.356068,-6.875496000000001,84.78059526000001,-1.24331886,-15.51570264
1.6400000000000001,164,-0.001,-2.384,-0.385,5.5576926,-20.912967000000002,-34.37748,84.84362064,-0.9167328,-15.756345000000001
1.6500000000000001,165,0.165,-2.886,-0.17600000000000002,-5.443101,-13.9228794,-58.9573782,84.79205442,-0.33804522,-15.94542114
1.6600000000000001,166,0.235,-2.256,-0.3670000000000001,-23.4339822,-8.880849000000003,-57.52498320000001,84.55141205999998,0.21772404,-16.088660639999997
1.6700000000000002,167,0.228,-1.705,-0.515,-8.9381448,-1.6042823999999998,-38.961144,84.45973878,0.59587632,-16.140226860000002
1.68,168,0.27899999999999997,-1.7369999999999999,-0.47600000000000003,-3.0366774,-3.9534102,-23.0902074,84.43109088,0.8250595199999999,-16.197522659999994
1.69,169,0.175,-1.743,-0.368,-3.4950437999999995,-3.2085647999999996,-5.0993262,84.39671340000002,0.87089616,-16.23762972
1.7,170,0.001,-1.675,-0.26,-9.0527364,2.1199446,7.5057497999999985,84.29931054,0.79641162,-16.208981819999998
1.71,171,-0.155,-1.601,-0.187,-16.157415599999997,8.250595200000001,10.4278356,84.13888229999998,0.69900876,-16.117308540000003
1.72,172,-0.191,-1.5490000000000002,-0.151,-21.600516600000002,16.7876694,7.1046792000000005,83.91542868,0.63598338,-15.951150719999998
1.73,173,-0.095,-1.565,-0.105,-21.4286292,24.8663772,3.380452200000001,83.69770464000001,0.62452422,-15.6990492
1.74,174,0.083,-1.6480000000000001,-0.027999999999999997,-22.2880662,28.3041252,2.1772404,83.47425102000003,0.62452422,-15.42402936
1.75,175,0.213,-1.661,0.003,-25.84040580000001,25.668518399999996,4.9847346,83.21069034,0.59587632,-15.17192784
1.76,176,0.26899999999999996,-1.599,0.006,-27.960350399999996,20.1108258,11.2299768,82.92421134,0.5042030399999999,-14.95993338
1.77,177,0.293,-1.5019999999999998,0.027000000000000003,-23.7204612,13.3499214,17.7044022,82.68356897999998,0.33804522,-14.810964300000002
1.78,178,0.254,-1.354,0.040999999999999995,-21.829699800000004,6.990087599999999,21.4286292,82.46584494,0.13178034,-14.71929102
1.79,179,0.204,-1.2329999999999999,0.053,-19.365980399999998,0.286479,23.14750320000001,82.26530964,-0.09167328,-14.684913540000002
1.8,180,0.11699999999999999,-1.1179999999999999,0.07,-14.438541599999999,-5.844171599999999,22.4599536,82.15644762000002,-0.29793816,-14.7250206
1.81,181,0.042,-1.0190000000000001,0.081,-10.943497800000001,-11.5164558,21.2567418,82.04758559999998,-0.5156622000000001,-14.810964300000002
1.82,182,-0.006999999999999999,-0.8959999999999999,0.07400000000000001,-8.7662574,-14.9542038,20.5691922,81.96164189999998,-0.7391158200000001,-14.93128548
1.83,183,-0.034,-0.782,0.044000000000000004,-5.6149884000000005,-16.329303,19.595163600000006,81.90434609999998,-0.95111028,-15.0687954
1.84,184,-0.06,-0.645,0.008,-1.3750992,-16.2147114,17.246035799999998,81.89861652,-1.14018642,-15.20057574
1.85,185,-0.085,-0.523,-0.039,3.7815228,-15.469866,15.011499599999999,81.93872358,-1.31207382,-15.33235608
1.86,186,-0.08199999999999999,-0.418,-0.047,12.4904844,-17.3606274,12.261301199999998,82.07050392,-1.44958374,-15.48132516
1.87,187,-0.062,-0.341,0.040999999999999995,21.0848544,-19.767051000000002,8.9381448,82.29395754,-1.55844576,-15.66467172
1.8800000000000001,188,-0.048,-0.27699999999999997,0.1,25.84040580000001,-19.9962342,4.583664,82.5632478,-1.62147114,-15.85374786
1.8900000000000001,189,-0.038,-0.214,0.126,29.4500412,-18.7357266,0.0,82.87264512,-1.6386598799999998,-16.031364840000002
1.9000000000000001,190,-0.027999999999999997,-0.141,0.141,34.0337052,-13.750992000000002,-5.2712136,83.23933824000002,-1.59855282,-16.16887476
1.9100000000000001,191,-0.035,-0.076,0.151,38.731960799999996,-8.8235532,-11.45916,83.63467926,-1.4896908000000002,-16.26627762
1.9200000000000002,192,-0.065,-0.015,0.16699999999999998,43.029145799999995,-4.8128472,-19.079501399999998,84.07585692,-1.30061466,-16.329303000000003
1.93,193,-0.09,0.021,0.121,45.034498799999994,0.286479,-24.522602399999997,84.52849374,-1.05424272,-16.34649174
1.94,194,-0.08800000000000001,0.04,0.095,47.4409224,7.5630456000000015,-27.6165756,85.00977845999998,-0.7734933,-16.28919594
1.95,195,-0.079,0.027999999999999997,0.102,49.388979600000006,14.7250206,-27.6738714,85.51971108000002,-0.5042030399999999,-16.15168602
1.96,196,-0.10800000000000001,-0.002,0.039,50.0192334,22.2307704,-23.892348600000002,86.01818454000002,-0.25210152,-15.94542114
1.97,197,-0.14800000000000002,-0.084,-0.038,47.784697200000004,32.7731976,-17.0741484,86.49946926,-0.06302537999999999,-15.63029424
1.98,198,-0.121,-0.34700000000000003,-0.316,34.7212548,45.893935799999994,-7.6776372,86.84324405999998,0.02291832,-15.17192784
1.99,199,0.071,-0.727,-1.104,-22.4026578,62.22323879999999,15.126091199999998,86.60833127999999,-0.10886202,-14.5531332
2.0,200,0.268,-0.924,-2.048,-60.2178858,0.7448454000000001,58.49901179999999,85.99526621999998,-0.6875496,-14.518755719999998
2.01,201,0.8079999999999999,-1.1640000000000001,-0.955,20.6837838,-47.841993,76.48989300000002,86.21871984,-1.46677248,-14.937015060000002
2.02,202,1.1520000000000001,-2.215,0.46299999999999997,95.6266902,-55.7488134,49.1025006,87.21566676,-1.9595163600000003,-15.44694768
2.03,203,0.47,-2.3930000000000002,0.39799999999999996,17.9908812,-41.3675676,17.9908812,87.41620206,-2.14286292,-15.84801828
2.04,204,-0.159,-2.016,-0.247,-15.011499599999999,-31.3980984,-2.5783110000000002,87.27869214,-2.12567418,-16.16314518
2.05,205,-0.478,-1.652,-0.332,18.793022399999998,-16.7876694,-9.167328,87.47349786,-2.04546006,-16.329303000000003
2.0599999999999996,206,-0.461,-1.597,-0.456,15.297978599999999,-9.8548776,7.7922288,87.6339261,-2.12567418,-16.420976279999998
2.07,207,-0.337,-1.454,-0.39299999999999996,-4.7555514,-12.5477802,13.980175199999998,87.59381904,-2.26891368,-16.541297460000006
2.0799999999999996,208,-0.188,-1.284,-0.325,-10.3705398,-11.172680999999999,3.5523396000000003,87.49641618000004,-2.30329116,-16.650159480000006
2.09,209,0.003,-1.146,-0.24,-11.2872726,-11.6310474,-5.6722842,87.38755416000002,-2.25172494,-16.77048066
2.0999999999999996,210,0.258,-0.972,-0.177,-10.7143146,-14.1520626,-6.6463128000000005,87.25577381999999,-2.02254174,-16.97101596
2.11,211,0.44,-0.815,-0.053,-5.443101,-17.6471064,-1.6615782,87.20993718,-2.01108258,-17.14863294
2.1199999999999997,212,0.535,-0.821,-0.016,-9.7975818,-25.210151999999997,3.9534102,87.1182639,-2.05691922,-17.39500488
2.13,213,0.523,-0.9540000000000001,-0.075,-14.32395,-32.6013102,7.734933000000002,86.99221314,-2.14286292,-17.715861359999995
2.1399999999999997,214,0.345,-1.158,-0.109,-15.2406828,-40.33624320000001,8.880849000000003,86.85470322,-2.24599536,-18.11120238
2.15,215,0.15,-1.244,-0.08800000000000001,-11.2299768,-43.1437374,6.589017,86.76875952,-2.30902074,-18.54092088
2.1599999999999997,216,0.008,-1.218,0.017,-2.1199446,-46.466893799999994,1.5469866,86.76875952,-2.3376686399999995,-18.99928728
2.17,217,-0.017,-1.1059999999999999,0.139,3.7815228,-47.555514,-3.7815228,86.83178489999996,-2.30902074,-19.47484242
2.1799999999999997,218,0.02,-0.9209999999999999,0.19,8.250595200000001,-44.690723999999996,-7.7922288,86.94064691999998,-2.24599536,-19.91602008
2.19,219,0.08800000000000001,-0.7509999999999999,0.228,16.673077799999998,-40.7946096,-11.745639,87.12972306,-2.13713334,-20.32282026
2.1999999999999997,220,0.13699999999999998,-0.691,0.253,27.903054600000004,-41.9978214,-14.610429000000002,87.45630911999999,-1.9767051,-20.75253876
2.21,221,0.141,-0.667,0.267,32.0283522,-42.91455420000001,-13.9228794,87.80008391999998,-1.83919518,-21.17652768
2.2199999999999998,222,0.085,-0.652,0.273,41.539455,-49.847346,-8.9954406,88.24699116,-1.7475218999999995,-21.66927156
2.23,223,0.053,-0.642,0.22,49.1597964,-57.86875799999999,-1.6615782,88.76838294000002,-1.73033316,-22.23649998
2.2399999999999998,224,0.07200000000000001,-0.5920000000000001,0.166,50.5348956,-57.4103916,2.0626488000000003,89.30696345999998,-1.73606274,-22.79799882
2.25,225,0.16,-0.557,0.158,53.11320660000001,-54.8893764,1.2032118,89.87992145999998,-1.71314442,-23.34230892
2.26,226,0.24,-0.541,0.141,55.6342218,-57.2385042,-0.6875496,90.4700682,-1.6844965200000002,-23.90380776
2.27,227,0.255,-0.562,0.11,57.52498320000001,-62.3951262,-1.0886202,91.07740368,-1.64438946,-24.51114324
2.28,228,0.21899999999999997,-0.622,0.077,55.92070079999999,-66.11935319999999,0.7448454000000001,91.67328,-1.61001198,-25.15858578000001
2.29,229,0.14,-0.672,0.07,52.6548402,-67.9528188,4.6409598,92.23477884,-1.61001198,-25.82894664
2.3,230,0.002,-0.655,0.141,49.7327544,-66.86419860000001,7.1046792000000005,92.77908894,-1.6386598799999998,-26.48211876
2.31,231,-0.14300000000000002,-0.625,0.21600000000000005,46.8679644,-58.6136034,6.5317212,93.2775624,-1.65011904,-27.06080634
2.32,232,-0.23199999999999998,-0.589,0.242,44.404245,-44.690723999999996,4.1825934,93.74738796,-1.65011904,-27.496254420000003
2.3299999999999996,233,-0.252,-0.5760000000000001,0.237,44.2896534,-30.7678446,1.3178034,94.21148394,-1.6329303,-27.79419258
2.34,234,-0.231,-0.575,0.182,40.393539000000004,-18.3919518,-1.2605076000000002,94.62974328,-1.59855282,-27.97180956
2.3499999999999996,235,-0.16699999999999998,-0.5589999999999999,0.128,35.9244666,-11.6310474,-2.291832,95.00216598,-1.5756344999999998,-28.069212420000003
2.36,236,-0.05,-0.525,0.121,37.0703826,-12.261301199999998,-1.145916,95.38604784,-1.5469866,-28.18380402
2.3699999999999997,237,0.06,-0.489,0.113,39.820581,-22.2880662,1.8334656000000005,95.7985776,-1.53552744,-28.40152806
2.38,238,0.218,-0.44799999999999995,0.126,35.8671708,-31.913760600000003,4.1825934,96.17672988,-1.53552744,-28.71665496
2.3899999999999997,239,0.38799999999999996,-0.40299999999999997,0.162,32.257535399999995,-38.731960799999996,3.0939732,96.52050468,-1.50687954,-29.09480724
2.4,240,0.48100000000000004,-0.488,0.14300000000000002,26.642546999999997,-47.498218200000004,0.0,96.80698368,-1.36936962,-29.58182154
2.4099999999999997,241,0.409,-0.561,0.055999999999999994,15.3552744,-52.425657,-1.6042823999999998,96.98460066,-1.27769634,-30.086024580000004
2.42,242,0.258,-0.589,-0.019,9.0527364,-55.06126379999999,0.286479,97.09346268,-1.19748222,-30.624605100000004
2.4299999999999997,243,0.07,-0.591,-0.032,3.0939732,-53.9726436,5.72958,97.1450289,-1.1745639,-31.16318562
2.44,244,-0.127,-0.5670000000000001,-0.012,-5.5003968,-55.6915176,13.8655836,97.10492184,-1.22613012,-31.72468446
2.4499999999999997,245,-0.271,-0.522,0.03,-15.870936600000002,-57.2958,20.454600600000006,96.96741192,-1.3750992,-32.30337204
2.46,246,-0.316,-0.45899999999999996,0.033,-24.1788276,-50.5921914,22.9756158,96.7439583,-1.52979786,-32.82476382
2.4699999999999998,247,-0.303,-0.401,-0.04,-35.2942128,-33.6899304,23.5485738,96.4001835,-1.7188740000000002,-33.19145694
2.48,248,-0.272,-0.314,-0.10300000000000001,-50.47759979999999,-14.209358400000001,25.382039399999996,95.89598046,-1.95378678,-33.363344340000005
2.4899999999999998,249,-0.27399999999999997,-0.316,-0.005,-53.628868800000006,0.286479,26.2987722,95.35167036,-2.21734746,-33.39199224
2.5,250,-0.287,-0.598,0.03,-69.4425096,14.381245800000002,25.382039399999996,94.63547286,-2.51528562,-33.27167106
2.51,251,-0.331,-0.9940000000000001,-0.11599999999999999,-114.4770084,29.793815999999996,26.069589,93.46090896,-2.81322378,-33.01383996
2.52,252,-0.423,-1.4269999999999998,-0.485,-176.64295140000004,52.48295279999999,33.9191136,91.63317294,-3.19710564,-32.53255524
2.53,253,-0.619,-2.063,-1.058,-241.73098019999998,79.75575359999998,48.987909,89.12361690000002,-3.7299565800000014,-31.776250680000004
2.54,254,-0.725,-3.24,-1.926,-306.6471216,109.3203864,65.8328742,85.92651126,-4.39458786,-30.69908964
2.55,255,-0.883,-3.987,-2.151,-314.43935039999997,137.96828639999998,72.13541219999998,82.59762528,-5.03630082,-29.29534254
2.56,256,-1.102,-3.9989999999999997,-1.569,-255.4246764,138.82772340000002,56.2071798,79.85888604,-5.443101,-27.874406699999998
2.57,257,-1.0290000000000001,-3.7119999999999997,-2.059,-275.3636148,147.3075018,12.1467096,76.90815234,-5.33423898,-26.43628212
2.5799999999999996,258,-0.873,-2.978,-2.536,-272.2696416,185.12272980000003,-20.3973048,73.96887779999999,-4.7555514,-24.7231377
2.59,259,-0.754,-2.45,-2.219,-209.416149,185.98216680000002,-20.5691922,71.68850496,-4.08519054,-23.02718202
2.5999999999999996,260,-0.21899999999999997,-2.006,-1.567,-176.757543,152.8651944,-3.0366774,69.77482524000001,-3.62109456,-21.60624618
2.61,261,0.37,-1.7,-1.065,-166.15782,123.98811119999999,13.2353298,68.00438502,-3.3518043,-20.41449354
2.6199999999999997,262,0.7709999999999999,-1.528,-0.4320000000000001,-167.876694,87.4333908,20.626488000000002,66.2339448,-3.2486718599999995,-19.5378678
2.63,263,0.841,-1.391,-0.040999999999999995,-187.8156324,39.5913978,24.637194,64.29734676,-3.34034514,-19.09096056
2.6399999999999997,264,0.5710000000000001,-1.3359999999999999,0.259,-206.72324640000002,-3.7815228,26.241476399999996,62.20032048,-3.62109456,-19.0222056
2.65,265,0.162,-1.1740000000000002,0.449,-216.4062366,-25.6112226,17.3606274,60.04026882,-3.91330314,-19.17690426
2.6599999999999997,266,-0.20800000000000002,-1.065,0.5670000000000001,-225.4016772,-24.2934192,-12.9488508,57.77708471999999,-3.94768062,-19.46911284
2.67,267,-0.424,-0.919,0.682,-230.55829920000002,-19.767051000000002,-38.0444112,55.46806398,-3.76433406,-19.8529947
2.6799999999999997,268,-0.405,-0.7859999999999999,0.797,-245.6843904,-9.568398599999998,-45.4928652,52.99288542000001,-3.48358464,-20.20822866
2.69,269,-0.363,-0.627,0.846,-258.7478328,-4.010706000000001,-37.872523799999996,50.38592652000001,-3.24294228,-20.4832485
2.6999999999999997,270,-0.33899999999999997,-0.33399999999999996,0.745,-280.92130739999993,-0.3437748,-16.2147114,47.56697316,-3.1799169000000003,-20.59211052
2.71,271,-0.387,-0.067,1.089,-279.317025,7.6203414,4.3544808,44.72510148,-3.20283522,-20.51762598
2.7199999999999998,272,-0.363,0.3,1.291,-267.2276112,19.9962342,7.5630456000000015,41.9978214,-3.1512689999999997,-20.32854984
2.73,273,-0.251,0.66,1.1059999999999999,-262.128285,44.2896534,-3.5523396000000003,39.32210754000001,-2.8361421,-20.06498916
2.7399999999999998,274,-0.098,0.609,0.703,-224.599536,64.9161414,-11.5164558,37.01881638,-2.30329116,-19.74413268
2.75,275,0.126,0.287,0.621,-193.8889872,72.5937786,-1.6615782,35.03065212,-1.74179232,-19.32587334
2.76,276,0.25,0.175,0.537,-188.3312946,70.4165382,9.8548776,33.09978366,-1.2605076000000002,-18.83312946
2.77,277,0.18,0.064,0.5720000000000001,-178.3045296,57.754166399999995,11.5164558,31.27204764,-0.87089616,-18.4205997
2.78,278,0.046,0.12,0.44799999999999995,-171.8301042,53.11320660000001,9.0527364,29.51879616,-0.49274388,-18.05963616
2.79,279,0.12,0.368,0.135,-148.682601,57.63957480000001,5.443101,28.00045746,-0.05156622,-17.72159094
2.8,280,0.48700000000000004,0.6759999999999999,-0.115,-113.0446134,58.2698286,4.4690724,26.80297524,0.46409598,-17.4179232
2.81,281,1.063,0.879,-0.287,-84.3394176,38.3308902,8.5370742,25.94926782,0.75057498,-17.1600921
2.82,282,1.452,0.9890000000000001,-0.53,-74.198061,-2.291832,15.297978599999999,25.19869284,0.65317212,-17.034041339999998
2.8299999999999996,283,1.188,1.038,-0.78,-72.0208206,-44.690723999999996,11.9748222,24.47103618,0.19480572,-17.11998504
2.84,284,0.58,1.02,-0.985,-60.44706899999999,-66.3485364,6.130650599999999,23.86370070000001,-0.42398892,-17.34916824
2.8499999999999996,285,0.048,0.861,-1.11,-47.211739200000004,-72.93755340000001,6.417129599999999,23.36522724000001,-1.1172681,-17.59554018
2.86,286,-0.261,0.633,-1.155,-44.9199072,-70.5311298,15.3552744,22.92404958,-1.81627686,-17.74450926
2.8699999999999997,287,-0.359,0.311,-1.225,-28.074942,-69.15603060000001,25.668518399999996,22.64902974,-2.53820394,-17.7903459
2.88,288,-0.466,-0.04,-1.348,-6.417129599999999,-71.44786260000002,22.517249399999997,22.59746352,-3.27159018,-17.870560020000006
2.8899999999999997,289,-0.513,-0.34299999999999997,-1.463,9.167328,-71.9635248,19.0222056,22.71205512,-3.99351726,-17.9908812
2.9,290,-0.49,-0.493,-1.4509999999999998,21.2567418,-62.68160520000001,11.5164558,22.9469679,-4.612311900000001,-18.13985028
2.9099999999999997,291,-0.315,-0.541,-1.4509999999999998,21.371333399999997,-31.111619399999995,-2.2345362,23.176151100000002,-4.87587258,-18.28881936
2.92,292,-0.159,-0.478,-1.436,12.4904844,-7.8495246,-12.5477802,23.3193906,-4.898790900000002,-18.43778844
2.9299999999999997,293,-0.203,-0.282,-1.4269999999999998,1.3750992,-4.8128472,-20.05353,23.3480385,-4.8586838399999985,-18.64405332
2.94,294,-0.317,-0.20600000000000002,-1.4980000000000002,-2.7501984,-1.9480572,-25.496631,23.34230892,-4.77846972,-18.88469568
2.9499999999999997,295,-0.306,-0.154,-1.6230000000000002,3.8961144,1.8907614,-20.626488000000002,23.38241598,-4.68106686,-19.06231266
2.96,296,-0.098,-0.021,-1.574,18.621135,3.0939732,-12.0894138,23.58295128,-4.6008527400000006,-19.15971552
2.9699999999999998,297,0.15,0.163,-1.395,26.4706596,6.6463128000000005,-4.6982555999999995,23.85224154,-4.5206386200000015,-19.17690426
2.98,298,0.34600000000000003,0.299,-1.18,30.022999199999997,15.2406828,0.6302538000000001,24.1501797,-4.3831287,-19.10241972
2.9899999999999998,299,0.44299999999999995,0.32899999999999996,-0.998,15.870936600000002,28.0176462,2.0626488000000003,24.2934192,-4.14248634,-18.9649098
3.0,300,0.3,0.324,-0.982,-18.9649098,38.10170700000001,3.380452200000001,24.01266978,-3.7815228,-18.77583366
3.01,301,0.239,0.27399999999999997,-1.251,-56.837433600000004,44.4615408,3.1512689999999997,23.41679346,-3.40337052,-18.55810962
3.02,302,0.16,0.133,-1.903,-77.6931048,56.3217714,-2.291832,22.60892268,-2.89916748,-18.34611516
3.03,303,-0.134,-0.019,-2.5660000000000003,-101.0697912,59.30115299999999,-9.9121734,21.571868700000003,-2.3376686399999995,-18.197146080000003
3.04,304,-0.545,0.124,-2.8339999999999996,-115.22185379999999,33.9191136,-13.8655836,20.3973048,-1.99389384,-18.191416500000006
3.05,305,-0.606,0.281,-2.742,-118.77419340000002,29.5646328,-17.0741484,19.18263384,-1.6844965200000002,-18.23725314
3.06,306,-0.469,0.627,-2.87,-123.7016322,44.748019799999994,-16.329303,17.92212624,-1.2318597,-18.23725314
3.07,307,-0.114,0.535,-2.727,-118.8314892,37.757932200000006,-10.7143146,16.71318486,-0.8594370000000001,-18.21433482
3.08,308,-0.191,0.295,-1.974,-105.710751,32.257535399999995,-7.1046792000000005,15.63029424,-0.55003968,-18.17995734
3.09,309,-0.27,0.043,-1.631,-91.3295052,40.966497,-12.0894138,14.70210228,-0.14323950000000002,-18.17422776
3.0999999999999996,310,-0.316,0.018000000000000002,-1.47,-88.17823620000001,42.456187799999995,-16.7303736,13.79109906,0.26929026,-18.20860524
3.11,311,-0.12,0.161,-1.374,-89.26685640000002,52.54024860000001,-18.449247600000003,12.87436626,0.8078707799999998,-18.2487123
3.1199999999999997,312,0.13699999999999998,0.271,-1.36,-78.60983759999998,54.6028974,-17.761698000000006,12.06649548,1.3579104599999998,-18.28881936
3.13,313,0.366,0.293,-1.319,-60.16059,53.628868800000006,-17.8762896,11.44770084,1.90222056,-18.334656000000006
3.1399999999999997,314,0.586,0.23800000000000002,-1.239,-45.4928652,48.185767799999994,-20.626488000000002,10.97787528,2.40069402,-18.43205886
3.15,315,0.68,0.198,-1.1420000000000001,-39.47680620000001,38.5600734,-24.5798982,10.5424272,2.85333084,-18.59821668
3.1599999999999997,316,0.642,0.22,-1.05,-37.299565799999996,31.1689152,-27.3300966,10.15281576,3.20283522,-18.79875198
3.17,317,0.535,0.27699999999999997,-0.981,-36.32553720000001,23.319390600000002,-26.8717302,9.76320432,3.47212548,-19.01647602
3.1799999999999997,318,0.39,0.342,-0.9359999999999999,-37.1849742,15.870936600000002,-23.835052800000003,9.37359288,3.66120162,-19.21701132
3.19,319,0.28,0.322,-0.922,-36.38283300000001,15.870936600000002,-17.589810600000003,8.98971102,3.8388186000000006,-19.36025082
3.1999999999999997,320,0.253,0.235,-0.9309999999999999,-31.6845774,16.7876694,-11.401864199999999,8.60009958,4.06227222,-19.45765368
3.21,321,0.245,0.11699999999999999,-0.9279999999999999,-23.835052800000003,18.621135,-5.7868758000000025,8.353727639999999,4.24561878,-19.480572
3.2199999999999998,322,0.26,0.024,-0.912,-16.7303736,18.6784308,-2.7501984,8.18184024,4.43469492,-19.47484242
3.23,323,0.278,-0.036000000000000004,-0.9229999999999999,-9.8548776,17.131444199999994,-2.291832,8.08443738,4.6008527400000006,-19.46911284
3.2399999999999998,324,0.27899999999999997,-0.036000000000000004,-0.932,-2.1199446,14.4958374,-2.9220858,8.05578948,4.74409224,-19.47484242
3.25,325,0.271,0.009000000000000001,-0.9129999999999999,3.8961144,10.7716104,-3.4377480000000005,8.00422326,4.99619376,-19.54359738
3.26,326,0.258,0.05,-0.9129999999999999,7.448453999999999,7.0473834,-3.0366774,8.0787078,5.0706783,-19.56078612
3.27,327,0.24,0.055,-0.927,10.943497800000001,2.291832,-2.2345362,8.18756982,5.0993262,-19.57797486
3.28,328,0.22899999999999998,0.035,-0.948,12.1467096,-1.432395,-2.1199446,8.307891,5.08786704,-19.60662276
3.29,329,0.20800000000000002,0.009000000000000001,-0.976,12.4331886,-3.7242269999999995,-2.1199446,8.43394176,5.05921914,-19.629541080000006
3.3,330,0.19399999999999998,-0.003,-0.996,12.261301199999998,-5.3285094000000015,-1.8907614,8.479778399999999,5.0706783,-19.68683688
3.31,331,0.17800000000000002,-0.008,-0.998,11.745639,-6.589017,-1.2032118,8.60009958,5.00765292,-19.7097552
3.32,332,0.17800000000000002,-0.018000000000000002,-1.001,11.172680999999999,-7.7922288,0.2291832000000001,8.714691179999999,4.93316838,-19.72121436
3.33,333,0.172,-0.03,-1.028,10.886202,-9.396511199999999,2.6929026,8.823553200000003,4.83576552,-19.71548478
3.34,334,0.165,-0.035,-1.064,11.2872726,-11.0580894,5.958763200000001,8.94387438,4.72117392,-19.67537772
3.3499999999999996,335,0.159,-0.045,-1.044,12.4331886,-16.272007199999994,9.9121734,9.04700682,4.57220484,-19.61808192
3.36,336,0.15,-0.055999999999999994,-1.0290000000000001,11.5164558,-20.2827132,12.261301199999998,9.17305758,4.3544808,-19.5378678
3.3699999999999997,337,0.158,-0.071,-1.013,9.3392154,-22.91832,13.521808800000002,9.2819196,4.11383844,-19.44619452
3.38,338,0.155,-0.086,-0.9990000000000001,6.0733548,-23.4339822,13.464512999999998,9.350674559999998,3.86173692,-19.36025082
3.3899999999999997,339,0.138,-0.10400000000000001,-1.003,1.2605076000000002,-21.142150199999996,12.261301199999998,9.37359288,3.6382833,-19.27430712
3.4,340,0.127,-0.127,-1.032,-3.9534102,-15.9855282,10.599723,9.32202666,3.48358464,-19.21128174
3.4099999999999997,341,0.11699999999999999,-0.142,-1.0590000000000002,-7.8495246,-9.740286,9.167328,9.24754212,3.3689930400000003,-19.1367972
3.42,342,0.13699999999999998,-0.147,-1.121,-10.886202,-2.3491277999999998,8.8235532,9.14440968,3.33461556,-19.056583080000006
3.4299999999999997,343,0.139,-0.11599999999999999,-1.085,-10.4851314,-4.2398892,10.7716104,9.04127724,3.27159018,-18.95345064
3.44,344,0.114,-0.078,-1.033,-6.417129599999999,-11.688343199999998,12.5477802,8.98398144,3.1398098400000003,-18.8503182
3.4499999999999997,345,0.083,-0.044000000000000004,-0.978,-2.4064236,-18.048177,12.6623718,8.92668564,2.9507337000000002,-18.7643745
3.46,346,0.052000000000000005,-0.016,-0.9390000000000001,-2.5210152000000003,-21.371333399999997,10.828906199999999,8.909496899999997,2.7215505,-18.69561954
3.4699999999999998,347,0.022000000000000002,0.011000000000000001,-0.929,-4.0680017999999984,-19.4232762,7.448453999999999,8.86938984,2.5210152000000003,-18.65551248
3.48,348,-0.042,0.028999999999999998,-0.8859999999999999,-3.8961144,-16.386598799999998,3.4377480000000005,8.83501236,2.35485738,-18.65551248
3.4899999999999998,349,-0.10099999999999999,0.005,-0.8420000000000001,-2.7501984,-10.7716104,0.057295800000000015,8.80636446,2.25172494,-18.67270122
3.5,350,-0.11699999999999999,-0.045,-0.865,-3.4950437999999995,-1.0886202,-2.0626488000000003,8.69750244,2.07983754,-18.64405332
3.51,351,-0.083,-0.086,-0.914,-4.5263682,13.636400400000001,-2.6929026,8.651665800000002,2.21734746,-18.6497829
3.52,352,0.004,-0.109,-0.927,-2.4064236,17.7044022,-2.0626488000000003,8.623017899999999,2.39496444,-18.63832374
3.53,353,0.105,-0.115,-0.937,0.4583664000000001,15.297978599999999,-0.1718874,8.62874748,2.54393352,-18.60967584
3.54,354,0.20199999999999999,-0.08199999999999999,-0.9620000000000001,2.2345362,9.5111028,2.2345362,8.651665800000002,2.62987722,-18.57529836
3.55,355,0.255,-0.013999999999999999,-0.995,3.3231564,2.4637194,4.5263682,8.52561504,2.90489706,-18.60967584
3.56,356,0.266,0.068,-1.018,5.72958,-5.7868758000000025,4.9274388,8.58291084,2.84187168,-18.57529836
3.57,357,0.231,0.125,-1.01,7.448453999999999,-13.0634424,2.9793816000000004,8.663124960000001,2.71582092,-18.56956878
3.58,358,0.14300000000000002,0.139,-0.968,8.9954406,-15.2406828,-0.057295800000000015,8.75479824,2.56685184,-18.59821668
3.59,359,0.105,0.10300000000000001,-0.945,11.5737516,-13.750992000000002,-3.3231564,8.86938984,2.44080108,-18.65551248
3.5999999999999996,360,0.098,0.047,-0.935,11.2299768,-12.6623718,-4.6409598,8.92095606,2.35485738,-18.7357266
3.61,361,0.109,-0.002,-0.9009999999999999,9.9694692,-12.0894138,-3.4950437999999995,9.01835892,2.24026578,-18.7930224
3.6199999999999997,362,0.11900000000000001,-0.037000000000000005,-0.895,8.7089616,-10.313244000000001,-0.6875496,9.1100322,2.14286292,-18.8216703
3.63,363,0.109,-0.068,-0.912,6.9327918,-10.5424272,1.8907614,9.17878716,2.03973048,-18.8216703
3.6399999999999997,364,0.08199999999999999,-0.10300000000000001,-0.9620000000000001,4.2398892,-12.3758928,3.0366774,9.224623800000002,1.91367972,-18.81594072
3.65,365,0.043,-0.141,-1.043,2.8074942000000003,-13.980175199999998,3.5523396000000003,9.24181254,1.77044022,-18.80448156
3.6599999999999997,366,-0.006999999999999999,-0.182,-1.105,3.1512689999999997,-15.469866,4.8701430000000006,9.27619002,1.61001198,-18.78729282
3.67,367,-0.053,-0.19399999999999998,-1.087,7.0473834,-16.2147114,7.3911582,9.350674559999998,1.43812458,-18.74145618
3.6799999999999997,368,-0.079,-0.198,-1.0590000000000002,11.8602306,-13.8655836,9.568398599999998,9.47672532,1.2891555,-18.67270122
3.69,369,-0.098,-0.17800000000000002,-1.026,13.2353298,-9.0527364,10.5424272,9.61423524,1.18602306,-18.5924871
3.6999999999999997,370,-0.064,-0.136,-0.976,11.0007936,0.40107059999999994,10.084060800000001,9.69444936,1.14018642,-18.4778955
3.71,371,-0.036000000000000004,-0.106,-0.9390000000000001,13.0634424,3.7242269999999995,9.3392154,9.83195928,1.16310474,-18.38049264
3.7199999999999998,372,-0.008,-0.109,-0.898,13.2926256,4.583664,7.734933000000002,9.969469199999999,1.19748222,-18.30027852
3.73,373,0.057999999999999996,-0.113,-0.836,11.2872726,8.9381448,4.8128472,10.084060800000001,1.27769634,-18.23152356
3.7399999999999998,374,0.124,-0.135,-0.836,5.72958,12.4331886,1.2032118,10.1413566,1.39801752,-18.197146080000003
3.75,375,0.158,-0.166,-0.884,-0.7448454000000001,13.980175199999998,-1.2032118,10.12989744,1.6157415599999996,-18.20860524
3.76,376,0.127,-0.193,-0.912,-3.8961144,14.7823164,-0.8594370000000001,10.08979038,1.75898106,-18.18568692
3.77,377,0.09699999999999999,-0.221,-0.9570000000000001,-5.9014674000000005,14.8396122,1.432395,10.026765,1.90222056,-18.13985028
3.78,378,0.055,-0.22399999999999998,-1.0070000000000001,-9.453807,14.7823164,4.5263682,9.92936214,2.0340009,-18.06536574
3.79,379,0.055999999999999994,-0.203,-1.033,-13.3499214,14.896907999999998,6.3025379999999975,9.797581800000001,2.17151082,-17.973692460000006
3.8,380,0.08,-0.16899999999999998,-1.064,-15.6990492,15.870936600000002,6.0160589999999985,9.63142398,2.32620948,-17.88774876
3.81,381,0.131,-0.14,-1.0859999999999999,-16.2147114,16.042824000000003,3.7815228,9.46526616,2.46944898,-17.818993799999994
3.82,382,0.19,-0.121,-1.074,-15.813640800000002,13.8655836,0.9740286,9.30483792,2.6012293200000003,-17.77888674
3.83,383,0.21,-0.111,-1.0290000000000001,-15.6990492,8.307891,-1.7188740000000002,9.14440968,2.68717302,-17.78461632
3.84,384,0.20600000000000002,-0.102,-0.978,-14.896907999999998,4.010706000000001,-3.0366774,8.98971102,2.72728008,-17.80180506
3.8499999999999996,385,0.183,-0.09699999999999999,-0.96,-14.381245800000002,2.0626488000000003,-3.2658606,8.80063488,2.83041252,-17.85910086
3.86,386,0.157,-0.081,-0.9540000000000001,-14.4958374,1.3178034,-2.7501984,8.651665800000002,2.84760126,-17.88201918
3.8699999999999997,387,0.128,-0.064,-0.955,-14.037471,1.432395,-2.291832,8.5084263,2.86479,-17.899207920000006
3.88,388,0.106,-0.051,-0.968,-12.891555,2.1772404,-1.7188740000000002,8.376645960000001,2.88770832,-17.916396659999997
3.8899999999999997,389,0.094,-0.047,-0.995,-11.2299768,2.8074942000000003,-1.0313244000000001,8.262054359999999,2.91635622,-17.916396659999997
3.9,390,0.098,-0.039,-1.004,-9.224623800000002,2.1772404,-0.5156622000000001,8.03860074,2.9965703400000003,-17.94504456
3.9099999999999997,391,0.106,-0.03,-0.9940000000000001,-6.9327918,0.1718874,-0.572958,7.96984578,2.9965703400000003,-17.95077414
3.92,392,0.11599999999999999,-0.016,-0.986,-5.2139178,-1.3178034,-1.4896908000000002,7.91254998,2.98511118,-17.96796288
3.9299999999999997,393,0.121,-0.001,-0.983,-4.2398892,-1.8907614,-3.0939732,7.87244292,2.9736520200000003,-17.99661078
3.94,394,0.12300000000000001,0.012,-0.9840000000000001,-3.4377480000000005,-1.5469866,-5.0993262,7.8323358600000015,2.96219286,-18.05390658
3.9499999999999997,395,0.122,0.017,-0.985,-2.5210152000000003,-0.6302538000000001,-6.875496000000001,7.63753014,3.04240698,-18.15130944
3.96,396,0.115,0.01,-0.987,-1.6042823999999998,-0.1718874,-7.5630456000000015,7.61461182,3.05386614,-18.22579398
3.9699999999999998,397,0.111,0.008,-0.981,-0.6302538000000001,-0.2291832000000001,-7.161975,7.603152659999999,3.05959572,-18.30027852
3.98,398,0.106,0.012,-0.975,0.2291832000000001,-0.40107059999999994,-6.0160589999999985,7.603152659999999,3.0653253000000005,-18.35757432
3.9899999999999998,399,0.094,0.022000000000000002,-0.9740000000000001,0.572958,-0.40107059999999994,-4.5263682,7.60888224,3.0653253000000005,-18.40341096
4.0,400,0.086,0.035,-0.985,-0.1718874,0.572958,-3.6669312000000014,7.2192707999999985,3.1226211000000004,-18.47216592
4.01,401,0.08,0.047,-0.993,-0.572958,1.5469866,-2.9220858,7.20781164,3.1398098400000003,-18.50081382
4.02,402,0.07200000000000001,0.049,-0.992,0.0,1.7188740000000002,-2.1772404,7.20781164,3.1627281600000003,-18.518002560000006
4.03,403,0.063,0.045,-0.987,0.9167328000000001,0.9167328000000001,-1.3750992,7.2192707999999985,3.1741873200000006,-18.5351913
4.04,404,0.057999999999999996,0.034,-0.983,1.432395,0.286479,-0.4583664000000001,7.2307299600000015,3.1741873200000006,-18.5351913
4.05,405,0.062,0.023,-0.988,1.3750992,-0.2291832000000001,0.1718874,6.5088028799999975,3.1913760600000005,-18.58102794
4.06,406,0.076,0.01,-0.997,1.0313244000000001,-0.6875496,0.572958,6.52026204,3.18564648,-18.57529836
4.07,407,0.08,0.001,-1.012,0.7448454000000001,-1.6042823999999998,0.5156622000000001,6.5317212,3.16845774,-18.56956878
4.08,408,0.079,-0.006999999999999999,-1.01,0.5156622000000001,-2.5783110000000002,0.1718874,6.53745078,3.1398098400000003,-18.57529836
4.09,409,0.091,-0.016,-0.998,-1.2605076000000002,-0.5156622000000001,-0.1718874,6.52026204,3.13408026,-18.57529836
4.1,410,0.11199999999999999,-0.013000000000000001,-1.0090000000000001,-3.0366774,2.6356068,-0.40107059999999994,6.34264506,3.2486718599999995,-18.60967584
4.109999999999999,411,0.12300000000000001,-0.017,-1.02,-2.8074942000000003,1.6042823999999998,-0.286479,6.31399716,3.2658606,-18.60967584
4.12,412,0.133,-0.028999999999999998,-1.0090000000000001,-2.9220858,-0.11459160000000004,0.1718874,6.2853492599999985,3.2658606,-18.60967584
4.13,413,0.138,-0.023,-0.99,-2.0053530000000004,-0.1718874,0.6875496,6.26243094,3.26013102,-18.60394626
4.14,414,0.142,-0.031,-0.9470000000000001,0.1718874,0.5156622000000001,0.7448454000000001,6.26816052,3.2658606,-18.5924871
4.1499999999999995,415,0.141,-0.054000000000000006,-0.9420000000000001,0.9167328000000001,2.0053530000000004,0.40107059999999994,6.13638018,3.4950437999999995,-18.65551248
4.16,416,0.12300000000000001,-0.07200000000000001,-0.9420000000000001,1.145916,1.7761698000000001,0.572958,6.147839339999999,3.5122325400000003,-18.6497829
4.17,417,0.106,-0.087,-0.9440000000000001,1.6615782,2.1199446,0.9740286,6.165028080000001,3.5351508600000003,-18.63832374
4.18,418,0.083,-0.098,-0.9540000000000001,1.3750992,3.4377480000000005,1.8334656000000005,6.18221682,3.56379876,-18.61540542
4.1899999999999995,419,0.068,-0.094,-0.968,0.11459160000000004,5.5003968,2.4637194,6.1879464,3.61536498,-18.58102794
4.2,420,0.066,-0.085,-0.9840000000000001,-0.4583664000000001,7.6203414,2.5210152000000003,6.14210976,3.68411994,-18.54665046
4.21,421,0.07200000000000001,-0.077,-1.002,-0.286479,9.3392154,2.0626488000000003,6.14210976,3.77579322,-18.51227298
4.22,422,0.091,-0.076,-1.016,-0.2291832000000001,10.2559482,1.0886202,6.14210976,3.873196080000002,-18.48935466
4.2299999999999995,423,0.11599999999999999,-0.075,-1.018,-0.7448454000000001,10.1986524,0.3437748,6.130650600000001,3.97632852,-18.47216592
4.24,424,0.138,-0.075,-1.011,-1.4896908000000002,8.3651868,0.0,6.113461859999999,4.05654264,-18.46070676
4.25,425,0.154,-0.07400000000000001,-1.0090000000000001,-2.291832,5.5003968,-0.11459160000000004,6.0275181600000005,4.22843004,-18.49508424
4.26,426,0.16,-0.067,-1.006,-2.7501984,2.6356068,-0.11459160000000004,5.99887026,4.25134836,-18.48935466
4.27,427,0.155,-0.062,-0.996,-2.9220858,0.0,-0.057295800000000015,5.97022236,4.25134836,-18.48935466
4.28,428,0.14400000000000002,-0.051,-0.99,-3.0939732,-1.9480572,0.1718874,5.93584488,4.23415962,-18.48935466
4.29,429,0.127,-0.034,-0.988,-2.5783110000000002,-3.2085647999999996,0.3437748,5.9129265600000025,4.19978214,-18.49508424
4.3,430,0.107,-0.019,-0.982,-1.432395,-3.8961144,0.3437748,5.6952025200000005,4.21697088,-18.52373214
4.31,431,0.096,-0.009000000000000001,-0.98,-0.1718874,-3.5523396000000003,0.3437748,5.68947294,4.1825934,-18.52373214
4.32,432,0.091,-0.005,-0.981,0.2291832000000001,-3.0939732,0.286479,5.6952025200000005,4.14821592,-18.52373214
4.33,433,0.09300000000000001,-0.003,-0.982,0.6875496,-2.4637194,0.40107059999999994,5.7009320999999975,4.1252976000000015,-18.52373214
4.34,434,0.098,-0.003,-0.982,1.2605076000000002,-1.7761698000000001,0.4583664000000001,5.71812084,4.10810886,-18.52373214
4.35,435,0.105,-0.004,-0.98,1.9480572,-0.8594370000000001,0.1718874,5.4144530999999985,4.19978214,-18.57529836
4.36,436,0.11,-0.009000000000000001,-0.9740000000000001,2.6356068,-0.286479,-0.286479,5.443101,4.19978214,-18.58102794
4.37,437,0.113,-0.015,-0.977,2.6356068,0.1718874,-1.0313244000000001,5.466019319999999,4.20551172,-18.58675752
4.38,438,0.114,-0.026000000000000002,-0.9840000000000001,2.4637194,0.8021411999999999,-1.4896908000000002,5.4946672199999975,4.211241299999998,-18.60394626
4.39,439,0.11199999999999999,-0.035,-0.9890000000000001,1.7761698000000001,1.6042823999999998,-1.2605076000000002,5.51185596,4.22843004,-18.61540542
4.3999999999999995,440,0.11,-0.042,-0.987,1.3178034,2.0626488000000003,-0.6302538000000001,5.339968560000001,4.33729206,-18.65551248
4.41,441,0.11,-0.040999999999999995,-0.985,0.8021411999999999,2.6929026,0.1718874,5.35142772,4.36593996,-18.6497829
4.42,442,0.11199999999999999,-0.036000000000000004,-0.985,0.40107059999999994,3.0366774,0.9740286,5.3571573,4.39458786,-18.63832374
4.43,443,0.114,-0.031,-0.986,0.11459160000000004,2.9220858,1.4896908000000002,5.3571573,4.42323576,-18.621135
4.4399999999999995,444,0.114,-0.024,-0.985,0.2291832000000001,2.5783110000000002,1.6042823999999998,5.3628868800000005,4.44615408,-18.59821668
4.45,445,0.11199999999999999,-0.016,-0.9840000000000001,0.5156622000000001,2.1772404,1.3750992,5.1566220000000005,4.53209778,-18.621135
4.46,446,0.111,-0.013000000000000001,-0.9840000000000001,0.8021411999999999,2.0053530000000004,0.8021411999999999,5.16808116,4.5550161000000005,-18.60967584
4.47,447,0.113,-0.019,-0.991,1.2032118,1.8907614,0.2291832000000001,5.17954032,4.57220484,-18.60394626
4.4799999999999995,448,0.115,-0.027999999999999997,-0.996,1.3750992,1.4896908000000002,-0.2291832000000001,5.19099948,4.58939358,-18.60394626
4.49,449,0.11699999999999999,-0.036000000000000004,-0.9940000000000001,1.5469866,0.9167328000000001,-0.6302538000000001,5.20818822,4.59512316,-18.60967584
4.5,450,0.12,-0.045,-0.992,1.5469866,0.5156622000000001,-0.8021411999999999,5.03630082,4.71544434,-18.66697164
4.51,451,0.122,-0.048,-0.993,1.3178034,0.40107059999999994,-0.8594370000000001,5.05348956,4.72117392,-18.67270122
4.52,452,0.122,-0.051,-0.9890000000000001,0.9740286,0.3437748,-0.7448454000000001,5.05921914,4.7269035000000015,-18.6784308
4.53,453,0.12,-0.049,-0.983,0.6875496,0.286479,-0.4583664000000001,5.0706783,4.7269035000000015,-18.68416038
4.54,454,0.115,-0.046,-0.976,0.6302538000000001,0.4583664000000001,-0.40107059999999994,5.07640788,4.73263308,-18.68988996
4.55,455,0.113,-0.043,-0.9670000000000001,0.8021411999999999,0.6302538000000001,-0.40107059999999994,4.84722468,4.85295426,-18.74145618
4.56,456,0.113,-0.039,-0.9670000000000001,0.8594370000000001,0.9167328000000001,-0.6302538000000001,4.85295426,4.8586838399999985,-18.74718576
4.57,457,0.115,-0.036000000000000004,-0.97,0.8021411999999999,1.0886202,-0.6875496,4.8586838399999985,4.87587258,-18.75291534
4.58,458,0.11699999999999999,-0.034,-0.9740000000000001,0.8594370000000001,1.3178034,-0.8021411999999999,4.8701430000000006,4.88733174,-18.7643745
4.59,459,0.11900000000000001,-0.034,-0.978,0.9167328000000001,1.5469866,-0.7448454000000001,4.87587258,4.90452048,-18.77010408
4.6,460,0.121,-0.035,-0.985,0.8021411999999999,1.7188740000000002,-0.6302538000000001,4.70971476,5.0133825000000005,-18.81594072
4.61,461,0.122,-0.035,-0.985,0.6875496,1.7761698000000001,-0.5156622000000001,4.71544434,5.03057124,-18.81594072
4.62,462,0.12300000000000001,-0.036000000000000004,-0.985,0.6302538000000001,1.6615782,-0.1718874,4.72117392,5.04775998,-18.81594072
4.63,463,0.122,-0.038,-0.9840000000000001,0.4583664000000001,1.3750992,-0.057295800000000015,4.7269035000000015,5.05921914,-18.81594072
4.64,464,0.122,-0.037000000000000005,-0.987,0.5156622000000001,1.145916,0.0,4.73263308,5.0706783,-18.81594072
4.6499999999999995,465,0.12300000000000001,-0.036000000000000004,-0.988,0.7448454000000001,0.6875496,0.11459160000000004,4.40604702,5.24829528,-18.89042526
4.66,466,0.125,-0.035,-0.9890000000000001,0.8021411999999999,0.3437748,0.057295800000000015,4.4117766000000005,5.24829528,-18.89042526
4.67,467,0.124,-0.034,-0.99,0.9167328000000001,0.286479,0.0,4.42323576,5.25402486,-18.89042526
4.68,468,0.121,-0.035,-0.99,1.2032118,0.0,0.0,4.43469492,5.25402486,-18.89042526
4.6899999999999995,469,0.114,-0.037000000000000005,-0.985,1.3750992,-0.2291832000000001,-0.11459160000000004,4.44615408,5.24829528,-18.89042526
4.7,470,0.109,-0.039,-0.982,1.6042823999999998,-0.2291832000000001,-0.2291832000000001,4.25707794,5.29413192,-18.93053232
4.71,471,0.107,-0.038,-0.9790000000000001,1.5469866,-0.2291832000000001,-0.3437748,4.27426668,5.29413192,-18.93053232
4.72,472,0.10800000000000001,-0.036000000000000004,-0.978,1.4896908000000002,-0.057295800000000015,-0.40107059999999994,4.29145542,5.29413192,-18.9362619
4.7299999999999995,473,0.11,-0.036000000000000004,-0.98,1.432395,0.057295800000000015,-0.286479,4.30291458,5.29413192,-18.9362619
4.74,474,0.113,-0.036000000000000004,-0.98,1.4896908000000002,0.1718874,-0.1718874,4.3201033199999985,5.29413192,-18.94199148
4.75,475,0.11599999999999999,-0.038,-0.98,1.2605076000000002,0.4583664000000001,0.0,4.10810886,5.37434604,-18.982098540000006
4.76,476,0.11699999999999999,-0.036000000000000004,-0.9790000000000001,1.2605076000000002,0.6302538000000001,0.1718874,4.11956802,5.38007562,-18.982098540000006
4.77,477,0.11800000000000001,-0.036000000000000004,-0.98,1.145916,0.8021411999999999,0.1718874,4.13675676,5.39153478,-18.97636896
4.78,478,0.11800000000000001,-0.033,-0.986,1.0886202,1.0886202,0.1718874,4.14821592,5.40299394,-18.97636896
4.79,479,0.12,-0.03,-0.99,1.0886202,1.3178034,0.11459160000000004,4.15967508,5.4144530999999985,-18.97063938
4.8,480,0.122,-0.032,-0.9890000000000001,1.0313244000000001,1.3178034,0.057295800000000015,3.98778768,5.5003968,-19.00501686
4.81,481,0.122,-0.033,-0.987,1.0313244000000001,1.2032118,0.057295800000000015,3.99924684,5.51185596,-19.00501686
4.82,482,0.121,-0.035,-0.985,0.9167328000000001,1.0313244000000001,0.11459160000000004,4.00497642,5.52331512,-19.00501686
4.83,483,0.121,-0.037000000000000005,-0.983,0.7448454000000001,0.7448454000000001,0.11459160000000004,4.01643558,5.5290447,-18.99928728
4.84,484,0.12,-0.04,-0.98,0.6302538000000001,0.572958,0.057295800000000015,4.022165159999999,5.53477428,-18.99928728
4.85,485,0.11900000000000001,-0.040999999999999995,-0.9790000000000001,0.6302538000000001,0.40107059999999994,0.057295800000000015,3.73568616,5.64936588,-19.056583080000006
4.86,486,0.11800000000000001,-0.042,-0.98,0.7448454000000001,0.286479,0.0,3.74141574,5.65509546,-19.056583080000006
4.87,487,0.11800000000000001,-0.042,-0.981,0.6302538000000001,0.286479,0.0,3.74714532,5.65509546,-19.056583080000006
4.88,488,0.11800000000000001,-0.042,-0.982,0.6302538000000001,0.40107059999999994,0.0,3.75860448,5.66082504,-19.056583080000006
4.89,489,0.11800000000000001,-0.040999999999999995,-0.982,0.6875496,0.40107059999999994,0.0,3.76433406,5.66655462,-19.056583080000006
4.8999999999999995,490,0.11800000000000001,-0.04,-0.98,0.6875496,0.4583664000000001,0.0,3.51796212,5.7582279000000005,-19.10241972
4.91,491,0.11900000000000001,-0.04,-0.98,0.7448454000000001,0.5156622000000001,0.0,3.52942128,5.76395748,-19.10241972
4.92,492,0.12,-0.038,-0.9790000000000001,0.6302538000000001,0.6875496,-0.057295800000000015,3.5351508600000003,5.76968706,-19.10241972
4.93,493,0.122,-0.038,-0.983,0.7448454000000001,0.8594370000000001,-0.057295800000000015,3.54088044,5.781146219999999,-19.10241972
4.9399999999999995,494,0.125,-0.039,-0.987,0.8021411999999999,0.9167328000000001,0.0,3.5523396000000003,5.7868758,-19.10241972
4.95,495,0.125,-0.039,-0.987,0.8021411999999999,0.9167328000000001,0.0,3.39764094,5.86708992,-19.14252678
4.96,496,0.124,-0.039,-0.985,0.6875496,0.9167328000000001,0.0,3.40337052,5.87854908,-19.1367972
4.97,497,0.12300000000000001,-0.040999999999999995,-0.986,0.6875496,0.6875496,0.057295800000000015,3.4148296799999995,5.88427866,-19.1367972
4.9799999999999995,498,0.121,-0.039,-0.9840000000000001,0.7448454000000001,0.286479,0.0,3.42055926,5.89000824,-19.1367972
4.99,499,0.11900000000000001,-0.039,-0.9840000000000001,0.7448454000000001,0.2291832000000001,0.0,3.42628884,5.89000824,-19.1367972
5.0,500,0.11800000000000001,-0.039,-0.981,0.7448454000000001,0.1718874,-0.057295800000000015,3.2085648000000004,5.94157446,-19.17690426
5.01,501,0.11800000000000001,-0.038,-0.981,0.9167328000000001,0.2291832000000001,0.0,3.22002396,5.94157446,-19.17690426
5.02,502,0.11900000000000001,-0.039,-0.981,0.8594370000000001,0.1718874,0.0,3.2314831199999987,5.9473040400000015,-19.17690426
5.03,503,0.11800000000000001,-0.039,-0.982,0.9167328000000001,0.1718874,0.0,3.2372127,5.9473040400000015,-19.17690426
5.04,504,0.11800000000000001,-0.039,-0.983,1.0886202,0.11459160000000004,0.0,3.2486718599999995,5.9473040400000015,-19.17690426
5.05,505,0.11800000000000001,-0.038,-0.9840000000000001,1.2032118,0.11459160000000004,-0.057295800000000015,3.1054323600000004,5.9874111,-19.19982258
5.06,506,0.11900000000000001,-0.04,-0.983,1.145916,0.057295800000000015,-0.11459160000000004,3.11689152,5.9874111,-19.20555216
5.07,507,0.11900000000000001,-0.040999999999999995,-0.9790000000000001,0.9740286,0.11459160000000004,-0.1718874,3.12835068,5.9874111,-19.20555216
5.08,508,0.11900000000000001,-0.040999999999999995,-0.978,0.6875496,0.2291832000000001,-0.057295800000000015,3.13408026,5.9931406800000016,-19.20555216
5.09,509,0.12,-0.040999999999999995,-0.978,0.5156622000000001,0.286479,-0.11459160000000004,3.1398098400000003,5.9931406800000016,-19.20555216
5.1,510,0.11900000000000001,-0.04,-0.978,-0.11459160000000004,0.286479,-0.11459160000000004,2.9220857999999996,6.06189564,-19.2513888
5.11,511,0.12,-0.039,-0.978,-0.572958,0.2291832000000001,-0.057295800000000015,2.91635622,6.06189564,-19.2513888
5.12,512,0.12,-0.037000000000000005,-0.982,-0.572958,0.1718874,-0.11459160000000004,2.91062664,6.067625219999999,-19.2513888
5.13,513,0.121,-0.039,-0.985,-0.5156622000000001,0.1718874,-0.11459160000000004,2.90489706,6.067625219999999,-19.2513888
5.14,514,0.12300000000000001,-0.039,-0.986,-0.286479,0.11459160000000004,-0.057295800000000015,2.90489706,6.067625219999999,-19.2513888
5.1499999999999995,515,0.124,-0.04,-0.9890000000000001,-0.1718874,0.0,-0.11459160000000004,2.45226024,6.22232388,-19.34306208
5.16,516,0.125,-0.040999999999999995,-0.985,-0.11459160000000004,-0.1718874,-0.11459160000000004,2.44653066,6.22232388,-19.34879166
5.17,517,0.125,-0.040999999999999995,-0.985,-0.057295800000000015,-0.40107059999999994,-0.11459160000000004,2.44653066,6.2165943,-19.34879166
5.18,518,0.122,-0.040999999999999995,-0.982,-0.2291832000000001,-0.40107059999999994,-0.057295800000000015,2.44653066,6.210864720000001,-19.34879166
5.1899999999999995,519,0.12,-0.042,-0.9790000000000001,-0.286479,-0.40107059999999994,-0.057295800000000015,2.44080108,6.210864720000001,-19.34879166
5.2,520,0.11699999999999999,-0.040999999999999995,-0.978,-0.2291832000000001,-0.1718874,0.0,2.14286292,6.23951262,-19.3946283
5.21,521,0.11699999999999999,-0.040999999999999995,-0.9790000000000001,-0.286479,0.11459160000000004,-0.057295800000000015,2.13713334,6.2452422000000025,-19.40035788
5.22,522,0.11800000000000001,-0.039,-0.982,-0.3437748,0.2291832000000001,-0.11459160000000004,2.13140376,6.2452422000000025,-19.40035788
5.2299999999999995,523,0.11900000000000001,-0.040999999999999995,-0.982,-0.3437748,0.1718874,-0.1718874,2.13140376,6.25097178,-19.40035788
5.24,524,0.12,-0.039,-0.983,-0.3437748,0.0,-0.1718874,2.12567418,6.25097178,-19.40035788
5.25,525,0.121,-0.039,-0.985,-0.286479,0.0,-0.11459160000000004,1.9595163600000003,6.3025379999999975,-19.43473536
5.26,526,0.122,-0.04,-0.986,-0.2291832000000001,0.0,-0.11459160000000004,1.95378678,6.3025379999999975,-19.44046494
5.27,527,0.124,-0.04,-0.985,-0.2291832000000001,0.0,0.0,1.95378678,6.3025379999999975,-19.44046494
5.28,528,0.122,-0.040999999999999995,-0.983,-0.1718874,0.0,0.057295800000000015,1.9480572000000005,6.3025379999999975,-19.43473536
5.29,529,0.122,-0.04,-0.982,-0.1718874,0.0,0.0,1.9480572000000005,6.3025379999999975,-19.43473536
5.3,530,0.122,-0.040999999999999995,-0.982,-0.2291832000000001,-0.11459160000000004,0.0,1.85638392,6.3311859,-19.45765368
5.31,531,0.12,-0.04,-0.981,-0.2291832000000001,-0.1718874,0.0,1.85638392,6.3311859,-19.45765368
5.32,532,0.121,-0.039,-0.982,-0.11459160000000004,-0.11459160000000004,0.0,1.85638392,6.3311859,-19.45765368
5.33,533,0.121,-0.039,-0.982,-0.2291832000000001,-0.11459160000000004,0.0,1.85065434,6.3311859,-19.45765368
5.34,534,0.12,-0.040999999999999995,-0.981,-0.40107059999999994,0.0,-0.11459160000000004,1.84492476,6.3311859,-19.45765368
5.35,535,0.121,-0.04,-0.982,-0.5156622000000001,0.11459160000000004,-0.057295800000000015,1.7761698000000001,6.35410422,-19.46911284
5.36,536,0.122,-0.039,-0.9840000000000001,-0.5156622000000001,0.1718874,-0.11459160000000004,1.77044022,6.35410422,-19.46911284
5.37,537,0.12300000000000001,-0.039,-0.9840000000000001,-0.40107059999999994,-0.057295800000000015,-0.057295800000000015,1.77044022,6.35410422,-19.47484242
5.38,538,0.124,-0.038,-0.982,-0.3437748,-0.2291832000000001,0.0,1.76471064,6.35410422,-19.47484242
5.39,539,0.122,-0.04,-0.9790000000000001,-0.40107059999999994,-0.1718874,0.11459160000000004,1.75898106,6.348374640000001,-19.46911284
5.3999999999999995,540,0.12300000000000001,-0.04,-0.9790000000000001,-0.4583664000000001,-0.2291832000000001,0.057295800000000015,1.7074148399999998,6.3770225400000005,-19.480572
5.41,541,0.124,-0.040999999999999995,-0.9790000000000001,-0.3437748,-0.1718874,0.057295800000000015,1.70168526,6.3770225400000005,-19.480572
5.42,542,0.124,-0.043,-0.978,-0.40107059999999994,-0.2291832000000001,0.057295800000000015,1.6959556799999995,6.37129296,-19.480572
5.43,543,0.12,-0.043,-0.981,-0.3437748,-0.4583664000000001,0.11459160000000004,1.6959556799999995,6.3655633799999976,-19.480572
5.4399999999999995,544,0.122,-0.043,-0.986,-0.40107059999999994,-0.5156622000000001,0.057295800000000015,1.6902260999999998,6.3655633799999976,-19.480572
5.45,545,0.124,-0.043,-0.988,-0.4583664000000001,-0.2291832000000001,0.11459160000000004,1.64438946,6.3884817000000025,-19.48630158
5.46,546,0.125,-0.042,-0.9890000000000001,-0.5156622000000001,-0.057295800000000015,0.1718874,1.64438946,6.3884817000000025,-19.48630158
5.47,547,0.122,-0.04,-0.9890000000000001,-0.286479,0.0,0.1718874,1.6386598799999998,6.3884817000000025,-19.48630158
5.4799999999999995,548,0.11900000000000001,-0.038,-0.986,0.0,-0.2291832000000001,0.1718874,1.6386598799999998,6.3884817000000025,-19.480572
5.49,549,0.11599999999999999,-0.037000000000000005,-0.985,0.0,-0.3437748,0.057295800000000015,1.6386598799999998,6.382752120000001,-19.480572
5.5,550,0.115,-0.034,-0.981,0.0,-0.2291832000000001,0.0,1.50114996,6.37129296,-19.49776074
5.51,551,0.11599999999999999,-0.032,-0.978,0.11459160000000004,-0.1718874,-0.057295800000000015,1.50687954,6.37129296,-19.49776074
5.52,552,0.11800000000000001,-0.033,-0.975,0.1718874,0.0,-0.1718874,1.50687954,6.37129296,-19.50349032
5.53,553,0.12,-0.035,-0.978,0.057295800000000015,0.0,-0.057295800000000015,1.50687954,6.37129296,-19.50349032
5.54,554,0.121,-0.038,-0.98,0.0,0.0,-0.057295800000000015,1.50687954,6.37129296,-19.50349032
5.55,555,0.121,-0.037000000000000005,-0.9840000000000001,0.0,0.0,0.0,1.32353298,6.4228591800000014,-19.5378678
5.56,556,0.122,-0.038,-0.985,0.0,-0.057295800000000015,-0.057295800000000015,1.32353298,6.4228591800000014,-19.5378678
5.57,557,0.12300000000000001,-0.038,-0.987,0.0,-0.11459160000000004,0.0,1.32353298,6.4228591800000014,-19.5378678
5.58,558,0.124,-0.038,-0.988,-0.057295800000000015,-0.1718874,0.057295800000000015,1.32353298,6.417129600000001,-19.5378678
5.59,559,0.125,-0.037000000000000005,-0.987,0.057295800000000015,-0.2291832000000001,0.1718874,1.32353298,6.417129600000001,-19.5378678
5.6,560,0.124,-0.04,-0.9840000000000001,0.0,-0.1718874,0.1718874,1.30634424,6.4400479200000005,-19.54359738
5.61,561,0.12300000000000001,-0.039,-0.983,0.0,-0.1718874,0.11459160000000004,1.30634424,6.4400479200000005,-19.5378678
5.62,562,0.121,-0.040999999999999995,-0.983,-0.057295800000000015,0.057295800000000015,0.057295800000000015,1.30634424,6.4400479200000005,-19.5378678
5.63,563,0.12300000000000001,-0.04,-0.9790000000000001,-0.057295800000000015,0.1718874,0.0,1.30634424,6.4400479200000005,-19.5378678
5.64,564,0.12300000000000001,-0.040999999999999995,-0.9790000000000001,0.0,0.1718874,0.0,1.30634424,6.4400479200000005,-19.5378678
5.6499999999999995,565,0.125,-0.04,-0.982,0.0,0.11459160000000004,0.057295800000000015,1.2605076000000002,6.48588456,-19.54932696
5.66,566,0.12300000000000001,-0.039,-0.983,0.0,0.0,0.11459160000000004,1.2605076000000002,6.48588456,-19.54932696
5.67,567,0.12300000000000001,-0.038,-0.983,0.0,-0.1718874,0.11459160000000004,1.2605076000000002,6.48015498,-19.54932696
5.68,568,0.12300000000000001,-0.04,-0.983,0.11459160000000004,-0.286479,0.057295800000000015,1.2605076000000002,6.48015498,-19.54932696
5.6899999999999995,569,0.121,-0.04,-0.983,0.286479,-0.286479,0.057295800000000015,1.26623718,6.4744253999999986,-19.54932696
5.7,570,0.12,-0.043,-0.981,0.2291832000000001,-0.1718874,0.0,1.27196676,6.4686958200000015,-19.54932696
5.71,571,0.11800000000000001,-0.044000000000000004,-0.9790000000000001,0.286479,-0.057295800000000015,-0.057295800000000015,1.27196676,6.4686958200000015,-19.54932696
5.72,572,0.11900000000000001,-0.042,-0.98,0.2291832000000001,0.0,-0.11459160000000004,1.27769634,6.4686958200000015,-19.54932696
5.7299999999999995,573,0.121,-0.039,-0.985,0.057295800000000015,0.286479,-0.057295800000000015,1.27769634,6.4744253999999986,-19.54932696
5.74,574,0.122,-0.035,-0.9890000000000001,0.0,0.4583664000000001,-0.057295800000000015,1.27769634,6.48015498,-19.54932696
5.75,575,0.121,-0.036000000000000004,-0.9890000000000001,0.11459160000000004,0.286479,0.0,1.23758928,6.48015498,-19.55505654
5.76,576,0.11900000000000001,-0.038,-0.985,0.1718874,0.057295800000000015,0.057295800000000015,1.24331886,6.48015498,-19.55505654
5.77,577,0.11800000000000001,-0.039,-0.983,0.1718874,-0.11459160000000004,0.057295800000000015,1.24331886,6.48015498,-19.55505654
5.78,578,0.11800000000000001,-0.038,-0.9790000000000001,0.057295800000000015,-0.11459160000000004,0.0,1.24331886,6.48015498,-19.55505654
5.79,579,0.11900000000000001,-0.036000000000000004,-0.9790000000000001,0.057295800000000015,-0.057295800000000015,0.0,1.24331886,6.48015498,-19.55505654
5.8,580,0.11900000000000001,-0.034,-0.981,0.2291832000000001,-0.1718874,0.0,1.19748222,6.4744253999999986,-19.56078612
5.81,581,0.12,-0.036000000000000004,-0.9840000000000001,0.2291832000000001,-0.11459160000000004,0.0,1.2032117999999998,6.4744253999999986,-19.56078612
5.82,582,0.122,-0.036000000000000004,-0.9840000000000001,0.2291832000000001,-0.057295800000000015,0.057295800000000015,1.2032117999999998,6.4744253999999986,-19.56078612
5.83,583,0.122,-0.036000000000000004,-0.983,0.11459160000000004,-0.11459160000000004,0.0,1.2032117999999998,6.4744253999999986,-19.56078612
5.84,584,0.12300000000000001,-0.038,-0.9840000000000001,0.0,-0.057295800000000015,0.057295800000000015,1.2032117999999998,6.4744253999999986,-19.56078612
5.85,585,0.124,-0.037000000000000005,-0.982,0.0,0.0,0.057295800000000015,1.1573751600000002,6.51453246,-19.57224528
5.86,586,0.124,-0.037000000000000005,-0.982,-0.1718874,0.11459160000000004,0.0,1.1573751600000002,6.51453246,-19.57224528
5.87,587,0.122,-0.038,-0.982,-0.2291832000000001,0.3437748,0.057295800000000015,1.15164558,6.51453246,-19.57224528
5.88,588,0.12300000000000001,-0.039,-0.981,-0.057295800000000015,0.1718874,0.0,1.15164558,6.52026204,-19.5665157
5.89,589,0.122,-0.039,-0.981,-0.11459160000000004,0.1718874,0.0,1.15164558,6.52026204,-19.5665157
5.8999999999999995,590,0.122,-0.038,-0.9840000000000001,-0.11459160000000004,0.057295800000000015,0.0,1.12872726,6.543180359999999,-19.57224528
5.91,591,0.122,-0.037000000000000005,-0.9840000000000001,0.0,0.0,0.0,1.12872726,6.543180359999999,-19.57224528
5.92,592,0.121,-0.038,-0.986,0.0,0.057295800000000015,0.0,1.12872726,6.543180359999999,-19.57224528
5.93,593,0.121,-0.038,-0.985,0.0,0.11459160000000004,0.0,1.12299768,6.543180359999999,-19.57224528
5.9399999999999995,594,0.12300000000000001,-0.038,-0.983,0.0,0.11459160000000004,0.0,1.12299768,6.543180359999999,-19.57224528
5.95,595,0.122,-0.04,-0.982,0.0,0.057295800000000015,0.057295800000000015,1.12299768,6.5718282599999975,-19.57797486
5.96,596,0.122,-0.039,-0.98,-0.057295800000000015,0.057295800000000015,0.0,1.12299768,6.5718282599999975,-19.57797486
5.97,597,0.122,-0.04,-0.98,-0.057295800000000015,0.0,0.0,1.1172681,6.5718282599999975,-19.57797486
5.9799999999999995,598,0.12,-0.04,-0.98,-0.057295800000000015,0.0,0.0,1.1172681,6.5718282599999975,-19.57797486
5.99,599,0.121,-0.04,-0.98,-0.11459160000000004,-0.057295800000000015,-0.057295800000000015,1.1172681,6.5718282599999975,-19.57797486
6.0,600,0.121,-0.039,-0.983,-0.1718874,0.0,-0.057295800000000015,1.10580894,6.566098679999999,-19.57797486
6.01,601,0.121,-0.038,-0.9840000000000001,-0.1718874,0.0,-0.057295800000000015,1.10580894,6.566098679999999,-19.57797486
6.02,602,0.121,-0.038,-0.9840000000000001,-0.057295800000000015,0.0,0.0,1.10580894,6.566098679999999,-19.57797486
6.03,603,0.121,-0.037000000000000005,-0.983,-0.057295800000000015,-0.057295800000000015,0.0,1.10580894,6.560369099999999,-19.57797486
6.04,604,0.122,-0.038,-0.983,0.0,-0.11459160000000004,0.0,1.10580894,6.560369099999999,-19.57797486
6.05,605,0.122,-0.038,-0.981,-0.1718874,-0.11459160000000004,0.0,1.09434978,6.560369099999999,-19.58370444
6.06,606,0.122,-0.038,-0.983,0.0,-0.1718874,0.0,1.0886202,6.560369099999999,-19.58370444
6.07,607,0.121,-0.038,-0.982,0.057295800000000015,-0.2291832000000001,-0.057295800000000015,1.09434978,6.5546395199999985,-19.58370444
6.08,608,0.122,-0.037000000000000005,-0.982,0.11459160000000004,-0.11459160000000004,-0.057295800000000015,1.09434978,6.5546395199999985,-19.58370444
6.09,609,0.122,-0.038,-0.982,0.2291832000000001,-0.11459160000000004,-0.057295800000000015,1.09434978,6.5546395199999985,-19.58370444
6.1,610,0.12300000000000001,-0.039,-0.982,0.2291832000000001,-0.1718874,-0.057295800000000015,1.0886202,6.5546395199999985,-19.58943402
6.11,611,0.12300000000000001,-0.039,-0.983,0.2291832000000001,-0.1718874,-0.057295800000000015,1.0886202,6.5546395199999985,-19.58943402
6.12,612,0.122,-0.037000000000000005,-0.983,0.057295800000000015,0.057295800000000015,-0.057295800000000015,1.0886202,6.5546395199999985,-19.58943402
6.13,613,0.122,-0.037000000000000005,-0.982,0.0,0.11459160000000004,0.0,1.0886202,6.5546395199999985,-19.58943402
6.14,614,0.122,-0.036000000000000004,-0.98,-0.1718874,0.11459160000000004,0.0,1.0886202,6.5546395199999985,-19.58943402
6.15,615,0.122,-0.037000000000000005,-0.981,-0.1718874,0.057295800000000015,-0.057295800000000015,1.07716104,6.566098679999999,-19.595163600000006
6.16,616,0.122,-0.038,-0.981,-0.11459160000000004,0.1718874,-0.11459160000000004,1.07716104,6.566098679999999,-19.595163600000006
6.17,617,0.122,-0.038,-0.981,-0.11459160000000004,0.11459160000000004,0.0,1.07716104,6.5718282599999975,-19.595163600000006
6.18,618,0.121,-0.037000000000000005,-0.981,-0.1718874,-0.057295800000000015,0.0,1.07143146,6.5718282599999975,-19.595163600000006
6.1899999999999995,619,0.12,-0.037000000000000005,-0.985,-0.2291832000000001,-0.057295800000000015,0.057295800000000015,1.07143146,6.566098679999999,-19.595163600000006
6.2,620,0.121,-0.036000000000000004,-0.986,-0.2291832000000001,0.0,0.057295800000000015,1.03705398,6.566098679999999,-19.595163600000006
6.21,621,0.121,-0.035,-0.985,-0.1718874,0.0,0.0,1.03705398,6.566098679999999,-19.595163600000006
6.22,622,0.121,-0.035,-0.986,-0.11459160000000004,0.0,0.057295800000000015,1.03705398,6.566098679999999,-19.595163600000006
6.2299999999999995,623,0.12,-0.036000000000000004,-0.982,-0.11459160000000004,0.0,0.0,1.0313244000000001,6.566098679999999,-19.595163600000006
6.24,624,0.12,-0.037000000000000005,-0.981,-0.286479,0.1718874,0.0,1.0313244000000001,6.566098679999999,-19.595163600000006
6.25,625,0.121,-0.037000000000000005,-0.983,-0.1718874,0.286479,0.0,1.01986524,6.5718282599999975,-19.595163600000006
6.26,626,0.122,-0.035,-0.983,-0.057295800000000015,0.11459160000000004,0.057295800000000015,1.01986524,6.5718282599999975,-19.595163600000006
6.27,627,0.122,-0.036000000000000004,-0.983,-0.057295800000000015,0.057295800000000015,0.0,1.01986524,6.5718282599999975,-19.595163600000006
6.28,628,0.121,-0.037000000000000005,-0.982,-0.057295800000000015,0.057295800000000015,0.0,1.01986524,6.5718282599999975,-19.595163600000006
6.29,629,0.122,-0.037000000000000005,-0.981,-0.1718874,0.2291832000000001,-0.1718874,1.01413566,6.57755784,-19.595163600000006
6.3,630,0.12300000000000001,-0.039,-0.98,-0.1718874,0.2291832000000001,-0.2291832000000001,1.01413566,6.58328742,-19.60089318
6.31,631,0.124,-0.040999999999999995,-0.981,-0.11459160000000004,0.057295800000000015,-0.057295800000000015,1.01413566,6.58328742,-19.60089318
6.32,632,0.12300000000000001,-0.042,-0.983,-0.1718874,-0.057295800000000015,-0.057295800000000015,1.01413566,6.58328742,-19.60089318
6.33,633,0.124,-0.040999999999999995,-0.9840000000000001,-0.2291832000000001,-0.2291832000000001,0.057295800000000015,1.00840608,6.58328742,-19.60089318
6.34,634,0.126,-0.039,-0.9840000000000001,-0.2291832000000001,-0.286479,0.2291832000000001,1.00840608,6.57755784,-19.60089318
6.35,635,0.126,-0.038,-0.985,-0.3437748,-0.11459160000000004,0.2291832000000001,1.0026765,6.58328742,-19.595163600000006
6.36,636,0.124,-0.036000000000000004,-0.988,-0.2291832000000001,-0.11459160000000004,0.2291832000000001,1.0026765,6.58328742,-19.595163600000006
6.37,637,0.121,-0.035,-0.988,0.11459160000000004,-0.3437748,0.1718874,1.0026765,6.57755784,-19.595163600000006
6.38,638,0.11900000000000001,-0.035,-0.987,0.286479,-0.286479,0.057295800000000015,1.00840608,6.5718282599999975,-19.58943402
6.39,639,0.11900000000000001,-0.034,-0.983,0.4583664000000001,-0.2291832000000001,0.0,1.00840608,6.5718282599999975,-19.58943402
6.4,640,0.12,-0.033,-0.9790000000000001,0.3437748,-0.3437748,-0.057295800000000015,1.0026765,6.566098679999999,-19.595163600000006
6.41,641,0.122,-0.033,-0.977,0.3437748,-0.286479,0.0,1.0026765,6.560369099999999,-19.595163600000006
6.42,642,0.121,-0.032,-0.9790000000000001,0.2291832000000001,-0.1718874,-0.057295800000000015,1.00840608,6.560369099999999,-19.595163600000006
6.43,643,0.122,-0.032,-0.981,0.1718874,-0.11459160000000004,-0.057295800000000015,1.00840608,6.560369099999999,-19.595163600000006
6.4399999999999995,644,0.122,-0.033,-0.983,0.1718874,-0.11459160000000004,-0.057295800000000015,1.00840608,6.560369099999999,-19.595163600000006
6.45,645,0.122,-0.034,-0.9840000000000001,0.1718874,-0.1718874,0.0,0.9969469199999998,6.560369099999999,-19.60089318
6.46,646,0.12300000000000001,-0.035,-0.9840000000000001,0.2291832000000001,-0.2291832000000001,0.0,0.9969469199999998,6.5546395199999985,-19.60089318
6.47,647,0.12300000000000001,-0.035,-0.9840000000000001,0.2291832000000001,-0.2291832000000001,0.0,0.9969469199999998,6.5546395199999985,-19.60089318
6.4799999999999995,648,0.122,-0.036000000000000004,-0.986,0.1718874,-0.11459160000000004,0.0,1.0026765,6.5546395199999985,-19.60089318
6.49,649,0.122,-0.036000000000000004,-0.986,0.2291832000000001,-0.1718874,0.0,1.0026765,6.54890994,-19.60089318
6.5,650,0.121,-0.036000000000000004,-0.9840000000000001,0.40107059999999994,-0.2291832000000001,0.0,1.00840608,6.5546395199999985,-19.60089318
6.51,651,0.122,-0.037000000000000005,-0.9840000000000001,0.2291832000000001,-0.057295800000000015,0.057295800000000015,1.00840608,6.5546395199999985,-19.60089318
6.52,652,0.121,-0.038,-0.983,0.11459160000000004,0.0,0.057295800000000015,1.00840608,6.5546395199999985,-19.60089318
6.53,653,0.121,-0.039,-0.981,0.057295800000000015,0.11459160000000004,0.057295800000000015,1.00840608,6.5546395199999985,-19.60089318
6.54,654,0.121,-0.038,-0.981,-0.057295800000000015,0.0,0.057295800000000015,1.00840608,6.5546395199999985,-19.60089318
6.55,655,0.121,-0.037000000000000005,-0.982,-0.1718874,-0.057295800000000015,0.11459160000000004,1.0026765,6.54890994,-19.60089318
