TimeStamp(s),FrameCounter,AccX,AccY,AccZ,GyrX,GyrY,GyrZ,EulerX,EulerY,EulerZ
0.01,1,0.009000000000000001,-0.999,0.139,-1.7761698,-0.6875496,-0.057295800000000015,97.01897814,1.0599723,-38.80071576
0.02,2,0.01,-0.996,0.14,-2.2345362,-1.3178034,-0.2291832000000001,96.99605982,1.06570188,-38.81217492
0.03,3,0.01,-0.994,0.141,-2.2345362,-1.2032118,-0.286479,96.9731415,1.07143146,-38.82363408
0.04,4,0.011,-0.994,0.141,-2.1199446,-1.0313244,-0.2291832000000001,96.95022318,1.07716104,-38.83509324
0.05,5,0.011,-0.994,0.14,-2.0053530000000004,-0.9167328,-0.2291832000000001,96.93303444,1.07716104,-38.8465524
0.060000000000000005,6,0.009000000000000001,-0.994,0.141,-1.7761698,-0.7448454000000001,-0.1718874,96.91011612,1.07716104,-38.85228198
0.06999999999999999,7,0.008,-0.995,0.14,-1.6042823999999998,-0.572958,-0.11459160000000004,96.89292738,1.08289062,-38.85801156
0.08,8,0.006,-0.993,0.14300000000000002,-1.3178034,-0.7448454000000001,-0.11459160000000004,96.88146822,1.08289062,-38.86374114
0.09,9,0.006999999999999999,-0.993,0.14300000000000002,-1.145916,-0.7448454000000001,-0.11459160000000004,96.87000906,1.0886202,-38.8752003
0.09999999999999999,10,0.006999999999999999,-0.993,0.14400000000000002,-1.0886202,-0.7448454000000001,-0.286479,96.86427948,1.07716104,-38.88092988
0.11,11,0.006999999999999999,-0.994,0.147,-1.2605076000000002,-0.6302538000000001,-0.4010706,96.85282032,1.08289062,-38.88665946
0.12,12,0.009000000000000001,-0.996,0.14800000000000002,-1.4896908000000002,-0.1718874,-0.4010706,96.84136116,1.0886202,-38.88665946
0.13,13,0.01,-0.996,0.145,-1.7188740000000002,0.2291832000000001,-0.5156622000000001,96.81844284,1.09434978,-38.88665946
0.14,14,0.009000000000000001,-0.998,0.145,-2.0053530000000004,0.4583664000000001,-0.5156622000000001,96.8012541,1.10007936,-38.88092988
0.15000000000000002,15,0.008,-0.998,0.14400000000000002,-2.1199446,0.4583664000000001,-0.572958,96.78406536,1.09434978,-38.8752003
0.16,16,0.006999999999999999,-0.998,0.145,-2.0626488000000003,0.057295800000000015,-0.6302538000000001,96.76687662,1.10007936,-38.8752003
0.17,17,0.005,-0.997,0.147,-2.0053530000000004,-0.057295800000000015,-0.7448454000000001,96.7439583,1.10580894,-38.8752003
0.18000000000000002,18,0.004,-0.997,0.153,-1.8907613999999997,0.057295800000000015,-0.8021411999999999,96.72676956,1.1172681,-38.8752003
0.19,19,0.005,-0.995,0.154,-1.8907613999999997,0.572958,-0.7448454000000001,96.70385124,1.12299768,-38.86374114
0.2,20,0.006999999999999999,-0.996,0.155,-2.1199446,1.145916,-0.6875496,96.70385124,1.1172681,-38.85228198
0.21000000000000002,21,0.006,-0.998,0.154,-2.2345362,1.5469866,-0.6302538000000001,96.68093292,1.12299768,-38.84082282
0.22,22,0.006999999999999999,-0.999,0.149,-2.3491278,1.7761698,-0.572958,96.65228502,1.12299768,-38.82363408
0.23,23,0.006999999999999999,-1.002,0.149,-2.2345362,1.6615782,-0.6302538000000001,96.6293667,1.12872726,-38.80071576
0.24000000000000002,24,0.008,-1.005,0.149,-2.2345362,1.3178034,-0.6875496,96.60644838,1.13445684,-38.7892566
0.25,25,0.006999999999999999,-1.006,0.15,-2.1772404,0.6875496,-0.8021411999999999,96.6007188,1.13445684,-38.78352702
0.26,26,0.008,-1.002,0.152,-2.2345362,0.057295800000000015,-0.8594370000000001,96.57780048,1.14018642,-38.78352702
0.27,27,0.006999999999999999,-0.996,0.156,-2.5210152000000003,-0.286479,-0.8594370000000001,96.55488216,1.15164558,-38.78352702
0.28,28,0.006,-0.991,0.156,-2.8074942000000003,0.0,-0.8021411999999999,96.52623426,1.1573751600000002,-38.78352702
0.29000000000000004,29,0.003,-0.991,0.155,-2.86479,0.11459160000000004,-0.6875496,96.49758636,1.16310474,-38.78352702
0.3,30,0.0,-0.994,0.152,-2.9793816000000004,0.286479,-0.6875496,96.4861272,1.1573751600000002,-38.77779744
0.31,31,-0.001,-0.997,0.151,-3.2085648,0.5156622000000001,-0.8021411999999999,96.45174972,1.16310474,-38.77206786000001
0.32,32,-0.002,-0.999,0.151,-3.2658606,0.7448454000000001,-0.9740286,96.41737224,1.1688343199999998,-38.76633828
0.33,33,-0.001,-0.999,0.15,-3.380452200000001,0.6302538000000001,-1.3178034,96.38299476,1.18029348,-38.75487912000001
0.34,34,-0.001,-0.994,0.152,-3.380452200000001,0.4583664000000001,-1.432395,96.34861728,1.19748222,-38.74914954000001
0.35000000000000003,35,0.0,-0.992,0.155,-3.3231564,0.4010706,-1.4896908000000002,96.33715812,1.19748222,-38.74914954000001
0.36000000000000004,36,0.001,-0.993,0.157,-3.2085648,0.3437748,-1.432395,96.30851022,1.20894138,-38.74341996
0.37,37,0.001,-0.993,0.16,-3.380452200000001,0.2291832000000001,-1.3178034,96.27413274,1.22040054,-38.73769038
0.38,38,0.001,-0.994,0.159,-3.4377480000000005,0.0,-1.2605076000000002,96.23402568,1.2318597,-38.73769038
0.39,39,0.0,-0.992,0.159,-3.2658606,-0.1718874,-1.3178034,96.20537778,1.24904844,-38.73769038
0.4,40,0.0,-0.991,0.158,-2.9220857999999996,-0.4583664000000001,-1.432395,96.19964819999998,1.24331886,-38.74341996
0.41000000000000003,41,-0.003,-0.992,0.159,-2.6356068,-0.7448454000000001,-1.5469866,96.17672988,1.2605076000000002,-38.74914954000001
0.42000000000000004,42,-0.006,-0.989,0.161,-2.6929026,-0.9167328,-1.6615782,96.14808198,1.27769634,-38.75487912000001
0.43,43,-0.008,-0.989,0.16399999999999998,-2.578311,-0.9740286,-1.8334656000000005,96.11943408,1.30061466,-38.76633828
0.44,44,-0.006,-0.991,0.16399999999999998,-2.3491278,-1.0886202,-2.0053530000000004,96.09651576,1.3178034,-38.77206786000001
0.45,45,-0.004,-0.995,0.163,-2.4064236,-1.6042823999999998,-2.3491278,96.09651576,1.32926256,-38.7892566
0.46,46,0.0,-0.997,0.16,-2.7501984,-2.1772404,-2.8074942000000003,96.06786786,1.36364004,-38.80644534
0.47000000000000003,47,0.005,-0.999,0.155,-2.9793816000000004,-2.8074942000000003,-3.2085648,96.03349038,1.39801752,-38.83509324
0.48000000000000004,48,0.011,-1.0,0.149,-3.151269,-3.0939732,-3.3231564,96.00484248,1.432395,-38.85801156
0.49,49,0.014,-0.998,0.142,-3.6096354,-3.2085648,-3.380452200000001,95.96473541999998,1.47250206,-38.88665946
0.5,50,0.006999999999999999,-0.993,0.14400000000000002,-4.297185,-2.9220857999999996,-3.380452200000001,95.93035794,1.50114996,-38.91530736
0.51,51,-0.009000000000000001,-0.991,0.15,-5.042030400000002,-2.291832,-3.4950437999999995,95.87879172,1.5412570200000002,-38.9324961
0.52,52,-0.012,-0.994,0.153,-6.1879464,-1.145916,-3.7815227999999994,95.81576634,1.5813640800000002,-38.94395526
0.53,53,0.004,-0.994,0.156,-7.1046792000000005,0.572958,-4.3544808,95.7412818,1.62147114,-38.9324961
0.54,54,0.012,-0.989,0.162,-7.5057497999999985,2.9793816000000004,-5.443101,95.66679726,1.67303736,-38.89811862
0.55,55,0.021,-0.997,0.158,-7.448453999999999,5.443101,-6.589017,95.60377188,1.73033316,-38.84082282
0.56,56,0.011,-1.0,0.14800000000000002,-8.307891,7.161975,-7.7922288,95.51782818,1.79908812,-38.76060870000001
0.5700000000000001,57,0.041,-0.995,0.13,-8.3651868,8.4224826,-7.5630456000000015,95.43188448,1.8621135,-38.67466500000001
0.5800000000000001,58,0.043,-0.967,0.121,-9.1100322,10.1413566,-7.333862400000001,95.34594078,1.9194093000000003,-38.56580298
0.59,59,0.043,-0.954,0.14,-8.479778399999999,12.1467096,-6.2452422,95.25999708,1.97097552,-38.445481799999996
0.6,60,0.039,-0.945,0.149,-9.6256944,13.6936962,-5.443101,95.17405338,2.005353,-38.30797188
0.61,61,0.038,-0.936,0.145,-11.8602306,14.7250206,-5.2139178,95.0537322,2.03973048,-38.1590028
0.62,62,0.038,-0.944,0.153,-12.605076,16.558486199999994,-5.5003968,94.92768144,2.07983754,-37.99284498
0.63,63,0.042,-0.969,0.158,-13.750992000000002,19.4232762,-6.016058999999999,94.7959011,2.11421502,-37.79803926
0.64,64,0.053,-0.998,0.149,-16.329303,22.173474600000002,-6.589017,94.63547286,2.15432208,-37.57458564
0.65,65,0.062,-1.028,0.136,-19.0222056,24.7517856,-6.5317212,94.44639672,2.19442914,-37.328213700000006
0.66,66,0.071,-1.05,0.121,-21.5432208,27.501984000000004,-5.6149884000000005,94.23440226,2.22307704,-37.05319386
0.67,67,0.08900000000000001,-1.0490000000000002,0.122,-23.5485738,30.5959572,-4.1252976000000015,94.00521906,2.22880662,-36.755255700000006
0.68,68,0.102,-1.023,0.133,-23.6058696,30.65325300000001,-2.7501984,93.77030628,2.22880662,-36.45158796
0.6900000000000001,69,0.107,-0.983,0.165,-20.798375399999998,27.6165756,-1.3178034,93.56977098,2.21161788,-36.18229770000001
0.7000000000000001,70,0.108,-0.959,0.205,-15.813640800000002,22.2307704,-0.11459160000000004,93.43226106,2.2058883,-35.96457366
0.7100000000000001,71,0.107,-0.964,0.248,-10.7716104,16.558486199999994,0.286479,93.32912862,2.18869956,-35.80414542
0.72,72,0.106,-0.996,0.28300000000000003,-7.8495246,11.745639,0.057295800000000015,93.24891449999998,2.1772404,-35.68955382
0.73,73,0.099,-1.055,0.304,-8.250595200000001,8.7089616,-1.0886202,93.16870038,2.1772404,-35.60361012
0.74,74,0.079,-1.129,0.31,-11.2872726,7.5057497999999985,-3.0366774,93.05410878,2.2058883,-35.52912558
0.75,75,0.055,-1.172,0.29100000000000004,-18.621135,8.8235532,-5.5003968,92.88222138,2.25172494,-35.4374523
0.76,76,0.038,-1.162,0.258,-24.637194,10.8289062,-7.3911582,92.63584944,2.3147503200000004,-35.32859028
0.77,77,0.027000000000000003,-1.105,0.22,-29.1062664,12.4331886,-8.651665800000002,92.34364086,2.38923486,-35.20826909999999
0.78,78,0.021,-1.035,0.19,-30.8824362,13.464512999999998,-9.2819196,92.03424354,2.46944898,-35.076488760000004
0.79,79,0.022,-0.969,0.168,-31.79916900000001,14.4385416,-9.5111028,91.71338706000002,2.55539268,-34.933249260000004
0.8,80,0.018000000000000002,-0.912,0.14800000000000002,-32.658606,15.469866,-9.3965112,91.39826016,2.6356068,-34.7785506
0.81,81,0.026,-0.875,0.13,-32.830493399999995,16.157415599999997,-8.9381448,91.06594452,2.71582092,-34.62385194
0.8200000000000001,82,0.037000000000000005,-0.858,0.112,-32.372127,15.813640800000002,-8.7089616,90.74508804,2.79030546,-34.46915328
0.8300000000000001,83,0.054000000000000006,-0.856,0.104,-31.741873200000004,14.7823164,-8.5370742,90.42996114,2.86479,-34.32591377999999
0.8400000000000001,84,0.07400000000000001,-0.867,0.1,-30.93973200000001,13.750992000000002,-8.193299399999999,90.12056382,2.93927454,-34.18840386
0.85,85,0.094,-0.8740000000000001,0.105,-29.8511118,12.7196676,-7.6203414,89.82835524000002,3.01948866,-34.06808268
0.86,86,0.119,-0.8809999999999999,0.12,-27.9603504,11.0007936,-6.8182002000000015,89.54760582,3.0825140400000004,-33.95922066
0.87,87,0.142,-0.888,0.14400000000000002,-26.298772200000002,8.5370742,-5.9014674000000005,89.28404514,3.13408026,-33.87900654
0.88,88,0.16399999999999998,-0.8909999999999999,0.171,-24.637194,5.3858052,-5.0993262,89.03767320000001,3.18564648,-33.82744032
0.89,89,0.177,-0.898,0.199,-22.459953600000002,1.432395,-4.4690724,88.80848999999998,3.2257535399999995,-33.81598116
0.9,90,0.18600000000000005,-0.91,0.231,-20.626488,-2.9793816000000004,-4.1252976000000015,88.64233218000004,3.2945085,-33.85035864
0.91,91,0.17,-0.936,0.256,-18.048177,-10.313244,-3.380452200000001,88.45325604000001,3.3231564,-33.95922066
0.92,92,0.153,-0.965,0.274,-16.615782,-16.042824000000003,-2.6356068,88.27563906,3.3518043,-34.1196489
0.93,93,0.145,-0.996,0.285,-15.985528200000001,-22.173474600000002,-1.9480572,88.10375166,3.3689930400000003,-34.343102519999995
0.9400000000000001,94,0.134,-1.018,0.273,-15.9282324,-27.6738714,-1.6042823999999998,87.93186426,3.380452200000001,-34.61812236
0.9500000000000001,95,0.129,-1.035,0.252,-16.501190400000002,-31.971056400000002,-1.9480572,87.77143602000002,3.40337052,-34.93897884
0.9600000000000001,96,0.133,-1.043,0.232,-17.7044022,-35.52339600000001,-2.4637194,87.57663029999998,3.42055926,-35.29421280000001
0.97,97,0.134,-1.05,0.219,-19.0795014,-38.61736920000001,-2.8074942000000003,87.36463583999998,3.44347758,-35.67809466
0.98,98,0.124,-1.053,0.212,-20.1108258,-41.3102718,-2.6356068,87.14118221999998,3.46066632,-36.09062442
0.99,99,0.104,-1.055,0.222,-19.595163600000006,-44.06047020000001,-2.0626488000000003,86.91772859999998,3.4663959,-36.53180208
1.0,100,0.069,-1.055,0.253,-17.0168526,-45.779344200000004,-0.8594370000000001,86.7458412,3.46066632,-36.99016848
1.01,101,0.046,-1.063,0.295,-11.9748222,-47.0971476,0.3437748,86.60260170000002,3.44347758,-37.45426446000001
1.02,102,0.039,-1.085,0.332,-7.1046792000000005,-47.841993,1.2605076000000002,86.51092842,3.4148296799999995,-37.9298196
1.03,103,0.056,-1.108,0.365,-3.380452200000001,-47.7274014,1.8907613999999997,86.45363262000002,3.380452200000001,-38.40537474
1.04,104,0.091,-1.134,0.388,-1.0886202,-46.8106686,1.6615782,86.42498472,3.34607472,-38.86374114
1.05,105,0.128,-1.171,0.384,0.4583664000000001,-45.779344200000004,0.7448454000000001,86.43071429999998,3.32888598,-39.32210754000001
1.06,106,0.156,-1.217,0.364,1.0313244,-45.4355694,-0.286479,86.41925513999998,3.31742682,-39.76901478
1.07,107,0.154,-1.241,0.35100000000000003,0.2291832000000001,-46.352302200000004,0.11459160000000004,86.40206640000002,3.30023808,-40.22738118
1.08,108,0.141,-1.259,0.336,-3.5523396000000003,-46.8106686,0.9740286,86.34477059999998,3.27159018,-40.69147716
1.09,109,0.114,-1.3159999999999998,0.312,-11.516455800000001,-41.1383844,0.4583664000000001,86.21299026,3.2486718599999995,-41.09827734
1.1,110,0.039,-1.402,0.235,-22.2880662,-24.1788276,-3.2085648,85.98380705999998,3.27159018,-41.34464928
1.11,111,-0.056,-1.484,0.163,-22.0015872,5.72958,-8.9954406,85.76035343999997,3.35753388,-41.29881264
1.12,112,-0.131,-1.5119999999999998,0.061,-7.6203414,34.950438,-13.464512999999998,85.69732806,3.50650296,-40.96076742
1.1300000000000001,113,-0.133,-1.435,-0.098,7.6776372,41.8832298,-11.6310474,85.79473092,3.6440128800000013,-40.55396724000001
1.1400000000000001,114,-0.02,-1.195,-0.204,15.9282324,23.6631654,-3.0939732,85.96661832,3.68411994,-40.31905446
1.1500000000000001,115,0.078,-1.02,-0.2,17.7044022,-4.3544808,6.990087599999999,86.12704656,3.62682414,-40.35916152
1.1600000000000001,116,0.153,-0.945,-0.195,16.4438946,-18.6784308,9.453807000000001,86.28174521999998,3.5236917,-40.5367785
1.17,117,0.191,-0.945,-0.22,17.0168526,-24.8090814,5.5576926,86.44790304,3.46066632,-40.77742086
1.18,118,0.202,-0.956,-0.234,18.334656,-26.9863218,-0.6875496,86.61979044,3.46066632,-41.04098154
1.19,119,0.196,-0.926,-0.21600000000000005,18.1054728,-29.7365202,-5.3858052,86.79167784,3.50650296,-41.33891970000001
1.2,120,0.155,-0.857,-0.122,15.3552744,-33.1742682,-6.875496000000001,86.92345818,3.5809875,-41.67123534
1.21,121,0.104,-0.8009999999999999,-0.01,7.7349330000000025,-31.22621100000001,-6.990087599999999,86.98648356,3.6382833,-41.98063266
1.22,122,0.058,-0.7609999999999999,0.006,-1.5469866,-22.345362,-7.8495246,86.96356524000002,3.71276784,-42.20408628
1.23,123,-0.001,-0.784,-0.054000000000000006,-8.479778399999999,-12.3758928,-9.9121734,86.86616238,3.810170700000002,-42.33586662
1.24,124,-0.104,-0.902,-0.106,-8.7662574,-7.0473834,-11.5737516,86.7744891,3.9190327200000006,-42.41035116
1.25,125,-0.16,-1.055,-0.14800000000000002,-7.5630456000000015,-4.6982556,-9.8548776,86.67135666,3.97059894,-42.47337654
1.26,126,-0.13,-1.16,-0.15,-5.958763200000001,-5.1566220000000005,-4.9847345999999995,86.60833127999999,4.022165159999999,-42.53067234
1.27,127,-0.029,-1.177,-0.136,-6.589017,-7.333862400000001,0.9167328,86.53957632,4.010706,-42.60515688
1.28,128,0.07400000000000001,-1.089,-0.129,-7.906820400000001,-9.167328,5.6149884000000005,86.45363262000002,3.94768062,-42.69110058
1.29,129,0.135,-0.949,-0.091,-5.5003968,-11.5737516,8.307891,86.39060724,3.86173692,-42.7999626
1.3,130,0.136,-0.81,-0.042,-0.7448454000000001,-14.4385416,10.599723,86.37341849999999,3.75860448,-42.93747252
1.31,131,0.096,-0.736,-0.01,3.9534102,-16.902261,12.6623718,86.40779597999996,3.62682414,-43.09790076
1.32,132,0.03,-0.6970000000000001,0.01,5.7868758000000025,-15.6417534,13.750992000000002,86.4593622,3.48931422,-43.24686984
1.33,133,-0.026,-0.6809999999999999,0.018000000000000002,7.2765666,-11.9748222,13.9228794,86.52811716,3.34607472,-43.35573186000001
1.34,134,-0.081,-0.68,0.003,8.479778399999999,-8.021412000000002,12.891555,86.61406086000002,3.214294380000001,-43.42448682
1.35,135,-0.102,-0.685,0.004,9.6829902,-3.9534102,10.5424272,86.71146372000004,3.0939732,-43.4588643
1.36,136,-0.105,-0.69,0.021,8.9954406,0.6302538000000001,7.3911582,86.80886658,3.02521824,-43.44740514
1.37,137,-0.103,-0.6920000000000001,0.043,6.016058999999999,6.703608600000001,4.0680017999999984,86.87189196,2.98511118,-43.37865018
1.3800000000000001,138,-0.105,-0.68,0.062,2.9793816000000004,13.5791046,0.8021411999999999,86.90626943999996,2.9793816000000004,-43.24114026
1.3900000000000001,139,-0.105,-0.6779999999999999,0.07,0.8594370000000001,21.6005166,-1.145916,86.92345818,2.9965703400000003,-43.029145799999995
1.4000000000000001,140,-0.11,-0.6890000000000001,0.085,1.432395,27.3873924,-2.291832,86.95783566,3.0137590800000003,-42.75985554
1.4100000000000001,141,-0.11,-0.7240000000000001,0.114,2.86479,32.7159018,-2.7501984,87.0036723,3.04813656,-42.43899906
1.42,142,-0.119,-0.777,0.152,3.0939732,37.9298196,-2.9793816000000004,87.04950894,3.08824362,-42.06657636
1.43,143,-0.13,-0.8390000000000001,0.191,1.9480572,43.3729206,-2.4064236,87.08388642,3.1226211000000004,-41.636857860000006
1.44,144,-0.127,-0.906,0.235,-0.286479,49.388979600000006,-1.3178034,87.10107516000002,3.14553942,-41.14984356
1.45,145,-0.124,-0.956,0.231,-2.1199446,54.4883058,-0.3437748,87.12399348,3.14553942,-40.61126304
1.46,146,-0.113,-0.993,0.14300000000000002,-0.11459160000000004,58.3271244,0.0,87.14691180000001,3.15699858,-40.03257546
1.47,147,-0.113,-1.028,0.081,7.2765666,62.051351399999994,-0.2291832000000001,87.25004424,3.1741873200000006,-39.4195104
1.48,148,-0.097,-1.044,0.116,11.0580894,65.66098679999999,0.2291832000000001,87.38755416000002,3.18564648,-38.76633828
1.49,149,-0.07,-1.0490000000000002,0.23,9.5111028,69.32791800000001,2.1772404,87.51360492,3.1741873200000006,-38.07878868
1.5,150,-0.056,-1.032,0.34700000000000003,2.578311,73.338624,4.8701430000000006,87.59954862,3.12835068,-37.3568616
1.51,151,-0.05,-1.04,0.431,-2.8074942000000003,79.24009140000003,7.333862400000001,87.59954862,3.07105488,-36.56617956
1.52,152,-0.078,-1.08,0.46,-1.7761698,83.0216142,9.740286,87.61673736,2.98511118,-35.74112004000001
1.53,153,-0.062,-1.21,0.459,10.0840608,83.4799806,11.45916,87.74851770000002,2.88197874,-34.91033094
1.54,154,0.041,-1.511,0.433,23.835052800000003,78.4379502,10.599723,88.01780796,2.78457588,-34.12537848
1.55,155,0.155,-1.742,0.403,28.074942,63.48374640000001,8.59437,88.32720528,2.70436176,-33.49512468
1.56,156,0.197,-1.721,0.476,18.2773602,49.04520479999999,6.9327918,88.53347016000002,2.6356068,-33.002380800000005
1.57,157,0.172,-1.547,0.612,10.1413566,36.8411994,4.8701430000000006,88.64806175999998,2.58977016,-32.635687680000004
1.58,158,0.108,-1.368,0.68,5.2712136,22.86102420000001,3.0939732,88.70535756,2.55539268,-32.41223406
1.59,159,0.03,-1.2819999999999998,0.58,1.8334656000000005,9.740286,0.9740286,88.72827588,2.54393352,-32.3148312
1.6,160,0.051,-1.324,0.17,1.7761698,11.8029348,0.2291832000000001,88.7511942,2.54393352,-32.19451002
1.61,161,0.269,-1.501,-0.416,9.6256944,27.3873924,6.703608600000001,88.85432664,2.47517856,-31.91949018
1.62,162,0.563,-1.753,-0.7040000000000001,14.8396122,17.5325148,23.7204612,89.01475488,2.24026578,-31.7418732
1.6300000000000001,163,0.563,-1.524,-0.54,14.152062599999999,-4.8701430000000006,36.2109456,89.15799438,1.88503182,-31.78198026
1.6400000000000001,164,0.378,-1.138,-0.34700000000000003,13.2353298,-12.0894138,36.669312,89.28977472,1.52406828,-31.89657186
1.6500000000000001,165,0.129,-0.895,-0.198,9.6829902,-7.906820400000001,34.7785506,89.36998884,1.18029348,-31.97678598
1.6600000000000001,166,-0.084,-0.7609999999999999,-0.134,5.9014674000000005,0.4583664000000001,34.8358464,89.42728464000002,0.83651868,-31.965326819999994
1.6700000000000002,167,-0.17800000000000002,-0.723,-0.119,2.9793816000000004,-1.6615782,35.6379876,89.46166212,0.48128472,-31.982515560000003
1.68,168,-0.199,-0.81,-0.198,-2.6929026,-21.199446,40.5081306,89.43301421999998,0.08021412,-32.18878044
1.69,169,-0.091,-1.007,-0.262,-8.250595200000001,-43.65939960000001,47.0398518,89.35852968,-0.3724227000000001,-32.618498939999995
1.7,170,0.133,-1.262,-0.243,-10.5424272,-55.92070079999999,51.10785360000001,89.26112682,-0.86516658,-33.16853862
1.71,171,0.29600000000000004,-1.476,-0.189,-7.8495246,-54.717489,45.6074568,89.19810143999999,-1.31207382,-33.70711914
1.72,172,0.266,-1.524,-0.149,-11.5737516,-44.51883660000001,28.762491600000004,89.10069858,-1.59282324,-34.14256722
1.73,173,0.158,-1.367,-0.111,-17.0741484,-34.2055926,6.8182002000000015,88.94027034,-1.6615782,-34.48061244
1.74,174,0.102,-1.132,-0.08,-18.2773602,-28.7051958,-8.8235532,88.76838294000002,-1.56990492,-34.772821019999995
1.75,175,0.06,-0.939,-0.054000000000000006,-12.605076,-24.8090814,-16.959556799999998,88.64233218000004,-1.39801752,-35.01919296
1.76,176,-0.009000000000000001,-0.7979999999999999,-0.046,-8.651665800000002,-20.626488,-19.0795014,88.56211806,-1.20894138,-35.23118742
1.77,177,-0.064,-0.684,-0.035,-6.3025379999999975,-17.475219,-17.7044022,88.50482226,-1.0313244,-35.408804399999994
1.78,178,-0.123,-0.602,-0.048,-4.297185,-16.501190400000002,-15.183387000000002,88.4647152,-0.8823553199999999,-35.57496222
1.79,179,-0.16,-0.54,-0.065,-3.5523396000000003,-17.246035799999998,-12.0894138,88.43033772,-0.76203414,-35.74684962
1.8,180,-0.14300000000000002,-0.502,-0.047,-3.8961144,-19.5378678,-9.568398599999998,88.39596024,-0.67609044,-35.94738492000001
1.81,181,-0.094,-0.494,-0.017,-3.724227,-22.2307704,-7.333862400000001,88.36158276,-0.6016058999999999,-36.17083854
1.82,182,-0.034,-0.5,-0.016,-4.2398892,-24.0069402,-6.2452422,88.3214757,-0.53858052,-36.4114809
1.83,183,0.04,-0.5,-0.017,-4.8701430000000006,-26.298772200000002,-5.958763200000001,88.28136864,-0.48128472,-36.66931200000001
1.84,184,0.129,-0.478,-0.022,-6.8182002000000015,-29.9657034,-5.3858052,88.21834326000004,-0.4297185000000001,-36.97297974
1.85,185,0.207,-0.476,-0.029,-7.1046792000000005,-35.809875,-4.1252976000000015,88.14958829999998,-0.3724227000000001,-37.328213700000006
1.86,186,0.255,-0.491,-0.025,-8.021412000000002,-43.77399120000001,-2.0626488000000003,88.07510376,-0.35523396,-37.76366178
1.87,187,0.275,-0.54,-0.011,-9.568398599999998,-57.35309579999999,1.2605076000000002,87.98916005999996,-0.3724227000000001,-38.330890200000006
1.8800000000000001,188,0.254,-0.619,0.001,-11.229976800000001,-70.6457214,4.4690724,87.88602762000002,-0.42398892,-39.02989896
1.8900000000000001,189,0.207,-0.711,0.026,-12.0894138,-82.1048814,7.2765666,87.78289518,-0.5042030399999999,-39.83776974
1.9000000000000001,190,0.152,-0.8029999999999999,0.066,-10.1986524,-87.6052782,8.9381448,87.70841064,-0.59587632,-40.70293632
1.9100000000000001,191,0.1,-0.887,0.153,-4.8701430000000006,-87.6052782,8.7662574,87.67976274,-0.69327918,-41.5681029
1.9200000000000002,192,0.051,-0.964,0.301,3.2658606,-89.55333540000002,7.3911582,87.73705853999998,-0.7792228800000001,-42.45045822
1.93,193,-0.004,-1.023,0.389,9.3965112,-94.251591,4.9847345999999995,87.85737972,-0.83651868,-43.37865018
1.94,194,-0.041,-1.033,0.365,13.464512999999998,-94.9391406,2.9793816000000004,88.02353753999998,-0.87089616,-44.3183013
1.95,195,-0.044,-1.009,0.371,21.772404,-87.94905299999998,2.7501984,88.2928278,-0.90527364,-45.18346788
1.96,196,-0.07,-1.019,0.473,28.934379,-80.1568242,3.4377480000000005,88.60795470000002,-0.93392154,-45.97414992
1.97,197,-0.081,-1.067,0.602,29.4500412,-72.5364828,3.0366774,88.92881118,-0.95683986,-46.69034742
1.98,198,-0.042,-1.141,0.595,22.345362,-60.905435399999995,2.6356068,89.17518312,-0.97975818,-47.28622374
1.99,199,0.045,-1.204,0.498,14.9542038,-47.7846972,4.6982556,89.34134094,-1.01413566,-47.75604930000001
2.0,200,0.091,-1.29,0.385,13.980175199999998,-37.7006364,9.969469199999999,89.50749876,-1.10580894,-48.128472
2.01,201,0.037000000000000005,-1.366,0.339,17.18874,-31.1689152,18.5638392,89.69084532,-1.27769634,-48.43786932
2.02,202,-0.102,-1.341,0.317,21.772404,-25.210152,27.9603504,89.9257581,-1.5527161800000002,-48.68424126
2.03,203,-0.197,-1.183,0.43,24.8090814,-13.6364004,30.9970278,90.1835892,-1.85065434,-48.8160216
2.04,204,-0.199,-0.953,0.405,30.8824362,-2.86479,27.1582092,90.4987161,-2.1199446,-48.8446695
2.05,205,-0.123,-0.8759999999999999,0.013,34.0337052,-16.157415599999997,16.959556799999998,90.82530216,-2.28610242,-49.00509774
2.0599999999999996,206,-0.081,-0.987,-0.599,19.938938399999998,-46.5241896,0.6302538000000001,91.05448536,-2.26891368,-49.46346414
2.07,207,-0.181,-1.264,-0.975,11.8029348,-59.186561399999995,-25.0955604,91.20345444,-1.98816426,-50.03642214
2.0799999999999996,208,-0.386,-1.7380000000000002,-1.058,16.1001198,-15.9282324,-65.7755784,91.37534184,-1.32926256,-50.17966163999999
2.09,209,-0.598,-2.156,-0.7879999999999999,42.2270046,35.9244666,-109.6068654,91.78787159999999,-0.25783110000000004,-49.78432062
2.0999999999999996,210,-0.474,-1.717,-0.378,45.779344200000004,41.4248634,-99.408213,92.24050842,0.69900876,-49.33741338
2.11,211,0.084,-1.115,-0.099,16.386598799999998,23.9496444,-56.2071798,92.41239582,1.24331886,-49.0738527
2.1199999999999997,212,0.493,-0.706,0.026,-1.432395,15.183387000000002,-23.032911600000002,92.39520708,1.4610428999999998,-48.91342446
2.13,213,0.649,-0.5579999999999999,0.013,-0.9740286,10.3705398,-2.1772404,92.3894775,1.47250206,-48.81029202000001
2.1399999999999997,214,0.628,-0.847,-0.042,12.834259199999998,-0.4583664000000001,9.1100322,92.52125784,1.38655836,-48.8160216
2.15,215,0.523,-1.481,-0.063,15.0114996,-18.5065434,8.3651868,92.67022692,1.3178034,-48.99936816
2.1599999999999997,216,0.398,-2.105,-0.08800000000000001,-4.8128472,-35.6379876,-1.4896908000000002,92.61293112,1.3579104599999998,-49.35460212
2.17,217,0.196,-2.211,0.041,-4.8701430000000006,-42.2270046,-13.349921400000001,92.56136490000002,1.52406828,-49.7614023
2.1799999999999997,218,-0.102,-1.68,0.084,6.589017,-41.3675676,-21.6005166,92.62439028,1.77044022,-50.1624729
2.19,219,-0.198,-1.137,0.015,15.756345000000001,-27.501984000000004,-26.356068,92.77908894,2.05118964,-50.41457442
2.1999999999999997,220,-0.231,-0.862,0.051,18.2773602,-9.2819196,-26.1268848,92.9624355,2.28037284,-50.50051812
2.21,221,-0.294,-0.618,0.09,13.6936962,8.193299399999999,-17.761698000000006,93.105675,2.45226024,-50.40311526000001
2.2199999999999998,222,-0.343,-0.424,0.063,8.078707799999998,25.0955604,-4.8128472,93.1916187,2.48090814,-50.15674332
2.23,223,-0.381,-0.35200000000000004,0.017,3.5523396000000003,38.67466500000001,6.703608600000001,93.24318492,2.38350528,-49.77859104
2.2399999999999998,224,-0.412,-0.353,-0.004,1.6042823999999998,50.5348956,13.750992000000002,93.27183282,2.2058883,-49.28584716
2.25,225,-0.405,-0.378,0.008,1.8334656000000005,62.6243094,16.272007199999994,93.30048072,1.96524594,-48.68424126
2.26,226,-0.35,-0.422,0.028,1.6042823999999998,74.771019,14.4385416,93.3348582,1.75898106,-47.9565846
2.27,227,-0.272,-0.46,0.036000000000000004,-0.9167328,85.54262940000002,10.8289062,93.3348582,1.5756344999999998,-47.12006592
2.28,228,-0.177,-0.488,0.02,-2.291832,90.41277240000001,7.161975,93.32339904,1.432395,-46.2377106
2.29,229,-0.086,-0.528,0.025,-4.2398892,91.3295052,2.9220857999999996,93.28902156,1.32353298,-45.33816654
2.3,230,-0.016,-0.591,0.07400000000000001,-8.3651868,92.9910834,-1.6615782,93.21453702,1.2605076000000002,-44.42143374000001
2.31,231,0.054000000000000006,-0.6779999999999999,0.13,-14.896907999999998,96.1996482,-6.417129599999999,93.07129752,1.24331886,-43.47032346
2.32,232,0.084,-0.7559999999999999,0.14,-20.626488,98.0331138,-11.3445684,92.87076222,1.27769634,-42.50202444
2.3299999999999996,233,0.084,-0.836,0.192,-19.938938399999998,97.6320432,-14.896907999999998,92.6759565,1.35218088,-41.53372542
2.34,234,0.03,-0.887,0.315,-15.527161800000002,95.6266902,-14.9542038,92.52698742,1.432395,-40.58261514
2.3499999999999996,235,-0.005,-0.885,0.441,-8.8235532,95.111028,-11.0580894,92.4754212,1.47250206,-39.64296402
2.36,236,-0.025,-0.878,0.389,-2.4637194,98.3195928,-7.2765666,92.46396204,1.47250206,-38.66893542
2.3699999999999997,237,-0.02,-0.887,0.254,5.9014674000000005,101.7573408,-3.6096354,92.53844658,1.43812458,-37.66625892
2.38,238,-0.018000000000000002,-0.879,0.223,15.126091199999998,103.3043274,0.8021411999999999,92.69887482,1.3579104599999998,-36.64639368
2.3899999999999997,239,-0.012,-0.861,0.34600000000000003,21.772404,99.9238752,4.9274388,92.92805802,1.2318597,-35.66090592
2.4,240,0.024,-0.8590000000000001,0.454,22.345362,87.8917572,9.3392154,93.1916187,1.07716104,-34.80146892
2.4099999999999997,241,0.029,-0.8540000000000001,0.441,19.2513888,69.61439700000001,14.381245800000002,93.38642442,0.87662574,-34.1196489
2.42,242,0.031,-0.898,0.408,25.55392680000001,48.70143,15.4125702,93.6499851,0.68182002,-33.64409376
2.4299999999999997,243,0.121,-1.0490000000000002,0.332,35.46610020000001,28.6479,9.969469199999999,94.00521906,0.56149884,-33.36907392
2.44,244,0.247,-1.196,0.239,42.398892,26.1841806,1.0886202,94.43493756,0.52712136,-33.10551324
2.4499999999999997,245,0.299,-1.212,0.243,39.820581,37.1276784,-6.703608600000001,94.84746732,0.56722842,-32.72736096
2.46,246,0.29,-1.155,0.253,25.2674478,55.80610920000001,-8.021412000000002,95.09956884,0.5844171599999999,-32.1715917
2.4699999999999998,247,0.292,-1.192,-0.048,-2.291832,87.83446140000002,1.6615782,95.07092094,0.46982556,-31.3121547
2.48,248,0.302,-1.264,-0.618,-19.194093,107.0285544,23.7204612,94.87038564,0.10886202,-30.2808303
2.4899999999999998,249,0.515,-1.5830000000000002,-1.375,-22.6891368,70.6457214,55.3477428,94.62974328,-0.5099326200000001,-29.63911734
2.5,250,0.7040000000000001,-1.746,-0.98,7.6776372,5.3858052,93.50674559999999,94.70422782,-1.432395,-29.66203566
2.51,251,0.561,-1.491,-0.227,28.074942,-25.8977016,90.813843,95.00789556,-2.30329116,-29.994351300000005
2.52,252,0.277,-1.297,-0.301,16.042824000000003,-29.392745399999995,77.23473840000003,95.19124212,-3.03094782,-30.34958526
2.53,253,0.041,-1.026,0.05,2.9793816000000004,-28.5906042,61.7648724,95.24853792,-3.6096353999999997,-30.68763048000001
2.54,254,-0.122,-0.981,0.195,-6.2452422,-29.67922440000001,41.76863820000001,95.20843086,-3.98778768,-31.01994612
2.55,255,-0.192,-1.1909999999999998,0.037000000000000005,-19.938938399999998,-18.9649098,24.7517856,95.01935472,-4.21697088,-31.23194058
2.56,256,-0.171,-1.6880000000000002,-0.13699999999999998,-18.907614000000002,-11.8602306,17.8189938,94.83600816,-4.37739912,-31.3694505
2.57,257,-0.101,-2.4330000000000003,-0.16899999999999998,-12.5477802,-9.2819196,20.511896399999998,94.72141656,-4.57220484,-31.47831252
2.5799999999999996,258,0.002,-2.5660000000000003,-0.014,-11.516455800000001,-5.042030400000002,31.1689152,94.61255454,-4.87587258,-31.55279706
2.59,259,0.134,-1.89,0.031,3.0366774,3.3231564,37.2995658,94.64120244,-5.24829528,-31.55279706
2.5999999999999996,260,0.162,-1.367,0.033,16.959556799999998,4.4690724,32.658606,94.80736026,-5.5576926,-31.53560832
2.61,261,0.142,-1.077,0.114,19.1367972,3.6669312000000014,24.694489800000003,95.00216598,-5.80406454,-31.51841958
2.6199999999999997,262,0.151,-0.908,0.109,11.172681,-3.3231564,19.5378678,95.12248716,-5.9931406800000016,-31.5699858
2.63,263,0.157,-0.8,0.045,4.583664,-17.0168526,16.272007199999994,95.19124212,-6.13638018,-31.74760278
2.6399999999999997,264,0.14800000000000002,-0.728,-0.005,3.380452200000001,-32.544014399999995,12.318597,95.26572666,-6.2165943,-32.07991842
2.65,265,0.14,-0.664,-0.013,4.8701430000000006,-46.5814854,5.443101,95.36312952,-6.1994055600000015,-32.54974398
2.6599999999999997,266,0.121,-0.603,-0.003,6.760904399999999,-54.4883058,-2.5210152000000003,95.49490986,-6.1077322800000005,-33.082594920000005
2.67,267,0.071,-0.52,0.029,8.078707799999998,-55.2331512,-8.5370742,95.64387894,-5.953033619999999,-33.61544586
2.6799999999999997,268,0.031,-0.434,0.047,9.6256944,-53.1705024,-9.5111028,95.7985776,-5.79260538,-34.131108059999995
2.69,269,-0.003,-0.378,0.036000000000000004,11.9748222,-52.19647379999999,-7.2765666,95.97619458,-5.64936588,-34.6353111
2.6999999999999997,270,-0.024,-0.344,0.016,11.516455800000001,-52.0245864,-3.8388186,96.14808198,-5.54623344,-35.14524372
2.71,271,-0.02,-0.338,0.023,8.880849000000003,-53.285094,-0.9167328,96.29705106,-5.46028974,-35.6666355
2.7199999999999998,272,0.006,-0.377,0.05,4.4117766,-56.0352924,1.0313244,96.4001835,-5.397264359999999,-36.21667518
2.73,273,0.057,-0.443,0.066,-0.6875496,-59.874111,2.0053530000000004,96.4574793,-5.33423898,-36.80682192
2.7399999999999998,274,0.106,-0.508,0.08800000000000001,-4.1252976000000015,-62.738901,2.4637194,96.48039762,-5.2712136,-37.42561656
2.75,275,0.149,-0.563,0.128,-3.4377480000000005,-65.66098679999999,4.6409598,96.52050468,-5.20818822,-38.07878868
2.76,276,0.134,-0.617,0.175,0.572958,-69.6716928,8.479778399999999,96.6007188,-5.19672906,-38.77779744
2.77,277,0.105,-0.67,0.213,3.4377480000000005,-75.05749800000002,12.605076,96.70958082,-5.2139178,-39.52837242
2.78,278,0.061,-0.72,0.229,6.5317212,-79.46927459999998,15.870936600000002,96.86427948,-5.25402486,-40.32478404
2.79,279,0.014,-0.753,0.257,8.9954406,-81.0162612,17.8762896,97.04189646,-5.311320660000002,-41.14411398
2.8,280,-0.038,-0.752,0.307,13.2353298,-78.95361240000003,18.334656,97.27680924,-5.37434604,-41.9405256
2.81,281,-0.09,-0.742,0.423,19.4232762,-73.45321560000002,16.2147114,97.55182908,-5.414453099999999,-42.67964142
2.82,282,-0.112,-0.78,0.488,22.5745452,-60.67625219999999,11.172681,97.84976724,-5.42591226,-43.2869769
2.8299999999999996,283,-0.099,-0.875,0.465,21.2567418,-40.2789474,6.130650599999999,98.10759834,-5.42018268,-43.688047499999996
2.84,284,-0.08199999999999999,-0.999,0.472,18.1054728,-17.8189938,5.042030400000002,98.30813364,-5.43737142,-43.87139406
2.8499999999999996,285,-0.105,-1.113,0.431,14.7250206,1.7761698,9.2819196,98.48002104,-5.53477428,-43.86566448
2.86,286,-0.168,-1.144,0.301,14.610429000000002,12.891555,17.8762896,98.61753096,-5.72958,-43.76826162
2.8699999999999997,287,-0.228,-1.095,0.292,16.959556799999998,18.621135,27.6165756,98.77795919999998,-6.0332477399999975,-43.62502212
2.88,288,-0.236,-0.976,0.349,20.9702628,27.501984000000004,34.0337052,98.96130576,-6.417129600000001,-43.40729808
2.8899999999999997,289,-0.116,-0.8420000000000001,0.265,25.210152,32.2002396,33.231564,99.18475938,-6.8010114600000025,-43.143737400000006
2.9,290,0.091,-0.813,0.087,24.1215318,19.4232762,25.4393352,99.38529468,-7.0473833999999975,-42.98903874
2.9099999999999997,291,0.211,-0.95,-0.182,15.183387000000002,-5.6149884000000005,13.407217200000002,99.5514525,-7.167704579999999,-43.06352328
2.92,292,0.13699999999999998,-1.238,-0.281,-3.5523396000000003,-16.8449652,-7.5630456000000015,99.53426376,-7.05884256,-43.21822194
2.9299999999999997,293,-0.056,-1.635,-0.35100000000000003,-38.2162986,-1.0313244,-40.966497,99.13892274,-6.65777196,-43.16665572
2.94,294,-0.32,-2.051,-0.682,-53.1705024,53.858052,-85.1415588,98.5201281,-5.92438572,-42.5134836
2.9499999999999997,295,-0.6970000000000001,-2.2230000000000003,-1.048,-32.2002396,99.5801004,-119.97740520000002,98.06749128,-4.91597964,-41.3675676
2.96,296,-0.762,-1.989,-0.873,-16.615782,89.03767320000001,-110.9246688,97.8039306,-3.97059894,-40.341972780000006
2.9699999999999998,297,-0.429,-1.379,-0.8009999999999999,-18.3919518,65.317212,-78.32335859999998,97.55755866,-3.3059676599999994,-39.60285696
2.98,298,0.03,-0.895,-0.688,8.4224826,77.17744259999998,-43.831287,97.59193614,-2.9965703400000003,-38.7892566
2.9899999999999998,299,0.34600000000000003,-0.851,-0.122,48.9306132,79.6984578,-8.9954406,98.0331138,-3.03094782,-37.9871154
3.0,300,0.496,-1.028,0.274,42.112413,63.5410422,12.891555,98.42845481999998,-3.2372127,-37.3855095
3.01,301,0.544,-1.061,0.37,16.673077799999998,52.2537696,19.7097552,98.56023516000002,-3.51796212,-36.90422478
3.02,302,0.444,-1.105,0.343,4.583664,47.841993,11.229976800000001,98.57169432,-3.71276784,-36.45158796
3.03,303,0.35100000000000003,-1.426,0.315,6.2452422,44.117766,-15.0687954,98.60034222,-3.6382833,-35.99895114
3.04,304,0.108,-1.845,0.285,2.1772404,38.7319608,-51.9672906,98.59461264,-3.19710564,-35.54058474
3.05,305,-0.213,-1.952,0.076,-3.6669312000000014,55.9779966,-81.3027402,98.50866894,-2.49809688,-34.87595346
3.06,306,-0.453,-1.83,0.018000000000000002,-3.0366774,87.20420759999998,-88.7511942,98.42845481999998,-1.7761698,-33.89619528
3.07,307,-0.539,-1.469,0.006999999999999999,-14.32395,109.77875279999999,-73.2240324,98.23937868,-1.24904844,-32.721631380000005
3.08,308,-0.529,-1.018,-0.024,-12.7196676,131.9522274,-51.852699,98.0617617,-0.95683986,-31.35799134
3.09,309,-0.512,-0.72,-0.023,-6.130650599999999,159.9125778,-33.4607472,97.95289968,-0.89381448,-29.75370894
3.0999999999999996,310,-0.456,-0.605,-0.026,-6.2452422,187.5291534,-17.9908812,97.82684892,-1.04278356,-27.903054600000004
3.11,311,-0.307,-0.603,0.031,-6.0733548,206.9524296,-7.333862400000001,97.70079816,-1.30061466,-25.87478328000001
3.1199999999999997,312,-0.19,-0.633,0.109,-4.2398892,210.9058398,-1.0313244,97.5747474,-1.6272007199999998,-23.81786406
3.13,313,-0.064,-0.696,0.161,1.8907613999999997,206.2075842,3.6669312000000014,97.50599244,-1.98243468,-21.80678148
3.1399999999999997,314,0.097,-0.772,0.231,10.255948199999999,197.956989,6.5317212,97.50599244,-2.36058696,-19.8816426
3.15,315,0.272,-0.825,0.32,12.5477802,187.2426744,5.958763200000001,97.54036992,-2.6929026,-18.05963616
3.1599999999999997,316,0.34700000000000003,-0.8079999999999999,0.355,5.72958,176.8148388,0.9740286,97.4888037,-2.9793816000000004,-16.33503258
3.17,317,0.284,-0.772,0.332,2.9793816000000004,173.5489782,-6.760904399999999,97.40286,-3.1799169000000003,-14.62761774
3.1799999999999997,318,0.181,-0.754,0.28600000000000003,4.2398892,179.96610780000003,-14.4385416,97.32264588,-3.31742682,-12.85144794
3.19,319,0.069,-0.742,0.263,2.6929026,190.9669014,-20.340009,97.21378386,-3.40337052,-10.95495696
3.1999999999999997,320,-0.005,-0.748,0.273,-4.8701430000000006,200.9363706,-22.0015872,97.02470772,-3.48931422,-8.96106312
3.21,321,-0.026,-0.758,0.275,-13.407217200000002,207.2389086,-17.7044022,96.73249914,-3.61536498,-6.90987348
3.2199999999999998,322,0.035,-0.755,0.267,-17.303331600000003,206.89513380000002,-9.1100322,96.39445392000002,-3.82162986,-4.8701430000000006
3.23,323,0.16699999999999998,-0.7340000000000001,0.278,-13.750992000000002,197.8423974,-1.9480572,96.09651576,-4.0680017999999984,-2.92781538
3.2399999999999998,324,0.254,-0.698,0.28,-8.880849000000003,183.2892642,0.4010706,95.85014382,-4.30864416,-1.12872726
3.25,325,0.338,-0.6940000000000001,0.25,-2.9220857999999996,167.24644019999997,-0.5156622000000001,95.67825642,-4.49199072,0.5042030399999999
3.26,326,0.44,-0.728,0.207,2.9220857999999996,149.542038,-4.297185,95.5693944,-4.63523022,1.98243468
3.27,327,0.496,-0.7929999999999999,0.158,7.5057497999999985,129.25932479999997,-9.0527364,95.52355776,-4.703985179999999,3.2658606
3.28,328,0.515,-0.879,0.109,9.9121734,107.8306956,-12.605076,95.52355776,-4.70971476,4.33729206
3.29,329,0.455,-0.957,0.093,7.6203414,88.4647152,-14.381245800000002,95.51782818,-4.675337279999999,5.22537696
3.3,330,0.324,-0.959,0.119,2.8074942000000003,74.7137232,-14.667724800000002,95.47772112,-4.58939358,5.97022236
3.31,331,0.163,-0.9,0.17600000000000002,0.286479,70.6457214,-14.667724800000002,95.41469573999998,-4.5263682,6.6806902799999985
3.32,332,0.025,-0.845,0.23,2.0053530000000004,75.5731602,-15.469866,95.36312952,-4.46334282,7.4427244199999985
3.33,333,-0.063,-0.848,0.278,2.291832,87.77716559999998,-18.162768600000003,95.30583372,-4.38885828,8.325079740000001
3.34,334,-0.062,-0.917,0.259,-4.2398892,107.429625,-23.0902074,95.1683238,-4.28572584,9.40224078
3.3499999999999996,335,0.04,-1.044,0.108,-11.688343199999998,131.6657484,-27.6738714,94.92768144,-4.15967508,10.72004418
3.36,336,0.245,-1.305,-0.211,-23.204799,151.37550359999997,-25.78311,94.5667179,-4.0680017999999984,12.2326533
3.3699999999999997,337,0.468,-1.615,-0.565,-40.680018,161.57415600000004,-13.2353298,94.01667822,-4.10810886,13.83120612
3.38,338,0.605,-1.841,-0.613,-44.34694920000001,151.20361619999997,20.626488,93.43799064,-4.45188366,15.303708179999996
3.3899999999999997,339,0.536,-1.87,-0.5720000000000001,-28.1895336,122.2119414,53.22779820000001,93.03692004,-5.08213746,16.47827208
3.4,340,0.328,-1.465,-0.374,5.9014674000000005,114.4770084,65.7755784,92.97389466,-5.815523699999999,17.57262186
3.4099999999999997,341,0.069,-1.131,-0.172,27.6738714,109.6068654,60.7908438,93.12286374,-6.5030733,18.62686458
3.42,342,-0.17800000000000002,-0.943,0.041,31.5699858,108.5182452,44.06047020000001,93.3062103,-7.030194660000001,19.68683688
3.4299999999999997,343,-0.324,-1.001,0.214,24.2934192,117.1126152,22.173474600000002,93.392154,-7.34532156,20.83848246
3.44,344,-0.243,-1.1909999999999998,0.242,4.6982556,132.5251854,0.0,93.25464408,-7.459913160000001,22.15055628
3.4499999999999997,345,-0.018000000000000002,-1.4269999999999998,0.149,-16.1001198,146.84913540000005,-15.126091199999998,92.88222138,-7.42553568,23.61732876
3.46,346,0.214,-1.6130000000000002,0.152,-27.215505,159.0531408,-20.912967,92.37801834,-7.333862399999999,25.20442242
3.4699999999999998,347,0.376,-1.666,0.14800000000000002,-29.9657034,161.1157896,-17.246035799999998,91.85089698,-7.270837019999999,26.8144344
3.48,348,0.414,-1.535,0.064,-27.3873924,159.1104366,-10.1986524,91.34669394,-7.259377859999999,28.395798480000003
3.4899999999999998,349,0.348,-1.315,-0.01,-16.673077799999998,148.7398968,-2.3491278,90.97427124,-7.305214500000001,29.874030120000004
3.5,350,0.244,-1.105,0.019,0.572958,130.34794499999998,1.8907613999999997,90.79665426,-7.3625102999999985,31.168915200000004
3.51,351,0.128,-0.966,0.096,13.6364004,115.16455800000001,0.6302538000000001,90.77373594,-7.41407652,32.32056078
3.52,352,0.047,-0.91,0.166,18.334656,110.580894,-4.3544808,90.80238384,-7.41407652,33.42636972
3.53,353,0.0,-0.892,0.205,14.9542038,114.4770084,-10.0840608,90.79092468,-7.3567807200000015,34.56655614
3.54,354,0.0,-0.877,0.16,2.0626488000000003,124.045407,-14.4385416,90.63622602,-7.265107439999999,35.80414542
3.55,355,0.034,-0.8340000000000001,0.083,-9.969469199999999,130.69171980000002,-14.0947668,90.3554766,-7.161975,37.10476008
3.56,356,0.066,-0.779,0.035,-17.0168526,133.61380559999998,-11.0580894,90.00024264,-7.09322004,38.43402264
3.57,357,0.07400000000000001,-0.725,0.022,-18.2773602,133.9575804,-6.9327918,89.63354952,-7.05884256,39.76901478
3.58,358,0.046,-0.693,0.032,-17.0741484,134.2440594,-3.8388186,89.27258598,-7.0473833999999975,41.10400692
3.59,359,0.006,-0.706,0.039,-15.870936600000002,136.1348208,-3.4377480000000005,88.92881118,-7.030194660000001,42.456187799999995
3.5999999999999996,360,0.016,-0.747,0.038,-14.4385416,138.082878,-4.4690724,88.59649553999998,-6.990087599999999,43.831287
3.61,361,0.045,-0.804,0.023,-12.261301199999998,138.0255822,-6.3025379999999975,88.28709822,-6.9270622200000025,45.20065662
3.6199999999999997,362,0.104,-0.8440000000000001,0.006,-9.8548776,136.70777880000003,-8.7662574,88.0063488,-6.83538894,46.55856708
3.63,363,0.166,-0.851,0.013,-6.6463128000000005,135.50456699999998,-10.6570188,87.76570644,-6.7150677599999975,47.90501838
3.6399999999999997,364,0.229,-0.841,0.048,-2.0626488000000003,134.1867636,-11.8029348,87.57090072000004,-6.58328742,49.23428094000001
3.65,365,0.28300000000000003,-0.8290000000000001,0.092,2.9220857999999996,131.32197359999998,-12.3758928,87.44484996,-6.411400019999999,50.52916602000001
3.6599999999999997,366,0.314,-0.828,0.13,6.3025379999999975,127.196676,-12.5477802,87.3474471,-6.26243094,51.78967362
3.67,367,0.317,-0.8390000000000001,0.163,7.448453999999999,122.7848994,-12.4904844,87.27869214,-6.11919144,53.01007416
3.6799999999999997,368,0.28600000000000003,-0.855,0.197,8.021412000000002,119.97740520000002,-12.0894138,87.21566676,-5.97022236,54.19609722
3.69,369,0.243,-0.873,0.231,8.136003599999999,120.5503632,-11.3445684,87.16410053999998,-5.83271244,55.38784986
3.6999999999999997,370,0.202,-0.8859999999999999,0.238,6.3025379999999975,127.0820844,-10.9434978,87.10107516000002,-5.67801378,56.64262788
3.71,371,0.183,-0.882,0.21600000000000005,4.6409598,135.4472712,-11.172681,86.99794272,-5.53477428,57.9833496
3.7199999999999998,372,0.175,-0.873,0.187,4.2398892,144.15623280000003,-11.4018642,86.88335112,-5.385805199999999,59.41001502
3.73,373,0.184,-0.867,0.159,4.5263682,150.28688340000005,-11.2872726,86.7744891,-5.231106540000001,60.89397623999999
3.7399999999999998,374,0.201,-0.852,0.14400000000000002,5.6722842,153.3235608,-10.599723,86.67708624000002,-5.07640788,62.41231494
3.75,375,0.21600000000000005,-0.841,0.172,9.2819196,153.4954482,-9.453807000000001,86.63124959999998,-4.921709219999999,63.92492406
3.76,376,0.21600000000000005,-0.853,0.251,14.266654199999998,151.26091200000005,-8.021412000000002,86.62552002,-4.78992888,65.42607402
3.77,377,0.213,-0.893,0.342,17.5325148,147.536685,-5.9014674000000005,86.66562708000002,-4.68679644,66.88711692
3.78,378,0.221,-0.954,0.369,19.1367972,142.3227672,-2.4064236,86.72292288,-4.6180414800000005,68.2965936
3.79,379,0.249,-1.008,0.378,19.7097552,140.8330764,0.9740286,86.79167784,-4.58939358,69.69461112
3.8,380,0.29100000000000004,-1.055,0.391,20.912967,142.2081756,3.2658606,86.89481028,-4.56074568,71.1040878
3.81,381,0.32,-1.086,0.391,20.1108258,145.1302614,3.6096354,86.96356524000002,-4.56074568,72.54794196
3.82,382,0.328,-1.095,0.397,15.9282324,148.3388262,3.2658606,86.98648356,-4.5550161000000005,74.02617359999998
3.83,383,0.325,-1.074,0.411,11.4018642,151.4327994,3.4377480000000005,86.96356524000002,-4.549286520000001,75.52732356
3.84,384,0.328,-1.035,0.425,9.969469199999999,155.6726886,4.0680017999999984,86.92345818,-4.549286520000001,77.07431016000002
3.8499999999999996,385,0.332,-1.004,0.402,9.453807000000001,157.21967519999995,5.844171599999999,86.88908070000002,-4.549286520000001,78.63275592
3.86,386,0.336,-1.003,0.341,7.7922288,154.29758940000005,7.6203414,86.82605532,-4.5836640000000015,80.16828336
3.8699999999999997,387,0.338,-1.081,0.208,4.5263682,156.01646340000005,6.589017,86.72865246,-4.60658232,81.71526996
3.88,388,0.284,-1.211,0.033,1.2032118,158.93854919999995,3.3231564,86.59687212,-4.58939358,83.29663404
3.8899999999999997,389,0.174,-1.368,-0.154,-4.3544808,158.0218164,-0.4010706,86.40206640000002,-4.53209778,84.86080938
3.9,390,0.03,-1.461,-0.32299999999999995,-8.9381448,154.69866000000005,-4.297185,86.16715362,-4.43469492,86.39060724
3.9099999999999997,391,-0.1,-1.393,-0.392,-7.8495246,149.37015060000004,-6.8182002000000015,85.95515916000002,-4.30864416,87.8631093
3.92,392,-0.171,-1.179,-0.318,-1.6615782,144.6145992,-8.250595200000001,85.81191966,-4.15967508,89.28977472
3.9299999999999997,393,-0.155,-0.958,-0.134,1.2605076000000002,145.3594446,-10.0840608,85.70305764,-3.99351726,90.72216972
3.94,394,-0.044,-0.818,-0.002,-2.2345362,149.828517,-11.3445684,85.55981814,-3.810170700000002,92.19467178
3.9499999999999997,395,0.066,-0.79,0.025,-6.130650599999999,149.48474219999997,-13.6936962,85.38793074,-3.59244666,93.66144426
3.96,396,0.158,-0.84,0.009000000000000001,-10.9434978,146.3334732,-16.501190400000002,85.17020670000002,-3.34607472,95.09956884
3.9699999999999998,397,0.213,-0.946,-0.013,-16.4438946,143.6978664,-18.2200644,84.90091644,-3.08824362,96.50331594
3.98,398,0.214,-1.075,-0.042,-21.2567418,141.1768512,-17.0168526,84.59724870000002,-2.83041252,97.87841514
3.9899999999999998,399,0.165,-1.204,-0.041,-23.6631654,138.94231499999998,-11.8029348,84.27066264,-2.61841806,99.2363256
4.0,400,0.07200000000000001,-1.276,-0.02,-24.694489800000003,139.0569066,-5.2712136,83.94407658,-2.4637194,100.59996564
4.01,401,-0.03,-1.25,0.026,-22.2307704,140.54659740000002,0.057295800000000015,83.64040884,-2.35485738,101.986524
4.02,402,-0.079,-1.141,0.084,-15.985528200000001,144.0416412,2.4637194,83.40549606,-2.25745452,103.40745983999996
4.03,403,-0.083,-1.032,0.108,-12.0894138,144.9010782,2.1199446,83.20496076,-2.15432208,104.83412526
4.04,404,-0.046,-0.95,0.103,-9.9121734,143.35409159999998,0.4010706,83.03307336,-2.02827132,106.24360194
4.05,405,0.02,-0.908,0.095,-9.6256944,140.0309352,-0.11459160000000004,82.88410428,-1.8907613999999997,107.62443072
4.06,406,0.079,-0.8740000000000001,0.101,-9.6256944,135.4472712,0.6302538000000001,82.72367604,-1.76471064,108.95369328
4.07,407,0.14,-0.843,0.119,-9.453807000000001,130.920903,2.86479,82.56897738,-1.6673077799999998,110.24857836
4.08,408,0.17600000000000002,-0.82,0.14800000000000002,-9.6829902,127.4258592,6.3025379999999975,82.42000829999998,-1.59855282,111.50908596
4.09,409,0.189,-0.807,0.163,-11.0580894,124.61836499999998,10.4851314,82.25385048,-1.5756344999999998,112.74667524000002
4.1,410,0.16399999999999998,-0.809,0.154,-13.178034,119.5763346,14.896907999999998,82.08769266,-1.5813640800000002,113.93842788
4.109999999999999,411,0.129,-0.825,0.141,-14.32395,114.9926706,17.8189938,81.89861652,-1.6329303,115.09007346
4.12,412,0.101,-0.855,0.15,-14.495837400000001,110.00793600000002,19.5378678,81.7038108,-1.70168526,116.1958824
4.13,413,0.08,-0.898,0.184,-13.6936962,105.710751,19.767051,81.51473466,-1.77044022,117.26158428
4.14,414,0.062,-0.952,0.217,-12.9488508,102.2157072,19.0222056,81.33711767999998,-1.83919518,118.29290868
4.1499999999999995,415,0.056,-0.992,0.239,-11.917526400000002,99.2363256,17.7044022,81.19960776,-1.88503182,119.28985559999998
4.16,416,0.061,-1.013,0.278,-8.193299399999999,95.7412818,16.2147114,81.07355700000002,-1.92513888,120.25242504
4.17,417,0.08199999999999999,-1.022,0.34,-3.0939732,90.7565472,15.0114996,80.99907246000002,-1.9595163600000003,121.16342826
4.18,418,0.116,-1.032,0.368,1.0886202,87.54798240000002,13.980175199999998,80.96469498,-1.98243468,122.04578358
4.1899999999999995,419,0.157,-1.02,0.336,0.4010706,88.35012359999996,13.2926256,80.9303175,-1.99962342,122.93386848
4.2,420,0.158,-0.991,0.243,1.6042823999999998,85.25615040000002,13.120738199999998,80.93604708,-1.99962342,123.78184632
4.21,421,0.118,-0.986,0.225,6.4744254,75.9742308,13.349921400000001,80.96469498,-2.0340008999999997,124.54961004
4.22,422,0.041,-1.012,0.315,6.9327918,65.8328742,13.6364004,81.00480204,-2.08556712,125.2199709
4.2299999999999995,423,-0.032,-1.039,0.4,0.2291832000000001,64.3431834,12.7769634,80.97615413999998,-2.12567418,125.86741344
4.24,424,-0.09,-1.053,0.411,-8.021412000000002,75.45856859999998,11.172681,80.85583296,-2.14286292,126.623718
4.25,425,-0.102,-1.093,0.369,-5.3858052,91.7878716,8.193299399999999,80.78707800000002,-2.10275586,127.53472122
4.26,426,-0.07200000000000001,-1.223,0.332,8.651665800000002,102.273003,2.9220857999999996,80.82145548,-1.99962342,128.54312729999998
4.27,427,-0.031,-1.4069999999999998,0.392,16.2147114,100.7833122,-2.9220857999999996,80.94177666,-1.83919518,129.52861506
4.28,428,0.036000000000000004,-1.49,0.495,17.18874,95.5693944,-6.9327918,81.07355700000002,-1.64438946,130.45680702
4.29,429,0.095,-1.408,0.6,19.0222056,89.954406,-9.1100322,81.23398524000002,-1.43812458,131.32770318
4.3,430,0.139,-1.28,0.6759999999999999,24.5226024,81.3027402,-11.8602306,81.48035718,-1.21467096,132.10692606
4.31,431,0.121,-1.214,0.684,26.642547,66.23394479999999,-15.183387000000002,81.72672911999999,-0.98548776,132.73717986000003
4.32,432,0.093,-1.293,0.329,17.9908812,54.54560160000001,-16.2147114,81.89861652,-0.76203414,133.25284206
4.33,433,0.284,-1.519,-0.531,11.745639,58.15523699999999,-6.0733548,82.00174896,-0.63598338,133.8143409
4.34,434,0.6709999999999999,-1.842,-0.818,29.9084076,45.779344200000004,12.032117999999999,82.29395754,-0.70473834,134.28416646
4.35,435,0.8240000000000001,-1.91,-0.4320000000000001,44.0031744,18.621135,23.5485738,82.7351352,-0.90527364,134.5018905
4.36,436,0.48,-1.4169999999999998,-0.17600000000000002,25.3820394,16.272007199999994,11.516455800000001,82.98723672,-1.0026765,134.67950748
4.37,437,0.118,-0.926,-0.214,6.0733548,29.9084076,-3.8961144,83.03880294000002,-0.93392154,134.97171606
4.38,438,-0.16,-0.71,-0.177,10.1413566,43.831287,-8.5370742,83.13047622,-0.8078707799999998,135.39570498
4.39,439,-0.277,-0.69,-0.147,17.3606274,51.3943326,-7.5057497999999985,83.29663404,-0.6875496,135.89417844
4.3999999999999995,440,-0.26,-0.825,-0.197,16.7303736,54.54560160000001,0.7448454000000001,83.42841438,-0.67609044,136.43275896
4.41,441,-0.124,-1.071,-0.29100000000000004,9.5111028,44.404245,15.0114996,83.51435808,-0.7849524600000001,136.88539578
4.42,442,0.001,-1.264,-0.312,4.8128472,19.0795014,28.4760126,83.56019472,-1.04851314,137.1088494
4.43,443,0.133,-1.361,-0.241,5.9014674000000005,6.0733548,35.52339600000001,83.61749052,-1.39801752,137.20625226
4.4399999999999995,444,0.276,-1.37,-0.174,-2.6356068,2.3491278,33.5753388,83.58884262000002,-1.7246035799999997,137.26354806
4.45,445,0.385,-1.261,-0.187,-16.157415599999997,4.583664,23.14750320000001,83.41122564,-1.90795014,137.32657344
4.46,446,0.392,-1.089,-0.213,-22.6891368,6.990087599999999,9.0527364,83.17631286,-1.99389384,137.40678756
4.47,447,0.311,-0.952,-0.183,-18.7930224,7.6203414,-2.0053530000000004,82.98150714,-1.97097552,137.47554252
4.4799999999999995,448,0.157,-0.878,-0.14800000000000002,-10.255948199999999,6.990087599999999,-7.333862400000001,82.8783747,-1.8907613999999997,137.5385679
4.49,449,-0.069,-0.8059999999999999,-0.105,-4.1825934,7.6776372,-9.6256944,82.83253806,-1.7933585399999998,137.60159328
4.5,450,-0.18600000000000005,-0.7340000000000001,-0.061,-1.0886202,12.318597,-12.7769634,82.81534932000002,-1.6902260999999998,137.70472572
4.51,451,-0.223,-0.6629999999999999,-0.031,0.9740286,17.475219,-16.7876694,82.82107890000002,-1.50687954,137.8536948
4.52,452,-0.201,-0.595,-0.022,2.9793816000000004,23.376686399999997,-19.4232762,82.84399721999998,-1.29488508,138.06568926
4.53,453,-0.127,-0.55,-0.03,4.7555514,28.1895336,-19.8816426,82.88410428,-1.07143146,138.31779078
4.54,454,-0.046,-0.539,-0.05,6.5317212,31.5699858,-18.449247600000003,82.94140008000002,-0.8594370000000001,138.60426978
4.55,455,0.052000000000000005,-0.5539999999999999,-0.057,7.6776372,33.6326346,-15.6990492,83.01015504,-0.6589017,138.91939668
4.56,456,0.139,-0.58,-0.036000000000000004,6.990087599999999,31.627281600000003,-12.4904844,83.07318042,-0.5042030399999999,139.21733483999998
4.57,457,0.205,-0.591,-0.005,4.0680017999999984,24.8090814,-8.5370742,83.1075579,-0.4010706000000001,139.45224762
4.58,458,0.24,-0.581,0.031,0.286479,11.8029348,-4.3544808,83.1075579,-0.3437748,139.56110963999998
4.59,459,0.248,-0.565,0.061,-2.4637194,-1.7188740000000002,-0.5156622000000001,83.08463958,-0.33804522,139.54392090000002
4.6,460,0.246,-0.546,0.069,-4.2398892,-16.4438946,2.7501984,83.06172126,-0.34950438,139.37776308
4.61,461,0.234,-0.556,0.081,-3.151269,-29.1635622,5.1566220000000005,83.03307336,-0.4297185000000001,139.09701366000002
4.62,462,0.21600000000000005,-0.599,0.11,0.0,-39.7059894,6.2452422,83.04453251999998,-0.52712136,138.7131318
4.63,463,0.19,-0.682,0.126,4.297185,-46.696077,5.9014674000000005,83.09609874,-0.6302538000000001,138.26049498
4.64,464,0.162,-0.795,0.129,7.5630456000000015,-50.420304,5.0993262,83.18777202,-0.72192708,137.77348067999998
4.6499999999999995,465,0.126,-0.9,0.158,9.224623800000002,-53.285094,5.5576926,83.3367411,-0.8078707799999998,137.2520889
4.66,466,0.08800000000000001,-0.951,0.243,13.9228794,-57.6968706,6.8182002000000015,83.49143975999998,-0.92246238,136.69059006
4.67,467,0.067,-0.999,0.35200000000000004,17.475219,-62.45242200000001,6.6463128000000005,83.69197505999998,-1.03705398,136.08325458000002
4.68,468,0.061,-1.032,0.406,17.3606274,-65.2599162,5.5003968,83.88678078000002,-1.14018642,135.4472712
4.6899999999999995,469,0.078,-1.047,0.396,18.162768600000003,-62.853492599999996,5.1566220000000005,84.09304566,-1.23758928,134.83420614000002
4.7,470,0.119,-1.091,0.38,21.0848544,-57.63957480000001,5.3858052,84.3680655,-1.3178034,134.26697772
4.71,471,0.133,-1.189,0.34700000000000003,21.199446,-49.847346,4.8701430000000006,84.60297828,-1.39801752,133.78569299999998
4.72,472,0.127,-1.305,0.34700000000000003,16.8449652,-40.8519054,3.9534102,84.78632483999998,-1.4610428999999998,133.3846224
4.7299999999999995,473,0.071,-1.404,0.369,8.651665800000002,-34.091001,3.4377480000000005,84.88945728,-1.5183387000000002,133.05230676000002
4.74,474,-0.017,-1.418,0.413,4.4117766,-30.65325300000001,3.5523396000000003,84.94675308000002,-1.56990492,132.75436860000002
4.75,475,-0.084,-1.382,0.462,8.193299399999999,-27.903054600000004,3.8961144,85.06707426,-1.6272007199999998,132.47934876
4.76,476,-0.119,-1.339,0.5429999999999999,14.4385416,-21.2567418,4.5263682,85.22177292,-1.6844965200000002,132.27308388
4.77,477,-0.081,-1.256,0.622,17.246035799999998,-10.1413566,5.1566220000000005,85.40511948000002,-1.74179232,132.1814106
4.78,478,0.021,-1.171,0.507,21.2567418,-0.6302538000000001,4.9274388,85.61711394,-1.78762896,132.1814106
4.79,479,0.111,-1.137,0.115,28.304125199999998,-5.443101,2.0626488000000003,85.90932252,-1.8048176999999999,132.12984438
4.8,480,0.131,-1.239,-0.385,34.3201842,-16.7876694,-4.9274388,86.24736774,-1.75898106,131.96368656
4.81,481,-0.034,-1.544,-0.674,26.41336380000001,-12.4331886,-20.6837838,86.52238758000001,-1.5527161800000002,131.83190622
4.82,482,-0.262,-1.716,-0.752,21.829699800000004,13.9228794,-44.06047020000001,86.74011162,-1.11153852,131.94649782
4.83,483,-0.379,-1.601,-0.6559999999999999,32.486718599999996,25.3820394,-62.16594300000001,87.0609681,-0.48128472,132.16995144
4.84,484,-0.261,-1.26,-0.542,32.2002396,26.5852512,-63.82752120000001,87.38182458,0.14896908,132.40486422
4.85,485,0.008,-0.917,-0.366,20.8556712,16.329303,-52.6548402,87.55371198,0.69327918,132.54810372
4.86,486,0.217,-0.68,-0.179,9.6256944,2.9220857999999996,-39.0184398,87.65111484,1.08289062,132.55956288
4.87,487,0.276,-0.615,-0.077,8.479778399999999,3.7815227999999994,-27.903054600000004,87.73705853999998,1.36364004,132.58821078
4.88,488,0.228,-0.7709999999999999,-0.009000000000000001,13.2353298,11.4018642,-21.4286292,87.87456846,1.5756344999999998,132.6970728
4.89,489,0.123,-1.181,-0.027000000000000003,16.329303,15.870936600000002,-18.621135,88.04072628,1.76471064,132.84604188
4.8999999999999995,490,0.059,-1.754,-0.16399999999999998,2.86479,15.4125702,-18.048177,88.06937418,1.94232762,132.99501096
4.91,491,0.059,-2.033,-0.195,-13.0634424,7.161975,-17.6471064,87.93759384,2.1199446,133.05803634
4.92,492,0.079,-1.809,-0.128,-14.9542038,-3.724227,-15.0687954,87.78289518,2.26891368,133.01792928
4.93,493,0.08800000000000001,-1.341,-0.096,-6.8182002000000015,-9.969469199999999,-13.464512999999998,87.71414021999998,2.40069402,132.90906726
4.9399999999999995,494,0.066,-1.019,-0.047,1.6615782,-10.1413566,-13.178034,87.72559937999998,2.52674478,132.80593482
4.95,495,-0.001,-0.8320000000000001,-0.003,5.042030400000002,-6.417129599999999,-11.1153852,87.77716559999998,2.61841806,132.73717986000003
4.96,496,-0.115,-0.684,-0.019,4.3544808,0.1718874,-6.760904399999999,87.82300224,2.68717302,132.73717986000003
4.97,497,-0.218,-0.57,-0.06,4.1825934,9.568398599999998,-1.6042823999999998,87.86883888,2.70436176,132.83458272
4.9799999999999995,498,-0.284,-0.49,-0.103,3.151269,25.4393352,4.2398892,87.90894594,2.6642547000000003,133.08668424
4.99,499,-0.315,-0.454,-0.12,2.6356068,39.877876799999996,7.7349330000000025,87.94905299999998,2.58977016,133.48775483999998
5.0,500,-0.303,-0.426,-0.095,3.0939732,51.33703679999999,8.9381448,87.98916005999996,2.47517856,133.99195788
5.01,501,-0.27,-0.419,-0.046,5.5003968,58.67089920000001,7.8495246,88.0636446,2.40069402,134.57637504
5.02,502,-0.227,-0.426,0.006,6.3598338,64.5723666,5.5003968,88.14385872,2.35485738,135.21808800000002
5.03,503,-0.168,-0.436,0.04,3.2658606,70.35924240000001,2.0626488000000003,88.19542494,2.3376686399999995,135.91709676
5.04,504,-0.108,-0.457,0.038,-2.4064236,76.48989300000002,-1.8907613999999997,88.19542494,2.35485738,136.67340131999998
5.05,505,-0.061,-0.505,0.047,-8.307891,83.53727640000002,-6.130650599999999,88.13812913999998,2.41215318,137.49846084
5.06,506,-0.038,-0.583,0.091,-18.334656,92.819196,-11.0007936,87.9777009,2.52674478,138.40946406
5.07,507,-0.032,-0.66,0.147,-25.84040580000001,101.2989744,-14.037471,87.74851770000002,2.67571386,139.40641097999998
5.08,508,-0.033,-0.747,0.19,-29.9084076,110.294415,-15.6990492,87.47922744,2.84187168,140.48357202
5.09,509,-0.038,-0.845,0.208,-30.080295,115.737516,-15.4125702,87.21566676,3.0137590800000003,141.62375844000005
5.1,510,-0.04,-0.961,0.259,-24.8090814,116.1385866,-13.120738199999998,87.03232019999999,3.1627281600000003,142.76394486
5.11,511,-0.053,-1.071,0.318,-15.3552744,114.3624168,-9.5111028,86.92345818,3.28304934,143.88694254
5.12,512,-0.047,-1.153,0.266,-6.417129599999999,110.6381898,-6.5317212,86.90626943999996,3.380452200000001,144.98129232
5.13,513,-0.028,-1.152,0.162,0.572958,104.1637644,-4.010706000000001,86.95783566,3.44347758,146.00688714
5.14,514,0.022,-1.047,0.219,7.5630456000000015,99.2936214,-3.7815227999999994,87.08388642,3.50650296,146.99237490000004
5.1499999999999995,515,0.067,-0.976,0.371,11.9748222,99.121734,-4.0680017999999984,87.29588088,3.57525792,147.97213308
5.16,516,0.076,-0.945,0.503,8.9954406,96.1996482,-3.151269,87.4333908,3.62109456,148.92324336
5.17,517,0.037000000000000005,-0.92,0.6,8.479778399999999,89.6106312,-1.2605076000000002,87.56517113999998,3.64974246,149.81132825999995
5.18,518,0.021,-0.957,0.672,16.7876694,80.61519059999998,0.9740286,87.77716559999998,3.64974246,150.61346945999995
5.1899999999999995,519,0.061,-1.09,0.655,31.51269000000001,64.457775,2.86479,88.12666998,3.63255372,151.25518242
5.2,520,0.196,-1.369,0.521,39.7059894,38.2162986,0.5156622000000001,88.56211806,3.63255372,151.63906428
5.21,521,0.315,-1.5619999999999998,0.422,25.8977016,13.0061466,-8.307891,88.83140832000002,3.71849742,151.77084462
5.22,522,0.305,-1.452,0.3670000000000001,9.1100322,-1.7188740000000002,-16.1001198,88.9230816,3.87892566,151.74792630000005
5.2299999999999995,523,0.226,-1.275,0.197,3.151269,10.255948199999999,-17.6471064,88.95745908,4.05654264,151.85105874
5.24,524,0.18600000000000005,-1.212,-0.018000000000000002,-3.6669312000000014,45.206386200000004,-12.2040054,88.94599991999998,4.17113424,152.29223639999995
5.25,525,0.248,-1.308,-0.239,-8.4224826,74.88561059999998,-2.291832,88.89443370000002,4.19405256,153.03135222
5.26,526,0.476,-1.604,-0.741,-20.5691922,66.9214944,16.558486199999994,88.7225463,4.022165159999999,153.69598349999995
5.27,527,0.679,-1.859,-1.179,-35.2942128,25.55392680000001,48.7587258,88.3787715,3.5351508600000003,153.95954418
5.28,528,0.7440000000000001,-1.473,-0.77,-10.7143146,-13.2926256,64.744254,88.26990948,2.8934379,153.84495257999995
5.29,529,0.5770000000000001,-1.106,-0.48,18.334656,-36.7839036,62.68160520000001,88.44752645999998,2.26891368,153.4954482
5.3,530,0.183,-0.918,-0.318,25.210152,-49.7327544,60.16059,88.67098008,1.6787669399999998,153.01989306000004
5.31,531,-0.084,-0.6559999999999999,-0.058,23.491278,-68.46848100000001,51.852699,88.90589286,1.1688343199999998,152.35526178
5.32,532,-0.259,-0.621,0.128,32.945085,-85.5999252,42.28430039999999,89.2382085,0.76203414,151.5187431
5.33,533,-0.344,-0.813,0.13,32.7731976,-83.76645959999998,31.627281600000003,89.57625372,0.46409598,150.69368358
5.34,534,-0.275,-1.246,-0.015,23.491278,-70.30194660000001,20.626488,89.81689608,0.28074942,150.00613398000004
5.35,535,-0.129,-1.889,-0.086,14.152062599999999,-50.8786704,12.4904844,89.96586515999998,0.16615782,149.50193094
5.36,536,-0.027000000000000003,-2.347,-0.005,5.443101,-35.46610020000001,9.1100322,90.02889053999998,0.0859437,149.15242656
5.37,537,0.087,-2.062,0.084,-0.9740286,-20.2827132,8.250595200000001,90.01743138,0.01145916,148.95189126
5.38,538,0.165,-1.379,0.035,-16.7876694,-5.6149884000000005,5.7868758000000025,89.85127356000002,-0.04010706,148.89459545999995
5.39,539,0.166,-0.973,0.055,-8.7089616,-0.286479,4.583664,89.75960028,-0.0859437,148.88886588
5.3999999999999995,540,0.15,-0.758,0.066,4.1252976000000015,-2.578311,2.9220857999999996,89.8111665,-0.08021412,148.86021798000004
5.41,541,0.136,-0.636,0.001,9.2819196,-6.589017,-0.9167328,89.90856936,-0.06875496,148.7971926
5.42,542,0.108,-0.574,-0.081,9.568398599999998,-11.4018642,-4.6982556,90.00597222,-0.01718874,148.682601
5.43,543,0.095,-0.512,-0.128,4.1825934,-18.1054728,-8.021412000000002,90.05180886000002,0.06302537999999999,148.50498402
5.4399999999999995,544,0.107,-0.441,-0.132,-2.3491278,-28.304125199999998,-10.8289062,90.02889053999998,0.17761697999999998,148.22996418
5.45,545,0.13,-0.364,-0.127,-5.7868758000000025,-41.19568020000001,-13.5791046,89.96013558000001,0.33804522,147.81743441999996
5.46,546,0.16899999999999998,-0.317,-0.102,-4.4117766,-54.8320806,-14.610429000000002,89.92002852,0.4984734599999999,147.27312432000005
5.47,547,0.183,-0.317,-0.077,-2.3491278,-64.28588760000001,-13.8082878,89.8971102,0.65317212,146.63714094
5.4799999999999995,548,0.187,-0.343,-0.053,-3.6096354,-71.33327100000002,-10.4278356,89.85700313999996,0.7734933,145.9324026
5.49,549,0.161,-0.399,-0.032,-6.417129599999999,-77.635809,-4.9274388,89.79397776,0.8422482600000001,145.16463887999996
5.5,550,0.131,-0.469,0.0,-9.3965112,-84.05293859999998,0.572958,89.6965749,0.86516658,144.33384977999995
5.51,551,0.105,-0.525,0.034,-12.891555,-88.7511942,5.958763200000001,89.56479456,0.8250595199999999,143.45149446
5.52,552,0.068,-0.563,0.083,-15.985528200000001,-89.26685640000002,9.3392154,89.40436632,0.7448454000000001,142.56913914
5.53,553,0.023,-0.5920000000000001,0.159,-15.9282324,-85.77181259999998,10.599723,89.2382085,0.65317212,141.7211613
5.54,554,-0.032,-0.633,0.261,-11.6310474,-83.4226848,11.172681,89.12361690000002,0.55003968,140.89610178
5.55,555,-0.08,-0.706,0.328,-6.875496000000001,-87.8917572,10.9434978,89.09496899999998,0.44117766,140.02520562
5.56,556,-0.092,-0.792,0.324,-1.5469866,-93.5640414,10.8289062,89.08923942,0.3437748,139.10274324
5.57,557,-0.07200000000000001,-0.889,0.304,9.797581800000001,-92.532717,12.834259199999998,89.19237186000002,0.2291832000000001,138.18601044
5.58,558,-0.039,-1.011,0.34700000000000003,25.4393352,-86.2874748,16.157415599999997,89.46166212,0.0859437,137.3380326
5.59,559,-0.019,-1.125,0.447,36.03905820000001,-78.1514712,17.9335854,89.83981440000002,-0.06875496,136.57026888
5.6,560,-0.035,-1.175,0.573,35.695283399999994,-68.46848100000001,15.6990492,90.240885,-0.20626488,135.89417844
5.61,561,-0.051,-1.156,0.621,25.8977016,-53.285094,8.59437,90.51590484,-0.26929026,135.37278666
5.62,562,-0.029,-1.105,0.623,19.938938399999998,-33.1742682,3.5523396000000003,90.72216972,-0.29220857999999994,135.0462006
5.63,563,-0.018000000000000002,-1.084,0.633,19.2513888,-20.1108258,4.583664,90.92270502,-0.32658606,134.85139488
5.64,564,-0.048,-1.091,0.552,19.7097552,-12.7196676,12.1467096,91.1289699,-0.44117766,134.72534412
5.6499999999999995,565,-0.101,-1.093,0.422,19.938938399999998,-8.9954406,22.8037284,91.38107142,-0.67609044,134.62794126
5.66,566,-0.118,-1.046,0.35600000000000004,19.0222056,-1.8334656000000005,32.486718599999996,91.57587714,-0.9969469199999998,134.59929336
5.67,567,-0.064,-0.963,0.191,22.459953600000002,0.3437748,37.7006364,91.80506034,-1.36936962,134.59356378
5.68,568,0.011,-0.974,-0.197,17.3606274,-19.2513888,34.66395900000001,91.99413648,-1.70168526,134.39302848
5.6899999999999995,569,0.023,-1.129,-0.643,-3.724227,-51.7381074,18.048177,91.97694774,-1.84492476,133.87736628
5.7,570,-0.068,-1.505,-0.991,-21.4286292,-60.6189564,-18.449247600000003,91.77641244,-1.6329303,133.28148996
5.71,571,-0.42,-2.133,-1.156,-17.8762896,-13.120738199999998,-72.13541219999998,91.59879546,-0.91100322,133.17262793999998
5.72,572,-0.743,-2.076,-1.023,16.7876694,43.0291458,-119.9201094,91.7592237,0.25210152,133.63672392
5.7299999999999995,573,-0.6970000000000001,-1.4580000000000002,-0.466,44.8053156,45.4928652,-106.2264132,92.21186052,1.28342592,134.1294678
5.74,574,-0.175,-1.038,-0.075,30.366774000000003,19.4232762,-66.11935319999999,92.52698742,1.93086846,134.35292142
5.75,575,0.246,-0.718,0.058,8.078707799999998,6.6463128000000005,-28.304125199999998,92.60720154,2.28037284,134.42740596
5.76,576,0.517,-0.633,-0.001,10.0840608,8.651665800000002,0.9740286,92.71033398,2.2631841,134.51334966
5.77,577,0.6659999999999999,-0.906,0.019,17.7044022,11.0580894,17.303331600000003,92.89368054,2.08556712,134.61075252
5.78,578,0.732,-1.5759999999999998,-0.04,8.651665800000002,-0.3437748,12.2040054,92.97962424,1.96524594,134.60502293999997
5.79,579,0.585,-2.106,-0.008,-3.7815227999999994,-11.8029348,-9.6829902,92.93951718,2.06837838,134.49043134
5.8,580,0.243,-2.272,0.123,0.0,-19.7097552,-34.091001,92.93378759999999,2.42361234,134.31854394
5.81,581,-0.193,-2.003,0.16,13.8655836,-24.8090814,-46.065823200000004,93.07129752,2.89916748,134.1008199
5.82,582,-0.4320000000000001,-1.615,0.12,24.637194,-18.449247600000003,-46.6387812,93.31193988,3.380452200000001,133.94612124
5.83,583,-0.496,-1.28,0.163,31.2835068,0.9167328,-41.825934,93.63279636,3.79298196,133.98622830000002
5.84,584,-0.478,-1.008,0.234,33.518043,25.0382646,-35.3515086,93.98803032,4.1252976000000015,134.26124814
5.85,585,-0.408,-0.821,0.206,27.3873924,48.0138804,-27.444688199999998,94.3088868,4.30291458,134.75972159999998
5.86,586,-0.305,-0.6940000000000001,0.118,17.589810600000003,69.8435802,-17.8189938,94.52661084,4.40604702,135.46445994
5.87,587,-0.219,-0.645,0.064,11.6310474,85.1415588,-9.3965112,94.69849824,4.4117766000000005,136.31243778
5.88,588,-0.146,-0.654,0.063,9.740286,98.9498466,-1.9480572,94.86465606,4.325832900000001,137.28646638
5.89,589,-0.085,-0.665,0.08199999999999999,7.2765666,110.17982340000002,3.3231564,95.00216598,4.16540466,138.36935699999998
5.8999999999999995,590,-0.026,-0.639,0.076,3.3231564,117.05531940000002,5.6149884000000005,95.09956884,3.97059894,139.52100258000002
5.91,591,0.016,-0.6,0.066,1.145916,118.8314892,5.6722842,95.17405338,3.7815227999999994,140.68410732
5.92,592,0.058,-0.57,0.071,-1.0886202,116.596953,3.5523396000000003,95.2256196,3.6096353999999997,141.83002332
5.93,593,0.054000000000000006,-0.5429999999999999,0.073,-6.6463128000000005,112.013289,0.7448454000000001,95.20843086,3.4663959,142.93010268
5.9399999999999995,594,0.022,-0.528,0.07,-14.152062599999999,112.4143596,-1.3178034,95.11675757999998,3.34607472,144.03018204
5.95,595,-0.002,-0.528,0.073,-19.767051,117.9147564,-2.2345362,94.9677885,3.2314831199999987,145.19328678000005
5.96,596,-0.022,-0.542,0.094,-22.86102420000001,123.8162238,-2.8074942000000003,94.78444194,3.1226211000000004,146.40795774
5.97,597,-0.045,-0.5539999999999999,0.103,-24.8090814,126.2799432,-2.5210152000000003,94.58390664,3.0080295,147.65127660000005
5.9799999999999995,598,-0.071,-0.5529999999999999,0.08,-21.8869956,122.6703078,-0.9167328,94.40628966,2.88770832,148.85448839999995
5.99,599,-0.097,-0.5660000000000001,0.093,-13.2353298,116.2531782,0.286479,94.31461638,2.76165756,150.0004044
6.0,600,-0.091,-0.5820000000000001,0.14800000000000002,-1.432395,112.299768,-0.5156622000000001,94.34326428,2.64706596,151.10621334
6.01,601,-0.054000000000000006,-0.5870000000000001,0.265,10.4851314,116.1958824,-3.2085648,94.48650378,2.55539268,152.25212934
6.02,602,-0.011,-0.609,0.394,14.8396122,125.0194356,-6.2452422,94.67557992,2.48663772,153.48971862000005
6.03,603,0.021,-0.62,0.468,11.9748222,129.4312122,-8.59437,94.83600816,2.42934192,154.77314454
6.04,604,0.051,-0.6409999999999999,0.454,9.167328,125.4205062,-9.5111028,94.9677885,2.38923486,156.01646340000005
6.05,605,0.084,-0.703,0.35600000000000004,12.032117999999999,114.9926706,-7.906820400000001,95.1396759,2.34339822,157.15092024
6.06,606,0.125,-0.816,0.253,17.4179232,98.7206634,-4.5263682,95.34594078,2.2746432600000004,158.13067842
6.07,607,0.17600000000000002,-0.952,0.203,20.5691922,82.7351352,-1.2605076000000002,95.57512398,2.18869956,158.94427878
6.08,608,0.248,-1.085,0.243,19.595163600000006,74.82831479999999,0.2291832000000001,95.79284802,2.0912967,159.68339459999999
6.09,609,0.326,-1.193,0.275,6.990087599999999,82.9643184,0.0,95.87879172,1.98816426,160.49699496
6.1,610,0.4320000000000001,-1.324,0.151,-13.2353298,102.7313694,2.4064236,95.76420011999998,1.84492476,161.49967146
6.11,611,0.602,-1.481,-0.121,-19.8243468,111.7841058,10.6570188,95.58085356,1.59855282,162.58256208
6.12,612,0.847,-1.924,-0.5760000000000001,-24.4080108,95.7985776,28.1322378,95.3402112,1.2032117999999998,163.49356530000003
6.13,613,1.054,-2.479,-0.963,-50.706783,50.993262,65.08802879999999,94.83027858,0.49274388,163.92901338
6.14,614,0.962,-2.292,-1.151,-32.7731976,13.2353298,90.24088499999999,94.49796294,-0.40680018,163.9805796
6.15,615,0.332,-1.452,-0.748,40.2216516,-6.016058999999999,76.8336678,94.88184479999998,-1.1573751600000002,163.86025841999995
6.16,616,-0.434,-1.129,0.177,92.1889422,-9.8548776,41.9978214,95.82149592,-1.5527161800000002,163.73420766
6.17,617,-0.879,-1.14,0.613,72.70837019999998,13.407217200000002,2.9220857999999996,96.55488216,-1.59855282,163.87171758
6.18,618,-0.931,-1.055,0.752,16.157415599999997,73.28132819999998,-18.2200644,96.6866625,-1.5183387000000002,164.6108334
6.1899999999999995,619,-0.7070000000000001,-1.087,0.416,-26.0122932,129.774987,-20.6837838,96.3715356,-1.50114996,165.90571848
6.2,620,-0.303,-1.486,0.0,-40.10706,148.22423460000005,-13.120738199999998,95.90171004,-1.56990492,167.36676138
6.21,621,0.168,-2.26,-0.155,-53.68616460000001,140.0309352,2.8074942000000003,95.29437456,-1.7761698,168.73040142
6.22,622,0.565,-2.607,0.052000000000000005,-48.8160216,142.0362882,15.5844576,94.7386053,-2.09702628,170.10550062
6.2299999999999995,623,0.7020000000000001,-2.274,0.062,-28.934379,145.58862779999995,19.3659804,94.36618259999999,-2.44080108,171.52070687999995
6.24,624,0.637,-1.4509999999999998,-0.105,-22.1161788,132.5251854,14.5531332,94.06824444,-2.7215505,172.80986238
6.25,625,0.495,-0.964,-0.055,6.760904399999999,108.5182452,6.3025379999999975,94.06251486,-2.8361421,173.86983468
6.26,626,0.387,-0.75,0.069,18.5638392,84.8550798,-1.0313244,94.1942952,-2.91062664,174.70635336
6.27,627,0.334,-0.653,0.18,5.2712136,74.7137232,-9.3965112,94.20002478,-2.88770832,175.45119875999995
6.28,628,0.31,-0.579,0.191,-15.469866,73.1667366,-19.0222056,93.99948948,-2.77311672,176.184585
6.29,629,0.268,-0.517,0.113,-28.7051958,73.5678072,-27.215505,93.66144426,-2.5783110000000002,176.92370082
6.3,630,0.208,-0.483,0.027000000000000003,-32.0283522,72.25000379999999,-30.9970278,93.28902156,-2.3147503200000004,177.65135748
6.31,631,0.134,-0.455,-0.033,-27.444688199999998,68.52577679999999,-29.9657034,92.97389466,-2.07983754,178.33890708
6.32,632,0.018000000000000002,-0.463,-0.04,-17.7044022,65.603691,-25.55392680000001,92.7619002,-1.87357266,178.99780878
6.33,633,-0.095,-0.512,0.014,-11.8602306,65.7755784,-17.0741484,92.61293112,-1.75325148,179.65671048000004
6.34,634,-0.199,-0.561,0.071,-13.521808800000002,69.6716928,-7.5630456000000015,92.4467733,-1.73033316,-179.6509809
6.35,635,-0.237,-0.594,0.131,-17.6471064,75.8596392,-0.8021411999999999,92.246238,-1.79908812,-178.9061355
6.36,636,-0.198,-0.603,0.16,-21.3713334,81.7611066,0.9167328,91.9884069,-1.8621135,-178.09826472
6.37,637,-0.125,-0.609,0.149,-21.3140376,86.05829159999998,-1.2605076000000002,91.73630538,-1.90222056,-177.25028688
6.38,638,-0.034,-0.638,0.105,-17.0741484,89.38144799999998,-4.8128472,91.51858134,-1.90222056,-176.36793156000005
6.39,639,0.087,-0.68,0.081,-11.0007936,89.83981440000002,-7.5057497999999985,91.36388268,-1.87930224,-175.47984666
6.4,640,0.225,-0.743,0.105,-5.1566220000000005,88.23553199999998,-8.5370742,91.28366856,-1.79908812,-174.61468008
6.41,641,0.315,-0.799,0.152,-0.2291832000000001,86.5739538,-7.5630456000000015,91.2435615,-1.76471064,-173.75524308
6.42,642,0.328,-0.821,0.204,3.2658606,86.5739538,-5.2139178,91.23783192,-1.75325148,-172.89580608
6.43,643,0.249,-0.807,0.233,9.3392154,90.0117018,-1.8334656000000005,91.29512772,-1.78189938,-172.00772118
6.4399999999999995,644,0.14300000000000002,-0.792,0.235,16.558486199999994,97.40286,2.578311,91.4154489,-1.85638392,-171.04515174
6.45,645,0.051,-0.774,0.243,22.5172494,105.5388636,7.2192707999999985,91.6159842,-1.9767051,-170.00236818
6.46,646,-0.022,-0.774,0.277,27.6165756,112.586247,10.3705398,91.84516740000001,-2.14286292,-168.89082966
6.47,647,-0.075,-0.8059999999999999,0.317,29.335449600000004,119.17526399999998,12.0894138,92.08008018,-2.33193906,-167.71626576
6.4799999999999995,648,-0.093,-0.885,0.327,26.929026,126.2799432,13.6936962,92.28061548,-2.5496631,-166.47294689999995
6.49,649,-0.049,-0.973,0.303,19.0222056,136.1921166,17.9335854,92.39520708,-2.81895336,-165.13222518
6.5,650,0.017,-1.05,0.227,12.9488508,142.26547140000002,23.2620948,92.4467733,-3.1398098400000003,-163.73993724
6.51,651,0.058,-1.11,0.16399999999999998,8.7662574,144.098937,28.5906042,92.42958456,-3.5236917,-162.32473098
6.52,652,0.061,-1.146,0.126,8.9381448,140.947668,33.9764094,92.41239582,-3.95913978,-160.9439022
6.53,653,0.026,-1.176,0.083,9.2819196,130.4052408,36.4974246,92.40093666,-4.40604702,-159.67193544
6.54,654,-0.017,-1.194,0.018000000000000002,6.760904399999999,115.56562859999998,33.9191136,92.36082960000002,-4.82430636,-158.54320818
6.55,655,-0.005,-1.207,-0.053,3.380452200000001,104.278356,23.835052800000003,92.28634506,-5.1222445200000015,-157.51761335999996
6.56,656,0.087,-1.298,-0.122,2.1199446,101.413566,5.958763200000001,92.20040136,-5.24829528,-156.52066644
6.57,657,0.17800000000000002,-1.409,-0.12,1.6615782,112.872726,-35.6379876,92.1029985,-4.96754586,-155.3862096
6.58,658,0.195,-1.466,-0.16899999999999998,1.8334656000000005,128.8582542,-79.1254998,91.99413648,-4.26280752,-154.07986536
6.59,659,0.096,-1.3869999999999998,-0.245,6.3598338,139.9163436,-107.2004418,91.94829984,-3.28304934,-152.65319994
6.6,660,0.014,-1.19,-0.202,5.7868758000000025,146.4480648,-107.4869208,91.9024632,-2.30329116,-151.16923872
6.61,661,-0.021,-0.987,-0.075,9.969469199999999,135.5618628,-86.91772859999998,91.93684068,-1.52406828,-149.7998691
6.62,662,-0.108,-0.926,0.042,5.5576926,121.3525044,-61.07732280000001,91.94829984,-0.9912173399999998,-148.57946855999995
6.63,663,-0.194,-0.963,-0.005,-10.4851314,124.5037734,-39.877876799999996,91.81078992,-0.6703608600000001,-147.33614970000005
6.64,664,-0.199,-1.097,-0.15,-24.8090814,140.66118899999998,-28.4760126,91.52431092,-0.46982556,-145.94386176
6.65,665,-0.126,-1.331,-0.134,-27.2728008,161.91793080000005,-24.7517856,91.20918402,-0.30939732,-144.33957936
6.66,666,-0.039,-1.524,-0.037000000000000005,-25.7258142,170.1112302,-24.2934192,90.91697544,-0.14896908,-142.66081242
6.67,667,0.0,-1.505,0.053,-21.6578124,170.3977092,-22.0015872,90.6706035,0.0,-140.9763159
6.68,668,0.011,-1.349,0.112,-13.8082878,172.05928740000004,-19.0795014,90.51017526,0.11459160000000004,-139.27463064
6.6899999999999995,669,0.006,-1.155,0.134,-4.0680017999999984,179.67962880000005,-16.157415599999997,90.45287946,0.21199446,-137.49846084
6.7,670,-0.041,-0.993,0.133,2.3491278,190.9669014,-14.381245800000002,90.46433862,0.28647900000000004,-135.60769943999998
6.71,671,-0.094,-0.899,0.131,4.010706000000001,201.108258,-13.2353298,90.48725694,0.3437748,-133.61953518
6.72,672,-0.123,-0.873,0.13699999999999998,3.151269,206.4367674,-12.605076,90.50444568,0.39534102,-131.5798047
6.7299999999999995,673,-0.139,-0.875,0.136,-0.3437748,211.7652768,-11.6310474,90.48725694,0.43544808,-129.48277842
6.74,674,-0.141,-0.8809999999999999,0.161,-2.1199446,216.7500114,-10.4278356,90.45287946,0.46409598,-127.34564507999998
6.75,675,-0.131,-0.882,0.196,-5.042030400000002,223.5109158,-9.224623800000002,90.40131324,0.46982556,-125.1340272
6.76,676,-0.104,-0.87,0.225,-8.021412000000002,230.042637,-7.5057497999999985,90.30963996,0.46409598,-122.86511352
6.77,677,-0.096,-0.851,0.246,-11.4018642,233.99604720000002,-6.990087599999999,90.17785962,0.4583664000000001,-120.55036319999999
6.78,678,-0.06,-0.852,0.265,-15.126091199999998,237.0900204,-5.3858052,90.0117018,0.44117766,-118.21269456
6.79,679,0.0,-0.86,0.251,-19.6524594,240.81424740000003,-3.4950437999999995,89.79970734,0.41252976,-115.83491886
6.8,680,0.049,-0.89,0.208,-20.3973048,243.3352626,-2.9220857999999996,89.58771288,0.38961144,-113.42849526
6.81,681,0.069,-0.938,0.177,-16.501190400000002,244.13740380000002,-4.0680017999999984,89.40436632,0.38388186,-111.02207165999998
6.82,682,0.076,-0.963,0.16699999999999998,-12.4331886,243.793629,-6.703608600000001,89.26112682,0.41252976,-108.60991848
6.83,683,0.08,-0.962,0.183,-7.2192707999999985,241.7309802,-10.1986524,89.16945354,0.48128472,-106.2264132
6.84,684,0.077,-0.94,0.22,-1.2605076000000002,238.4651196,-13.750992000000002,89.14653522,0.5844171599999999,-103.87155582
6.85,685,0.083,-0.917,0.263,3.6669312000000014,235.1419632,-16.329303,89.19237186000002,0.72192708,-101.54534634
6.86,686,0.081,-0.91,0.279,6.0733548,232.1625816,-17.4179232,89.25539724,0.86516658,-99.25351434
6.87,687,0.063,-0.93,0.265,7.2765666,228.8394252,-17.3606274,89.33561136,1.0026765,-96.99033024
6.88,688,0.035,-0.96,0.242,7.6203414,225.2870856,-16.272007199999994,89.42728464000002,1.12299768,-94.7672532
6.89,689,0.006,-0.987,0.227,7.3911582,220.2450552,-14.152062599999999,89.51895792,1.22613012,-92.5900128
6.9,690,-0.004,-1.007,0.203,5.6149884000000005,216.291645,-11.9748222,89.59917204,1.30061466,-90.45287946
6.91,691,-0.003,-0.999,0.174,4.5263682,211.2496146,-9.8548776,89.66792699999998,1.3579104599999998,-88.36158276
6.92,692,0.009000000000000001,-0.969,0.17800000000000002,5.0993262,206.26488,-8.880849000000003,89.74241154,1.39801752,-86.32185228
6.93,693,0.047,-0.923,0.205,6.417129599999999,202.4833572,-9.6829902,89.82835524000002,1.44958374,-84.32222886000002
6.9399999999999995,694,0.092,-0.885,0.223,7.5630456000000015,199.8477504,-12.891555,89.93148768,1.52406828,-82.34552376
6.95,695,0.138,-0.866,0.246,7.0473834,197.72780580000003,-17.589810600000003,90.04607927999999,1.6558486199999998,-80.39173698
6.96,696,0.203,-0.872,0.267,5.042030400000002,196.6391856,-22.1161788,90.13202298,1.82200644,-78.44367978
6.97,697,0.276,-0.915,0.249,1.0313244,196.00893180000003,-25.6112226,90.17785962,2.01681216,-76.50708174
6.9799999999999995,698,0.361,-1.008,0.21,-1.145916,193.8316914,-26.356068,90.2122371,2.21734746,-74.58767244
6.99,699,0.451,-1.153,0.151,-1.8907613999999997,185.5810962,-24.0069402,90.240885,2.39496444,-72.74847725999999
7.0,700,0.526,-1.325,0.076,-3.3231564,168.50694779999995,-18.1054728,90.25807374,2.53820394,-71.08116948
7.01,701,0.563,-1.465,0.01,-6.760904399999999,144.32812019999997,-8.7662574,90.22942584,2.5783110000000002,-69.65450406
7.02,702,0.545,-1.48,-0.04,-12.318597,120.8368422,0.572958,90.14348214,2.53247436,-68.46275141999999
7.03,703,0.45,-1.325,-0.06,-12.7196676,103.991877,6.3025379999999975,90.04607927999999,2.44080108,-67.43715660000001
7.04,704,0.307,-1.09,-0.008,-6.0733548,94.9964364,7.1046792000000005,90.0117018,2.34339822,-66.49750548
7.05,705,0.16399999999999998,-0.928,0.042,2.2345362,90.527364,3.380452200000001,90.06326802,2.29756158,-65.59796142
7.06,706,0.091,-0.847,0.062,4.1252976000000015,90.06899759999996,-1.5469866,90.1262934,2.28610242,-64.70987652
7.07,707,0.08199999999999999,-0.8340000000000001,0.051,3.8388186,90.1835892,-6.703608600000001,90.18931878,2.32620948,-63.81606204
7.08,708,0.115,-0.8540000000000001,0.036000000000000004,3.8388186,89.83981440000002,-11.1153852,90.25234416,2.4064236,-62.92797714000001
7.09,709,0.153,-0.8859999999999999,0.027000000000000003,3.151269,89.3241522,-13.8082878,90.30963996,2.51528562,-62.03989223999999
7.1,710,0.172,-0.926,0.027000000000000003,1.3178034,88.5793068,-14.4385416,90.3554766,2.64706596,-61.16326650000001
7.11,711,0.16399999999999998,-0.951,0.038,-0.8021411999999999,87.83446140000002,-13.349921400000001,90.37266534,2.7501984,-60.29237034000001
7.12,712,0.165,-0.954,0.052000000000000005,-1.2032118,86.8604328,-11.2872726,90.38985408,2.8361421,-59.43293334
7.13,713,0.166,-0.954,0.057,-0.1718874,84.8550798,-9.453807000000001,90.41850198,2.89916748,-58.59068508
7.14,714,0.18,-0.951,0.067,0.572958,83.65186800000002,-9.224623800000002,90.45860904,2.96219286,-57.76562556
7.15,715,0.2,-0.94,0.08,0.6302538000000001,81.9902898,-10.255948199999999,90.50444568,3.05959572,-56.9520252
7.16,716,0.228,-0.924,0.08199999999999999,0.5156622000000001,79.9849368,-11.9748222,90.53882316,3.151269,-56.16134316
7.17,717,0.252,-0.91,0.077,0.9167328,76.6617804,-13.349921400000001,90.57893022,3.25440144,-55.39930902
7.18,718,0.264,-0.908,0.077,2.5210152000000003,72.88025760000002,-13.6936962,90.63622602,3.36326346,-54.67165236
7.1899999999999995,719,0.265,-0.92,0.095,4.8701430000000006,69.4998054,-13.0634424,90.72216972,3.4663959,-53.984102760000006
7.2,720,0.258,-0.953,0.124,7.3911582,66.6350154,-11.8029348,90.84249090000002,3.59244666,-53.31947147999999
7.21,721,0.251,-0.992,0.139,7.8495246,63.7702254,-10.5424272,90.95135292,3.6669312000000014,-52.68921768
7.22,722,0.245,-1.024,0.145,6.760904399999999,63.02538000000001,-9.5111028,91.05448536,3.73568616,-52.05896388
7.2299999999999995,723,0.237,-1.036,0.136,5.2139178,63.4264506,-8.193299399999999,91.14042906,3.78725238,-51.42871008000001
7.24,724,0.231,-1.029,0.113,4.2398892,64.22859179999999,-6.703608600000001,91.2149136,3.82162986,-50.7927267
7.25,725,0.225,-1.02,0.093,3.724227,64.17129600000001,-5.3858052,91.29512772,3.87892566,-50.15674332
7.26,726,0.225,-1.008,0.075,3.0939732,63.942112800000004,-4.4117766,91.36388268,3.89038482,-49.52075994000001
7.27,727,0.223,-0.99,0.066,3.6096354,63.7702254,-3.8388186,91.43263764,3.896114400000001,-48.89050614
7.28,728,0.215,-0.97,0.063,4.3544808,63.48374640000001,-2.9793816000000004,91.51285176,3.89038482,-48.26025234
7.29,729,0.205,-0.953,0.067,5.443101,62.5097178,-0.8021411999999999,91.59879546,3.8674665,-47.63572812
7.3,730,0.199,-0.933,0.068,6.0733548,60.8481396,1.8334656000000005,91.69619832,3.8388186000000006,-47.03412222
7.31,731,0.199,-0.919,0.07400000000000001,7.2765666,58.0406454,4.583664,91.80506034,3.76433406,-46.46116422
7.32,732,0.204,-0.916,0.07400000000000001,8.4224826,54.717489,6.9327918,91.91392236,3.66120162,-45.922583700000004
7.33,733,0.214,-0.921,0.065,9.224623800000002,51.3943326,8.9954406,92.03424354,3.54088044,-45.41838066
7.34,734,0.219,-0.928,0.06,9.568398599999998,47.269034999999995,11.1153852,92.15456472,3.40337052,-44.95428468
7.35,735,0.219,-0.935,0.054000000000000006,9.9121734,41.8832298,13.178034,92.2748859,3.27731976,-44.54175492
7.36,736,0.2,-0.944,0.048,10.4851314,36.32553720000001,15.183387000000002,92.39520708,3.1054323600000004,-44.18652096
7.37,737,0.177,-0.956,0.054000000000000006,11.9748222,30.4813656,16.902261,92.52698742,2.91635622,-43.89431238
7.38,738,0.15,-0.968,0.063,13.2926256,26.4706596,17.303331600000003,92.67022692,2.72728008,-43.63648128
7.39,739,0.128,-0.986,0.067,14.152062599999999,23.8923486,16.7303736,92.82492558,2.54393352,-43.40729808
7.4,740,0.109,-1.007,0.073,14.495837400000001,22.058883,15.813640800000002,92.97962424,2.38350528,-43.20103320000001
7.41,741,0.096,-1.033,0.077,14.381245800000002,21.1421502,14.5531332,93.12859332,2.22307704,-42.99476832
7.42,742,0.096,-1.065,0.076,13.464512999999998,21.485925,13.120738199999998,93.27183282,2.07983754,-42.78850344
7.43,743,0.104,-1.092,0.07200000000000001,12.0894138,21.829699800000004,11.45916,93.39788358,1.9480572000000005,-42.58223856
7.4399999999999995,744,0.117,-1.107,0.07400000000000001,10.886202,21.6005166,9.9121734,93.51247518,1.82773602,-42.3702441
7.45,745,0.126,-1.093,0.077,11.1153852,20.1108258,8.5370742,93.62706678,1.75898106,-42.18116796
7.46,746,0.134,-1.063,0.07400000000000001,12.7769634,17.9335854,8.021412000000002,93.75884712,1.6615782,-42.00355098
7.47,747,0.132,-1.024,0.07400000000000001,14.610429000000002,15.6417534,7.8495246,93.91354578,1.56990492,-41.8545819
7.4799999999999995,748,0.127,-0.993,0.073,15.527161800000002,13.5791046,7.8495246,94.06824444,1.4782316400000002,-41.72280156
7.49,749,0.118,-0.971,0.07400000000000001,14.610429000000002,11.516455800000001,7.7922288,94.2229431,1.39228794,-41.61393954
7.5,750,0.101,-0.966,0.076,12.3758928,9.453807000000001,7.6776372,94.3375347,1.3464512999999998,-41.52226626
7.51,751,0.091,-0.977,0.075,9.3965112,7.333862400000001,7.5057497999999985,94.43493756,1.26623718,-41.45924088
7.52,752,0.087,-0.988,0.069,6.3598338,5.3858052,7.6203414,94.49796294,1.18029348,-41.40767466000001
7.53,753,0.086,-0.989,0.06,4.2398892,2.9793816000000004,7.448453999999999,94.54379958,1.10580894,-41.38475634
7.54,754,0.08199999999999999,-0.991,0.053,5.2139178,1.0886202,7.448453999999999,94.5953658,1.0313244,-41.37902676
7.55,755,0.075,-0.988,0.052000000000000005,6.2452422,-0.572958,7.6203414,94.61828412,1.00840608,-41.39048592
7.56,756,0.07,-0.987,0.057,7.161975,-1.6042823999999998,7.7922288,94.69276866,0.93392154,-41.41340424
7.57,757,0.097,-0.987,0.058,7.5630456000000015,-2.2345362,7.6776372,94.7672532,0.8594370000000001,-41.44205214
7.58,758,0.094,-0.989,0.07,8.136003599999999,-2.3491278,6.760904399999999,94.8531969,0.79641162,-41.47070004
7.59,759,0.077,-1.009,0.081,8.4224826,-2.1772404,5.3285094000000015,94.9391406,0.7448454000000001,-41.49361836
7.6,760,0.048,-1.036,0.08900000000000001,7.5630456000000015,-2.1199446,4.1825934,94.9964364,0.7391158200000001,-41.51653668
7.61,761,0.032,-1.056,0.095,6.6463128000000005,-2.4637194,3.5523396000000003,95.06519136,0.70473834,-41.54518458
7.62,762,0.026,-1.0659999999999998,0.102,6.760904399999999,-2.9220857999999996,2.9793816000000004,95.13394632,0.68182002,-41.57383248
7.63,763,0.016,-1.069,0.111,6.8182002000000015,-3.724227,2.8074942000000003,95.20270128,0.6589017,-41.61393954
7.64,764,0.015,-1.057,0.115,6.4744254,-4.7555514,3.0366774,95.26572666,0.6302538000000001,-41.66550576
7.65,765,0.021,-1.039,0.114,6.3598338,-6.875496000000001,3.7815227999999994,95.32875204,0.61879464,-41.73426072
7.66,766,0.039,-1.016,0.115,6.8182002000000015,-9.9121734,4.8128472,95.39750699999999,0.5786875800000001,-41.83166358
7.67,767,0.046,-0.996,0.121,7.5630456000000015,-12.891555,5.5003968,95.47772112,0.5443101,-41.96344392
7.68,768,0.057,-0.978,0.125,7.9641161999999985,-15.469866,5.9014674000000005,95.55793524,0.5042030399999999,-42.12387216000001
7.6899999999999995,769,0.05,-0.969,0.122,8.136003599999999,-18.334656,6.0733548,95.64387894,0.46409598,-42.30721872
7.7,770,0.045,-0.97,0.12,8.078707799999998,-20.454600600000006,5.7868758000000025,95.72409306,0.4526368200000001,-42.5134836
7.71,771,0.036000000000000004,-0.975,0.119,8.021412000000002,-22.0015872,5.443101,95.81003676,0.42398892,-42.73120764
7.72,772,0.03,-0.987,0.122,8.021412000000002,-22.6891368,4.8128472,95.89025088,0.40680018,-42.96039084
7.7299999999999995,773,0.024,-0.999,0.123,7.3911582,-22.5172494,4.4690724,95.96473541999998,0.39534102,-43.18384446
7.74,774,0.014,-1.009,0.118,6.6463128000000005,-22.1161788,4.4690724,96.03921996,0.37815228,-43.40729808
7.75,775,0.005,-1.013,0.113,6.1879464,-21.4286292,4.6982556,96.09078618,0.36096354,-43.61929254
7.76,776,0.0,-1.016,0.108,6.6463128000000005,-20.798375399999998,5.2712136,96.16527072,0.33804522,-43.831287
7.77,777,-0.002,-1.021,0.106,7.333862400000001,-20.2254174,5.7868758000000025,96.23975526,0.30939732,-44.0318223
7.78,778,-0.002,-1.022,0.106,7.6203414,-19.8816426,6.2452422,96.31996938,0.27501984,-44.2323576
7.79,779,0.002,-1.017,0.106,7.5630456000000015,-19.5378678,6.5317212,96.39445392000002,0.23491278,-44.4328929
7.8,780,0.006999999999999999,-1.008,0.107,7.333862400000001,-19.2513888,6.5317212,96.46320888,0.20053530000000008,-44.62769862
7.81,781,0.01,-0.994,0.108,7.448453999999999,-18.907614000000002,6.2452422,96.543423,0.16615782,-44.81677476
7.82,782,0.008,-0.984,0.105,7.7922288,-18.6784308,5.958763200000001,96.62363712,0.13750992,-45.0058509
7.83,783,0.006999999999999999,-0.975,0.103,8.021412000000002,-18.6784308,5.5576926,96.70385124,0.10886202,-45.19492704
7.84,784,0.0,-0.969,0.109,8.307891,-17.8189938,5.2712136,96.79552452,0.08021412,-45.3782736
7.85,785,-0.012,-0.972,0.114,8.59437,-15.6990492,5.042030400000002,96.87000906,0.04583664,-45.53870184
7.86,786,-0.018000000000000002,-0.977,0.112,8.5370742,-13.6936962,5.1566220000000005,96.96168234,0.01718874,-45.67621176
7.87,787,-0.021,-0.988,0.113,8.651665800000002,-11.745639,5.3285094000000015,97.04762603999998,-0.01145916,-45.79653294000001
7.88,788,-0.02,-0.998,0.116,8.8235532,-9.8548776,5.3285094000000015,97.13929932,-0.04583664,-45.89966538
7.89,789,-0.018000000000000002,-1.01,0.12,8.9954406,-8.078707799999998,5.0993262,97.2309726,-0.0859437,-45.98560908
7.9,790,-0.018000000000000002,-1.021,0.121,8.59437,-6.1879464,4.6982556,97.29972756,-0.12605075999999998,-46.04863446
7.91,791,-0.015,-1.029,0.119,7.7349330000000025,-4.2398892,4.1825934,97.37994168,-0.16042824,-46.0944711
7.92,792,-0.011,-1.032,0.113,7.3911582,-2.6356068,3.6669312000000014,97.45442622,-0.19480572,-46.123119
7.93,793,-0.006999999999999999,-1.034,0.116,7.6203414,-1.6615782,3.2658606,97.53464034,-0.22345362,-46.14603732
7.94,794,-0.008,-1.031,0.117,7.0473834,-1.2605076000000002,2.9793816000000004,97.6033953,-0.25210152,-46.16322606
7.95,795,-0.012,-1.018,0.117,6.6463128000000005,-1.2032118,2.6356068,97.62631362,-0.28074942,-46.17468522
7.96,796,-0.019,-1.002,0.116,6.9327918,-1.6042823999999998,2.291832,97.69506857999998,-0.29793816,-46.19187396
7.97,797,-0.03,-0.99,0.114,7.5630456000000015,-1.7188740000000002,2.0053530000000004,97.7752827,-0.31512690000000004,-46.21479228000001
7.9799999999999995,798,-0.036000000000000004,-0.983,0.115,8.193299399999999,-1.5469866,1.6042823999999998,97.85549682,-0.33231564,-46.231981020000006
7.99,799,-0.038,-0.985,0.116,8.651665800000002,-1.0313244,1.145916,97.9471701,-0.33804522,-46.2377106
8.0,800,-0.036000000000000004,-0.996,0.122,8.880849000000003,-0.2291832000000001,0.5156622000000001,97.98154758,-0.3724227000000001,-46.24344018
8.01,801,-0.03,-1.013,0.129,8.193299399999999,0.7448454000000001,0.0,98.06749128,-0.37815228,-46.2377106
8.02,802,-0.02,-1.022,0.138,7.1046792000000005,1.0886202,-0.2291832000000001,98.13624624,-0.3724227000000001,-46.22052186000001
8.03,803,-0.009000000000000001,-1.025,0.149,6.130650599999999,1.0886202,-0.1718874,98.19927162,-0.3724227000000001,-46.2090627
8.04,804,0.0,-1.023,0.155,5.6149884000000005,1.2605076000000002,-0.057295800000000015,98.25656742,-0.37815228,-46.19760354
8.05,805,0.008,-1.019,0.156,4.9847345999999995,0.9740286,0.0,98.27375616,-0.32658606,-46.18614438
8.06,806,0.01,-1.017,0.151,4.297185,-0.11459160000000004,-0.1718874,98.3195928,-0.32658606,-46.18614438
8.07,807,0.006999999999999999,-1.018,0.14400000000000002,3.7815227999999994,-1.6615782,-0.4583664000000001,98.35969986,-0.31512690000000004,-46.19760354
8.08,808,-0.001,-1.018,0.135,3.380452200000001,-3.2658606,-0.7448454000000001,98.39407734,-0.30366774,-46.231981020000006
8.09,809,-0.009000000000000001,-1.015,0.133,3.151269,-4.9274388,-1.145916,98.42845481999998,-0.28074942,-46.27781766
8.1,810,-0.016,-1.009,0.131,3.2085648,-5.6149884000000005,-1.432395,98.41126608,-0.26929026,-46.32938388
8.11,811,-0.019,-1.005,0.135,3.4950437999999995,-6.0733548,-1.4896908000000002,98.45137314,-0.24064236,-46.38667968
8.12,812,-0.019,-1.007,0.14,3.380452200000001,-5.9014674000000005,-1.6042823999999998,98.48575062,-0.21772404,-46.44397548
8.13,813,-0.014,-1.009,0.146,2.4064236,-4.9847345999999995,-1.432395,98.50866894,-0.19480572,-46.48981212
8.14,814,-0.003,-1.011,0.149,1.0886202,-3.4950437999999995,-1.2605076000000002,98.5201281,-0.17761697999999998,-46.51846002
8.15,815,0.003,-1.013,0.145,0.1718874,-2.291832,-0.9167328,98.4055365,-0.10313244,-46.54137834
8.16,816,0.006999999999999999,-1.012,0.14,-0.5156622000000001,-1.6042823999999998,-0.6302538000000001,98.39980692,-0.09167328,-46.5528375
8.17,817,0.008,-1.007,0.136,-1.3178034,-1.3750992,-0.4583664000000001,98.38261818,-0.0859437,-46.57002624
8.18,818,0.006,-1.0,0.134,-1.4896908000000002,-1.5469866,-0.3437748,98.37115902,-0.08021412,-46.58148540000001
8.19,819,0.003,-0.996,0.134,-1.4896908000000002,-1.9480572,-0.3437748,98.35397028,-0.07448454,-46.59867414
8.2,820,0.0,-0.997,0.136,-1.3178034,-2.2345362,-0.6875496,98.262297,-0.05156622,-46.62159246
8.209999999999999,821,-0.005,-1.0,0.141,-1.3178034,-2.1199446,-1.0886202,98.25083784,-0.03437748,-46.638781200000004
8.22,822,-0.008,-1.004,0.145,-1.4896908000000002,-1.6615782,-1.432395,98.2336491,-0.01718874,-46.65596994000001
8.23,823,-0.006999999999999999,-1.004,0.145,-1.7188740000000002,-1.145916,-1.6042823999999998,98.21646036,0.0,-46.6674291
8.24,824,-0.006,-1.004,0.145,-1.8907613999999997,-0.4583664000000001,-1.6615782,98.19927162,0.01145916,-46.6674291
8.25,825,-0.003,-1.0,0.145,-1.8334656000000005,0.0,-1.7188740000000002,98.1190575,0.03437748,-46.6674291
8.26,826,-0.001,-1.001,0.147,-1.145916,0.0,-1.6042823999999998,98.10759834,0.05156622,-46.66169952
8.27,827,0.002,-1.003,0.14800000000000002,-0.8594370000000001,-0.286479,-1.5469866,98.09613918,0.06875496,-46.66169952
8.28,828,0.006,-1.002,0.15,-1.0886202,-0.3437748,-1.3750992,98.08468002,0.08021412,-46.6674291
8.29,829,0.013,-1.0,0.151,-1.2032118,-0.4010706,-1.2032118,98.07322086,0.09167328,-46.6674291
8.3,830,0.017,-0.995,0.15,-1.2032118,-0.3437748,-1.0886202,97.99873632,0.18907614,-46.6674291
8.31,831,0.015,-0.994,0.147,-1.2605076000000002,-0.3437748,-0.8021411999999999,97.98727716,0.20053530000000008,-46.67315868000001
8.32,832,0.01,-0.993,0.147,-1.6615782,-0.2291832000000001,-0.4583664000000001,97.97008842,0.20626488,-46.67315868000001
8.33,833,0.006,-0.992,0.147,-1.8334656000000005,-0.1718874,-0.2291832000000001,97.95289968,0.20626488,-46.67315868000001
8.34,834,0.003,-0.995,0.146,-1.4896908000000002,-0.057295800000000015,-0.11459160000000004,97.93571094,0.20626488,-46.67315868000001
8.35,835,0.001,-0.996,0.147,-1.3178034,0.0,-0.1718874,97.83830808,0.22345362,-46.67888826
8.36,836,0.001,-1.002,0.146,-1.2605076000000002,0.0,-0.4010706,97.82684892,0.2291832000000001,-46.67315868000001
8.37,837,0.006999999999999999,-1.004,0.145,-1.4896908000000002,-0.057295800000000015,-0.572958,97.80966018,0.23491278,-46.67888826
8.38,838,0.013,-1.004,0.14400000000000002,-1.5469866,0.11459160000000004,-0.6875496,97.79247144,0.24064236,-46.67315868000001
8.39,839,0.017,-1.002,0.14,-1.7761698,0.4583664000000001,-0.6302538000000001,97.7752827,0.24637194,-46.6674291
8.4,840,0.016,-0.998,0.138,-1.8334656000000005,0.8021411999999999,-0.5156622000000001,97.69506857999998,0.30939732,-46.65596994000001
8.41,841,0.015,-0.994,0.136,-1.7188740000000002,1.145916,-0.286479,97.67787984,0.31512690000000004,-46.64451078000001
8.42,842,0.014,-0.991,0.13699999999999998,-1.432395,1.0886202,-0.11459160000000004,97.6606911,0.31512690000000004,-46.638781200000004
8.43,843,0.015,-0.99,0.139,-1.3750992,0.9167328,-0.2291832000000001,97.64923194,0.31512690000000004,-46.62732204
8.44,844,0.019,-0.989,0.14,-1.4896908000000002,0.8594370000000001,-0.5156622000000001,97.6320432,0.31512690000000004,-46.61586288
8.45,845,0.019,-0.991,0.142,-1.3750992,0.8021411999999999,-0.8021411999999999,97.58047698,0.39534102,-46.60440372
8.459999999999999,846,0.018000000000000002,-0.994,0.142,-1.145916,0.7448454000000001,-0.9167328,97.56328824,0.4010706000000001,-46.59867414
8.47,847,0.016,-0.998,0.14400000000000002,-1.3178034,0.7448454000000001,-0.8594370000000001,97.55182908,0.40680018,-46.58721498
8.48,848,0.015,-1.001,0.14400000000000002,-1.6042823999999998,0.8594370000000001,-0.6875496,97.53464034,0.41252976,-46.58148540000001
