TimeStamp(s),FrameCounter,AccX,AccY,AccZ,GyrX,GyrY,GyrZ,EulerX,EulerY,EulerZ
0.01,1,0.036000000000000004,-1.008,0.031,-0.6302538000000001,-6.417129599999999,-1.0313244000000001,87.3474471,3.61536498,4.7555514
0.02,2,0.04,-1.014,0.024,-1.7188740000000002,-8.8235532,-1.3750992,87.32452878000002,3.62682414,4.6696076999999985
0.03,3,0.033,-1.02,0.021,-1.7761698000000001,-9.682990199999999,-1.3178034,87.30161045999998,3.6382833,4.57220484
0.04,4,0.025,-1.021,0.017,-2.0053530000000004,-9.9694692,-1.0886202,87.27296256,3.64974246,4.4690724
0.05,5,0.02,-1.021,0.011000000000000001,-2.5210152000000003,-9.740286,-0.9167328000000001,87.25577381999999,3.6382833,4.37739912
0.060000000000000005,6,0.012,-1.012,0.005,-3.0939732,-9.3392154,-1.145916,87.22139634,3.64974246,4.27999626
0.06999999999999999,7,0.008,-1.002,0.003,-2.7501984,-8.7662574,-1.7188740000000002,87.18701886,3.66120162,4.19405256
0.08,8,0.006999999999999999,-0.996,0.0,-2.6929026,-8.4224826,-2.291832,87.15264138,3.68411994,4.10810886
0.09,9,0.01,-0.9940000000000001,0.0,-2.9793816000000004,-8.3651868,-2.6356068,87.1182639,3.70703826,4.022165159999999
0.09999999999999999,10,0.011000000000000001,-0.996,0.0,-2.9220858,-8.136003599999999,-2.7501984,87.09534558,3.71849742,3.94195104
0.11,11,0.021,-1.005,0.0,-2.6929026,-7.8495246,-2.9793816000000004,87.0609681,3.74714532,3.86173692
0.12,12,0.018000000000000002,-0.995,0.003,-2.6929026,-7.2192707999999985,-2.8074942000000003,87.03232019999999,3.77579322,3.79298196
0.13,13,0.015,-0.99,0.005,-2.8074942000000003,-6.703608600000001,-2.4637194,86.99794272,3.79871154,3.7242269999999995
0.14,14,0.011000000000000001,-0.987,0.009000000000000001,-3.1512689999999997,-6.2452422,-2.8074942000000003,86.96356524000002,3.82162986,3.66120162
0.15000000000000002,15,0.005,-0.9890000000000001,0.005,-2.86479,-5.3285094000000015,-2.9220858,86.94064691999998,3.82735944,3.6096354
0.16,16,0.012,-0.9890000000000001,0.001,-2.291832,-4.583664,-2.6356068,86.91772859999998,3.85027776,3.56379876
0.17,17,0.009000000000000001,-0.996,-0.003,-1.7761698000000001,-4.2398892,-2.0053530000000004,86.89481028,3.873196080000002,3.51796212
0.18000000000000002,18,0.006,-0.998,0.004,-1.6042823999999998,-4.0680017999999984,-1.6615782,86.87762153999998,3.88465524,3.47785506
0.19,19,0.009000000000000001,-1.001,0.006999999999999999,-1.2605076000000002,-3.5523396000000003,-1.432395,86.8604328,3.90184398,3.4377480000000005
0.2,20,0.026000000000000002,-0.9990000000000001,0.013999999999999999,-0.7448454000000001,-3.0939732,-1.6615782,86.88908070000002,3.87892566,3.4091001000000003
0.21000000000000002,21,0.035,-0.998,0.015,-0.11459160000000004,-2.0053530000000004,-1.8907614,86.88908070000002,3.896114400000001,3.3919113599999995
0.22,22,0.048,-0.99,0.013000000000000001,-0.2291832000000001,-1.5469866,-1.8907614,86.88335112,3.9190327200000006,3.37472262
0.23,23,0.048,-0.9940000000000001,0.011000000000000001,-0.057295800000000015,-1.7761698000000001,-1.4896908000000002,86.88335112,3.93049188,3.35753388
0.24000000000000002,24,0.015,-0.997,0.013000000000000001,0.5156622000000001,-2.0053530000000004,-0.9167328000000001,86.88908070000002,3.94195104,3.33461556
0.25,25,0.017,-0.998,0.004,0.9740286,-2.5783110000000002,-0.6302538000000001,86.92345818,3.90184398,3.31742682
0.26,26,0.016,-0.998,0.006,1.432395,-2.1199446,-1.145916,86.94064691999998,3.91330314,3.2945085
0.27,27,0.015,-1.002,0.006,1.8907614,-0.8021411999999999,-1.145916,86.95783566,3.9247623,3.28304934
0.28,28,0.017,-1.0,0.006,2.0626488000000003,0.057295800000000015,-1.0886202,86.98075398,3.93622146,3.28877892
0.29000000000000004,29,0.02,-1.003,0.008,2.5783110000000002,0.5156622000000001,-1.145916,87.0036723,3.94768062,3.28877892
0.3,30,0.024,-0.9990000000000001,0.005,3.0939732,0.9167328000000001,-1.0313244000000001,87.06669767999998,3.9190327200000006,3.3059676599999994
0.31,31,0.012,-0.9940000000000001,0.006,3.1512689999999997,1.432395,-0.572958,87.10107516000002,3.93049188,3.31742682
0.32,32,0.024,-0.9890000000000001,0.01,3.3231564,2.291832,-0.6302538000000001,87.13545264000004,3.93622146,3.34034514
0.33,33,0.031,-0.9890000000000001,0.021,4.3544808,3.0939732,-1.2032118,87.18128928,3.94768062,3.37472262
0.34,34,0.043,-1.003,0.019,4.7555514,3.6096353999999997,-1.4896908000000002,87.2328555,3.9648693599999993,3.4091001000000003
0.35000000000000003,35,0.044000000000000004,-1.014,0.008,3.8388186,3.4377480000000005,-1.7761698000000001,87.29015129999998,3.97059894,3.44347758
0.36000000000000004,36,0.016,-1.026,0.006999999999999999,3.1512689999999997,3.1512689999999997,-1.7188740000000002,87.32452878000002,3.98778768,3.47785506
0.37,37,-0.013000000000000001,-1.024,0.009000000000000001,2.8074942000000003,2.3491277999999998,-1.2032118,87.35317668,3.99924684,3.50077338
0.38,38,-0.051,-1.013,0.024,3.1512689999999997,3.4377480000000005,-0.6875496,87.38755416000002,4.00497642,3.5351508600000003
0.39,39,0.042,-0.9990000000000001,0.031,2.4637194,3.9534102,-1.7761698000000001,87.41620206,4.02789474,3.57525792
0.4,40,0.042,-0.9990000000000001,0.040999999999999995,4.583664,6.589017,-2.4637194,87.48495702,4.04508348,3.6382833
0.41000000000000003,41,0.011000000000000001,-1.002,0.02,2.4637194,7.7922288,-2.0626488000000003,87.51360492,4.0680017999999984,3.71849742
0.42000000000000004,42,0.028999999999999998,-1.0070000000000001,-0.002,-0.057295800000000015,6.3025379999999975,-2.0053530000000004,87.5193345,4.08519054,3.77579322
0.43,43,0.02,-0.981,0.015,0.6302538000000001,5.958763200000001,-2.9220858,87.53079366,4.11383844,3.83308902
0.44,44,-0.01,-1.004,0.026000000000000002,3.8388186,6.990087599999999,-2.4064236,87.57090072000004,4.14248634,3.90757356
0.45,45,0.013000000000000001,-1.045,0.013000000000000001,4.5263682,8.136003599999999,-1.4896908000000002,87.6339261,4.14248634,3.98778768
0.46,46,0.049,-1.016,-0.006,1.145916,7.5630456000000015,-2.4064236,87.64538526,4.16540466,4.06227222
0.47000000000000003,47,0.066,-0.993,0.006,1.3750992,7.0473834,-3.7815228,87.66830358,4.20551172,4.1310271799999985
0.48000000000000004,48,0.076,-0.993,0.018000000000000002,3.0939732,8.193299399999999,-3.8961144,87.70268106,4.24561878,4.211241299999998
0.49,49,0.07200000000000001,-0.98,0.0,0.572958,8.136003599999999,-2.8074942000000003,87.71414021999998,4.27426668,4.29145542
0.5,50,0.076,-0.985,-0.024,0.8021411999999999,5.844171599999999,-1.432395,87.71414021999998,4.297185000000002,4.34875122
0.51,51,0.057,-1.003,-0.04,-0.40107059999999994,2.8074942000000003,-0.5156622000000001,87.70841064,4.30291458,4.37739912
0.52,52,0.052000000000000005,-1.018,-0.032,-2.4637194,1.145916,-0.40107059999999994,87.68549232000002,4.30864416,4.38885828
0.53,53,0.063,-0.998,-0.019,-2.9220858,0.0,-1.7761698000000001,87.65684442,4.325832900000001,4.38885828
0.54,54,0.051,-1.032,0.02,1.432395,-0.572958,-2.9220858,87.66830358,4.3544808,4.3831287
0.55,55,0.033,-1.056,0.025,0.286479,-2.0053530000000004,-3.0366774,87.68549232000002,4.36021038,4.36021038
0.56,56,0.019,-1.083,0.008,-5.0993262,-4.4690724,-3.2658606,87.62819652,4.38885828,4.31437374
0.5700000000000001,57,0.034,-1.056,0.024,-7.0473834,-5.042030400000002,-3.5523396000000003,87.55371198,4.42323576,4.26280752
0.5800000000000001,58,0.040999999999999995,-1.0070000000000001,0.034,-2.8074942000000003,-4.4690724,-4.4117766,87.52506408,4.4690724,4.21697088
0.59,59,0.047,-1.043,0.049,-3.2085647999999996,-5.5576926,-6.0160589999999985,87.48495702,4.5263682,4.15967508
0.6,60,0.040999999999999995,-1.028,0.055,-6.4744254,-6.0160589999999985,-5.72958,87.4333908,4.57220484,4.0966497
0.61,61,0.019,-1.004,0.04,-6.8182002000000015,-6.9327918,-5.0993262,87.35890626,4.6180414800000005,4.02789474
0.62,62,0.03,-1.001,0.048,-8.479778399999999,-6.6463128000000005,-4.1252976000000015,87.26723297999996,4.65814854,3.9534102
0.63,63,0.034,-1.013,0.032,-9.5111028,-5.958763200000001,-4.0680017999999984,87.16410053999998,4.6982556,3.896114400000001
0.64,64,0.036000000000000004,-1.0170000000000001,0.016,-11.1153852,-4.4117766,-2.86479,87.04950894,4.72117392,3.84454818
0.65,65,0.009000000000000001,-0.987,0.01,-11.401864199999999,-3.380452200000001,-2.291832,86.94064691999998,4.72117392,3.81590028
0.66,66,0.002,-0.993,0.002,-9.9694692,-3.6096353999999997,-1.9480572,86.83751448000002,4.73836266,3.77579322
0.67,67,0.006,-0.982,0.017,-8.136003599999999,-1.6615782,-2.1199446,86.75157078,4.76128098,3.75860448
0.68,68,0.013999999999999999,-0.9990000000000001,0.006,-7.906820400000001,0.2291832000000001,-1.7761698000000001,86.67135666,4.77846972,3.75860448
0.6900000000000001,69,0.024,-0.995,-0.006,-8.7089616,1.145916,-2.1199446,86.57968338,4.79565846,3.77006364
0.7000000000000001,70,0.026000000000000002,-0.995,0.006999999999999999,-7.6203414,2.291832,-2.86479,86.52811716,4.80711762,3.79298196
0.7100000000000001,71,0.031,-1.005,0.012,-7.5630456000000015,2.3491277999999998,-3.2085647999999996,86.44790304,4.8414951,3.810170700000002
0.72,72,0.033,-1.02,0.018000000000000002,-7.5630456000000015,2.1772404,-2.9220858,86.37341849999999,4.8701430000000006,3.83308902
0.73,73,0.053,-1.001,0.013000000000000001,-6.990087599999999,2.291832,-2.5210152000000003,86.30466354,4.893061319999998,3.85027776
0.74,74,0.05,-1.025,0.013999999999999999,-5.042030400000002,2.7501984,-1.8907614,86.25309732000002,4.91597964,3.87892566
0.75,75,0.046,-1.033,0.013000000000000001,-4.6409598,3.2085647999999996,-1.2032118,86.24163816000002,4.91025006,3.90757356
0.76,76,0.045,-1.026,0.02,-5.2139178,3.7242269999999995,-0.9740286,86.19007194,4.91597964,3.94768062
0.77,77,0.043,-1.035,0.03,-4.9274388,3.7242269999999995,-1.2032118,86.13850572,4.93316838,3.9820581
0.78,78,0.035,-1.041,0.037000000000000005,-4.8128472,3.0366774,-1.8334656000000005,86.09266908,4.95035712,4.010706
0.79,79,0.049,-1.035,0.031,-5.443101,1.9480572,-2.5210152000000003,86.04110286,4.97900502,4.02789474
0.8,80,0.069,-1.037,0.023,-5.6149884000000005,0.1718874,-2.8074942000000003,86.01818454000002,5.0019233399999985,4.02789474
0.81,81,0.081,-1.034,0.019,-5.5003968,-1.432395,-2.6929026,85.96088874,5.03057124,4.010706
0.8200000000000001,82,0.078,-1.028,0.013000000000000001,-5.72958,-2.6356068,-2.4064236,85.90359294,5.05348956,3.9820581
0.8300000000000001,83,0.063,-1.026,0.011000000000000001,-5.5003968,-3.4950437999999995,-2.0626488000000003,85.84629714,5.0706783,3.94195104
0.8400000000000001,84,0.055,-1.014,0.005,-5.6722842,-4.010706000000001,-1.432395,85.78327176,5.08213746,3.90184398
0.85,85,0.057,-0.988,-0.001,-6.130650599999999,-4.1252976000000015,-0.6875496,85.73743512,5.07640788,3.86173692
0.86,86,0.055,-0.972,-0.004,-6.130650599999999,-4.3544808,-0.4583664000000001,85.67440974,5.07640788,3.81590028
0.87,87,0.051,-0.953,-0.013999999999999999,-6.2452422,-4.5263682,-0.572958,85.60565478000002,5.08213746,3.77006364
0.88,88,0.046,-0.9490000000000001,-0.025,-6.1879464,-4.4690724,-1.0886202,85.53689982,5.08786704,3.7242269999999995
0.89,89,0.035,-0.9590000000000001,-0.031,-5.6149884000000005,-4.4117766,-1.7761698000000001,85.47960402,5.10505578,3.67839036
0.9,90,0.028999999999999998,-0.97,-0.037000000000000005,-5.1566220000000005,-4.0680017999999984,-2.3491277999999998,85.4280378,5.0993262,3.6382833
0.91,91,0.026000000000000002,-0.985,-0.039,-4.6409598,-4.1252976000000015,-2.8074942000000003,85.37647158,5.127974099999999,3.59244666
0.92,92,0.017,-1.003,-0.037000000000000005,-4.010706000000001,-4.1825934,-3.0366774,85.33063494000002,5.1566220000000005,3.54661002
0.93,93,0.03,-1.02,-0.038,-3.7815228,-3.7242269999999995,-2.6929026,85.29052787999998,5.17954032,3.50650296
0.9400000000000001,94,0.025,-1.0270000000000001,-0.038,-3.9534102,-2.9220858,-2.291832,85.24469124,5.2024586400000015,3.47785506
0.9500000000000001,95,0.021,-1.016,-0.034,-3.8388186,-1.3178034,-2.0053530000000004,85.2275025,5.16235158,3.47212548
0.9600000000000001,96,0.025,-1.0070000000000001,-0.032,-3.7815228,0.286479,-1.5469866,85.18739544,5.17954032,3.47212548
0.97,97,0.032,-0.996,-0.031,-3.4950437999999995,1.8334656000000005,-1.432395,85.15301796,5.19672906,3.48931422
0.98,98,0.044000000000000004,-0.9890000000000001,-0.024,-3.0939732,3.0366774,-1.3178034,85.12437006,5.20818822,3.51796212
0.99,99,0.049,-0.992,-0.017,-2.6929026,3.6669312000000014,-1.3750992,85.10145173999999,5.22537696,3.5523396000000003
1.0,100,0.045,-0.9990000000000001,-0.013000000000000001,-2.86479,3.9534102,-1.3178034,85.10718132,5.2139178,3.59817624
1.01,101,0.040999999999999995,-1.003,-0.012,-2.86479,4.010706000000001,-1.0886202,85.07853342,5.22537696,3.63255372
1.02,102,0.040999999999999995,-1.006,-0.011000000000000001,-2.6929026,4.4690724,-0.9167328000000001,85.0556151,5.23683612,3.67839036
1.03,103,0.040999999999999995,-1.01,-0.012,-3.0939732,4.8701430000000006,-0.7448454000000001,85.0269672,5.24829528,3.7242269999999995
1.04,104,0.044000000000000004,-1.01,-0.011000000000000001,-3.1512689999999997,5.3858052,-0.9167328000000001,84.99831929999998,5.25975444,3.77579322
1.05,105,0.037000000000000005,-1.01,-0.01,-2.86479,6.3025379999999975,-0.9740286,84.99831929999998,5.24829528,3.84454818
1.06,106,0.039,-1.0170000000000001,-0.009000000000000001,-2.6929026,7.161975,-1.0886202,84.97540097999997,5.2654840200000015,3.91330314
1.07,107,0.039,-1.012,-0.013000000000000001,-3.1512689999999997,8.021412000000002,-1.0886202,84.95248266,5.27694318,3.99351726
1.08,108,0.054000000000000006,-1.006,-0.016,-3.3231564,8.651665800000002,-1.145916,84.92383476,5.29413192,4.07373138
1.09,109,0.059000000000000004,-1.004,-0.02,-3.5523396000000003,9.0527364,-1.0313244000000001,84.89518686,5.311320660000002,4.16540466
1.1,110,0.063,-1.0,-0.023,-3.4950437999999995,9.167328,-1.0313244000000001,84.8837277,5.31705024,4.25707794
1.11,111,0.057999999999999996,-1.0,-0.024,-3.5523396000000003,8.7089616,-1.0313244000000001,84.8550798,5.33423898,4.34302164
1.12,112,0.051,-1.001,-0.023,-3.4377480000000005,7.6203414,-0.9167328000000001,84.8264319,5.3456981400000005,4.41750618
1.1300000000000001,113,0.049,-1.0,-0.022000000000000002,-3.2085647999999996,6.7609043999999985,-0.7448454000000001,84.79778400000002,5.3571573,4.48053156
1.1400000000000001,114,0.049,-0.9990000000000001,-0.019,-3.1512689999999997,6.0733548,-0.6875496,84.7691361,5.36861646,4.54355694
1.1500000000000001,115,0.048,-0.9990000000000001,-0.018000000000000002,-3.0939732,5.6149884000000005,-0.8021411999999999,84.77486567999998,5.3571573,4.6008527400000006
1.1600000000000001,116,0.052000000000000005,-1.0,-0.017,-3.0939732,4.9274388,-1.0313244000000001,84.74621778000002,5.36861646,4.64668938
1.17,117,0.055999999999999994,-1.002,-0.017,-2.9793816000000004,3.8388186,-1.7188740000000002,84.71756988,5.385805199999999,4.68679644
1.18,118,0.059000000000000004,-1.005,-0.018000000000000002,-2.6929026,2.9220858,-2.3491277999999998,84.68892198,5.4144530999999985,4.70971476
1.19,119,0.055999999999999994,-1.0070000000000001,-0.016,-2.1199446,2.0053530000000004,-2.4637194,84.67173324000002,5.43737142,4.7269035000000015
1.2,120,0.064,-1.005,-0.013000000000000001,-1.9480572,0.6875496,-2.3491277999999998,84.72902904,5.43737142,4.73263308
1.21,121,0.068,-1.001,-0.008,-2.1199446,-0.5156622000000001,-2.2345362,84.70611072,5.46028974,4.7269035000000015
1.22,122,0.076,-0.998,-0.008,-2.1199446,-1.2605076000000002,-2.1199446,84.68319240000002,5.47747848,4.70971476
1.23,123,0.078,-0.998,-0.011000000000000001,-2.0626488000000003,-1.7761698000000001,-2.0626488000000003,84.66027408,5.5003968,4.69252602
1.24,124,0.078,-1.002,-0.012,-1.8907614,-2.5783110000000002,-1.8907614,84.63735576,5.51758554,4.66387812
1.25,125,0.079,-1.004,-0.009000000000000001,-2.0053530000000004,-3.7815228,-1.3750992,84.66027408,5.51758554,4.62377106
1.26,126,0.079,-1.006,-0.006999999999999999,-2.2345362,-5.1566220000000005,-0.7448454000000001,84.63162618,5.52331512,4.57220484
1.27,127,0.078,-1.003,-0.011000000000000001,-2.5210152000000003,-6.3598338,-0.11459160000000004,84.59724870000002,5.52331512,4.50917946
1.28,128,0.073,-1.003,-0.013000000000000001,-2.3491277999999998,-7.6203414,0.286479,84.56860079999998,5.51185596,4.43469492
1.29,129,0.067,-1.003,-0.012,-2.1772404,-8.5370742,0.40107059999999994,84.5399529,5.5003968,4.34875122
1.3,130,0.069,-1.0,-0.013000000000000001,-2.4637194,-9.2819196,0.5156622000000001,84.53422332,5.48320806,4.25707794
1.31,131,0.076,-0.995,-0.016,-2.7501984,-9.9121734,0.8021411999999999,84.49411626,5.466019319999999,4.15967508
1.32,132,0.07400000000000001,-0.997,-0.017,-2.5210152000000003,-10.828906199999999,1.2605076000000002,84.45973878,5.44883058,4.05081306
1.33,133,0.067,-0.9990000000000001,-0.02,-1.8907614,-11.688343199999998,1.432395,84.43109088,5.42591226,3.93622146
1.34,134,0.052000000000000005,-1.002,-0.023,-1.3750992,-12.7196676,1.2032118,84.40817256,5.40299394,3.810170700000002
1.35,135,0.038,-1.006,-0.019,-1.0313244000000001,-13.2353298,0.6875496,84.40817256,5.36861646,3.68411994
1.36,136,0.033,-1.005,-0.012,-1.2605076000000002,-12.9488508,0.3437748,84.38525424,5.35142772,3.5523396000000003
1.37,137,0.036000000000000004,-1.006,-0.01,-1.6042823999999998,-12.4904844,0.2291832000000001,84.36233591999998,5.3456981400000005,3.43201842
1.3800000000000001,138,0.04,-1.01,-0.013000000000000001,-1.6615782,-12.5477802,-0.057295800000000015,84.33368802,5.33423898,3.3059676599999994
1.3900000000000001,139,0.04,-1.0170000000000001,-0.019,-1.9480572,-12.4904844,-0.7448454000000001,84.30504012,5.33423898,3.1799169000000003
1.4000000000000001,140,0.038,-1.022,-0.025,-2.0626488000000003,-12.032118,-1.3178034,84.28785138,5.31705024,3.05959572
1.4100000000000001,141,0.033,-1.024,-0.025,-1.8334656000000005,-11.45916,-1.9480572,84.26493306,5.3285094000000015,2.94500412
1.42,142,0.028999999999999998,-1.022,-0.022000000000000002,-1.8334656000000005,-10.886202,-2.4637194,84.23628516,5.3456981400000005,2.8361421
1.43,143,0.012,-1.02,-0.02,-1.8334656000000005,-9.682990199999999,-2.9220858,84.20763725999998,5.36861646,2.73873924
1.44,144,0.003,-1.0190000000000001,-0.024,-2.0626488000000003,-7.3911582,-3.4377480000000005,84.17898936,5.3972643599999985,2.65852512
1.45,145,0.009000000000000001,-1.014,-0.027999999999999997,-2.5210152000000003,-4.6982555999999995,-3.8961144,84.17325978,5.3972643599999985,2.61268848
1.46,146,0.033,-1.004,-0.027999999999999997,-3.4377480000000005,-2.3491277999999998,-3.7242269999999995,84.13888229999998,5.4316418399999975,2.58977016
1.47,147,0.055999999999999994,-0.981,-0.022000000000000002,-4.4117766,-1.145916,-2.4064236,84.09304566,5.45456016,2.57258142
1.48,148,0.067,-0.971,-0.02,-4.5263682,-1.0313244000000001,-1.145916,84.04147944,5.46028974,2.5611222600000003
1.49,149,0.057999999999999996,-0.975,-0.023,-4.3544808,-1.2032118,-0.6302538000000001,83.9956428,5.466019319999999,2.5496631
1.5,150,0.046,-0.986,-0.035,-4.3544808,-0.8594370000000001,-0.6875496,83.98991322,5.42591226,2.54393352
1.51,151,0.03,-1.005,-0.038,-3.7242269999999995,0.0,-1.145916,83.95553574,5.43737142,2.54393352
1.52,152,0.019,-1.0190000000000001,-0.035,-2.86479,1.3750992,-1.4896908000000002,83.92688783999998,5.45456016,2.55539268
1.53,153,0.016,-1.0270000000000001,-0.027999999999999997,-2.6929026,2.5783110000000002,-2.0626488000000003,83.89823994000002,5.47747848,2.578311
1.54,154,0.021,-1.028,-0.024,-2.9220858,3.8388186,-2.5210152000000003,83.86959204,5.50612638,2.61268848
1.55,155,0.026000000000000002,-1.0270000000000001,-0.026000000000000002,-3.2085647999999996,5.2139178,-2.6929026,83.86959204,5.5003968,2.6642547000000003
1.56,156,0.032,-1.023,-0.028999999999999998,-3.8388186,6.417129599999999,-2.6356068,83.83521456,5.53477428,2.72728008
1.57,157,0.039,-1.0190000000000001,-0.038,-4.583664,7.161975,-2.291832,83.7951075,5.56342218,2.79603504
1.58,158,0.048,-1.014,-0.038,-4.8701430000000006,7.1046792000000005,-1.8907614,83.74927086,5.5863404999999995,2.86479
1.59,159,0.054000000000000006,-1.014,-0.038,-5.2139178,6.990087599999999,-2.0626488000000003,83.70343421999998,5.60925882,2.92781538
1.6,160,0.059000000000000004,-1.016,-0.038,-4.583664,7.1046792000000005,-2.2345362,83.6805159,5.62644756,3.00229992
1.61,161,0.062,-1.016,-0.04,-4.1825934,6.990087599999999,-2.5210152000000003,83.64613842,5.65509546,3.0653253000000005
1.62,162,0.065,-1.014,-0.04,-3.8961144,6.589017,-2.6356068,83.61176094,5.68947294,3.12835068
1.6300000000000001,163,0.066,-1.0090000000000001,-0.039,-3.380452200000001,5.958763200000001,-2.6356068,83.57738346,5.71812084,3.18564648
1.6400000000000001,164,0.065,-1.0070000000000001,-0.037000000000000005,-2.7501984,5.2139178,-2.6356068,83.55446514,5.7467687399999985,3.2314831199999987
1.6500000000000001,165,0.062,-1.0,-0.037000000000000005,-2.1199446,4.8701430000000006,-2.8074942000000003,83.57165388,5.7582279000000005,3.28304934
1.6600000000000001,166,0.057999999999999996,-1.002,-0.038,-1.5469866,4.8128472,-2.7501984,83.55446514,5.79260538,3.3231564
1.6700000000000002,167,0.057,-1.003,-0.044000000000000004,-1.8334656000000005,4.8128472,-2.8074942000000003,83.54300598,5.82125328,3.3689930400000003
1.68,168,0.061,-1.001,-0.048,-2.0053530000000004,4.3544808,-2.8074942000000003,83.52581724,5.85563076,3.4091001000000003
1.69,169,0.069,-0.997,-0.055,-2.0053530000000004,4.1825934,-2.6929026,83.5086285,5.88427866,3.4492071599999994
1.7,170,0.077,-0.996,-0.062,-2.1772404,4.010706000000001,-2.5783110000000002,83.50289891999998,5.9014674000000005,3.48931422
1.71,171,0.084,-0.992,-0.069,-2.4064236,3.5523396000000003,-2.3491277999999998,83.48571018,5.930115299999999,3.51796212
1.72,172,0.087,-0.993,-0.076,-2.4064236,2.7501984,-2.0053530000000004,83.46279186000002,5.9530336199999985,3.54661002
1.73,173,0.091,-0.993,-0.08199999999999999,-2.291832,1.8334656000000005,-1.6615782,83.43987354000002,5.97022236,3.5580691799999995
1.74,174,0.091,-0.9890000000000001,-0.086,-2.1199446,0.7448454000000001,-1.4896908000000002,83.41695522,5.9874111,3.56379876
1.75,175,0.09,-0.983,-0.091,-1.7188740000000002,-0.3437748,-1.5469866,83.3940369,5.9874111,3.56379876
1.76,176,0.08900000000000001,-0.98,-0.08900000000000001,-0.40107059999999994,-2.1199446,-1.4896908000000002,83.38830732,5.99887026,3.54088044
1.77,177,0.087,-0.976,-0.08800000000000001,0.40107059999999994,-3.2658606,-1.6615782,83.38830732,6.01032942,3.50650296
1.78,178,0.086,-0.973,-0.085,1.0313244000000001,-4.010706000000001,-1.8334656000000005,83.3940369,6.0275181600000005,3.4663959
1.79,179,0.086,-0.9740000000000001,-0.08,1.8334656000000005,-4.8701430000000006,-2.0053530000000004,83.41122564,6.0447069,3.4148296799999995
1.8,180,0.081,-0.976,-0.075,2.4064236,-5.443101,-2.0053530000000004,83.43987354000002,6.05043648,3.35753388
1.81,181,0.081,-0.977,-0.069,2.6929026,-6.0160589999999985,-2.0053530000000004,83.46279186000002,6.067625219999999,3.2945085
1.82,182,0.08,-0.977,-0.067,3.3231564,-6.4744254,-2.0626488000000003,83.48571018,6.0790843799999985,3.2314831199999987
1.83,183,0.08,-0.982,-0.062,3.5523396000000003,-6.6463128000000005,-1.8907614,83.52008766,6.09627312,3.1627281600000003
1.84,184,0.081,-0.988,-0.059000000000000004,3.4377480000000005,-6.589017,-1.3750992,83.54873556,6.1020027,3.0939732
1.85,185,0.078,-0.991,-0.06,3.2658606,-6.7609043999999985,-0.9167328000000001,83.58884262000002,6.09627312,3.03094782
1.86,186,0.076,-0.993,-0.06,3.2085647999999996,-7.0473834,-0.572958,83.61749052,6.09627312,2.9564632800000004
1.87,187,0.073,-0.992,-0.059000000000000004,3.1512689999999997,-7.3911582,-0.3437748,83.64040884,6.09054354,2.88770832
1.8800000000000001,188,0.07200000000000001,-0.992,-0.057,2.8074942000000003,-7.6203414,-0.11459160000000004,83.66332716000002,6.08481396,2.8074942000000003
1.8900000000000001,189,0.07400000000000001,-0.995,-0.054000000000000006,2.4637194,-7.9641161999999985,-0.057295800000000015,83.6805159,6.0790843799999985,2.73300966
1.9000000000000001,190,0.077,-0.997,-0.052000000000000005,2.0626488000000003,-8.307891,0.11459160000000004,83.71489338,6.06189564,2.65279554
1.9100000000000001,191,0.079,-1.004,-0.052000000000000005,1.3178034,-8.59437,0.3437748,83.72062296,6.05043648,2.56685184
1.9200000000000002,192,0.08,-1.01,-0.051,0.5156622000000001,-8.8235532,0.8021411999999999,83.71489338,6.0332477399999975,2.48090814
1.93,193,0.081,-1.014,-0.053,-0.057295800000000015,-9.224623800000002,1.2032118,83.7091638,6.016058999999999,2.38923486
1.94,194,0.078,-1.015,-0.051,-0.4583664000000001,-9.568398599999998,1.5469866,83.69197505999998,5.9931406800000016,2.29756158
1.95,195,0.076,-1.0190000000000001,-0.05,-0.6875496,-10.026765,1.9480572,83.69770464000001,5.9530336199999985,2.20015872
1.96,196,0.07400000000000001,-1.022,-0.046,-1.145916,-10.313244000000001,2.1199446,83.67478632,5.92438572,2.09702628
1.97,197,0.07,-1.024,-0.044000000000000004,-1.8907614,-10.7143146,2.4064236,83.64613842,5.89000824,1.99389384
1.98,198,0.064,-1.026,-0.04,-2.4064236,-10.7143146,2.6356068,83.61176094,5.85563076,1.8907614
1.99,199,0.059000000000000004,-1.026,-0.04,-3.0366774,-10.4851314,2.8074942000000003,83.57165388,5.815523699999999,1.78762896
2.0,200,0.055999999999999994,-1.024,-0.042,-4.3544808,-10.3705398,2.8074942000000003,83.53727640000002,5.76968706,1.6902260999999998
2.01,201,0.054000000000000006,-1.023,-0.046,-5.2139178,-10.1986524,2.8074942000000003,83.47425102000003,5.72958,1.59282324
2.02,202,0.053,-1.0170000000000001,-0.055,-5.958763200000001,-10.599723,2.9220858,83.40549606,5.68947294,1.4896908000000002
2.03,203,0.05,-1.01,-0.061,-5.9014674000000005,-10.7716104,2.8074942000000003,83.3367411,5.65509546,1.38655836
2.04,204,0.05,-1.004,-0.063,-6.2452422,-10.828906199999999,2.3491277999999998,83.26225656,5.62071798,1.27769634
2.05,205,0.05,-1.0,-0.063,-6.417129599999999,-10.599723,1.8907614,83.19923118,5.574881339999999,1.18029348
2.0599999999999996,206,0.048,-1.0,-0.065,-6.990087599999999,-10.4278356,1.6042823999999998,83.11901706,5.5519630200000005,1.07716104
2.07,207,0.047,-0.998,-0.067,-7.6203414,-9.9694692,1.2032118,83.03307336,5.5290447,0.97975818
2.0799999999999996,208,0.043,-0.995,-0.068,-8.193299399999999,-9.5111028,0.7448454000000001,82.94140008000002,5.51185596,0.8823553199999999
2.09,209,0.039,-0.991,-0.065,-8.193299399999999,-9.453807,0.286479,82.84972680000001,5.5003968,0.7906820400000001
2.0999999999999996,210,0.033,-0.987,-0.063,-7.734933000000002,-9.568398599999998,-0.2291832000000001,82.77524226,5.4717489000000015,0.69900876
2.11,211,0.028999999999999998,-0.9840000000000001,-0.057999999999999996,-7.0473834,-9.6256944,-0.9740286,82.69502814,5.4717489000000015,0.6016058999999999
2.1199999999999997,212,0.026000000000000002,-0.9840000000000001,-0.055999999999999994,-6.0733548,-9.6256944,-1.5469866,82.62627318,5.47747848,0.5042030399999999
2.13,213,0.025,-0.983,-0.052000000000000005,-4.8128472,-9.3392154,-2.0626488000000003,82.56897738,5.48320806,0.40680018
2.1399999999999997,214,0.023,-0.986,-0.044000000000000004,-3.5523396000000003,-8.7089616,-2.5210152000000003,82.52314074,5.5003968,0.31512690000000004
2.15,215,0.02,-0.99,-0.034,-2.291832,-7.7922288,-3.0939732,82.52887032,5.48893764,0.24064236
2.1599999999999997,216,0.013999999999999999,-0.9940000000000001,-0.026000000000000002,-0.6302538000000001,-6.3025379999999975,-3.4950437999999995,82.51741116,5.51758554,0.1718874
2.17,217,0.013000000000000001,-0.9990000000000001,-0.015,0.5156622000000001,-5.1566220000000005,-3.7815228,82.51741116,5.5519630200000005,0.11459160000000003
2.1799999999999997,218,0.008,-1.0,-0.004,1.5469866,-3.4950437999999995,-4.0680017999999984,82.52887032,5.5863404999999995,0.07448454
2.19,219,0.012,-0.9990000000000001,0.004,2.1772404,-1.2032118,-4.4690724,82.55178864,5.63217714,0.057295800000000015
2.1999999999999997,220,0.012,-1.003,0.012,2.6929026,1.0313244000000001,-4.8128472,82.65492108,5.63217714,0.07448454
2.21,221,0.016,-1.006,0.019,3.0366774,3.5523396000000003,-4.9274388,82.68929856,5.6837433599999985,0.10313244
2.2199999999999998,222,0.021,-1.01,0.021,3.380452200000001,5.958763200000001,-4.6982555999999995,82.72940562,5.735309579999999,0.15469866
2.23,223,0.03,-1.018,0.016,3.4377480000000005,7.5630456000000015,-4.0680017999999984,82.76951268,5.781146219999999,0.22345362
2.2399999999999998,224,0.042,-1.026,0.011000000000000001,3.1512689999999997,8.59437,-2.9793816000000004,82.80961973999997,5.82125328,0.30939732
2.25,225,0.055,-1.03,0.004,2.6929026,8.4224826,-1.8334656000000005,82.90129302,5.8269828599999975,0.38961144
2.26,226,0.07,-1.03,-0.002,1.7761698000000001,7.6776372,-0.8594370000000001,82.92421134,5.844171599999999,0.46409598
2.27,227,0.08,-1.0290000000000001,-0.011000000000000001,0.7448454000000001,6.8182002000000015,-0.057295800000000015,82.9356705,5.85563076,0.53285094
2.28,228,0.085,-1.025,-0.019,-0.40107059999999994,5.844171599999999,0.3437748,82.9356705,5.85563076,0.59014674
2.29,229,0.086,-1.022,-0.027999999999999997,-1.7188740000000002,5.1566220000000005,0.572958,82.92421134,5.85563076,0.64744254
2.3,230,0.085,-1.0190000000000001,-0.040999999999999995,-3.2085647999999996,4.9274388,0.5156622000000001,82.9356705,5.849901179999999,0.69327918
2.31,231,0.085,-1.013,-0.055,-4.4690724,4.4690724,0.2291832000000001,82.88983386,5.849901179999999,0.7391158200000001
2.32,232,0.079,-1.006,-0.06,-5.6149884000000005,3.8388186,0.0,82.83826764,5.849901179999999,0.7792228800000001
2.3299999999999996,233,0.07200000000000001,-1.0090000000000001,-0.06,-5.2139178,2.9220858,0.0,82.78670142,5.85563076,0.8021412000000001
2.34,234,0.068,-1.0190000000000001,-0.055,-4.4690724,2.291832,-0.286479,82.74086478000002,5.861360339999999,0.8250595199999999
2.3499999999999996,235,0.073,-1.028,-0.051,-4.010706000000001,2.4064236,-0.6875496,82.74659436,5.849901179999999,0.8537074199999999
2.36,236,0.083,-1.036,-0.05,-3.6096353999999997,3.3231564,-0.6875496,82.71794646,5.861360339999999,0.8823553199999999
2.3699999999999997,237,0.095,-1.047,-0.034,-3.0366774,3.380452200000001,-0.8594370000000001,82.68929856,5.8728194999999985,0.9167328
2.38,238,0.10400000000000001,-1.051,-0.008,-2.5210152000000003,1.6615782,-1.145916,82.66065066,5.88427866,0.93392154
2.3899999999999997,239,0.107,-1.0490000000000002,0.015,-1.3750992,-0.6302538000000001,-1.145916,82.6491915,5.895737819999999,0.92246238
2.4,240,0.106,-1.0490000000000002,0.02,-0.3437748,-3.2085647999999996,-1.0886202,82.76951268,5.9129265600000025,0.8880849000000001
2.4099999999999997,241,0.10099999999999999,-1.051,0.017,-0.9740286,-4.5263682,-1.3750992,82.75232394,5.92438572,0.8422482600000001
2.42,242,0.098,-1.052,0.013000000000000001,-2.5210152000000003,-5.7868758000000025,-2.0053530000000004,82.72367604,5.93584488,0.7792228800000001
2.4299999999999997,243,0.096,-1.047,0.006999999999999999,-4.297185,-6.7609043999999985,-2.6929026,82.67210982,5.958763200000001,0.7104679199999999
2.44,244,0.095,-1.0390000000000001,-0.011000000000000001,-6.2452422,-7.161975,-3.2085647999999996,82.60335486,5.98168152,0.63598338
2.4499999999999997,245,0.09,-1.024,-0.028999999999999998,-7.3911582,-6.8182002000000015,-3.4950437999999995,82.54605906,6.00459984,0.56149884
2.46,246,0.084,-1.004,-0.046,-7.6776372,-5.9014674000000005,-3.6669312000000014,82.46011536,6.0332477399999975,0.4984734599999999
2.4699999999999998,247,0.078,-0.977,-0.059000000000000004,-7.906820400000001,-5.042030400000002,-4.010706000000001,82.37417166,6.067625219999999,0.44117766
2.48,248,0.068,-0.953,-0.065,-8.307891,-3.7242269999999995,-4.3544808,82.28822796,6.1077322800000005,0.4010706000000001
2.4899999999999998,249,0.065,-0.938,-0.069,-8.7662574,-2.2345362,-4.583664,82.19655467999998,6.147839339999999,0.36669312
2.5,250,0.064,-0.93,-0.07400000000000001,-9.1100322,-0.8021411999999999,-4.5263682,82.11061098,6.18221682,0.35523396
2.51,251,0.065,-0.924,-0.079,-9.396511199999999,0.6302538000000001,-4.4117766,82.01320812,6.22232388,0.35523396
2.52,252,0.068,-0.92,-0.086,-9.6256944,2.1772404,-4.1825934,81.92153484,6.26816052,0.3724227000000001
2.53,253,0.07,-0.9229999999999999,-0.091,-9.682990199999999,3.4377480000000005,-4.010706000000001,81.82413198,6.30826758,0.39534102
2.54,254,0.073,-0.9259999999999999,-0.091,-9.224623800000002,4.1825934,-3.7242269999999995,81.73245870000002,6.348374640000001,0.43544808
2.55,255,0.071,-0.932,-0.086,-8.193299399999999,4.5263682,-3.7815228,81.66370374,6.382752120000001,0.47555514
2.56,256,0.071,-0.937,-0.075,-6.703608600000001,5.5576926,-3.8388186,81.60067836,6.4228591800000014,0.52139178
2.57,257,0.07400000000000001,-0.946,-0.062,-5.3285094000000015,6.1879464,-3.8388186,81.54911214,6.4686958200000015,0.5786875800000001
2.5799999999999996,258,0.075,-0.961,-0.053,-4.1825934,7.161975,-3.4377480000000005,81.51473466,6.51453246,0.64171296
2.59,259,0.079,-0.98,-0.045,-3.1512689999999997,8.193299399999999,-2.5210152000000003,81.49181634,6.54890994,0.72192708
2.5999999999999996,260,0.08,-1.002,-0.039,-2.4064236,8.651665800000002,-1.3750992,81.52046424,6.5546395199999985,0.8078707799999998
2.61,261,0.078,-1.024,-0.036000000000000004,-1.9480572,9.167328,-0.286479,81.50900508000002,6.566098679999999,0.89954406
2.6199999999999997,262,0.073,-1.04,-0.031,-2.0626488000000003,9.8548776,0.4583664000000001,81.49754592000002,6.57755784,0.9969469199999998
2.63,263,0.069,-1.0490000000000002,-0.034,-2.8074942000000003,10.7143146,0.9167328000000001,81.48035718,6.57755784,1.10007936
2.6399999999999997,264,0.063,-1.05,-0.042,-4.1252976000000015,12.261301199999998,1.0886202,81.45170928,6.58328742,1.22613012
2.65,265,0.063,-1.04,-0.054000000000000006,-5.3285094000000015,13.2926256,0.9167328000000001,81.43452054,6.5718282599999975,1.3579104599999998
2.6599999999999997,266,0.065,-1.03,-0.065,-6.3025379999999975,14.266654199999998,0.9167328000000001,81.38295432,6.57755784,1.50114996
2.67,267,0.07200000000000001,-1.02,-0.073,-7.2192707999999985,15.2406828,1.0313244000000001,81.32565852,6.589017,1.65011904
2.6799999999999997,268,0.08,-1.011,-0.078,-8.3651868,15.870936600000002,1.4896908000000002,81.25690356,6.589017,1.81054728
2.69,269,0.092,-1.003,-0.077,-9.453807,15.813640800000002,2.0053530000000004,81.17668943999998,6.589017,1.97097552
2.6999999999999997,270,0.102,-0.998,-0.076,-10.1986524,15.183387000000002,2.3491277999999998,81.10220489999998,6.58328742,2.1199446
2.71,271,0.109,-0.998,-0.07200000000000001,-10.2559482,14.7823164,2.3491277999999998,81.01053162,6.57755784,2.26891368
2.7199999999999998,272,0.10400000000000001,-1.0,-0.067,-9.7975818,15.3552744,1.8907614,80.92458792,6.57755784,2.42361234
2.73,273,0.094,-1.004,-0.055999999999999994,-9.2819196,16.157415599999997,1.145916,80.85010338000002,6.589017,2.58404058
2.7399999999999998,274,0.085,-1.0090000000000001,-0.046,-8.9954406,17.0168526,0.4583664000000001,80.77561884,6.60620574,2.75592798
2.75,275,0.078,-1.015,-0.038,-9.167328,17.8762896,-0.1718874,80.72405262,6.623394479999999,2.92781538
2.76,276,0.08,-1.0170000000000001,-0.03,-9.7975818,19.308684600000007,-0.6875496,80.64383849999999,6.65204238,3.11689152
2.77,277,0.086,-1.014,-0.025,-10.5424272,20.7410796,-1.0886202,80.55789480000001,6.69214944,3.3231564
2.78,278,0.094,-1.008,-0.025,-11.0007936,21.944291399999997,-1.2605076000000002,80.46622152,6.7322565,3.5351508600000003
2.79,279,0.109,-0.996,-0.021,-11.2299768,22.4599536,-1.145916,80.37454824,6.77236356,3.752874900000001
2.8,280,0.122,-0.9840000000000001,-0.013000000000000001,-11.0580894,21.886995600000002,-0.572958,80.31152286,6.812470620000001,3.9648693599999993
2.81,281,0.139,-0.973,-0.002,-10.886202,20.340009,0.1718874,80.22557916000002,6.8411185199999975,4.16540466
2.82,282,0.154,-0.966,0.009000000000000001,-10.5424272,18.334656,0.7448454000000001,80.13390588000001,6.858307260000001,4.34875122
2.8299999999999996,283,0.16699999999999998,-0.961,0.026000000000000002,-9.568398599999998,16.272007199999994,1.2032118,80.05369175999998,6.86976642,4.50917946
2.84,284,0.17600000000000002,-0.9640000000000001,0.039,-8.307891,14.037471,1.4896908000000002,79.9849368,6.86976642,4.65241896
2.8499999999999996,285,0.174,-0.973,0.047,-7.333862400000001,11.401864199999999,1.2032118,79.99639596,6.9041438999999984,4.76128098
2.86,286,0.168,-0.9940000000000001,0.05,-6.589017,9.1100322,0.6302538000000001,79.93910016,6.90987348,4.85295426
2.8699999999999997,287,0.153,-1.021,0.05,-6.417129599999999,8.307891,-0.572958,79.88180436,6.9270622200000025,4.93316838
2.88,288,0.138,-1.044,0.040999999999999995,-5.2712136,9.396511199999999,-2.2345362,79.84169729999998,6.9614397000000015,5.01911208
2.8899999999999997,289,0.132,-1.061,0.035,-3.9534102,11.2872726,-3.7815228,79.80731982,7.01300592,5.127974099999999
2.9,290,0.135,-1.056,0.028999999999999998,-4.6982555999999995,12.2040054,-4.7555514,79.83023813999998,7.0874904600000015,5.23683612
2.9099999999999997,291,0.142,-1.031,0.024,-5.3285094000000015,12.3758928,-5.042030400000002,79.7844015,7.15624542,5.35142772
2.92,292,0.156,-0.9990000000000001,0.024,-4.8701430000000006,11.745639,-4.6982555999999995,79.75002402,7.2192707999999985,5.45456016
2.9299999999999997,293,0.16399999999999998,-0.963,0.024,-3.8961144,10.4851314,-4.0680017999999984,79.72137612,7.270837019999999,5.5519630200000005
2.94,294,0.165,-0.937,0.026000000000000002,-2.3491277999999998,9.3392154,-3.2658606,79.70418738,7.316673659999997,5.63790672
2.9499999999999997,295,0.157,-0.9279999999999999,0.03,-0.286479,7.7922288,-2.1772404,79.80159024000002,7.3911582,5.71239126
2.96,296,0.18100000000000002,-0.902,0.034,2.4637194,6.1879464,-2.0626488000000003,79.83023813999998,7.4198061,5.76968706
2.9699999999999998,297,0.18100000000000002,-0.902,0.033,3.8388186,4.8701430000000006,-1.8907614,79.87607478,7.448453999999999,5.815523699999999
2.98,298,0.17800000000000002,-0.89,0.037000000000000005,4.8701430000000006,3.9534102,-0.9167328000000001,79.92764100000002,7.46564274,5.849901179999999
2.9899999999999998,299,0.16899999999999998,-0.868,0.040999999999999995,7.1046792000000005,2.3491277999999998,0.6302538000000001,80.00785512,7.459913160000001,5.87854908
3.0,300,0.157,-0.853,0.044000000000000004,9.7975818,0.7448454000000001,2.6929026,80.1568242,7.45418358,5.89000824
3.01,301,0.154,-0.848,0.038,11.5737516,-0.9740286,4.1825934,80.27714538,7.41407652,5.89000824
3.02,302,0.138,-0.878,0.003,11.9748222,-3.380452200000001,4.8128472,80.39173698,7.3625102999999985,5.861360339999999
3.03,303,0.07200000000000001,-0.9540000000000001,-0.032,8.5370742,-7.1046792000000005,4.3544808,80.4719511,7.31094408,5.79833496
3.04,304,0.065,-1.037,0.04,15.297978599999999,0.5156622000000001,2.1772404,80.63237934,7.29375534,5.80979412
3.05,305,0.026000000000000002,-1.176,0.09699999999999999,20.912967000000002,4.2398892,1.2605076000000002,80.87875127999997,7.270837019999999,5.861360339999999
3.06,306,0.037000000000000005,-1.2329999999999999,0.07,13.5791046,-6.3025379999999975,4.6982555999999995,81.01053162,7.2192707999999985,5.80979412
3.07,307,0.079,-1.224,0.001,3.7242269999999995,-16.615782,9.568398599999998,81.03344994,7.1046792000000005,5.66082504
3.08,308,0.151,-1.216,-0.061,2.6356068,-17.4179232,11.0007936,81.04490909999998,6.972898860000001,5.5003968
3.09,309,0.196,-1.273,-0.015,9.7975818,-12.4331886,7.5630456000000015,81.13658238,6.8869551599999985,5.39153478
3.0999999999999996,310,0.188,-1.334,0.009000000000000001,13.464512999999998,-5.3858052,0.6875496,81.27409229999998,6.875496000000001,5.339968560000001
3.11,311,0.16899999999999998,-1.3459999999999999,-0.018000000000000002,13.521808800000002,-2.2345362,-5.042030400000002,81.41160221999998,6.92133264,5.311320660000002
3.1199999999999997,312,0.175,-1.2930000000000001,-0.036000000000000004,12.261301199999998,-5.9014674000000005,-4.6409598,81.52619381999997,6.9614397000000015,5.24829528
3.13,313,0.17800000000000002,-1.203,-0.044000000000000004,9.1100322,-11.2872726,-0.1718874,81.61213752,6.94998054,5.13943326
3.1399999999999997,314,0.154,-1.12,-0.061,5.3285094000000015,-16.4438946,4.2398892,81.64651500000002,6.89268474,4.97900502
3.15,315,0.10300000000000001,-1.062,-0.09,1.6042823999999998,-19.652459399999998,6.5317212,81.65224458,6.79528188,4.79565846
3.1599999999999997,316,0.04,-1.013,-0.127,-0.8594370000000001,-20.2827132,6.3598338,81.62359668,6.7093381800000005,4.60658232
3.17,317,-0.004,-0.95,-0.157,-3.1512689999999997,-19.9389384,4.4690724,81.57203046,6.640583220000001,4.4117766000000005
3.1799999999999997,318,-0.026000000000000002,-0.865,-0.165,-5.72958,-19.9962342,2.0053530000000004,81.49181634,6.5947465800000025,4.21697088
3.19,319,-0.043,-0.755,-0.14800000000000002,-8.078707799999998,-20.2254174,-0.572958,81.3886839,6.57755784,4.01643558
3.1999999999999997,320,-0.067,-0.67,-0.11199999999999999,-9.740286,-20.5118964,-3.6096353999999997,81.26836272,6.5718282599999975,3.810170700000002
3.21,321,-0.096,-0.617,-0.065,-10.026765,-19.480572,-6.990087599999999,81.14231196,6.611935319999999,3.60390582
3.2199999999999998,322,-0.12300000000000001,-0.609,-0.027999999999999997,-11.2299768,-15.756345,-10.313244000000001,81.01053162,6.69214944,3.43201842
3.23,323,-0.141,-0.636,-0.013000000000000001,-12.891555,-9.9694692,-12.9488508,80.86729212,6.80674104,3.3116972399999995
3.2399999999999998,324,-0.14,-0.703,-0.02,-14.381245800000002,-3.4377480000000005,-14.037471,80.71259346,6.93852138,3.25440144
3.25,325,-0.11900000000000001,-0.795,-0.028999999999999998,-14.667724800000002,2.6356068,-13.750992000000002,80.57508354000002,7.03592424,3.2658606
3.26,326,-0.09699999999999999,-0.9279999999999999,-0.06,-13.3499214,6.990087599999999,-11.172680999999999,80.44330319999997,7.15624542,3.3116972399999995
3.27,327,-0.040999999999999995,-1.089,-0.091,-10.7716104,9.5111028,-6.0160589999999985,80.34590034,7.225000379999999,3.39764094
3.28,328,0.018000000000000002,-1.213,-0.10400000000000001,-8.250595200000001,9.7975818,-0.3437748,80.2714158,7.242189120000001,3.48931422
3.29,329,0.071,-1.271,-0.087,-5.2139178,8.021412000000002,4.4117766,80.22557916000002,7.213541219999999,3.57525792
3.3,330,0.12300000000000001,-1.2590000000000001,-0.055,-2.7501984,5.5576926,8.9954406,80.22557916000002,7.1333271000000025,3.64974246
3.31,331,0.12300000000000001,-1.194,-0.025,0.40107059999999994,2.1199446,13.3499214,80.23703832,7.001546759999999,3.68984952
3.32,332,0.1,-1.12,0.008,2.0053530000000004,-1.7188740000000002,16.272007199999994,80.25422705999998,6.8411185199999975,3.70130868
3.33,333,0.062,-1.047,0.024,2.2345362,-6.589017,17.4179232,80.27714538,6.66350154,3.666931200000001
3.34,334,0.02,-0.9790000000000001,0.046,2.3491277999999998,-11.172680999999999,16.902261,80.29433412,6.48015498,3.58671708
3.3499999999999996,335,-0.02,-0.935,0.057,1.7761698000000001,-14.32395,14.667724800000002,80.34590034,6.2853492599999985,3.47212548
3.36,336,-0.046,-0.9229999999999999,0.061,0.1718874,-16.2147114,11.1153852,80.33444118,6.15356892,3.32888598
3.3699999999999997,337,-0.066,-0.924,0.065,-1.2032118,-15.527161800000002,8.250595200000001,80.31152286,6.05043648,3.1913760600000005
3.38,338,-0.083,-0.9359999999999999,0.07400000000000001,-2.7501984,-12.605075999999999,5.7868758000000025,80.2714158,5.97595194,3.07678446
3.3899999999999997,339,-0.10099999999999999,-0.9620000000000001,0.085,-3.380452200000001,-7.9641161999999985,4.4690724,80.23130874,5.92438572,3.00229992
3.4,340,-0.11699999999999999,-0.988,0.08900000000000001,-4.8701430000000006,-2.4637194,3.7242269999999995,80.35162992,5.71812084,3.0080294999999997
3.4099999999999997,341,-0.128,-1.005,0.091,-6.8182002000000015,3.2658606,3.8961144,80.28860454,5.6837433599999985,3.04813656
3.42,342,-0.133,-1.016,0.094,-8.479778399999999,8.9954406,3.9534102,80.20839042,5.66082504,3.1398098400000003
3.4299999999999997,343,-0.129,-1.021,0.098,-9.9121734,14.438541599999999,4.4690724,80.12244672,5.63217714,3.28877892
3.44,344,-0.10099999999999999,-1.018,0.106,-11.802934800000001,19.8243468,3.8388186,80.01931427999997,5.62644756,3.48931422
3.4499999999999997,345,-0.075,-1.003,0.114,-12.776963400000001,22.631841,2.3491277999999998,79.9562889,5.6035292399999985,3.71849742
3.46,346,-0.049,-0.982,0.125,-12.7196676,23.9496444,0.3437748,79.84742688,5.63217714,3.9534102
3.4699999999999998,347,-0.022000000000000002,-0.971,0.132,-13.2353298,23.835052800000003,-1.4896908000000002,79.73283528,5.6837433599999985,4.1883229800000015
3.48,348,-0.001,-0.9590000000000001,0.131,-13.3499214,22.9756158,-3.0366774,79.6125141,5.7467687399999985,4.40604702
3.4899999999999998,349,0.01,-0.9470000000000001,0.114,-14.1520626,21.7151082,-4.4690724,79.48646334,5.82125328,4.60658232
3.5,350,0.02,-0.932,0.091,-13.980175199999998,20.05353,-5.72958,79.40624921999998,5.895737819999999,4.79565846
3.51,351,0.023,-0.915,0.08,-12.4331886,18.7357266,-6.990087599999999,79.2973872,5.9931406800000016,4.96754586
3.52,352,0.024,-0.9059999999999999,0.075,-9.7975818,17.5325148,-8.136003599999999,79.2114435,6.09627312,5.1222445200000015
3.53,353,0.02,-0.9059999999999999,0.077,-7.734933000000002,17.4179232,-8.9954406,79.14268854000002,6.210864720000001,5.27694318
3.54,354,0.02,-0.9129999999999999,0.08900000000000001,-5.1566220000000005,17.9335854,-9.396511199999999,79.10831106,6.3311859,5.43737142
3.55,355,0.017,-0.9259999999999999,0.13,-2.2345362,19.365980399999998,-9.453807,79.17133643999998,6.4400479200000005,5.60925882
3.56,356,0.02,-0.9440000000000001,0.175,0.286479,21.485925,-8.9954406,79.19425475999998,6.560369099999999,5.80406454
3.57,357,0.018000000000000002,-0.96,0.233,3.8961144,22.803728399999997,-8.250595200000001,79.25728014,6.680690279999999,6.016058999999999
3.58,358,-0.012,-0.998,0.308,5.6149884000000005,24.2934192,-6.8182002000000015,79.33749426,6.783822719999999,6.23951262
3.59,359,-0.057,-1.055,0.35100000000000003,4.7555514,24.9809688,-5.958763200000001,79.4119788,6.8812255800000015,6.4744253999999986
3.5999999999999996,360,-0.10099999999999999,-1.124,0.33899999999999997,0.4583664000000001,23.777757,-5.1566220000000005,79.4979225,6.93852138,6.7093381800000005
3.61,361,-0.071,-1.272,0.13699999999999998,-11.802934800000001,21.829699800000004,-1.3178034,79.40051964,6.98435802,6.92133264
3.6199999999999997,362,0.005,-1.381,-0.221,-21.772404,15.870936600000002,6.8182002000000015,79.19998434,6.94425096,7.0874904600000015
3.63,363,0.161,-1.521,-0.39299999999999996,-20.2827132,-0.6302538000000001,13.750992000000002,78.99371946,6.80674104,7.1046792000000005
3.6399999999999997,364,0.358,-1.6269999999999998,-0.331,-13.3499214,-17.0741484,18.5638392,78.84475038,6.5947465800000025,6.96716928
3.65,365,0.445,-1.556,-0.19,-0.11459160000000004,-21.4286292,19.079501399999998,78.83329122,6.3770225400000005,6.79528188
3.6599999999999997,366,0.3720000000000001,-1.338,-0.033,7.5057497999999985,-13.6936962,13.0634424,78.89631659999998,6.22805346,6.686419860000001
3.67,367,0.171,-1.203,-0.019,9.224623800000002,-10.2559482,7.7922288,78.98798988,6.13638018,6.60047616
3.6799999999999997,368,-0.016,-1.1840000000000002,-0.10300000000000001,4.1252976000000015,-11.401864199999999,7.161975,79.01663778,6.05043648,6.5030733
3.69,369,-0.155,-1.194,-0.16899999999999998,0.9167328000000001,-5.1566220000000005,7.9641161999999985,79.02809694,5.96449278,6.4686958200000015
3.6999999999999997,370,-0.16899999999999998,-1.232,-0.248,-1.3178034,8.651665800000002,9.2819196,79.01663778,5.861360339999999,6.5718282599999975
3.71,371,-0.14300000000000002,-1.304,-0.32899999999999996,-6.0160589999999985,21.886995600000002,10.7143146,78.97653072,5.79260538,6.80674104
3.7199999999999998,372,-0.048,-1.3119999999999998,-0.401,-13.0061466,31.111619399999995,12.776963400000001,78.87339828,5.71812084,7.1333271000000025
3.73,373,0.084,-1.22,-0.441,-18.621135,34.7785506,14.266654199999998,78.71297003999999,5.63217714,7.500020219999999
3.7399999999999998,374,0.147,-1.074,-0.444,-21.2567418,30.997027799999998,15.6990492,78.52962348,5.5290447,7.8323358600000015
3.75,375,0.157,-0.885,-0.414,-23.4339822,22.2307704,17.4179232,78.27752196,5.40299394,8.08443738
3.76,376,0.133,-0.764,-0.359,-20.8556712,8.479778399999999,20.1108258,78.07698666,5.21964738,8.204758559999998
3.77,377,0.08,-0.743,-0.301,-15.4125702,-0.4583664000000001,21.7151082,77.92228800000002,5.00765292,8.23913604
3.78,378,0.07200000000000001,-0.82,-0.26,-9.8548776,-5.2139178,19.194093,77.82488514,4.812847199999998,8.22767688
3.79,379,0.055,-0.94,-0.23600000000000002,-7.5630456000000015,-5.3858052,12.891555,77.74467102000001,4.675337279999999,8.204758559999998
3.8,380,0.036000000000000004,-1.0170000000000001,-0.218,-7.1046792000000005,-1.6615782,5.1566220000000005,77.65872732,4.5836640000000015,8.19902898
3.81,381,0.021,-1.022,-0.19899999999999998,-7.2765666,1.9480572,-1.3750992,77.58997236,4.6008527400000006,8.21621772
3.82,382,0.026000000000000002,-0.977,-0.185,-9.682990199999999,5.2139178,-6.990087599999999,77.4925695,4.675337279999999,8.250595200000001
3.83,383,0.06,-0.9209999999999999,-0.172,-11.5164558,8.136003599999999,-12.3758928,77.3779779,4.812847199999998,8.302161420000001
3.84,384,0.095,-0.882,-0.163,-9.5111028,11.2299768,-16.558486199999994,77.28630462,4.99046418,8.376645960000001
3.8499999999999996,385,0.107,-0.8740000000000001,-0.156,-5.6149884000000005,12.5477802,-19.079501399999998,77.23473840000003,5.20818822,8.45686008
3.86,386,0.115,-0.843,-0.159,-1.6042823999999998,14.1520626,-21.371333399999997,77.22327924,5.443101,8.54853336
3.8699999999999997,387,0.10800000000000001,-0.8370000000000001,-0.157,-1.7188740000000002,14.8396122,-22.345361999999998,77.21182008000002,5.68947294,8.64593622
3.88,388,0.128,-0.812,-0.135,-0.8021411999999999,13.750992000000002,-21.5432208,77.21182008000002,5.92438572,8.73187992
3.8899999999999997,389,0.133,-0.782,-0.109,-0.11459160000000004,11.0580894,-19.9962342,77.21754966,6.13638018,8.794905300000002
3.9,390,0.14800000000000002,-0.768,-0.08800000000000001,0.1718874,8.880849000000003,-17.589810600000003,77.23473840000003,6.33691548,8.84074194
3.9099999999999997,391,0.156,-0.753,-0.08900000000000001,0.5156622000000001,6.1879464,-14.266654199999998,77.24046797999998,6.49161414,8.86938984
3.92,392,0.152,-0.752,-0.08800000000000001,1.4896908000000002,2.1199446,-11.5164558,77.25765672,6.60620574,8.86938984
3.9299999999999997,393,0.159,-0.78,-0.079,0.9167328000000001,-2.0626488000000003,-9.6256944,77.26338630000002,6.69787902,8.82928278
3.94,394,0.18600000000000005,-0.818,-0.073,-0.9740286,-6.4744254,-7.3911582,77.24046797999998,6.7551748200000015,8.749068659999999
3.9499999999999997,395,0.187,-0.857,-0.071,-1.9480572,-9.682990199999999,-5.3858052,77.25192713999998,6.82392978,8.640206639999999
3.96,396,0.193,-0.9,-0.066,0.1718874,-11.2872726,-4.5263682,77.24046797999998,6.8468481,8.519885460000001
3.9699999999999998,397,0.188,-0.943,-0.054000000000000006,0.6875496,-12.5477802,-5.0993262,77.23473840000003,6.86976642,8.382375540000002
3.98,398,0.17800000000000002,-0.961,-0.049,-1.432395,-13.9228794,-5.5576926,77.20036092000002,6.898414319999999,8.233406460000001
3.9899999999999998,399,0.179,-0.941,-0.057,-1.3750992,-14.7823164,-5.2139178,77.17171302,6.92133264,8.0787078
4.0,400,0.177,-0.94,-0.064,-0.3437748,-16.615782,-5.3285094000000015,77.18890176,6.96716928,7.90109082
4.01,401,0.161,-0.925,-0.075,0.1718874,-19.308684600000007,-4.8128472,77.17171302,6.972898860000001,7.70055552
4.02,402,0.142,-0.899,-0.073,1.6042823999999998,-22.0015872,-4.4690724,77.16025386,6.97862844,7.477101899999999
4.03,403,0.127,-0.88,-0.064,4.1252976000000015,-24.9809688,-3.7815228,77.17744259999998,6.96716928,7.225000379999999
4.04,404,0.114,-0.868,-0.044000000000000004,7.2765666,-27.960350399999996,-2.7501984,77.22327924,6.93852138,6.94425096
4.05,405,0.111,-0.831,-0.019,11.45916,-29.621928600000004,-1.145916,77.33214126,6.898414319999999,6.65777196
4.06,406,0.109,-0.8029999999999999,0.048,17.9908812,-32.085648000000006,0.40107059999999994,77.48111034,6.83538894,6.34264506
4.07,407,0.099,-0.7959999999999999,0.124,22.5745452,-37.299565799999996,1.0886202,77.67018648,6.7551748200000015,5.9874111
4.08,408,0.106,-0.7759999999999999,0.18600000000000005,29.9084076,-43.65939960000001,1.7761698000000001,77.93374716000002,6.66350154,5.56342218
4.09,409,0.11,-0.8059999999999999,0.249,36.4974246,-46.409597999999995,1.7761698000000001,78.25460364,6.566098679999999,5.11651494
4.1,410,0.135,-0.89,0.3,40.10706,-48.8160216,1.3178034,78.66140382,6.48015498,4.64668938
4.109999999999999,411,0.171,-0.988,0.332,39.8778768,-50.0765292,1.9480572,79.01663778,6.382752120000001,4.15967508
4.12,412,0.187,-1.112,0.345,35.17962120000001,-50.5348956,2.3491277999999998,79.32603509999998,6.2853492599999985,3.67266078
4.13,413,0.221,-1.206,0.298,25.152856200000002,-49.4462754,4.2398892,79.53802956,6.17075766,3.19710564
4.14,414,0.24100000000000002,-1.274,0.27399999999999997,18.162768600000003,-48.2430636,6.990087599999999,79.68126906,6.0275181600000005,2.73873924
4.1499999999999995,415,0.231,-1.295,0.237,11.802934800000001,-48.6441342,9.224623800000002,79.77867192,5.8728194999999985,2.2746432600000004
4.16,416,0.196,-1.3130000000000002,0.205,8.651665800000002,-47.841993,10.313244000000001,79.83023813999998,5.7009320999999975,1.82200644
4.17,417,0.141,-1.3259999999999998,0.109,6.875496000000001,-45.4928652,9.682990199999999,79.86461562,5.5405038599999985,1.39228794
4.18,418,0.049,-1.348,-0.046,4.0680017999999984,-41.1383844,7.161975,79.87607478,5.4144530999999985,1.0026765
4.1899999999999995,419,-0.07200000000000001,-1.369,-0.19899999999999998,2.3491277999999998,-32.6013102,2.0626488000000003,79.8703452,5.3456981400000005,0.6875496
4.2,420,-0.21100000000000002,-1.432,-0.316,5.5003968,-16.673077799999998,-5.2712136,79.91045226,5.3571573,0.5156622000000001
4.21,421,-0.311,-1.516,-0.405,5.5576926,6.990087599999999,-17.5325148,79.96774806,5.5405038599999985,0.55576926
4.22,422,-0.335,-1.4509999999999998,-0.551,5.844171599999999,26.241476399999996,-27.559279800000002,80.04796218,5.849901179999999,0.76776372
4.2299999999999995,423,-0.28300000000000003,-1.306,-0.5670000000000001,12.261301199999998,31.2835068,-31.51269000000001,80.19693126,6.2051351399999986,1.0255948199999998
4.24,424,-0.131,-1.146,-0.46299999999999997,17.7044022,17.8762896,-29.793815999999996,80.3860074,6.525991620000001,1.15164558
4.25,425,0.024,-1.0270000000000001,-0.419,15.527161800000002,0.5156622000000001,-25.668518399999996,80.49486942,6.76663398,1.1172681
4.26,426,0.141,-0.92,-0.3670000000000001,12.6623718,-12.3758928,-23.204798999999998,80.60373144,6.97862844,0.95683986
4.27,427,0.21899999999999997,-0.835,-0.31,10.7143146,-19.308684600000007,-23.2620948,80.68967513999998,7.1848933200000005,0.73338624
4.28,428,0.29600000000000004,-0.7829999999999999,-0.28800000000000003,9.5111028,-22.6891368,-25.496631,80.75270051999998,7.408346939999999,0.46982556
4.29,429,0.324,-0.7509999999999999,-0.257,7.0473834,-24.9809688,-28.7051958,80.79280758000002,7.65471888,0.17761697999999998
4.3,430,0.321,-0.759,-0.23600000000000002,3.4950437999999995,-28.074942,-31.9710564,80.76988926,7.9583866200000015,-0.14896908
4.31,431,0.271,-0.831,-0.25,1.3750992,-31.6845774,-33.74722620000001,80.73551178,8.250595200000001,-0.5156622000000001
4.32,432,0.249,-0.932,-0.268,-1.0313244000000001,-34.1482968,-33.116972399999995,80.67248640000003,8.52561504,-0.91100322
4.33,433,0.161,-1.041,-0.27399999999999997,2.0053530000000004,-35.17962120000001,-30.595957199999997,80.63810892000002,8.783446139999999,-1.30634424
4.34,434,0.035,-1.178,-0.255,6.5317212,-33.6326346,-26.069589,80.64956808000002,8.9954406,-1.6844965200000002
4.35,435,-0.092,-1.286,-0.226,8.4224826,-30.5386614,-18.2200644,80.68394556000001,9.1100322,-2.01108258
4.36,436,-0.204,-1.285,-0.179,5.72958,-27.960350399999996,-8.8235532,80.70113429999998,9.16159842,-2.30329116
4.37,437,-0.251,-1.168,-0.139,3.7242269999999995,-25.0382646,-0.3437748,80.70113429999998,9.13295052,-2.5496631
4.38,438,-0.249,-1.01,-0.10300000000000001,4.9847346,-20.05353,5.958763200000001,80.72405262,9.04700682,-2.73873924
4.39,439,-0.19399999999999998,-0.9109999999999999,-0.071,7.7922288,-13.407217200000002,10.7716104,80.78707800000002,8.92668564,-2.85333084
4.3999999999999995,440,-0.12,-0.885,-0.046,9.568398599999998,-5.958763200000001,13.9228794,80.89594002,8.72042076,-2.88197874
4.41,441,-0.052000000000000005,-0.861,-0.012,9.9121734,-2.3491277999999998,15.6417534,80.99907246000002,8.565722099999999,-2.88197874
4.42,442,-0.013999999999999999,-0.823,0.002,8.9954406,2.3491277999999998,15.469866,81.09647532,8.41675302,-2.8361421
4.43,443,0.018000000000000002,-0.8079999999999999,-0.009000000000000001,10.084060800000001,6.6463128000000005,15.3552744,81.21106692,8.27351352,-2.74446882
4.4399999999999995,444,0.019,-0.7909999999999999,-0.018000000000000002,10.1986524,8.5370742,14.1520626,81.3313881,8.14746276,-2.6356068
4.45,445,0.019,-0.789,-0.016,9.7975818,10.5424272,12.032118,81.46316844,8.02714158,-2.50955604
4.46,446,0.011000000000000001,-0.7879999999999999,-0.009000000000000001,8.136003599999999,12.605075999999999,9.7975818,81.56057129999998,7.94692746,-2.36631654
4.47,447,-0.02,-0.812,-0.002,4.9847346,15.527161800000002,7.6776372,81.63505583999998,7.889631660000001,-2.2058883
4.4799999999999995,448,-0.032,-0.8109999999999999,0.002,1.3178034,20.2827132,5.5003968,81.6751629,7.85525418,-1.99389384
4.49,449,-0.033,-0.8079999999999999,-0.011000000000000001,0.3437748,23.892348600000002,5.0993262,81.70954037999998,7.8323358600000015,-1.7475218999999995
4.5,450,-0.036000000000000004,-0.8370000000000001,-0.017,-0.4583664000000001,25.78311,4.2398892,81.75537702,7.792228800000001,-1.48396122
4.51,451,-0.02,-0.8740000000000001,-0.012,-3.7815228,27.1582092,3.7242269999999995,81.74964744,7.78649922,-1.20894138
4.52,452,0.002,-0.889,-0.004,-6.4744254,27.3300966,4.3544808,81.71526996,7.7750400599999985,-0.93392154
4.53,453,0.0,-0.8909999999999999,0.001,-6.0160589999999985,26.069589,3.3231564,81.68662206,7.76931048,-0.6703608600000001
4.54,454,0.053,-0.92,0.022000000000000002,-5.72958,24.522602399999997,4.5263682,81.65797416000002,7.75212174,-0.41825934
4.55,455,0.063,-0.93,0.054000000000000006,-5.3858052,22.345361999999998,5.3285094000000015,81.68089248,7.71201468,-0.18907614
4.56,456,0.057,-0.951,0.068,-7.6203414,20.6837838,6.3025379999999975,81.62932626,7.671907620000002,0.02291832
4.57,457,0.042,-0.955,0.06,-8.136003599999999,19.9389384,7.3911582,81.56630088,7.62607098,0.22918320000000006
4.58,458,0.025,-0.9570000000000001,0.055999999999999994,-7.8495246,19.4232762,8.4224826,81.51473466,7.5630456000000015,0.4297185000000001
4.59,459,0.024,-0.951,0.040999999999999995,-6.0160589999999985,18.907614,8.7662574,81.47462759999998,7.500020219999999,0.6302538000000001
4.6,460,0.037000000000000005,-0.937,0.026000000000000002,-3.4950437999999995,18.277360199999997,8.307891,81.5032755,7.41407652,0.8307891
4.61,461,0.049,-0.9159999999999999,0.022000000000000002,0.0,17.246035799999998,7.2765666,81.52619381999997,7.3625102999999985,1.00840608
4.62,462,0.075,-0.8909999999999999,0.048,4.1825934,14.9542038,6.9327918,81.5892192,7.316673659999997,1.1688343199999998
4.63,463,0.087,-0.879,0.08,7.2765666,12.032118,6.130650599999999,81.6751629,7.270837019999999,1.30061466
4.64,464,0.081,-0.888,0.11800000000000001,9.1100322,8.136003599999999,6.417129599999999,81.77829534,7.213541219999999,1.38655836
4.6499999999999995,465,0.065,-0.917,0.16,8.250595200000001,3.7815228,7.0473834,82.00174896,7.1333271000000025,1.44958374
4.66,466,0.046,-0.9740000000000001,0.191,6.0160589999999985,-0.9167328000000001,7.9641161999999985,82.06477434,7.05311298,1.44958374
4.67,467,0.02,-1.058,0.19899999999999998,2.1772404,-5.0993262,8.3651868,82.08196308000002,6.96716928,1.40947668
4.68,468,-0.01,-1.153,0.19399999999999998,-2.7501984,-7.5630456000000015,8.078707799999998,82.04758559999998,6.875496000000001,1.3464512999999998
4.6899999999999995,469,-0.027000000000000003,-1.247,0.17600000000000002,-7.6203414,-8.3651868,7.5630456000000015,81.96164189999998,6.7895523,1.27196676
4.7,470,-0.027999999999999997,-1.328,0.142,-10.828906199999999,-6.8182002000000015,7.1046792000000005,81.86423904,6.7036086,1.21467096
4.71,471,-0.006,-1.3769999999999998,0.083,-12.1467096,-1.432395,6.0733548,81.74391786,6.640583220000001,1.20894138
4.72,472,0.024,-1.379,0.055,-8.880849000000003,6.4744254,4.6982555999999995,81.65797416000002,6.60047616,1.27769634
4.7299999999999995,473,0.037000000000000005,-1.367,0.063,-3.8388186,10.657018800000001,5.0993262,81.62932626,6.560369099999999,1.39228794
4.74,474,0.017,-1.364,0.055,-2.0053530000000004,11.688343199999998,8.021412000000002,81.62359668,6.497343719999999,1.5183387000000002
4.75,475,-0.023,-1.3519999999999999,-0.005,-3.5523396000000003,12.834259199999998,11.688343199999998,81.61213752,6.382752120000001,1.6615782
4.76,476,-0.047,-1.337,-0.105,-7.5057497999999985,16.4438946,13.5791046,81.54911214,6.26816052,1.84492476
4.77,477,-0.031,-1.334,-0.23399999999999999,-14.0947668,22.0015872,12.4904844,81.42879096,6.17075766,2.07983754
4.78,478,0.03,-1.324,-0.401,-22.631841,28.533308399999996,9.568398599999998,81.22825566,6.1077322800000005,2.37204612
4.79,479,0.174,-1.3159999999999998,-0.517,-28.7051958,32.0283522,7.161975,80.96469498,6.0733548000000015,2.6929026
4.8,480,0.29100000000000004,-1.252,-0.557,-28.3041252,27.6165756,8.8235532,80.68967513999998,6.0275181600000005,2.9793816000000004
4.81,481,0.38,-1.1540000000000001,-0.53,-22.86102420000001,18.907614,11.0007936,80.47768067999998,5.94157446,3.1799169000000003
4.82,482,0.364,-1.028,-0.4320000000000001,-18.7357266,11.0007936,12.261301199999998,80.29433412,5.83844202,3.3059676599999994
4.83,483,0.256,-0.888,-0.295,-16.157415599999997,6.130650599999999,12.1467096,80.13963546,5.72385042,3.38618178
4.84,484,0.11900000000000001,-0.7559999999999999,-0.19699999999999998,-13.8082878,6.7609043999999985,11.3445684,80.00785512,5.62071798,3.47212548
4.85,485,0.002,-0.7070000000000001,-0.166,-11.745639,10.4278356,7.6776372,79.88753394,5.5405038599999985,3.58671708
4.86,486,-0.121,-0.721,-0.166,-11.802934800000001,13.0634424,5.6149884000000005,79.77867192,5.50612638,3.7242269999999995
4.87,487,-0.19699999999999998,-0.758,-0.21100000000000002,-18.5638392,14.5531332,6.130650599999999,79.60105494000003,5.466019319999999,3.873196080000002
4.88,488,-0.18600000000000005,-0.81,-0.24600000000000002,-26.356068,15.6990492,7.5057497999999985,79.34895342,5.40872352,4.0393539
4.89,489,-0.133,-0.902,-0.257,-29.621928600000004,18.048177,8.4224826,79.06247442,5.3571573,4.22843004
4.8999999999999995,490,-0.046,-0.982,-0.247,-32.4867186,20.454600600000006,8.59437,78.74161794,5.28840234,4.44615408
4.91,491,0.054000000000000006,-1.042,-0.221,-34.0337052,22.5745452,7.161975,78.41503188,5.24829528,4.675337279999999
4.92,492,0.157,-1.077,-0.20600000000000002,-33.8618178,25.0955604,3.9534102,78.08844581999998,5.25402486,4.9274388
4.93,493,0.24600000000000002,-1.073,-0.192,-33.231564,25.2674478,-0.4583664000000001,77.77331892,5.2998615,5.16808116
4.9399999999999995,494,0.294,-1.0490000000000002,-0.177,-31.9710564,22.2880662,-4.8701430000000006,77.46392159999998,5.385805199999999,5.37434604
4.95,495,0.315,-0.973,-0.17300000000000001,-29.163562199999998,16.959556799999998,-7.2765666,77.18317218,5.52331512,5.51758554
4.96,496,0.281,-0.945,-0.162,-23.204798999999998,9.396511199999999,-7.1046792000000005,76.95398897999998,5.60925882,5.59207008
4.97,497,0.253,-0.927,-0.132,-19.480572,3.0366774,-7.734933000000002,76.75345368,5.68947294,5.6035292399999985
4.9799999999999995,498,0.195,-0.9159999999999999,-0.126,-17.761698000000006,-2.6356068,-6.9327918,76.57010712,5.7467687399999985,5.5576926
4.99,499,0.14400000000000002,-0.89,-0.12,-15.9855282,-7.6203414,-6.417129599999999,76.39821972,5.79260538,5.466019319999999
5.0,500,0.107,-0.8690000000000001,-0.092,-13.980175199999998,-12.5477802,-6.589017,76.27216896,5.83271244,5.3285094000000015
5.01,501,0.092,-0.862,-0.06,-14.4958374,-17.8762896,-7.333862400000001,76.10601113999998,5.86708992,5.13370368
5.02,502,0.092,-0.853,-0.036000000000000004,-15.2406828,-21.657812399999997,-7.5630456000000015,75.92839416000002,5.89000824,4.90452048
5.03,503,0.096,-0.87,-0.032,-15.870936600000002,-24.350715,-8.193299399999999,75.74504759999998,5.9129265600000025,4.64668938
5.04,504,0.11,-0.9,-0.033,-16.4438946,-26.2987722,-8.5370742,75.55024188,5.93584488,4.37166954
5.05,505,0.11599999999999999,-0.9279999999999999,-0.032,-15.756345,-27.6165756,-8.021412000000002,75.4012728,5.958763200000001,4.08519054
5.06,506,0.10400000000000001,-0.966,-0.017,-15.527161800000002,-28.9916748,-6.3025379999999975,75.21219666,5.9530336199999985,3.7815228
5.07,507,0.096,-0.97,-0.017,-15.928232399999999,-29.621928600000004,-5.2139178,75.02312051999998,5.930115299999999,3.48358464
5.08,508,0.065,-0.968,-0.015,-13.750992000000002,-29.163562199999998,-5.042030400000002,74.8569627,5.9129265600000025,3.18564648
5.09,509,0.062,-0.9590000000000001,-0.01,-13.178034,-26.356068,-5.5003968,74.70226404,5.9014674000000005,2.91635622
5.1,510,0.052000000000000005,-0.927,0.003,-12.9488508,-23.835052800000003,-5.9014674000000005,74.59340202,5.89000824,2.6699842800000004
5.11,511,0.032,-0.8909999999999999,-0.008,-13.0634424,-21.600516600000002,-5.3858052,74.43870336,5.89000824,2.44653066
5.12,512,0.013999999999999999,-0.855,0.001,-13.0634424,-20.2254174,-3.8388186,74.28973427999998,5.87854908,2.24026578
5.13,513,-0.002,-0.83,0.044000000000000004,-12.2040054,-20.05353,-2.0626488000000003,74.14649478,5.849901179999999,2.03973048
5.14,514,-0.019,-0.85,0.049,-13.980175199999998,-21.199446,-0.5156622000000001,73.98606654,5.79833496,1.8334656000000005
5.1499999999999995,515,-0.045,-0.907,-0.094,-24.1215318,-20.6837838,0.4583664000000001,73.73969459999998,5.71239126,1.6386598799999998
5.16,516,-0.081,-0.972,-0.19399999999999998,-31.913760600000003,-13.2926256,-0.3437748,73.40164938000002,5.67801378,1.50687954
5.17,517,-0.151,-1.095,-0.138,-31.6845774,-4.4690724,-4.1825934,73.07506332,5.7009320999999975,1.44958374
5.18,518,-0.24,-1.281,-0.08199999999999999,-33.74722620000001,6.0160589999999985,-10.7716104,72.7370181,5.815523699999999,1.47250206
5.1899999999999995,519,-0.29100000000000004,-1.341,-0.10400000000000001,-41.3102718,20.6837838,-17.303331600000003,72.33021792000002,6.0332477399999975,1.6157415599999996
5.2,520,-0.278,-1.2409999999999999,-0.094,-43.7166954,35.122325399999994,-19.136797199999997,71.92341774,6.2853492599999985,1.8907614
5.21,521,-0.18600000000000005,-1.09,-0.046,-41.252976000000004,35.809875,-14.438541599999999,71.5338063,6.51453246,2.18296998
5.22,522,-0.095,-0.987,-0.071,-42.62807520000001,32.658606,-8.59437,71.12700612,6.686419860000001,2.4637194
5.2299999999999995,523,-0.035,-0.934,-0.11800000000000001,-45.034498799999994,34.8931422,-4.8128472,70.7030172,6.829659359999999,2.7788463
5.24,524,-0.017,-0.924,-0.145,-43.48751220000001,43.315624799999995,-4.6982555999999995,70.3019466,7.001546759999999,3.16845774
5.25,525,-0.051,-0.968,-0.151,-41.4821592,55.290447,-8.7662574,69.94671264,7.23645954,3.66120162
5.26,526,-0.134,-1.013,-0.18899999999999997,-42.7999626,68.0674104,-14.896907999999998,69.58001952,7.58596392,4.25134836
5.27,527,-0.209,-1.008,-0.223,-46.925260200000004,79.354683,-20.05353,69.18467849999999,8.021412,4.9217092199999986
5.28,528,-0.245,-0.943,-0.209,-51.0505578,90.9857304,-24.350715,68.76641916,8.542803780000002,5.68947294
5.29,529,-0.22699999999999998,-0.857,-0.151,-51.279740999999994,101.35627020000001,-26.69984280000001,68.35961898,9.12149136,6.543180359999999
5.3,530,-0.171,-0.7709999999999999,-0.098,-49.90464179999999,111.153852,-26.814434400000003,68.00438502,9.72882684,7.4885610599999985
5.31,531,-0.11,-0.7509999999999999,-0.09,-46.466893799999994,117.9720522,-25.55392680000001,67.68925812,10.3705398,8.49696714
5.32,532,-0.052000000000000005,-0.772,-0.085,-44.8626114,121.98275819999999,-23.204798999999998,67.41423827999999,11.00652318,9.55120986
5.33,533,-0.006999999999999999,-0.8140000000000001,-0.08,-44.51883660000001,125.5350978,-19.8816426,67.16213676,11.631047399999998,10.65128922
5.34,534,0.016,-0.866,-0.07200000000000001,-43.831286999999996,129.66039540000003,-16.329303,66.93868314,12.24411246,11.802934800000001
5.35,535,0.015,-0.889,-0.064,-42.2270046,135.5618628,-12.318597,66.77252532,12.834259200000002,13.02906492
5.36,536,-0.009000000000000001,-0.878,-0.049,-39.0757356,141.52062600000005,-8.136003599999999,66.65220414,13.41867636,14.32967958
5.37,537,-0.018000000000000002,-0.835,-0.033,-36.38283300000001,144.8437824,-5.443101,66.5777196,13.99736394,15.6704013
5.38,538,-0.006999999999999999,-0.78,-0.048,-33.518043,145.58862779999995,-4.3544808,66.55480127999999,14.57032194,17.02831176
5.39,539,0.032,-0.7290000000000001,-0.07,-30.252182399999995,143.525979,-3.9534102,66.57199002,15.131820780000002,18.37476306
5.3999999999999995,540,0.094,-0.688,-0.09300000000000001,-25.8977016,137.9109906,-2.9220858,66.64647456,15.65894214,19.67537772
5.41,541,0.154,-0.662,-0.09,-21.142150199999996,128.9728458,-1.2605076000000002,66.749607,16.140226860000002,20.90150784
5.42,542,0.21,-0.631,-0.019,-18.162768600000003,116.99802359999998,-0.4583664000000001,66.86419860000001,16.56421578,22.01877594
5.43,543,0.244,-0.597,0.035,-15.813640800000002,109.721457,-1.4896908000000002,66.99024935999999,16.976745540000003,23.06728908
5.4399999999999995,544,0.259,-0.544,0.046,-16.042824000000003,109.148499,-5.6722842,67.11630012,17.4179232,24.092883899999997
5.45,545,0.231,-0.499,-0.018000000000000002,-16.673077799999998,112.2424722,-10.2559482,67.25953962000001,17.916396659999997,25.14139704
5.46,546,0.174,-0.473,-0.1,-17.246035799999998,117.6282774,-13.2926256,67.4085087,18.45497718,26.22428766
5.47,547,0.107,-0.46399999999999997,-0.17,-16.157415599999997,120.89413799999998,-13.0634424,67.58612568,18.99928728,27.35301492
5.4799999999999995,548,0.049,-0.478,-0.19399999999999998,-12.318597,121.5243918,-10.1413566,67.82676803999999,19.51494948,28.49893092000001
5.49,549,0.031,-0.478,-0.198,-10.4278356,120.77954640000002,-5.1566220000000005,68.09605830000001,19.97904546,29.66776524
5.5,550,0.037000000000000005,-0.457,-0.157,-8.307891,119.6909262,2.0053530000000004,68.4111852,20.36292732,30.85951788
5.51,551,0.07400000000000001,-0.40700000000000003,-0.071,-6.703608600000001,113.9040504,9.453807,68.73204168,20.6551359,32.0283522
5.52,552,0.099,-0.324,0.016,-3.7242269999999995,103.7626938,17.589810600000003,69.07581647999999,20.83275288,33.12843156
5.53,553,0.134,-0.273,0.055999999999999994,3.4950437999999995,95.111028,23.9496444,69.46542792,20.91869658,34.16548554000001
5.54,554,0.185,-0.24,0.07400000000000001,10.4278356,85.8864042,27.6165756,69.90660558,20.93588532,35.12805498
5.55,555,0.258,-0.222,0.094,18.7357266,76.77637200000002,27.6738714,70.41080862,20.93015574,36.00468072
5.56,556,0.306,-0.22699999999999998,0.11,29.5646328,69.900876,24.637194,70.9894962,20.912967,36.80109234
5.57,557,0.298,-0.258,0.152,39.8778768,64.744254,22.2307704,71.6483979,20.89577826,37.53447858
5.58,558,0.205,-0.239,0.226,47.67010560000001,59.1292656,21.600516600000002,72.36459540000001,20.86140078,38.21056902
5.59,559,0.062,-0.212,0.304,52.998615,52.54024860000001,21.772404,73.10944079999999,20.80410498,38.8179045
5.6,560,-0.052000000000000005,-0.174,0.312,52.9413192,54.6601932,22.631841,73.88866368000002,20.72389086,39.45388788
5.61,561,-0.11599999999999999,-0.141,0.23399999999999999,53.22779820000001,61.5356892,23.491278,74.67361614000002,20.6551359,40.15862622
5.62,562,-0.127,-0.139,0.136,54.43101,63.9421128,21.772404,75.47002776000002,20.597840100000006,40.8805533
5.63,563,-0.067,-0.226,0.08800000000000001,57.1812084,61.5356892,19.4232762,76.28362812,20.54627388,41.5681029
5.64,564,0.027000000000000003,-0.354,-0.012,53.39968560000001,59.35844880000001,17.6471064,77.05139184,20.50043724,42.23273418
5.6499999999999995,565,0.126,-0.49,-0.174,41.76863820000001,56.264475600000004,16.2147114,77.67591605999998,20.44887102,42.85152882
5.66,566,0.217,-0.615,-0.358,27.7311672,48.128472,13.0061466,78.13428246,20.41449354,43.38437976
5.67,567,0.235,-0.795,-0.579,7.2765666,28.361421000000004,5.3285094000000015,78.31189943999998,20.41449354,43.69377708
5.68,568,0.16699999999999998,-1.135,-0.863,-18.5638392,7.734933000000002,-6.3598338,78.14574162,20.4832485,43.75680246
5.6899999999999995,569,0.098,-1.723,-1.13,-39.8778768,-1.7761698000000001,-23.0329116,77.71602312,20.70097254,43.68231792
5.7,570,0.08199999999999999,-2.6260000000000003,-1.416,-55.6915176,1.8334656000000005,-49.2170922,77.11441721999998,21.17652768,43.58491506
5.71,571,0.06,-3.339,-1.288,-51.852699,14.610429000000002,-75.4012728,76.57010712,21.92710266,43.55053758
5.72,572,0.099,-2.911,-0.971,-62.2805346,39.820581,-87.7198698,76.00287870000002,22.85529462,43.73961372
5.7299999999999995,573,-0.02,-2.015,-0.951,-86.34477059999998,57.86875799999999,-91.7305758,75.2580333,23.85224154,44.09484768
5.74,574,-0.18,-1.6159999999999999,-0.8320000000000001,-92.41812540000001,79.354683,-98.77795920000001,74.53610622,24.97523922,44.64488736
5.75,575,-0.207,-1.57,-0.759,-108.0598788,110.9246688,-104.851314,73.79126082,26.23001724,45.50432436
5.76,576,0.005,-1.5230000000000001,-0.8,-141.807105,136.2494124,-104.7940182,72.83442096,27.559279799999995,46.61586288
5.77,577,0.225,-1.365,-0.8170000000000001,-167.017257,149.255559,-101.1843828,71.71142327999998,28.91146068,47.86491131999999
5.78,578,0.4,-1.297,-0.716,-178.3045296,154.0111104,-100.26765,70.51394106000002,30.28655988,49.15406682
5.79,579,0.45899999999999996,-1.22,-0.498,-193.6025082,160.7720148,-103.991877,69.20759682,31.73614362,50.48332938
5.8,580,0.408,-1.008,-0.23199999999999998,-214.286292,168.163173,-114.7634874,67.73509476,33.34042602,51.8240511
5.81,581,0.33299999999999996,-0.8490000000000001,-0.031,-208.44212040000002,169.0799058,-128.2852962,66.30842934,35.09940708000001,53.09028828
5.82,582,0.292,-0.853,0.146,-185.2373214,163.006551,-142.89572520000004,65.05365132,36.99016848,54.19036764
5.83,583,0.21899999999999997,-0.892,0.24,-174.12193620000005,151.9484616,-160.5428316,63.78741414,39.0184398,55.04980464000001
5.84,584,0.18600000000000005,-0.6970000000000001,0.33399999999999996,-180.0234036,146.677248,-181.4557986,62.34928956,41.2243281,55.68578802
5.85,585,0.225,-0.40299999999999997,0.40399999999999997,-177.1013178,144.32812019999997,-204.94707659999997,60.8194917,43.64221086,56.10404736
5.86,586,0.39,-0.19899999999999998,0.442,-167.24644019999997,132.5824812,-225.34438140000003,59.1292656,46.18614438,56.14415441999999
5.87,587,0.545,-0.071,0.415,-165.4129746,117.34179840000002,-240.98613480000003,57.14110134,48.7873737,55.748813399999996
5.88,588,0.512,-0.001,0.479,-164.9546082,110.6954856,-252.5598864,54.87218766,51.43443966,55.00396800000001
5.89,589,0.33299999999999996,0.16,0.479,-166.6161864,111.84140159999998,-260.8104816,52.32825413999999,54.12734226,53.96118444
5.8999999999999995,590,0.02,0.26899999999999996,0.505,-149.19826319999999,124.904844,-266.8838364,49.80723894,56.93483646,52.75797264000001
5.91,591,-0.24600000000000002,0.256,0.568,-126.1080558,155.7872802,-271.2383172,47.53832526000001,59.93140680000001,51.62351579999999
5.92,592,-0.349,0.222,0.555,-109.5495696,191.19608459999998,-272.728008,45.55589058,63.14570118,50.67240552
5.93,593,-0.297,0.20600000000000002,0.498,-97.0017894,217.09378619999998,-272.6707122,43.7453433,66.52615338000001,49.79577978
5.9399999999999995,594,-0.071,0.17600000000000002,0.44799999999999995,-82.67783940000002,237.7202742,-270.149697,42.07803552,70.02119718,48.94207236
5.95,595,0.36200000000000004,0.247,0.441,-76.4325972,259.7218614,-267.6859776,40.51958976,73.66521005999998,48.1571199
5.96,596,0.953,0.446,0.389,-73.2240324,276.79600980000004,-268.8318936,38.76633828,77.42381454,47.16017298
5.97,597,1.605,0.696,0.249,-63.1399716,277.71274260000007,-272.0977542,35.84998205999999,81.19387818,44.8912593
5.9799999999999995,598,2.763,0.955,-0.19,-46.1804148,255.825747,-272.2696416,28.120778640000005,84.74048819999999,37.6146927
5.99,599,3.262,1.611,-0.32799999999999996,-94.251591,197.6132142,-300.1154004,-10.41637644,87.25004424,-0.00572958
6.0,600,3.4939999999999998,2.406,-0.8059999999999999,-90.5846598,97.91852220000001,-338.9619528,-66.19383774,85.77754218,-54.9180243
6.01,601,3.9960000000000004,2.428,-0.976,-22.1734746,-22.1734746,-352.71294480000006,-75.56170104,82.37990124000002,-64.09681146
6.02,602,3.985,1.5819999999999999,1.127,22.4599536,12.1467096,-328.1903424,-80.31725244,79.22290266,-69.14457143999999
6.03,603,3.588,1.0,3.608,97.6320432,248.7783636,-279.7753914,-91.80506034,76.66178040000001,-81.86996862
6.04,604,3.2030000000000003,0.28800000000000003,1.296,178.8774876,180.195291,-202.3114698,-96.49185678,74.55902454,-88.5506589
6.05,605,2.978,0.015,-2.805,-41.1383844,70.9894962,-156.3602382,-98.6347197,72.95474214000002,-90.32682870000001
6.06,606,2.022,0.662,0.084,-89.4387438,10.828906199999999,-136.87966619999997,-99.19621854,71.60256126,-89.96013558000001
6.07,607,1.974,-0.293,-0.055,40.90920120000001,75.63045600000002,-98.6633676,-100.47391488,70.52540022,-91.74203496
6.08,608,1.5290000000000001,-0.408,0.17,-3.9534102,55.06126379999999,-92.0170548,-101.53388718,69.53991246000001,-92.81346642
6.09,609,1.3719999999999999,0.342,-0.055999999999999994,-40.680018,32.830493399999995,-98.3768886,-102.25581426,68.53150638,-93.1343229
6.1,610,1.4469999999999998,0.648,-0.035,6.0733548,45.263682,-97.5747474,-102.76574688,67.49445240000001,-93.74738796
6.11,611,1.305,0.713,0.019,35.17962120000001,39.5913978,-77.34933000000002,-102.9319047,66.66939288,-94.3088868
6.12,612,1.068,0.838,0.09,55.576926,33.9764094,-56.264475600000004,-102.85169058,66.05059824,-94.83600816
6.13,613,1.016,0.845,0.077,65.08802879999999,33.518043,-52.3110654,-102.68553276,65.47191066,-95.3688591
6.14,614,0.9440000000000001,0.659,0.042,63.82752120000001,34.7212548,-57.52498320000001,-102.51364535999998,64.84165686,-95.89025088
6.15,615,0.7609999999999999,0.41700000000000004,0.021,78.1514712,31.9710564,-61.30650600000001,-102.11830434,64.17702557999999,-96.32569896
6.16,616,0.813,0.325,0.057999999999999996,80.67248640000003,23.605869600000002,-66.00476160000001,-101.51669844,63.4837464,-96.56061174
6.17,617,0.83,0.35700000000000004,0.096,71.1040878,9.453807,-69.8435802,-100.73174598,62.78473764,-96.49185678
6.18,618,0.667,0.39,0.16699999999999998,68.52577679999999,-1.8907614,-73.45321560000002,-99.76917654,62.05708098,-96.18818904
6.1899999999999995,619,0.598,0.401,0.172,62.96808420000001,-12.9488508,-77.0055552,-98.68055634,61.31796515999999,-95.67825642
6.2,620,0.564,0.405,0.262,54.94667220000001,-17.8189938,-76.31800559999998,-97.66642068,60.56739018,-95.14540548
6.21,621,0.445,0.44299999999999995,0.326,42.91455420000001,-12.605075999999999,-74.9429064,-96.86427948,59.83973352,-94.72141656
6.22,622,0.405,0.475,0.318,25.668518399999996,-5.3285094000000015,-72.65107440000001,-96.37726518,59.12353602,-94.46358546
6.2299999999999995,623,0.48100000000000004,0.5,0.252,13.3499214,4.9847346,-67.3798608,-96.21110736,58.45317516,-94.42347840000001
6.24,624,0.493,0.532,0.16399999999999998,8.7089616,13.8082878,-60.16059,-96.24548484,57.84583968000001,-94.56098832
6.25,625,0.46299999999999997,0.562,0.109,6.7609043999999985,17.8189938,-53.8007562,-96.37726518,57.267152100000004,-94.79017152
6.26,626,0.54,0.615,0.139,3.4377480000000005,21.657812399999997,-47.555514,-96.59498922000002,56.78013780000001,-95.08810968
6.27,627,0.508,0.693,0.183,0.0,25.3247436,-42.742666799999995,-96.90438654,56.33323056,-95.4548028
6.28,628,0.519,0.722,0.198,-3.7815228,25.4393352,-36.38283300000001,-97.25389092,55.94934870000001,-95.8272255
6.29,629,0.525,0.75,0.203,-10.828906199999999,30.4813656,-27.4446882,-97.75809396,55.65141053999999,-96.29132148
6.3,630,0.5589999999999999,0.821,0.177,-15.6417534,33.0596766,-18.162768600000003,-98.36542944,55.38212028,-96.829902
6.31,631,0.639,0.846,0.159,-18.9649098,31.913760600000003,-9.5111028,-98.99568324,55.25033994,-97.35129378
6.32,632,0.6659999999999999,0.853,0.149,-21.772404,31.22621100000001,-1.2605076000000002,-99.65458494,55.19877372,-97.88414472
6.33,633,0.718,0.865,0.159,-24.923673,31.3980984,4.8128472,-100.36505286,55.20450329999999,-98.42845481999998
6.34,634,0.762,0.872,0.159,-25.496631,30.137590799999998,10.1413566,-101.0697912,55.25606952,-98.97276492
6.35,635,0.8109999999999999,0.887,0.14800000000000002,-25.0955604,28.361421000000004,14.896907999999998,-101.7573408,55.33055406,-99.4941567
6.36,636,0.8420000000000001,0.875,0.124,-19.9962342,22.631841,19.652459399999998,-102.33602838,55.47952314000001,-99.9525231
6.37,637,0.8440000000000001,0.8370000000000001,0.138,-14.610429000000002,16.8449652,24.694489800000003,-102.80012436,55.69151760000001,-100.33067538
6.38,638,0.882,0.799,0.135,-8.59437,9.6256944,28.0176462,-103.12098084000002,55.94361912,-100.60569522
6.39,639,0.9670000000000001,0.741,0.154,-1.3750992,4.583664,31.856464799999998,-103.3043274,56.24155728000001,-100.8119601
6.4,640,0.9670000000000001,0.7390000000000001,0.18100000000000002,2.6929026,0.8594370000000001,34.66395900000001,-103.40745983999996,56.56241376000001,-100.97238834
6.41,641,1.003,0.743,0.201,8.5370742,-5.958763200000001,36.554720399999994,-103.36162319999998,56.92910687999999,-101.01822498
6.42,642,1.031,0.7559999999999999,0.212,14.037471,-11.5164558,38.7892566,-103.17827664,57.32444790000001,-100.97811792
6.43,643,1.048,0.75,0.201,21.600516600000002,-18.3919518,42.2270046,-102.82877226,57.76562556,-100.82341926
6.4399999999999995,644,1.075,0.7390000000000001,0.19399999999999998,28.361421000000004,-27.6165756,45.2063862,-102.26154384,58.25263986,-100.50256278
6.45,645,1.084,0.716,0.203,35.3515086,-37.013086799999996,47.6128098,-101.47659138,58.77403164,-100.0098189
6.46,646,1.087,0.67,0.18899999999999997,41.4248634,-43.888582799999995,49.1597964,-100.49683320000001,59.32407132,-99.36237636
6.47,647,1.038,0.606,0.175,45.263682,-49.7327544,49.1025006,-99.34518762,59.86838142000001,-98.57169432
6.4799999999999995,648,1.02,0.551,0.152,47.7274014,-52.82672760000001,48.414951,-98.08468002,60.40696194,-97.68360942
6.49,649,0.996,0.49,0.203,49.4462754,-55.3477428,48.5868384,-96.72103998,60.9340833,-96.70958082
6.5,650,1.026,0.47600000000000003,0.237,47.3836266,-54.94667220000001,50.3630082,-95.37458868,61.47266382,-95.72409306
6.51,651,1.03,0.452,0.268,45.1490904,-53.39968560000001,52.7694318,-94.01094864,62.02270350000001,-94.70422782
6.52,652,1.0659999999999998,0.431,0.262,41.3675676,-46.2377106,53.9726436,-92.77908894,62.5670136,-93.79895417999998
6.53,653,1.062,0.405,0.228,37.586044799999996,-38.5600734,51.852699,-91.69619832,63.08267579999999,-93.01400172
6.54,654,0.9990000000000001,0.33899999999999997,0.141,32.7731976,-33.116972399999995,49.2170922,-90.73362888,63.56969010000001,-92.31499296
6.55,655,0.9420000000000001,0.24,0.023,27.043617600000005,-25.9549974,49.5035712,-89.9257581,64.07389314,-91.7305758
6.56,656,0.84,0.13699999999999998,-0.128,19.0222056,-26.642546999999997,52.712136,-89.16945354,64.58955533999999,-91.11178116
6.57,657,0.809,0.105,-0.187,5.2712136,-31.9710564,56.0352924,-88.41314897999996,65.12813586000001,-90.33828786
6.58,658,0.889,0.141,-0.29,-6.0733548,-43.315624799999995,54.14453099999999,-87.48495702,65.63806847999999,-89.26112682
6.59,659,0.9279999999999999,0.171,-0.35600000000000004,-3.1512689999999997,-60.2178858,50.47759979999999,-86.12131698,66.0907053,-87.73705853999998
6.6,660,0.9279999999999999,0.212,-0.29,4.4690724,-69.2706222,47.0398518,-84.3680655,66.49177590000001,-85.89786336
6.61,661,0.945,0.27899999999999997,-0.183,10.7143146,-65.030733,41.252976000000004,-82.67210982,66.80690279999999,-84.17325978
6.62,662,0.958,0.308,-0.11900000000000001,18.8503182,-56.8947294,35.52339600000001,-81.05063868,67.05900432000001,-82.63200276
6.63,663,0.988,0.287,-0.054000000000000006,24.7517856,-52.139178,28.6479,-79.48646334,67.2366213,-81.21106692
6.64,664,0.973,0.226,-0.054000000000000006,21.2567418,-51.4516284,25.6112226,-77.96239505999998,67.37413122000001,-79.80159024000002
6.65,665,0.948,0.166,-0.071,16.7303736,-50.24841660000001,25.7258142,-76.47843384000002,67.5231003,-78.39211356000001
6.66,666,0.946,0.11199999999999999,-0.114,12.0894138,-47.9565846,27.100913399999996,-75.08614589999998,67.65488064,-77.02274394
6.67,667,0.956,0.09300000000000001,-0.154,10.026765,-44.0031744,28.074942,-73.77980166,67.79239056,-75.73358843999998
6.68,668,0.97,0.08800000000000001,-0.182,8.7089616,-40.7373138,26.0122932,-72.55940111999998,67.91271173999999,-74.51891748
6.6899999999999995,669,0.978,0.069,-0.18600000000000005,7.2192707999999985,-38.8465524,21.199446,-71.43067386,67.98719628,-73.38446064
6.7,670,0.9740000000000001,0.047,-0.17300000000000001,5.1566220000000005,-36.7266078,16.2147114,-70.31913534,68.06168081999999,-72.26146296
6.71,671,0.96,0.037000000000000005,-0.17600000000000002,0.2291832000000001,-31.51269000000001,10.7143146,-69.4998054,68.04449208,-71.38483722
6.72,672,0.9540000000000001,0.046,-0.17800000000000002,-4.583664,-26.241476399999996,5.9014674000000005,-68.8981995,68.00438502,-70.68582846
6.7299999999999995,673,0.941,0.073,-0.18600000000000005,-8.307891,-22.2307704,2.1772404,-68.45129225999999,67.93563006,-70.12432962
6.74,674,0.929,0.12300000000000001,-0.184,-10.1986524,-19.480572,-0.40107059999999994,-68.11897662,67.85541594,-69.65450406
6.75,675,0.917,0.17600000000000002,-0.174,-10.313244000000001,-17.7044022,-2.3491277999999998,-67.75801308,67.80384971999999,-69.16748976
6.76,676,0.895,0.203,-0.172,-8.7089616,-15.2406828,-4.010706000000001,-67.54028904,67.70071728,-68.8409037
6.77,677,0.89,0.218,-0.16,-7.9641161999999985,-11.688343199999998,-5.0993262,-67.4085087,67.60904400000001,-68.61172049999999
6.78,678,0.89,0.215,-0.152,-8.307891,-8.307891,-5.5003968,-67.36267206,67.5231003,-68.46848100000001
6.79,679,0.894,0.209,-0.16399999999999998,-10.7143146,-4.1252976000000015,-4.8701430000000006,-67.41996786,67.4658045,-68.41691478
6.8,680,0.894,0.20600000000000002,-0.179,-13.980175199999998,-1.4896908000000002,-4.0680017999999984,-67.43142702,67.4658045,-68.2965936
6.81,681,0.899,0.21,-0.198,-17.5325148,-0.057295800000000015,-3.5523396000000003,-67.63769190000001,67.43142702,-68.3252415
6.82,682,0.8909999999999999,0.21600000000000005,-0.21600000000000005,-20.340009,0.5156622000000001,-3.2658606,-67.87833426,67.40277911999999,-68.35961898
6.83,683,0.868,0.221,-0.24,-22.7464326,1.2032118,-3.8388186,-68.16481326,67.37413122000001,-68.42264436
6.84,684,0.8390000000000001,0.22,-0.248,-24.350715,2.3491277999999998,-4.9274388,-68.50285848,67.33975374,-68.51431764
6.85,685,0.805,0.223,-0.244,-25.496631,3.7815228,-6.4744254,-68.78933748,67.2939171,-68.56015427999999
6.86,686,0.775,0.22399999999999998,-0.24600000000000002,-26.7571386,5.5003968,-8.651665800000002,-69.24770388,67.2366213,-68.76641916
6.87,687,0.7609999999999999,0.233,-0.251,-28.934378999999996,8.250595200000001,-12.032118,-69.8149323,67.15640718,-69.05862774
6.88,688,0.774,0.256,-0.256,-28.81978740000001,9.1100322,-14.4958374,-70.41653819999998,67.05327473999999,-69.39094338
6.89,689,0.782,0.28300000000000003,-0.251,-27.215505,9.0527364,-15.928232399999999,-71.00668494,66.93868314,-69.72898860000001
6.9,690,0.8,0.324,-0.24100000000000002,-25.210151999999997,8.7662574,-15.813640800000002,-71.49369924,66.80690279999999,-69.9868197
6.91,691,0.831,0.353,-0.221,-22.1734746,7.5057497999999985,-15.126091199999998,-71.98644312,66.68658162,-70.27902828
6.92,692,0.8440000000000001,0.39299999999999996,-0.203,-19.365980399999998,6.0733548,-13.5791046,-72.40470246,66.58344918,-70.51967064
6.93,693,0.884,0.409,-0.19,-15.469866,4.6982555999999995,-12.2040054,-72.74274768000002,66.48031674,-70.72020594
6.9399999999999995,694,0.9229999999999999,0.4,-0.172,-12.6623718,3.4950437999999995,-10.943497800000001,-73.01776751999998,66.38864346,-70.8749046
6.95,695,0.946,0.385,-0.162,-10.4851314,3.3231564,-9.396511199999999,-73.20684365999998,66.30842934,-70.97230746
6.96,696,0.972,0.3670000000000001,-0.159,-8.7662574,4.1825934,-7.906820400000001,-73.43602686,66.24540396,-71.12127654
6.97,697,0.9890000000000001,0.35700000000000004,-0.152,-6.703608600000001,4.6982555999999995,-6.130650599999999,-73.64229173999998,66.19956732,-71.27597519999998
6.9799999999999995,698,1.014,0.35,-0.14300000000000002,-5.0993262,4.8701430000000006,-4.1825934,-73.82563830000002,66.17664900000001,-71.41348512
6.99,699,1.022,0.354,-0.13,-3.7815228,4.6409598,-2.1199446,-73.97460738,66.17091941999999,-71.53953588
7.0,700,1.024,0.36200000000000004,-0.124,-2.2345362,4.6982555999999995,-0.286479,-74.06055108000002,66.22248564,-71.61402042
7.01,701,1.022,0.36200000000000004,-0.11699999999999999,0.3437748,4.8128472,1.3178034,-74.15222436,66.25113354,-71.71715286
7.02,702,1.022,0.35,-0.111,2.4064236,4.8128472,2.9793816000000004,-74.21524974,66.29124060000001,-71.80882614
7.03,703,1.022,0.34,-0.106,4.3544808,4.9847346,4.297185,-74.24962722000002,66.3485364,-71.90049941999997
7.04,704,1.014,0.327,-0.10800000000000001,5.3858052,4.8701430000000006,4.8701430000000006,-74.27254554,66.40583219999999,-71.98644312
7.05,705,1.014,0.308,-0.111,5.7868758000000025,5.3285094000000015,5.0993262,-74.26108638000002,66.52615338000001,-72.04373892
7.06,706,1.008,0.293,-0.114,5.6149884000000005,6.3598338,5.042030400000002,-74.31265259999998,66.58917876000001,-72.16406009999999
7.07,707,1.004,0.285,-0.11599999999999999,4.8128472,6.990087599999999,4.6409598,-74.39286672,66.65793372,-72.30157002
7.08,708,1.0,0.278,-0.114,3.8961144,7.0473834,3.8961144,-74.48454000000002,66.71522952000001,-72.44480952
7.09,709,0.9940000000000001,0.278,-0.109,2.86479,6.7609043999999985,2.9793816000000004,-74.58767244,66.76106616,-72.58804902
7.1,710,0.988,0.282,-0.107,2.1772404,6.0160589999999985,2.1199446,-74.59913159999998,66.89857608,-72.64534482
7.11,711,0.982,0.285,-0.113,1.0313244000000001,5.5003968,1.2605076000000002,-74.70799362,66.92722398,-72.77139558
7.12,712,0.9790000000000001,0.287,-0.11800000000000001,0.0,4.8128472,0.8594370000000001,-74.81112606,66.95014230000001,-72.88025760000002
7.13,713,0.97,0.28800000000000003,-0.124,-1.2032118,4.010706000000001,0.8021411999999999,-74.90852892000002,66.97306062,-72.97193088
7.14,714,0.96,0.285,-0.127,-2.6929026,3.4377480000000005,1.145916,-75.00593178,66.99024935999999,-73.04641542
7.15,715,0.9470000000000001,0.284,-0.132,-4.297185,3.2658606,1.7761698000000001,-74.9429064,67.08765222,-72.9662013
7.16,716,0.935,0.28,-0.136,-5.5576926,3.4377480000000005,2.4064236,-75.06322758,67.1220297,-73.02922668
7.17,717,0.925,0.27699999999999997,-0.142,-6.4744254,3.2658606,2.9220858,-75.18354876,67.16213676,-73.08652248
7.18,718,0.917,0.278,-0.149,-6.875496000000001,2.9220858,2.9793816000000004,-75.29814036,67.19651424,-73.1380887
7.1899999999999995,719,0.91,0.278,-0.153,-7.161975,2.4064236,2.9220858,-75.40700238,67.23089172,-73.17819576000002
7.2,720,0.9079999999999999,0.278,-0.157,-7.2192707999999985,2.1199446,2.5783110000000002,-75.30959952,67.31110584,-73.01776751999998
7.21,721,0.912,0.278,-0.154,-6.9327918,1.6615782,2.3491277999999998,-75.4012728,67.33402416,-73.04641542
7.22,722,0.9179999999999999,0.28,-0.151,-6.4744254,1.0886202,2.0053530000000004,-75.47575734,67.36267206,-73.05787458
7.2299999999999995,723,0.9259999999999999,0.281,-0.14800000000000002,-5.72958,0.3437748,1.432395,-75.53305314,67.37413122000001,-73.052145
7.24,724,0.9359999999999999,0.282,-0.14300000000000002,-4.8701430000000006,-0.286479,0.6875496,-75.56743062000002,67.37986079999999,-73.04068584
7.25,725,0.948,0.282,-0.139,-4.1825934,-0.6875496,0.2291832000000001,-75.22365582,67.5231003,-72.67972230000002
7.26,726,0.961,0.28300000000000003,-0.132,-3.6669312000000014,-0.9740286,-0.11459160000000004,-75.24084456,67.51737072,-72.65107440000001
7.27,727,0.9740000000000001,0.284,-0.128,-3.3231564,-0.8594370000000001,-0.6302538000000001,-75.25230372,67.51164114,-72.63388566
7.28,728,0.9840000000000001,0.284,-0.122,-2.7501984,-0.5156622000000001,-0.7448454000000001,-75.27522203999997,67.50018198000001,-72.62815608
7.29,729,0.987,0.284,-0.11800000000000001,-2.5210152000000003,0.0,-0.8594370000000001,-75.30386994,67.49445240000001,-72.62815608
7.3,730,0.987,0.285,-0.11699999999999999,-2.8074942000000003,0.4583664000000001,-0.7448454000000001,-75.09760506,67.64342148,-72.4218912
7.31,731,0.987,0.289,-0.11599999999999999,-2.9793816000000004,0.6875496,-0.6302538000000001,-75.14917127999998,67.64342148,-72.43907994
7.32,732,0.985,0.29,-0.115,-2.6929026,0.6875496,-0.572958,-75.19500792,67.63769190000001,-72.46199826
7.33,733,0.985,0.28800000000000003,-0.11199999999999999,-2.3491277999999998,0.7448454000000001,-0.5156622000000001,-75.24084456,67.63196232,-72.48491658
7.34,734,0.983,0.287,-0.11199999999999999,-2.1199446,0.9740286,-0.5156622000000001,-75.2866812,67.63196232,-72.51356448
7.35,735,0.98,0.287,-0.11199999999999999,-1.8907614,1.3750992,-0.572958,-75.09187548,67.79812014000001,-72.32448833999999
7.36,736,0.977,0.289,-0.114,-1.7761698000000001,1.3178034,-0.5156622000000001,-75.14344170000003,67.79812014000001,-72.35886581999998
7.37,737,0.971,0.28800000000000003,-0.113,-1.4896908000000002,1.145916,-0.5156622000000001,-75.18927834,67.79812014000001,-72.3932433
7.38,738,0.965,0.287,-0.114,-1.2032118,0.9740286,-0.5156622000000001,-75.2293854,67.79239056,-72.4218912
7.39,739,0.956,0.287,-0.11599999999999999,-1.0886202,0.6875496,-0.4583664000000001,-75.2580333,67.79239056,-72.44480952
7.4,740,0.95,0.28600000000000003,-0.11800000000000001,-0.9740286,0.286479,-0.4583664000000001,-74.54756538,68.13043578,-71.78017824
7.41,741,0.945,0.28600000000000003,-0.122,-0.9167328000000001,-0.057295800000000015,-0.5156622000000001,-74.55902454,68.1247062,-71.78590782
7.42,742,0.941,0.28600000000000003,-0.12300000000000001,-0.7448454000000001,-0.572958,-0.8021411999999999,-74.55902454,68.11897662,-71.77444865999998
7.43,743,0.938,0.28600000000000003,-0.125,-0.572958,-1.4896908000000002,-1.2032118,-74.53610622,68.10178787999999,-71.74580076
7.4399999999999995,744,0.9390000000000001,0.285,-0.126,-0.286479,-2.1199446,-1.6042823999999998,-74.49599916000003,68.07886956,-71.69996411999998
7.45,745,0.9390000000000001,0.28600000000000003,-0.129,-0.2291832000000001,-2.5783110000000002,-1.9480572,-74.17514268,68.13616535999999,-71.39056679999999
7.46,746,0.9420000000000001,0.289,-0.131,-0.057295800000000015,-2.8074942000000003,-2.3491277999999998,-74.12357646,68.10751746,-71.33900058
7.47,747,0.945,0.29100000000000004,-0.133,0.2291832000000001,-3.0366774,-2.5783110000000002,-74.06628065999998,68.07313998,-71.27597519999998
7.4799999999999995,748,0.948,0.29100000000000004,-0.134,0.3437748,-3.2085647999999996,-2.6356068,-74.00898486,68.03303292000001,-71.21867940000001
7.49,749,0.951,0.293,-0.135,0.5156622000000001,-3.380452200000001,-2.5210152000000003,-73.94022989999998,67.99865544000001,-71.14992443999998
7.5,750,0.955,0.29600000000000004,-0.134,0.4583664000000001,-3.2658606,-2.4064236,-73.66521005999998,68.03303292000001,-70.89782292
7.51,751,0.9590000000000001,0.298,-0.133,0.572958,-3.3231564,-2.0053530000000004,-73.5964551,68.00438502,-70.82906796
7.52,752,0.963,0.3,-0.135,0.8021411999999999,-3.380452200000001,-1.5469866,-73.52197056,67.97573712,-70.75458342
7.53,753,0.9640000000000001,0.3,-0.135,0.9740286,-3.4377480000000005,-1.145916,-73.44175643999998,67.9528188,-70.6743693
7.54,754,0.965,0.298,-0.135,0.9740286,-3.2658606,-0.7448454000000001,-73.35581274,67.93563006,-70.59988476
7.55,755,0.965,0.298,-0.133,0.8594370000000001,-3.380452200000001,-0.4583664000000001,-73.04068584,68.0101146,-70.3019466
7.56,756,0.963,0.29600000000000004,-0.132,0.6302538000000001,-3.2085647999999996,-0.286479,-72.96047172,67.99292586,-70.22173248
7.57,757,0.9620000000000001,0.295,-0.132,0.6302538000000001,-3.0366774,-0.057295800000000015,-72.88025760000002,67.98719628,-70.14724794
7.58,758,0.96,0.294,-0.134,0.5156622000000001,-2.86479,0.057295800000000015,-72.80577306,67.97573712,-70.07276340000001
7.59,759,0.958,0.293,-0.13699999999999998,0.5156622000000001,-2.6929026,0.286479,-72.7370181,67.97000754,-70.00400843999999
7.6,760,0.956,0.29100000000000004,-0.139,0.5156622000000001,-2.5210152000000003,0.4583664000000001,-72.32448833999999,68.07886956,-69.62012658
7.61,761,0.9540000000000001,0.29,-0.14,0.40107059999999994,-2.291832,0.4583664000000001,-72.26146296,68.07886956,-69.5571012
7.62,762,0.953,0.287,-0.14300000000000002,0.286479,-1.8907614,0.4583664000000001,-72.20989674,68.07886956,-69.50553498000001
7.63,763,0.95,0.287,-0.142,0.057295800000000015,-1.6042823999999998,0.40107059999999994,-72.16978968,68.07313998,-69.46542792
7.64,764,0.9470000000000001,0.28600000000000003,-0.141,-0.1718874,-1.3178034,0.3437748,-72.13541219999998,68.07313998,-69.42532086
7.65,765,0.9440000000000001,0.28600000000000003,-0.14,-0.286479,-1.3750992,0.11459160000000004,-71.45359218,68.27367527999999,-68.7836079
7.66,766,0.9420000000000001,0.28600000000000003,-0.14,-0.286479,-1.5469866,0.057295800000000015,-71.4192147,68.2679457,-68.74350084
7.67,767,0.943,0.285,-0.139,-0.40107059999999994,-1.7761698000000001,0.057295800000000015,-71.38483722,68.26221611999999,-68.69766419999999
7.68,768,0.9420000000000001,0.284,-0.139,-0.8021411999999999,-2.1772404,0.0,-71.33900058,68.25648654,-68.64609798000001
7.6899999999999995,769,0.9440000000000001,0.284,-0.138,-0.8021411999999999,-2.3491277999999998,-0.057295800000000015,-71.29316394,68.24502738,-68.58307260000001
7.7,770,0.945,0.28300000000000003,-0.139,-0.8594370000000001,-2.4064236,-0.057295800000000015,-70.9035525,68.34815982,-68.21064989999999
7.71,771,0.945,0.285,-0.14,-1.2605076000000002,-1.7761698000000001,-0.057295800000000015,-70.8749046,68.34243024000001,-68.16481326
7.72,772,0.9440000000000001,0.28600000000000003,-0.146,-1.4896908000000002,-1.0886202,0.0,-70.86344543999998,68.33670065999999,-68.13616535999999
7.7299999999999995,773,0.9440000000000001,0.28800000000000003,-0.149,-1.2032118,-0.9740286,0.0,-70.85198627999998,68.33097108000001,-68.10751746
7.74,774,0.9440000000000001,0.289,-0.152,-0.6302538000000001,-1.2605076000000002,-0.057295800000000015,-70.82906796,68.3252415,-68.07886956
7.75,775,0.9470000000000001,0.289,-0.153,-0.1718874,-1.5469866,-0.2291832000000001,-70.20454373999999,68.44556268,-67.48299324000001
7.76,776,0.9490000000000001,0.292,-0.15,-0.057295800000000015,-1.5469866,-0.286479,-70.17016626,68.43410352000001,-67.44861576
7.77,777,0.951,0.292,-0.147,-0.057295800000000015,-1.2605076000000002,-0.286479,-70.14151836,68.42837394,-67.41996786
7.78,778,0.9520000000000001,0.293,-0.14400000000000002,-0.1718874,-1.0313244000000001,-0.286479,-70.12432962,68.42264436,-67.39704954
7.79,779,0.9540000000000001,0.293,-0.142,-0.11459160000000004,-0.8021411999999999,-0.11459160000000004,-70.10714088,68.41691478,-67.37413122000001
7.8,780,0.956,0.29,-0.142,-0.057295800000000015,-0.5156622000000001,0.0,-68.81798538,68.83517412,-66.18237858
7.81,781,0.955,0.28800000000000003,-0.14300000000000002,-0.057295800000000015,-0.3437748,0.11459160000000004,-68.8122558,68.83517412,-66.17091941999999
7.82,782,0.9520000000000001,0.287,-0.142,-0.3437748,-0.057295800000000015,0.057295800000000015,-68.8122558,68.83517412,-66.17091941999999
7.83,783,0.95,0.285,-0.141,-0.6875496,0.286479,0.057295800000000015,-68.82371496,68.8409037,-66.17664900000001
7.84,784,0.9490000000000001,0.28600000000000003,-0.14,-0.8021411999999999,0.2291832000000001,0.0,-68.83517412,68.8409037,-66.18237858
7.85,785,0.948,0.284,-0.14,-0.8594370000000001,0.1718874,0.0,-68.3252415,69.02425026,-65.70109386
7.86,786,0.948,0.28300000000000003,-0.14,-0.8021411999999999,0.0,-0.057295800000000015,-68.33670065999999,69.02425026,-65.70109386
7.87,787,0.9490000000000001,0.28300000000000003,-0.141,-0.9740286,0.11459160000000004,-0.11459160000000004,-68.35388940000001,69.02425026,-65.70682344000001
7.88,788,0.9490000000000001,0.284,-0.141,-0.9740286,0.2291832000000001,-0.2291832000000001,-68.37107814,69.02425026,-65.71828260000001
7.89,789,0.948,0.28600000000000003,-0.142,-1.0313244000000001,0.2291832000000001,-0.286479,-68.39399646,69.02425026,-65.72974176
7.9,790,0.948,0.287,-0.14400000000000002,-1.0886202,0.4583664000000001,-0.3437748,-68.09032872,69.11019395999999,-65.43753317999999
7.91,791,0.9490000000000001,0.28600000000000003,-0.14300000000000002,-1.0313244000000001,0.5156622000000001,-0.3437748,-68.11324704,69.11019395999999,-65.45472192
7.92,792,0.948,0.28600000000000003,-0.14400000000000002,-0.9740286,0.3437748,-0.3437748,-68.13616535999999,69.11019395999999,-65.46618108
7.93,793,0.9490000000000001,0.28800000000000003,-0.14300000000000002,-1.0313244000000001,0.5156622000000001,-0.40107059999999994,-68.16481326,69.10446438,-65.48336982
7.94,794,0.95,0.287,-0.141,-1.0886202,0.4583664000000001,-0.40107059999999994,-68.18773158,69.10446438,-65.50055856
7.95,795,0.951,0.287,-0.14,-1.2032118,0.4583664000000001,-0.40107059999999994,-67.98719628,69.17894892,-65.30002326
7.96,796,0.951,0.285,-0.139,-1.3750992,0.5156622000000001,-0.3437748,-68.01584418,69.17894892,-65.31721200000001
7.97,797,0.951,0.28300000000000003,-0.139,-1.4896908000000002,0.8021411999999999,-0.4583664000000001,-68.05595124,69.17894892,-65.3458599
7.9799999999999995,798,0.95,0.28300000000000003,-0.14,-1.432395,0.9167328000000001,-0.572958,-68.10178787999999,69.17321934,-65.3745078
7.99,799,0.9490000000000001,0.28300000000000003,-0.142,-1.432395,0.7448454000000001,-0.7448454000000001,-68.14189494000001,69.17321934,-65.40315569999999
8.0,800,0.951,0.285,-0.14300000000000002,-1.2032118,0.6302538000000001,-0.9167328000000001,-67.9528188,69.21905598,-65.21980914
8.01,801,0.953,0.287,-0.145,-1.0886202,0.5156622000000001,-1.0313244000000001,-67.98719628,69.21332640000001,-65.24272746
8.02,802,0.9540000000000001,0.28800000000000003,-0.14400000000000002,-0.8021411999999999,0.40107059999999994,-1.0886202,-68.01584418,69.20186724,-65.26564578
8.03,803,0.955,0.289,-0.14300000000000002,-0.6875496,0.4583664000000001,-1.0313244000000001,-68.04449208,69.19613766,-65.2885641
8.04,804,0.9540000000000001,0.289,-0.14,-0.6875496,0.6302538000000001,-1.0886202,-68.07886956,69.19040808,-65.31721200000001
8.05,805,0.953,0.29,-0.139,-0.8021411999999999,0.8021411999999999,-1.0886202,-67.9528188,69.23624472,-65.19689082
8.06,806,0.953,0.289,-0.13699999999999998,-0.8594370000000001,0.8021411999999999,-1.0886202,-67.99292586,69.22478556000002,-65.2312683
8.07,807,0.9540000000000001,0.29,-0.13699999999999998,-1.0313244000000001,0.6875496,-1.0886202,-68.03303292000001,69.21905598,-65.25991619999999
8.08,808,0.955,0.29,-0.136,-1.2605076000000002,0.572958,-1.0313244000000001,-68.0674104,69.21332640000001,-65.28283452000001
8.09,809,0.9570000000000001,0.29100000000000004,-0.135,-1.432395,0.5156622000000001,-1.0313244000000001,-68.10751746,69.20186724,-65.31148241999999
8.1,810,0.956,0.29100000000000004,-0.135,-1.4896908000000002,0.5156622000000001,-0.9167328000000001,-68.02157376,69.24770388,-65.21980914
8.11,811,0.955,0.29,-0.134,-1.6042823999999998,0.6302538000000001,-0.8021411999999999,-68.06168081999999,69.24197430000001,-65.24845703999999
8.12,812,0.9540000000000001,0.29,-0.134,-1.6615782,0.572958,-0.8021411999999999,-68.10178787999999,69.23624472,-65.27137536000001
8.13,813,0.953,0.29,-0.134,-1.7188740000000002,0.4583664000000001,-0.8021411999999999,-68.13616535999999,69.23051514,-65.2885641
8.14,814,0.955,0.289,-0.133,-1.8907614,0.572958,-0.7448454000000001,-68.182002,69.22478556000002,-65.31148241999999
8.15,815,0.956,0.29,-0.132,-2.0053530000000004,0.572958,-0.6875496,-68.11897662,69.26489262,-65.24272746
8.16,816,0.9570000000000001,0.292,-0.133,-2.2345362,0.6875496,-0.572958,-68.16481326,69.25916304,-65.26564578
8.17,817,0.9570000000000001,0.293,-0.135,-2.1772404,0.4583664000000001,-0.4583664000000001,-68.20492032,69.25916304,-65.28283452000001
8.18,818,0.9570000000000001,0.293,-0.136,-2.0626488000000003,0.286479,-0.2291832000000001,-68.23356822000001,69.25916304,-65.2885641
8.19,819,0.956,0.294,-0.138,-1.8334656000000005,0.0,-0.1718874,-68.25075696,69.25343346,-65.29429368000001
8.2,820,0.9540000000000001,0.293,-0.13699999999999998,-0.572958,-0.572958,0.3437748,-68.0101146,69.33364758,-65.05938090000001
8.209999999999999,821,0.953,0.29100000000000004,-0.13699999999999998,-0.1718874,-0.7448454000000001,0.572958,-67.98719628,69.33364758,-65.030733
8.22,822,0.951,0.289,-0.138,0.0,-0.8594370000000001,0.4583664000000001,-67.95854838,69.33364758,-65.0020851
8.23,823,0.951,0.287,-0.139,0.0,-0.9167328000000001,0.4583664000000001,-67.92990048,69.33364758,-64.97343719999999
8.24,824,0.951,0.287,-0.14,0.057295800000000015,-0.9740286,0.40107059999999994,-67.90125258,69.33364758,-64.9447893
8.25,825,0.951,0.287,-0.141,0.11459160000000004,-1.0886202,0.286479,-67.60331441999999,69.40240254,-64.66403987999999
8.26,826,0.951,0.28800000000000003,-0.14,0.11459160000000004,-1.145916,0.286479,-67.57466652000001,69.39667296,-64.6296624
8.27,827,0.951,0.287,-0.139,0.1718874,-1.145916,0.1718874,-67.54028904,69.39667296,-64.60101449999999
8.28,828,0.9520000000000001,0.287,-0.139,0.0,-0.9740286,0.11459160000000004,-67.51737072,69.39094338,-64.5723666
8.29,829,0.953,0.287,-0.13699999999999998,0.0,-0.9167328000000001,0.0,-67.49445240000001,69.39094338,-64.54944828000001
8.3,830,0.9540000000000001,0.287,-0.138,-0.11459160000000004,-0.8021411999999999,0.0,-67.18505508000001,69.49407582,-64.26296928
8.31,831,0.9540000000000001,0.287,-0.138,-0.2291832000000001,-0.9740286,0.0,-67.16786634,69.48834624,-64.23432138000001
8.32,832,0.9540000000000001,0.28800000000000003,-0.13699999999999998,-0.5156622000000001,-1.2032118,0.0,-67.13921844000001,69.48261666,-64.19994390000001
8.33,833,0.951,0.28800000000000003,-0.135,-0.6875496,-1.432395,0.0,-67.11057054,69.47688708,-64.16556641999999
8.34,834,0.9490000000000001,0.287,-0.133,-0.8594370000000001,-1.5469866,-0.057295800000000015,-67.08192264,69.47115749999999,-64.12545936000001
8.35,835,0.9490000000000001,0.287,-0.134,-1.145916,-1.3750992,-0.11459160000000004,-66.96733104,69.4998054,-63.9994086
8.36,836,0.953,0.28800000000000003,-0.138,-1.432395,-1.145916,-0.1718874,-66.95587187999999,69.49407582,-63.97076069999999
8.37,837,0.95,0.29100000000000004,-0.14,-0.8594370000000001,-0.8021411999999999,-0.057295800000000015,-66.94441271999999,69.48834624,-63.95357196
8.38,838,0.951,0.29,-0.141,-0.8021411999999999,-0.8594370000000001,-0.1718874,-66.93295356,69.48261666,-63.93065363999999
8.39,839,0.9520000000000001,0.292,-0.141,-0.6875496,-1.2032118,-0.286479,-66.91576482,69.47688708,-63.90200574000001
8.4,840,0.951,0.293,-0.14,-0.5156622000000001,-1.432395,-0.40107059999999994,-66.77252532,69.49407582,-63.76449582
8.41,841,0.953,0.293,-0.14,-0.11459160000000004,-1.6042823999999998,-0.4583664000000001,-66.74387741999999,69.48261666,-63.73011834
8.42,842,0.955,0.295,-0.14,0.0,-1.6042823999999998,-0.4583664000000001,-66.70949994,69.47115749999999,-63.69001128
8.43,843,0.955,0.29600000000000004,-0.14,0.2291832000000001,-1.7188740000000002,-0.40107059999999994,-66.66939288,69.45969834,-63.64990422
8.44,844,0.956,0.294,-0.138,0.572958,-1.7761698000000001,-0.3437748,-66.62355624,69.44823918,-63.60979716000001
8.45,845,0.956,0.292,-0.13699999999999998,0.5156622000000001,-1.8907614,-0.286479,-66.49750548,69.47688708,-63.49520556
8.459999999999999,846,0.956,0.292,-0.135,0.2291832000000001,-1.7761698000000001,-0.2291832000000001,-66.45166884,69.46542792,-63.44936892
8.47,847,0.956,0.292,-0.138,-0.057295800000000015,-1.7188740000000002,-0.057295800000000015,-66.41156178,69.45969834,-63.40926186
8.48,848,0.955,0.292,-0.13699999999999998,0.057295800000000015,-1.5469866,0.0,-66.37718430000001,69.44823918,-63.3691548
8.49,849,0.9540000000000001,0.292,-0.138,0.0,-1.2605076000000002,0.11459160000000004,-66.34280681999999,69.44823918,-63.33477732
8.5,850,0.953,0.29100000000000004,-0.138,0.0,-1.2032118,0.11459160000000004,-66.15946026,69.50553498000001,-63.16288992
8.51,851,0.9520000000000001,0.29,-0.138,-0.3437748,-1.2032118,0.11459160000000004,-66.13654194,69.4998054,-63.12851244000001
8.52,852,0.956,0.292,-0.14300000000000002,-0.3437748,-1.0313244000000001,0.2291832000000001,-66.10789403999999,69.4998054,-63.09986454
8.53,853,0.955,0.29100000000000004,-0.14300000000000002,0.0,-0.9740286,0.2291832000000001,-66.08497572,69.49407582,-63.07121664
8.54,854,0.9540000000000001,0.29,-0.14400000000000002,0.11459160000000004,-0.9167328000000001,0.2291832000000001,-66.05632782,69.49407582,-63.04256874
8.55,855,0.955,0.29100000000000004,-0.14400000000000002,0.2291832000000001,-0.8021411999999999,0.1718874,-65.87298125999999,69.53991246000001,-62.87641092
8.56,856,0.9540000000000001,0.29100000000000004,-0.14400000000000002,0.40107059999999994,-0.8021411999999999,0.057295800000000015,-65.85006294,69.53991246000001,-62.853492599999996
8.57,857,0.9540000000000001,0.29,-0.142,0.4583664000000001,-0.8594370000000001,0.0,-65.82141504,69.53418287999999,-62.83057427999999
8.58,858,0.953,0.289,-0.141,0.4583664000000001,-0.9740286,0.0,-65.79276714,69.53418287999999,-62.80765596
8.59,859,0.951,0.289,-0.138,0.286479,-1.0313244000000001,-0.057295800000000015,-65.76411924,69.5284533,-62.77900806
8.6,860,0.953,0.28800000000000003,-0.138,0.1718874,-1.145916,-0.1718874,-65.64952764,69.57428994,-62.67587562
8.61,861,0.9520000000000001,0.29,-0.138,0.0,-1.2605076000000002,-0.11459160000000004,-65.62087973999999,69.56856035999999,-62.64149814
8.62,862,0.95,0.289,-0.138,0.0,-1.2605076000000002,-0.057295800000000015,-65.59223184,69.56283078,-62.60712066
8.63,863,0.95,0.29,-0.14,-0.057295800000000015,-1.2605076000000002,-0.11459160000000004,-65.56358394,69.55137162,-62.57847276
8.64,864,0.948,0.292,-0.14,-0.057295800000000015,-1.3750992,-0.1718874,-65.53493604,69.54564203999999,-62.54409528
8.65,865,0.9470000000000001,0.293,-0.141,-0.11459160000000004,-1.5469866,-0.1718874,-65.4318036,69.5571012,-62.44669242
8.66,866,0.9420000000000001,0.294,-0.14300000000000002,0.0,-1.8334656000000005,-0.1718874,-65.39169654,69.54564203999999,-62.40085577999999
8.67,867,0.946,0.29100000000000004,-0.141,-0.2291832000000001,-1.8907614,-0.4583664000000001,-65.35158948,69.53418287999999,-62.36074872
8.68,868,0.9540000000000001,0.294,-0.142,-0.572958,-1.8334656000000005,-0.286479,-65.31721200000001,69.52272372,-62.31491208
8.69,869,0.9520000000000001,0.294,-0.139,0.11459160000000004,-1.432395,-0.2291832000000001,-65.28283452000001,69.51126456,-62.2805346
8.7,870,0.951,0.294,-0.141,0.057295800000000015,-1.2032118,-0.2291832000000001,-65.18543166,69.53991246000001,-62.18886132
8.71,871,0.9520000000000001,0.293,-0.142,0.057295800000000015,-1.2032118,-0.11459160000000004,-65.15678376,69.53418287999999,-62.16021342000001
8.72,872,0.9520000000000001,0.295,-0.141,0.11459160000000004,-1.432395,-0.057295800000000015,-65.12240627999999,69.52272372,-62.12583594
8.73,873,0.9540000000000001,0.295,-0.142,0.0,-1.5469866,-0.057295800000000015,-65.08802879999999,69.51699414,-62.08572888
8.74,874,0.955,0.294,-0.142,0.11459160000000004,-1.6042823999999998,0.057295800000000015,-65.04792174,69.51126456,-62.04562182000001
8.75,875,0.953,0.295,-0.14300000000000002,0.1718874,-1.6042823999999998,0.057295800000000015,-64.95051888,69.5284533,-61.95394854
8.76,876,0.9520000000000001,0.295,-0.14300000000000002,0.057295800000000015,-1.5469866,0.1718874,-64.91041182000001,69.52272372,-61.91384148
8.77,877,0.9520000000000001,0.294,-0.14400000000000002,0.057295800000000015,-1.5469866,0.11459160000000004,-64.87030476,69.51699414,-61.87373441999999
8.78,878,0.9520000000000001,0.293,-0.14300000000000002,0.11459160000000004,-0.3437748,0.11459160000000004,-64.85884560000001,69.51699414,-61.86227526
8.79,879,0.9520000000000001,0.292,-0.14400000000000002,-0.057295800000000015,0.0,0.057295800000000015,-64.85884560000001,69.51699414,-61.86227526
8.8,880,0.953,0.293,-0.14300000000000002,0.0,0.1718874,0.057295800000000015,-64.69268778,69.614397,-61.7075766
8.81,881,0.951,0.292,-0.14400000000000002,0.11459160000000004,0.2291832000000001,0.057295800000000015,-64.69841736,69.614397,-61.71330618
8.82,882,0.951,0.292,-0.145,0.1718874,0.11459160000000004,0.11459160000000004,-64.69841736,69.614397,-61.71330618
8.83,883,0.951,0.293,-0.14400000000000002,0.286479,0.11459160000000004,0.057295800000000015,-64.69268778,69.614397,-61.71903576
8.84,884,0.9490000000000001,0.293,-0.145,0.286479,0.2291832000000001,0.057295800000000015,-64.69841736,69.62012658,-61.72476534
8.85,885,0.9490000000000001,0.292,-0.146,0.40107059999999994,0.057295800000000015,0.057295800000000015,-64.58382576,69.66023364,-61.62736248
8.86,886,0.951,0.292,-0.14300000000000002,0.3437748,0.0,-0.11459160000000004,-64.58382576,69.66023364,-61.62736248
8.87,887,0.9490000000000001,0.293,-0.14400000000000002,0.286479,0.0,-0.11459160000000004,-64.58382576,69.66023364,-61.62736248
8.88,888,0.95,0.292,-0.145,0.286479,0.11459160000000004,-0.057295800000000015,-64.58382576,69.66023364,-61.63309206
8.89,889,0.9490000000000001,0.292,-0.145,0.1718874,0.11459160000000004,-0.057295800000000015,-64.58382576,69.66023364,-61.63882163999999
8.9,890,0.951,0.292,-0.145,0.1718874,0.11459160000000004,0.0,-64.42912709999999,69.70607028,-61.50131172
8.91,891,0.95,0.292,-0.14400000000000002,0.11459160000000004,0.1718874,0.0,-64.43485668000001,69.71179986,-61.50704129999999
8.92,892,0.951,0.293,-0.145,0.0,0.1718874,-0.11459160000000004,-64.44058626,69.70607028,-61.51277088000001
8.93,893,0.951,0.294,-0.145,0.057295800000000015,0.11459160000000004,-0.11459160000000004,-64.44631584,69.70607028,-61.51850046
8.94,894,0.9490000000000001,0.292,-0.146,0.057295800000000015,0.1718874,-0.1718874,-64.45204542,69.70607028,-61.52423004
8.95,895,0.951,0.293,-0.14400000000000002,0.1718874,0.286479,-0.11459160000000004,-64.3431834,69.74044776000001,-61.42682718
8.96,896,0.951,0.295,-0.145,0.11459160000000004,0.2291832000000001,-0.1718874,-64.35464255999999,69.74044776000001,-61.43828634000001
8.97,897,0.95,0.294,-0.146,0.057295800000000015,0.1718874,-0.11459160000000004,-64.36037214000001,69.73471817999999,-61.44401592000001
8.98,898,0.95,0.295,-0.145,0.0,0.2291832000000001,-0.057295800000000015,-64.36610171999999,69.74044776000001,-61.44974549999999
8.99,899,0.953,0.295,-0.142,0.11459160000000004,0.2291832000000001,-0.057295800000000015,-64.3718313,69.74044776000001,-61.46120466
9.0,900,0.9520000000000001,0.294,-0.14400000000000002,0.11459160000000004,0.286479,-0.057295800000000015,-64.2572397,69.7576365,-61.35234264
9.01,901,0.9520000000000001,0.295,-0.145,0.1718874,0.40107059999999994,0.0,-64.26296928,69.7576365,-61.36380180000001
9.02,902,0.948,0.295,-0.14400000000000002,0.1718874,0.4583664000000001,0.0,-64.27442844,69.7576365,-61.37526096000001
9.03,903,0.9490000000000001,0.294,-0.145,0.057295800000000015,0.5156622000000001,0.0,-64.28588760000001,69.76336608,-61.3924497
9.04,904,0.9490000000000001,0.295,-0.14400000000000002,0.1718874,0.6302538000000001,0.0,-64.30307634,69.76336608,-61.40963844
9.05,905,0.9470000000000001,0.294,-0.146,0.1718874,0.6302538000000001,0.0,-64.26296928,69.77482524000001,-61.37526096000001
9.06,906,0.9470000000000001,0.295,-0.14400000000000002,-0.11459160000000004,0.7448454000000001,-0.057295800000000015,-64.28588760000001,69.77482524000001,-61.39817928
9.07,907,0.945,0.295,-0.14400000000000002,-0.11459160000000004,0.7448454000000001,0.0,-64.30307634,69.78055481999999,-61.41536802
9.08,908,0.9490000000000001,0.294,-0.14400000000000002,-0.11459160000000004,0.7448454000000001,0.0,-64.32599466,69.78055481999999,-61.43828634000001
9.09,909,0.95,0.295,-0.14400000000000002,-0.2291832000000001,0.6875496,0.0,-64.3431834,69.7862844,-61.45547508000001
9.1,910,0.953,0.295,-0.14300000000000002,-0.11459160000000004,0.8021411999999999,0.0,-64.33745382,69.80347314,-61.44974549999999
9.11,911,0.9540000000000001,0.295,-0.14400000000000002,-0.057295800000000015,0.8021411999999999,0.11459160000000004,-64.35464255999999,69.80920272,-61.46693424
9.12,912,0.955,0.297,-0.146,0.0,0.572958,0.1718874,-64.3718313,69.80920272,-61.48412298
9.13,913,0.9540000000000001,0.29600000000000004,-0.146,0.057295800000000015,0.2291832000000001,0.2291832000000001,-64.3718313,69.8149323,-61.48412298
9.14,914,0.9520000000000001,0.297,-0.14800000000000002,0.2291832000000001,0.057295800000000015,0.2291832000000001,-64.36610171999999,69.82066188,-61.48412298
9.15,915,0.9520000000000001,0.295,-0.147,0.3437748,0.0,0.2291832000000001,-64.29734676,69.82639146,-61.42109760000001
9.16,916,0.9540000000000001,0.294,-0.145,0.40107059999999994,0.057295800000000015,0.286479,-64.29161718,69.83212104,-61.42109760000001
9.17,917,0.953,0.294,-0.145,0.40107059999999994,0.1718874,0.3437748,-64.28588760000001,69.83212104,-61.42109760000001
9.18,918,0.955,0.295,-0.146,0.4583664000000001,0.1718874,0.2291832000000001,-64.28588760000001,69.83785062,-61.42109760000001
9.19,919,0.956,0.295,-0.149,0.6302538000000001,-0.057295800000000015,0.2291832000000001,-64.27442844,69.83785062,-61.41536802
9.2,920,0.955,0.294,-0.146,0.6302538000000001,-0.2291832000000001,0.1718874,-64.22286222,69.84930978,-61.37526096000001
9.21,921,0.955,0.295,-0.14400000000000002,0.572958,0.0,0.1718874,-64.21713264,69.84930978,-61.37526096000001
9.22,922,0.953,0.294,-0.142,0.40107059999999994,0.4583664000000001,0.11459160000000004,-64.22286222,69.85503936,-61.38672012000001
9.23,923,0.9520000000000001,0.295,-0.142,0.1718874,0.6875496,0.11459160000000004,-64.24005095999999,69.85503936,-61.40390886
9.24,924,0.953,0.29600000000000004,-0.141,-0.11459160000000004,0.572958,0.2291832000000001,-64.25151012,69.86076894,-61.41536802
9.25,925,0.9520000000000001,0.29600000000000004,-0.14,-0.3437748,0.11459160000000004,0.286479,-64.29161718,69.8722281,-61.44974549999999
9.26,926,0.9520000000000001,0.29600000000000004,-0.139,-0.4583664000000001,0.0,0.3437748,-64.29161718,69.87795768,-61.44974549999999
9.27,927,0.9490000000000001,0.295,-0.139,-0.4583664000000001,0.0,0.3437748,-64.29734676,69.87795768,-61.44401592000001
9.28,928,0.946,0.295,-0.141,-0.5156622000000001,0.0,0.286479,-64.29734676,69.88368726,-61.43828634000001
9.29,929,0.945,0.295,-0.145,-0.3437748,0.11459160000000004,0.2291832000000001,-64.30307634,69.88368726,-61.43828634000001
9.3,930,0.945,0.29600000000000004,-0.147,0.11459160000000004,-0.11459160000000004,0.1718874,-64.21713264,69.86649852000001,-61.35807222
9.31,931,0.946,0.29600000000000004,-0.147,0.4583664000000001,-0.5156622000000001,0.11459160000000004,-64.19994390000001,69.86649852000001,-61.34088348
9.32,932,0.948,0.297,-0.14800000000000002,0.7448454000000001,-0.9167328000000001,0.057295800000000015,-64.16556641999999,69.86076894,-61.31796515999999
9.33,933,0.9490000000000001,0.299,-0.14800000000000002,0.8021411999999999,-1.2032118,0.0,-64.13118893999999,69.86076894,-61.28931726
9.34,934,0.951,0.3,-0.14800000000000002,1.0886202,-1.4896908000000002,0.057295800000000015,-64.07962272,69.84930978,-61.24921019999999
9.35,935,0.9520000000000001,0.3,-0.146,1.6042823999999998,-1.7188740000000002,0.11459160000000004,-64.01659734,69.84358019999999,-61.19764398
9.36,936,0.953,0.299,-0.146,1.8334656000000005,-1.8334656000000005,0.11459160000000004,-63.95357196,69.83785062,-61.15180734000001
9.37,937,0.9540000000000001,0.29600000000000004,-0.145,1.9480572,-1.6042823999999998,0.2291832000000001,-63.89054658,69.83212104,-61.10597070000001
9.38,938,0.9540000000000001,0.29600000000000004,-0.145,1.8334656000000005,-1.432395,0.3437748,-63.83325078,69.82639146,-61.06586364
9.39,939,0.953,0.293,-0.146,1.4896908000000002,-1.145916,0.40107059999999994,-63.78741414,69.82639146,-61.03148616
9.4,940,0.953,0.293,-0.147,1.2032118,-0.9167328000000001,0.5156622000000001,-63.73011834,69.82639146,-60.9913791
9.41,941,0.951,0.294,-0.147,1.2032118,-0.8021411999999999,0.5156622000000001,-63.69574086,69.83212104,-60.96273120000001
9.42,942,0.95,0.293,-0.147,1.0886202,-0.6875496,0.572958,-63.66136338,69.83212104,-60.9340833
9.43,943,0.95,0.293,-0.14800000000000002,1.0886202,-0.6875496,0.5156622000000001,-63.626985899999994,69.83212104,-60.91116498
9.44,944,0.9490000000000001,0.292,-0.146,0.9167328000000001,-0.5156622000000001,0.4583664000000001,-63.598338,69.83785062,-60.89397623999999
9.45,945,0.948,0.293,-0.146,0.7448454000000001,-0.4583664000000001,0.40107059999999994,-63.56396052,69.83785062,-60.86532834
9.46,946,0.9470000000000001,0.292,-0.14800000000000002,0.6302538000000001,-0.5156622000000001,0.40107059999999994,-63.54104220000001,69.84358019999999,-60.84813959999999
9.47,947,0.948,0.293,-0.15,0.6875496,-0.4583664000000001,0.40107059999999994,-63.51812388,69.84358019999999,-60.83095086000001
9.48,948,0.9490000000000001,0.294,-0.153,0.7448454000000001,-0.40107059999999994,0.286479,-63.49520556,69.84358019999999,-60.81376212
9.49,949,0.948,0.295,-0.153,0.9740286,-0.40107059999999994,0.286479,-63.46655766,69.84358019999999,-60.80230296
9.5,950,0.948,0.293,-0.153,1.0313244000000001,-0.5156622000000001,0.2291832000000001,-63.40926186,69.83785062,-60.75073674
