TimeStamp(s),FrameCounter,AccX,AccY,AccZ,GyrX,GyrY,GyrZ,EulerX,EulerY,EulerZ
0.01,1,-0.009000000000000001,-0.991,0.194,1.0313244,-1.3178034,1.3750992,99.91814562,0.46409598,-40.43937564
0.02,2,-0.008,-0.991,0.196,1.2605076000000002,-1.6615782,1.145916,99.92960478,0.4526368200000001,-40.45656438
0.03,3,-0.004,-0.988,0.197,1.432395,-2.2345362,1.0313244,99.94679352,0.44690724,-40.47948270000001
0.04,4,0.0,-0.988,0.198,1.3750992,-2.6356068,1.145916,99.95825268000002,0.44117766,-40.5081306
0.05,5,0.002,-0.986,0.198,1.145916,-2.6929026,1.432395,99.97544142,0.43544808,-40.5367785
0.060000000000000005,6,0.003,-0.986,0.199,1.0313244,-2.6929026,1.7188740000000002,99.98690058,0.42398892,-40.5654264
0.06999999999999999,7,0.0,-0.987,0.198,1.2032118,-2.578311,2.0053530000000004,99.99835974,0.40680018,-40.5940743
0.08,8,-0.004,-0.991,0.196,1.2605076000000002,-2.578311,2.1199446,100.01554848,0.39534102,-40.6227222
0.09,9,-0.006999999999999999,-0.993,0.194,1.3178034,-2.6929026,2.1199446,100.02700764,0.37815228,-40.65709968
0.09999999999999999,10,-0.008,-0.994,0.192,1.2032118,-2.9793816000000004,1.9480572,100.03273722,0.35523396,-40.68574758
0.11,11,-0.006,-0.995,0.189,1.2605076000000002,-3.6669312000000014,1.7761698,100.04992596,0.3437748,-40.72585464
0.12,12,-0.003,-0.997,0.18600000000000005,1.3750992,-4.010706000000001,1.7188740000000002,100.06138511999998,0.33804522,-40.76596170000001
0.13,13,-0.002,-0.999,0.18,1.0886202,-4.2398892,1.6042823999999998,100.07284428,0.32658606,-40.81179834
0.14,14,-0.002,-1.001,0.17800000000000002,0.572958,-4.2398892,1.7188740000000002,100.07857386,0.32085648,-40.8519054
0.15000000000000002,15,-0.006,-1.001,0.16899999999999998,-0.1718874,-4.010706000000001,1.8907613999999997,100.04992596,0.30366774,-40.88628288
0.16,16,-0.01,-0.998,0.16399999999999998,-0.8594370000000001,-3.6669312000000014,1.8907613999999997,100.04419638,0.29220857999999994,-40.92638994
0.17,17,-0.013,-0.996,0.163,-1.432395,-3.2658606,1.7188740000000002,100.02700764,0.28074942,-40.96076742
0.18000000000000002,18,-0.012,-0.994,0.165,-1.5469866,-3.5523396000000003,1.3750992,100.0098189,0.27501984,-41.00087448
0.19,19,-0.008,-0.999,0.16899999999999998,-2.0626488000000003,-3.4950437999999995,1.0886202,99.99263016,0.26929026,-41.03525196
0.2,20,-0.004,-1.007,0.16699999999999998,-2.86479,-2.9793816000000004,0.8021411999999999,99.93533436,0.26929026,-41.05817028
0.21000000000000002,21,0.0,-1.016,0.163,-3.8961144,-2.9793816000000004,0.6875496,99.89522729999999,0.26929026,-41.09254776
0.22,22,0.0,-1.022,0.156,-4.9847345999999995,-3.8961144,0.7448454000000001,99.84366108,0.26356068,-41.13265482
0.23,23,0.0,-1.029,0.147,-6.016058999999999,-5.1566220000000005,0.7448454000000001,99.78636528,0.26929026,-41.18422104
0.24000000000000002,24,-0.001,-1.033,0.139,-7.333862400000001,-5.844171599999999,0.8594370000000001,99.71188074,0.26929026,-41.24151684
0.25,25,-0.002,-1.041,0.135,-9.224623800000002,-6.130650599999999,0.6875496,99.59728914,0.27501984,-41.29881264
0.26,26,-0.001,-1.05,0.128,-11.1153852,-6.589017,0.4583664000000001,99.48842712,0.28074942,-41.3675676
0.27,27,-0.005,-1.0590000000000002,0.123,-13.521808800000002,-7.161975,0.2291832000000001,99.3509172,0.29220857999999994,-41.44205214
0.28,28,-0.009000000000000001,-1.065,0.118,-15.985528200000001,-7.906820400000001,0.2291832000000001,99.18475938,0.30366774,-41.51653668
0.29000000000000004,29,-0.011,-1.071,0.11,-18.907614000000002,-8.880849000000003,0.4010706,98.99568324,0.31512690000000004,-41.60820996
0.3,30,-0.011,-1.075,0.102,-22.0015872,-9.8548776,0.4010706,98.76077046,0.32658606,-41.70561282
0.31,31,-0.01,-1.079,0.093,-25.78311,-10.599723,0.0,98.49720978,0.3437748,-41.81447484
0.32,32,-0.011,-1.081,0.086,-29.9657034,-11.3445684,-0.6875496,98.19354204,0.36669312,-41.92333686
0.33,33,-0.01,-1.081,0.076,-34.4347758,-11.8602306,-1.7188740000000002,97.84403766,0.4010706000000001,-42.04365804
0.34,34,-0.011,-1.081,0.065,-39.591397799999996,-12.261301199999998,-3.380452200000001,97.44296706000002,0.4526368200000001,-42.16397922
0.35000000000000003,35,-0.01,-1.078,0.053,-46.5814854,-12.1467096,-5.3285094000000015,96.96741192,0.5156622000000001,-42.27857082
0.36000000000000004,36,-0.02,-1.073,0.043,-53.0559108,-11.172681,-7.161975,96.4288314,0.6016058999999999,-42.38743284
0.37,37,-0.033,-1.063,0.029,-60.733548000000006,-9.969469199999999,-8.9954406,95.81003676,0.69900876,-42.48483570000001
0.38,38,-0.044,-1.041,0.006,-69.4425096,-8.479778399999999,-10.6570188,95.10529842,0.8078707799999998,-42.56504982
0.39,39,-0.049,-1.003,-0.008,-78.49524600000002,-5.844171599999999,-12.261301199999998,94.3088868,0.93392154,-42.62234562
0.4,40,-0.053,-0.944,-0.024,-88.2928278,-2.1199446,-13.5791046,93.40361316,1.0599723,-42.63953436
0.41000000000000003,41,-0.048,-0.867,-0.042,-99.2363256,1.8334656000000005,-13.8082878,92.39520708,1.18602306,-42.62807520000001
0.42000000000000004,42,-0.051,-0.755,-0.056,-111.0392604,3.6669312000000014,-12.891555,91.2722094,1.30634424,-42.5994273
0.43,43,-0.051,-0.6659999999999999,-0.064,-124.6756608,3.0939732,-10.1413566,90.00597222,1.39228794,-42.58223856
0.44,44,-0.055,-0.603,-0.07,-135.6191586,1.0313244,-7.333862400000001,88.63087302,1.45531332,-42.58796814
0.45,45,-0.05,-0.5539999999999999,-0.081,-147.250206,-1.0886202,-5.1566220000000005,87.12972306,1.4896908000000002,-42.61661604
0.46,46,-0.031,-0.526,-0.116,-159.0531408,-1.432395,-3.9534102,85.5139815,1.5183387000000002,-42.65099352
0.47000000000000003,47,-0.006999999999999999,-0.517,-0.2,-168.9080184,0.0,-4.0680017999999984,83.80083708,1.5412570200000002,-42.67391184
0.48000000000000004,48,0.016,-0.514,-0.316,-177.04402199999996,1.6042823999999998,-5.9014674000000005,82.00174896,1.5870936600000003,-42.67964142
0.49,49,0.015,-0.525,-0.423,-181.054728,2.578311,-9.6256944,80.16255378,1.6673077799999998,-42.685371
0.5,50,-0.011,-0.536,-0.325,-178.8201918,2.9220857999999996,-14.381245800000002,78.34627692000002,1.7933585399999998,-42.70255974000001
0.51,51,-0.035,-0.525,-0.063,-169.65286379999995,6.990087599999999,-18.5638392,76.62167334,1.96524594,-42.69110058
0.52,52,-0.038,-0.511,0.065,-169.13720159999997,10.026765,-21.485925,74.90279934,2.1772404,-42.66245268
0.53,53,-0.04,-0.467,0.0,-170.2831176,11.229976800000001,-21.6005166,73.17819576000002,2.39496444,-42.62807520000001
0.54,54,-0.045,-0.393,-0.156,-166.38700319999995,10.9434978,-19.480572,71.48796966,2.58977016,-42.59369772
0.55,55,-0.012,-0.376,-0.267,-155.32891379999995,7.0473834,-15.813640800000002,69.900876,2.73873924,-42.58796814
0.56,56,0.038,-0.4370000000000001,-0.282,-142.38006299999995,3.6096354,-11.2872726,68.45702184000001,2.84187168,-42.60515688
0.5700000000000001,57,0.07200000000000001,-0.5329999999999999,-0.278,-132.6970728,2.5210152000000003,-7.448453999999999,67.11057054,2.90489706,-42.62234562
0.5800000000000001,58,0.117,-0.625,-0.279,-129.20202899999998,1.3178034,-4.5263682,65.79849672,2.93354496,-42.63380478
0.59,59,0.14,-0.685,-0.282,-125.9934642,-0.2291832000000001,-3.0366774,64.5150708,2.94500412,-42.66245268
0.6,60,0.131,-0.728,-0.295,-122.9567868,2.6929026,-3.4377480000000005,63.27175193999999,2.9793816000000004,-42.66245268
0.61,61,0.11,-0.774,-0.343,-117.97205220000001,6.417129599999999,-4.5263682,62.07426972,3.03094782,-42.62807520000001
0.62,62,0.105,-0.818,-0.43,-114.2478252,5.3858052,-5.0993262,60.91116498,3.0825140400000004,-42.61661604
0.63,63,0.101,-0.8340000000000001,-0.521,-105.5388636,0.0,-5.042030400000002,59.83973352,3.11689152,-42.64526393999999
0.64,64,0.09,-0.8909999999999999,-0.545,-92.0743506,-6.016058999999999,-3.0366774,58.90581198,3.0997027800000003,-42.71974848000001
0.65,65,0.084,-0.951,-0.537,-84.05293859999998,-8.9954406,-0.9167328,58.04637498,3.05386614,-42.80569218
0.66,66,0.104,-0.975,-0.5710000000000001,-79.24009140000003,-8.307891,-0.6875496,57.2385042,3.0080295,-42.8859063
0.67,67,0.135,-0.958,-0.6,-70.4165382,-5.3858052,-2.0626488000000003,56.5223067,2.99084076,-42.9432021
0.68,68,0.14800000000000002,-0.929,-0.608,-60.8481396,-4.0680017999999984,-4.1252976000000015,55.90351206,2.99084076,-43.00622748
0.6900000000000001,69,0.154,-0.913,-0.624,-53.858052,-4.8701430000000006,-5.6722842,55.35347237999999,3.0080295,-43.08071202
0.7000000000000001,70,0.094,-0.922,-0.611,-47.67010560000001,-8.3651868,-5.6722842,54.86645808000001,3.00229992,-43.18384446
0.7100000000000001,71,0.038,-0.919,-0.611,-41.9405256,-6.760904399999999,-5.5576926,54.43673958,3.00229992,-43.27551774
0.72,72,-0.005,-0.893,-0.588,-37.41415739999999,-2.291832,-5.844171599999999,54.05285772,3.0366774000000003,-43.33281354
0.73,73,-0.023,-0.86,-0.5720000000000001,-31.5699858,-0.8021411999999999,-6.760904399999999,53.72627166000001,3.07678446,-43.37865018
0.74,74,-0.038,-0.8370000000000001,-0.6629999999999999,-24.4080108,-1.5469866,-7.9641161999999985,53.47989972000001,3.13408026,-43.44167556
0.75,75,-0.005,-0.8340000000000001,-0.667,-13.2926256,-3.2085648,-7.9641161999999985,53.32520106000001,3.1627281600000003,-43.51043052
0.76,76,0.04,-0.8320000000000001,-0.612,-6.589017,-2.5210152000000003,-7.7349330000000025,53.25644610000001,3.2085648000000004,-43.57918548
0.77,77,0.087,-0.8009999999999999,-0.5529999999999999,-1.6042823999999998,1.3750992,-6.9327918,53.23352778,3.27159018,-43.60783338
0.78,78,0.13699999999999998,-0.76,-0.557,3.724227,0.5156622000000001,-4.9274388,53.27363484,3.31742682,-43.63075170000001
0.79,79,0.17,-0.7240000000000001,-0.541,9.3392154,-0.6875496,-3.2658606,53.36530812,3.34034514,-43.65367002
0.8,80,0.154,-0.6679999999999999,-0.588,12.605076,0.7448454000000001,-2.9793816000000004,53.46271098,3.3919113599999995,-43.66512918
0.81,81,0.114,-0.634,-0.541,22.459953600000002,1.9480572,-2.2345362,53.69189418,3.42628884,-43.66512918
0.8200000000000001,82,0.063,-0.63,-0.523,32.372127,2.6929026,-1.7188740000000002,54.02420982,3.46066632,-43.64794044
0.8300000000000001,83,0.039,-0.691,-0.589,44.8053156,0.7448454000000001,-1.9480572,54.47684664,3.48358464,-43.65367002
0.8400000000000001,84,0.058,-0.774,-0.6,53.0559108,0.11459160000000004,-3.3231564,55.01542716,3.51796212,-43.66512918
0.85,85,0.097,-0.865,-0.59,59.53033620000001,0.6302538000000001,-4.297185,55.61703306,3.56952834,-43.68231792
0.86,86,0.134,-0.934,-0.581,62.68160520000001,1.7761698,-4.2398892,56.25301644,3.62109456,-43.688047499999996
0.87,87,0.157,-0.973,-0.5870000000000001,64.4004792,1.7188740000000002,-2.6929026,56.90618856,3.66120162,-43.688047499999996
0.88,88,0.17800000000000002,-1.027,-0.629,67.66633979999999,0.8021411999999999,-0.057295800000000015,57.59373816,3.67839036,-43.67658834
0.89,89,0.189,-1.129,-0.664,72.479187,0.4583664000000001,2.1199446,58.33285398,3.67266078,-43.65939960000001
0.9,90,0.18600000000000005,-1.294,-0.662,76.60448459999998,-0.286479,3.380452200000001,59.11207686,3.64974246,-43.63648128
0.91,91,0.163,-1.443,-0.6679999999999999,76.20341400000002,-2.0626488000000003,3.380452200000001,59.88557016,3.62109456,-43.63648128
0.92,92,0.133,-1.551,-0.701,72.70837019999998,-1.4896908000000002,3.0939732,60.62468598,3.59817624,-43.63075170000001
0.93,93,0.108,-1.634,-0.708,69.900876,0.0,2.6356068,61.3351539,3.5809875,-43.60783338
0.9400000000000001,94,0.091,-1.693,-0.703,66.80690279999999,0.7448454000000001,2.3491278,62.01697392,3.57525792,-43.59064464
0.9500000000000001,95,0.081,-1.703,-0.6609999999999999,62.5097178,0.9167328,2.2345362,62.6529573,3.56379876,-43.56772632000001
0.9600000000000001,96,0.066,-1.649,-0.605,58.5563076,0.9167328,2.1772404,63.24883361999999,3.5580691799999995,-43.544808
0.97,97,0.063,-1.536,-0.5379999999999999,53.8007562,0.572958,2.2345362,63.79314372,3.54661002,-43.52188968
0.98,98,0.068,-1.361,-0.461,50.3630082,0.3437748,2.6929026,64.30880592,3.52942128,-43.50470094
0.99,99,0.071,-1.234,-0.384,49.5035712,0.5156622000000001,3.5523396000000003,64.81300896,3.50650296,-43.48178262
1.0,100,0.07200000000000001,-1.147,-0.326,49.1597964,0.8021411999999999,4.2398892,65.32867116,3.47785506,-43.45313472
1.01,101,0.068,-1.077,-0.275,49.560867,0.572958,4.9274388,65.8328742,3.4377480000000005,-43.42448682
1.02,102,0.061,-1.01,-0.229,50.6494872,0.1718874,5.2139178,66.3485364,3.39764094,-43.4015685
1.03,103,0.048,-0.937,-0.195,52.139178,0.8594370000000001,4.8701430000000006,66.88138734,3.36326346,-43.36719102
1.04,104,0.035,-0.873,-0.173,55.00396800000001,2.291832,4.1825934,67.43715660000001,3.34034514,-43.32708396
1.05,105,0.028,-0.8190000000000001,-0.157,58.72819499999999,3.0939732,3.8388186,68.05022166,3.3231564,-43.28124732
1.06,106,0.027000000000000003,-0.772,-0.126,62.16594300000001,2.6929026,4.010706000000001,68.68620503999999,3.30023808,-43.23541068
1.07,107,0.03,-0.736,-0.119,64.3431834,2.8074942000000003,4.4117766,69.33937716,3.27731976,-43.18957404
1.08,108,0.036000000000000004,-0.715,-0.117,66.23394479999999,3.2085648,5.042030400000002,70.0154676,3.2486718599999995,-43.13227824
1.09,109,0.043,-0.711,-0.113,68.52577679999999,3.3231564,5.6149884000000005,70.71447636,3.2085648000000004,-43.08071202
1.1,110,0.053,-0.723,-0.12,70.5311298,2.578311,5.9014674000000005,71.44213302,3.1741873200000006,-43.029145799999995
1.11,111,0.061,-0.7509999999999999,-0.125,72.07811640000001,2.4064236,5.6149884000000005,72.17551926,3.13408026,-42.98330916
1.12,112,0.066,-0.7879999999999999,-0.121,71.33327100000002,2.7501984,5.2139178,72.89744634,3.0997027800000003,-42.93747252
1.1300000000000001,113,0.07200000000000001,-0.816,-0.135,69.8435802,2.0053530000000004,4.6409598,73.60791426,3.07105488,-42.89736546
1.1400000000000001,114,0.07200000000000001,-0.847,-0.139,68.9268474,0.7448454000000001,4.583664,74.31265259999998,3.0366774000000003,-42.87444714
1.1500000000000001,115,0.07,-0.888,-0.14,68.2392978,1.0313244,4.2398892,75.01166136,3.0080295,-42.84579924
1.1600000000000001,116,0.069,-0.939,-0.153,66.749607,1.8907613999999997,4.4117766,75.69348138000002,2.9736520200000003,-42.81142176
1.17,117,0.067,-0.993,-0.181,64.4004792,1.3750992,5.1566220000000005,76.34665349999999,2.93354496,-42.77704428
1.18,118,0.058,-1.048,-0.201,62.2805346,-0.3437748,5.9014674000000005,76.98263688,2.88197874,-42.76558512
1.19,119,0.048,-1.097,-0.21,59.53033620000001,-1.9480572,6.3598338,77.58424278,2.82468294,-42.76558512
1.2,120,0.045,-1.125,-0.213,55.86340500000001,-2.4064236,6.589017,78.1514712,2.76165756,-42.76558512
1.21,121,0.037000000000000005,-1.131,-0.201,52.0818822,-3.6669312000000014,6.6463128000000005,78.67859256,2.6929026,-42.78277386
1.22,122,0.031,-1.13,-0.196,48.3003594,-4.3544808,6.1879464,79.17133643999998,2.62987722,-42.81142176
1.23,123,0.029,-1.131,-0.197,45.263682,-4.6982556,5.6722842,79.62970284,2.57258142,-42.84579924
1.24,124,0.031,-1.138,-0.187,42.7426668,-4.8128472,5.042030400000002,80.06515092,2.5210152000000003,-42.88017672
1.25,125,0.035,-1.148,-0.184,40.164355799999996,-4.6409598,4.583664,80.46622152,2.46944898,-42.90882462
1.26,126,0.037000000000000005,-1.149,-0.174,37.5860448,-3.9534102,4.010706000000001,80.85010338000002,2.42934192,-42.93747252
1.27,127,0.038,-1.144,-0.152,35.2942128,-3.4950437999999995,3.5523396000000003,81.20533734,2.39496444,-42.96612042
1.28,128,0.037000000000000005,-1.137,-0.135,33.116972399999995,-2.9793816000000004,3.0366774,81.54338256,2.36631654,-42.98903874
1.29,129,0.039,-1.129,-0.126,31.054323600000004,-2.2345362,2.86479,81.85850946000002,2.3376686399999995,-43.0004979
1.3,130,0.04,-1.113,-0.104,28.81978740000001,-2.3491278,2.8074942000000003,82.15644762000002,2.30902074,-43.01768664
1.31,131,0.039,-1.09,-0.08800000000000001,26.642547,-2.7501984,2.7501984,82.42573788,2.28037284,-43.04060496
1.32,132,0.036000000000000004,-1.067,-0.076,25.0382646,-2.291832,2.7501984,82.67783940000002,2.25172494,-43.05779370000001
1.33,133,0.035,-1.0490000000000002,-0.066,23.491278,-1.7761698,2.6356068,82.91848175999998,2.22880662,-43.06925286
1.34,134,0.037000000000000005,-1.03,-0.065,21.9442914,-1.8907613999999997,2.4064236,83.14193537999998,2.2058883,-43.08071202
1.35,135,0.036000000000000004,-1.011,-0.05,21.485925,-2.5210152000000003,1.9480572,83.37111858,2.18296998,-43.10363034
1.36,136,0.034,-0.995,-0.035,21.0848544,-2.6356068,1.3178034,83.58884262000002,2.17151082,-43.12654866000001
1.37,137,0.034,-0.984,-0.037000000000000005,20.9702628,-1.5469866,0.6875496,83.80083708,2.1657812400000003,-43.13800782
1.3800000000000001,138,0.034,-0.978,-0.029,21.3140376,-0.8594370000000001,0.572958,84.01856111999999,2.16005166,-43.143737400000006
1.3900000000000001,139,0.036000000000000004,-0.971,-0.008,21.3713334,-0.572958,0.9167328,84.23055558,2.15432208,-43.14946698
1.4000000000000001,140,0.036000000000000004,-0.966,-0.001,21.2567418,-0.286479,1.2605076000000002,84.47119794,2.14286292,-43.14946698
1.4100000000000001,141,0.038,-0.963,0.003,21.4286292,0.0,1.4896908000000002,84.68892198,2.13140376,-43.14946698
1.42,142,0.037000000000000005,-0.957,0.005,21.5432208,0.572958,1.6042823999999998,84.90664602000003,2.11421502,-43.13800782
1.43,143,0.039,-0.96,0.004,21.6005166,2.6356068,1.4896908000000002,85.12437006,2.10275586,-43.10935992
1.44,144,0.039,-0.966,0.011,21.4286292,4.8701430000000006,1.3178034,85.34782368,2.09702628,-43.05779370000001
1.45,145,0.04,-0.979,0.026,21.829699800000004,6.2452422,0.7448454000000001,85.58846604,2.09702628,-42.99476832
1.46,146,0.04,-0.994,0.034,22.4026578,7.0473834,-0.057295800000000015,85.81764924000002,2.10275586,-42.92601336
1.47,147,0.04,-1.008,0.036000000000000004,22.0015872,7.7922288,-1.0313244,86.04683244,2.1199446,-42.84579924
1.48,148,0.046,-1.019,0.023,21.5432208,8.078707799999998,-1.6042823999999998,86.26455648,2.13713334,-42.76558512
1.49,149,0.056,-1.03,0.004,22.173474600000002,7.448453999999999,-1.6042823999999998,86.49373968,2.16005166,-42.69110058
1.5,150,0.066,-1.04,0.001,22.86102420000001,6.130650599999999,-1.2605076000000002,86.73438204,2.18296998,-42.62807520000001
1.51,151,0.073,-1.044,0.011,22.8037284,5.0993262,-0.7448454000000001,86.96929482,2.19442914,-42.57650898
1.52,152,0.078,-1.041,0.014,22.058883,4.2398892,-0.1718874,87.19274844,2.20015872,-42.53067234
1.53,153,0.08,-1.037,0.018000000000000002,21.199446,3.5523396000000003,0.1718874,87.41047248,2.20015872,-42.49056528000001
1.54,154,0.077,-1.031,0.023,20.454600600000006,3.0366774,0.6302538000000001,87.62246694,2.19442914,-42.46191738
1.55,155,0.075,-1.034,0.026,19.595163600000006,2.1772404,1.0886202,87.83446140000002,2.20015872,-42.43899906
1.56,156,0.077,-1.041,0.019,18.7357266,1.2605076000000002,1.2605076000000002,88.02353753999998,2.18869956,-42.42181032
1.57,157,0.08199999999999999,-1.054,0.012,18.162768600000003,0.3437748,1.432395,88.2068841,2.1772404,-42.41608074
1.58,158,0.086,-1.062,0.021,17.0168526,-0.7448454000000001,1.4896908000000002,88.3787715,2.1657812400000003,-42.42181032
1.59,159,0.087,-1.063,0.025,16.1001198,-3.2085648,1.4896908000000002,88.54492932000002,2.1485925000000003,-42.45045822
1.6,160,0.084,-1.058,0.022,15.0114996,-5.1566220000000005,1.2605076000000002,88.69962798,2.15432208,-42.50202444
1.61,161,0.081,-1.0490000000000002,0.011,13.6936962,-5.5003968,0.9740286,88.8371379,2.14286292,-42.55932024
1.62,162,0.076,-1.044,0.011,12.4904844,-5.2712136,0.6875496,88.96318865999999,2.13713334,-42.61088646
1.6300000000000001,163,0.076,-1.041,0.024,11.0580894,-5.6149884000000005,0.4010706,89.07778026000004,2.13713334,-42.66245268
1.6400000000000001,164,0.075,-1.038,0.025,9.9121734,-6.5317212,0.4010706,89.17518312,2.13140376,-42.72547806
1.6500000000000001,165,0.07200000000000001,-1.036,0.018000000000000002,9.224623800000002,-7.1046792000000005,0.4583664000000001,89.27258598,2.1485925000000003,-42.7999626
1.6600000000000001,166,0.069,-1.031,0.018000000000000002,7.9641161999999985,-6.4744254,0.572958,89.34707052,2.14286292,-42.86298798
1.6700000000000002,167,0.064,-1.024,0.028,6.8182002000000015,-5.844171599999999,0.6875496,89.41582548,2.13713334,-42.92028378
1.68,168,0.06,-1.018,0.035,5.72958,-5.5003968,0.8021411999999999,89.47312128,2.13140376,-42.97185
1.69,169,0.058,-1.011,0.036000000000000004,4.6982556,-5.5003968,0.9167328,89.51895792,2.12567418,-43.029145799999995
1.7,170,0.059,-1.005,0.033,4.1825934,-6.130650599999999,0.9167328,89.57625372,2.13140376,-43.09217118
1.71,171,0.062,-1.006,0.022,4.1252976000000015,-6.589017,0.8594370000000001,89.61636078000002,2.12567418,-43.15519656
1.72,172,0.062,-1.009,0.024,3.724227,-6.589017,0.8021411999999999,89.65073826,2.1199446,-43.22395152
1.73,173,0.06,-1.014,0.029,3.4377480000000005,-6.875496000000001,0.572958,89.68511574,2.11421502,-43.2869769
1.74,174,0.058,-1.02,0.027000000000000003,2.9220857999999996,-6.703608600000001,0.286479,89.71376364,2.11421502,-43.35573186000001
1.75,175,0.057,-1.018,0.024,2.1772404,-6.3025379999999975,0.11459160000000004,89.74241154,2.13140376,-43.42448682
1.76,176,0.056,-1.015,0.029,2.291832,-6.5317212,0.0,89.76532986,2.13713334,-43.48751220000001
1.77,177,0.05,-1.014,0.039,2.4637194,-6.8182002000000015,-0.11459160000000004,89.78824818,2.13713334,-43.55626716
1.78,178,0.05,-1.01,0.042,1.7761698,-5.844171599999999,0.0,89.80543692,2.14286292,-43.61356296
1.79,179,0.055,-1.008,0.037000000000000005,1.145916,-4.010706000000001,0.4583664000000001,89.81689608,2.13713334,-43.65367002
1.8,180,0.058,-1.01,0.034,1.145916,-3.8961144,0.9740286,89.83981440000002,2.15432208,-43.69377708
1.81,181,0.058,-1.01,0.035,1.3750992,-4.5263682,1.6042823999999998,89.85127356000002,2.14286292,-43.73961372
1.82,182,0.054000000000000006,-1.012,0.038,1.5469866,-4.8701430000000006,1.8907613999999997,89.8684623,2.1199446,-43.79117994
1.83,183,0.054000000000000006,-1.012,0.036000000000000004,1.3178034,-4.583664,2.0626488000000003,89.87992145999998,2.10275586,-43.83701658
1.84,184,0.055,-1.012,0.033,1.3750992,-4.1825934,1.9480572,89.89138061999998,2.08556712,-43.87712364
1.85,185,0.056,-1.014,0.039,1.7761698,-3.9534102,1.7761698,89.93148768,2.0912967,-43.92296028
1.86,186,0.055,-1.014,0.041,2.0053530000000004,-4.1825934,1.6615782,89.95440599999998,2.07410796,-43.96306734
1.87,187,0.052000000000000005,-1.012,0.042,2.4064236,-4.6409598,1.4896908000000002,89.97732432000002,2.0626488000000003,-44.00890398
1.8800000000000001,188,0.047,-1.013,0.047,2.3491278,-4.8701430000000006,1.4896908000000002,90.00024264,2.05118964,-44.05474062
1.8900000000000001,189,0.047,-1.01,0.045,1.8907613999999997,-4.297185,1.5469866,90.01743138,2.0340008999999997,-44.10057726
1.9000000000000001,190,0.049,-1.009,0.046,1.6042823999999998,-3.6669312000000014,1.6615782,90.05753844,2.03973048,-44.14068432
1.9100000000000001,191,0.051,-1.008,0.041,1.6615782,-3.380452200000001,1.7188740000000002,90.06899759999996,2.02254174,-44.175061799999995
1.9200000000000002,192,0.054000000000000006,-1.008,0.037000000000000005,1.8334656000000005,-3.151269,1.7761698,90.09191592,2.005353,-44.20370970000001
1.93,193,0.054000000000000006,-1.012,0.037000000000000005,2.0626488000000003,-3.4377480000000005,1.8334656000000005,90.10910466,1.98816426,-44.23808718
1.94,194,0.05,-1.013,0.034,1.9480572,-3.6669312000000014,1.8907613999999997,90.13202298,1.97097552,-44.27819424
1.95,195,0.049,-1.011,0.031,1.6042823999999998,-3.2658606,1.9480572,90.14921172,1.97097552,-44.31257172
1.96,196,0.047,-1.01,0.031,1.3750992,-3.151269,2.0053530000000004,90.16640046,1.95378678,-44.34121962
1.97,197,0.047,-1.01,0.033,0.9167328,-2.6929026,1.8334656000000005,90.17213004,1.93659804,-44.36986752
1.98,198,0.05,-1.007,0.029,0.6302538000000001,-2.7501984,1.8334656000000005,90.17785962,1.9194093000000003,-44.39851542
1.99,199,0.052000000000000005,-1.006,0.026,0.8594370000000001,-3.151269,1.7188740000000002,90.18931878,1.90222056,-44.42716332
2.0,200,0.052000000000000005,-1.009,0.026,0.9167328,-3.5523396000000003,1.7188740000000002,90.19504836000002,1.91367972,-44.46727038
2.01,201,0.05,-1.011,0.024,0.7448454000000001,-3.380452200000001,1.7188740000000002,90.20650752,1.89649098,-44.50164786000001
2.02,202,0.048,-1.011,0.023,0.4583664000000001,-2.9220857999999996,1.7188740000000002,90.20650752,1.87930224,-44.53029576
2.03,203,0.046,-1.01,0.024,0.3437748,-2.7501984,1.7761698,90.2122371,1.8621135,-44.55894366
2.04,204,0.046,-1.008,0.024,0.3437748,-2.9220857999999996,1.6615782,90.21796668,1.84492476,-44.58759156
2.05,205,0.045,-1.008,0.022,0.286479,-2.6929026,1.7761698,90.2122371,1.8621135,-44.62196904
2.0599999999999996,206,0.046,-1.008,0.022,0.0,-2.0626488000000003,1.7761698,90.2122371,1.84492476,-44.63915778
2.07,207,0.048,-1.008,0.024,-0.1718874,-1.5469866,1.7761698,90.20650752,1.82773602,-44.65634652
2.0799999999999996,208,0.05,-1.007,0.022,-0.4583664000000001,-0.9167328,1.8334656000000005,90.20650752,1.81054728,-44.6620761
2.09,209,0.053,-1.004,0.02,-0.4583664000000001,-0.9167328,1.8334656000000005,90.20077794,1.78762896,-44.67353526
2.0999999999999996,210,0.055,-1.005,0.018000000000000002,-0.5156622000000001,-1.0886202,1.9480572,90.17785962,1.82200644,-44.690724
2.11,211,0.054000000000000006,-1.004,0.02,-0.6302538000000001,-1.3178034,2.0626488000000003,90.17213004,1.79908812,-44.70791274
2.1199999999999997,212,0.054000000000000006,-1.005,0.022,-0.7448454000000001,-1.3750992,2.0626488000000003,90.16067088,1.78189938,-44.7193719
2.13,213,0.053,-1.006,0.025,-1.0886202,-1.3178034,1.9480572,90.15494129999999,1.75898106,-44.73083106
2.1399999999999997,214,0.054000000000000006,-1.005,0.024,-1.5469866,-1.0886202,1.8907613999999997,90.13775256,1.74179232,-44.74229022
2.15,215,0.053,-1.002,0.022,-1.7188740000000002,-1.0313244,1.8907613999999997,90.11483424,1.77044022,-44.75947896
2.1599999999999997,216,0.053,-1.003,0.017,-1.8334656000000005,-0.8594370000000001,1.8334656000000005,90.0976455,1.7475218999999995,-44.77093812
2.17,217,0.054000000000000006,-1.003,0.016,-1.3178034,-0.9167328,1.8907613999999997,90.08045676,1.73033316,-44.78239728
2.1799999999999997,218,0.054000000000000006,-1.004,0.02,-0.9740286,-1.0313244,1.9480572,90.06899759999996,1.71314442,-44.78812686
2.19,219,0.052000000000000005,-1.007,0.022,-0.9740286,-1.2032118,1.8907613999999997,90.06326802,1.6902260999999998,-44.8053156
2.1999999999999997,220,0.052000000000000005,-1.006,0.021,-0.9167328,-1.0886202,1.9480572,90.04607927999999,1.7246035799999997,-44.82250434
2.21,221,0.051,-1.004,0.021,-0.7448454000000001,-1.0886202,1.8907613999999997,90.04034970000002,1.7074148399999998,-44.8339635
2.2199999999999998,222,0.052000000000000005,-1.004,0.018000000000000002,-0.3437748,-1.3178034,1.9480572,90.03462012,1.6844965200000002,-44.84542266
2.23,223,0.053,-1.003,0.022,0.0,-1.4896908000000002,2.0626488000000003,90.03462012,1.6673077799999998,-44.86261140000001
2.2399999999999998,224,0.053,-1.004,0.026,0.057295800000000015,-1.6042823999999998,2.1199446,90.03462012,1.64438946,-44.87407056
2.25,225,0.051,-1.003,0.027000000000000003,0.057295800000000015,-1.6615782,2.1199446,90.04034970000002,1.67303736,-44.90271846
2.26,226,0.05,-1.003,0.025,0.0,-1.6042823999999998,2.1199446,90.04034970000002,1.6558486199999998,-44.9199072
2.27,227,0.047,-1.004,0.029,-0.11459160000000004,-1.5469866,2.1772404,90.04034970000002,1.6329303,-44.93136636
2.28,228,0.047,-1.004,0.031,-0.11459160000000004,-1.2605076000000002,2.3491278,90.04034970000002,1.61001198,-44.9485551
2.29,229,0.047,-1.004,0.032,-0.286479,-0.6875496,2.4637194,90.03462012,1.5813640800000002,-44.95428468
2.3,230,0.048,-1.002,0.032,-0.3437748,-0.11459160000000004,2.6356068,90.05180886000002,1.6157415599999996,-44.96574384
2.31,231,0.049,-1.002,0.032,-0.4010706,0.057295800000000015,2.8074942000000003,90.05180886000002,1.5870936600000003,-44.96574384
2.32,232,0.051,-1.003,0.031,-0.3437748,0.1718874,2.9793816000000004,90.04607927999999,1.55844576,-44.96001426
2.3299999999999996,233,0.051,-1.008,0.031,-0.3437748,0.057295800000000015,2.9793816000000004,90.04034970000002,1.52979786,-44.96001426
2.34,234,0.05,-1.015,0.03,-0.572958,-0.2291832000000001,2.9220857999999996,90.03462012,1.50114996,-44.96574384
2.3499999999999996,235,0.05,-1.016,0.025,-1.2032118,-0.4010706,2.9793816000000004,90.02316096,1.51260912,-44.97147342
2.36,236,0.05,-1.017,0.024,-1.3750992,-0.6302538000000001,2.9220857999999996,90.0117018,1.48396122,-44.98293258
2.3699999999999997,237,0.048,-1.016,0.023,-1.5469866,-0.9740286,2.9793816000000004,89.99451306,1.44958374,-44.98866216
2.38,238,0.047,-1.016,0.024,-1.7188740000000002,-1.145916,2.8074942000000003,89.97732432000002,1.4209358399999998,-45.00012132
2.3899999999999997,239,0.044,-1.014,0.026,-2.0053530000000004,-1.0313244,2.5210152000000003,89.95440599999998,1.39801752,-45.01158048
2.4,240,0.043,-1.012,0.026,-2.1199446,-0.8021411999999999,2.4064236,89.93721726,1.4037471,-45.02876922
2.4099999999999997,241,0.043,-1.014,0.025,-2.4064236,-0.286479,2.2345362,89.91429894,1.38082878,-45.02876922
2.42,242,0.042,-1.013,0.025,-2.4637194,-0.3437748,2.1772404,89.88565104,1.3579104599999998,-45.0344988
2.4299999999999997,243,0.041,-1.018,0.025,-2.5210152000000003,-0.9167328,2.291832,89.86273272,1.3349921400000002,-45.04022838
2.44,244,0.039,-1.018,0.028,-2.9793816000000004,-1.3178034,2.3491278,89.82835524000002,1.31207382,-45.05741712
2.4499999999999997,245,0.04,-1.015,0.03,-3.3231564,-1.145916,2.4637194,89.80543692,1.31207382,-45.07460586000001
2.46,246,0.041,-1.014,0.029,-3.6096354,-1.0886202,2.6929026,89.77105944,1.28342592,-45.08606502
2.4699999999999998,247,0.042,-1.012,0.028,-4.010706000000001,-1.6615782,3.0939732,89.72522280000004,1.25477802,-45.10325376
2.48,248,0.044,-1.009,0.032,-4.4117766,-2.1199446,3.2085648,89.68511574,1.22040054,-45.1204425
2.4899999999999998,249,0.044,-1.014,0.038,-4.583664,-2.0626488000000003,3.0939732,89.63354952,1.19175264,-45.14336082
2.5,250,0.042,-1.016,0.044,-5.6722842,-1.6615782,2.7501984,89.59917204,1.18029348,-45.16627914
2.51,251,0.04,-1.018,0.046,-7.2765666,-1.3750992,2.86479,89.5246875,1.15164558,-45.1777383
2.52,252,0.035,-1.02,0.046,-8.3651868,-1.4896908000000002,2.8074942000000003,89.4387438,1.12299768,-45.19492704
2.53,253,0.033,-1.023,0.051,-9.2819196,-1.2605076000000002,2.8074942000000003,89.34134094,1.09434978,-45.2063862
2.54,254,0.033,-1.033,0.052000000000000005,-10.3705398,-0.572958,2.5210152000000003,89.2382085,1.06570188,-45.21784536
2.55,255,0.036000000000000004,-1.048,0.043,-12.032117999999999,0.286479,2.1199446,89.12934648,1.05424272,-45.21784536
2.56,256,0.039,-1.064,0.038,-14.266654199999998,1.145916,1.6615782,88.98610698,1.03705398,-45.2063862
2.57,257,0.044,-1.075,0.039,-16.8449652,1.7188740000000002,1.3750992,88.81421958,1.01986524,-45.18919746
2.5799999999999996,258,0.043,-1.083,0.038,-19.595163600000006,2.1199446,1.2032118,88.61368428,1.00840608,-45.17200872
2.59,259,0.035,-1.086,0.033,-23.6058696,2.6356068,1.0886202,88.37304191999998,0.9912173399999998,-45.1490904
2.5999999999999996,260,0.028,-1.089,0.026,-27.1009134,3.151269,0.8594370000000001,88.10375166,0.98548776,-45.1204425
2.61,261,0.025,-1.087,0.013,-30.366774000000003,3.6096354,0.6302538000000001,87.80008391999998,0.9740286,-45.08606502
2.6199999999999997,262,0.024,-1.09,0.001,-32.8877892,3.7815227999999994,0.4583664000000001,87.46203870000002,0.96829902,-45.05168754
2.63,263,0.03,-1.086,-0.014,-34.8931422,4.1252976000000015,0.11459160000000004,87.10680474,0.96256944,-45.01731006
2.6399999999999997,264,0.036000000000000004,-1.079,-0.028,-35.9817624,4.583664,-0.3437748,86.7458412,0.96829902,-44.97147342
2.65,265,0.04,-1.068,-0.032,-37.5860448,4.9274388,-0.572958,86.36195934,0.9740286,-44.93136636
2.6599999999999997,266,0.042,-1.046,-0.029,-40.2789474,4.1825934,-0.5156622000000001,85.95515916000002,0.97975818,-44.8912593
2.67,267,0.036000000000000004,-1.021,-0.022,-42.05511720000001,2.6356068,-0.3437748,85.52544065999999,0.97975818,-44.87407056
2.6799999999999997,268,0.034,-0.999,-0.02,-43.258329,1.8907613999999997,-0.286479,85.08999258,0.97975818,-44.85688182
2.69,269,0.039,-0.986,-0.026,-44.2323576,1.8334656000000005,-0.4583664000000001,84.63735576,0.98548776,-44.84542266
2.6999999999999997,270,0.043,-0.979,-0.023,-45.83664,2.0053530000000004,-0.2291832000000001,84.18471894,0.98548776,-44.82823392
2.71,271,0.041,-0.975,-0.006,-46.753372799999994,1.6615782,0.2291832000000001,83.7091638,0.97975818,-44.81677476
2.7199999999999998,272,0.031,-0.982,-0.002,-46.123119,1.2032118,0.8594370000000001,83.23933824000002,0.96829902,-44.81104518
2.73,273,0.023,-1.002,-0.017,-46.352302200000004,0.8021411999999999,0.9167328,82.76951268,0.95683986,-44.8053156
2.7399999999999998,274,0.016,-1.019,-0.03,-46.982556,0.9740286,0.5156622000000001,82.29395754,0.9453806999999999,-44.79958602
2.75,275,0.006999999999999999,-1.025,-0.038,-47.8992888,1.3750992,0.11459160000000004,81.81840240000002,0.93965112,-44.78812686
2.76,276,0.003,-1.024,-0.04,-48.3576552,1.8334656000000005,-0.1718874,81.32565852,0.93965112,-44.776667700000004
2.77,277,0.006999999999999999,-1.028,-0.03,-48.3576552,3.0366774,-0.3437748,80.83291464,0.9453806999999999,-44.75374938
2.78,278,0.012,-1.037,-0.028,-48.8733174,4.1252976000000015,-0.6875496,80.34017076,0.95111028,-44.7193719
2.79,279,0.023,-1.051,-0.028,-50.1911208,3.7815227999999994,-0.9740286,79.83023813999998,0.96256944,-44.690724
2.8,280,0.033,-1.067,-0.051,-52.19647379999999,2.6929026,-1.6042823999999998,79.31457594,0.97975818,-44.66780568
2.81,281,0.039,-1.094,-0.073,-54.602897399999996,2.1199446,-2.291832,78.75880667999998,1.0026765,-44.65634652
2.82,282,0.035,-1.111,-0.052000000000000005,-58.72819499999999,0.9740286,-3.6096354,78.16293035999998,1.0313244,-44.6620761
2.8299999999999996,283,0.031,-1.111,-0.058,-63.942112800000004,-0.4583664000000001,-4.297185,77.50975824000002,1.06570188,-44.67926484
2.84,284,0.029,-1.106,-0.06,-67.036086,-1.9480572,-4.583664,76.82793822,1.10007936,-44.7193719
2.8499999999999996,285,0.023,-1.107,-0.024,-69.4998054,-3.7815227999999994,-4.6982556,76.14038862,1.13445684,-44.77093812
2.86,286,0.023,-1.11,-0.048,-70.7030172,-4.6409598,-5.1566220000000005,75.42419112,1.16310474,-44.8339635
2.8699999999999997,287,0.021,-1.117,-0.07400000000000001,-70.4165382,-3.4950437999999995,-5.6722842,74.70799362,1.2032117999999998,-44.8912593
2.88,288,0.02,-1.117,-0.045,-69.21332640000001,-3.0939732,-5.6722842,74.00325528,1.24331886,-44.94282552
2.8899999999999997,289,0.02,-1.111,-0.063,-64.22859179999999,-3.380452200000001,-5.958763200000001,73.35008316,1.28342592,-44.99439174
2.9,290,0.035,-1.156,-0.06,-59.98870260000001,-2.0626488000000003,-6.0733548,72.75993642,1.32926256,-45.04022838
2.9099999999999997,291,0.049,-1.202,-0.039,-67.5517482,0.9167328,-4.9847345999999995,72.07811640000001,1.3750992,-45.05168754
2.92,292,0.055,-1.236,-0.101,-75.5731602,1.0886202,-2.6356068,71.31035268,1.39228794,-45.05741712
2.9299999999999997,293,0.073,-1.295,-0.122,-80.8443738,0.11459160000000004,-1.2605076000000002,70.48529316,1.39801752,-45.0631467
2.94,294,0.09,-1.33,-0.172,-88.7511942,0.0,-0.3437748,69.58574909999999,1.39228794,-45.07460586000001
2.9499999999999997,295,0.102,-1.358,-0.324,-95.5693944,-0.5156622000000001,1.0313244,68.61745008,1.36936962,-45.08033544
2.96,296,0.08,-1.294,-0.444,-98.548776,-3.380452200000001,2.4064236,67.62050316,1.32353298,-45.10898334
2.9699999999999998,297,0.067,-1.089,-0.477,-88.7511942,-1.145916,1.8334656000000005,66.72095909999999,1.29488508,-45.1204425
2.98,298,0.094,-1.008,-0.631,-63.942112800000004,-2.8074942000000003,0.6875496,66.06778698000001,1.26623718,-45.1490904
2.9899999999999998,299,0.073,-1.157,-0.608,-47.7274014,-4.9274388,1.432395,65.58650226,1.2318597,-45.19492704
3.0,300,0.034,-1.249,-0.5760000000000001,-45.206386200000004,-5.5576926,2.7501984,65.12240627999999,1.1745638999999999,-45.23503409999999
3.01,301,-0.009000000000000001,-1.209,-0.547,-39.47680620000001,-4.4117766,3.0939732,64.72133568,1.12872726,-45.263682
3.02,302,-0.008,-1.098,-0.57,-31.111619399999995,-0.4583664000000001,0.9167328,64.40620878,1.11153852,-45.26941158
3.03,303,0.02,-1.047,-0.595,-19.8243468,6.130650599999999,-0.9740286,64.20567348,1.1459160000000002,-45.21784536
3.04,304,0.055,-1.062,-0.618,-10.1413566,8.9381448,-0.572958,64.10254104,1.18602306,-45.13763124000001
3.05,305,0.12,-1.103,-0.653,-3.6669312000000014,12.7769634,1.9480572,64.0567044,1.22613012,-45.01731006
3.06,306,0.181,-1.144,-0.6859999999999999,6.016058999999999,13.2353298,7.906820400000001,64.11972978,1.21467096,-44.86261140000001
3.07,307,0.181,-1.189,-0.675,17.589810600000003,8.7089616,12.834259199999998,64.29734676,1.13445684,-44.72510148
3.08,308,0.146,-1.218,-0.6509999999999999,24.923673,5.5576926,13.521808800000002,64.55517785999999,1.03705398,-44.61623946
3.09,309,0.104,-1.195,-0.613,29.2781538,3.0366774,11.0007936,64.85311602,0.95683986,-44.54175492
3.0999999999999996,310,0.078,-1.142,-0.5720000000000001,33.3461556,2.0626488000000003,7.333862400000001,65.18543166,0.90527364,-44.4901887
3.11,311,0.076,-1.084,-0.531,37.9871154,2.4064236,4.6982556,65.56931352000001,0.87662574,-44.44435206
3.1199999999999997,312,0.069,-1.034,-0.516,42.7426668,2.3491278,3.5523396000000003,66.00476160000001,0.8594370000000001,-44.404245
3.13,313,0.063,-1.005,-0.494,48.414951,2.0626488000000003,4.0680017999999984,66.49750548,0.83651868,-44.36986752
3.1399999999999997,314,0.069,-0.996,-0.44,55.4623344,1.145916,6.417129599999999,67.05900432000001,0.7849524600000001,-44.32976046
3.15,315,0.087,-1.006,-0.403,61.592985,0.3437748,8.5370742,67.68925812,0.72192708,-44.28965340000001
3.1599999999999997,316,0.096,-1.021,-0.369,66.80690279999999,0.11459160000000004,10.1986524,68.36534856,0.63598338,-44.24381676
3.17,317,0.091,-1.024,-0.336,71.44786260000002,-1.2605076000000002,11.1153852,69.09300522,0.53858052,-44.20943928000001
3.1799999999999997,318,0.081,-1.014,-0.319,74.65642740000001,-3.4377480000000005,11.745639,69.84930978,0.4297185000000001,-44.19798012
3.19,319,0.087,-0.983,-0.293,77.635809,-5.3858052,12.3758928,70.63999182,0.30366774,-44.19798012
3.1999999999999997,320,0.081,-0.943,-0.266,81.360036,-5.844171599999999,12.4331886,71.47078092000002,0.18334656,-44.20943928000001
3.21,321,0.081,-0.899,-0.24,83.07891,-5.5003968,11.917526400000002,72.31302918,0.06875496,-44.21516886
3.2199999999999998,322,0.073,-0.8690000000000001,-0.239,84.2821218,-5.1566220000000005,11.1153852,73.16673660000002,-0.04010706,-44.22662802000001
3.23,323,0.06,-0.843,-0.232,85.42803780000001,-4.9847345999999995,10.1413566,74.03763276000002,-0.13750992,-44.23808718
3.2399999999999998,324,0.047,-0.818,-0.208,86.0009958,-5.72958,9.2819196,74.90852892000002,-0.23491278,-44.261005499999996
3.25,325,0.028,-0.7959999999999999,-0.194,86.45936219999999,-6.760904399999999,8.3651868,75.79088424,-0.31512690000000004,-44.30111256
3.26,326,0.013,-0.778,-0.183,86.80313699999998,-8.021412000000002,7.7349330000000025,76.67323956,-0.4010706000000001,-44.35267878
3.27,327,0.01,-0.758,-0.16899999999999998,86.63124959999998,-8.880849000000003,7.448453999999999,77.5498653,-0.48128472,-44.41570416
3.28,328,0.004,-0.727,-0.14,87.4333908,-9.1100322,7.7922288,78.44367978,-0.56149884,-44.47872954
3.29,329,0.008,-0.6990000000000001,-0.128,88.0063488,-9.3965112,8.4224826,79.33749426,-0.65317212,-44.5474845
3.3,330,0.017,-0.679,-0.124,87.83446140000002,-10.1986524,9.5111028,80.23130874,-0.75057498,-44.62196904
3.31,331,0.02,-0.6559999999999999,-0.109,86.7458412,-11.6310474,9.9121734,81.11366405999998,-0.8537074199999999,-44.70791274
3.32,332,0.019,-0.6459999999999999,-0.108,84.51130500000002,-12.4331886,9.969469199999999,81.97310106,-0.95683986,-44.81104518
3.33,333,0.016,-0.636,-0.112,81.64651500000002,-11.9748222,9.8548776,82.80389016000002,-1.0599723,-44.90844804
3.34,334,0.008,-0.625,-0.11,79.0109082,-10.886202,9.0527364,83.61176094,-1.15164558,-44.99439174
3.3499999999999996,335,0.0,-0.622,-0.093,76.7190762,-9.9121734,7.7922288,84.39098382,-1.2318597,-45.07460586000001
3.36,336,-0.009000000000000001,-0.614,-0.085,74.198061,-9.1100322,6.2452422,85.14728838,-1.2891555000000001,-45.15481998
3.3699999999999997,337,-0.006999999999999999,-0.605,-0.081,71.33327100000002,-8.479778399999999,4.583664,85.87494504,-1.3349921400000002,-45.22357494
3.38,338,-0.009000000000000001,-0.598,-0.081,66.749607,-8.193299399999999,2.6356068,86.55676506,-1.3579104599999998,-45.29805948
3.3899999999999997,339,-0.006999999999999999,-0.594,-0.073,61.6502808,-6.9327918,1.0313244,87.18128928,-1.36364004,-45.36108486
3.4,340,-0.002,-0.593,-0.068,56.8374336,-5.2712136,-0.3437748,87.75424728,-1.3579104599999998,-45.4069215
3.4099999999999997,341,0.0,-0.598,-0.07400000000000001,52.48295279999999,-3.3231564,-0.9740286,88.28709822,-1.34072172,-45.4355694
3.42,342,0.003,-0.618,-0.087,48.3003594,-0.7448454000000001,-1.3750992,88.7798421,-1.32353298,-45.4355694
3.4299999999999997,343,0.004,-0.644,-0.094,43.3729206,1.7188740000000002,-1.145916,89.22101975999998,-1.30634424,-45.41265108
3.44,344,0.0,-0.665,-0.095,38.67466500000001,3.7815227999999994,-0.1718874,89.6106312,-1.30634424,-45.37254402
3.4499999999999997,345,-0.005,-0.6859999999999999,-0.094,34.950438,5.5003968,0.8594370000000001,89.94867642,-1.31207382,-45.31524822
3.46,346,-0.003,-0.713,-0.107,31.971056400000002,6.2452422,2.1772404,90.2695329,-1.32926256,-45.24649326
3.4699999999999998,347,0.001,-0.747,-0.123,28.934379,5.3858052,3.3231564,90.56174148,-1.36364004,-45.18919746
3.48,348,0.005,-0.789,-0.132,26.1841806,4.1252976000000015,3.8961144,90.83103174,-1.4037471,-45.1490904
3.4899999999999998,349,0.011,-0.831,-0.123,22.86102420000001,3.5523396000000003,3.6669312000000014,91.06021494,-1.43812458,-45.10898334
3.5,350,0.011,-0.871,-0.111,19.194093,4.2398892,2.9220857999999996,91.2149136,-1.4610428999999998,-45.0631467
3.51,351,0.009000000000000001,-0.902,-0.098,16.4438946,5.6722842,1.9480572,91.37534184,-1.4782316400000002,-45.0058509
3.52,352,0.005,-0.931,-0.084,14.667724800000002,7.333862400000001,0.8021411999999999,91.52431092,-1.4896908000000002,-44.93136636
3.53,353,0.001,-0.954,-0.066,13.6364004,8.479778399999999,0.2291832000000001,91.65609126,-1.50114996,-44.84542266
3.54,354,-0.006999999999999999,-0.974,-0.046,15.0687954,8.880849000000003,0.2291832000000001,91.81078992,-1.50687954,-44.75947896
3.55,355,-0.016,-1.006,-0.023,18.2200644,9.0527364,0.7448454000000001,91.97121816,-1.51260912,-44.66780568
3.56,356,-0.024,-1.036,0.001,20.8556712,9.453807000000001,1.145916,92.17748304,-1.52979786,-44.57040282
3.57,357,-0.027000000000000003,-1.057,0.026,22.5172494,10.1986524,1.0886202,92.40093666,-1.5469866,-44.46727038
3.58,358,-0.021,-1.074,0.053,23.3193906,11.688343199999998,0.5156622000000001,92.63584944,-1.55844576,-44.34694920000001
3.59,359,-0.014,-1.086,0.077,23.032911600000002,13.349921400000001,0.0,92.86503264,-1.56417534,-44.21516886
3.5999999999999996,360,-0.001,-1.091,0.096,22.058883,14.667724800000002,-0.3437748,93.08848626,-1.56417534,-44.06619978
3.61,361,0.014,-1.097,0.113,21.6578124,14.667724800000002,-0.057295800000000015,93.30048072,-1.5756344999999998,-43.92296028
3.6199999999999997,362,0.025,-1.098,0.125,20.511896399999998,13.2353298,0.5156622000000001,93.50101602,-1.59282324,-43.78545036000001
3.63,363,0.04,-1.093,0.134,18.2200644,11.4018642,0.6875496,93.68436258,-1.6042824000000002,-43.67658834
3.6399999999999997,364,0.053,-1.09,0.136,16.329303,9.9121734,0.2291832000000001,93.84479082,-1.6157415599999996,-43.573455900000006
3.65,365,0.058,-1.083,0.13699999999999998,14.32395,8.3651868,-0.4010706,93.99948948,-1.59282324,-43.49324178
3.6599999999999997,366,0.059,-1.07,0.132,13.178034,6.875496000000001,-1.3178034,94.13126982,-1.5813640800000002,-43.42448682
3.67,367,0.057,-1.056,0.123,12.834259199999998,5.2139178,-1.6615782,94.25732058,-1.56990492,-43.36719102
3.6799999999999997,368,0.045,-1.043,0.114,11.9748222,3.0366774,-1.6042823999999998,94.37764176,-1.55844576,-43.33281354
3.69,369,0.031,-1.026,0.102,10.3705398,1.7188740000000002,-1.432395,94.48650378,-1.5412570200000002,-43.315624799999995
3.6999999999999997,370,0.025,-1.005,0.091,8.7662574,0.7448454000000001,-1.0886202,94.56098832,-1.4896908000000002,-43.30989522
3.71,371,0.022,-0.981,0.085,7.7922288,0.3437748,-0.5156622000000001,94.64120244,-1.48396122,-43.30416564
3.7199999999999998,372,0.021,-0.957,0.081,7.161975,0.057295800000000015,-0.2291832000000001,94.71568698,-1.4782316400000002,-43.30416564
3.73,373,0.021,-0.94,0.07200000000000001,6.2452422,0.11459160000000004,-0.3437748,94.77871236,-1.4782316400000002,-43.29843606
3.7399999999999998,374,0.025,-0.931,0.066,5.5576926,0.11459160000000004,-0.5156622000000001,94.83600816,-1.47250206,-43.29843606
3.75,375,0.029,-0.933,0.063,5.2139178,-0.4010706,-0.6302538000000001,94.8531969,-1.41520626,-43.30416564
3.76,376,0.03,-0.944,0.059,5.6149884000000005,-1.0886202,-0.6875496,94.9104927,-1.4037471,-43.315624799999995
3.77,377,0.031,-0.964,0.059,6.760904399999999,-2.1772404,-0.3437748,94.97924766,-1.39801752,-43.33281354
3.78,378,0.03,-0.983,0.062,7.333862400000001,-3.380452200000001,-0.057295800000000015,95.0537322,-1.39228794,-43.36719102
3.79,379,0.031,-1.0,0.066,6.703608600000001,-3.8388186,-0.11459160000000004,95.12821674,-1.38655836,-43.40729808
3.8,380,0.027000000000000003,-1.005,0.07400000000000001,5.5003968,-3.2085648,-0.2291832000000001,95.15113506,-1.32353298,-43.44167556
3.81,381,0.016,-1.004,0.078,4.2398892,-2.0626488000000003,-0.3437748,95.19124212,-1.3178034,-43.4588643
3.82,382,0.009000000000000001,-0.997,0.083,3.5523396000000003,-1.0313244,-0.1718874,95.23134918,-1.3178034,-43.47032346
3.83,383,0.004,-0.992,0.085,3.5523396000000003,-0.7448454000000001,0.286479,95.26572666,-1.3178034,-43.47605304
3.84,384,0.001,-0.994,0.086,3.724227,-0.6875496,0.8594370000000001,95.30583372,-1.32353298,-43.48178262
3.8499999999999996,385,0.006,-0.997,0.09,3.5523396000000003,-0.11459160000000004,1.3178034,95.30010414,-1.27769634,-43.48751220000001
3.86,386,0.014,-1.004,0.09,3.6096354,0.8021411999999999,1.6042823999999998,95.3402112,-1.29488508,-43.48178262
3.8699999999999997,387,0.023,-1.01,0.09,3.4950437999999995,1.6042823999999998,1.6042823999999998,95.37458868,-1.31207382,-43.47032346
3.88,388,0.027000000000000003,-1.012,0.08800000000000001,2.9793816000000004,1.8334656000000005,1.2605076000000002,95.40323658,-1.32353298,-43.45313472
3.8899999999999997,389,0.028,-1.01,0.087,2.0053530000000004,1.7761698,0.9740286,95.42042532,-1.3349921400000002,-43.43594598
3.9,390,0.03,-1.007,0.085,1.2605076000000002,1.432395,0.8021411999999999,95.35739994,-1.2032117999999998,-43.4302164
3.9099999999999997,391,0.03,-1.003,0.085,0.5156622000000001,1.2032118,0.6302538000000001,95.36312952,-1.20894138,-43.41875724000001
3.92,392,0.029,-1.001,0.084,0.1718874,0.9167328,0.6302538000000001,95.36312952,-1.21467096,-43.41302766
3.9299999999999997,393,0.028,-1.004,0.084,0.2291832000000001,0.7448454000000001,0.5156622000000001,95.3688591,-1.22040054,-43.4015685
3.94,394,0.025,-1.01,0.083,0.2291832000000001,0.7448454000000001,0.5156622000000001,95.3688591,-1.22613012,-43.39583892
3.9499999999999997,395,0.022,-1.013,0.084,0.2291832000000001,0.6302538000000001,0.572958,95.24280834,-1.0255948199999998,-43.40729808
3.96,396,0.019,-1.016,0.083,0.1718874,0.5156622000000001,0.8594370000000001,95.24280834,-1.03705398,-43.4015685
3.9699999999999998,397,0.016,-1.015,0.084,-0.1718874,0.286479,1.145916,95.24280834,-1.04851314,-43.4015685
3.98,398,0.016,-1.008,0.083,-0.6875496,0.0,1.4896908000000002,95.23134918,-1.06570188,-43.4015685
3.9899999999999998,399,0.016,-0.998,0.083,-1.145916,-0.1718874,1.6615782,95.21989002,-1.08289062,-43.4015685
4.0,400,0.02,-0.989,0.084,-1.145916,-0.5156622000000001,1.8334656000000005,95.15686464,-1.00840608,-43.41875724000001
4.01,401,0.023,-0.981,0.08800000000000001,-0.7448454000000001,-1.5469866,1.7761698,95.15113506,-1.0255948199999998,-43.43594598
4.02,402,0.024,-0.98,0.08800000000000001,-0.11459160000000004,-2.578311,1.7188740000000002,95.15113506,-1.04278356,-43.46459388
4.03,403,0.024,-0.985,0.087,0.7448454000000001,-3.8961144,1.5469866,95.16259422,-1.04851314,-43.50470094
4.04,404,0.02,-0.993,0.087,0.8594370000000001,-4.583664,1.145916,95.17405338,-1.0599723,-43.55053758
4.05,405,0.014,-0.996,0.09,0.8021411999999999,-4.7555514,0.9740286,95.15686464,-1.01986524,-43.59637422
4.06,406,0.009000000000000001,-0.999,0.094,1.0886202,-4.583664,0.8594370000000001,95.17405338,-1.01986524,-43.64221086
4.07,407,0.006,-1.003,0.094,1.2032118,-4.3544808,0.9167328,95.18551254,-1.0255948199999998,-43.688047499999996
4.08,408,0.004,-1.005,0.096,1.2032118,-4.297185,1.0886202,95.1969717,-1.0313244,-43.73388414
4.09,409,0.004,-1.006,0.102,1.2032118,-4.297185,1.3178034,95.21416044,-1.04278356,-43.77399120000001
4.1,410,0.006,-1.006,0.104,1.3750992,-4.1825934,1.432395,95.21989002,-1.01986524,-43.81982784
4.109999999999999,411,0.011,-1.006,0.108,1.7188740000000002,-4.010706000000001,1.432395,95.23707876,-1.0255948199999998,-43.8599349
4.12,412,0.013,-1.009,0.108,1.6615782,-3.7815227999999994,1.145916,95.25999708,-1.03705398,-43.90004196
4.13,413,0.017,-1.01,0.106,1.432395,-3.724227,0.8021411999999999,95.27145624,-1.03705398,-43.93441944
4.14,414,0.018000000000000002,-1.008,0.105,1.0886202,-3.8961144,0.4583664000000001,95.28864498,-1.03705398,-43.9745265
4.1499999999999995,415,0.019,-1.007,0.106,1.0886202,-4.2398892,0.11459160000000004,95.28864498,-0.9740286,-44.02036314
4.16,416,0.018000000000000002,-1.006,0.107,1.0313244,-4.8128472,0.0,95.30010414,-0.96829902,-44.06619978
4.17,417,0.017,-1.004,0.106,0.9740286,-5.042030400000002,-0.11459160000000004,95.31156330000002,-0.96256944,-44.117766
4.18,418,0.016,-1.004,0.108,1.0313244,-5.2712136,-0.1718874,95.32302246,-0.95111028,-44.16933222
4.1899999999999995,419,0.014,-1.004,0.11,0.9740286,-5.2712136,-0.11459160000000004,95.33448162,-0.9453806999999999,-44.22089844
4.2,420,0.011,-1.004,0.108,0.7448454000000001,-5.042030400000002,-0.11459160000000004,95.33448162,-0.89381448,-44.27246466
4.21,421,0.012,-1.003,0.105,0.572958,-4.6982556,-0.11459160000000004,95.3402112,-0.8880849000000001,-44.3183013
4.22,422,0.012,-1.0,0.107,0.1718874,-4.297185,-0.11459160000000004,95.34594078,-0.8823553199999999,-44.35840836
4.2299999999999995,423,0.014,-0.995,0.107,0.0,-4.2398892,-0.11459160000000004,95.34594078,-0.87662574,-44.404245
4.24,424,0.014,-0.99,0.106,-0.4010706,-4.4117766,-0.2291832000000001,95.34594078,-0.86516658,-44.44435206
4.25,425,0.014,-0.987,0.109,-0.572958,-4.4690724,-0.2291832000000001,95.33448162,-0.8136003599999999,-44.4901887
4.26,426,0.014,-0.984,0.107,-0.4010706,-4.2398892,-0.11459160000000004,95.32875204,-0.8078707799999998,-44.53602534
4.27,427,0.013,-0.986,0.106,0.0,-3.9534102,0.0,95.32875204,-0.8021412000000001,-44.57040282
4.28,428,0.013,-0.99,0.107,0.572958,-3.7815227999999994,0.2291832000000001,95.3402112,-0.79641162,-44.61050988
4.29,429,0.016,-0.996,0.11,0.9167328,-3.9534102,0.6302538000000001,95.34594078,-0.8021412000000001,-44.650616940000006
4.3,430,0.017,-0.997,0.112,1.2605076000000002,-4.297185,1.0886202,95.36312952,-0.76776372,-44.69645358
4.31,431,0.02,-1.001,0.117,1.7761698,-4.6409598,1.3178034,95.38031826,-0.7734933,-44.74229022
4.32,432,0.02,-1.0,0.121,2.0626488000000003,-4.8701430000000006,1.5469866,95.40323658,-0.7849524600000001,-44.79385644
4.33,433,0.019,-0.999,0.124,2.5210152000000003,-5.3285094000000015,1.4896908000000002,95.43188448,-0.7906820400000001,-44.84542266
4.34,434,0.017,-1.0,0.127,2.6929026,-5.844171599999999,1.2605076000000002,95.46053238,-0.79641162,-44.90271846
4.35,435,0.014,-1.0,0.128,2.7501984,-6.016058999999999,1.0886202,95.49490986,-0.7734933,-44.96574384
4.36,436,0.011,-1.003,0.125,2.6356068,-5.7868758000000025,0.8594370000000001,95.52355776,-0.7734933,-45.02303963999999
4.37,437,0.01,-1.004,0.123,2.6356068,-5.3858052,0.6875496,95.55220566,-0.7734933,-45.07460586000001
4.38,438,0.008,-1.002,0.121,2.4637194,-4.8701430000000006,0.6302538000000001,95.58085356,-0.7734933,-45.12617208
4.39,439,0.008,-0.999,0.12,2.3491278,-4.4117766,0.6302538000000001,95.60950146,-0.7792228800000001,-45.16627914
4.3999999999999995,440,0.01,-0.995,0.118,2.291832,-3.8961144,0.8021411999999999,95.63241978,-0.75057498,-45.2063862
4.41,441,0.012,-0.992,0.121,2.5210152000000003,-3.4377480000000005,0.8594370000000001,95.6553381,-0.75057498,-45.24076368
4.42,442,0.014,-0.99,0.122,2.7501984,-3.0939732,0.8594370000000001,95.683986,-0.75630456,-45.27514116
4.43,443,0.015,-0.989,0.124,2.9793816000000004,-3.151269,0.8594370000000001,95.71836348,-0.76203414,-45.30378906
4.4399999999999995,444,0.016,-0.991,0.126,3.0939732,-3.0366774,0.9167328,95.75274096,-0.76776372,-45.33816654
4.45,445,0.017,-0.997,0.125,3.151269,-2.9793816000000004,0.8594370000000001,95.78711844,-0.73338624,-45.36681444
4.46,446,0.018000000000000002,-1.001,0.123,3.380452200000001,-3.0939732,0.9740286,95.82149592,-0.7391158200000001,-45.40119192
4.47,447,0.021,-1.005,0.121,3.5523396000000003,-3.2658606,1.0313244,95.86160298,-0.7448454000000001,-45.4355694
4.4799999999999995,448,0.023,-1.009,0.124,3.724227,-3.5523396000000003,1.0313244,95.89598046,-0.75057498,-45.46994688
4.49,449,0.023,-1.016,0.129,3.5523396000000003,-3.380452200000001,1.0313244,95.93608752,-0.75630456,-45.50432436
4.5,450,0.022,-1.021,0.134,2.86479,-3.151269,0.8594370000000001,95.97619458,-0.7104679199999999,-45.53297226
4.51,451,0.02,-1.021,0.139,1.7761698,-2.86479,0.8594370000000001,95.99338332,-0.7161975,-45.56734974
4.52,452,0.018000000000000002,-1.015,0.139,0.8594370000000001,-2.9220857999999996,0.9167328,96.00484248,-0.72192708,-45.59599764
4.53,453,0.019,-1.008,0.13699999999999998,0.11459160000000004,-2.8074942000000003,1.0886202,96.00484248,-0.72765666,-45.62464554
4.54,454,0.017,-1.003,0.13699999999999998,-0.4010706,-2.6929026,1.2032118,96.00484248,-0.7391158200000001,-45.65329344
4.55,455,0.017,-1.0,0.138,-0.7448454000000001,-2.3491278,1.3750992,96.01630164,-0.6875496,-45.67621176
4.56,456,0.016,-1.001,0.138,-0.9740286,-1.7761698,1.6042823999999998,96.00484248,-0.70473834,-45.69913008
4.57,457,0.017,-1.006,0.136,-0.9740286,-1.2605076000000002,1.9480572,95.99911290000001,-0.72192708,-45.71058924
4.58,458,0.021,-1.01,0.135,-0.6302538000000001,-1.3178034,2.291832,95.99338332,-0.7391158200000001,-45.72777798
4.59,459,0.024,-1.012,0.133,-0.2291832000000001,-2.0053530000000004,2.5210152000000003,95.98765374,-0.76203414,-45.7506963
4.6,460,0.026,-1.011,0.133,0.2291832000000001,-3.0366774,2.578311,96.00484248,-0.72765666,-45.78507378
4.61,461,0.027000000000000003,-1.009,0.134,0.8594370000000001,-4.1825934,2.4637194,96.01057206,-0.75057498,-45.83091042
4.62,462,0.024,-1.006,0.133,1.3750992,-4.9847345999999995,2.3491278,96.0277608,-0.76776372,-45.87674706
