TimeStamp(s),FrameCounter,AccX,AccY,AccZ,GyrX,GyrY,GyrZ,EulerX,EulerY,EulerZ
0.01,1,0.006,-1.008,0.032,0.0,-0.057295800000000015,-0.1718874,91.08886284,1.19748222,-23.61159918
0.02,2,0.006,-1.006,0.032,0.0,-0.1718874,-0.2291832000000001,91.08886284,1.19748222,-23.61732876
0.03,3,0.006,-1.005,0.032,0.0,-0.286479,-0.1718874,91.08886284,1.2032117999999998,-23.61732876
0.04,4,0.005,-1.005,0.033,0.057295800000000015,-0.4583664000000001,-0.1718874,91.08886284,1.2032117999999998,-23.62305834
0.05,5,0.003,-1.006,0.034,0.057295800000000015,-0.40107059999999994,-0.2291832000000001,91.07740368,1.15164558,-23.65170624000001
0.060000000000000005,6,0.003,-1.0070000000000001,0.034,0.0,-0.3437748,-0.2291832000000001,91.07740368,1.15164558,-23.65170624000001
0.06999999999999999,7,0.004,-1.0070000000000001,0.033,0.0,-0.11459160000000004,-0.11459160000000004,91.07740368,1.15164558,-23.65743582
0.08,8,0.005,-1.008,0.033,0.2291832000000001,-0.11459160000000004,-0.1718874,91.07740368,1.1573751600000002,-23.65743582
0.09,9,0.005,-1.008,0.033,0.5156622000000001,-0.11459160000000004,0.0,91.08313326,1.1573751600000002,-23.65743582
0.09999999999999999,10,0.005,-1.0090000000000001,0.034,0.5156622000000001,-0.286479,0.0,91.0716741,1.12299768,-23.67462456
0.11,11,0.004,-1.008,0.033,0.572958,-0.1718874,0.0,91.07740368,1.12299768,-23.67462456
0.12,12,0.003,-1.008,0.035,0.6302538000000001,0.0,-0.057295800000000015,91.08313326,1.12299768,-23.67462456
0.13,13,0.003,-1.005,0.035,0.7448454000000001,-0.11459160000000004,-0.2291832000000001,91.09459242,1.12872726,-23.68035414
0.14,14,0.001,-1.005,0.034,0.6875496,-0.11459160000000004,-0.3437748,91.10032199999999,1.12872726,-23.68035414
0.15000000000000002,15,0.002,-1.005,0.034,0.6875496,-0.11459160000000004,-0.3437748,91.09459242,1.10580894,-23.6918133
0.16,16,0.003,-1.006,0.033,0.5156622000000001,0.0,-0.3437748,91.10032199999999,1.11153852,-23.6918133
0.17,17,0.004,-1.008,0.034,0.40107059999999994,0.2291832000000001,-0.2291832000000001,91.10605158,1.11153852,-23.68608372000001
0.18000000000000002,18,0.005,-1.01,0.033,0.4583664000000001,0.3437748,-0.057295800000000015,91.10605158,1.1172681,-23.68035414
0.19,19,0.006999999999999999,-1.01,0.032,0.286479,0.6302538000000001,0.0,91.11178116,1.11153852,-23.67462456
0.2,20,0.008,-1.01,0.034,0.1718874,0.5156622000000001,0.11459160000000004,91.09459242,1.09434978,-23.67462456
0.21000000000000002,21,0.009000000000000001,-1.011,0.032,0.2291832000000001,0.40107059999999994,0.286479,91.09459242,1.09434978,-23.67462456
0.22,22,0.01,-1.0090000000000001,0.032,0.2291832000000001,0.057295800000000015,0.3437748,91.10032199999999,1.0886202,-23.66889498
0.23,23,0.008,-1.011,0.033,0.11459160000000004,-0.286479,0.4583664000000001,91.10032199999999,1.08289062,-23.67462456
0.24000000000000002,24,0.006,-1.008,0.034,0.0,-0.40107059999999994,0.3437748,91.10032199999999,1.08289062,-23.68035414
0.25,25,0.005,-1.0070000000000001,0.033,0.0,-0.4583664000000001,0.286479,91.07740368,1.04851314,-23.69754288
0.26,26,0.003,-1.006,0.034,0.1718874,-0.4583664000000001,0.286479,91.07740368,1.04278356,-23.69754288
0.27,27,0.003,-1.008,0.034,0.11459160000000004,-0.2291832000000001,0.286479,91.08313326,1.04278356,-23.70327246
0.28,28,0.002,-1.008,0.032,0.11459160000000004,0.057295800000000015,0.40107059999999994,91.08313326,1.03705398,-23.70327246
0.29000000000000004,29,0.004,-1.008,0.03,0.057295800000000015,0.2291832000000001,0.4583664000000001,91.08313326,1.0313244000000001,-23.69754288
0.3,30,0.005,-1.0090000000000001,0.028999999999999998,-0.1718874,0.40107059999999994,0.5156622000000001,91.04875578,1.00840608,-23.70327246
0.31,31,0.006999999999999999,-1.0090000000000001,0.027000000000000003,0.0,0.40107059999999994,0.6302538000000001,91.04875578,1.0026765,-23.69754288
0.32,32,0.009000000000000001,-1.01,0.03,0.057295800000000015,0.286479,0.6302538000000001,91.05448536,0.9969469199999998,-23.6918133
0.33,33,0.009000000000000001,-1.01,0.028999999999999998,0.3437748,0.0,0.572958,91.05448536,0.9912173399999998,-23.6918133
0.34,34,0.008,-1.01,0.03,0.4583664000000001,-0.40107059999999994,0.6302538000000001,91.06021494,0.98548776,-23.69754288
0.35000000000000003,35,0.006,-1.012,0.031,0.40107059999999994,-0.8594370000000001,0.6302538000000001,91.05448536,0.96829902,-23.70900204
0.36000000000000004,36,0.004,-1.012,0.03,0.4583664000000001,-1.0886202,0.572958,91.05448536,0.96256944,-23.720461199999995
0.37,37,0.001,-1.013,0.033,0.572958,-1.0886202,0.6302538000000001,91.06021494,0.95683986,-23.73192036
0.38,38,0.0,-1.01,0.033,0.6875496,-1.0313244000000001,0.3437748,91.0716741,0.95683986,-23.74337952
0.39,39,0.0,-1.01,0.032,0.8021411999999999,-0.5156622000000001,0.286479,91.07740368,0.95111028,-23.749109100000002
0.4,40,0.003,-1.0090000000000001,0.033,0.8594370000000001,-0.2291832000000001,0.286479,91.0716741,0.93392154,-23.75483868
0.41000000000000003,41,0.006999999999999999,-1.0090000000000001,0.035,0.8594370000000001,-0.40107059999999994,0.3437748,91.08313326,0.92819196,-23.760568260000003
0.42000000000000004,42,0.01,-1.006,0.038,0.9740286,-0.8594370000000001,0.4583664000000001,91.09459242,0.92246238,-23.76629784
0.43,43,0.011000000000000001,-1.006,0.037000000000000005,0.9167328000000001,-1.145916,0.5156622000000001,91.10032199999999,0.92246238,-23.777757
0.44,44,0.012,-1.008,0.034,0.6302538000000001,-1.6042823999999998,0.572958,91.10605158,0.9167328,-23.79494574
0.45,45,0.011000000000000001,-1.0090000000000001,0.033,0.5156622000000001,-1.7761698000000001,0.5156622000000001,91.10605158,0.91100322,-23.81213448
0.46,46,0.008,-1.01,0.032,0.4583664000000001,-1.6615782,0.5156622000000001,91.11178116,0.90527364,-23.82932322
0.47000000000000003,47,0.006,-1.0090000000000001,0.027999999999999997,0.4583664000000001,-1.3178034,0.5156622000000001,91.11751074,0.89954406,-23.84078238
0.48000000000000004,48,0.003,-1.01,0.025,0.572958,-0.9740286,0.6302538000000001,91.12324032,0.89381448,-23.85224154
0.49,49,0.002,-1.011,0.024,0.6875496,-0.8594370000000001,0.8021411999999999,91.1289699,0.8880849000000001,-23.86370070000001
0.5,50,0.002,-1.011,0.026000000000000002,0.7448454000000001,-1.0886202,0.8021411999999999,91.12324032,0.87089616,-23.87515986
0.51,51,0.002,-1.0090000000000001,0.032,0.6875496,-1.3750992,0.6302538000000001,91.13469948,0.86516658,-23.892348600000002
0.52,52,0.004,-1.006,0.036000000000000004,0.6302538000000001,-1.6042823999999998,0.40107059999999994,91.14042906,0.8594370000000001,-23.90380776
0.53,53,0.005,-1.004,0.04,0.40107059999999994,-1.4896908000000002,0.286479,91.14615864,0.8594370000000001,-23.9209965
0.54,54,0.004,-1.001,0.038,0.40107059999999994,-1.4896908000000002,0.2291832000000001,91.14615864,0.8594370000000001,-23.93818524
0.55,55,0.002,-1.0,0.034,0.5156622000000001,-1.432395,0.1718874,91.14615864,0.8479778399999999,-23.95537398
0.56,56,0.0,-0.998,0.032,0.6875496,-1.432395,0.286479,91.15188822,0.8422482600000001,-23.96683314
0.5700000000000001,57,-0.003,-0.997,0.035,0.8594370000000001,-1.3178034,0.286479,91.1576178,0.8422482600000001,-23.98402188
0.5800000000000001,58,-0.006,-0.996,0.035,1.0886202,-0.9740286,0.2291832000000001,91.16907696,0.83651868,-23.98975146
0.59,59,-0.006999999999999999,-0.997,0.035,1.2605076000000002,-0.572958,0.11459160000000004,91.1862657,0.83651868,-23.99548104
0.6,60,-0.006,-1.001,0.038,1.3750992,0.057295800000000015,-0.057295800000000015,91.19199528,0.8136003599999999,-24.00121062
0.61,61,-0.001,-1.0070000000000001,0.037000000000000005,1.5469866,0.8594370000000001,-0.11459160000000004,91.20918402,0.8193299399999999,-23.99548104
0.62,62,0.002,-1.011,0.035,1.6042823999999998,1.3178034,-0.057295800000000015,91.22637276,0.8193299399999999,-23.9782923
0.63,63,0.006999999999999999,-1.015,0.035,1.6615782,1.4896908000000002,0.11459160000000004,91.2435615,0.8136003599999999,-23.96683314
0.64,64,0.008,-1.0170000000000001,0.037000000000000005,1.4896908000000002,1.2605076000000002,0.3437748,91.26075024,0.8136003599999999,-23.9496444
0.65,65,0.006,-1.015,0.039,1.3178034,1.0313244000000001,0.40107059999999994,91.26647982,0.8021412000000001,-23.94391482
0.66,66,0.004,-1.011,0.042,1.4896908000000002,0.9167328000000001,0.4583664000000001,91.28366856,0.79641162,-23.932455659999995
0.67,67,0.003,-1.011,0.040999999999999995,1.4896908000000002,0.7448454000000001,0.40107059999999994,91.3008573,0.7906820400000001,-23.92672608
0.68,68,0.005,-1.014,0.035,1.2605076000000002,0.6302538000000001,0.286479,91.31231646,0.7906820400000001,-23.9209965
0.6900000000000001,69,0.008,-1.015,0.035,0.9167328000000001,0.1718874,0.2291832000000001,91.32377562,0.7849524600000001,-23.91526692
0.7000000000000001,70,0.008,-1.013,0.037000000000000005,0.9167328000000001,-0.40107059999999994,0.11459160000000004,91.31804604,0.7849524600000001,-23.9209965
0.7100000000000001,71,0.008,-1.011,0.036000000000000004,0.8021411999999999,-0.6875496,0.057295800000000015,91.3295052,0.7849524600000001,-23.92672608
0.72,72,0.006,-1.008,0.037000000000000005,0.8021411999999999,-0.8594370000000001,-0.057295800000000015,91.33523478,0.7849524600000001,-23.93818524
0.73,73,0.003,-1.005,0.038,0.7448454000000001,-0.9167328000000001,-0.11459160000000004,91.34096436,0.7906820400000001,-23.94391482
0.74,74,0.002,-1.006,0.039,0.6875496,-0.8021411999999999,-0.2291832000000001,91.35242352,0.7906820400000001,-23.95537398
0.75,75,0.001,-1.006,0.036000000000000004,0.5156622000000001,-0.572958,-0.1718874,91.3295052,0.7734933,-23.96683314
0.76,76,0.002,-1.0070000000000001,0.034,0.4583664000000001,-0.4583664000000001,0.0,91.33523478,0.7734933,-23.97256272000001
0.77,77,0.003,-1.008,0.034,0.1718874,0.057295800000000015,0.11459160000000004,91.34096436,0.7734933,-23.97256272000001
0.78,78,0.003,-1.0070000000000001,0.036000000000000004,0.11459160000000004,0.2291832000000001,0.286479,91.34096436,0.76776372,-23.96683314
0.79,79,0.003,-1.005,0.036000000000000004,0.057295800000000015,0.40107059999999994,0.40107059999999994,91.34096436,0.76203414,-23.96110356
0.8,80,0.003,-1.005,0.038,0.11459160000000004,0.6302538000000001,0.40107059999999994,91.33523478,0.75057498,-23.96110356
0.81,81,0.003,-1.006,0.038,0.40107059999999994,0.6875496,0.3437748,91.33523478,0.7448454000000001,-23.9496444
0.8200000000000001,82,0.004,-1.0070000000000001,0.038,0.572958,0.8021411999999999,0.286479,91.34096436,0.7448454000000001,-23.94391482
0.8300000000000001,83,0.005,-1.008,0.038,0.6875496,0.8021411999999999,0.286479,91.35242352,0.7391158200000001,-23.93818524
0.8400000000000001,84,0.005,-1.008,0.038,0.7448454000000001,0.7448454000000001,0.286479,91.3581531,0.73338624,-23.92672608
0.85,85,0.006,-1.006,0.039,0.5156622000000001,0.4583664000000001,0.11459160000000004,91.35242352,0.73338624,-23.9209965
0.86,86,0.006,-1.006,0.038,0.572958,0.1718874,0.11459160000000004,91.3581531,0.72765666,-23.9209965
0.87,87,0.003,-1.006,0.039,0.5156622000000001,0.11459160000000004,0.057295800000000015,91.36388268,0.72765666,-23.9209965
0.88,88,0.003,-1.0070000000000001,0.040999999999999995,0.286479,0.0,0.0,91.36961226,0.72765666,-23.9209965
0.89,89,0.002,-1.0090000000000001,0.044000000000000004,0.0,-0.057295800000000015,-0.057295800000000015,91.36961226,0.72765666,-23.9209965
0.9,90,0.002,-1.012,0.045,-0.286479,0.11459160000000004,-0.2291832000000001,91.3581531,0.7104679199999999,-23.92672608
0.91,91,0.002,-1.011,0.042,-0.3437748,0.1718874,-0.11459160000000004,91.35242352,0.7104679199999999,-23.9209965
0.92,92,0.006,-1.011,0.040999999999999995,-0.2291832000000001,0.1718874,-0.057295800000000015,91.35242352,0.7104679199999999,-23.9209965
0.93,93,0.006999999999999999,-1.0090000000000001,0.04,-0.057295800000000015,0.0,0.057295800000000015,91.35242352,0.7104679199999999,-23.9209965
0.9400000000000001,94,0.008,-1.005,0.042,0.0,-0.057295800000000015,0.11459160000000004,91.35242352,0.7104679199999999,-23.9209965
0.9500000000000001,95,0.006999999999999999,-1.003,0.043,0.057295800000000015,-0.1718874,0.057295800000000015,91.32377562,0.69900876,-23.92672608
0.9600000000000001,96,0.005,-1.002,0.043,0.057295800000000015,-0.11459160000000004,-0.057295800000000015,91.32377562,0.69900876,-23.92672608
0.97,97,0.003,-1.003,0.040999999999999995,0.0,-0.11459160000000004,-0.057295800000000015,91.32377562,0.70473834,-23.92672608
0.98,98,0.003,-1.002,0.042,-0.2291832000000001,-0.1718874,0.0,91.31804604,0.70473834,-23.932455659999995
0.99,99,0.003,-1.002,0.042,-0.4583664000000001,-0.1718874,-0.057295800000000015,91.31804604,0.70473834,-23.932455659999995
1.0,100,0.005,-1.005,0.038,-0.572958,0.057295800000000015,-0.057295800000000015,91.28939814,0.69900876,-23.932455659999995
1.01,101,0.006999999999999999,-1.005,0.039,-0.8021411999999999,-0.1718874,-0.057295800000000015,91.27793898,0.70473834,-23.932455659999995
1.02,102,0.006999999999999999,-1.004,0.044000000000000004,-0.9740286,-0.40107059999999994,-0.11459160000000004,91.27220940000001,0.70473834,-23.93818524
1.03,103,0.004,-1.004,0.047,-1.2605076000000002,-0.286479,-0.286479,91.25502066,0.70473834,-23.94391482
1.04,104,0.004,-1.005,0.046,-1.3178034,-0.057295800000000015,-0.286479,91.2435615,0.7104679199999999,-23.94391482
1.05,105,0.006,-1.008,0.042,-1.2605076000000002,0.2291832000000001,-0.286479,91.22637276,0.7161975,-23.93818524
1.06,106,0.008,-1.01,0.042,-1.145916,0.3437748,-0.1718874,91.21491359999999,0.7161975,-23.93818524
1.07,107,0.01,-1.012,0.042,-0.9740286,0.2291832000000001,-0.057295800000000015,91.20345444,0.7161975,-23.932455659999995
1.08,108,0.01,-1.013,0.042,-0.8594370000000001,-0.1718874,0.0,91.19772486,0.7161975,-23.93818524
1.09,109,0.011000000000000001,-1.0090000000000001,0.045,-0.9167328000000001,-0.5156622000000001,0.0,91.1862657,0.7161975,-23.93818524
1.1,110,0.009000000000000001,-1.004,0.046,-0.9740286,-0.40107059999999994,0.0,91.18053612,0.7161975,-23.94391482
1.11,111,0.005,-1.001,0.045,-0.9740286,-0.6302538000000001,-0.1718874,91.16907696,0.72192708,-23.9496444
1.12,112,0.001,-1.001,0.042,-0.9167328000000001,-0.572958,-0.3437748,91.16334738,0.72765666,-23.95537398
1.1300000000000001,113,0.0,-1.004,0.04,-0.9167328000000001,-0.4583664000000001,-0.4583664000000001,91.15188822,0.72765666,-23.96110356
1.1400000000000001,114,-0.001,-1.006,0.036000000000000004,-0.9167328000000001,-0.1718874,-0.5156622000000001,91.14042906,0.73338624,-23.96683314
1.1500000000000001,115,0.001,-1.0070000000000001,0.037000000000000005,-1.0886202,0.0,-0.4583664000000001,91.12324032,0.72765666,-23.96683314
1.1600000000000001,116,0.003,-1.0070000000000001,0.035,-1.0313244000000001,0.1718874,-0.40107059999999994,91.11178116,0.73338624,-23.96683314
1.17,117,0.005,-1.0070000000000001,0.036000000000000004,-0.8594370000000001,0.0,-0.40107059999999994,91.10605158,0.7391158200000001,-23.96683314
1.18,118,0.006,-1.005,0.038,-0.572958,0.0,-0.286479,91.10032199999999,0.7391158200000001,-23.96683314
1.19,119,0.008,-1.005,0.038,-0.1718874,-0.057295800000000015,-0.2291832000000001,91.09459242,0.7448454000000001,-23.96683314
1.2,120,0.008,-1.005,0.04,0.11459160000000004,-0.3437748,-0.11459160000000004,91.09459242,0.7448454000000001,-23.96683314
1.21,121,0.004,-1.0070000000000001,0.042,0.286479,-0.6875496,-0.057295800000000015,91.09459242,0.7448454000000001,-23.9782923
1.22,122,0.002,-1.0090000000000001,0.044000000000000004,0.2291832000000001,-0.6302538000000001,-0.11459160000000004,91.10032199999999,0.7448454000000001,-23.98402188
1.23,123,0.0,-1.01,0.04,0.1718874,-0.1718874,-0.11459160000000004,91.10032199999999,0.75057498,-23.98402188
1.24,124,0.0,-1.0090000000000001,0.035,0.286479,0.3437748,-0.057295800000000015,91.10605158,0.75057498,-23.98402188
1.25,125,0.001,-1.01,0.035,0.3437748,0.8021411999999999,0.0,91.09459242,0.73338624,-23.9782923
1.26,126,0.004,-1.0090000000000001,0.037000000000000005,0.286479,0.8021411999999999,-0.057295800000000015,91.09459242,0.73338624,-23.96683314
1.27,127,0.006,-1.006,0.039,0.2291832000000001,0.572958,-0.286479,91.10032199999999,0.7391158200000001,-23.96110356
1.28,128,0.008,-1.003,0.042,0.286479,0.3437748,-0.3437748,91.10032199999999,0.7448454000000001,-23.96110356
1.29,129,0.006999999999999999,-1.003,0.044000000000000004,0.286479,0.1718874,-0.40107059999999994,91.10605158,0.7448454000000001,-23.95537398
1.3,130,0.006,-1.003,0.040999999999999995,0.2291832000000001,0.1718874,-0.40107059999999994,91.10605158,0.7391158200000001,-23.95537398
1.31,131,0.006999999999999999,-1.005,0.04,0.1718874,0.057295800000000015,-0.286479,91.11178116,0.7391158200000001,-23.95537398
1.32,132,0.006,-1.006,0.038,0.11459160000000004,0.0,-0.11459160000000004,91.11178116,0.7448454000000001,-23.95537398
1.33,133,0.006999999999999999,-1.006,0.037000000000000005,0.0,0.0,0.0,91.11178116,0.7448454000000001,-23.95537398
1.34,134,0.006999999999999999,-1.0070000000000001,0.037000000000000005,0.0,0.11459160000000004,0.0,91.11178116,0.7448454000000001,-23.95537398
1.35,135,0.008,-1.0090000000000001,0.037000000000000005,0.11459160000000004,0.2291832000000001,-0.057295800000000015,91.09459242,0.7391158200000001,-23.9496444
1.36,136,0.006999999999999999,-1.01,0.037000000000000005,0.2291832000000001,0.3437748,0.0,91.10032199999999,0.7391158200000001,-23.9496444
1.37,137,0.006999999999999999,-1.0090000000000001,0.035,0.286479,0.286479,-0.057295800000000015,91.10032199999999,0.7448454000000001,-23.94391482
1.3800000000000001,138,0.005,-1.01,0.035,0.40107059999999994,0.1718874,-0.057295800000000015,91.10605158,0.7448454000000001,-23.94391482
1.3900000000000001,139,0.003,-1.0090000000000001,0.038,0.3437748,0.286479,0.0,91.11178116,0.7448454000000001,-23.93818524
1.4000000000000001,140,0.001,-1.008,0.038,0.3437748,0.40107059999999994,0.057295800000000015,91.10605158,0.72192708,-23.93818524
1.4100000000000001,141,0.001,-1.005,0.039,0.3437748,0.6875496,0.057295800000000015,91.11178116,0.72192708,-23.932455659999995
1.42,142,0.001,-1.004,0.038,0.4583664000000001,0.9740286,0.057295800000000015,91.11751074,0.72192708,-23.9209965
1.43,143,0.003,-1.004,0.036000000000000004,0.5156622000000001,1.3178034,0.0,91.12324032,0.72192708,-23.90953734
1.44,144,0.006,-1.0070000000000001,0.035,0.572958,1.432395,-0.057295800000000015,91.1289699,0.72192708,-23.89807818
1.45,145,0.008,-1.011,0.036000000000000004,0.6302538000000001,1.2605076000000002,-0.057295800000000015,91.1289699,0.72192708,-23.88088944
1.46,146,0.01,-1.012,0.035,0.5156622000000001,0.9740286,-0.057295800000000015,91.13469948,0.72192708,-23.869430280000003
1.47,147,0.01,-1.012,0.035,0.4583664000000001,0.572958,0.0,91.14042906,0.72192708,-23.86370070000001
1.48,148,0.009000000000000001,-1.011,0.035,0.3437748,0.11459160000000004,0.0,91.14042906,0.72192708,-23.86370070000001
1.49,149,0.006999999999999999,-1.008,0.035,0.2291832000000001,-0.286479,0.0,91.14615864,0.72765666,-23.869430280000003
1.5,150,0.005,-1.0070000000000001,0.036000000000000004,0.11459160000000004,-0.286479,-0.057295800000000015,91.11751074,0.7161975,-23.87515986
1.51,151,0.003,-1.006,0.038,0.1718874,0.1718874,-0.11459160000000004,91.12324032,0.7161975,-23.869430280000003
1.52,152,0.003,-1.006,0.037000000000000005,0.40107059999999994,0.8021411999999999,-0.286479,91.12324032,0.7161975,-23.86370070000001
1.53,153,0.004,-1.0070000000000001,0.035,0.6302538000000001,0.9167328000000001,-0.1718874,91.1289699,0.72192708,-23.85224154
1.54,154,0.005,-1.0070000000000001,0.034,0.6875496,0.572958,-0.057295800000000015,91.14042906,0.72192708,-23.84651196
1.55,155,0.006999999999999999,-1.008,0.035,0.6302538000000001,0.2291832000000001,0.057295800000000015,91.1289699,0.72192708,-23.84078238
1.56,156,0.009000000000000001,-1.0070000000000001,0.034,0.4583664000000001,0.1718874,0.286479,91.13469948,0.72192708,-23.84078238
1.57,157,0.01,-1.006,0.034,0.286479,-0.057295800000000015,0.4583664000000001,91.13469948,0.7161975,-23.84078238
1.58,158,0.008,-1.008,0.036000000000000004,0.40107059999999994,-0.11459160000000004,0.40107059999999994,91.14042906,0.7104679199999999,-23.84651196
1.59,159,0.008,-1.01,0.037000000000000005,0.40107059999999994,-0.11459160000000004,0.286479,91.14615864,0.7104679199999999,-23.84651196
1.6,160,0.006,-1.014,0.036000000000000004,0.40107059999999994,0.057295800000000015,0.2291832000000001,91.12324032,0.69900876,-23.84651196
1.61,161,0.006999999999999999,-1.0170000000000001,0.033,0.4583664000000001,0.1718874,0.286479,91.1289699,0.69900876,-23.84078238
1.62,162,0.006,-1.018,0.031,0.4583664000000001,0.2291832000000001,0.286479,91.13469948,0.69327918,-23.84078238
1.6300000000000001,163,0.006,-1.013,0.033,0.4583664000000001,-0.057295800000000015,0.286479,91.14042906,0.69327918,-23.84078238
1.6400000000000001,164,0.005,-1.0070000000000001,0.036000000000000004,0.572958,-0.40107059999999994,0.2291832000000001,91.14615864,0.6875496,-23.84651196
1.6500000000000001,165,0.004,-1.004,0.037000000000000005,0.4583664000000001,-0.572958,0.057295800000000015,91.13469948,0.68182002,-23.85224154
1.6600000000000001,166,0.002,-1.003,0.036000000000000004,0.1718874,-0.3437748,0.057295800000000015,91.13469948,0.68182002,-23.85797112
1.6700000000000002,167,0.004,-1.005,0.038,0.057295800000000015,-0.057295800000000015,0.057295800000000015,91.13469948,0.68182002,-23.85797112
1.68,168,0.005,-1.0070000000000001,0.035,0.1718874,0.11459160000000004,0.2291832000000001,91.14042906,0.67609044,-23.85797112
1.69,169,0.008,-1.0090000000000001,0.033,0.3437748,0.286479,0.40107059999999994,91.14042906,0.6703608600000001,-23.85224154
1.7,170,0.009000000000000001,-1.0090000000000001,0.032,0.4583664000000001,0.057295800000000015,0.6302538000000001,91.12324032,0.6703608600000001,-23.85224154
1.71,171,0.009000000000000001,-1.0070000000000001,0.034,0.286479,-0.2291832000000001,0.7448454000000001,91.1289699,0.66463128,-23.85224154
1.72,172,0.008,-1.0,0.036000000000000004,0.1718874,-0.2291832000000001,0.7448454000000001,91.1289699,0.6589017,-23.85797112
1.73,173,0.006,-1.001,0.035,0.2291832000000001,-0.1718874,0.7448454000000001,91.13469948,0.64744254,-23.85797112
1.74,174,0.003,-1.003,0.035,0.1718874,-0.1718874,0.6302538000000001,91.13469948,0.64171296,-23.85797112
1.75,175,0.003,-1.006,0.033,0.40107059999999994,-0.11459160000000004,0.572958,91.12324032,0.63598338,-23.86370070000001
1.76,176,0.004,-1.01,0.033,0.572958,0.0,0.5156622000000001,91.1289699,0.6302538000000001,-23.86370070000001
1.77,177,0.005,-1.013,0.034,0.6875496,-0.057295800000000015,0.4583664000000001,91.14042906,0.62452422,-23.86370070000001
1.78,178,0.006,-1.013,0.035,0.572958,-0.3437748,0.5156622000000001,91.14615864,0.61879464,-23.869430280000003
1.79,179,0.005,-1.012,0.035,0.5156622000000001,-0.4583664000000001,0.4583664000000001,91.15188822,0.61306506,-23.869430280000003
1.8,180,0.002,-1.008,0.034,0.5156622000000001,-0.40107059999999994,0.4583664000000001,91.13469948,0.6073354799999999,-23.87515986
1.81,181,0.001,-1.005,0.033,0.4583664000000001,-0.057295800000000015,0.5156622000000001,91.14042906,0.6016058999999999,-23.88088944
1.82,182,-0.001,-1.003,0.036000000000000004,0.2291832000000001,0.057295800000000015,0.4583664000000001,91.14615864,0.59587632,-23.87515986
1.83,183,0.0,-1.002,0.037000000000000005,0.057295800000000015,0.40107059999999994,0.1718874,91.14615864,0.59014674,-23.87515986
1.84,184,0.002,-1.004,0.035,0.057295800000000015,0.6875496,0.057295800000000015,91.14615864,0.59014674,-23.86370070000001
1.85,185,0.005,-1.005,0.034,0.1718874,1.0313244000000001,0.057295800000000015,91.13469948,0.59014674,-23.85224154
1.86,186,0.009000000000000001,-1.0070000000000001,0.036000000000000004,0.286479,1.145916,0.11459160000000004,91.13469948,0.59014674,-23.84078238
1.87,187,0.01,-1.006,0.038,0.057295800000000015,1.3178034,-0.057295800000000015,91.14042906,0.59014674,-23.82932322
1.8800000000000001,188,0.012,-1.008,0.039,0.11459160000000004,1.3178034,0.0,91.14042906,0.59014674,-23.81786406
1.8900000000000001,189,0.013000000000000001,-1.008,0.037000000000000005,0.1718874,1.2605076000000002,0.11459160000000004,91.14042906,0.59014674,-23.8064049
1.9000000000000001,190,0.012,-1.0090000000000001,0.035,0.2291832000000001,0.6875496,0.1718874,91.1289699,0.6016058999999999,-23.79494574
1.9100000000000001,191,0.01,-1.0090000000000001,0.036000000000000004,0.1718874,0.286479,0.2291832000000001,91.13469948,0.59587632,-23.78921616
1.9200000000000002,192,0.008,-1.0090000000000001,0.035,0.057295800000000015,0.057295800000000015,0.2291832000000001,91.13469948,0.59587632,-23.78921616
1.93,193,0.006999999999999999,-1.006,0.033,0.0,0.0,0.2291832000000001,91.13469948,0.59014674,-23.78921616
1.94,194,0.006,-1.006,0.033,0.286479,-0.057295800000000015,0.1718874,91.13469948,0.59014674,-23.78921616
1.95,195,0.006,-1.0070000000000001,0.034,0.3437748,0.057295800000000015,0.1718874,91.11178116,0.59014674,-23.78921616
1.96,196,0.006,-1.008,0.036000000000000004,0.5156622000000001,0.11459160000000004,0.1718874,91.11751074,0.59014674,-23.78921616
1.97,197,0.006,-1.01,0.036000000000000004,0.572958,0.3437748,0.1718874,91.12324032,0.5844171599999999,-23.78348658
1.98,198,0.005,-1.011,0.036000000000000004,0.572958,0.4583664000000001,0.1718874,91.1289699,0.5844171599999999,-23.777757
1.99,199,0.006999999999999999,-1.012,0.037000000000000005,0.6875496,0.5156622000000001,0.2291832000000001,91.13469948,0.5786875800000001,-23.77202742
2.0,200,0.008,-1.013,0.036000000000000004,0.9167328000000001,0.3437748,0.2291832000000001,91.14042906,0.5844171599999999,-23.76629784
2.01,201,0.008,-1.013,0.038,0.9740286,0.2291832000000001,0.3437748,91.14615864,0.5786875800000001,-23.76629784
2.02,202,0.006,-1.013,0.04,0.9740286,0.11459160000000004,0.3437748,91.1576178,0.5786875800000001,-23.76629784
2.03,203,0.002,-1.015,0.042,0.8021411999999999,0.0,0.3437748,91.16907696,0.5729580000000001,-23.76629784
2.04,204,0.0,-1.018,0.046,0.572958,0.057295800000000015,0.286479,91.17480654,0.5729580000000001,-23.760568260000003
2.05,205,-0.002,-1.023,0.047,0.3437748,0.5156622000000001,0.1718874,91.18053612,0.55003968,-23.760568260000003
2.0599999999999996,206,-0.002,-1.025,0.040999999999999995,0.0,1.2605076000000002,-0.057295800000000015,91.1862657,0.55003968,-23.749109100000002
2.07,207,-0.001,-1.025,0.036000000000000004,-0.11459160000000004,1.8907614,-0.1718874,91.18053612,0.55003968,-23.73192036
2.0799999999999996,208,-0.002,-1.02,0.034,-0.11459160000000004,2.291832,0.0,91.18053612,0.55003968,-23.70900204
2.09,209,-0.004,-1.016,0.032,0.0,2.7501984,0.1718874,91.18053612,0.5443101,-23.68035414
2.0999999999999996,210,-0.003,-1.0090000000000001,0.03,0.1718874,2.4637194,0.572958,91.17480654,0.53285094,-23.65743582
2.11,211,0.0,-1.003,0.03,0.1718874,1.6615782,1.0313244000000001,91.17480654,0.52139178,-23.64024708
2.1199999999999997,212,0.001,-0.9990000000000001,0.034,0.0,0.9740286,1.3178034,91.17480654,0.5042030399999999,-23.62878792
2.13,213,0.003,-1.0,0.031,-0.286479,0.3437748,1.432395,91.16907696,0.49274388,-23.62878792
2.1399999999999997,214,0.002,-1.004,0.026000000000000002,-0.40107059999999994,-0.11459160000000004,1.4896908000000002,91.16334738,0.47555514,-23.62878792
2.15,215,-0.003,-1.01,0.024,-0.5156622000000001,-0.3437748,1.2605076000000002,91.13469948,0.4526368200000001,-23.634517499999998
2.1599999999999997,216,-0.012,-1.015,0.022000000000000002,-0.7448454000000001,-0.057295800000000015,1.145916,91.1289699,0.44117766,-23.634517499999998
2.17,217,-0.018000000000000002,-1.018,0.021,-1.0886202,1.0313244000000001,1.0313244000000001,91.11751074,0.4297185000000001,-23.62305834
2.1799999999999997,218,-0.023,-1.021,0.015,-1.2605076000000002,2.1199446,0.9167328000000001,91.10605158,0.41825934,-23.605869600000002
2.19,219,-0.026000000000000002,-1.022,0.013999999999999999,-1.3750992,2.9220858,1.0886202,91.08886284,0.40680018,-23.57722170000001
2.1999999999999997,220,-0.024,-1.024,0.013999999999999999,-1.5469866,3.3231564,1.145916,91.06021494,0.38388186,-23.54284422
2.21,221,-0.021,-1.0290000000000001,0.016,-1.9480572,4.1252976000000015,1.2605076000000002,91.0430262,0.36669312,-23.50273716
2.2199999999999998,222,-0.02,-1.035,0.016,-2.5210152000000003,4.8701430000000006,1.3178034,91.01437829999999,0.35523396,-23.45690052
2.23,223,-0.019,-1.037,0.011000000000000001,-2.9793816000000004,5.6149884000000005,1.432395,90.9857304,0.33804522,-23.39960472
2.2399999999999998,224,-0.018000000000000002,-1.033,0.005,-3.1512689999999997,5.72958,1.5469866,90.95135292,0.31512690000000004,-23.3480385
2.25,225,-0.017,-1.026,-0.001,-3.2658606,5.3858052,1.6615782,90.90551628,0.29220857999999994,-23.29074270000001
2.26,226,-0.015,-1.018,-0.003,-3.4377480000000005,4.5263682,1.9480572,90.8711388,0.26929026,-23.25063564
2.27,227,-0.01,-1.01,-0.005,-3.8388186,3.5523396000000003,2.2345362,90.83103174,0.24637194,-23.21625816
2.28,228,-0.004,-1.005,-0.008,-4.0680017999999984,2.6929026,2.4064236,90.79092468,0.22345362,-23.18761026
2.29,229,-0.003,-1.004,-0.008,-4.0680017999999984,2.1199446,2.4064236,90.74508804,0.19480572,-23.17042152
2.3,230,-0.006,-1.006,-0.008,-4.2398892,2.1199446,2.1772404,90.68779224,0.1718874,-23.1475032
2.31,231,-0.01,-1.0090000000000001,-0.012,-4.5263682,2.5783110000000002,1.8907614,90.6419556,0.14896908,-23.12458488
2.32,232,-0.011000000000000001,-1.011,-0.017,-4.9274388,2.7501984,1.7188740000000002,90.59038938,0.13178034,-23.09593698
2.3299999999999996,233,-0.008,-1.016,-0.019,-5.3858052,2.4637194,1.8907614,90.53882316,0.10886202,-23.07301866
2.34,234,-0.006999999999999999,-1.021,-0.023,-5.958763200000001,2.2345362,2.291832,90.47579778,0.0859437,-23.05010034
2.3499999999999996,235,-0.005,-1.026,-0.03,-6.589017,2.1772404,2.8074942000000003,90.39558366,0.057295800000000015,-23.02718202
2.36,236,-0.005,-1.032,-0.037000000000000005,-7.2765666,2.4064236,3.0939732,90.32109912,0.02291832,-23.0042637
2.3699999999999997,237,-0.003,-1.041,-0.045,-8.078707799999998,2.7501984,2.9220858,90.23515542,0.0,-22.98134538
2.38,238,-0.001,-1.044,-0.040999999999999995,-9.5111028,3.1512689999999997,2.6356068,90.13775256,-0.028647900000000007,-22.95269748
2.3899999999999997,239,0.0,-1.043,-0.038,-10.7716104,2.9793816000000004,2.291832,90.02889053999998,-0.05156622,-22.92404958
2.4,240,0.004,-1.037,-0.043,-12.1467096,2.5783110000000002,2.0053530000000004,89.89138061999998,-0.07448454,-22.89540168
2.4099999999999997,241,0.006,-1.034,-0.046,-13.407217200000002,1.8907614,1.8334656000000005,89.75387070000002,-0.09167328,-22.87821294
2.42,242,0.006999999999999999,-1.034,-0.049,-14.896907999999998,0.8594370000000001,1.6615782,89.60490161999998,-0.10886202,-22.87248336
2.4299999999999997,243,0.009000000000000001,-1.0390000000000001,-0.049,-16.2147114,0.3437748,1.4896908000000002,89.4387438,-0.12605075999999998,-22.87248336
2.44,244,0.016,-1.05,-0.062,-17.7044022,0.3437748,1.5469866,89.26112682,-0.14323950000000002,-22.866753780000003
2.4499999999999997,245,0.021,-1.052,-0.075,-19.2513888,-0.6875496,1.8907614,89.05486194,-0.16042824,-22.87821294
2.46,246,0.025,-1.05,-0.085,-19.7097552,-2.5210152000000003,2.2345362,88.85432664,-0.18334656,-22.90113126
2.4699999999999998,247,0.027000000000000003,-1.0490000000000002,-0.094,-20.9702628,-4.2398892,2.4637194,88.64233218000004,-0.21199446,-22.9469679
2.48,248,0.032,-1.048,-0.09699999999999999,-22.4599536,-5.9014674000000005,2.9220858,88.41314897999996,-0.24064236,-23.00999328
2.4899999999999998,249,0.035,-1.04,-0.106,-23.663165399999997,-7.6776372,3.2658606,88.17823620000001,-0.27501984,-23.08447782
2.5,250,0.037000000000000005,-1.03,-0.12,-25.0382646,-9.7975818,3.2658606,87.91467551999996,-0.30939732,-23.18188068
2.51,251,0.034,-1.018,-0.128,-26.814434400000003,-11.917526400000002,3.0939732,87.64538526,-0.3437748,-23.30220186
2.52,252,0.032,-1.005,-0.132,-27.903054600000004,-14.037471,2.6356068,87.36463583999998,-0.3724227000000001,-23.44544136
2.53,253,0.031,-0.997,-0.126,-29.67922440000001,-16.2147114,2.0626488000000003,87.06669767999998,-0.4010706000000001,-23.605869600000002
2.54,254,0.03,-0.9890000000000001,-0.124,-31.2835068,-17.761698000000006,1.5469866,86.75157078,-0.42398892,-23.78921616
2.55,255,0.027999999999999997,-0.981,-0.124,-32.6013102,-19.2513888,1.145916,86.41925513999998,-0.44117766,-23.9782923
2.56,256,0.025,-0.973,-0.132,-33.9764094,-20.626488000000002,0.6302538000000001,86.07548034,-0.4583664000000001,-24.18455718
2.57,257,0.023,-0.968,-0.147,-35.17962120000001,-21.5432208,0.2291832000000001,85.72597596,-0.47555514,-24.40228122000001
2.5799999999999996,258,0.023,-0.9640000000000001,-0.16,-36.1536498,-22.631841,-0.057295800000000015,85.36501242,-0.4870143000000001,-24.631464420000004
2.59,259,0.025,-0.9620000000000001,-0.163,-37.52874900000001,-24.2934192,-0.3437748,84.98686014,-0.5042030399999999,-24.87783636
2.5999999999999996,260,0.025,-0.9540000000000001,-0.16899999999999998,-39.247623,-26.069589,-0.8021411999999999,84.59151912,-0.5099326200000001,-25.13566746
2.61,261,0.02,-0.945,-0.17800000000000002,-41.5967508,-27.6165756,-1.7188740000000002,84.17325978,-0.5156622000000001,-25.41641688
2.6199999999999997,262,0.008,-0.9420000000000001,-0.18,-43.3729206,-28.418716800000002,-2.6929026,83.73781170000002,-0.5156622000000001,-25.70289588
2.63,263,-0.002,-0.943,-0.18100000000000002,-45.3782736,-28.5906042,-3.4950437999999995,83.28517488,-0.5099326200000001,-25.99510446
2.6399999999999997,264,-0.01,-0.948,-0.192,-47.9565846,-28.132237800000002,-3.8961144,82.80389016000002,-0.5042030399999999,-26.28158346
2.65,265,-0.017,-0.948,-0.20600000000000002,-50.1911208,-28.1895336,-4.010706000000001,82.29395754,-0.49274388,-26.56806246
2.6599999999999997,266,-0.025,-0.943,-0.21100000000000002,-52.0245864,-28.2468294,-3.9534102,81.77256575999998,-0.49274388,-26.85454146
2.67,267,-0.035,-0.935,-0.215,-54.3737142,-27.960350399999996,-3.6669312000000014,81.22825566,-0.49274388,-27.14102046
2.6799999999999997,268,-0.047,-0.9159999999999999,-0.22399999999999998,-58.15523699999999,-27.788463,-3.0939732,80.64383849999999,-0.5042030399999999,-27.42749946
2.69,269,-0.049,-0.895,-0.247,-61.87946400000001,-27.559279800000002,-2.6356068,80.02504386000003,-0.52139178,-27.70824888000001
2.6999999999999997,270,-0.052000000000000005,-0.885,-0.245,-65.08802879999999,-26.241476399999996,-3.2085647999999996,79.36614216000002,-0.53858052,-27.97180956
2.71,271,-0.064,-0.867,-0.23800000000000002,-68.8695516,-23.14750320000001,-4.1825934,78.67286298,-0.5443101,-28.21245192
2.7199999999999998,272,-0.084,-0.843,-0.262,-73.052145,-18.7357266,-4.9274388,77.93374716000002,-0.53285094,-28.41298722
2.73,273,-0.091,-0.823,-0.267,-76.60448459999998,-15.068795399999999,-4.8128472,77.16025386,-0.52139178,-28.579145040000004
2.7399999999999998,274,-0.095,-0.813,-0.22,-80.67248640000003,-12.0894138,-4.010706000000001,76.34092392,-0.5156622000000001,-28.71092538000001
2.75,275,-0.09300000000000001,-0.8059999999999999,-0.228,-85.5999252,-11.1153852,-2.7501984,75.47575734,-0.52712136,-28.83697614
2.76,276,-0.08,-0.782,-0.306,-89.83981440000002,-9.9694692,-0.11459160000000004,74.56475412,-0.55576926,-28.940108580000004
2.77,277,-0.061,-0.758,-0.317,-89.83981440000002,-5.6722842,2.1199446,73.6537509,-0.6016058999999999,-28.99740438
2.78,278,-0.049,-0.7390000000000001,-0.3,-89.4387438,-4.7555514,2.9793816000000004,72.74847725999999,-0.65317212,-29.03751144
2.79,279,-0.036000000000000004,-0.721,-0.306,-89.6106312,-4.6409598,2.1772404,71.83747404,-0.69900876,-29.08334808
2.8,280,-0.026000000000000002,-0.705,-0.326,-89.7825186,-4.1825934,-0.1718874,70.92647081999998,-0.7161975,-29.1349143
2.81,281,-0.019,-0.687,-0.331,-89.55333540000002,-4.010706000000001,-3.2658606,70.0154676,-0.7104679199999999,-29.192210100000004
2.82,282,-0.02,-0.677,-0.316,-87.7198698,-2.1772404,-6.3025379999999975,69.1273827,-0.66463128,-29.23804674
2.8299999999999996,283,-0.021,-0.684,-0.364,-86.2874748,0.4583664000000001,-8.307891,68.25075696,-0.59587632,-29.27242422
2.84,284,-0.033,-0.706,-0.441,-84.3394176,-0.1718874,-8.880849000000003,67.39704954,-0.52712136,-29.312531279999995
2.8499999999999996,285,-0.037000000000000005,-0.7509999999999999,-0.465,-78.5525418,-5.6149884000000005,-8.7089616,66.59490833999999,-0.47555514,-29.40420456
2.86,286,-0.025,-0.8059999999999999,-0.508,-75.2866812,-11.0007936,-8.651665800000002,65.8328742,-0.44690724,-29.54744406
2.8699999999999997,287,0.005,-0.841,-0.545,-72.25000379999999,-15.527161800000002,-8.8235532,65.09948796,-0.43544808,-29.72506104
2.88,288,0.033,-0.845,-0.5539999999999999,-67.0933818,-18.506543399999998,-9.453807,64.42339752000001,-0.43544808,-29.94278508
2.8899999999999997,289,0.061,-0.828,-0.556,-61.4210976,-17.8189938,-10.599723,63.80460287999999,-0.41825934,-30.14904996
2.9,290,0.06,-0.787,-0.5579999999999999,-55.576926,-16.2147114,-11.8602306,63.23164488,-0.38388186,-30.34958526
2.9099999999999997,291,0.027999999999999997,-0.742,-0.598,-48.7587258,-11.6310474,-12.6623718,62.738901,-0.32658606,-30.51574308
2.92,292,-0.02,-0.72,-0.642,-40.7373138,-5.3858052,-13.2353298,62.32637124,-0.24064236,-30.624605100000004
2.9299999999999997,293,-0.078,-0.701,-0.679,-31.455394199999997,0.11459160000000004,-12.6623718,62.01124434000001,-0.13178034,-30.68763048000001
2.94,294,-0.128,-0.6709999999999999,-0.7120000000000001,-21.772404,0.40107059999999994,-11.2299768,61.78779072,-0.03437748,-30.73346712
2.9499999999999997,295,-0.16899999999999998,-0.6459999999999999,-0.753,-11.45916,-1.4896908000000002,-9.453807,61.592985,0.0,-30.7964925
2.96,296,-0.17,-0.635,-0.7170000000000001,-1.145916,-1.145916,-8.651665800000002,61.58152584,0.06875496,-30.84805872
2.9699999999999998,297,-0.142,-0.64,-0.657,7.734933000000002,0.3437748,-9.740286,61.65601038,0.15469866,-30.88816578
2.98,298,-0.095,-0.6709999999999999,-0.6509999999999999,14.037471,3.2658606,-12.605075999999999,61.79924988000001,0.28647900000000004,-30.91681368
2.9899999999999998,299,-0.024,-0.7120000000000001,-0.6729999999999999,18.277360199999997,5.5003968,-16.7876694,61.98259644,0.4583664000000001,-30.94546158
3.0,300,0.044000000000000004,-0.726,-0.644,21.600516600000002,6.875496000000001,-21.314037600000002,62.18313174,0.68182002,-30.97983906
3.01,301,0.085,-0.705,-0.6409999999999999,25.9549974,10.1413566,-24.9809688,62.44669242,0.95111028,-31.00275738
3.02,302,0.08,-0.662,-0.665,32.6013102,11.745639,-27.272800800000002,62.77327848,1.24904844,-31.01994612
3.03,303,0.036000000000000004,-0.647,-0.648,39.6486936,12.6623718,-28.4760126,63.17434908,1.55844576,-31.03140528
3.04,304,-0.032,-0.639,-0.5770000000000001,45.4928652,14.266654199999998,-28.6479,63.63271548,1.87930224,-31.03140528
3.05,305,-0.08800000000000001,-0.603,-0.5920000000000001,50.0192334,15.3552744,-27.6165756,64.12545936000001,2.18869956,-31.00848696
3.06,306,-0.11199999999999999,-0.581,-0.569,55.1758554,16.272007199999994,-26.0122932,64.68695819999999,2.4923672999999997,-30.9683799
3.07,307,-0.1,-0.539,-0.491,60.44706899999999,17.4179232,-26.1841806,65.30002326,2.8074942000000003,-30.91681368
3.08,308,-0.07,-0.486,-0.478,63.311859,18.5638392,-28.3041252,65.94173622000001,3.1398098400000003,-30.8537883
3.09,309,-0.001,-0.415,-0.418,68.8695516,23.0902074,-33.116972399999995,66.64074498,3.5351508600000003,-30.7678446
3.0999999999999996,310,0.049,-0.382,-0.457,73.85428619999998,23.204798999999998,-36.096354,67.38559038,3.95913978,-30.68763048000001
3.11,311,0.085,-0.409,-0.509,76.6617804,21.485925,-37.9871154,68.16481326,4.39458786,-30.624605100000004
3.1199999999999997,312,0.10099999999999999,-0.474,-0.509,77.635809,19.136797199999997,-39.1330314,68.94976572,4.83003594,-30.58449804
3.13,313,0.09300000000000001,-0.516,-0.4970000000000001,76.77637200000002,17.9335854,-39.47680620000001,69.72898860000001,5.2654840200000015,-30.55012056
3.1399999999999997,314,0.081,-0.525,-0.461,75.45856859999998,14.1520626,-40.10706,70.49675232,5.6952025200000005,-30.54439098000001
3.15,315,0.075,-0.473,-0.392,73.338624,8.651665800000002,-41.1383844,71.22440897999998,6.113461859999999,-30.59022762
3.1599999999999997,316,0.078,-0.38299999999999995,-0.331,74.2553568,3.6669312000000014,-41.9978214,71.96925438,6.5317212,-30.67617132
3.17,317,0.087,-0.32299999999999995,-0.331,75.1147938,1.432395,-42.7999626,72.71982936,6.94998054,-30.78503334
3.1799999999999997,318,0.111,-0.267,-0.243,78.32335859999998,0.572958,-44.977203,73.49905224,7.385428619999999,-30.905354520000003
3.19,319,0.14800000000000002,-0.226,-0.191,83.76645959999998,0.8021411999999999,-47.784697200000004,74.32984134,7.85525418,-31.01994612
3.1999999999999997,320,0.14800000000000002,-0.218,-0.195,86.7458412,-3.7242269999999995,-48.128472,75.18354876,8.319350159999999,-31.17464478
3.21,321,0.10300000000000001,-0.237,-0.159,89.26685640000002,-9.2819196,-44.8626114,76.0601745,8.7376095,-31.3694505
3.2199999999999998,322,0.054000000000000006,-0.217,-0.107,92.64730859999999,-14.209358400000001,-41.0810886,76.97117771999999,9.11576178,-31.592904120000004
3.23,323,0.024,-0.19,-0.055,96.9444936,-19.8816426,-38.90384820000001,77.91082884,9.47099574,-31.86219438
3.2399999999999998,324,0.027999999999999997,-0.184,0.015,102.1011156,-23.491278,-38.90384820000001,78.89631659999998,9.82050012,-32.16586212
3.25,325,0.033,-0.17,0.053,107.6015124,-31.79916900000001,-39.19032720000001,79.93337058,10.16427492,-32.53828482
3.26,326,0.068,-0.142,0.145,113.84675459999998,-37.013086799999996,-38.961144,81.0162612,10.50804972,-32.96227374
3.27,327,0.09300000000000001,-0.154,0.165,119.748222,-42.112413000000004,-38.2162986,82.15071803999999,10.84609494,-33.42636972
3.28,328,0.091,-0.177,0.168,122.040054,-44.977203,-37.757932200000006,83.30236362,11.18414016,-33.90765444
3.29,329,0.07,-0.19,0.187,123.4151532,-44.34694920000001,-38.61736920000001,84.46546836,11.53937412,-34.38320958
3.3,330,-0.002,-0.24,0.20199999999999999,124.7329566,-41.539455,-37.41415739999999,85.65722099999998,11.90033766,-34.81865766
3.31,331,-0.048,-0.24,0.201,122.5557162,-37.757932200000006,-37.872523799999996,86.82032574,12.27276036,-35.20826909999999
3.32,332,-0.055,-0.204,0.182,121.5816876,-32.7731976,-41.0237928,87.98916005999996,12.67956054,-35.54631432
3.33,333,-0.062,-0.187,0.155,122.040054,-30.4813656,-46.696077,89.16372396,13.15511568,-35.84998205999999
3.34,334,-0.071,-0.177,0.128,123.9308154,-26.5852512,-50.706783,90.36120618,13.67650746,-36.10781315999999
3.3499999999999996,335,-0.053,-0.155,0.12300000000000001,125.0194356,-18.7357266,-54.08723520000001,91.59879546,14.22654714,-36.27397098
3.36,336,-0.045,-0.12300000000000001,0.155,127.9988172,-15.6990492,-55.6915176,92.87076222,14.799505140000004,-36.394292160000006
3.3699999999999997,337,0.011000000000000001,-0.127,0.18600000000000005,130.11876180000002,-10.657018800000001,-55.7488134,94.17710646,15.37246314,-36.45158796
3.38,338,0.114,-0.13699999999999998,0.147,127.25397179999999,-2.0626488000000003,-56.0925882,95.47772112,15.93969156,-36.40575132
3.3899999999999997,339,0.153,-0.139,0.09300000000000001,125.0194356,1.7761698000000001,-56.3790672,96.7726062,16.501190400000002,-36.30834846
3.4,340,0.077,-0.16699999999999998,-0.025,119.1179682,5.2712136,-52.8840234,98.01592506,17.02258218,-36.16510896000001
3.4099999999999997,341,0.094,-0.135,-0.193,104.7367224,14.5531332,-47.6128098,99.14465232,17.46948942,-35.93019618
3.42,342,0.077,-0.098,-0.258,97.91852220000001,22.517249399999997,-45.893935799999994,100.23327252,17.88201918,-35.60361012
3.4299999999999997,343,-0.022000000000000002,-0.013000000000000001,-0.265,92.81919599999999,33.0596766,-44.404245,101.30470398,18.2487123,-35.16816204
3.44,344,-0.044000000000000004,0.16,-0.249,96.37153559999999,53.9153478,-40.4508348,102.48499746,18.52373214,-34.5207195
3.4499999999999997,345,0.042,0.361,-0.09,111.61221840000002,85.1988546,-35.5806918,103.91166288,18.66124206,-33.55815006
3.46,346,0.08900000000000001,0.43799999999999994,0.3670000000000001,150.1722918,134.358651,-28.7051958,105.8826384,18.56956878,-32.114295899999995
3.4699999999999998,347,-0.087,0.225,1.4040000000000001,201.2801454,177.78886740000004,-9.9121734,108.47240856,18.1054728,-30.30374862
3.48,348,-0.42,-0.389,2.028,245.1114324,201.5666244,28.361421000000004,111.49762679999999,17.11998504,-28.43017596
3.4899999999999998,349,-0.4270000000000001,-1.252,2.6460000000000004,299.2559634,209.8745154,48.185767799999994,115.0213185,15.81937038,-26.61962868
3.5,350,0.725,-3.5239999999999996,3.0189999999999997,337.5868536000001,209.8172196,65.8328742,118.84294836,14.25519504,-24.99242796
3.51,351,3.238,-3.9989999999999997,2.623,538.2367452000002,195.5505654,172.80413280000005,124.47512550000002,11.75136858,-24.15590928
3.52,352,2.333,-1.32,3.362,992.5351434,93.7359288,48.7587258,134.63940042,10.7429625,-23.58295128
3.53,353,1.072,-0.42,1.9369999999999998,783.9211356000003,172.746837,-18.048177,142.80978149999999,9.52829154,-22.22504082
3.54,354,1.185,-1.2830000000000001,3.234,98.2050012,49.5035712,-12.891555,143.86402422,9.20170548,-21.82397022
3.55,355,0.631,-0.872,3.326,145.0156698,61.30650600000001,-23.663165399999997,145.4167404,8.823553200000003,-21.26820096
3.56,356,0.35600000000000004,-0.83,2.477,147.4793892,88.17823620000001,-17.131444199999994,146.99810448,8.17611066,-20.63794716
3.57,357,-0.27,-0.635,1.736,174.0646404,110.81007720000001,-13.8082878,148.84302924000005,7.29375534,-19.93320882
3.58,358,-0.369,-0.247,1.379,207.983754,114.1905294,-10.1413566,151.01454006,6.34264506,-19.27430712
3.59,359,-0.419,-0.48100000000000004,1.173,238.8661902,101.9292282,-17.4179232,153.48971862000005,5.5003968,-18.64405332
3.5999999999999996,360,-0.17300000000000001,-0.795,1.348,259.1489034,101.35627020000001,-11.0580894,156.15397332,4.60658232,-18.11120238
3.61,361,0.061,-0.8059999999999999,1.364,269.92051380000004,106.2264132,-1.3178034,158.9099013,3.6096354,-17.69294304
3.6199999999999997,362,0.055,-0.41,1.4080000000000001,267.1703154,92.93378759999999,-1.8334656000000005,161.62572222,2.7215505,-17.354897819999998
3.63,363,-0.32299999999999995,0.498,1.475,263.3314968,98.6060718,5.72958,164.2957065,1.7475218999999995,-17.12571462
3.6399999999999997,364,-0.158,0.142,1.6230000000000002,262.75853880000005,102.7313694,18.449247600000003,166.94850204000005,0.6875496,-17.0455005
3.65,365,-0.054000000000000006,0.053,1.764,260.58129840000004,92.4754212,19.767051000000002,169.58410884,-0.27501984,-17.05123008
3.6599999999999997,366,-0.031,-0.226,1.896,245.7416862,77.2920342,18.6784308,172.06501698,-1.08289062,-17.108525880000002
3.67,367,0.075,-0.387,1.709,217.15108199999997,63.6556338,23.0902074,174.2651757,-1.75898106,-17.26322454
3.6799999999999997,368,0.006999999999999999,-0.451,1.5430000000000001,183.2319684,42.2270046,19.9962342,176.1272892,-2.21161788,-17.4179232
3.69,369,-0.16699999999999998,-0.287,1.505,158.8239576,32.4294228,17.3606274,177.74303075999995,-2.5611222600000003,-17.566892279999998
3.6999999999999997,370,-0.14,-0.154,1.501,144.6145992,32.085648000000006,12.7196676,179.20980324,-2.8934379,-17.68148388
3.71,371,-0.201,-0.285,1.494,149.7139254,38.90384820000001,7.0473834,-179.26709904,-3.30023808,-17.75023884
3.7199999999999998,372,-0.163,-0.195,1.338,176.9867262,55.06126379999999,-1.3178034,-177.47947008,-3.86173692,-17.755968420000006
3.73,373,-0.111,0.255,1.358,180.6536574,55.92070079999999,-3.7815228,-175.65173406,-4.43469492,-17.755968420000006
3.7399999999999998,374,-0.098,0.193,1.224,127.3112676,40.8519054,3.0939732,-174.36257856,-4.85295426,-17.824723380000005
3.75,375,-0.091,-0.015,1.133,104.6794266,36.4974246,6.7609043999999985,-173.30260626,-5.2139178,-17.9335854
3.76,376,-0.024,-0.013000000000000001,1.001,100.61142480000001,31.22621100000001,11.2872726,-172.27128186,-5.51758554,-18.08255448
3.77,377,-0.043,-0.026000000000000002,0.932,98.262297,26.9863218,15.183387000000002,-171.25714620000005,-5.76968706,-18.27163062
3.78,378,-0.04,0.078,0.7659999999999999,93.9078162,26.69984280000001,19.8816426,-170.2831176,-6.01032942,-18.51227298
3.79,379,-0.039,-0.002,0.753,90.69925140000001,26.5852512,22.4026578,-169.33773689999995,-6.23951262,-18.78156324
3.8,380,0.009000000000000001,-0.10300000000000001,0.7240000000000001,61.9367598,27.559279800000002,34.091001,-168.68456478,-6.4457775,-19.17117468
3.81,381,-0.063,0.001,0.639,20.626488000000002,30.194886600000004,32.4294228,-168.43819284,-6.6749607000000015,-19.55505654
3.82,382,-0.09699999999999999,0.27899999999999997,0.523,15.5844576,28.6479,14.5531332,-168.25484627999995,-6.92133264,-19.76132142
3.83,383,-0.032,0.036000000000000004,0.508,-2.5783110000000002,24.1788276,2.1199446,-168.27776459999995,-7.15051584,-19.83580596
3.84,384,-0.06,0.247,0.45299999999999996,-23.14750320000001,25.8977016,-1.432395,-168.51267738,-7.39688778,-19.88737218
3.8499999999999996,385,-0.07200000000000001,0.315,0.47100000000000003,-26.5852512,26.356068,-4.6409598,-168.77623806000003,-7.65471888,-19.89883134
3.86,386,-0.057,0.15,0.532,-40.4508348,26.5852512,-8.9954406,-169.19449740000005,-7.92400914,-19.87018344
3.8699999999999997,387,-0.036000000000000004,0.015,0.5379999999999999,-55.3477428,27.903054600000004,-11.6310474,-169.7674554,-8.210488139999999,-19.81861722
3.88,388,-0.04,0.105,0.5579999999999999,-65.603691,25.6112226,-13.407217200000002,-170.44927542,-8.47404882,-19.738403100000006
3.8899999999999997,389,-0.05,0.19899999999999998,0.652,-69.2706222,21.485925,-14.4958374,-171.1712025,-8.69750244,-19.64100024
3.9,390,-0.07400000000000001,0.258,0.754,-70.0154676,18.048177,-14.610429000000002,-171.89312958,-8.88657858,-19.53213822
3.9099999999999997,391,-0.163,0.28300000000000003,0.9,-70.7030172,15.756345,-15.011499599999999,-172.63224540000004,-9.04700682,-19.41181704
3.92,392,-0.149,0.345,0.9520000000000001,-68.35388940000001,16.673077799999998,-13.464512999999998,-173.34271332,-9.21889422,-19.308684600000007
3.9299999999999997,393,-0.17,0.35700000000000004,1.036,-67.1506776,16.558486199999994,-13.521808800000002,-174.04172208,-9.39078162,-19.19982258
3.94,394,-0.174,0.371,1.057,-64.0567044,16.386598799999998,-14.266654199999998,-174.71781252,-9.55693944,-19.08523098
3.9499999999999997,395,-0.218,0.36,1.125,-61.6502808,16.501190400000002,-13.2926256,-175.3537959,-9.72882684,-18.97636896
3.96,396,-0.245,0.41100000000000003,1.1740000000000002,-57.92605379999999,17.3606274,-12.2040054,-175.96113137999996,-9.90071424,-18.87323652
3.9699999999999998,397,-0.299,0.418,1.197,-52.6548402,17.303331600000003,-11.745639,-176.51690064,-10.07260164,-18.77583366
3.98,398,-0.302,0.225,1.204,-52.54024860000001,16.673077799999998,-11.5737516,-177.06694032,-10.23875946,-18.6784308
3.9899999999999998,399,-0.29600000000000004,0.171,1.251,-48.9306132,16.386598799999998,-10.4851314,-177.58260252,-10.399187699999999,-18.58675752
4.0,400,-0.29,0.161,1.304,-48.8733174,12.834259199999998,-10.599723,-178.09253514,-10.52523846,-18.49508424
4.01,401,-0.295,0.183,1.308,-48.185767799999994,7.5057497999999985,-9.568398599999998,-178.60246776000002,-10.59399342,-18.40341096
4.02,402,-0.285,0.172,1.317,-43.7166954,-0.8594370000000001,-8.5370742,-179.06083415999996,-10.58253426,-18.32319684
4.03,403,-0.303,0.126,1.317,-36.32553720000001,-9.0527364,-5.1566220000000005,-179.43898644,-10.49086098,-18.26590104
4.04,404,-0.297,-0.046,1.2590000000000001,-27.501984000000004,-17.303331600000003,-0.2291832000000001,-179.71973586,-10.31897358,-18.26017146
4.05,405,-0.184,-0.146,1.091,-20.2254174,-26.9863218,1.7188740000000002,-179.91454158,-10.04395374,-18.27163062
4.06,406,-0.187,0.009000000000000001,0.86,-19.8243468,-43.1437374,4.8128472,179.88589368,-9.61423524,-18.31173768
4.07,407,-0.08800000000000001,-0.131,0.743,-18.048177,-60.7908438,2.3491277999999998,179.71400627999995,-9.01262934,-18.32319684
4.08,408,-0.077,-0.064,0.736,-12.6623718,-68.75496,0.2291832000000001,179.59368510000004,-8.33080932,-18.31173768
4.09,409,-0.157,-0.03,0.792,-6.7609043999999985,-60.7908438,-2.7501984,179.52493013999995,-7.72920342,-18.27163062
4.1,410,-0.205,0.025,0.9059999999999999,-6.9327918,-44.8053156,-1.6042823999999998,179.46763434,-7.29948492,-18.2487123
4.109999999999999,411,-0.192,0.024,0.991,-4.1825934,-23.777757,-0.8021411999999999,179.42752728,-7.06457214,-18.23725314
4.12,412,-0.133,-0.07400000000000001,1.077,0.0,-11.2299768,-0.11459160000000004,179.43325686,-6.955710119999999,-18.23725314
4.13,413,-0.152,-0.10400000000000001,1.085,7.161975,-14.209358400000001,2.6356068,179.50774140000001,-6.812470620000001,-18.26017146
4.14,414,-0.135,-0.057,1.034,12.605075999999999,-23.14750320000001,4.0680017999999984,179.64525132,-6.589017,-18.29454894
4.1499999999999995,415,-0.132,0.035,1.056,14.209358400000001,-28.5906042,4.6409598,179.80567956,-6.30826758,-18.334656000000006
4.16,416,-0.126,0.043,1.055,13.3499214,-29.736520199999998,4.6409598,179.94891906,-6.016058999999999,-18.36903348
4.17,417,-0.115,0.017,1.036,11.1153852,-28.0176462,4.010706000000001,-179.92600074,-5.735309579999999,-18.40341096
4.18,418,-0.077,-0.005,1.0,8.7089616,-27.1582092,4.010706000000001,-179.82859788,-5.4717489000000015,-18.43205886
4.1899999999999995,419,-0.102,0.001,0.982,5.5003968,-27.3300966,3.7815228,-179.76557250000005,-5.2024586400000015,-18.46070676
4.2,420,-0.09300000000000001,-0.002,0.976,1.6042823999999998,-28.533308399999996,2.9220858,-179.74265418,-4.91597964,-18.48362508
4.21,421,-0.094,0.08900000000000001,0.978,-1.3750992,-28.3041252,2.3491277999999998,-179.75411334,-4.63523022,-18.50081382
4.22,422,-0.044000000000000004,-0.091,0.998,-4.9274388,-25.78311,2.86479,-179.7942204,-4.3831287,-18.518002560000006
4.2299999999999995,423,-0.049,-0.002,0.98,-5.6722842,-22.517249399999997,2.3491277999999998,-179.8515162,-4.15967508,-18.5351913
4.24,424,-0.037000000000000005,-0.037000000000000005,0.977,-6.130650599999999,-16.959556799999998,1.3178034,-179.90881199999995,-3.98778768,-18.54665046
4.25,425,-0.048,-0.024,0.9740000000000001,-6.2452422,-11.688343199999998,0.6875496,-179.97756696,-3.8674665,-18.54665046
4.26,426,-0.049,0.002,0.968,-6.5317212,-7.9641161999999985,0.6875496,179.95464864000004,-3.78725238,-18.55238004
4.27,427,-0.055,0.0,0.96,-6.8182002000000015,-5.6149884000000005,0.6302538000000001,179.88589368,-3.7299565800000014,-18.55810962
4.28,428,-0.062,0.006,0.961,-6.875496000000001,-3.7815228,0.5156622000000001,179.81713872,-3.6955791,-18.5638392
4.29,429,-0.07200000000000001,0.012,0.976,-6.8182002000000015,-2.2345362,0.4583664000000001,179.74838376,-3.67266078,-18.56956878
4.3,430,-0.068,0.013999999999999999,0.996,-6.3025379999999975,-1.3178034,0.40107059999999994,179.69108795999998,-3.65547204,-18.57529836
4.31,431,-0.078,-0.003,1.006,-5.72958,0.0,0.286479,179.63379216,-3.65547204,-18.58102794
4.32,432,-0.07400000000000001,-0.013999999999999999,1.014,-5.2712136,0.40107059999999994,0.286479,179.58222594,-3.66120162,-18.58102794
4.33,433,-0.08199999999999999,-0.02,1.022,-4.4117766,0.0,0.2291832000000001,179.53638930000002,-3.66120162,-18.58675752
4.34,434,-0.083,-0.013999999999999999,1.03,-2.9793816000000004,-0.572958,0.3437748,179.50774140000001,-3.65547204,-18.5924871
4.35,435,-0.083,-0.013999999999999999,1.036,-1.5469866,-0.9740286,0.3437748,179.46763434,-3.666931200000001,-18.5924871
4.36,436,-0.083,-0.004,1.052,-0.11459160000000004,-1.145916,0.2291832000000001,179.46763434,-3.65547204,-18.59821668
4.37,437,-0.08199999999999999,0.001,1.061,1.0886202,-0.4583664000000001,0.0,179.4790935,-3.64974246,-18.59821668
4.38,438,-0.08,0.006,1.057,2.2345362,1.0313244000000001,0.0,179.50201182,-3.66120162,-18.59821668
4.39,439,-0.084,0.005,1.041,2.9793816000000004,2.8074942000000003,-0.2291832000000001,179.53065972,-3.68984952,-18.5924871
4.3999999999999995,440,-0.096,0.002,1.015,2.6356068,4.8128472,-0.286479,179.55930761999997,-3.74714532,-18.5924871
4.41,441,-0.077,0.008,0.997,1.9480572,6.4744254,-0.5156622000000001,179.58222594,-3.810170700000002,-18.58675752
4.42,442,-0.083,0.006,0.986,0.9167328000000001,7.6776372,-0.572958,179.58795552,-3.88465524,-18.58675752
4.43,443,-0.081,0.008,0.983,-0.057295800000000015,7.906820400000001,-0.7448454000000001,179.58795552,-3.9648693599999993,-18.57529836
4.4399999999999995,444,-0.08199999999999999,0.004,0.986,-0.8594370000000001,7.448453999999999,-0.572958,179.57649636,-4.0393539,-18.57529836
4.45,445,-0.083,0.008,0.992,-1.5469866,6.875496000000001,-0.572958,179.5650372,-4.11383844,-18.56956878
4.46,446,-0.081,0.004,0.997,-2.0053530000000004,6.417129599999999,-0.6302538000000001,179.54784846,-4.17686382,-18.5638392
4.47,447,-0.086,0.003,1.0,-2.291832,6.3598338,-0.7448454000000001,179.51920056,-4.2398892,-18.55810962
4.4799999999999995,448,-0.084,0.002,1.004,-2.3491277999999998,6.3025379999999975,-0.8021411999999999,179.49628224,-4.30291458,-18.55238004
4.49,449,-0.087,0.0,1.0090000000000001,-2.1199446,5.958763200000001,-0.8594370000000001,179.47336392000003,-4.36021038,-18.54665046
4.5,450,-0.087,0.004,1.016,-1.5469866,5.3285094000000015,-0.8021411999999999,179.46190475999995,-4.42323576,-18.5351913
4.51,451,-0.08900000000000001,0.006,1.022,-1.2032118,4.4690724,-0.8594370000000001,179.45044560000005,-4.4690724,-18.52946172
4.52,452,-0.08900000000000001,0.003,1.024,-1.0313244000000001,3.5523396000000003,-0.8021411999999999,179.43898644,-4.50344988,-18.52373214
4.53,453,-0.09,0.001,1.023,-0.6875496,2.6929026,-0.6302538000000001,179.42752728,-4.5263682,-18.518002560000006
4.54,454,-0.09,0.004,1.022,-0.5156622000000001,1.6042823999999998,-0.6302538000000001,179.42179769999996,-4.54355694,-18.51227298
4.55,455,-0.09,0.003,1.018,-0.1718874,0.9740286,-0.5156622000000001,179.44471602,-4.58939358,-18.51227298
4.56,456,-0.091,0.0,1.0190000000000001,0.2291832000000001,0.6302538000000001,-0.4583664000000001,179.45044560000005,-4.59512316,-18.506543399999998
4.57,457,-0.092,0.001,1.024,0.7448454000000001,0.6302538000000001,-0.5156622000000001,179.45617518,-4.6008527400000006,-18.50081382
4.58,458,-0.094,0.0,1.026,1.2032118,0.6875496,-0.4583664000000001,179.46763434,-4.60658232,-18.49508424
4.59,459,-0.095,0.0,1.025,1.7188740000000002,0.8021411999999999,-0.4583664000000001,179.48482308,-4.6180414800000005,-18.48935466
4.6,460,-0.094,-0.002,1.021,2.1772404,0.6302538000000001,-0.4583664000000001,179.50201182,-4.6409598,-18.48362508
4.61,461,-0.094,0.0,1.016,2.4064236,0.4583664000000001,-0.40107059999999994,179.52493013999995,-4.64668938,-18.48362508
4.62,462,-0.092,-0.005,1.01,2.5210152000000003,0.1718874,-0.286479,179.55357804,-4.64668938,-18.4778955
4.63,463,-0.092,-0.005,1.0090000000000001,2.4637194,-0.057295800000000015,-0.3437748,179.57649636,-4.64668938,-18.47216592
4.64,464,-0.09300000000000001,-0.002,1.0090000000000001,2.3491277999999998,-0.3437748,-0.2291832000000001,179.59941468,-4.6409598,-18.47216592
4.6499999999999995,465,-0.09,0.0,1.008,2.1772404,-0.6302538000000001,-0.2291832000000001,179.61660342,-4.65241896,-18.47216592
4.66,466,-0.092,0.0,1.0070000000000001,1.7761698000000001,-0.6302538000000001,-0.286479,179.63952174000005,-4.64668938,-18.46643634
4.67,467,-0.092,0.0,1.005,1.4896908000000002,-0.5156622000000001,-0.286479,179.6509809,-4.6409598,-18.46070676
4.68,468,-0.092,0.002,1.005,1.145916,-0.572958,-0.2291832000000001,179.66244006,-4.63523022,-18.46070676
4.6899999999999995,469,-0.092,0.002,1.006,0.6875496,-0.4583664000000001,-0.3437748,179.67389922,-4.629500640000002,-18.45497718
4.7,470,-0.092,0.003,1.003,0.2291832000000001,-0.40107059999999994,-0.3437748,179.68535838,-4.675337279999999,-18.45497718
4.71,471,-0.091,0.003,1.003,-0.11459160000000004,-0.40107059999999994,-0.3437748,179.68535838,-4.675337279999999,-18.45497718
4.72,472,-0.09,0.002,1.003,-0.5156622000000001,-0.5156622000000001,-0.3437748,179.67962880000005,-4.6696076999999985,-18.449247600000003
4.7299999999999995,473,-0.09,0.003,1.004,-0.8594370000000001,-0.6302538000000001,-0.3437748,179.66816964,-4.66387812,-18.44351802
4.74,474,-0.091,0.004,1.0070000000000001,-1.0886202,-1.0313244000000001,-0.286479,179.65671048000004,-4.65241896,-18.44351802
4.75,475,-0.091,0.002,1.012,-1.145916,-1.6615782,-0.1718874,179.6509809,-4.64668938,-18.44351802
4.76,476,-0.091,0.003,1.0170000000000001,-0.9740286,-2.4064236,-0.057295800000000015,179.63952174000005,-4.62377106,-18.44351802
4.77,477,-0.091,0.003,1.021,-0.6875496,-3.0939732,-0.057295800000000015,179.63379216,-4.59512316,-18.43778844
4.78,478,-0.09,0.002,1.022,-0.2291832000000001,-3.4950437999999995,0.0,179.62806258,-4.56074568,-18.43778844
4.79,479,-0.09,0.004,1.023,0.1718874,-3.7242269999999995,0.0,179.63379216,-4.5206386200000015,-18.43778844
4.8,480,-0.087,0.003,1.023,0.572958,-3.6096353999999997,0.0,179.63952174000005,-4.49199072,-18.43778844
4.81,481,-0.086,0.003,1.021,0.8594370000000001,-3.380452200000001,-0.057295800000000015,179.6509809,-4.45761324,-18.43778844
4.82,482,-0.086,0.003,1.0190000000000001,1.0313244000000001,-3.0939732,0.0,179.66244006,-4.42896534,-18.43778844
4.83,483,-0.086,0.003,1.018,1.0886202,-2.5783110000000002,-0.057295800000000015,179.66816964,-4.40604702,-18.43205886
4.84,484,-0.084,0.003,1.018,0.9167328000000001,-1.7761698000000001,-0.11459160000000004,179.67962880000005,-4.3831287,-18.43205886
4.85,485,-0.084,0.004,1.016,0.4583664000000001,-0.9740286,-0.286479,179.69681754,-4.40031744,-18.43205886
4.86,486,-0.084,0.004,1.013,0.2291832000000001,-0.572958,-0.3437748,179.70254712000005,-4.39458786,-18.42632928
4.87,487,-0.084,0.004,1.01,0.0,-0.2291832000000001,-0.3437748,179.69681754,-4.39458786,-18.42632928
4.88,488,-0.083,0.003,1.006,0.0,0.11459160000000004,-0.40107059999999994,179.69681754,-4.39458786,-18.4205997
4.89,489,-0.08199999999999999,0.002,1.006,0.0,0.5156622000000001,-0.3437748,179.69681754,-4.40031744,-18.41487012
4.8999999999999995,490,-0.085,0.003,1.012,-0.286479,0.8021411999999999,-0.40107059999999994,179.69681754,-4.42896534,-18.41487012
4.91,491,-0.085,0.002,1.013,-0.6302538000000001,0.7448454000000001,-0.40107059999999994,179.69108795999998,-4.43469492,-18.409140540000006
4.92,492,-0.085,0.003,1.015,-0.6302538000000001,0.7448454000000001,-0.40107059999999994,179.68535838,-4.44615408,-18.409140540000006
4.93,493,-0.085,0.001,1.013,-0.5156622000000001,0.9167328000000001,-0.40107059999999994,179.67962880000005,-4.45188366,-18.40341096
4.9399999999999995,494,-0.086,0.002,1.011,-0.572958,1.145916,-0.4583664000000001,179.67389922,-4.46334282,-18.39768138
4.95,495,-0.085,0.002,1.013,-0.5156622000000001,1.0313244000000001,-0.3437748,179.66816964,-4.49199072,-18.39768138
4.96,496,-0.086,0.003,1.014,-0.3437748,0.9167328000000001,-0.40107059999999994,179.66244006,-4.4977203,-18.3919518
4.97,497,-0.086,0.004,1.014,-0.3437748,0.8021411999999999,-0.40107059999999994,179.66244006,-4.50917946,-18.38622222
4.9799999999999995,498,-0.087,0.004,1.0170000000000001,-0.286479,0.6302538000000001,-0.3437748,179.65671048000004,-4.51490904,-18.38622222
4.99,499,-0.087,0.004,1.0170000000000001,-0.1718874,0.4583664000000001,-0.3437748,179.65671048000004,-4.5206386200000015,-18.38049264
5.0,500,-0.086,0.004,1.016,0.0,0.40107059999999994,-0.3437748,179.66816964,-4.549286520000001,-18.38049264
5.01,501,-0.087,0.003,1.016,0.286479,0.1718874,-0.286479,179.67389922,-4.5550161000000005,-18.38049264
5.02,502,-0.08800000000000001,0.004,1.016,0.286479,0.1718874,-0.3437748,179.67389922,-4.5550161000000005,-18.37476306
5.03,503,-0.08800000000000001,0.004,1.015,0.286479,0.0,-0.286479,179.67962880000005,-4.5550161000000005,-18.36903348
5.04,504,-0.08800000000000001,0.003,1.014,0.286479,-0.11459160000000004,-0.2291832000000001,179.67962880000005,-4.5550161000000005,-18.36903348
5.05,505,-0.08800000000000001,0.004,1.014,0.1718874,-0.057295800000000015,-0.2291832000000001,179.70254712000005,-4.6008527400000006,-18.36903348
5.06,506,-0.08800000000000001,0.004,1.014,0.057295800000000015,-0.057295800000000015,-0.286479,179.70254712000005,-4.6008527400000006,-18.36903348
5.07,507,-0.08800000000000001,0.005,1.013,-0.057295800000000015,-0.11459160000000004,-0.286479,179.70254712000005,-4.59512316,-18.3633039
5.08,508,-0.08800000000000001,0.004,1.012,-0.057295800000000015,-0.1718874,-0.286479,179.70254712000005,-4.59512316,-18.3633039
5.09,509,-0.087,0.003,1.012,0.0,-0.2291832000000001,-0.286479,179.70254712000005,-4.59512316,-18.35757432
5.1,510,-0.086,0.004,1.012,0.057295800000000015,-0.2291832000000001,-0.286479,179.71400627999995,-4.62377106,-18.35757432
5.11,511,-0.087,0.004,1.014,0.0,-0.3437748,-0.2291832000000001,179.71400627999995,-4.62377106,-18.35757432
5.12,512,-0.087,0.004,1.016,-0.057295800000000015,-0.40107059999999994,-0.286479,179.71400627999995,-4.6180414800000005,-18.35184474
5.13,513,-0.087,0.004,1.0170000000000001,0.0,-0.5156622000000001,-0.1718874,179.71400627999995,-4.612311900000001,-18.35184474
5.14,514,-0.086,0.004,1.0170000000000001,0.0,-0.7448454000000001,-0.1718874,179.71400627999995,-4.60658232,-18.35184474
5.1499999999999995,515,-0.087,0.004,1.015,0.0,-0.8021411999999999,-0.1718874,179.72546544,-4.6180414800000005,-18.35184474
5.16,516,-0.087,0.004,1.015,0.0,-0.9740286,-0.1718874,179.72546544,-4.60658232,-18.34611516
5.17,517,-0.086,0.004,1.0170000000000001,0.057295800000000015,-0.9167328000000001,-0.11459160000000004,179.72546544,-4.59512316,-18.34611516
5.18,518,-0.085,0.003,1.016,0.057295800000000015,-1.0313244000000001,-0.11459160000000004,179.72546544,-4.58939358,-18.34611516
5.1899999999999995,519,-0.085,0.003,1.014,0.0,-0.8594370000000001,-0.1718874,179.72546544,-4.57793442,-18.34038558
5.2,520,-0.084,0.004,1.016,0.057295800000000015,-0.8594370000000001,-0.11459160000000004,179.73119502,-4.57793442,-18.34038558
5.21,521,-0.085,0.004,1.014,0.057295800000000015,-0.8594370000000001,-0.1718874,179.73119502,-4.57220484,-18.34038558
5.22,522,-0.083,0.004,1.013,0.0,-0.7448454000000001,-0.1718874,179.73119502,-4.56074568,-18.334656000000006
5.2299999999999995,523,-0.084,0.004,1.013,0.057295800000000015,-0.572958,-0.1718874,179.73119502,-4.5550161000000005,-18.334656000000006
5.24,524,-0.084,0.004,1.014,0.0,-0.40107059999999994,-0.2291832000000001,179.7369246,-4.549286520000001,-18.334656000000006
5.25,525,-0.084,0.005,1.012,0.0,-0.286479,-0.2291832000000001,179.74838376,-4.57220484,-18.334656000000006
5.26,526,-0.084,0.004,1.015,-0.057295800000000015,-0.1718874,-0.2291832000000001,179.74838376,-4.57220484,-18.32892642
5.27,527,-0.084,0.005,1.014,-0.057295800000000015,-0.11459160000000004,-0.2291832000000001,179.74838376,-4.57220484,-18.32892642
5.28,528,-0.084,0.005,1.014,-0.057295800000000015,0.0,-0.2291832000000001,179.74838376,-4.57220484,-18.32319684
5.29,529,-0.084,0.005,1.014,-0.057295800000000015,0.0,-0.286479,179.74265418,-4.57220484,-18.32319684
5.3,530,-0.084,0.006,1.014,-0.11459160000000004,0.11459160000000004,-0.3437748,179.75984291999995,-4.58939358,-18.32319684
5.31,531,-0.084,0.004,1.015,-0.11459160000000004,0.3437748,-0.3437748,179.75411334,-4.59512316,-18.31746726
5.32,532,-0.084,0.004,1.015,-0.1718874,0.286479,-0.40107059999999994,179.75411334,-4.59512316,-18.31173768
5.33,533,-0.083,0.005,1.016,-0.1718874,0.286479,-0.3437748,179.75411334,-4.6008527400000006,-18.31173768
5.34,534,-0.085,0.004,1.015,-0.057295800000000015,0.286479,-0.3437748,179.74838376,-4.6008527400000006,-18.3060081
5.35,535,-0.084,0.004,1.014,0.11459160000000004,0.286479,-0.286479,179.75984291999995,-4.6180414800000005,-18.3060081
5.36,536,-0.085,0.004,1.014,0.1718874,0.11459160000000004,-0.286479,179.75984291999995,-4.62377106,-18.30027852
5.37,537,-0.084,0.005,1.014,0.2291832000000001,0.0,-0.2291832000000001,179.76557250000005,-4.62377106,-18.30027852
5.38,538,-0.085,0.005,1.014,0.1718874,0.0,-0.286479,179.76557250000005,-4.6180414800000005,-18.29454894
5.39,539,-0.085,0.005,1.014,0.057295800000000015,0.057295800000000015,-0.286479,179.76557250000005,-4.62377106,-18.29454894
5.3999999999999995,540,-0.086,0.005,1.015,-0.1718874,0.3437748,-0.057295800000000015,179.77130208,-4.6409598,-18.29454894
5.41,541,-0.085,0.005,1.015,-0.3437748,0.286479,-0.057295800000000015,179.76557250000005,-4.64668938,-18.29454894
5.42,542,-0.085,0.006,1.012,-0.11459160000000004,0.286479,-0.057295800000000015,179.76557250000005,-4.64668938,-18.28881936
5.43,543,-0.084,0.004,1.012,0.057295800000000015,0.286479,-0.057295800000000015,179.76557250000005,-4.65241896,-18.28881936
5.4399999999999995,544,-0.085,0.004,1.015,0.0,0.5156622000000001,0.0,179.76557250000005,-4.65814854,-18.28881936
5.45,545,-0.085,0.006,1.0170000000000001,-0.1718874,0.40107059999999994,0.0,179.78276124,-4.675337279999999,-18.29454894
5.46,546,-0.085,0.005,1.02,-0.2291832000000001,0.057295800000000015,0.0,179.78276124,-4.675337279999999,-18.29454894
5.47,547,-0.085,0.005,1.0190000000000001,-0.11459160000000004,0.057295800000000015,0.0,179.78276124,-4.675337279999999,-18.29454894
5.4799999999999995,548,-0.085,0.004,1.0170000000000001,-0.057295800000000015,0.11459160000000004,0.0,179.78276124,-4.675337279999999,-18.29454894
5.49,549,-0.085,0.005,1.015,0.0,0.11459160000000004,-0.057295800000000015,179.77703165999995,-4.675337279999999,-18.29454894
5.5,550,-0.085,0.005,1.013,0.0,0.286479,0.0,179.7942204,-4.68679644,-18.29454894
5.51,551,-0.084,0.005,1.013,0.0,0.2291832000000001,0.0,179.7942204,-4.69252602,-18.29454894
5.52,552,-0.084,0.004,1.013,0.0,0.286479,-0.057295800000000015,179.7942204,-4.69252602,-18.29454894
5.53,553,-0.084,0.005,1.012,-0.11459160000000004,0.286479,0.0,179.7942204,-4.6982556,-18.29454894
5.54,554,-0.084,0.006,1.011,0.0,0.286479,0.057295800000000015,179.7942204,-4.6982556,-18.29454894
5.55,555,-0.085,0.006,1.012,0.0,0.286479,0.0,179.79994998,-4.72117392,-18.30027852
5.56,556,-0.085,0.005,1.012,0.0,0.286479,0.057295800000000015,179.79994998,-4.72117392,-18.30027852
5.57,557,-0.084,0.005,1.013,0.0,0.1718874,0.0,179.80567956,-4.7269035000000015,-18.30027852
5.58,558,-0.085,0.006,1.015,0.0,-0.1718874,0.0,179.80567956,-4.72117392,-18.30027852
5.59,559,-0.085,0.005,1.014,0.057295800000000015,-0.057295800000000015,0.11459160000000004,179.80567956,-4.72117392,-18.30027852
5.6,560,-0.084,0.006,1.015,0.0,0.0,0.057295800000000015,179.82859788,-4.72117392,-18.3060081
5.61,561,-0.085,0.006,1.015,0.0,0.0,0.0,179.82859788,-4.72117392,-18.3060081
5.62,562,-0.084,0.005,1.016,0.057295800000000015,-0.11459160000000004,0.057295800000000015,179.82859788,-4.72117392,-18.3060081
5.63,563,-0.084,0.005,1.015,0.2291832000000001,-0.11459160000000004,0.057295800000000015,179.82859788,-4.71544434,-18.3060081
5.64,564,-0.084,0.005,1.014,0.2291832000000001,0.0,0.057295800000000015,179.83432746,-4.71544434,-18.3060081
5.6499999999999995,565,-0.085,0.006,1.014,0.2291832000000001,0.0,0.057295800000000015,179.84005704,-4.72117392,-18.3060081
5.66,566,-0.085,0.006,1.015,0.1718874,0.0,0.057295800000000015,179.84005704,-4.72117392,-18.3060081
5.67,567,-0.085,0.005,1.016,0.0,0.0,0.057295800000000015,179.84578661999996,-4.72117392,-18.31173768
5.68,568,-0.085,0.006,1.016,0.0,0.2291832000000001,0.0,179.84578661999996,-4.7269035000000015,-18.31173768
5.6899999999999995,569,-0.085,0.006,1.015,0.0,0.1718874,0.0,179.84005704,-4.7269035000000015,-18.31173768
5.7,570,-0.085,0.006,1.013,-0.057295800000000015,0.1718874,0.0,179.85724578,-4.74409224,-18.31173768
5.71,571,-0.084,0.004,1.014,-0.057295800000000015,0.2291832000000001,0.0,179.85724578,-4.74409224,-18.31173768
5.72,572,-0.085,0.005,1.014,-0.11459160000000004,0.1718874,0.0,179.8515162,-4.749821819999998,-18.31173768
5.7299999999999995,573,-0.085,0.006,1.013,-0.11459160000000004,0.286479,0.0,179.8515162,-4.749821819999998,-18.31173768
5.74,574,-0.083,0.005,1.013,-0.11459160000000004,0.1718874,0.0,179.8515162,-4.7555514,-18.31173768
5.75,575,-0.085,0.006,1.013,-0.11459160000000004,0.1718874,0.0,179.85724578,-4.749821819999998,-18.31173768
5.76,576,-0.084,0.006,1.014,-0.11459160000000004,0.1718874,0.0,179.85724578,-4.749821819999998,-18.31173768
5.77,577,-0.085,0.005,1.014,-0.057295800000000015,0.2291832000000001,0.0,179.85724578,-4.7555514,-18.31173768
5.78,578,-0.085,0.006,1.014,-0.11459160000000004,0.11459160000000004,0.0,179.85724578,-4.7555514,-18.31173768
5.79,579,-0.086,0.006,1.015,-0.1718874,0.0,0.0,179.8515162,-4.7555514,-18.31173768
5.8,580,-0.085,0.006,1.015,-0.1718874,0.0,0.0,179.88589368,-4.77274014,-18.31746726
5.81,581,-0.085,0.006999999999999999,1.014,-0.1718874,0.0,0.0,179.88016409999997,-4.77274014,-18.31746726
5.82,582,-0.085,0.006999999999999999,1.014,-0.1718874,0.0,0.0,179.88016409999997,-4.77274014,-18.31746726
5.83,583,-0.085,0.006,1.014,-0.2291832000000001,0.0,0.0,179.88016409999997,-4.77274014,-18.31746726
5.84,584,-0.086,0.005,1.014,-0.286479,-0.11459160000000004,0.0,179.87443452,-4.76701056,-18.31746726
5.85,585,-0.085,0.005,1.014,-0.286479,-0.1718874,0.0,179.87443452,-4.76128098,-18.31746726
5.86,586,-0.084,0.006999999999999999,1.015,-0.2291832000000001,-0.2291832000000001,0.057295800000000015,179.87443452,-4.76128098,-18.31746726
5.87,587,-0.084,0.006,1.015,-0.286479,-0.11459160000000004,0.0,179.86870494,-4.76128098,-18.31746726
5.88,588,-0.086,0.006,1.015,-0.286479,-0.40107059999999994,0.0,179.86297536,-4.7555514,-18.31746726
5.89,589,-0.084,0.005,1.016,-0.286479,-0.3437748,0.0,179.86297536,-4.749821819999998,-18.31746726
5.8999999999999995,590,-0.084,0.006,1.015,-0.2291832000000001,-0.286479,0.0,179.86297536,-4.74409224,-18.31746726
5.91,591,-0.085,0.006999999999999999,1.014,-0.057295800000000015,-0.3437748,0.057295800000000015,179.86297536,-4.74409224,-18.31746726
5.92,592,-0.083,0.006,1.013,-0.057295800000000015,-0.2291832000000001,0.0,179.86297536,-4.73836266,-18.31746726
5.93,593,-0.083,0.006,1.013,-0.057295800000000015,-0.40107059999999994,0.0,179.86297536,-4.73836266,-18.31746726
5.9399999999999995,594,-0.085,0.006,1.014,-0.057295800000000015,-0.5156622000000001,0.0,179.86297536,-4.73263308,-18.31746726
5.95,595,-0.083,0.006,1.014,-0.057295800000000015,-0.3437748,0.0,179.86297536,-4.7269035000000015,-18.31746726
5.96,596,-0.085,0.006,1.015,-0.2291832000000001,-0.1718874,0.0,179.86297536,-4.72117392,-18.31746726
5.97,597,-0.084,0.006,1.016,-0.4583664000000001,-0.11459160000000004,0.0,179.85724578,-4.72117392,-18.31746726
5.9799999999999995,598,-0.084,0.006,1.016,-0.40107059999999994,-0.1718874,0.0,179.8515162,-4.72117392,-18.31746726
5.99,599,-0.084,0.006,1.014,-0.11459160000000004,-0.2291832000000001,0.0,179.8515162,-4.71544434,-18.31746726
6.0,600,-0.083,0.005,1.012,0.0,-0.057295800000000015,0.0,179.88016409999997,-4.69252602,-18.32319684
6.01,601,-0.084,0.006,1.015,0.057295800000000015,0.0,0.057295800000000015,179.88016409999997,-4.69252602,-18.32319684
6.02,602,-0.085,0.006999999999999999,1.018,-0.2291832000000001,-0.11459160000000004,0.0,179.88016409999997,-4.69252602,-18.32319684
6.03,603,-0.085,0.006999999999999999,1.02,-0.2291832000000001,-0.286479,0.0,179.87443452,-4.68679644,-18.32319684
6.04,604,-0.084,0.005,1.0190000000000001,0.0,-0.3437748,0.057295800000000015,179.87443452,-4.68679644,-18.32319684
6.05,605,-0.083,0.005,1.016,-0.1718874,-0.11459160000000004,0.0,179.86297536,-4.68106686,-18.32319684
6.06,606,-0.084,0.006,1.014,-0.11459160000000004,0.057295800000000015,0.0,179.86297536,-4.68679644,-18.32319684
6.07,607,-0.084,0.006,1.013,0.0,0.057295800000000015,0.0,179.86297536,-4.68679644,-18.32319684
6.08,608,-0.083,0.006,1.012,-0.057295800000000015,0.057295800000000015,0.0,179.86297536,-4.68679644,-18.32319684
6.09,609,-0.083,0.005,1.012,-0.11459160000000004,0.2291832000000001,-0.057295800000000015,179.86297536,-4.68679644,-18.32319684
6.1,610,-0.083,0.005,1.011,-0.1718874,0.2291832000000001,-0.057295800000000015,179.86297536,-4.69252602,-18.32319684
6.11,611,-0.083,0.006,1.012,-0.057295800000000015,0.11459160000000004,0.057295800000000015,179.86297536,-4.69252602,-18.32319684
6.12,612,-0.083,0.005,1.013,-0.057295800000000015,0.2291832000000001,0.057295800000000015,179.86297536,-4.6982556,-18.32319684
6.13,613,-0.083,0.005,1.013,0.057295800000000015,0.2291832000000001,0.0,179.86297536,-4.6982556,-18.32319684
6.14,614,-0.083,0.005,1.016,0.1718874,0.11459160000000004,0.057295800000000015,179.86297536,-4.6982556,-18.32319684
6.15,615,-0.084,0.006,1.016,0.11459160000000004,0.11459160000000004,0.0,179.86870494,-4.703985179999999,-18.32319684
6.16,616,-0.086,0.006,1.016,0.0,0.057295800000000015,0.057295800000000015,179.87443452,-4.703985179999999,-18.32319684
6.17,617,-0.084,0.005,1.0170000000000001,0.0,0.0,0.0,179.86870494,-4.703985179999999,-18.32319684
6.18,618,-0.083,0.006,1.0170000000000001,-0.057295800000000015,0.0,0.0,179.86870494,-4.703985179999999,-18.32319684
6.1899999999999995,619,-0.084,0.006,1.015,0.11459160000000004,-0.11459160000000004,0.0,179.87443452,-4.703985179999999,-18.32319684
6.2,620,-0.083,0.005,1.014,0.11459160000000004,0.057295800000000015,0.0,179.87443452,-4.703985179999999,-18.32319684
6.21,621,-0.083,0.005,1.012,0.2291832000000001,0.0,0.0,179.87443452,-4.703985179999999,-18.32319684
6.22,622,-0.083,0.005,1.014,0.1718874,-0.11459160000000004,0.0,179.88016409999997,-4.6982556,-18.32319684
6.2299999999999995,623,-0.083,0.006,1.016,0.0,-0.057295800000000015,0.0,179.88016409999997,-4.6982556,-18.32319684
6.24,624,-0.084,0.005,1.0170000000000001,0.0,0.0,0.0,179.88016409999997,-4.6982556,-18.32319684
6.25,625,-0.084,0.005,1.016,0.0,0.0,0.0,179.86870494,-4.6982556,-18.32319684
6.26,626,-0.084,0.005,1.0170000000000001,0.0,0.057295800000000015,0.0,179.86870494,-4.6982556,-18.32319684
6.27,627,-0.084,0.004,1.016,0.0,0.057295800000000015,0.0,179.86870494,-4.6982556,-18.32319684
6.28,628,-0.083,0.004,1.015,0.0,0.11459160000000004,0.0,179.86870494,-4.6982556,-18.32319684
6.29,629,-0.08199999999999999,0.006,1.015,0.0,0.11459160000000004,0.0,179.86870494,-4.703985179999999,-18.32319684
6.3,630,-0.083,0.005,1.014,-0.057295800000000015,0.0,0.0,179.88016409999997,-4.68106686,-18.32319684
6.31,631,-0.08199999999999999,0.004,1.013,-0.057295800000000015,0.1718874,0.0,179.87443452,-4.68106686,-18.32319684
6.32,632,-0.083,0.005,1.014,-0.11459160000000004,0.0,0.0,179.87443452,-4.68679644,-18.32319684
6.33,633,-0.083,0.005,1.014,0.0,0.0,0.0,179.87443452,-4.68679644,-18.32319684
6.34,634,-0.084,0.005,1.014,-0.057295800000000015,0.11459160000000004,-0.057295800000000015,179.87443452,-4.68679644,-18.32319684
6.35,635,-0.083,0.006,1.015,0.11459160000000004,0.11459160000000004,0.0,179.88016409999997,-4.68679644,-18.32319684
6.36,636,-0.083,0.005,1.014,0.057295800000000015,0.11459160000000004,0.0,179.88589368,-4.68679644,-18.32319684
6.37,637,-0.083,0.005,1.015,0.0,0.2291832000000001,0.0,179.88589368,-4.68679644,-18.32319684
6.38,638,-0.083,0.006,1.015,0.0,0.2291832000000001,0.0,179.88589368,-4.69252602,-18.32319684
6.39,639,-0.084,0.005,1.016,0.0,0.2291832000000001,-0.057295800000000015,179.88589368,-4.69252602,-18.32319684
6.4,640,-0.084,0.004,1.016,0.0,0.11459160000000004,0.0,179.88016409999997,-4.6982556,-18.32319684
6.41,641,-0.083,0.006,1.015,0.0,0.11459160000000004,0.0,179.88016409999997,-4.6982556,-18.32319684
6.42,642,-0.08199999999999999,0.004,1.015,0.0,0.11459160000000004,0.0,179.88589368,-4.703985179999999,-18.32319684
6.43,643,-0.083,0.005,1.015,0.0,0.1718874,0.0,179.88016409999997,-4.703985179999999,-18.32319684
6.4399999999999995,644,-0.083,0.005,1.014,0.0,0.057295800000000015,0.0,179.88016409999997,-4.703985179999999,-18.32319684
6.45,645,-0.083,0.005,1.014,0.0,0.11459160000000004,0.0,179.88016409999997,-4.703985179999999,-18.31746726
6.46,646,-0.083,0.004,1.014,0.0,0.11459160000000004,-0.057295800000000015,179.88016409999997,-4.703985179999999,-18.31746726
6.47,647,-0.083,0.005,1.015,0.0,0.057295800000000015,0.0,179.88016409999997,-4.70971476,-18.31746726
6.4799999999999995,648,-0.084,0.005,1.015,0.0,0.057295800000000015,-0.057295800000000015,179.88016409999997,-4.70971476,-18.31746726
6.49,649,-0.083,0.005,1.015,0.0,0.057295800000000015,0.0,179.88016409999997,-4.70971476,-18.31746726
6.5,650,-0.083,0.005,1.014,0.057295800000000015,0.0,0.057295800000000015,179.88016409999997,-4.6982556,-18.31746726
6.51,651,-0.084,0.005,1.013,0.11459160000000004,0.0,0.057295800000000015,179.88016409999997,-4.6982556,-18.31746726
6.52,652,-0.083,0.005,1.013,0.11459160000000004,0.0,0.057295800000000015,179.88016409999997,-4.6982556,-18.31746726
6.53,653,-0.084,0.006,1.014,0.11459160000000004,-0.1718874,0.057295800000000015,179.88016409999997,-4.6982556,-18.32319684
6.54,654,-0.083,0.004,1.014,0.1718874,-0.057295800000000015,0.057295800000000015,179.88589368,-4.6982556,-18.32319684
6.55,655,-0.084,0.005,1.014,0.057295800000000015,0.0,0.057295800000000015,179.89162326,-4.70971476,-18.32319684
6.56,656,-0.084,0.005,1.014,-0.11459160000000004,0.0,0.0,179.89162326,-4.70971476,-18.32319684
6.57,657,-0.083,0.006,1.018,-0.2291832000000001,0.0,0.0,179.88589368,-4.70971476,-18.32319684
6.58,658,-0.083,0.005,1.016,-0.1718874,-0.057295800000000015,0.0,179.88589368,-4.70971476,-18.32319684
6.59,659,-0.083,0.005,1.014,0.0,0.0,0.057295800000000015,179.88589368,-4.70971476,-18.32319684
6.6,660,-0.083,0.004,1.012,0.11459160000000004,0.057295800000000015,0.0,179.88016409999997,-4.703985179999999,-18.32319684
6.61,661,-0.083,0.004,1.0170000000000001,0.0,0.0,0.057295800000000015,179.88016409999997,-4.703985179999999,-18.32319684
6.62,662,-0.085,0.005,1.0190000000000001,-0.11459160000000004,-0.2291832000000001,0.057295800000000015,179.88016409999997,-4.703985179999999,-18.32319684
6.63,663,-0.084,0.004,1.02,-0.11459160000000004,-0.2291832000000001,0.0,179.87443452,-4.6982556,-18.32319684
