TimeStamp(s),FrameCounter,AccX,AccY,AccZ,GyrX,GyrY,GyrZ,EulerX,EulerY,EulerZ
0.01,1,0.02,-1.006,0.008,-0.1718874,0.11459160000000004,-0.1718874,88.91162244,1.35218088,9.77466348
0.02,2,0.023,-1.011,0.012,-0.1718874,0.4583664000000001,-0.1718874,88.91162244,1.35218088,9.77466348
0.03,3,0.027000000000000003,-1.016,0.013000000000000001,-0.1718874,0.5156622000000001,-0.11459160000000004,88.91162244,1.35218088,9.78039306
0.04,4,0.027999999999999997,-1.0190000000000001,0.016,-0.286479,0.4583664000000001,-0.057295800000000015,88.90589286,1.35218088,9.78612264
0.05,5,0.027999999999999997,-1.0170000000000001,0.018000000000000002,-0.40107059999999994,0.286479,0.1718874,88.94599991999998,1.38082878,9.78039306
0.060000000000000005,6,0.027999999999999997,-1.011,0.017,-0.4583664000000001,0.11459160000000004,0.1718874,88.94599991999998,1.3750992,9.78039306
0.06999999999999999,7,0.027999999999999997,-1.0070000000000001,0.018000000000000002,-0.572958,0.2291832000000001,0.057295800000000015,88.94027034,1.3750992,9.78039306
0.08,8,0.027999999999999997,-1.005,0.018000000000000002,-0.6302538000000001,0.40107059999999994,0.0,88.92881118,1.3750992,9.78612264
0.09,9,0.027999999999999997,-1.003,0.016,-0.572958,0.286479,-0.057295800000000015,88.9230816,1.3750992,9.79185222
0.09999999999999999,10,0.027000000000000003,-1.001,0.015,-0.40107059999999994,0.2291832000000001,-0.11459160000000004,88.94599991999998,1.39801752,9.78612264
0.11,11,0.027000000000000003,-1.0,0.013000000000000001,-0.286479,0.0,-0.11459160000000004,88.94599991999998,1.4037471000000001,9.78612264
0.12,12,0.026000000000000002,-0.9990000000000001,0.013999999999999999,-0.286479,0.0,-0.1718874,88.94027034,1.4037471000000001,9.78612264
0.13,13,0.026000000000000002,-0.998,0.013000000000000001,-0.1718874,0.0,-0.1718874,88.94027034,1.4037471000000001,9.78612264
0.14,14,0.027999999999999997,-0.998,0.011000000000000001,-0.057295800000000015,-0.2291832000000001,-0.11459160000000004,88.93454076,1.4037471000000001,9.78612264
0.15000000000000002,15,0.027999999999999997,-0.9990000000000001,0.013000000000000001,0.0,-0.7448454000000001,-0.11459160000000004,88.96891824000002,1.42666542,9.7689339
0.16,16,0.027000000000000003,-1.0,0.013000000000000001,0.057295800000000015,-0.7448454000000001,-0.1718874,88.96891824000002,1.432395,9.76320432
0.17,17,0.027999999999999997,-1.002,0.015,0.1718874,-0.6875496,-0.1718874,88.96891824000002,1.432395,9.75174516
0.18000000000000002,18,0.027999999999999997,-1.004,0.013999999999999999,0.286479,-0.7448454000000001,-0.1718874,88.97464782,1.432395,9.746015580000002
0.19,19,0.028999999999999998,-1.005,0.013000000000000001,0.286479,-0.572958,-0.1718874,88.97464782,1.43812458,9.740286
0.2,20,0.028999999999999998,-1.006,0.015,0.2291832000000001,-0.5156622000000001,0.0,89.00902529999998,1.4610428999999998,9.72882684
0.21000000000000002,21,0.027000000000000003,-1.0090000000000001,0.015,0.286479,-0.8021411999999999,0.0,89.00902529999998,1.4610428999999998,9.72309726
0.22,22,0.026000000000000002,-1.0090000000000001,0.013999999999999999,0.2291832000000001,-0.8021411999999999,-0.057295800000000015,89.01475488,1.4610428999999998,9.7116381
0.23,23,0.026000000000000002,-1.011,0.013999999999999999,0.1718874,-0.9740286,0.0,89.01475488,1.4610428999999998,9.70590852
0.24000000000000002,24,0.027999999999999997,-1.013,0.013999999999999999,0.057295800000000015,-0.7448454000000001,0.0,89.01475488,1.4610428999999998,9.69444936
0.25,25,0.027000000000000003,-1.013,0.015,0.0,-0.8021411999999999,0.0,89.03767320000001,1.4782316400000002,9.6829902
0.26,26,0.025,-1.012,0.013999999999999999,-0.1718874,-0.8021411999999999,0.0,89.03194361999998,1.4782316400000002,9.67726062
0.27,27,0.024,-1.01,0.013999999999999999,-0.1718874,-0.8021411999999999,-0.057295800000000015,89.03194361999998,1.4782316400000002,9.66580146
0.28,28,0.022000000000000002,-1.0090000000000001,0.013999999999999999,-0.2291832000000001,-0.9740286,-0.057295800000000015,89.02621404,1.4782316400000002,9.654342300000001
0.29000000000000004,29,0.024,-1.008,0.015,-0.3437748,-0.8021411999999999,0.0,89.02621404,1.4782316400000002,9.64861272
0.3,30,0.024,-1.005,0.013000000000000001,-0.4583664000000001,-0.5156622000000001,0.0,89.03767320000001,1.4896908000000002,9.63715356
0.31,31,0.026000000000000002,-1.002,0.013999999999999999,-0.3437748,-0.5156622000000001,0.057295800000000015,89.03767320000001,1.4896908000000002,9.63142398
0.32,32,0.026000000000000002,-1.003,0.013999999999999999,-0.11459160000000004,-0.6302538000000001,0.057295800000000015,89.03194361999998,1.48396122,9.6256944
0.33,33,0.026000000000000002,-1.002,0.013999999999999999,0.0,-0.7448454000000001,0.057295800000000015,89.03194361999998,1.48396122,9.61996482
0.34,34,0.024,-1.003,0.013999999999999999,0.0,-0.8594370000000001,0.057295800000000015,89.03194361999998,1.48396122,9.60850566
0.35000000000000003,35,0.024,-1.005,0.016,0.11459160000000004,-0.8594370000000001,0.057295800000000015,89.07205067999998,1.49542038,9.5970465
0.36000000000000004,36,0.025,-1.006,0.015,0.2291832000000001,-0.6875496,0.057295800000000015,89.07778026000004,1.4896908000000002,9.58558734
0.37,37,0.025,-1.006,0.015,0.1718874,-0.5156622000000001,0.057295800000000015,89.07778026000004,1.4896908000000002,9.57985776
0.38,38,0.025,-1.006,0.016,0.11459160000000004,-0.3437748,-0.057295800000000015,89.07778026000004,1.49542038,9.57985776
0.39,39,0.023,-1.006,0.016,0.2291832000000001,-0.4583664000000001,0.0,89.08350984,1.4896908000000002,9.57412818
0.4,40,0.025,-1.006,0.015,0.0,-0.2291832000000001,-0.057295800000000015,89.13507606,1.5412570200000002,9.56266902
0.41000000000000003,41,0.027000000000000003,-1.0070000000000001,0.013999999999999999,0.0,-0.1718874,-0.11459160000000004,89.13507606,1.5412570200000002,9.55693944
0.42000000000000004,42,0.027999999999999997,-1.006,0.013000000000000001,0.0,-0.11459160000000004,-0.057295800000000015,89.13507606,1.5412570200000002,9.55693944
0.43,43,0.027000000000000003,-1.008,0.013999999999999999,-0.057295800000000015,-0.11459160000000004,-0.057295800000000015,89.13507606,1.5412570200000002,9.55693944
0.44,44,0.027999999999999997,-1.008,0.013000000000000001,-0.11459160000000004,0.0,-0.11459160000000004,89.13507606,1.5469866,9.55693944
0.45,45,0.027000000000000003,-1.008,0.013999999999999999,-0.1718874,0.057295800000000015,-0.11459160000000004,89.17518312,1.5756344999999998,9.55120986
0.46,46,0.027000000000000003,-1.0070000000000001,0.015,-0.1718874,0.0,-0.057295800000000015,89.16945354,1.5756344999999998,9.55120986
0.47000000000000003,47,0.027000000000000003,-1.008,0.015,-0.11459160000000004,-0.057295800000000015,0.0,89.16945354,1.5813640800000002,9.55120986
0.48000000000000004,48,0.027000000000000003,-1.0070000000000001,0.015,-0.1718874,-0.1718874,-0.11459160000000004,89.16945354,1.5813640800000002,9.54548028
0.49,49,0.026000000000000002,-1.006,0.013999999999999999,-0.2291832000000001,0.11459160000000004,-0.2291832000000001,89.16372396,1.5813640800000002,9.54548028
0.5,50,0.027000000000000003,-1.0070000000000001,0.015,-0.2291832000000001,0.057295800000000015,-0.1718874,89.19237186000002,1.61001198,9.54548028
0.51,51,0.027000000000000003,-1.006,0.013999999999999999,-0.286479,0.057295800000000015,-0.2291832000000001,89.18664228,1.61001198,9.54548028
0.52,52,0.026000000000000002,-1.0070000000000001,0.015,-0.1718874,0.0,-0.1718874,89.18664228,1.6157415599999996,9.54548028
0.53,53,0.026000000000000002,-1.005,0.015,-0.2291832000000001,-0.057295800000000015,-0.11459160000000004,89.18664228,1.6157415599999996,9.54548028
0.54,54,0.026000000000000002,-1.005,0.015,-0.3437748,0.0,-0.057295800000000015,89.1809127,1.6157415599999996,9.54548028
0.55,55,0.025,-1.004,0.015,-0.1718874,0.2291832000000001,-0.057295800000000015,89.20383102000002,1.6272007199999998,9.539750699999999
0.56,56,0.026000000000000002,-1.005,0.013999999999999999,-0.1718874,0.286479,0.0,89.20383102000002,1.6272007199999998,9.54548028
0.5700000000000001,57,0.026000000000000002,-1.005,0.013999999999999999,0.0,0.057295800000000015,0.0,89.20383102000002,1.6272007199999998,9.54548028
0.5800000000000001,58,0.026000000000000002,-1.0070000000000001,0.017,0.0,-0.057295800000000015,0.0,89.20383102000002,1.6272007199999998,9.54548028
0.59,59,0.027000000000000003,-1.0070000000000001,0.016,0.0,-0.11459160000000004,0.057295800000000015,89.20383102000002,1.6272007199999998,9.54548028
0.6,60,0.027000000000000003,-1.0090000000000001,0.013999999999999999,0.11459160000000004,-0.057295800000000015,0.0,89.22101975999998,1.6386598799999998,9.539750699999999
0.61,61,0.027000000000000003,-1.0070000000000001,0.016,0.11459160000000004,-0.057295800000000015,0.0,89.22674934,1.6386598799999998,9.539750699999999
0.62,62,0.026000000000000002,-1.0070000000000001,0.018000000000000002,0.0,-0.2291832000000001,0.0,89.22674934,1.6386598799999998,9.53402112
0.63,63,0.024,-1.008,0.018000000000000002,0.0,-0.057295800000000015,-0.057295800000000015,89.22674934,1.6386598799999998,9.53402112
0.64,64,0.025,-1.008,0.017,0.0,0.1718874,-0.057295800000000015,89.22101975999998,1.64438946,9.539750699999999
0.65,65,0.028999999999999998,-1.011,0.016,-0.057295800000000015,0.3437748,0.0,89.24966766,1.6673077799999998,9.53402112
0.66,66,0.028999999999999998,-1.012,0.016,0.0,0.286479,0.2291832000000001,89.24966766,1.6673077799999998,9.539750699999999
0.67,67,0.027000000000000003,-1.013,0.015,0.11459160000000004,0.1718874,0.286479,89.24966766,1.6615782,9.539750699999999
0.68,68,0.026000000000000002,-1.012,0.016,0.11459160000000004,0.1718874,0.3437748,89.25539724,1.6615782,9.54548028
0.6900000000000001,69,0.026000000000000002,-1.01,0.016,0.057295800000000015,0.1718874,0.286479,89.25539724,1.6558486199999998,9.54548028
0.7000000000000001,70,0.027000000000000003,-1.0090000000000001,0.015,-0.11459160000000004,0.286479,0.286479,89.2668564,1.6615782,9.54548028
0.7100000000000001,71,0.027999999999999997,-1.006,0.017,-0.057295800000000015,0.1718874,0.1718874,89.2668564,1.6615782,9.55120986
0.72,72,0.028999999999999998,-1.006,0.016,-0.057295800000000015,0.286479,0.11459160000000004,89.2668564,1.6615782,9.55120986
0.73,73,0.031,-1.004,0.015,-0.057295800000000015,0.11459160000000004,0.057295800000000015,89.2668564,1.6615782,9.55120986
0.74,74,0.027999999999999997,-1.003,0.013999999999999999,-0.057295800000000015,0.057295800000000015,0.0,89.26112682,1.6615782,9.55693944
0.75,75,0.03,-1.002,0.013000000000000001,0.0,0.11459160000000004,0.0,89.28404514,1.6959556799999995,9.55120986
0.76,76,0.027999999999999997,-1.002,0.013999999999999999,0.0,0.0,0.0,89.28404514,1.6959556799999995,9.55120986
0.77,77,0.027000000000000003,-1.003,0.013999999999999999,0.11459160000000004,0.0,0.11459160000000004,89.28404514,1.6959556799999995,9.55120986
0.78,78,0.027000000000000003,-1.001,0.015,0.1718874,-0.11459160000000004,0.057295800000000015,89.28977472,1.6959556799999995,9.55120986
0.79,79,0.024,-1.002,0.015,0.11459160000000004,0.057295800000000015,0.0,89.28977472,1.6959556799999995,9.55120986
0.8,80,0.025,-1.002,0.015,0.2291832000000001,0.11459160000000004,-0.057295800000000015,89.31269304,1.70168526,9.55120986
0.81,81,0.026000000000000002,-1.003,0.013999999999999999,0.3437748,0.1718874,-0.057295800000000015,89.31269304,1.70168526,9.55120986
0.8200000000000001,82,0.027999999999999997,-1.003,0.013000000000000001,0.4583664000000001,0.11459160000000004,0.0,89.31842262,1.70168526,9.55120986
0.8300000000000001,83,0.027999999999999997,-1.004,0.015,0.4583664000000001,0.0,0.0,89.3241522,1.70168526,9.55120986
0.8400000000000001,84,0.026000000000000002,-1.005,0.013000000000000001,0.6302538000000001,-0.286479,0.0,89.32988178,1.70168526,9.55120986
0.85,85,0.025,-1.0070000000000001,0.015,0.6302538000000001,-0.3437748,0.0,89.3528001,1.70168526,9.54548028
0.86,86,0.025,-1.0090000000000001,0.015,0.6302538000000001,-0.1718874,0.11459160000000004,89.35852968,1.70168526,9.54548028
0.87,87,0.025,-1.011,0.016,0.5156622000000001,0.0,0.0,89.36425926,1.6959556799999995,9.54548028
0.88,88,0.024,-1.01,0.015,0.5156622000000001,0.1718874,0.057295800000000015,89.36998884,1.6959556799999995,9.54548028
0.89,89,0.025,-1.011,0.013999999999999999,0.40107059999999994,0.40107059999999994,0.057295800000000015,89.37571842,1.6959556799999995,9.55120986
0.9,90,0.026000000000000002,-1.011,0.013000000000000001,0.1718874,0.4583664000000001,0.0,89.38144799999998,1.70168526,9.55120986
0.91,91,0.027999999999999997,-1.011,0.012,0.0,0.6302538000000001,0.0,89.38144799999998,1.70168526,9.55693944
0.92,92,0.027999999999999997,-1.01,0.013000000000000001,0.0,0.572958,0.057295800000000015,89.38144799999998,1.70168526,9.568398599999998
0.93,93,0.028999999999999998,-1.0090000000000001,0.015,-0.057295800000000015,0.5156622000000001,0.0,89.38144799999998,1.70168526,9.57412818
0.9400000000000001,94,0.03,-1.008,0.015,0.0,0.5156622000000001,0.0,89.38144799999998,1.70168526,9.57412818
0.9500000000000001,95,0.031,-1.0090000000000001,0.015,0.0,0.286479,-0.057295800000000015,89.4100959,1.74179232,9.57412818
0.9600000000000001,96,0.03,-1.008,0.015,0.0,0.2291832000000001,0.0,89.4100959,1.74179232,9.57985776
0.97,97,0.03,-1.0090000000000001,0.015,0.0,0.11459160000000004,0.0,89.4100959,1.74179232,9.57985776
0.98,98,0.028999999999999998,-1.008,0.015,-0.057295800000000015,0.1718874,0.057295800000000015,89.40436632,1.74179232,9.57985776
0.99,99,0.03,-1.008,0.013999999999999999,0.0,0.1718874,0.11459160000000004,89.40436632,1.73606274,9.58558734
1.0,100,0.028999999999999998,-1.006,0.013999999999999999,-0.11459160000000004,0.2291832000000001,0.057295800000000015,89.41582548,1.7475218999999995,9.58558734
1.01,101,0.027000000000000003,-1.004,0.015,-0.057295800000000015,0.1718874,0.057295800000000015,89.41582548,1.7475218999999995,9.58558734
1.02,102,0.027000000000000003,-1.004,0.015,0.057295800000000015,0.11459160000000004,0.057295800000000015,89.41582548,1.7475218999999995,9.59131692
1.03,103,0.027000000000000003,-1.003,0.016,0.11459160000000004,0.0,0.11459160000000004,89.41582548,1.74179232,9.59131692
1.04,104,0.027999999999999997,-1.002,0.017,0.1718874,0.057295800000000015,0.2291832000000001,89.42155505999996,1.74179232,9.59131692
1.05,105,0.028999999999999998,-1.002,0.019,0.2291832000000001,0.286479,0.286479,89.4387438,1.7475218999999995,9.59131692
1.06,106,0.03,-1.002,0.019,0.3437748,0.3437748,0.2291832000000001,89.44447338,1.74179232,9.5970465
1.07,107,0.027999999999999997,-1.003,0.019,0.4583664000000001,0.572958,0.2291832000000001,89.45020296,1.74179232,9.60277608
1.08,108,0.027999999999999997,-1.005,0.019,0.5156622000000001,0.572958,0.286479,89.45593253999998,1.73606274,9.60850566
1.09,109,0.027999999999999997,-1.0070000000000001,0.019,0.6302538000000001,0.3437748,0.2291832000000001,89.46166212,1.73606274,9.60850566
1.1,110,0.025,-1.0070000000000001,0.02,0.6302538000000001,0.286479,0.2291832000000001,89.47885086,1.73033316,9.61423524
1.11,111,0.026000000000000002,-1.0070000000000001,0.02,0.6302538000000001,0.11459160000000004,0.1718874,89.49031002000002,1.73033316,9.61423524
1.12,112,0.027000000000000003,-1.008,0.019,0.572958,0.1718874,0.11459160000000004,89.49603959999996,1.73033316,9.61423524
1.1300000000000001,113,0.027000000000000003,-1.008,0.018000000000000002,0.5156622000000001,0.2291832000000001,0.1718874,89.50176918,1.7246035799999997,9.61996482
1.1400000000000001,114,0.027000000000000003,-1.0090000000000001,0.02,0.5156622000000001,0.11459160000000004,0.2291832000000001,89.50749876,1.7246035799999997,9.61996482
1.1500000000000001,115,0.026000000000000002,-1.01,0.019,0.572958,0.057295800000000015,0.1718874,89.5246875,1.7246035799999997,9.61996482
1.1600000000000001,116,0.025,-1.01,0.02,0.6875496,0.11459160000000004,0.11459160000000004,89.53614666000001,1.7246035799999997,9.61996482
1.17,117,0.024,-1.011,0.019,0.572958,0.286479,0.11459160000000004,89.54187624,1.7188740000000002,9.6256944
1.18,118,0.025,-1.012,0.018000000000000002,0.2291832000000001,0.6302538000000001,0.1718874,89.54187624,1.7188740000000002,9.63142398
1.19,119,0.026000000000000002,-1.01,0.016,0.3437748,0.286479,0.3437748,89.54760582,1.71314442,9.63142398
1.2,120,0.024,-1.008,0.019,0.286479,0.3437748,0.40107059999999994,89.56479456,1.71314442,9.63715356
1.21,121,0.025,-1.0090000000000001,0.021,0.0,0.286479,0.1718874,89.56479456,1.7074148399999998,9.63715356
1.22,122,0.026000000000000002,-1.0090000000000001,0.017,0.0,0.5156622000000001,0.11459160000000004,89.56479456,1.7074148399999998,9.64288314
1.23,123,0.026000000000000002,-1.0070000000000001,0.018000000000000002,-0.11459160000000004,0.6875496,0.11459160000000004,89.55906498,1.7074148399999998,9.654342300000001
1.24,124,0.026000000000000002,-1.006,0.019,-0.2291832000000001,0.4583664000000001,0.057295800000000015,89.55906498,1.7074148399999998,9.654342300000001
1.25,125,0.027000000000000003,-1.005,0.019,-0.1718874,0.2291832000000001,0.0,89.57625372,1.71314442,9.654342300000001
1.26,126,0.025,-1.0070000000000001,0.017,-0.2291832000000001,0.057295800000000015,0.0,89.57052414,1.71314442,9.66007188
1.27,127,0.025,-1.0090000000000001,0.019,-0.2291832000000001,0.0,0.057295800000000015,89.57052414,1.71314442,9.654342300000001
1.28,128,0.023,-1.012,0.022000000000000002,-0.1718874,-0.1718874,0.2291832000000001,89.57052414,1.7074148399999998,9.654342300000001
1.29,129,0.023,-1.015,0.022000000000000002,-0.2291832000000001,-0.11459160000000004,0.3437748,89.56479456,1.7074148399999998,9.654342300000001
1.3,130,0.024,-1.014,0.023,-0.40107059999999994,0.2291832000000001,0.3437748,89.57625372,1.70168526,9.654342300000001
1.31,131,0.025,-1.011,0.024,-0.6302538000000001,0.6302538000000001,0.11459160000000004,89.57052414,1.6959556799999995,9.66007188
1.32,132,0.024,-1.0090000000000001,0.025,-0.9167328000000001,1.145916,0.057295800000000015,89.55906498,1.6959556799999995,9.67153104
1.33,133,0.023,-1.0070000000000001,0.024,-0.9167328000000001,1.432395,0.0,89.54760582,1.6959556799999995,9.68871978
1.34,134,0.023,-1.004,0.022000000000000002,-0.9167328000000001,1.5469866,-0.057295800000000015,89.54187624,1.6959556799999995,9.70590852
1.35,135,0.024,-1.003,0.02,-0.6875496,1.2032118,-0.1718874,89.54187624,1.6959556799999995,9.71736768
1.36,136,0.025,-1.003,0.019,-0.572958,1.0886202,-0.2291832000000001,89.53614666000001,1.70168526,9.72309726
1.37,137,0.026000000000000002,-1.003,0.019,-0.4583664000000001,0.9167328000000001,-0.2291832000000001,89.53041707999998,1.70168526,9.73455642
1.3800000000000001,138,0.027000000000000003,-1.002,0.019,-0.4583664000000001,0.8021411999999999,-0.2291832000000001,89.5246875,1.7074148399999998,9.740286
1.3900000000000001,139,0.027000000000000003,-1.002,0.02,-0.3437748,0.8021411999999999,-0.11459160000000004,89.5246875,1.7074148399999998,9.75174516
1.4000000000000001,140,0.025,-1.002,0.021,-0.3437748,0.7448454000000001,-0.1718874,89.53041707999998,1.7074148399999998,9.75747474
1.4100000000000001,141,0.025,-1.002,0.021,-0.286479,0.8021411999999999,-0.1718874,89.53041707999998,1.7074148399999998,9.7689339
1.42,142,0.025,-1.002,0.022000000000000002,-0.3437748,0.9740286,-0.1718874,89.5246875,1.7074148399999998,9.77466348
1.43,143,0.027000000000000003,-1.004,0.02,-0.3437748,1.0313244000000001,-0.1718874,89.51895792,1.71314442,9.78612264
1.44,144,0.026000000000000002,-1.005,0.018000000000000002,-0.1718874,0.9740286,-0.11459160000000004,89.51895792,1.71314442,9.797581800000001
1.45,145,0.025,-1.005,0.021,-0.2291832000000001,0.8594370000000001,-0.11459160000000004,89.53041707999998,1.71314442,9.80331138
1.46,146,0.023,-1.0090000000000001,0.02,-0.286479,0.8594370000000001,0.0,89.5246875,1.71314442,9.81477054
1.47,147,0.025,-1.0090000000000001,0.019,-0.40107059999999994,0.9167328000000001,-0.11459160000000004,89.5246875,1.71314442,9.82050012
1.48,148,0.027999999999999997,-1.011,0.019,-0.40107059999999994,0.9740286,-0.11459160000000004,89.51895792,1.7188740000000002,9.83195928
1.49,149,0.03,-1.012,0.02,-0.4583664000000001,0.9740286,-0.057295800000000015,89.51322834,1.7188740000000002,9.84341844
1.5,150,0.031,-1.013,0.019,-0.40107059999999994,0.7448454000000001,0.0,89.51895792,1.7246035799999997,9.84914802
1.51,151,0.032,-1.013,0.02,-0.6302538000000001,0.8021411999999999,0.0,89.51322834,1.7246035799999997,9.8548776
1.52,152,0.032,-1.012,0.019,-0.6875496,0.8021411999999999,0.0,89.50749876,1.7246035799999997,9.86633676
1.53,153,0.033,-1.012,0.02,-0.9167328000000001,0.7448454000000001,-0.057295800000000015,89.49603959999996,1.73033316,9.87206634
1.54,154,0.032,-1.011,0.018000000000000002,-1.0313244000000001,0.8021411999999999,-0.057295800000000015,89.48458044,1.73033316,9.87779592
1.55,155,0.031,-1.01,0.018000000000000002,-1.0313244000000001,0.5156622000000001,0.0,89.48458044,1.74179232,9.8835255
1.56,156,0.03,-1.0090000000000001,0.017,-1.0313244000000001,0.2291832000000001,0.0,89.47312128,1.74179232,9.8835255
1.57,157,0.028999999999999998,-1.0090000000000001,0.017,-1.0313244000000001,0.0,0.0,89.46166212,1.74179232,9.88925508
1.58,158,0.028999999999999998,-1.0070000000000001,0.019,-1.0313244000000001,-0.1718874,0.0,89.45020296,1.73606274,9.8835255
1.59,159,0.026000000000000002,-1.004,0.019,-0.9740286,-0.1718874,0.11459160000000004,89.4387438,1.73606274,9.8835255
1.6,160,0.026000000000000002,-1.004,0.02,-1.0313244000000001,0.0,0.057295800000000015,89.44447338,1.74179232,9.8835255
1.61,161,0.027000000000000003,-1.004,0.02,-1.0313244000000001,0.0,0.057295800000000015,89.43301421999998,1.73606274,9.8835255
1.62,162,0.027000000000000003,-1.004,0.018000000000000002,-0.9740286,-0.11459160000000004,0.057295800000000015,89.42155505999996,1.73606274,9.87779592
1.6300000000000001,163,0.026000000000000002,-1.004,0.019,-0.8021411999999999,-0.2291832000000001,0.11459160000000004,89.41582548,1.73606274,9.87779592
1.6400000000000001,164,0.025,-1.005,0.02,-0.8594370000000001,-0.286479,0.057295800000000015,89.40436632,1.73606274,9.87206634
1.6500000000000001,165,0.023,-1.006,0.021,-0.8594370000000001,-0.3437748,0.057295800000000015,89.41582548,1.73033316,9.87206634
1.6600000000000001,166,0.023,-1.0070000000000001,0.019,-0.7448454000000001,-0.286479,0.0,89.40436632,1.73033316,9.86633676
1.6700000000000002,167,0.024,-1.0070000000000001,0.021,-0.8021411999999999,-0.5156622000000001,0.11459160000000004,89.39863674,1.7246035799999997,9.86060718
1.68,168,0.025,-1.0070000000000001,0.021,-0.9740286,-0.3437748,0.1718874,89.38717758,1.7246035799999997,9.8548776
1.69,169,0.026000000000000002,-1.0070000000000001,0.02,-1.0313244000000001,-0.2291832000000001,0.2291832000000001,89.37571842,1.7246035799999997,9.8548776
1.7,170,0.026000000000000002,-1.008,0.02,-1.145916,-0.1718874,0.2291832000000001,89.37571842,1.7188740000000002,9.84914802
1.71,171,0.024,-1.008,0.021,-1.145916,-0.2291832000000001,0.2291832000000001,89.36425926,1.7188740000000002,9.84914802
1.72,172,0.023,-1.008,0.022000000000000002,-1.2032118,0.0,0.1718874,89.3528001,1.71314442,9.84914802
1.73,173,0.024,-1.0070000000000001,0.021,-1.3178034,0.0,0.1718874,89.34134094,1.71314442,9.84914802
1.74,174,0.024,-1.0070000000000001,0.022000000000000002,-1.5469866,0.1718874,0.0,89.3241522,1.71314442,9.84914802
1.75,175,0.025,-1.006,0.02,-1.5469866,0.286479,0.0,89.31842262,1.71314442,9.8548776
1.76,176,0.026000000000000002,-1.004,0.019,-1.5469866,0.057295800000000015,0.0,89.30696345999998,1.71314442,9.8548776
1.77,177,0.026000000000000002,-1.004,0.019,-1.5469866,0.0,-0.057295800000000015,89.28977472,1.71314442,9.8548776
1.78,178,0.026000000000000002,-1.005,0.02,-1.6042823999999998,-0.1718874,0.0,89.27258598,1.71314442,9.84914802
1.79,179,0.024,-1.004,0.02,-1.6042823999999998,-0.40107059999999994,0.0,89.25539724,1.71314442,9.84914802
1.8,180,0.022000000000000002,-1.003,0.02,-1.6615782,-0.3437748,0.057295800000000015,89.24966766,1.7074148399999998,9.84341844
1.81,181,0.025,-1.003,0.019,-1.7761698000000001,-0.1718874,0.1718874,89.23247891999998,1.7074148399999998,9.83768886
1.82,182,0.027000000000000003,-1.003,0.015,-1.8907614,-0.1718874,0.057295800000000015,89.20956059999996,1.7074148399999998,9.83768886
1.83,183,0.027999999999999997,-1.003,0.015,-2.0626488000000003,-0.1718874,0.1718874,89.19237186000002,1.70168526,9.83768886
1.84,184,0.027999999999999997,-1.003,0.017,-2.2345362,-0.40107059999999994,0.1718874,89.16945354,1.70168526,9.83195928
1.85,185,0.027000000000000003,-1.004,0.013999999999999999,-2.0626488000000003,-0.572958,0.2291832000000001,89.1522648,1.70168526,9.826229699999999
1.86,186,0.027000000000000003,-1.0070000000000001,0.013999999999999999,-2.0053530000000004,-0.8594370000000001,0.2291832000000001,89.13507606,1.6959556799999995,9.81477054
1.87,187,0.027000000000000003,-1.012,0.015,-2.0626488000000003,-0.9167328000000001,0.3437748,89.11215774000001,1.6959556799999995,9.80331138
1.8800000000000001,188,0.023,-1.013,0.016,-2.1199446,-0.9167328000000001,0.3437748,89.08923942,1.6902260999999998,9.797581800000001
1.8900000000000001,189,0.019,-1.015,0.019,-2.2345362,-0.9740286,0.2291832000000001,89.06632110000002,1.6902260999999998,9.78612264
1.9000000000000001,190,0.017,-1.015,0.019,-2.3491277999999998,-0.9167328000000001,0.2291832000000001,89.05486194,1.6787669399999998,9.77466348
1.9100000000000001,191,0.02,-1.011,0.018000000000000002,-2.5210152000000003,-0.8021411999999999,0.2291832000000001,89.02621404,1.6787669399999998,9.7689339
1.9200000000000002,192,0.024,-1.011,0.015,-2.6929026,-0.7448454000000001,0.3437748,88.99756613999998,1.67303736,9.75747474
1.93,193,0.025,-1.011,0.012,-2.8074942000000003,-0.6875496,0.3437748,88.96891824000002,1.67303736,9.75174516
1.94,194,0.026000000000000002,-1.0090000000000001,0.01,-2.86479,-0.6875496,0.3437748,88.94027034,1.6673077799999998,9.746015580000002
1.95,195,0.026000000000000002,-1.008,0.011000000000000001,-2.8074942000000003,-0.572958,0.40107059999999994,88.91735202,1.6673077799999998,9.740286
1.96,196,0.025,-1.005,0.01,-2.7501984,-0.572958,0.3437748,88.88870412,1.6615782,9.72882684
1.97,197,0.025,-1.003,0.011000000000000001,-2.6929026,-0.6302538000000001,0.2291832000000001,88.86005622,1.6558486199999998,9.72309726
1.98,198,0.024,-1.002,0.011000000000000001,-2.7501984,-0.8594370000000001,0.1718874,88.83140832000002,1.6558486199999998,9.71736768
1.99,199,0.023,-1.001,0.01,-2.6929026,-0.9740286,0.1718874,88.80276042,1.6558486199999998,9.70590852
2.0,200,0.023,-1.0,0.011000000000000001,-2.6929026,-0.9167328000000001,0.1718874,88.78557168,1.65011904,9.69444936
2.01,201,0.022000000000000002,-1.001,0.013000000000000001,-2.5783110000000002,-1.0886202,0.2291832000000001,88.75692378,1.65011904,9.6829902
2.02,202,0.021,-1.003,0.013999999999999999,-2.4064236,-1.145916,0.2291832000000001,88.73400546,1.64438946,9.67153104
2.03,203,0.022000000000000002,-1.005,0.013000000000000001,-2.291832,-0.8594370000000001,0.2291832000000001,88.71108714,1.64438946,9.66580146
2.04,204,0.023,-1.0070000000000001,0.013000000000000001,-2.4637194,-0.5156622000000001,0.11459160000000004,88.68243924,1.64438946,9.66007188
2.05,205,0.023,-1.008,0.013999999999999999,-2.5210152000000003,-0.3437748,0.0,88.67670966,1.6386598799999998,9.654342300000001
2.0599999999999996,206,0.02,-1.01,0.019,-2.5210152000000003,0.0,0.0,88.64806175999998,1.6386598799999998,9.654342300000001
2.07,207,0.021,-1.01,0.024,-2.6356068,0.572958,-0.2291832000000001,88.61941386,1.64438946,9.66007188
2.0799999999999996,208,0.021,-1.0070000000000001,0.034,-2.5210152000000003,1.6042823999999998,-0.6302538000000001,88.59649553999998,1.65011904,9.67153104
2.09,209,0.024,-1.011,0.040999999999999995,-2.9220858,4.0680017999999984,-1.3750992,88.56784764,1.6615782,9.7116381
2.0999999999999996,210,0.025,-1.018,0.043,-5.1566220000000005,6.4744254,-2.3491277999999998,88.52201099999998,1.6844965200000002,9.77466348
2.11,211,0.019,-1.032,0.037000000000000005,-7.9641161999999985,7.3911582,-2.6929026,88.44179688,1.71314442,9.84914802
2.1199999999999997,212,0.013000000000000001,-1.048,0.015,-10.1413566,6.1879464,-2.4637194,88.33866443999996,1.73606274,9.906443820000002
2.13,213,0.013000000000000001,-1.064,0.0,-10.2559482,3.2658606,-1.8334656000000005,88.23553199999998,1.75325148,9.9408213
2.1399999999999997,214,0.015,-1.08,-0.003,-10.3705398,1.2032118,-0.8021411999999999,88.13239956,1.75898106,9.94655088
2.15,215,0.019,-1.0759999999999998,-0.001,-11.9748222,1.0886202,-0.286479,88.01207838,1.76471064,9.95801004
2.1599999999999997,216,0.021,-1.064,0.002,-14.266654199999998,2.3491277999999998,-0.5156622000000001,87.86883888,1.76471064,9.98092836
2.17,217,0.024,-1.0490000000000002,0.003,-16.4438946,2.8074942000000003,-1.0886202,87.70268106,1.7761698000000001,10.00384668
2.1799999999999997,218,0.026000000000000002,-1.036,0.003,-16.558486199999994,2.0626488000000003,-1.7188740000000002,87.53079366,1.7933585399999998,10.026765
2.19,219,0.028999999999999998,-1.03,0.011000000000000001,-16.501190400000002,1.0313244000000001,-2.4064236,87.36463583999998,1.81627686,10.03249458
2.1999999999999997,220,0.028999999999999998,-1.023,0.02,-17.5325148,0.3437748,-3.0366774,87.19274844,1.84492476,10.03249458
2.21,221,0.027000000000000003,-1.02,0.022000000000000002,-18.621135,0.0,-3.5523396000000003,87.0036723,1.87930224,10.026765
2.2199999999999998,222,0.027000000000000003,-1.028,0.012,-19.767051000000002,-0.11459160000000004,-3.8388186,86.80313699999998,1.91367972,10.02103542
2.23,223,0.025,-1.036,0.0,-21.142150199999996,-0.11459160000000004,-3.6669312000000014,86.58541296,1.9480572000000005,10.01530584
2.2399999999999998,224,0.026000000000000002,-1.04,-0.01,-22.058882999999998,-0.11459160000000004,-2.9793816000000004,86.36195934,1.9767051,10.00957626
2.25,225,0.026000000000000002,-1.036,-0.015,-22.803728399999997,-0.1718874,-2.2345362,86.13850572,1.99962342,10.00384668
2.26,226,0.027000000000000003,-1.026,-0.011000000000000001,-23.319390600000002,-0.40107059999999994,-1.7761698000000001,85.89786336,2.01108258,9.9981171
2.27,227,0.026000000000000002,-1.014,-0.008,-23.3766864,-0.9740286,-1.6615782,85.66295058,2.02827132,9.98092836
2.28,228,0.025,-1.004,-0.005,-23.3766864,-1.3178034,-1.8334656000000005,85.42230822,2.04546006,9.963739620000002
2.29,229,0.026000000000000002,-1.001,-0.002,-23.491278,-1.4896908000000002,-2.4064236,85.18166586000002,2.0626488000000003,9.94655088
2.3,230,0.025,-1.004,-0.004,-23.892348600000002,-1.7188740000000002,-2.9220858,84.94675308000002,2.0912967,9.92363256
2.31,231,0.021,-1.012,-0.006999999999999999,-24.4080108,-1.8907614,-3.2085647999999996,84.70038114,2.1199446,9.90071424
2.32,232,0.025,-1.023,-0.012,-25.0955604,-1.7188740000000002,-3.2658606,84.44255003999999,2.1485925000000003,9.87779592
2.3299999999999996,233,0.025,-1.03,-0.017,-26.2987722,-1.3750992,-3.0939732,84.17325978,2.1772404,9.8548776
2.34,234,0.027000000000000003,-1.034,-0.019,-27.6165756,-0.8594370000000001,-2.6929026,83.89251035999997,2.20015872,9.84341844
2.3499999999999996,235,0.027999999999999997,-1.038,-0.024,-28.7051958,-0.572958,-2.4064236,83.60603136,2.21734746,9.83195928
2.36,236,0.027999999999999997,-1.04,-0.027000000000000003,-29.8511118,-0.1718874,-2.2345362,83.30236362,2.24026578,9.82050012
2.3699999999999997,237,0.027999999999999997,-1.04,-0.028999999999999998,-31.054323600000004,0.0,-2.0626488000000003,82.98723672,2.25745452,9.81477054
2.38,238,0.028999999999999998,-1.042,-0.031,-32.257535399999995,0.2291832000000001,-2.291832,82.66065066,2.2746432600000004,9.81477054
2.3899999999999997,239,0.032,-1.044,-0.036000000000000004,-34.2055926,0.6302538000000001,-2.6356068,82.31114628,2.29756158,9.81477054
2.4,240,0.032,-1.052,-0.042,-35.9817624,0.40107059999999994,-2.6929026,81.95591232000002,2.3204799,9.80904096
2.4099999999999997,241,0.034,-1.058,-0.044000000000000004,-37.9871154,0.0,-2.6356068,81.56630088,2.34339822,9.80331138
2.42,242,0.036000000000000004,-1.062,-0.048,-40.10706,0.0,-2.4637194,81.1595007,2.36631654,9.79185222
2.4299999999999997,243,0.037000000000000005,-1.063,-0.06,-42.1697088,0.0,-2.2345362,80.7297822,2.38350528,9.78612264
2.44,244,0.036000000000000004,-1.061,-0.067,-44.2896534,-0.11459160000000004,-2.0626488000000003,80.28287496,2.40069402,9.77466348
2.4499999999999997,245,0.038,-1.061,-0.071,-46.5241896,-0.5156622000000001,-1.9480572,79.81304940000003,2.41215318,9.76320432
2.46,246,0.037000000000000005,-1.058,-0.07400000000000001,-48.8733174,-1.0313244000000001,-1.7761698000000001,79.31457594,2.42361234,9.746015580000002
2.4699999999999998,247,0.036000000000000004,-1.054,-0.076,-51.9099948,-1.7188740000000002,-1.7761698000000001,78.78745458,2.4350715000000003,9.71736768
2.48,248,0.035,-1.051,-0.084,-54.3737142,-1.4896908000000002,-1.8334656000000005,78.2374149,2.44653066,9.69444936
2.4899999999999998,249,0.033,-1.05,-0.092,-56.837433600000004,-0.9167328000000001,-2.0053530000000004,77.65872732,2.45798982,9.67726062
2.5,250,0.036000000000000004,-1.045,-0.102,-59.014674,-0.6302538000000001,-2.2345362,77.062851,2.46944898,9.66007188
2.51,251,0.040999999999999995,-1.045,-0.10800000000000001,-61.020027,-0.3437748,-2.3491277999999998,76.44405636,2.48663772,9.64288314
2.52,252,0.047,-1.044,-0.113,-63.25456320000001,-0.4583664000000001,-2.4637194,75.80234340000001,2.50382646,9.63142398
2.53,253,0.053,-1.0390000000000001,-0.11599999999999999,-65.3745078,-0.8594370000000001,-2.4637194,75.13771212,2.5210152000000003,9.60850566
2.54,254,0.054000000000000006,-1.03,-0.125,-67.2079734,-0.8021411999999999,-2.6929026,74.45016252,2.53247436,9.58558734
2.55,255,0.059000000000000004,-1.0290000000000001,-0.136,-69.041439,-0.6875496,-2.86479,73.75688333999999,2.55539268,9.568398599999998
2.56,256,0.059000000000000004,-1.024,-0.152,-70.76031300000002,-0.6875496,-2.9220858,73.03495626,2.57258142,9.54548028
2.57,257,0.052000000000000005,-1.016,-0.162,-71.9635248,-1.0313244000000001,-2.9793816000000004,72.3072996,2.58977016,9.51683238
2.5799999999999996,258,0.042,-1.0090000000000001,-0.171,-72.93755340000001,-1.5469866,-3.2085647999999996,71.5624542,2.6069589,9.48818448
2.59,259,0.037000000000000005,-1.0,-0.179,-74.42724419999998,-1.4896908000000002,-3.8961144,70.80614964,2.62987722,9.453807000000001
2.5999999999999996,260,0.035,-0.99,-0.185,-76.48989300000002,-1.4896908000000002,-4.5263682,70.03265634,2.6642547000000003,9.41942952
2.61,261,0.03,-0.986,-0.192,-77.80769640000003,-1.4896908000000002,-4.9847346,69.24197430000001,2.6929026,9.38505204
2.6199999999999997,262,0.028999999999999998,-0.982,-0.20199999999999999,-79.641162,-0.8021411999999999,-5.5576926,68.43410352000001,2.73300966,9.350674559999998
2.63,263,0.036000000000000004,-0.971,-0.20800000000000002,-82.21947300000002,-0.286479,-5.5576926,67.59758484,2.77311672,9.31629708
2.6399999999999997,264,0.042,-0.9670000000000001,-0.225,-83.65186800000002,-0.2291832000000001,-5.1566220000000005,66.74387741999999,2.81322378,9.28764918
2.65,265,0.045,-0.956,-0.22699999999999998,-86.23017899999998,-1.2605076000000002,-4.9274388,65.87298125999999,2.84187168,9.253271699999999
2.6599999999999997,266,0.036000000000000004,-0.95,-0.22399999999999998,-86.97502440000002,-2.6929026,-4.6982555999999995,64.99062594,2.86479,9.20170548
2.67,267,0.033,-0.953,-0.24600000000000002,-88.17823620000001,-2.2345362,-4.5263682,64.09108188,2.88197874,9.15586884
2.6799999999999997,268,0.027999999999999997,-0.9540000000000001,-0.276,-90.1262934,-0.6875496,-4.4117766,63.17434908,2.91062664,9.12149136
2.69,269,0.027000000000000003,-0.955,-0.298,-91.10032199999999,-0.572958,-4.5263682,62.25188670000001,2.93354496,9.09284346
2.6999999999999997,270,0.025,-0.961,-0.3,-92.5900128,-1.432395,-4.6409598,61.31796515999999,2.9564632800000004,9.0527364
2.71,271,0.019,-0.955,-0.28600000000000003,-93.6213372,-1.7188740000000002,-4.4117766,60.36112530000001,2.9736520200000003,9.00689976
2.7199999999999998,272,0.023,-0.943,-0.284,-93.0483792,-0.2291832000000001,-4.3544808,59.4157446,3.00229992,8.97825186
2.73,273,0.025,-0.946,-0.314,-92.1316464,1.7761698000000001,-4.3544808,58.48182306,3.0366774000000003,8.9667927
2.7399999999999998,274,0.032,-0.9570000000000001,-0.33799999999999997,-93.7359288,3.0366774,-4.0680017999999984,57.53071278,3.07105488,8.9667927
2.75,275,0.043,-0.966,-0.371,-95.970465,4.4690724,-3.0366774,56.56241376000001,3.1054323600000004,8.98398144
2.76,276,0.053,-0.9740000000000001,-0.41,-98.4341844,5.1566220000000005,-1.3750992,55.56546684,3.13408026,9.01262934
2.77,277,0.036000000000000004,-0.9790000000000001,-0.45799999999999996,-100.26765,5.2139178,-0.1718874,54.54560160000001,3.1512689999999997,9.0527364
2.78,278,-0.001,-0.9640000000000001,-0.494,-102.1011156,6.0733548,0.2291832000000001,53.5142772,3.16845774,9.098573040000002
2.79,279,-0.04,-0.9520000000000001,-0.505,-103.8772854,7.9641161999999985,-0.5156622000000001,52.46003448,3.20283522,9.15586884
2.8,280,-0.059000000000000004,-0.9179999999999999,-0.536,-105.0804972,9.9694692,-1.8907614,51.40006218,3.26013102,9.21889422
2.81,281,-0.061,-0.883,-0.603,-105.48156780000001,13.0061466,-3.380452200000001,50.32863072,3.3518043,9.29337876
2.82,282,-0.034,-0.848,-0.657,-106.3983006,15.126091199999998,-4.5263682,49.25146968,3.4663959,9.37932246
2.8299999999999996,283,0.006999999999999999,-0.8009999999999999,-0.705,-105.5961594,15.6990492,-5.5576926,48.185767799999994,3.59244666,9.45953658
2.84,284,0.055999999999999994,-0.763,-0.7709999999999999,-104.7367224,16.2147114,-6.2452422,47.1257955,3.7299565800000014,9.53402112
2.8499999999999996,285,0.10300000000000001,-0.728,-0.831,-103.6481022,13.9228794,-5.9014674000000005,46.07155278000001,3.85027776,9.5970465
2.86,286,0.146,-0.687,-0.903,-99.981171,8.9954406,-4.5263682,45.05741712,3.93049188,9.6256944
2.8699999999999997,287,0.159,-0.654,-0.9640000000000001,-94.53807,3.2085647999999996,-3.6669312000000014,44.09484768,3.9648693599999993,9.61996482
2.88,288,0.153,-0.6409999999999999,-0.983,-88.17823620000001,-0.5156622000000001,-3.4377480000000005,43.20103320000001,3.97059894,9.59131692
2.8899999999999997,289,0.139,-0.6409999999999999,-0.975,-82.1621772,-3.380452200000001,-4.583664,42.35878494,3.97059894,9.53402112
2.9,290,0.10400000000000001,-0.638,-0.9570000000000001,-76.31800559999998,-6.1879464,-6.3598338,41.57383248,3.9534102,9.44234784
2.9099999999999997,291,0.066,-0.637,-0.937,-70.5311298,-7.2192707999999985,-7.3911582,40.8519054,3.94195104,9.33348582
2.92,292,0.034,-0.636,-0.929,-66.463128,-7.3911582,-7.6776372,40.17008538,3.93049188,9.23035338
2.9299999999999997,293,0.013999999999999999,-0.624,-0.917,-62.96808420000001,-6.0160589999999985,-7.1046792000000005,39.52837242,3.9190327200000006,9.13295052
2.94,294,0.011000000000000001,-0.591,-0.9,-59.1865614,-4.583664,-6.130650599999999,38.92103694,3.9190327200000006,9.0527364
2.9499999999999997,295,0.01,-0.562,-0.89,-54.54560160000001,-4.010706000000001,-5.3858052,38.35380852,3.90757356,8.98398144
2.96,296,0.0,-0.536,-0.883,-49.274388,-3.7242269999999995,-5.1566220000000005,37.84960548,3.90184398,8.92095606
2.9699999999999998,297,-0.006999999999999999,-0.527,-0.882,-44.117765999999996,-4.297185,-5.2139178,37.39696866,3.896114400000001,8.852201099999998
2.98,298,-0.006,-0.516,-0.883,-40.4508348,-4.8128472,-5.3858052,36.984438899999994,3.88465524,8.77771656
2.9899999999999998,299,0.006999999999999999,-0.51,-0.875,-36.38283300000001,-4.3544808,-5.6149884000000005,36.60628662000001,3.87892566,8.7089616
3.0,300,0.026000000000000002,-0.505,-0.866,-31.22621100000001,-4.297185,-6.0160589999999985,36.27397098,3.873196080000002,8.634477059999998
3.01,301,0.035,-0.518,-0.856,-25.668518399999996,-4.7555514,-7.0473834,36.00468072,3.873196080000002,8.54853336
3.02,302,0.044000000000000004,-0.5329999999999999,-0.847,-20.912967000000002,-6.1879464,-7.5630456000000015,35.78695668,3.8674665,8.451130500000001
3.03,303,0.04,-0.544,-0.843,-17.0168526,-7.448453999999999,-6.3598338,35.60933970000001,3.84454818,8.353727639999999
3.04,304,0.037000000000000005,-0.545,-0.856,-14.610429000000002,-7.3911582,-4.9847346,35.45464104,3.810170700000002,8.26778394
3.05,305,0.035,-0.531,-0.84,-10.886202,-8.307891,-3.4377480000000005,35.3228607,3.75860448,8.18756982
3.06,306,0.008,-0.521,-0.8320000000000001,-6.2452422,-8.193299399999999,-2.0626488000000003,35.25983532,3.70703826,8.12454444
3.07,307,-0.009000000000000001,-0.53,-0.846,-3.3231564,-7.6776372,-2.0626488000000003,35.21972826,3.65547204,8.06151906
3.08,308,-0.012,-0.51,-0.862,-0.572958,-9.3392154,-2.9793816000000004,35.20826909999999,3.59817624,7.9813049399999985
3.09,309,-0.02,-0.519,-0.851,4.1252976000000015,-10.4278356,-4.4117766,35.24837616,3.54088044,7.88390208
3.0999999999999996,310,-0.017,-0.518,-0.813,8.5370742,-12.6623718,-5.3858052,35.31713112,3.4663959,7.763580899999999
3.11,311,0.026000000000000002,-0.5589999999999999,-0.847,13.2926256,-12.4904844,-5.443101,35.44891146,3.40337052,7.64325972
3.1199999999999997,312,0.042,-0.5760000000000001,-0.8370000000000001,17.18874,-11.5737516,-5.9014674000000005,35.620798859999994,3.34607472,7.528668120000002
3.13,313,0.045,-0.5589999999999999,-0.856,20.3973048,-10.599723,-4.9847346,35.82133416,3.2945085,7.42553568
3.1399999999999997,314,0.033,-0.545,-0.845,23.777757,-9.396511199999999,-4.010706000000001,36.05624694,3.2486718599999995,7.333862399999999
3.15,315,0.006999999999999999,-0.527,-0.833,28.762491600000004,-8.250595200000001,-3.0939732,36.33699636,3.20283522,7.259377859999999
3.1599999999999997,316,-0.035,-0.527,-0.853,33.403451399999994,-5.6722842,-3.380452200000001,36.67504158,3.1799169000000003,7.19635248
3.17,317,-0.07400000000000001,-0.545,-0.856,39.820581,-3.6669312000000014,-3.5523396000000003,37.07611218,3.1799169000000003,7.144786260000001
3.1799999999999997,318,-0.10400000000000001,-0.555,-0.879,44.175061799999995,-0.572958,-4.1252976000000015,37.52301942,3.2085648000000004,7.11040878
3.19,319,-0.109,-0.5670000000000001,-0.858,49.61816279999999,2.3491277999999998,-4.583664,38.02149288,3.26013102,7.0874904600000015
3.1999999999999997,320,-0.1,-0.575,-0.826,53.7434604,2.9793816000000004,-5.1566220000000005,38.56007340000001,3.3116972399999995,7.0703017200000025
3.21,321,-0.068,-0.599,-0.838,55.977996600000004,4.1252976000000015,-5.958763200000001,39.12730182,3.38618178,7.0473833999999975
3.2199999999999998,322,-0.028999999999999998,-0.618,-0.804,60.3324774,4.4117766,-6.4744254,39.74036688,3.47212548,7.030194660000001
3.23,323,0.015,-0.655,-0.8029999999999999,63.08267579999999,6.0733548,-6.990087599999999,40.37635026,3.56952834,7.018735500000001
3.2399999999999998,324,0.042,-0.6679999999999999,-0.787,63.6556338,5.3285094000000015,-7.2765666,41.023792799999995,3.666931200000001,7.001546759999999
3.25,325,0.037000000000000005,-0.665,-0.72,66.3485364,1.3750992,-7.0473834,41.69415366,3.7299565800000014,6.955710119999999
3.26,326,0.02,-0.672,-0.759,64.5723666,1.4896908000000002,-6.6463128000000005,42.34732578,3.79298196,6.92133264
3.27,327,-0.004,-0.6629999999999999,-0.8029999999999999,64.17129600000001,3.1512689999999997,-6.3598338,42.99476832,3.8674665,6.898414319999999
3.28,328,-0.037000000000000005,-0.6629999999999999,-0.767,65.94746579999999,3.3231564,-5.9014674000000005,43.65939960000001,3.94195104,6.875496000000001
3.29,329,-0.042,-0.6679999999999999,-0.716,65.317212,2.0053530000000004,-5.6722842,44.32403088,4.00497642,6.85257768
3.3,330,-0.027999999999999997,-0.672,-0.7290000000000001,62.16594300000001,3.0939732,-5.5003968,44.9485551,4.0680017999999984,6.83538894
3.31,331,-0.022000000000000002,-0.665,-0.7390000000000001,60.10329419999999,5.443101,-5.3858052,45.55589058,4.14821592,6.8411185199999975
3.32,332,-0.031,-0.657,-0.679,60.3324774,5.0993262,-5.9014674000000005,46.16895564,4.23415962,6.8411185199999975
3.33,333,-0.036000000000000004,-0.6679999999999999,-0.642,58.6136034,1.8334656000000005,-6.875496000000001,46.75910238,4.30291458,6.80674104
3.34,334,-0.032,-0.682,-0.635,55.576926,0.9740286,-7.6203414,47.32060122,4.37739912,6.76663398
3.3499999999999996,335,-0.036000000000000004,-0.701,-0.617,52.7694318,1.0313244000000001,-7.906820400000001,47.85345216,4.4404245000000016,6.72079734
3.36,336,-0.042,-0.731,-0.624,49.560867,0.5156622000000001,-8.4224826,48.35192562,4.50917946,6.669231119999999
3.3699999999999997,337,-0.048,-0.7490000000000001,-0.6679999999999999,45.72204840000001,-1.3750992,-9.1100322,48.81029202000001,4.57793442,6.60047616
3.38,338,-0.045,-0.755,-0.628,46.2377106,-2.6929026,-9.0527364,49.274388,4.63523022,6.52026204
3.3899999999999997,339,-0.021,-0.768,-0.588,44.51883660000001,-3.2085647999999996,-8.9381448,49.72129524,4.68679644,6.4400479200000005
3.4,340,-0.005,-0.757,-0.583,41.539455,-3.7242269999999995,-8.59437,50.133825,4.7269035000000015,6.3598338000000005
3.4099999999999997,341,-0.01,-0.728,-0.588,39.9924684,-3.4377480000000005,-8.136003599999999,50.5348956,4.77846972,6.2796196800000015
3.42,342,-0.019,-0.7120000000000001,-0.59,39.47680620000001,-3.7242269999999995,-7.6776372,50.93023662,4.81857678,6.2051351399999986
3.4299999999999997,343,-0.037000000000000005,-0.7020000000000001,-0.54,38.2162986,-5.042030400000002,-7.6776372,51.31411848000001,4.85295426,6.11919144
3.44,344,-0.052000000000000005,-0.698,-0.531,35.9817624,-5.0993262,-8.078707799999998,51.66935244,4.88733174,6.0275181600000005
3.4499999999999997,345,-0.061,-0.679,-0.526,35.695283399999994,-3.9534102,-9.0527364,52.0245864,4.9274388,5.94157446
3.46,346,-0.06,-0.6759999999999999,-0.46,36.6120162,-3.1512689999999997,-9.9121734,52.39127952,4.99619376,5.861360339999999
3.4699999999999998,347,-0.062,-0.695,-0.516,34.4920716,-2.3491277999999998,-10.599723,52.73505432,5.0706783,5.77541664
3.48,348,-0.077,-0.6890000000000001,-0.54,35.4088044,-0.6302538000000001,-11.5164558,53.0845587,5.16235158,5.70666168
3.4899999999999998,349,-0.055,-0.723,-0.507,36.554720399999994,0.3437748,-11.688343199999998,53.45125182,5.25975444,5.63790672
3.5,350,-0.031,-0.745,-0.505,35.695283399999994,0.6875496,-11.2299768,53.81221536,5.35142772,5.58061092
3.51,351,-0.001,-0.737,-0.479,36.669312,0.572958,-10.599723,54.17890848,5.443101,5.52331512
3.52,352,0.011000000000000001,-0.737,-0.474,37.7006364,0.11459160000000004,-10.657018800000001,54.55706076,5.5405038599999985,5.466019319999999
3.53,353,0.017,-0.715,-0.462,37.9871154,0.11459160000000004,-12.032118,54.93521304,5.6436363,5.3972643599999985
3.54,354,0.009000000000000001,-0.688,-0.42200000000000004,39.7632852,0.11459160000000004,-13.6936962,55.33055406,5.7582279000000005,5.32277982
3.55,355,-0.027000000000000003,-0.6729999999999999,-0.424,41.7113424,1.2032118,-15.011499599999999,55.74308382,5.88427866,5.25402486
3.56,356,-0.079,-0.677,-0.43,43.315624799999995,4.5263682,-15.928232399999999,56.1785319,6.0447069,5.2024586400000015
3.57,357,-0.114,-0.6920000000000001,-0.456,44.0031744,8.7662574,-16.673077799999998,56.62543913999999,6.23951262,5.19099948
3.58,358,-0.121,-0.7120000000000001,-0.441,47.498218200000004,12.3758928,-17.3606274,57.10672386,6.451507079999999,5.2024586400000015
3.59,359,-0.08199999999999999,-0.7490000000000001,-0.424,49.7327544,16.558486199999994,-18.1054728,57.6109269,6.69787902,5.24829528
3.5999999999999996,360,-0.027000000000000003,-0.765,-0.41700000000000004,51.0505578,18.5638392,-18.3919518,58.13804826000001,6.94425096,5.311320660000002
3.61,361,0.011000000000000001,-0.769,-0.384,53.285093999999994,19.8243468,-17.475219,58.68808794,7.19635248,5.3972643599999985
3.6199999999999997,362,0.043,-0.768,-0.366,55.6915176,21.371333399999997,-16.272007199999994,59.26104594,7.448453999999999,5.5003968
3.63,363,0.045,-0.763,-0.377,57.35309579999999,20.9702628,-15.469866,59.85692226,7.6890963600000015,5.60925882
3.6399999999999997,364,0.025,-0.7709999999999999,-0.384,59.014674,21.944291399999997,-14.610429000000002,60.46998732000001,7.92400914,5.735309579999999
3.65,365,-0.013999999999999999,-0.7240000000000001,-0.384,60.733548000000006,22.9756158,-15.2406828,61.10024112,8.164651500000002,5.86708992
3.6599999999999997,366,-0.061,-0.708,-0.426,62.16594300000001,25.0382646,-15.870936600000002,61.74768365999999,8.422482599999999,6.016058999999999
3.67,367,-0.077,-0.731,-0.39799999999999996,65.317212,29.392745399999995,-17.0168526,62.43523326,8.7089616,6.2051351399999986
3.6799999999999997,368,-0.062,-0.7559999999999999,-0.379,66.80690279999999,30.93973200000001,-18.5638392,63.1399716,9.01262934,6.40567044
3.69,369,-0.05,-0.784,-0.36,67.43715660000001,31.741873200000004,-19.652459399999998,63.85043952,9.32775624,6.611935319999999
3.6999999999999997,370,-0.032,-0.7829999999999999,-0.313,67.9528188,32.257535399999995,-21.4286292,64.5723666,9.654342300000001,6.8182002000000015
3.71,371,-0.005,-0.763,-0.306,67.66633979999999,32.544014399999995,-22.2880662,65.2885641,9.99238752,7.0244650800000015
3.7199999999999998,372,0.042,-0.767,-0.309,67.3798608,33.2888598,-22.7464326,66.01049118,10.33043274,7.242189120000001
3.73,373,0.073,-0.769,-0.293,66.2912406,33.002380800000005,-22.5745452,66.71522952000001,10.66847796,7.46564274
3.7399999999999998,374,0.079,-0.755,-0.28300000000000003,63.712929599999995,33.002380800000005,-22.1734746,67.40277911999999,11.0007936,7.6948259399999985
3.75,375,0.062,-0.755,-0.303,59.7022236,31.1689152,-21.944291399999997,68.04449208,11.31019092,7.906820399999999
3.76,376,0.023,-0.7509999999999999,-0.33399999999999996,54.6028974,29.736520199999998,-21.886995600000002,68.63463881999999,11.62531782,8.11308528
3.77,377,0.0,-0.701,-0.36,51.68081160000001,28.1895336,-22.6891368,69.19040808,11.934715140000002,8.302161420000001
3.78,378,-0.021,-0.6629999999999999,-0.36200000000000004,52.712136,27.3300966,-23.663165399999997,69.76336608,12.24984204,8.48550798
3.79,379,-0.033,-0.64,-0.353,54.94667220000001,26.241476399999996,-25.84040580000001,70.35351282,12.576428100000001,8.65739538
3.8,380,-0.013999999999999999,-0.631,-0.34,56.0925882,24.923673,-29.0489706,70.94365956,12.925932479999995,8.80063488
3.81,381,0.022000000000000002,-0.637,-0.315,55.3477428,23.777757,-31.9710564,71.5338063,13.29835518,8.93241522
3.82,382,0.035,-0.643,-0.308,52.3683612,21.5432208,-33.6899304,72.08384598,13.687966619999996,9.04127724
3.83,383,0.023,-0.637,-0.28800000000000003,47.211739200000004,21.371333399999997,-34.7785506,72.58804902,14.07757806,9.15013926
3.84,384,-0.018000000000000002,-0.636,-0.294,42.05511720000001,22.4026578,-35.2942128,73.04068584,14.47864866,9.26473086
3.8499999999999996,385,-0.081,-0.634,-0.309,37.52874900000001,23.835052800000003,-35.6379876,73.44175643999998,14.87398968,9.3965112
3.86,386,-0.126,-0.622,-0.26899999999999996,33.518043,27.788463,-36.8411994,73.82563830000002,15.2979786,9.57412818
3.8699999999999997,387,-0.13699999999999998,-0.622,-0.25,27.960350399999996,33.2888598,-39.19032720000001,74.16368352,15.756345000000001,9.797581800000001
3.88,388,-0.11900000000000001,-0.605,-0.19899999999999998,22.517249399999997,40.10706,-42.28430039999999,74.46735126,16.26054804,10.07833122
3.8899999999999997,389,-0.064,-0.565,-0.21600000000000005,22.7464326,42.2270046,-46.466893799999994,74.77674858,16.80485814,10.38199896
3.9,390,-0.005,-0.544,-0.24600000000000002,25.8977016,39.7059894,-50.6494872,75.10333464,17.383545719999994,10.64555964
3.9099999999999997,391,0.032,-0.552,-0.19699999999999998,27.272800800000002,37.7006364,-51.7954032,75.45283902,17.96796288,10.89193158
3.92,392,0.048,-0.5489999999999999,-0.17800000000000002,25.8977016,38.27359439999999,-50.5921914,75.79088424,18.54092088,11.15549226
3.9299999999999997,393,0.035,-0.5329999999999999,-0.163,23.491278,40.5654264,-47.498218200000004,76.11747030000002,19.08523098,11.45343042
3.94,394,0.008,-0.511,-0.13699999999999998,19.480572,44.8053156,-43.888582799999995,76.42686762000002,19.60662276,11.802934800000001
3.9499999999999997,395,-0.055,-0.467,-0.128,16.157415599999997,47.6128098,-40.10706,76.71334662,20.0821779,12.19827582
3.96,396,-0.155,-0.40299999999999997,-0.128,14.896907999999998,50.82137460000001,-36.4401288,77.01128478000003,20.53481472,12.63945348
3.9699999999999998,397,-0.233,-0.34600000000000003,-0.11800000000000001,11.0007936,59.7595194,-34.8931422,77.30922294000001,20.99318112,13.178034
3.98,398,-0.275,-0.292,-0.079,5.5003968,72.3645954,-35.3515086,77.59570194,21.46873626,13.84839486
3.9899999999999998,399,-0.252,-0.258,0.003,1.7188740000000002,85.084263,-37.757932200000006,77.89936967999998,21.99012804,14.656265639999996
4.0,400,-0.15,-0.24,0.064,-0.8594370000000001,92.7619002,-41.9978214,78.22022616,22.55735646,15.53862096
4.01,401,-0.005,-0.233,0.102,-3.8961144,96.8871978,-46.409597999999995,78.52389389999998,23.176151100000002,16.466812920000002
4.02,402,0.122,-0.221,0.124,-8.59437,96.37153559999999,-48.2430636,78.79318416,23.8064049,17.3892753
4.03,403,0.20600000000000002,-0.18899999999999997,0.13699999999999998,-12.891555,91.27220940000001,-46.7533728,79.00517862,24.4080108,18.26590104
4.04,404,0.172,-0.129,0.095,-15.183387000000002,87.31879920000002,-41.3102718,79.19425475999998,24.952320900000004,19.11387888
4.05,405,0.012,-0.063,-0.057,-17.7044022,89.954406,-33.4607472,79.37760132,25.41068730000001,20.01342294
4.06,406,-0.16,0.013999999999999999,-0.157,-15.928232399999999,95.7985776,-26.356068,79.62397326,25.8117579,20.9989107
4.07,407,-0.213,0.057,-0.127,-8.59437,93.6213372,-26.642546999999997,79.95055932,26.2128285,21.96148014
4.08,408,-0.161,0.047,-0.069,-0.3437748,83.93834700000002,-34.7212548,80.31152286,26.671194899999996,22.81518756
4.09,409,-0.040999999999999995,-0.012,0.013999999999999999,7.448453999999999,73.911582,-48.414951,80.70686388,27.249882480000004,23.54284422
4.1,410,0.14,-0.153,0.052000000000000005,12.776963400000001,62.45242200000001,-63.6556338,81.10220489999998,27.960350399999996,24.1215318
4.109999999999999,411,0.256,-0.153,-0.004,4.2398892,54.8320806,-73.625103,81.36576558,28.75103244,24.6085461
4.12,412,0.3,-0.138,0.016,2.5783110000000002,51.7954032,-79.5265704,81.60640794,29.593280699999998,25.06118292
4.13,413,0.252,-0.073,-0.062,4.2398892,50.3630082,-81.07355700000002,81.85850946000002,30.452717699999997,25.50236058
4.14,414,0.158,-0.027999999999999997,-0.153,6.417129599999999,52.54024860000001,-77.52121740000003,82.1621772,31.27204764,25.9836453
4.1499999999999995,415,0.086,-0.004,-0.168,8.7089616,45.9512316,-74.3699484,82.45438578,32.0570001,26.39617506
4.16,416,0.06,0.02,-0.111,10.7716104,37.9298196,-75.45856859999998,82.7351352,32.836222979999995,26.728490700000002
4.17,417,0.055,0.062,-0.092,10.4278356,31.6845774,-80.90166959999998,82.97577756,33.66701208,26.9863218
4.18,418,0.124,0.1,-0.13699999999999998,12.5477802,28.361421000000004,-90.4127724,83.21641991999998,34.58374488,27.19831626
4.1899999999999995,419,0.337,0.086,-0.21100000000000002,17.0741484,43.831286999999996,-106.85666699999999,83.60030178,35.67809466,27.58219812
4.2,420,0.743,-0.016,-0.257,19.8243468,75.17208959999998,-136.1348208,84.23055558,37.0990305,28.32704352
4.21,421,1.504,-0.573,-0.358,45.9512316,116.0812908,-167.47562340000005,85.46241528,38.82936366,29.599010280000005
4.22,422,2.3169999999999997,-1.83,-0.204,105.7680468,203.40009,-218.010519,88.10375166,41.05817028,32.085648
4.2299999999999995,423,3.0839999999999996,-3.695,0.638,145.817811,235.9441044,-257.8883958,91.68473916,43.573455900000006,35.2655649
4.24,424,3.8480000000000003,-3.9989999999999997,1.0490000000000002,123.18597,248.09081400000002,-228.89672099999999,95.47199154,45.63037512,38.92103694
4.25,425,3.978,-3.9989999999999997,1.5519999999999998,97.1736768,263.9617506,-153.26626499999998,99.32799888,46.73618406,42.94893168
4.26,426,3.465,-3.911,1.7109999999999999,85.65722099999998,168.62153940000005,-23.0902074,101.96360568,46.6101333,45.40119192
4.27,427,3.077,-0.303,1.858,-79.4119788,105.9399342,-228.5529462,102.77720603999998,48.56964966,47.62426896
4.28,428,3.6719999999999997,1.4480000000000002,1.409,15.527161800000002,98.6633676,-400.5549378,105.21227754,52.17355548000001,50.60938014
4.29,429,2.653,-0.423,1.147,211.99446,26.7571386,-363.5991468,109.20006522,55.54254852,52.90121214000001
4.3,430,1.82,-1.439,1.705,163.06384680000005,103.53351059999999,-341.196489,114.27074352,58.28128776,56.99213225999999
4.31,431,0.9740000000000001,-0.10800000000000001,1.139,157.73533740000005,98.2050012,-330.8259492,119.88573191999998,60.74500716,61.66746954
4.32,432,1.099,-0.5479999999999999,0.523,155.271618,101.2989744,-285.8487462,125.89033176,62.55555444,66.72095909999999
4.33,433,0.986,-0.18600000000000005,0.159,87.6052782,77.5785132,-256.2268176,131.11570872,64.05097482,71.5911021
4.34,434,0.946,0.071,0.6459999999999999,86.91772859999998,74.198061,-230.44370759999998,136.44421812000002,65.17397249999999,76.52427048
4.35,435,1.0290000000000001,0.003,0.644,86.97502440000002,69.9581718,-206.0356968,141.72689087999996,65.97038411999999,81.37149516
4.36,436,1.224,-0.133,0.8959999999999999,102.3875946,89.66792699999998,-192.513888,147.43355256,66.33134765999999,86.48801010000004
4.37,437,1.374,-0.113,0.9640000000000001,110.5235982,86.80313699999998,-195.378678,153.36939744,66.52615338000001,91.7592237
4.38,438,1.4780000000000002,-0.47200000000000003,1.1059999999999999,115.56562859999998,50.5921914,-201.7958076,159.27086484,66.85273944,96.9158457
4.39,439,1.626,-0.331,1.13,99.4655088,-12.5477802,-214.7446584,165.06347022,67.60904400000001,102.10684518
4.3999999999999995,440,1.7990000000000002,-0.614,1.0590000000000002,96.7726062,-42.62807520000001,-206.0356968,170.83888686,68.43983309999999,107.27492634
4.41,441,1.341,-0.6709999999999999,0.966,71.67704579999999,-68.58307260000001,-180.768249,176.05853424000003,69.30499968000001,112.08204396
4.42,442,1.22,-0.42200000000000004,0.892,52.5975444,-90.5846598,-155.9018718,-179.17542576,70.23319164,116.57403468
4.43,443,1.1059999999999999,-0.305,0.752,49.04520479999999,-99.694692,-140.48930159999998,-174.44852226,71.12700612,121.04883665999998
4.4399999999999995,444,1.13,-0.087,0.657,34.2055926,-91.7305758,-134.7597216,-169.6815117,71.83174446000002,125.70125562
4.45,445,1.143,0.057999999999999996,0.5760000000000001,37.41415739999999,-79.6984578,-120.8368422,-165.07492938,72.31875876000002,130.13595054
4.46,446,0.9690000000000001,-0.031,0.5329999999999999,41.3102718,-71.44786260000002,-86.0009958,-161.33351364,72.7370181,133.60234644
4.47,447,1.005,0.223,0.392,21.944291399999997,-78.60983759999998,-54.6028974,-158.49164195999995,73.26986904,136.32962652
4.4799999999999995,448,0.963,0.503,0.41700000000000004,9.568398599999998,-71.8489332,-51.4516284,-155.80446894000005,73.71677628,139.02252912
4.49,449,0.754,0.46399999999999997,0.345,23.605869600000002,-68.2965936,-41.4821592,-153.19751004,74.13503562,141.48051894
4.5,450,0.79,0.425,0.24,27.960350399999996,-64.744254,-33.4607472,-150.67649483999998,74.52464705999998,143.78953968000005
4.51,451,0.87,0.609,0.256,20.7983754,-58.49901179999999,-31.9710564,-148.33309662,74.84550354000002,145.9896984
4.52,452,0.745,0.716,0.271,25.6112226,-59.0719698,-30.5386614,-145.88083637999995,75.16063044,148.2528825
4.53,453,0.665,0.698,0.331,32.4867186,-61.5356892,-26.929026,-143.31398454,75.4872165,150.55617366
4.54,454,0.626,0.602,0.32899999999999996,33.6326346,-63.311859,-19.480572,-140.81015808,75.84245046,152.78498027999996
4.55,455,0.612,0.505,0.305,31.856464799999998,-58.327124399999995,-8.3651868,-138.63291768000002,76.19195484000002,154.68147126
4.56,456,0.7,0.45,0.27399999999999997,27.788463,-55.977996600000004,-0.4583664000000001,-136.74788586,76.58156627999998,156.32586071999995
4.57,457,0.757,0.449,0.204,29.335449600000004,-61.1346186,7.8495246,-134.82847655999998,77.05712142,157.97597976
4.58,458,0.8640000000000001,0.475,0.141,28.81978740000001,-61.5356892,12.261301199999998,-132.90906726,77.5498653,159.64328754000005
4.59,459,0.897,0.509,0.1,31.2835068,-65.66098679999999,15.183387000000002,-130.75474518,78.07698666,161.51113062
4.6,460,0.8540000000000001,0.53,0.122,39.9924684,-67.26526919999999,16.8449652,-128.2566483,78.59264886000003,163.63107522
4.61,461,0.875,0.509,0.145,48.9306132,-70.35924240000001,15.813640800000002,-125.35175124,79.11404064,166.07760588000005
4.62,462,0.8740000000000001,0.45899999999999996,0.156,54.4883058,-68.6403684,17.131444199999994,-122.24631888,79.6125141,168.66164646
4.63,463,0.894,0.409,0.10300000000000001,55.1758554,-63.3691548,18.2200644,-119.15234567999998,80.06515092,171.2284983
4.64,464,0.9420000000000001,0.311,0.055,53.858052,-58.38442020000001,19.9962342,-116.12712744,80.48913983999998,173.73805434000005
4.6499999999999995,465,0.9790000000000001,0.21100000000000002,0.024,48.071176200000004,-51.7954032,22.803728399999997,-113.32536282,80.89021044,176.07572298
4.66,466,1.006,0.147,-0.036000000000000004,39.47680620000001,-48.8160216,26.356068,-110.66683770000002,81.29701062000002,178.35036624
4.67,467,1.013,0.114,-0.076,32.830493399999995,-49.1025006,29.8511118,-107.89372097999998,81.72099954000002,-179.18688492
4.68,468,0.997,0.099,-0.079,29.163562199999998,-50.8786704,33.116972399999995,-104.82266610000002,82.1621772,-176.38512029999995
4.6899999999999995,469,0.953,0.081,-0.062,26.929026,-51.9099948,36.096354,-101.39637726,82.60908443999998,-173.21666255999997
4.7,470,0.915,0.07400000000000001,-0.031,25.382039399999996,-50.24841660000001,39.1330314,-97.7179869,83.06172126,-169.77891456
4.71,471,0.9179999999999999,0.073,-0.017,24.5798982,-43.9458786,40.966497,-94.14845856,83.49716934,-166.444299
4.72,472,0.919,0.057,0.002,21.7151082,-35.17962120000001,41.9978214,-90.94562334,83.92115826,-163.44199908000004
4.7299999999999995,473,0.9420000000000001,0.05,-0.01,15.928232399999999,-23.835052800000003,41.1383844,-88.47617436,84.31649927999999,-161.12724876
4.74,474,0.9640000000000001,0.028999999999999998,-0.051,13.8655836,-14.5531332,39.8778768,-86.66562708000002,84.70611072,-159.45421140000005
4.75,475,0.968,0.005,-0.078,12.4904844,-9.1100322,38.38818600000001,-85.10718132,85.08426299999998,-158.01608682
4.76,476,0.9620000000000001,-0.021,-0.069,11.1153852,-7.6203414,36.4974246,-83.66332716000002,85.43376737999998,-156.68682426
4.77,477,0.9159999999999999,-0.059000000000000004,-0.002,8.7089616,-9.167328,33.231564,-81.8756982,85.7431647,-154.985139
4.78,478,0.912,-0.069,0.086,7.161975,-8.479778399999999,28.81978740000001,-80.03650302,86.01245496,-153.21469878
4.79,479,0.943,-0.06,0.14300000000000002,5.042030400000002,-5.5003968,24.694489800000003,-78.51243473999997,86.24163816000002,-151.74219672
4.8,480,0.983,-0.021,0.085,5.0993262,-6.3598338,21.4286292,-76.92534108,86.44790304,-150.20666928
4.81,481,0.981,-0.013000000000000001,0.016,5.6722842,-6.1879464,18.5638392,-75.16636002,86.60833127999999,-148.49925444000004
4.82,482,0.9490000000000001,-0.031,0.0,4.1252976000000015,-6.875496000000001,16.157415599999997,-73.24695072,86.7458412,-146.62568178
4.83,483,0.909,-0.059000000000000004,0.037000000000000005,2.4637194,-8.880849000000003,14.037471,-70.97230746,86.84897364,-144.37395684
4.84,484,0.895,-0.076,0.077,2.9220858,-11.3445684,11.172680999999999,-68.3252415,86.90626943999996,-141.7498092
4.85,485,0.9079999999999999,-0.095,0.081,2.9220858,-10.1986524,7.906820400000001,-66.10789403999999,86.98648356,-139.56110963999998
4.86,486,0.935,-0.083,0.057,-0.2291832000000001,-6.2452422,3.6096353999999997,-64.76144274,86.99221314,-138.21465834
4.87,487,0.934,-0.040999999999999995,0.042,-2.9793816000000004,-2.4637194,-0.3437748,-64.39474962,86.98075398,-137.81358774
4.88,488,0.9229999999999999,-0.001,0.048,-3.4377480000000005,-1.0886202,-3.3231564,-64.50934122,86.94637650000001,-137.89380186
4.89,489,0.9279999999999999,0.022000000000000002,0.034,-2.9793816000000004,-0.6875496,-4.9274388,-64.80727938,86.89481028,-138.16309212000002
4.8999999999999995,490,0.95,0.032,0.016,-3.6669312000000014,0.1718874,-5.6149884000000005,-65.50628814000001,86.85470322,-138.82772340000002
4.91,491,0.9690000000000001,0.039,-0.003,-4.5263682,1.3750992,-5.7868758000000025,-66.19383774,86.80313699999998,-139.46943635999997
4.92,492,0.982,0.039,-0.001,-4.8128472,2.1199446,-5.5576926,-66.97306062,86.76302994,-140.19709302
4.93,493,0.99,0.044000000000000004,0.0,-5.0993262,2.5783110000000002,-5.2712136,-67.78666098,86.72865246,-140.95912716
4.9399999999999995,494,1.008,0.045,0.012,-5.2712136,2.7501984,-4.8128472,-68.57734302,86.69427498,-141.69824298
4.95,495,1.033,0.051,0.027000000000000003,-6.0160589999999985,3.1512689999999997,-4.2398892,-69.7003407,86.66562708000002,-142.75821528
4.96,496,1.045,0.063,0.034,-7.1046792000000005,4.4117766,-3.4950437999999995,-70.66291014,86.64843834,-143.65202976
4.97,497,1.045,0.07200000000000001,0.040999999999999995,-7.6203414,5.443101,-2.8074942000000003,-71.75153034,86.64270875999998,-144.66043584000005
4.9799999999999995,498,1.035,0.076,0.047,-8.3651868,5.443101,-1.6042823999999998,-72.77712516,86.64270875999998,-145.60008696
4.99,499,1.018,0.08199999999999999,0.045,-8.021412000000002,4.9847346,-0.286479,-73.66521005999998,86.6598975,-146.40795774
5.0,500,1.0,0.078,0.053,-6.6463128000000005,4.6409598,0.6875496,-75.07468673999998,86.67135666,-147.74867946
5.01,501,0.992,0.068,0.048,-5.7868758000000025,4.583664,1.3750992,-75.81380256,86.70000456,-148.43622906000004
5.02,502,0.99,0.059000000000000004,0.04,-5.0993262,3.7242269999999995,1.9480572,-76.39821972,86.72865246,-148.96335041999995
5.03,503,1.005,0.05,0.036000000000000004,-5.5003968,2.86479,2.4637194,-76.82220864,86.75730036,-149.33577312
5.04,504,1.018,0.047,0.039,-7.1046792000000005,2.86479,3.0366774,-77.24619756,86.79740741999998,-149.68527749999996
5.05,505,1.025,0.055999999999999994,0.053,-8.250595200000001,3.0366774,3.4950437999999995,-78.17438952,86.83751448000002,-150.52752575999997
5.06,506,1.026,0.068,0.061,-7.734933000000002,2.9220858,3.7815228,-78.60983759999998,86.87762153999998,-150.8884893
5.07,507,1.023,0.067,0.065,-6.3598338,2.3491277999999998,4.1252976000000015,-78.93069408,86.92345818,-151.14059082
5.08,508,1.023,0.062,0.065,-5.6149884000000005,1.7188740000000002,4.4117766,-79.13122938000002,86.97502440000002,-151.28383032
5.09,509,1.024,0.059000000000000004,0.054000000000000006,-5.2712136,1.3750992,4.5263682,-79.26873930000002,87.02086104,-151.36977402
5.1,510,1.0270000000000001,0.055,0.054000000000000006,-4.6409598,0.9740286,4.583664,-80.01931427999997,87.06669767999998,-152.07451236000003
5.11,511,1.033,0.053,0.057999999999999996,-3.8961144,1.2032118,4.4117766,-80.12817629999998,87.11253432000002,-152.14326732
5.12,512,1.036,0.051,0.062,-3.2085647999999996,2.0053530000000004,4.1825934,-80.40319614,87.15837096,-152.38963926000002
5.13,513,1.04,0.046,0.065,-2.8074942000000003,2.6356068,3.9534102,-80.8157259,87.19847802,-152.76779154000005
5.14,514,1.037,0.044000000000000004,0.066,-2.5783110000000002,2.6356068,3.7242269999999995,-81.25117398,87.23858508000002,-153.18032130000003
5.1499999999999995,515,1.031,0.043,0.071,-2.3491277999999998,1.7761698000000001,3.7242269999999995,-82.7064873,87.28442172,-154.61271630000005
5.16,516,1.021,0.043,0.07,-1.9480572,0.572958,3.8961144,-82.74659436,87.32452878000002,-154.62990503999995
5.17,517,1.01,0.040999999999999995,0.067,-1.7761698000000001,-0.11459160000000004,4.2398892,-82.60335486,87.36463583999998,-154.46947680000005
5.18,518,1.005,0.04,0.06,-1.8907614,-0.7448454000000001,4.5263682,-82.31687586000002,87.41047248,-154.16580906
5.1899999999999995,519,1.004,0.037000000000000005,0.043,-1.6615782,-1.2605076000000002,4.8128472,-81.89861652,87.45630911999999,-153.7246314
5.2,520,1.001,0.027999999999999997,0.039,-1.2032118,-1.5469866,4.8128472,-82.03039686,87.50787534,-153.84495257999995
5.21,521,1.005,0.021,0.04,-1.0313244000000001,-1.432395,4.8128472,-81.54338256,87.55371198,-153.34647912
5.22,522,1.013,0.017,0.04,-1.3750992,-1.432395,4.583664,-81.05636826,87.59381904,-152.84227607999995
5.2299999999999995,523,1.02,0.017,0.048,-1.7761698000000001,-1.8334656000000005,4.3544808,-80.45476235999998,87.6339261,-152.22921102
5.24,524,1.0270000000000001,0.02,0.055,-1.9480572,-2.1199446,3.8961144,-79.79013108000002,87.66830358,-151.54166142000003
5.25,525,1.031,0.023,0.061,-2.1199446,-1.9480572,3.3231564,-80.39173698,87.70841064,-152.120349
5.26,526,1.021,0.024,0.059000000000000004,-2.3491277999999998,-1.9480572,2.8074942000000003,-79.80731982,87.73132896,-151.51301352000004
5.27,527,1.012,0.02,0.05,-2.1772404,-2.1772404,2.1772404,-79.17706602000001,87.74851770000002,-150.85984140000005
5.28,528,1.016,0.013000000000000001,0.048,-1.7761698000000001,-2.9793816000000004,1.9480572,-78.35200649999999,87.75997686000002,-150.01759314
5.29,529,1.0070000000000001,0.017,0.05,-1.9480572,-3.5523396000000003,1.5469866,-77.39516663999999,87.77143602000002,-149.03783496
5.3,530,1.014,0.021,0.051,-1.9480572,-3.7242269999999995,0.8021411999999999,-77.79050766,87.78862475999998,-149.41598724
5.31,531,1.0190000000000001,0.024,0.054000000000000006,-1.8907614,-2.9793816000000004,0.3437748,-77.0342031,87.78289518,-148.63676436
5.32,532,1.02,0.027000000000000003,0.053,-1.9480572,-2.0053530000000004,-0.1718874,-76.55291838000002,87.77716559999998,-148.1382909
5.33,533,1.018,0.027999999999999997,0.051,-1.5469866,-1.2032118,-0.40107059999999994,-76.28362812,87.76570644,-147.8518119
5.34,534,1.014,0.028999999999999998,0.049,-1.0313244000000001,-1.8334656000000005,-0.5156622000000001,-75.87109836,87.75997686000002,-147.43355256
5.35,535,1.0090000000000001,0.027000000000000003,0.048,-0.4583664000000001,-3.0366774,-0.40107059999999994,-77.10295806,87.76570644,-148.65968268
5.36,536,1.0070000000000001,0.024,0.048,0.057295800000000015,-4.010706000000001,-0.40107059999999994,-76.13465904,87.74851770000002,-147.69138366
5.37,537,1.012,0.023,0.048,0.057295800000000015,-4.583664,-0.40107059999999994,-75.04603884000002,87.73132896,-146.60276346
5.38,538,1.0170000000000001,0.026000000000000002,0.046,-0.286479,-4.9847346,-0.5156622000000001,-73.90012284,87.71414021999998,-145.45111788
5.39,539,1.021,0.028999999999999998,0.049,-0.6302538000000001,-5.1566220000000005,-0.8021411999999999,-72.74274768000002,87.68549232000002,-144.28801314
5.3999999999999995,540,1.018,0.031,0.052000000000000005,-0.6302538000000001,-5.5576926,-1.2032118,-72.71409978,87.66830358,-144.25363566
5.41,541,1.012,0.033,0.049,-0.286479,-5.9014674000000005,-1.5469866,-71.48796966,87.6339261,-143.02750554000005
5.42,542,1.0070000000000001,0.031,0.042,-0.11459160000000004,-6.130650599999999,-1.7761698000000001,-70.26756911999999,87.59381904,-141.80137542
5.43,543,1.005,0.031,0.032,0.057295800000000015,-6.8182002000000015,-1.8907614,-68.93830656,87.55371198,-140.47784244
5.4399999999999995,544,1.006,0.031,0.031,0.2291832000000001,-7.1046792000000005,-1.7761698000000001,-67.58039609999999,87.50787534,-139.11993198
5.45,545,1.006,0.035,0.028999999999999998,0.6302538000000001,-7.161975,-1.6042823999999998,-66.84128028,87.46776828,-138.38654574
5.46,546,1.008,0.036000000000000004,0.03,1.0313244000000001,-6.875496000000001,-1.4896908000000002,-65.58650226,87.42766122,-137.14322688
5.47,547,1.008,0.033,0.027000000000000003,1.2032118,-6.417129599999999,-1.432395,-64.457775,87.38182458,-136.02595878
5.4799999999999995,548,1.006,0.033,0.022000000000000002,1.145916,-6.0160589999999985,-1.432395,-63.4264506,87.34171752,-135.00609354
5.49,549,0.9990000000000001,0.032,0.015,1.145916,-5.7868758000000025,-1.3178034,-62.46388115999999,87.30161045999998,-134.05498326
5.5,550,0.992,0.03,0.015,1.0886202,-5.72958,-1.2605076000000002,-61.94821896,87.26723297999996,-133.55078022
5.51,551,0.988,0.032,0.013999999999999999,0.9167328000000001,-5.958763200000001,-1.0886202,-60.97991994,87.22712592,-132.59394035999998
5.52,552,0.993,0.032,0.017,0.7448454000000001,-5.844171599999999,-0.8594370000000001,-60.04026882,87.19274844,-131.66001882
5.53,553,0.998,0.033,0.017,0.4583664000000001,-5.5576926,-0.572958,-59.14645434000001,87.15837096,-130.76620434
5.54,554,1.0,0.036000000000000004,0.015,0.1718874,-4.7555514,-0.40107059999999994,-58.38442020000001,87.12972306,-130.00989978
5.55,555,0.9990000000000001,0.037000000000000005,0.013000000000000001,0.057295800000000015,-4.2398892,-0.1718874,-58.49901180000001,87.11253432000002,-130.12449138
5.56,556,1.0,0.034,0.013000000000000001,-0.11459160000000004,-3.9534102,0.057295800000000015,-57.8401101,87.09534558,-129.46558968
5.57,557,0.997,0.035,0.012,-0.572958,-3.7242269999999995,0.3437748,-57.19266756,87.07242726,-128.81241756
5.58,558,0.9940000000000001,0.034,0.013999999999999999,-0.5156622000000001,-3.2085647999999996,0.5156622000000001,-56.62543913999999,87.0609681,-128.23945956
5.59,559,0.9940000000000001,0.033,0.012,-0.4583664000000001,-2.8074942000000003,0.7448454000000001,-56.09831778,87.04950894,-127.70660862
5.6,560,0.995,0.032,0.01,-0.6302538000000001,-2.3491277999999998,0.9740286,-56.51084754,87.06669767999998,-128.10767922
5.61,561,0.9990000000000001,0.032,0.013000000000000001,-0.5156622000000001,-2.3491277999999998,1.2032118,-56.00091491999999,87.06669767999998,-127.5977466
5.62,562,0.9990000000000001,0.033,0.013000000000000001,-0.40107059999999994,-2.291832,1.3178034,-55.49098230000001,87.0609681,-127.0820844
5.63,563,0.998,0.031,0.015,0.0,-2.0053530000000004,1.3750992,-55.02688632,87.0609681,-126.61798842
5.64,564,0.9990000000000001,0.031,0.017,0.11459160000000004,-1.7761698000000001,1.2605076000000002,-54.6028974,87.0609681,-126.19399950000002
5.6499999999999995,565,1.001,0.027000000000000003,0.013999999999999999,0.2291832000000001,-1.2032118,1.0886202,-55.73162466,87.1182639,-127.32272676
5.66,566,1.003,0.025,0.013999999999999999,0.2291832000000001,-0.1718874,0.8594370000000001,-55.59411474,87.12399348,-127.19094642
5.67,567,1.0070000000000001,0.024,0.018000000000000002,0.0,0.40107059999999994,0.6302538000000001,-55.58265558000001,87.13545264000004,-127.17948726
5.68,568,1.013,0.025,0.018000000000000002,-0.4583664000000001,0.7448454000000001,0.5156622000000001,-55.65141053999999,87.14118221999998,-127.24251264
5.6899999999999995,569,1.012,0.027999999999999997,0.017,-0.6302538000000001,0.8021411999999999,0.5156622000000001,-55.73162466,87.15264138,-127.31699718
5.7,570,1.011,0.028999999999999998,0.023,-0.6875496,0.6302538000000001,0.5156622000000001,-57.80000303999999,87.21566676,-129.37964598
5.71,571,1.0090000000000001,0.028999999999999998,0.023,-0.8021411999999999,0.9167328000000001,0.4583664000000001,-57.91459464,87.22712592,-129.48277842
5.72,572,1.008,0.027999999999999997,0.023,-1.145916,1.0313244000000001,0.3437748,-58.06356372000001,87.2328555,-129.62601792
5.7299999999999995,573,1.003,0.027000000000000003,0.018000000000000002,-1.145916,1.0313244000000001,0.286479,-58.22972154,87.24431466,-129.77498699999998
5.74,574,1.004,0.027000000000000003,0.018000000000000002,-1.0313244000000001,1.0886202,0.1718874,-58.40733852000001,87.25004424,-129.94114482
5.75,575,1.008,0.027000000000000003,0.021,-0.8594370000000001,1.0313244000000001,0.11459160000000004,-60.65333388000001,87.31306962,-132.1814106
5.76,576,1.01,0.028999999999999998,0.024,-0.9167328000000001,1.0313244000000001,0.057295800000000015,-60.84241002,87.31879920000002,-132.35902758
5.77,577,1.013,0.028999999999999998,0.027999999999999997,-0.8594370000000001,0.9740286,0.0,-61.02575657999999,87.32452878000002,-132.53664456
5.78,578,1.015,0.031,0.031,-0.8021411999999999,1.0313244000000001,0.0,-61.21483271999999,87.33025836,-132.71999112
5.79,579,1.014,0.031,0.027000000000000003,-0.8594370000000001,1.2032118,0.057295800000000015,-61.43828634000001,87.33598794000002,-132.93198558
5.8,580,1.008,0.031,0.026000000000000002,-0.9740286,1.0886202,0.057295800000000015,-63.69001128,87.37609499999998,-135.17225136
5.81,581,1.006,0.028999999999999998,0.025,-1.0886202,0.6302538000000001,0.2291832000000001,-63.7988733,87.38182458,-135.26965422
5.82,582,1.006,0.031,0.027999999999999997,-1.3178034,0.3437748,0.2291832000000001,-63.85043952,87.38755416000002,-135.30976128
5.83,583,1.004,0.033,0.026000000000000002,-1.145916,0.057295800000000015,0.286479,-63.84470994000001,87.39328374,-135.29257253999998
5.84,584,1.006,0.032,0.027000000000000003,-0.9167328000000001,-0.057295800000000015,0.286479,-63.7988733,87.39328374,-135.23527674000002
5.85,585,1.008,0.03,0.026000000000000002,-0.6302538000000001,-0.286479,0.3437748,-66.67512246,87.44484996,-138.10579632
5.86,586,1.01,0.027999999999999997,0.026000000000000002,-0.40107059999999994,-0.3437748,0.3437748,-66.56053086,87.45057954,-137.99120471999998
5.87,587,1.008,0.027999999999999997,0.026000000000000002,-0.2291832000000001,-0.5156622000000001,0.40107059999999994,-66.42302094,87.45057954,-137.84796522000002
5.88,588,1.0070000000000001,0.027999999999999997,0.023,-0.1718874,-0.3437748,0.3437748,-66.31415892,87.45057954,-137.7391032
5.89,589,1.01,0.027000000000000003,0.022000000000000002,-0.2291832000000001,0.0,0.286479,-66.29124060000001,87.45630911999999,-137.71045529999998
5.8999999999999995,590,1.0090000000000001,0.03,0.018000000000000002,-0.2291832000000001,0.0,0.2291832000000001,-72.08957556,87.5193345,-143.50879026
5.91,591,1.006,0.027999999999999997,0.025,-0.40107059999999994,0.286479,0.2291832000000001,-72.14114178,87.5193345,-143.55462690000004
5.92,592,1.004,0.027000000000000003,0.028999999999999998,-0.8594370000000001,0.1718874,0.1718874,-72.18124884,87.52506408,-143.58900438
5.93,593,1.002,0.027000000000000003,0.028999999999999998,-0.9740286,-0.1718874,0.11459160000000004,-72.13541219999998,87.52506408,-143.53170858
5.9399999999999995,594,1.004,0.024,0.025,-0.6875496,0.0,0.057295800000000015,-72.12968262000003,87.52506408,-143.52024942
5.95,595,1.0070000000000001,0.021,0.019,-0.3437748,0.40107059999999994,0.0,-74.23243848,87.59381904,-145.62300528
5.96,596,1.0070000000000001,0.019,0.015,-0.3437748,0.6875496,0.0,-74.40432588,87.59381904,-145.7891631
5.97,597,1.012,0.02,0.021,-0.5156622000000001,0.4583664000000001,0.0,-74.52464705999998,87.59954862,-145.89802512
5.9799999999999995,598,1.0170000000000001,0.026000000000000002,0.028999999999999998,-0.6875496,0.11459160000000004,-0.1718874,-74.57621328,87.59381904,-145.94386176
5.99,599,1.016,0.03,0.034,-0.6302538000000001,0.057295800000000015,-0.40107059999999994,-74.6277795,87.59381904,-145.9896984
6.0,600,1.0090000000000001,0.027999999999999997,0.028999999999999998,-0.40107059999999994,-0.057295800000000015,-0.572958,-77.21182008000002,87.61100778,-148.57373898
6.01,601,1.003,0.027000000000000003,0.025,-0.4583664000000001,-0.286479,-0.7448454000000001,-77.18890176,87.6052782,-148.53936149999996
6.02,602,1.001,0.027999999999999997,0.022000000000000002,-0.8021411999999999,-0.7448454000000001,-0.6875496,-77.05712142,87.59381904,-148.40185158
6.03,603,1.002,0.032,0.018000000000000002,-0.8594370000000001,-1.2032118,-0.6875496,-76.81647905999998,87.58235988,-148.15547964
6.04,604,1.0070000000000001,0.033,0.023,-0.6875496,-1.432395,-0.6302538000000001,-76.53000005999998,87.57663029999998,-147.86327106
6.05,605,1.013,0.033,0.027000000000000003,-0.4583664000000001,-1.2605076000000002,-0.572958,-77.64726816,87.57090072000004,-148.97480958
6.06,606,1.0170000000000001,0.032,0.026000000000000002,-0.40107059999999994,-0.7448454000000001,-0.5156622000000001,-77.50402865999997,87.56517113999998,-148.8258405
6.07,607,1.0170000000000001,0.031,0.024,-0.4583664000000001,-0.11459160000000004,-0.40107059999999994,-77.49829908000002,87.55944156000002,-148.81438134
6.08,608,1.014,0.032,0.023,-0.4583664000000001,0.1718874,-0.40107059999999994,-77.56132446000002,87.55371198,-148.87167714
6.09,609,1.008,0.033,0.021,-0.286479,0.1718874,-0.2291832000000001,-77.62434984000002,87.55371198,-148.93470252
6.1,610,1.004,0.034,0.022000000000000002,-0.1718874,0.0,0.0,-82.26530964,87.53652324,-153.57566232
6.11,611,1.004,0.032,0.024,-0.11459160000000004,0.057295800000000015,0.1718874,-82.2767688,87.53652324,-153.5813919
6.12,612,1.006,0.033,0.024,0.0,0.0,0.4583664000000001,-82.27103922,87.54225282,-153.5813919
6.13,613,1.0070000000000001,0.033,0.023,0.0,0.2291832000000001,0.6302538000000001,-82.31687586000002,87.54798240000002,-153.62149896
6.14,614,1.006,0.035,0.021,0.0,0.1718874,0.9740286,-82.32260544,87.55944156000002,-153.63295811999996
6.15,615,1.002,0.031,0.024,0.0,0.0,1.2605076000000002,-83.6805159,87.57663029999998,-154.99086857999995
6.16,616,1.001,0.028999999999999998,0.027000000000000003,-0.2291832000000001,0.0,1.432395,-83.63467926,87.59381904,-154.93930236
6.17,617,0.9990000000000001,0.026000000000000002,0.027999999999999997,-0.11459160000000004,-0.057295800000000015,1.5469866,-83.57738346,87.61100778,-154.88200655999995
6.18,618,1.002,0.025,0.022000000000000002,-0.286479,-0.11459160000000004,1.4896908000000002,-83.5086285,87.62246694,-154.80752202
6.1899999999999995,619,1.004,0.024,0.021,-0.4583664000000001,-0.40107059999999994,1.4896908000000002,-83.36538900000002,87.63965568,-154.66428252
6.2,620,1.0070000000000001,0.022000000000000002,0.022000000000000002,-0.6875496,-0.6875496,1.432395,-83.84667372,87.66257399999998,-155.13983766
6.21,621,1.0090000000000001,0.021,0.027999999999999997,-0.7448454000000001,-0.4583664000000001,1.0886202,-83.70343421999998,87.67403316,-154.985139
6.22,622,1.011,0.018000000000000002,0.027999999999999997,-0.8021411999999999,-0.1718874,0.8021411999999999,-83.63467926,87.67976274,-154.90492488
6.2299999999999995,623,1.012,0.019,0.023,-0.8594370000000001,0.0,0.4583664000000001,-83.61749052,87.68549232000002,-154.88200655999995
6.24,624,1.011,0.019,0.021,-0.8021411999999999,-0.057295800000000015,0.1718874,-83.5945722,87.68549232000002,-154.84762908
6.25,625,1.013,0.021,0.024,-0.5156622000000001,-0.40107059999999994,0.0,-84.96394182,87.71414021999998,-156.2169987
6.26,626,1.015,0.023,0.026000000000000002,-0.40107059999999994,-0.7448454000000001,-0.1718874,-84.78632483999998,87.70841064,-156.03365214000004
6.27,627,1.015,0.027000000000000003,0.025,-0.1718874,-0.9167328000000001,-0.3437748,-84.56860079999998,87.70268106,-155.81019852
6.28,628,1.0170000000000001,0.027999999999999997,0.03,0.057295800000000015,-0.8594370000000001,-0.4583664000000001,-84.36233591999998,87.69695148,-155.60966322
6.29,629,1.013,0.026000000000000002,0.027999999999999997,0.057295800000000015,-0.6875496,-0.5156622000000001,-84.1961781,87.69122189999999,-155.4435054
6.3,630,1.0090000000000001,0.026000000000000002,0.027999999999999997,0.0,-0.8021411999999999,-0.6302538000000001,-85.30198704,87.69122189999999,-156.54931434
6.31,631,1.008,0.025,0.027000000000000003,-0.057295800000000015,-1.0313244000000001,-0.6302538000000001,-85.0556151,87.68549232000002,-156.29721282
6.32,632,1.008,0.027000000000000003,0.025,0.0,-1.2032118,-0.6875496,-84.77486567999998,87.67403316,-156.01646340000005
6.33,633,1.0090000000000001,0.027999999999999997,0.023,-0.057295800000000015,-1.0886202,-0.6302538000000001,-84.52276416000002,87.66830358,-155.77009146
6.34,634,1.0070000000000001,0.03,0.022000000000000002,-0.11459160000000004,-0.9167328000000001,-0.6302538000000001,-84.31649927999999,87.66257399999998,-155.558097
6.35,635,1.006,0.03,0.023,-0.057295800000000015,-0.8594370000000001,-0.4583664000000001,-85.1415588,87.65111484,-156.38315652
6.36,636,1.003,0.028999999999999998,0.021,0.1718874,-1.0313244000000001,-0.3437748,-84.90091644,87.64538526,-156.14251416
6.37,637,1.005,0.027999999999999997,0.024,0.2291832000000001,-1.3178034,-0.2291832000000001,-84.58578954,87.63965568,-155.83311684
6.38,638,1.0070000000000001,0.027000000000000003,0.025,0.0,-1.5469866,-0.057295800000000015,-84.21336684,87.63965568,-155.46069414
6.39,639,1.006,0.027000000000000003,0.026000000000000002,0.0,-1.432395,0.0,-83.86959204,87.63965568,-155.11118976
6.4,640,1.004,0.027999999999999997,0.026000000000000002,0.0,-1.2032118,0.057295800000000015,-84.90664602000003,87.63965568,-156.15397332
6.41,641,1.002,0.026000000000000002,0.025,-0.057295800000000015,-1.3750992,0.1718874,-84.56287122,87.63965568,-155.81019852
6.42,642,1.001,0.027000000000000003,0.021,0.0,-1.4896908000000002,0.2291832000000001,-84.1961781,87.63965568,-155.4435054
6.43,643,1.0,0.025,0.02,-0.2291832000000001,-1.432395,0.2291832000000001,-83.85240329999998,87.63965568,-155.09400102
6.4399999999999995,644,1.0,0.023,0.015,-0.40107059999999994,-1.2032118,0.2291832000000001,-83.55446514,87.63965568,-154.79033327999997
6.45,645,1.001,0.024,0.013999999999999999,-0.40107059999999994,-0.9740286,0.286479,-83.94407658,87.65111484,-155.17421514
6.46,646,1.001,0.024,0.017,-0.40107059999999994,-0.9167328000000001,0.286479,-83.7091638,87.65111484,-154.93930236
6.47,647,1.0070000000000001,0.024,0.016,-0.6302538000000001,-0.286479,0.286479,-83.63467926,87.65684442,-154.85335866
6.4799999999999995,648,1.0090000000000001,0.027999999999999997,0.016,-0.8021411999999999,0.0,0.2291832000000001,-83.62322009999998,87.65684442,-154.83616992
6.49,649,1.005,0.027000000000000003,0.019,-1.0313244000000001,0.5156622000000001,0.1718874,-83.75500044,87.66257399999998,-154.96222068
6.5,650,1.003,0.024,0.021,-1.0313244000000001,0.9167328000000001,0.1718874,-84.69465156,87.67976274,-155.88468306
6.51,651,1.008,0.022000000000000002,0.023,-1.145916,0.4583664000000001,0.3437748,-84.80924316,87.67976274,-155.9878155
6.52,652,1.013,0.023,0.022000000000000002,-1.432395,0.1718874,0.4583664000000001,-84.86080938,87.68549232000002,-156.02219298
6.53,653,1.016,0.025,0.027999999999999997,-1.4896908000000002,0.40107059999999994,0.6875496,-84.96394182,87.69695148,-156.11386626
6.54,654,1.014,0.027000000000000003,0.031,-1.6615782,0.572958,0.6302538000000001,-85.1129109,87.70268106,-156.24564660000001
6.55,655,1.01,0.025,0.031,-1.7188740000000002,0.3437748,0.6302538000000001,-86.21299026,87.71414021999998,-157.32853722
6.56,656,1.005,0.025,0.027999999999999997,-1.6042823999999998,-0.1718874,0.5156622000000001,-86.17288319999999,87.7198698,-157.27124142
6.57,657,1.001,0.025,0.026000000000000002,-1.145916,-0.4583664000000001,0.3437748,-86.05829159999998,87.72559937999998,-157.14519066
6.58,658,1.001,0.023,0.022000000000000002,-0.6302538000000001,-0.9740286,0.2291832000000001,-85.80619008000002,87.72559937999998,-156.88735956
6.59,659,1.003,0.021,0.018000000000000002,-0.6302538000000001,-1.432395,0.11459160000000004,-85.45095612,87.72559937999998,-156.52066644
6.6,660,1.0070000000000001,0.023,0.018000000000000002,-0.8594370000000001,-1.6615782,0.057295800000000015,-85.58273646,87.73132896,-156.64671719999996
6.61,661,1.011,0.027000000000000003,0.024,-0.9167328000000001,-1.6615782,0.0,-85.16447712,87.73132896,-156.2169987
6.62,662,1.013,0.028999999999999998,0.027000000000000003,-0.7448454000000001,-1.3750992,0.0,-84.82070232,87.72559937999998,-155.86749432000005
6.63,663,1.011,0.028999999999999998,0.025,-0.4583664000000001,-1.2032118,0.0,-84.51703458,87.72559937999998,-155.558097
6.64,664,1.008,0.027000000000000003,0.023,-0.1718874,-1.432395,-0.057295800000000015,-84.1675302,87.7198698,-155.20859262
6.65,665,1.004,0.025,0.02,0.057295800000000015,-1.6042823999999998,0.0,-84.48838668,87.72559937999998,-155.5294491
6.66,666,1.005,0.023,0.02,0.1718874,-1.6042823999999998,-0.057295800000000015,-84.07585692,87.7198698,-155.11691934
6.67,667,1.006,0.023,0.018000000000000002,0.11459160000000004,-1.5469866,-0.057295800000000015,-83.69197505999998,87.7198698,-154.73876706
6.68,668,1.0090000000000001,0.022000000000000002,0.016,0.057295800000000015,-1.4896908000000002,-0.11459160000000004,-83.31955236,87.71414021999998,-154.36634436
6.6899999999999995,669,1.01,0.021,0.015,0.057295800000000015,-1.3750992,-0.2291832000000001,-82.98150714,87.71414021999998,-154.02256956000005
6.7,670,1.01,0.022000000000000002,0.017,0.1718874,-1.2605076000000002,-0.286479,-83.34247067999998,87.71414021999998,-154.38926268
6.71,671,1.008,0.025,0.018000000000000002,0.1718874,-1.145916,-0.3437748,-83.06172126,87.70841064,-154.10851326
6.72,672,1.006,0.026000000000000002,0.015,0.0,-0.9740286,-0.2291832000000001,-82.82107890000002,87.70268106,-153.87360048
6.7299999999999995,673,1.006,0.024,0.013999999999999999,-0.40107059999999994,-0.9740286,-0.057295800000000015,-82.58616612,87.69695148,-153.63295811999996
6.74,674,1.0,0.025,0.015,-0.6875496,-0.5156622000000001,-0.11459160000000004,-82.46011536,87.69695148,-153.4954482
6.75,675,0.998,0.023,0.016,-0.4583664000000001,-0.40107059999999994,-0.11459160000000004,-83.35965941999999,87.7198698,-154.38926268
6.76,676,0.9990000000000001,0.021,0.015,-0.40107059999999994,-0.572958,-0.11459160000000004,-83.22787908000002,87.71414021999998,-154.25175276
6.77,677,1.001,0.021,0.016,-0.5156622000000001,-0.6302538000000001,-0.1718874,-83.07318042,87.71414021999998,-154.09132452
6.78,678,1.003,0.022000000000000002,0.018000000000000002,-0.8594370000000001,-0.6302538000000001,-0.2291832000000001,-82.91848175999998,87.70841064,-153.93089628
6.79,679,1.006,0.024,0.022000000000000002,-1.0886202,-0.3437748,-0.2291832000000001,-82.84972680000001,87.70268106,-153.85068216
6.8,680,1.0070000000000001,0.024,0.022000000000000002,-1.0313244000000001,-0.057295800000000015,-0.3437748,-83.64613842,87.71414021999998,-154.63563462
6.81,681,1.0070000000000001,0.024,0.02,-1.0313244000000001,0.057295800000000015,-0.40107059999999994,-83.69197505999998,87.70841064,-154.6700121
6.82,682,1.01,0.025,0.02,-1.0313244000000001,0.1718874,-0.3437748,-83.75500044,87.70268106,-154.72157832
6.83,683,1.011,0.027000000000000003,0.023,-1.0886202,0.286479,-0.286479,-83.84667372,87.70268106,-154.80179244
6.84,684,1.01,0.027999999999999997,0.02,-0.8594370000000001,0.1718874,-0.1718874,-83.91542868,87.70268106,-154.85908823999995
6.85,685,1.01,0.026000000000000002,0.021,-0.6302538000000001,0.4583664000000001,-0.1718874,-85.06134468,87.70268106,-155.99927466
6.86,686,1.0070000000000001,0.025,0.021,-0.6875496,0.5156622000000001,-0.1718874,-85.20458418000003,87.70268106,-156.14251416
6.87,687,1.004,0.024,0.017,-0.4583664000000001,0.5156622000000001,-0.1718874,-85.3420941,87.70268106,-156.26856492
6.88,688,1.005,0.022000000000000002,0.016,-0.40107059999999994,0.2291832000000001,-0.1718874,-85.41657864,87.69695148,-156.34304946
6.89,689,1.0070000000000001,0.021,0.015,-0.6302538000000001,0.057295800000000015,-0.2291832000000001,-85.45668570000002,87.69695148,-156.37169736
6.9,690,1.011,0.022000000000000002,0.018000000000000002,-0.9740286,0.11459160000000004,-0.1718874,-86.1442353,87.70841064,-157.05351738000005
6.91,691,1.012,0.026000000000000002,0.022000000000000002,-1.2605076000000002,0.1718874,-0.2291832000000001,-86.2015311,87.70268106,-157.09935402000005
6.92,692,1.011,0.027999999999999997,0.023,-1.2605076000000002,0.2291832000000001,-0.1718874,-86.28174521999998,87.70268106,-157.16810898
6.93,693,1.01,0.027000000000000003,0.025,-1.0886202,0.11459160000000004,-0.057295800000000015,-86.32758186,87.70268106,-157.19675688
6.9399999999999995,694,1.0090000000000001,0.027000000000000003,0.026000000000000002,-1.145916,0.11459160000000004,0.0,-86.36768892,87.70268106,-157.22540478
6.95,695,1.006,0.026000000000000002,0.024,-1.0886202,0.40107059999999994,0.0,-87.31879920000002,87.70841064,-158.17078548
6.96,696,1.003,0.024,0.021,-1.0313244000000001,0.3437748,0.0,-87.42193164,87.70841064,-158.26245876000004
6.97,697,1.002,0.023,0.018000000000000002,-0.9740286,0.2291832000000001,0.0,-87.50214575999998,87.70841064,-158.32548414
6.9799999999999995,698,1.002,0.024,0.019,-0.9740286,0.0,0.11459160000000004,-87.50214575999998,87.71414021999998,-158.31975456
6.99,699,1.005,0.023,0.021,-1.145916,-0.11459160000000004,0.11459160000000004,-87.47349786,87.71414021999998,-158.2796475
7.0,700,1.008,0.023,0.022000000000000002,-1.3178034,0.057295800000000015,0.057295800000000015,-88.38450107999998,87.7198698,-159.17919156
7.01,701,1.008,0.024,0.021,-1.2032118,0.3437748,0.0,-88.48763352,87.72559937999998,-159.26513526000005
7.02,702,1.0070000000000001,0.024,0.022000000000000002,-1.0313244000000001,0.4583664000000001,0.0,-88.61941386,87.72559937999998,-159.38545644
7.03,703,1.006,0.024,0.021,-1.0313244000000001,0.572958,-0.057295800000000015,-88.77411251999996,87.72559937999998,-159.52869593999995
7.04,704,1.004,0.025,0.021,-0.9167328000000001,0.4583664000000001,-0.11459160000000004,-88.90589286,87.7198698,-159.64901712
7.05,705,1.001,0.024,0.02,-0.6302538000000001,0.40107059999999994,-0.11459160000000004,-89.6392791,87.7198698,-160.38240336
7.06,706,1.002,0.022000000000000002,0.02,-0.4583664000000001,0.3437748,-0.2291832000000001,-89.73095237999998,87.7198698,-160.46834706
7.07,707,1.004,0.021,0.016,-0.40107059999999994,0.2291832000000001,-0.3437748,-89.79970734,87.71414021999998,-160.53137243999996
7.08,708,1.008,0.023,0.013000000000000001,-0.4583664000000001,0.572958,-0.40107059999999994,-89.95440599999998,87.71414021999998,-160.68034152
7.09,709,1.0090000000000001,0.023,0.017,-0.7448454000000001,1.0886202,-0.40107059999999994,-90.23515542,87.70841064,-160.94963178
7.1,710,1.0090000000000001,0.023,0.019,-1.0886202,1.145916,-0.4583664000000001,-90.85967964,87.70841064,-161.56269684
7.11,711,1.0070000000000001,0.023,0.022000000000000002,-1.2605076000000002,1.145916,-0.4583664000000001,-91.1576178,87.70268106,-161.84917584
7.12,712,1.006,0.022000000000000002,0.021,-0.9740286,1.0886202,-0.3437748,-91.43836722,87.70268106,-162.11846609999995
7.13,713,1.006,0.023,0.02,-1.0313244000000001,1.145916,-0.2291832000000001,-91.7305758,87.69695148,-162.4049451
7.14,714,1.005,0.023,0.022000000000000002,-1.0313244000000001,1.0886202,-0.1718874,-92.00559564,87.69695148,-162.66850577999998
7.15,715,1.006,0.025,0.028999999999999998,-0.572958,0.8594370000000001,-0.11459160000000004,-93.43799064,87.69122189999999,-164.09517119999995
7.16,716,1.005,0.026000000000000002,0.034,-0.3437748,0.9740286,-0.2291832000000001,-93.68436258,87.68549232000002,-164.33581356
7.17,717,1.004,0.026000000000000002,0.03,0.0,0.9740286,-0.2291832000000001,-93.92500494,87.68549232000002,-164.57645592
7.18,718,1.005,0.024,0.025,0.0,0.9167328000000001,-0.2291832000000001,-94.15418814,87.67976274,-164.8113687
7.1899999999999995,719,1.005,0.025,0.023,-0.057295800000000015,0.8021411999999999,-0.2291832000000001,-94.34899386,87.67976274,-165.00044484
7.2,720,1.005,0.026000000000000002,0.021,0.0,0.6302538000000001,-0.2291832000000001,-95.16259422,87.67403316,-165.81404519999995
7.21,721,1.008,0.027000000000000003,0.022000000000000002,0.2291832000000001,0.5156622000000001,-0.1718874,-95.29437456,87.66830358,-165.95155512
7.22,722,1.012,0.027999999999999997,0.026000000000000002,0.2291832000000001,0.4583664000000001,-0.2291832000000001,-95.40896616,87.66830358,-166.06614672
7.2299999999999995,723,1.014,0.027999999999999997,0.025,0.286479,0.5156622000000001,-0.1718874,-95.53501692,87.66257399999998,-166.19792706
7.24,724,1.014,0.027000000000000003,0.026000000000000002,0.40107059999999994,0.5156622000000001,-0.1718874,-95.66106768,87.66257399999998,-166.32970740000005
7.25,725,1.013,0.025,0.026000000000000002,0.5156622000000001,0.5156622000000001,-0.057295800000000015,-96.7726062,87.66257399999998,-167.44124592
7.26,726,1.011,0.027000000000000003,0.027999999999999997,0.6302538000000001,0.6875496,-0.057295800000000015,-96.93876402,87.66257399999998,-167.61886289999995
7.27,727,1.0070000000000001,0.026000000000000002,0.027000000000000003,0.572958,0.5156622000000001,0.0,-97.06481478,87.66257399999998,-167.74491366
7.28,728,1.006,0.025,0.027000000000000003,0.5156622000000001,0.2291832000000001,0.0,-97.116381,87.66257399999998,-167.80793904
7.29,729,1.004,0.022000000000000002,0.027999999999999997,0.5156622000000001,-0.057295800000000015,0.057295800000000015,-97.09346268,87.66257399999998,-167.78502071999995
7.3,730,1.0070000000000001,0.023,0.027999999999999997,0.5156622000000001,-0.3437748,0.0,-98.05030254,87.66830358,-168.74759016000004
7.31,731,1.006,0.024,0.026000000000000002,0.572958,-0.6302538000000001,0.0,-97.8898743,87.66830358,-168.59862108
7.32,732,1.006,0.024,0.026000000000000002,0.6875496,-0.6875496,0.057295800000000015,-97.71225732,87.66830358,-168.42673368
7.33,733,1.008,0.022000000000000002,0.026000000000000002,0.6302538000000001,-0.8021411999999999,0.057295800000000015,-97.50599244,87.67403316,-168.22619838
7.34,734,1.008,0.023,0.026000000000000002,0.2291832000000001,-0.7448454000000001,0.0,-97.32264588,87.67403316,-168.04285182
7.35,735,1.008,0.025,0.027000000000000003,0.11459160000000004,-0.286479,-0.057295800000000015,-99.70042158,87.66257399999998,-170.4263571
7.36,736,1.0090000000000001,0.022000000000000002,0.028999999999999998,0.0,0.0,0.0,-99.694692,87.66257399999998,-170.41489794
7.37,737,1.0090000000000001,0.023,0.028999999999999998,-0.11459160000000004,0.0,0.0,-99.68323284,87.66257399999998,-170.40343878
7.38,738,1.01,0.025,0.027999999999999997,-0.057295800000000015,0.0,0.0,-99.68896242,87.66257399999998,-170.40916836000005
7.39,739,1.0090000000000001,0.026000000000000002,0.028999999999999998,0.0,-0.2291832000000001,0.0,-99.63166662,87.66830358,-170.35187256
7.4,740,1.0090000000000001,0.026000000000000002,0.03,0.0,-0.40107059999999994,0.0,-101.11562784,87.66830358,-171.83583378
7.41,741,1.008,0.024,0.027999999999999997,-0.057295800000000015,-0.1718874,0.057295800000000015,-101.06406162,87.66830358,-171.78426756
7.42,742,1.0070000000000001,0.024,0.028999999999999998,0.0,-0.2291832000000001,0.0,-101.00676582,87.66830358,-171.72697176000003
7.43,743,1.006,0.024,0.031,-0.11459160000000004,-0.286479,0.0,-100.93801086,87.66830358,-171.65821680000005
7.4399999999999995,744,1.006,0.024,0.028999999999999998,-0.11459160000000004,-0.40107059999999994,0.057295800000000015,-100.84060799999999,87.67403316,-171.56081394
7.45,745,1.0070000000000001,0.025,0.03,-0.057295800000000015,-0.4583664000000001,0.057295800000000015,-101.71150416,87.66830358,-172.42598052
7.46,746,1.0070000000000001,0.026000000000000002,0.028999999999999998,0.0,-0.6302538000000001,0.11459160000000004,-101.5568055,87.67403316,-172.27128186
7.47,747,1.0070000000000001,0.024,0.03,0.0,-0.6875496,0.11459160000000004,-101.39064768,87.67403316,-172.10512404000005
7.4799999999999995,748,1.008,0.025,0.028999999999999998,0.0,-0.572958,0.11459160000000004,-101.25313776,87.67403316,-171.96761411999995
7.49,749,1.008,0.024,0.027000000000000003,-0.057295800000000015,-0.6302538000000001,0.11459160000000004,-101.10416868000002,87.67976274,-171.81864504
7.5,750,1.008,0.023,0.026000000000000002,-0.2291832000000001,-0.5156622000000001,0.0,-101.7286929,87.69122189999999,-172.43743968
7.51,751,1.008,0.024,0.026000000000000002,-0.2291832000000001,-0.5156622000000001,0.057295800000000015,-101.59691256,87.69122189999999,-172.29992976
7.52,752,1.006,0.024,0.027999999999999997,-0.11459160000000004,-0.6302538000000001,0.11459160000000004,-101.44221389999998,87.69695148,-172.15096068
7.53,753,1.005,0.025,0.028999999999999998,-0.2291832000000001,-0.7448454000000001,0.0,-101.26459692,87.69695148,-171.96761411999995
7.54,754,1.005,0.026000000000000002,0.027999999999999997,-0.1718874,-0.9167328000000001,0.0,-101.04114330000002,87.69695148,-171.73843091999996
7.55,755,1.006,0.024,0.027000000000000003,0.0,-0.9167328000000001,0.0,-101.51669844,87.70841064,-172.21971564
7.56,756,1.0070000000000001,0.023,0.026000000000000002,0.0,-0.8594370000000001,0.0,-101.30470398,87.70841064,-172.0019916
7.57,757,1.008,0.024,0.026000000000000002,0.0,-0.8021411999999999,0.0,-101.10416868000002,87.70841064,-171.80145629999996
7.58,758,1.008,0.025,0.027000000000000003,0.0,-0.7448454000000001,-0.057295800000000015,-100.91509254,87.70841064,-171.61810974
7.59,759,1.0070000000000001,0.026000000000000002,0.028999999999999998,0.1718874,-0.8021411999999999,0.0,-100.70882766,87.70841064,-171.41184486000003
7.6,760,1.008,0.025,0.03,0.2291832000000001,-0.8021411999999999,0.057295800000000015,-101.40783642,87.71414021999998,-172.11658319999995
7.61,761,1.008,0.024,0.027999999999999997,0.1718874,-0.6875496,0.11459160000000004,-101.2416786,87.71414021999998,-171.9446958
7.62,762,1.0070000000000001,0.025,0.027999999999999997,0.11459160000000004,-0.6302538000000001,0.11459160000000004,-101.08697994,87.71414021999998,-171.78999714
7.63,763,1.0070000000000001,0.025,0.028999999999999998,0.0,-0.572958,0.057295800000000015,-100.94374043999998,87.7198698,-171.64675763999998
7.64,764,1.005,0.026000000000000002,0.03,-0.057295800000000015,-0.4583664000000001,0.11459160000000004,-100.82914884,87.7198698,-171.53789562
7.65,765,1.004,0.024,0.028999999999999998,0.057295800000000015,-0.5156622000000001,0.057295800000000015,-101.77452954000002,87.7198698,-172.48327632000004
7.66,766,1.005,0.023,0.028999999999999998,0.11459160000000004,-0.5156622000000001,0.057295800000000015,-101.65420836,87.7198698,-172.36295514
7.67,767,1.005,0.023,0.027999999999999997,0.286479,-0.286479,0.0,-101.56826466,87.7198698,-172.28274102
7.68,768,1.005,0.021,0.027000000000000003,0.286479,-0.2291832000000001,0.0,-101.51096886,87.72559937999998,-172.22544522
7.6899999999999995,769,1.0090000000000001,0.023,0.024,0.057295800000000015,-0.2291832000000001,-0.057295800000000015,-101.43648432,87.7198698,-172.15669026
7.7,770,1.0090000000000001,0.025,0.021,0.0,-0.11459160000000004,0.0,-101.9292282,87.70268106,-172.64943413999995
7.71,771,1.008,0.026000000000000002,0.024,-0.286479,0.1718874,0.0,-101.99225357999998,87.70268106,-172.70100036
7.72,772,1.0070000000000001,0.025,0.027999999999999997,-0.286479,0.2291832000000001,0.0,-102.06100854,87.70268106,-172.76975532
7.7299999999999995,773,1.0070000000000001,0.023,0.03,-0.3437748,0.1718874,-0.057295800000000015,-102.11257476,87.70268106,-172.81559195999995
7.74,774,1.008,0.022000000000000002,0.031,-0.286479,0.2291832000000001,-0.057295800000000015,-102.18132972,87.69695148,-172.88434692
