TimeStamp(s),FrameCounter,AccX,AccY,AccZ,GyrX,GyrY,GyrZ,EulerX,EulerY,EulerZ
0.01,1,-0.039,-1.004,0.1,2.1772404,0.6875496,0.286479,94.77871236,-2.59549974,-17.63564724
0.02,2,-0.042,-1.0,0.101,2.1199446,0.4583664000000001,0.286479,94.80163068,-2.6012293200000003,-17.62991766
0.03,3,-0.045,-0.996,0.102,2.578311,0.286479,0.1718874,94.824549,-2.6012293200000003,-17.62418808
0.04,4,-0.051,-0.994,0.103,3.0366774,0.572958,0.057295800000000015,94.8531969,-2.61268848,-17.6184585
0.05,5,-0.055,-0.996,0.106,3.2085648,0.9167328,-0.057295800000000015,94.88184479999998,-2.61268848,-17.606999339999994
0.060000000000000005,6,-0.055,-0.997,0.11,3.380452200000001,1.2605076000000002,-0.3437748,94.91622228,-2.6069589,-17.59554018
0.06999999999999999,7,-0.05,-1.001,0.114,3.6096354,1.7761698,-0.6302538000000001,94.95632934,-2.6069589,-17.57835144
0.08,8,-0.045,-1.005,0.115,3.6096354,2.291832,-0.7448454000000001,94.99070682,-2.6012293200000003,-17.55543312
0.09,9,-0.046,-1.005,0.113,3.151269,2.3491278,-0.6875496,95.0250843,-2.58404058,-17.52678522
0.09999999999999999,10,-0.047,-1.0,0.11,2.9793816000000004,2.0053530000000004,-0.572958,95.0537322,-2.58404058,-17.50959648
0.11,11,-0.048,-0.997,0.106,3.0366774,1.432395,-0.4583664000000001,95.0823801,-2.5783110000000002,-17.492407739999994
0.12,12,-0.051,-0.992,0.106,3.0366774,0.9740286,-0.3437748,95.111028,-2.5783110000000002,-17.48094858
0.13,13,-0.054000000000000006,-0.991,0.106,2.9793816000000004,1.145916,-0.5156622000000001,95.14540548,-2.57258142,-17.46948942
0.14,14,-0.054000000000000006,-0.991,0.108,3.0366774,1.8334656000000005,-0.572958,95.1683238,-2.5783110000000002,-17.45230068
0.15000000000000002,15,-0.053,-0.995,0.106,3.0366774,2.4637194,-0.6302538000000001,95.1969717,-2.57258142,-17.42365278
0.16,16,-0.05,-0.997,0.104,3.151269,2.6356068,-0.5156622000000001,95.2256196,-2.56685184,-17.39500488
0.17,17,-0.05,-0.997,0.109,3.4950437999999995,1.7188740000000002,-0.3437748,95.25999708,-2.56685184,-17.37781614
0.18000000000000002,18,-0.049,-1.0,0.112,3.6096354,1.2605076000000002,-0.286479,95.30010414,-2.56685184,-17.36635698
0.19,19,-0.049,-1.003,0.112,3.6096354,0.9740286,-0.11459160000000004,95.32875204,-2.56685184,-17.354897819999998
0.2,20,-0.048,-1.002,0.112,3.5523396000000003,0.6875496,0.057295800000000015,95.36312952,-2.56685184,-17.34916824
0.21000000000000002,21,-0.05,-0.998,0.115,3.6669312000000014,0.572958,0.11459160000000004,95.40323658,-2.56685184,-17.34343866
0.22,22,-0.052000000000000005,-0.999,0.117,3.6669312000000014,0.5156622000000001,0.0,95.43761406,-2.57258142,-17.33770908
0.23,23,-0.051,-0.999,0.115,3.4377480000000005,0.4010706,-0.1718874,95.47199154,-2.56685184,-17.331979500000006
0.24000000000000002,24,-0.051,-1.0,0.113,3.2085648,0.3437748,-0.286479,95.49490986,-2.57258142,-17.326249920000002
0.25,25,-0.052000000000000005,-1.002,0.111,2.9220857999999996,0.5156622000000001,-0.286479,95.52355776,-2.56685184,-17.32052034
0.26,26,-0.052000000000000005,-1.003,0.109,2.7501984,0.6302538000000001,-0.286479,95.55220566,-2.56685184,-17.31479076
0.27,27,-0.051,-1.004,0.106,2.9220857999999996,0.3437748,-0.286479,95.58085356,-2.5611222600000003,-17.30906118
0.28,28,-0.052000000000000005,-1.004,0.107,3.151269,-0.11459160000000004,-0.1718874,95.61523104,-2.5611222600000003,-17.30906118
0.29000000000000004,29,-0.05,-1.004,0.108,3.2658606,-0.3437748,-0.2291832000000001,95.61523104,-2.55539268,-17.30906118
0.3,30,-0.048,-1.003,0.107,3.2085648,-0.4010706,-0.1718874,95.64960852,-2.55539268,-17.31479076
0.31,31,-0.046,-1.002,0.108,3.2658606,-0.7448454000000001,-0.1718874,95.683986,-2.5496631,-17.32052034
0.32,32,-0.043,-1.0,0.113,3.2658606,-1.145916,-0.11459160000000004,95.71836348,-2.5496631,-17.331979500000006
0.33,33,-0.045,-0.998,0.113,3.4377480000000005,-1.6615782,0.0,95.75274096,-2.54393352,-17.34916824
0.34,34,-0.047,-1.0,0.114,3.5523396000000003,-1.9480572,0.11459160000000004,95.77565928,-2.53820394,-17.36635698
0.35000000000000003,35,-0.05,-1.004,0.116,3.4377480000000005,-2.0626488000000003,0.1718874,95.81003676,-2.53820394,-17.3892753
0.36000000000000004,36,-0.052000000000000005,-1.008,0.117,3.2085648,-2.1199446,0.3437748,95.84441424,-2.53820394,-17.40646404
0.37,37,-0.053,-1.008,0.117,2.8074942000000003,-2.0053530000000004,0.3437748,95.87306214,-2.53820394,-17.429382359999998
0.38,38,-0.055,-1.007,0.116,2.4064236,-1.6615782,0.4583664000000001,95.90171004,-2.54393352,-17.4465711
0.39,39,-0.055,-1.004,0.116,2.1199446,-1.432395,0.4010706,95.90171004,-2.55539268,-17.45803026
0.4,40,-0.053,-1.003,0.117,1.9480572,-1.3178034,0.286479,95.91889878,-2.55539268,-17.46948942
0.41000000000000003,41,-0.052000000000000005,-1.004,0.12,1.8334656000000005,-1.2605076000000002,0.3437748,95.9418171,-2.55539268,-17.48667816
0.42000000000000004,42,-0.05,-1.006,0.119,1.6615782,-1.4896908000000002,0.3437748,95.95900584,-2.5611222600000003,-17.498137319999998
0.43,43,-0.049,-1.008,0.121,1.432395,-1.7761698,0.4010706,95.97619458,-2.5611222600000003,-17.52105564
0.44,44,-0.046,-1.01,0.121,1.2605076000000002,-1.6042823999999998,0.4583664000000001,95.97619458,-2.5496631,-17.5325148
0.45,45,-0.043,-1.011,0.12,1.0313244,-1.6615782,0.572958,95.98765374,-2.55539268,-17.549703540000007
0.46,46,-0.045,-1.012,0.118,0.9167328,-1.8334656000000005,0.6875496,95.99911290000001,-2.5611222600000003,-17.57262186
0.47000000000000003,47,-0.043,-1.012,0.118,0.8594370000000001,-1.9480572,0.9167328,96.01057206,-2.56685184,-17.589810600000003
0.48000000000000004,48,-0.041,-1.009,0.121,0.8021411999999999,-1.8334656000000005,0.8594370000000001,96.01630164,-2.57258142,-17.606999339999994
0.49,49,-0.041,-1.003,0.121,0.8021411999999999,-2.0053530000000004,0.6875496,96.02203122,-2.55539268,-17.62991766
0.5,50,-0.043,-0.988,0.131,1.9480572,-2.6356068,0.4583664000000001,96.04494954,-2.55539268,-17.65856556
0.51,51,-0.039,-0.972,0.142,4.010706000000001,-2.6929026,-0.4010706,96.0850566,-2.5496631,-17.68148388
0.52,52,-0.03,-0.971,0.131,4.8128472,-2.9220857999999996,-1.432395,96.13662282,-2.53247436,-17.71013178
0.53,53,-0.022,-0.983,0.113,4.297185,-3.8961144,-2.1772404,96.18245946,-2.50382646,-17.74450926
0.54,54,-0.016,-1.002,0.113,3.5523396000000003,-5.0993262,-2.6929026,96.21110736,-2.44653066,-17.7903459
0.55,55,-0.008,-1.017,0.121,2.291832,-5.6722842,-2.9220857999999996,96.23402568,-2.4064236,-17.84191212
0.56,56,0.002,-1.016,0.133,1.3750992,-5.5003968,-2.86479,96.25121442,-2.37204612,-17.89347834
0.5700000000000001,57,0.01,-1.002,0.135,1.0313244,-5.6722842,-2.1199446,96.26840316,-2.34339822,-17.94504456
0.5800000000000001,58,0.018000000000000002,-0.983,0.128,0.9167328,-6.760904399999999,-1.0313244,96.27986232,-2.3204799,-18.01379952
0.59,59,0.02,-0.967,0.122,0.6302538000000001,-9.1100322,-0.057295800000000015,96.2855919,-2.25745452,-18.09974322
0.6,60,0.015,-0.959,0.124,0.4010706,-11.4018642,0.6302538000000001,96.29705106,-2.24599536,-18.21433482
0.61,61,0.0,-0.96,0.128,0.5156622000000001,-12.4904844,1.145916,96.30851022,-2.24026578,-18.334656000000006
0.62,62,-0.02,-0.972,0.129,0.6875496,-12.605076,1.432395,96.32569896,-2.24026578,-18.46070676
0.63,63,-0.038,-0.986,0.127,0.6875496,-12.1467096,1.6615782,96.33715812,-2.24026578,-18.58102794
0.64,64,-0.051,-0.998,0.119,0.9740286,-11.8602306,1.6042823999999998,96.34861728,-2.24599536,-18.70134912
0.65,65,-0.053,-1.008,0.126,2.0626488000000003,-11.3445684,1.4896908000000002,96.3715356,-2.24599536,-18.81594072
0.66,66,-0.045,-1.014,0.138,2.4064236,-10.1413566,1.3178034,96.40591308,-2.24599536,-18.91334358
0.67,67,-0.039,-1.018,0.141,2.0053530000000004,-8.8235532,1.2032118,96.4288314,-2.24599536,-19.00501686
0.68,68,-0.039,-1.022,0.142,1.0886202,-7.5630456000000015,1.5469866,96.44602014,-2.24599536,-19.0795014
0.6900000000000001,69,-0.036000000000000004,-1.026,0.138,-0.1718874,-5.443101,1.9480572,96.44029056,-2.24599536,-19.136797199999997
0.7000000000000001,70,-0.033,-1.029,0.12,-1.7188740000000002,-3.0939732,2.8074942000000003,96.4288314,-2.26891368,-19.17117468
0.7100000000000001,71,-0.031,-1.028,0.101,-3.4377480000000005,-1.7761698,3.9534102,96.39445392000002,-2.30902074,-19.194093
0.72,72,-0.035,-1.018,0.087,-4.4690724,-1.145916,5.5576926,96.34861728,-2.36058696,-19.21128174
0.73,73,-0.04,-1.005,0.078,-5.72958,-0.8594370000000001,6.990087599999999,96.29132148,-2.42934192,-19.22847048
0.74,74,-0.043,-0.999,0.067,-6.417129599999999,-0.4010706,7.6203414,96.18818904,-2.50382646,-19.23992964
0.75,75,-0.045,-1.002,0.059,-6.875496000000001,-0.286479,7.8495246,96.11943408,-2.5783110000000002,-19.2513888
0.76,76,-0.044,-1.011,0.05,-7.333862400000001,-1.0886202,7.7922288,96.04494954,-2.65852512,-19.27430712
0.77,77,-0.047,-1.025,0.044,-7.6203414,-2.6356068,7.906820400000001,95.970465,-2.73300966,-19.308684600000007
0.78,78,-0.051,-1.03,0.053,-6.6463128000000005,-4.8701430000000006,7.9641161999999985,95.90171004,-2.8074942000000003,-19.365980399999998
0.79,79,-0.054000000000000006,-1.031,0.065,-3.6669312000000014,-6.4744254,7.8495246,95.83868466,-2.87624916,-19.43473536
0.8,80,-0.052000000000000005,-1.031,0.058,-2.0053530000000004,-8.193299399999999,7.7922288,95.82149592,-2.93927454,-19.52640864
0.81,81,-0.054000000000000006,-1.02,0.061,-2.8074942000000003,-11.45916,7.7349330000000025,95.80430718,-3.00229992,-19.64672982
0.8200000000000001,82,-0.064,-0.996,0.069,-4.5263682,-13.750992000000002,7.906820400000001,95.76420011999998,-3.0653253000000005,-19.78996932
0.8300000000000001,83,-0.086,-0.97,0.08199999999999999,-6.417129599999999,-15.2979786,7.7922288,95.7126339,-3.1226211000000004,-19.950397560000006
0.8400000000000001,84,-0.11,-0.948,0.103,-8.5370742,-15.527161800000002,7.5630456000000015,95.63814936,-3.19710564,-20.1108258
0.85,85,-0.142,-0.931,0.14,-10.026765,-14.667724800000002,6.990087599999999,95.54647608,-3.2486718599999995,-20.26552446
0.86,86,-0.16699999999999998,-0.93,0.185,-11.745639,-11.6310474,6.3598338,95.43188448,-3.30023808,-20.38584564
0.87,87,-0.179,-0.947,0.194,-15.0114996,-7.0473834,6.3025379999999975,95.28864498,-3.3518043,-20.46033018
0.88,88,-0.183,-0.99,0.17800000000000002,-18.5638392,-3.8961144,7.5630456000000015,95.09956884,-3.42628884,-20.5118964
0.89,89,-0.173,-1.03,0.163,-21.7151082,-3.0366774,9.740286,94.89330396,-3.54088044,-20.55200346
0.9,90,-0.15,-1.054,0.152,-22.0015872,-4.9847345999999995,11.688343199999998,94.67557992,-3.65547204,-20.61502884
0.91,91,-0.122,-1.056,0.161,-19.938938399999998,-6.589017,12.605076,94.4807742,-3.77006364,-20.69524296
0.92,92,-0.109,-1.054,0.198,-16.386598799999998,-8.5370742,12.5477802,94.32034596,-3.89038482,-20.79264582
0.93,93,-0.113,-1.051,0.245,-13.349921400000001,-11.688343199999998,12.0894138,94.1942952,-3.99924684,-20.91869658
0.9400000000000001,94,-0.129,-1.054,0.285,-10.1413566,-13.8082878,11.8029348,94.14845856,-4.11383844,-21.06766566
0.9500000000000001,95,-0.14800000000000002,-1.073,0.311,-7.9641161999999985,-14.152062599999999,11.5737516,94.0797036,-4.21697088,-21.21663474
0.9600000000000001,96,-0.16699999999999998,-1.109,0.317,-7.2765666,-13.0061466,12.1467096,94.01667822,-4.325832900000001,-21.35414466
0.97,97,-0.16899999999999998,-1.135,0.292,-10.7716104,-11.0007936,13.178034,93.91927536,-4.44615408,-21.47446584
0.98,98,-0.157,-1.135,0.251,-15.2406828,-9.9121734,13.750992000000002,93.77603586,-4.57220484,-21.58332786
0.99,99,-0.139,-1.107,0.221,-19.2513888,-10.1986524,13.521808800000002,93.60987804,-4.703985179999999,-21.69791946
1.0,100,-0.132,-1.061,0.22,-20.912967,-11.3445684,12.4331886,93.40934274,-4.81857678,-21.82397022
1.01,101,-0.142,-1.018,0.227,-20.2827132,-12.0894138,11.1153852,93.21453702,-4.921709219999999,-21.95002098
1.02,102,-0.155,-0.995,0.232,-18.2773602,-11.2872726,9.969469199999999,93.04264962,-5.0133825000000005,-22.07034216
1.03,103,-0.173,-0.994,0.221,-17.6471064,-8.7662574,9.3965112,92.87076222,-5.0993262,-22.16774502
1.04,104,-0.19,-1.003,0.187,-17.5325148,-5.5576926,9.3965112,92.73325229999999,-5.21964738,-22.2307704
1.05,105,-0.197,-1.019,0.159,-18.621135,-2.1199446,10.1413566,92.54417616,-5.32277982,-22.259418300000004
1.06,106,-0.189,-1.011,0.135,-19.767051,0.572958,10.7716104,92.34364086,-5.4316418399999975,-22.259418300000004
1.07,107,-0.173,-1.001,0.118,-19.194093,2.1772404,10.886202,92.14883514,-5.540503859999999,-22.24795914
1.08,108,-0.155,-0.987,0.105,-20.454600600000006,1.8334656000000005,10.6570188,91.93684068,-5.64936588,-22.2307704
1.09,109,-0.141,-0.968,0.096,-21.9442914,1.3178034,9.8548776,91.72484622,-5.7582279000000005,-22.2307704
1.1,110,-0.133,-0.957,0.092,-21.9442914,0.9167328,8.880849000000003,91.5013926,-5.849901179999999,-22.22504082
1.11,111,-0.135,-0.947,0.123,-20.6837838,0.057295800000000015,7.7922288,91.29512772,-5.930115299999999,-22.2307704
1.12,112,-0.14,-0.945,0.149,-19.9962342,-0.11459160000000004,7.0473834,91.08886284,-5.99887026,-22.2307704
1.1300000000000001,113,-0.15,-0.945,0.157,-20.626488,-0.5156622000000001,6.5317212,90.88259796,-6.067625219999999,-22.24222956
1.1400000000000001,114,-0.153,-0.954,0.158,-21.485925,-1.6042823999999998,6.130650599999999,90.70498098,-6.14210976,-22.26514788
1.1500000000000001,115,-0.149,-0.971,0.142,-22.9756158,-1.5469866,6.1879464,90.47579778,-6.205135139999999,-22.2880662
1.1600000000000001,116,-0.145,-0.986,0.111,-23.835052800000003,-2.0053530000000004,6.1879464,90.23515542,-6.26816052,-22.31098452
1.17,117,-0.151,-0.996,0.108,-23.6631654,-4.0680017999999984,5.9014674000000005,90.00024264,-6.3254563200000025,-22.35682116000001
1.18,118,-0.16399999999999998,-1.0,0.112,-23.6631654,-6.016058999999999,5.6722842,89.76532986,-6.382752120000001,-22.41411696
1.19,119,-0.183,-0.99,0.13,-23.032911600000002,-8.9381448,5.1566220000000005,89.5819833,-6.45723666,-22.51151982
1.2,120,-0.202,-0.987,0.16,-22.459953600000002,-11.0007936,4.2398892,89.36425926,-6.497343719999999,-22.62611142
1.21,121,-0.209,-0.989,0.158,-22.6891368,-10.9434978,2.9793816000000004,89.14653522,-6.525991620000001,-22.73497344
1.22,122,-0.209,-1.008,0.145,-22.2307704,-10.599723,2.6929026,88.93454076,-6.554639519999999,-22.84383546
1.23,123,-0.217,-1.033,0.157,-22.1161788,-10.255948199999999,2.86479,88.72827588,-6.58328742,-22.946967899999997
1.24,124,-0.23,-1.053,0.14800000000000002,-23.8923486,-9.3965112,3.2658606,88.52774058,-6.640583220000001,-23.05010034
1.25,125,-0.249,-1.062,0.119,-25.3820394,-7.8495246,3.5523396000000003,88.28136864,-6.6806902799999985,-23.13031446
1.26,126,-0.271,-1.062,0.103,-24.4080108,-7.8495246,3.2658606,88.04072628,-6.7150677599999975,-23.21052858
1.27,127,-0.28800000000000003,-1.07,0.1,-22.9756158,-7.6203414,2.1772404,87.81727266,-6.7379860800000015,-23.29074270000001
1.28,128,-0.289,-1.0759999999999998,0.077,-21.829699800000004,-6.0733548,0.4010706,87.6052782,-6.743715660000001,-23.35376808
1.29,129,-0.28300000000000003,-1.088,0.085,-17.5325148,-4.010706000000001,-1.7761698,87.46776828,-6.77236356,-23.39960472
1.3,130,-0.275,-1.104,0.102,-13.120738199999998,-1.8334656000000005,-3.151269,87.33598794000002,-6.743715660000001,-23.42252304
1.31,131,-0.272,-1.111,0.14400000000000002,-8.880849000000003,0.6875496,-4.297185,87.24431466,-6.69787902,-23.41679346
1.32,132,-0.278,-1.107,0.188,-6.4744254,2.8074942000000003,-5.5576926,87.17555970000002,-6.640583220000001,-23.38814556
1.33,133,-0.301,-1.099,0.208,-5.443101,3.4950437999999995,-7.2192707999999985,87.11253432000002,-6.5718282599999975,-23.35949766
1.34,134,-0.315,-1.113,0.222,-6.4744254,2.8074942000000003,-9.3392154,87.10107516000002,-6.52026204,-23.3480385
1.35,135,-0.32,-1.165,0.168,-8.8235532,0.8594370000000001,-11.5737516,87.00940188,-6.40567044,-23.34230892
1.36,136,-0.248,-1.324,-0.022,-14.5531332,2.3491278,-12.0894138,86.8604328,-6.285349259999999,-23.33084976
1.37,137,-0.132,-1.5219999999999998,-0.196,-19.3659804,-2.4064236,-8.193299399999999,86.66562708000002,-6.205135139999999,-23.35949766
1.3800000000000001,138,-0.023,-1.669,-0.32,-22.9756158,-9.167328,-2.6356068,86.44790304,-6.18221682,-23.45690052
1.3900000000000001,139,-0.006,-1.565,-0.322,-26.814434400000003,-18.162768600000003,0.0,86.19007194,-6.1879464,-23.64024708
1.4000000000000001,140,-0.069,-1.21,-0.13699999999999998,-28.934379,-30.3094782,-5.3285094000000015,85.93224083999998,-6.15356892,-23.94391482
1.4100000000000001,141,-0.098,-0.8909999999999999,-0.046,-17.8189938,-22.5745452,-17.761698000000006,85.77754218,-5.9874111,-24.18455718
1.42,142,-0.151,-0.782,0.043,-9.5111028,-2.2345362,-31.79916900000001,85.6858689,-5.6722842,-24.23039382
1.43,143,-0.188,-0.847,0.022,-11.1153852,14.8396122,-42.62807520000001,85.55981814,-5.2425657,-24.11580222
1.44,144,-0.257,-1.057,-0.139,-13.6364004,32.0283522,-46.352302200000004,85.38220116,-4.784199299999999,-23.835052800000003
1.45,145,-0.299,-1.236,-0.253,-19.9962342,45.4355694,-40.04976420000001,85.1415588,-4.36021038,-23.41679346
1.46,146,-0.263,-1.277,-0.28800000000000003,-25.55392680000001,47.841993,-29.1062664,84.83789106,-4.05081306,-22.96988622
1.47,147,-0.173,-1.166,-0.28300000000000003,-27.9603504,46.696077,-19.5378678,84.51703458,-3.82735944,-22.52870856
1.48,148,-0.056,-1.037,-0.265,-28.5906042,44.977203,-13.9228794,84.1961781,-3.66120162,-22.09899006
1.49,149,0.063,-0.978,-0.242,-30.4813656,44.977203,-11.8029348,83.83521456,-3.4950437999999995,-21.66927156
1.5,150,0.174,-0.972,-0.223,-35.236917,48.7587258,-12.032117999999999,83.43987354000002,-3.34034514,-21.20517558
1.51,151,0.252,-1.004,-0.217,-37.81522800000001,51.5089242,-13.521808800000002,83.0216142,-3.1627281600000003,-20.71816128
1.52,152,0.272,-1.0490000000000002,-0.213,-38.38818600000001,48.1857678,-14.7250206,82.60335486,-2.9736520200000003,-20.26552446
1.53,153,0.234,-1.0759999999999998,-0.201,-38.10170700000001,39.0184398,-14.32395,82.19082510000001,-2.79603504,-19.90456092
1.54,154,0.16899999999999998,-1.0759999999999998,-0.18,-36.5547204,28.991674800000002,-12.7769634,81.80121366,-2.61841806,-19.64100024
1.55,155,0.092,-1.07,-0.14800000000000002,-34.7785506,20.168121600000006,-11.3445684,81.43452054,-2.48663772,-19.45765368
1.56,156,0.038,-1.056,-0.12,-34.091001,15.527161800000002,-10.6570188,81.07928658,-2.36631654,-19.32587334
1.57,157,0.009000000000000001,-1.044,-0.106,-34.262888399999994,13.521808800000002,-10.7143146,80.72405262,-2.24599536,-19.21128174
1.58,158,-0.006,-1.02,-0.102,-34.262888399999994,11.745639,-11.516455800000001,80.37454824,-2.1199446,-19.11960846
1.59,159,-0.008,-0.994,-0.085,-33.6899304,8.9954406,-12.5477802,80.04223259999998,-1.98243468,-19.056583080000006
1.6,160,-0.003,-0.966,-0.059,-33.403451399999994,4.583664,-13.120738199999998,79.6984578,-1.85065434,-19.03939434
1.61,161,0.002,-0.935,-0.051,-33.9764094,-0.4010706,-13.0061466,79.354683,-1.73033316,-19.06804224
1.62,162,0.008,-0.8959999999999999,-0.059,-34.3201842,-2.8074942000000003,-12.4904844,79.01090819999997,-1.6157415599999996,-19.11960846
1.6300000000000001,163,0.009000000000000001,-0.856,-0.05,-35.6379876,-3.4377480000000005,-11.917526400000002,78.64994466,-1.50687954,-19.18263384
1.6400000000000001,164,0.006999999999999999,-0.8190000000000001,-0.037000000000000005,-37.1849742,-2.5210152000000003,-11.4018642,78.29471070000002,-1.39801752,-19.23420006
1.6500000000000001,165,-0.006,-0.785,-0.035,-38.2162986,-1.2605076000000002,-10.9434978,77.90509926,-1.30061466,-19.27430712
1.6600000000000001,166,-0.016,-0.759,-0.046,-38.5600734,1.8334656000000005,-10.4851314,77.51548782,-1.19748222,-19.280036700000004
1.6700000000000002,167,-0.018000000000000002,-0.746,-0.055,-39.4195104,6.130650599999999,-10.5424272,77.11441721999998,-1.0886202,-19.24565922
1.68,168,-0.016,-0.746,-0.07,-39.0184398,9.6256944,-10.8289062,76.71334662,-0.96829902,-19.18263384
1.69,169,-0.01,-0.7659999999999999,-0.083,-35.7525792,11.5737516,-11.9748222,76.35811265999997,-0.8307891,-19.10241972
1.7,170,0.005,-0.794,-0.08199999999999999,-33.1742682,13.464512999999998,-13.464512999999998,76.01433786,-0.67609044,-19.00501686
1.71,171,0.023,-0.8240000000000001,-0.083,-30.9970278,14.0947668,-14.5531332,75.69921095999999,-0.5099326200000001,-18.907614
1.72,172,0.034,-0.848,-0.093,-28.81978740000001,11.8602306,-14.8396122,75.4012728,-0.3437748,-18.83312946
1.73,173,0.042,-0.866,-0.106,-26.7571386,8.193299399999999,-13.6936962,75.13198254,-0.19480572,-18.78729282
1.74,174,0.034,-0.871,-0.115,-24.5798982,5.2712136,-12.261301199999998,74.90279934,-0.057295800000000015,-18.77010408
1.75,175,0.026,-0.877,-0.135,-21.6005166,5.6722842,-11.229976800000001,74.67934572,0.05156622,-18.74718576
1.76,176,0.013,-0.903,-0.151,-17.9335854,9.3965112,-11.5737516,74.49599916000003,0.18334656,-18.68988996
1.77,177,-0.006999999999999999,-0.94,-0.168,-14.32395,13.0634424,-13.349921400000001,74.34703008,0.3437748,-18.59821668
1.78,178,-0.026,-0.986,-0.17,-9.3392154,17.0168526,-15.985528200000001,74.24962722000002,0.53858052,-18.4778955
1.79,179,-0.039,-1.035,-0.173,-5.958763200000001,22.2307704,-18.621135,74.20952016,0.75630456,-18.31746726
1.8,180,-0.019,-1.075,-0.179,-4.297185,26.929026,-19.9962342,74.16368352,1.01413566,-18.11120238
1.81,181,0.039,-1.111,-0.198,-2.7501984,29.9657034,-19.6524594,74.13503562,1.27769634,-17.8762896
1.82,182,0.127,-1.139,-0.218,-0.6875496,29.1635622,-17.0168526,74.12930604,1.51260912,-17.64137682
1.83,183,0.232,-1.157,-0.229,3.380452200000001,25.210152,-12.5477802,74.16368352,1.6902260999999998,-17.435111940000002
1.84,184,0.297,-1.157,-0.22,7.6776372,18.2773602,-6.6463128000000005,74.26108638000002,1.85065434,-17.2746837
1.85,185,0.348,-1.135,-0.227,12.6623718,11.1153852,-0.1718874,74.38713714000002,1.87930224,-17.171551259999998
1.86,186,0.358,-1.102,-0.256,19.0795014,0.6875496,4.3544808,74.58194286,1.83919518,-17.14863294
1.87,187,0.335,-1.06,-0.259,31.1689152,-20.626488,7.3911582,74.89706976,1.7246035799999997,-17.326249920000002
1.8800000000000001,188,0.305,-1.032,-0.348,50.0192334,-52.998615,8.4224826,75.4012728,1.52979786,-17.81326422
1.8900000000000001,189,0.247,-1.106,-0.358,62.7961968,-74.5418358,8.3651868,76.03152659999998,1.30634424,-18.5065434
1.9000000000000001,190,0.25,-1.254,-0.231,49.1025006,-57.92605379999999,2.8074942000000003,76.52427048,1.16310474,-19.0508535
1.9100000000000001,191,0.191,-1.257,-0.49,30.252182399999995,-42.112413,-4.8701430000000006,76.82793822,1.12872726,-19.46911284
1.9200000000000002,192,0.084,-1.157,-0.547,22.173474600000002,-40.6227222,-9.3392154,77.05139184,1.14018642,-19.8816426
1.93,193,-0.08,-0.965,-0.46,12.605076,-47.0398518,-7.161975,77.17744259999998,1.12299768,-20.35146816
1.94,194,-0.052000000000000005,-0.773,-0.355,6.3598338,-53.39968560000001,-2.0053530000000004,77.20609049999999,1.03705398,-20.87858952
1.95,195,0.051,-0.633,-0.366,10.4851314,-63.1399716,6.5317212,77.31495251999998,0.8537074199999999,-21.47446584
1.96,196,0.096,-0.664,-0.328,17.131444199999994,-71.90622900000002,16.042824000000003,77.4925695,0.56149884,-22.13336754
1.97,197,0.104,-0.8190000000000001,-0.266,15.985528200000001,-75.343977,22.2307704,77.65872732,0.20626488,-22.82091714
1.98,198,0.079,-1.033,-0.235,14.9542038,-74.5418358,23.7204612,77.81915556,-0.14896908,-23.491278
1.99,199,-0.02,-1.239,-0.147,14.7250206,-69.8435802,19.595163600000006,77.99104296,-0.46982556,-24.12726138
2.0,200,-0.135,-1.279,-0.107,11.0007936,-63.311859,10.7143146,78.11709372,-0.6875496,-24.7231377
2.01,201,-0.214,-1.192,-0.112,8.8235532,-54.717489,1.7188740000000002,78.22022616,-0.79641162,-25.25025906
2.02,202,-0.228,-1.124,-0.101,9.224623800000002,-46.5814854,-2.4064236,78.32908818,-0.8537074199999999,-25.70862546
2.03,203,-0.234,-1.093,-0.1,8.9954406,-39.3622146,-2.7501984,78.43222062,-0.89381448,-26.0982369
2.04,204,-0.246,-1.0759999999999998,-0.115,8.3651868,-33.403451399999994,-0.057295800000000015,78.54108264,-0.9969469199999998,-26.42482296
2.05,205,-0.253,-1.077,-0.114,8.7662574,-28.7051958,3.724227,78.6384855,-1.07716104,-26.69411322
2.0599999999999996,206,-0.222,-1.081,-0.108,8.307891,-23.835052800000003,7.0473834,78.73015878,-1.18602306,-26.91183726
2.07,207,-0.166,-1.08,-0.131,8.021412000000002,-19.3659804,9.797581800000001,78.81610248000001,-1.31207382,-27.08372466
2.0799999999999996,208,-0.111,-1.075,-0.128,7.6203414,-14.7250206,12.261301199999998,78.90204618,-1.45531332,-27.20404584000001
2.09,209,-0.068,-1.065,-0.142,6.6463128000000005,-9.9121734,13.9228794,78.98226030000002,-1.6157415599999996,-27.2728008
2.0999999999999996,210,-0.048,-1.053,-0.166,4.6409598,-6.1879464,14.7823164,79.03382652,-1.77044022,-27.30717828
2.11,211,-0.042,-1.041,-0.195,4.010706000000001,-4.6982556,14.610429000000002,79.07393358,-1.9194093000000003,-27.32436702
2.1199999999999997,212,-0.049,-1.039,-0.188,2.6929026,-4.2398892,14.381245800000002,79.10258148,-2.06837838,-27.34155576
2.13,213,-0.057,-1.023,-0.177,0.286479,-3.6096354,14.7823164,79.10831106,-2.21734746,-27.34728534
2.1399999999999997,214,-0.066,-0.99,-0.18600000000000005,-1.2032118,-2.5210152000000003,15.813640800000002,79.08539274,-2.38923486,-27.34155576
2.15,215,-0.08800000000000001,-0.954,-0.191,-2.0626488000000003,-1.3178034,17.5325148,79.06247442,-2.5611222600000003,-27.32436702
2.1599999999999997,216,-0.118,-0.924,-0.182,-1.0313244,-2.1772404,19.7097552,79.05101526000001,-2.76165756,-27.30717828
2.17,217,-0.14300000000000002,-0.904,-0.146,2.4637194,-2.8074942000000003,20.168121600000006,79.07966316,-2.96219286,-27.29571912
2.1799999999999997,218,-0.157,-0.907,-0.125,4.6409598,-0.1718874,19.8816426,79.1254998,-3.15699858,-27.26134164
2.19,219,-0.163,-0.925,-0.149,3.7815227999999994,3.151269,19.6524594,79.15987728,-3.380452200000001,-27.19831626
2.1999999999999997,220,-0.17,-0.938,-0.16899999999999998,2.1772404,5.7868758000000025,19.4232762,79.17706602000001,-3.56379876,-27.100913400000003
2.21,221,-0.168,-0.945,-0.205,1.145916,7.448453999999999,18.8503182,79.17706602000001,-3.73568616,-26.99778096
2.2199999999999998,222,-0.159,-0.933,-0.232,2.5210152000000003,7.8495246,18.2773602,79.19425475999998,-3.90184398,-26.88318936
2.23,223,-0.152,-0.88,-0.204,4.8701430000000006,7.2765666,17.8189938,79.24009140000003,-4.06227222,-26.780056920000003
2.2399999999999998,224,-0.147,-0.782,-0.132,8.479778399999999,7.5057497999999985,15.756345000000001,79.32030552,-4.22270046,-26.67692448
2.25,225,-0.149,-0.667,-0.104,12.5477802,8.9381448,11.745639,79.4406267,-4.320103319999999,-26.56806246
2.26,226,-0.165,-0.544,-0.119,19.595163600000006,10.5424272,6.2452422,79.62970284,-4.36593996,-26.447741279999995
2.27,227,-0.203,-0.424,-0.067,27.6165756,10.9434978,-1.3178034,79.89899310000001,-4.3315624800000005,-26.34460884
2.28,228,-0.241,-0.315,0.08900000000000001,34.3201842,15.183387000000002,-9.2819196,80.23703832,-4.21697088,-26.20709892
2.29,229,-0.29100000000000004,-0.258,0.177,40.393539,26.298772200000002,-15.6417534,80.63810892000002,-4.05081306,-25.97218614
2.3,230,-0.299,-0.289,0.058,38.61736920000001,42.5134836,-20.3973048,80.99907246000002,-3.78725238,-25.5825747
2.31,231,-0.232,-0.429,-0.099,34.8931422,66.176649,-24.2361234,81.30846978000002,-3.4663959,-24.96378006
2.32,232,-0.104,-0.74,-0.141,43.1437374,80.7297822,-26.4706596,81.68662206,-3.1054323600000004,-24.2074755
2.3299999999999996,233,0.079,-1.18,-0.324,34.8358464,93.7932246,-23.8923486,81.98456021999998,-2.76165756,-23.31366102
2.34,234,0.075,-1.4280000000000002,-0.318,23.6058696,80.32871159999998,-17.6471064,82.17363636,-2.4923673,-22.54016772
2.3499999999999996,235,-0.004,-1.411,-0.4,15.126091199999998,68.58307260000001,-12.032117999999999,82.28822796,-2.29756158,-21.88126602
2.36,236,-0.005,-1.263,-0.368,5.1566220000000005,72.07811640000001,-5.3858052,82.3054167,-2.17151082,-21.18225726
2.3699999999999997,237,0.067,-1.148,-0.365,7.333862400000001,69.4998054,0.8594370000000001,82.34552376,-2.10848544,-20.49470766
2.38,238,0.163,-1.117,-0.334,14.896907999999998,66.749607,1.6042823999999998,82.46584494,-2.05118964,-19.83580596
2.3899999999999997,239,0.205,-1.111,-0.257,16.673077799999998,62.3378304,-3.0366774,82.58616612,-1.93086846,-19.222740899999998
2.4,240,0.175,-1.159,-0.28600000000000003,15.4125702,57.06661679999999,-9.1100322,82.71794646,-1.78189938,-18.67270122
2.4099999999999997,241,0.097,-1.256,-0.297,14.2093584,52.0818822,-12.261301199999998,82.84399721999998,-1.61001198,-18.16849818
2.42,242,0.025,-1.332,-0.246,13.6364004,49.04520479999999,-12.0894138,82.9643184,-1.44385416,-17.69867262
2.4299999999999997,243,-0.01,-1.385,-0.196,10.026765,49.560867,-10.5424272,83.04453251999998,-1.29488508,-17.22311748
2.44,244,-0.021,-1.402,-0.17800000000000002,5.3858052,52.0818822,-8.9954406,83.07891,-1.1573751600000002,-16.72464402
2.4499999999999997,245,-0.013,-1.395,-0.156,1.6615782,56.3790672,-7.6776372,83.07891,-1.0255948199999998,-16.17460434
2.46,246,-0.002,-1.365,-0.129,-0.9167328,60.38977320000001,-5.844171599999999,83.0502621,-0.91100322,-15.59018718
2.4699999999999998,247,0.005,-1.3130000000000002,-0.114,-3.4377480000000005,63.82752120000001,-3.4377480000000005,82.99869588,-0.8193299399999999,-14.96566296
2.48,248,0.006,-1.251,-0.098,-6.0733548,66.80690279999999,-0.5156622000000001,82.91848175999998,-0.75057498,-14.306761259999998
2.4899999999999998,249,0.005,-1.179,-0.081,-8.136003599999999,69.32791800000001,1.8907613999999997,82.82107890000002,-0.70473834,-13.624941240000002
2.5,250,0.011,-1.128,-0.073,-10.0840608,71.21867940000001,3.4950437999999995,82.70075771999998,-0.6703608600000001,-12.920202899999998
2.51,251,0.027000000000000003,-1.087,-0.079,-13.2353298,73.052145,4.1825934,82.55178864,-0.64171296,-12.19827582
2.52,252,0.04,-1.039,-0.08800000000000001,-16.673077799999998,73.3959198,4.1825934,82.3627125,-0.6073354799999999,-11.470619159999998
2.53,253,0.058,-1.006,-0.111,-20.2827132,73.625103,3.6096354,82.13925888,-0.56722842,-10.7429625
2.54,254,0.085,-0.962,-0.124,-25.6112226,74.3699484,1.8907613999999997,81.85850946000002,-0.4984734599999999,-10.01530584
2.55,255,0.098,-0.917,-0.161,-28.6479,73.45321560000002,0.2291832000000001,81.55484172,-0.41825934,-9.29337876
2.56,256,0.119,-0.877,-0.172,-30.93973200000001,71.1613836,-0.9740286,81.22252608,-0.32658606,-8.60009958
2.57,257,0.141,-0.8320000000000001,-0.17800000000000002,-29.220858000000003,66.9787902,-1.7188740000000002,80.91312875999998,-0.22345362,-7.94692746
2.5799999999999996,258,0.146,-0.7959999999999999,-0.173,-26.298772200000002,61.134618599999996,-1.6042823999999998,80.63810892000002,-0.13178034,-7.3567807200000015
2.59,259,0.141,-0.773,-0.153,-24.0069402,54.25912260000001,-1.0313244,80.38027782,-0.028647900000000007,-6.829659359999999
2.5999999999999996,260,0.134,-0.758,-0.124,-23.204799,50.133825,-0.4010706,80.13963546,0.03437748,-6.34264506
2.61,261,0.13,-0.753,-0.105,-21.5432208,48.2430636,0.0,79.91618184000002,0.10313244,-5.872819499999999
2.6199999999999997,262,0.122,-0.759,-0.101,-18.621135,47.0971476,0.286479,79.72137612,0.16615782,-5.414453099999999
2.63,263,0.101,-0.782,-0.086,-15.4125702,46.065823200000004,0.572958,79.56094787999999,0.2291832000000001,-4.96181628
2.6399999999999997,264,0.081,-0.81,-0.079,-12.261301199999998,45.4355694,0.7448454000000001,79.4406267,0.30366774,-4.5206386200000015
2.65,265,0.075,-0.847,-0.07200000000000001,-10.9434978,47.0971476,0.572958,79.32603509999998,0.36669312,-4.05654264
2.6599999999999997,266,0.085,-0.8809999999999999,-0.073,-10.1986524,50.5348956,0.3437748,79.21717308,0.44117766,-3.56379876
2.67,267,0.092,-0.914,-0.087,-9.2819196,51.7381074,0.572958,79.11977021999998,0.52139178,-3.05959572
2.6799999999999997,268,0.096,-0.938,-0.092,-6.5317212,51.0505578,1.432395,79.05101526000001,0.5844171599999999,-2.5611222600000003
2.69,269,0.11,-0.954,-0.086,-4.0680017999999984,50.706783,3.2085648,79.02236736,0.6589017,-2.05691922
2.6999999999999997,270,0.115,-0.957,-0.093,-2.6356068,48.8733174,5.5003968,78.99371946,0.68182002,-1.56990492
2.71,271,0.107,-0.946,-0.096,0.3437748,46.8106686,7.3911582,78.99944904,0.6875496,-1.10007936
2.7199999999999998,272,0.105,-0.932,-0.08199999999999999,4.5263682,48.128471999999995,9.0527364,79.04528567999998,0.67609044,-0.61306506
2.73,273,0.111,-0.909,-0.098,8.5370742,48.9306132,10.7143146,79.13122938000002,0.64744254,-0.11459160000000004
2.7399999999999998,274,0.12,-0.865,-0.092,19.6524594,40.90920120000001,12.7196676,79.33749426,0.6073354799999999,0.30366774
2.75,275,0.146,-0.826,-0.062,39.591397799999996,22.86102420000001,15.2406828,79.73856486,0.4984734599999999,0.55576926
2.76,276,0.204,-0.8190000000000001,0.043,59.58763199999999,0.4010706,17.475219,80.34590034,0.33231564,0.59587632
2.77,277,0.298,-0.8590000000000001,0.106,64.6869582,-10.1986524,18.6784308,81.00480204,0.14323950000000002,0.53285094
2.78,278,0.34,-0.956,-0.115,52.48295279999999,-7.7922288,21.6005166,81.53765297999998,-0.06875496,0.49274388
2.79,279,0.34600000000000003,-1.141,-0.362,34.2055926,-3.6669312000000014,21.8869956,81.86423904,-0.25210152,0.49274388
2.8,280,0.302,-1.232,-0.422,17.475219,-6.417129599999999,19.8243468,82.04185602,-0.4526368200000001,0.4583664000000001
2.81,281,0.182,-1.206,-0.545,2.5210152000000003,-8.250595200000001,14.2093584,82.07050392,-0.6016058999999999,0.39534102
2.82,282,0.054000000000000006,-1.0659999999999998,-0.654,-6.8182002000000015,-1.145916,8.4224826,82.00174896,-0.6875496,0.39534102
2.8299999999999996,283,-0.064,-0.941,-0.422,-6.6463128000000005,-1.8907613999999997,4.6982556,81.93872358,-0.7391158200000001,0.37815228
2.84,284,-0.136,-0.8009999999999999,-0.277,0.8021411999999999,-9.969469199999999,6.9327918,81.90434609999998,-0.8537074199999999,0.29220857999999994
2.8499999999999996,285,-0.174,-0.75,-0.226,14.4385416,-19.767051,15.985528200000001,82.05331518,-1.0313244,0.12032118
2.86,286,-0.166,-0.823,-0.267,20.511896399999998,-19.8243468,24.4080108,82.27103922,-1.29488508,-0.03437748
2.8699999999999997,287,-0.134,-0.952,-0.239,20.3973048,-11.745639,27.788463,82.48303368,-1.5756344999999998,-0.11459160000000004
2.88,288,-0.151,-1.089,-0.187,19.938938399999998,3.4950437999999995,25.496631,82.68356897999998,-1.82200644,-0.04583664
2.8899999999999997,289,-0.191,-1.197,-0.116,20.8556712,12.834259199999998,19.6524594,82.88983386,-2.02254174,0.10313244
2.9,290,-0.227,-1.24,-0.067,18.621135,23.6058696,12.605076,83.06745083999998,-2.1199446,0.34950438
2.9099999999999997,291,-0.237,-1.198,-0.061,15.2979786,37.4714532,6.9327918,83.20496076,-2.15432208,0.72765666
2.92,292,-0.249,-1.153,-0.099,14.610429000000002,50.6494872,3.6096354,83.32528194,-2.14286292,1.23758928
2.9299999999999997,293,-0.272,-1.16,-0.117,16.1001198,59.7022236,3.0939732,83.46279186000002,-2.1199446,1.82773602
2.94,294,-0.303,-1.199,-0.127,16.673077799999998,65.7755784,5.3858052,83.60030178,-2.13713334,2.48663772
2.9499999999999997,295,-0.309,-1.232,-0.08900000000000001,16.7876694,71.8489332,10.255948199999999,83.73208212,-2.1772404,3.20283522
2.96,296,-0.257,-1.229,-0.083,15.813640800000002,81.53192340000003,16.157415599999997,83.85240329999998,-2.26891368,4.02789474
2.9699999999999998,297,-0.16899999999999998,-1.197,-0.07400000000000001,14.7250206,87.77716559999998,19.308684600000007,83.94980616,-2.39496444,4.91597964
2.98,298,-0.077,-1.163,-0.075,13.0061466,92.3035338,19.938938399999998,84.03002028,-2.5210152000000003,5.849901179999999
2.9899999999999998,299,-0.009000000000000001,-1.126,-0.075,10.255948199999999,95.0537322,18.621135,84.0815865,-2.62414764,6.80674104
3.0,300,0.033,-1.081,-0.066,8.9381448,96.543423,16.673077799999998,84.11596397999998,-2.71582092,7.7750400599999985
3.01,301,0.053,-1.03,-0.077,6.6463128000000005,96.3715356,14.7823164,84.12742313999998,-2.79030546,8.74333908
3.02,302,0.049,-0.971,-0.086,3.0939732,94.9391406,14.0947668,84.09877524000002,-2.85906042,9.69444936
3.03,303,0.019,-0.9,-0.086,2.1772404,92.0170548,14.7250206,84.05866818,-2.93927454,10.61691174
3.04,304,-0.034,-0.855,-0.109,1.2605076000000002,87.1469118,16.673077799999998,84.01283154000002,-3.0366774000000003,11.49353748
3.05,305,-0.086,-0.823,-0.125,-0.057295800000000015,84.22482600000002,18.5065434,83.95553574,-3.15699858,12.347244899999998
3.06,306,-0.139,-0.8,-0.111,0.4583664000000001,82.1621772,19.9962342,83.89823994000002,-3.28877892,13.178034
3.07,307,-0.174,-0.794,-0.093,1.4896908000000002,81.53192340000003,20.9702628,83.85813288,-3.4377480000000005,14.003093519999998
3.08,308,-0.196,-0.79,-0.079,2.6356068,82.2767688,20.9702628,83.82375540000002,-3.57525792,14.8396122
3.09,309,-0.198,-0.8,-0.071,3.9534102,84.8550798,20.454600600000006,83.7951075,-3.7299565800000014,15.6990492
3.0999999999999996,310,-0.187,-0.823,-0.055,4.8701430000000006,88.2928278,19.8243468,83.77791876,-3.85027776,16.59286368
3.11,311,-0.155,-0.853,-0.017,6.3025379999999975,92.0743506,19.480572,83.76645959999998,-3.97059894,17.52105564
3.1199999999999997,312,-0.12,-0.892,-0.015,7.9641161999999985,95.970465,20.05353,83.76645959999998,-4.09092012,18.49508424
3.13,313,-0.08800000000000001,-0.916,-0.01,7.9641161999999985,98.1477054,21.3713334,83.76073002,-4.22270046,19.48630158
3.1399999999999997,314,-0.057,-0.921,0.001,8.5370742,99.5801004,22.8037284,83.76645959999998,-4.36593996,20.49470766
3.15,315,-0.025,-0.926,0.003,8.4224826,100.6687206,24.064235999999998,83.76073002,-4.5206386200000015,21.514572899999997
3.1599999999999997,316,-0.014,-0.931,0.006,7.2192707999999985,101.127087,24.8090814,83.73781170000002,-4.68679644,22.5458973
3.17,317,-0.016,-0.939,0.005,4.4690724,102.1011156,25.2674478,83.68624548,-4.85295426,23.58295128
3.1799999999999997,318,-0.033,-0.954,-0.019,1.3750992,103.991877,26.298772200000002,83.5945722,-5.02484166,24.637194
3.19,319,-0.077,-0.955,-0.025,-0.2291832000000001,105.3096804,28.074942,83.48571018,-5.2139178,25.70862546
3.1999999999999997,320,-0.128,-0.958,-0.012,-1.432395,107.9452872,29.5646328,83.35965941999999,-5.414453099999999,26.80870482000001
3.21,321,-0.16,-0.944,0.01,-2.4637194,110.3517108,29.621928600000004,83.21069034,-5.60925882,27.93743208
3.2199999999999998,322,-0.16,-0.932,0.033,1.3178034,112.586247,28.361421000000004,83.09609874,-5.7868758,29.08334808
3.23,323,-0.14,-0.925,0.035,6.589017,113.5029798,25.55392680000001,83.02734378,-5.93584488,30.234993660000004
3.2399999999999998,324,-0.128,-0.929,0.045,11.6310474,112.872726,22.459953600000002,83.02734378,-6.05616606,31.380909660000004
3.25,325,-0.12,-0.935,0.079,13.8082878,114.53430420000001,19.1367972,83.02734378,-6.13638018,32.53828482
3.26,326,-0.119,-0.933,0.076,16.1001198,117.3990942,15.870936600000002,83.0502621,-6.18221682,33.718578300000004
3.27,327,-0.135,-0.9,0.106,19.9962342,120.034701,12.1467096,83.1075579,-6.1879464,34.92751968
3.28,328,-0.173,-0.866,0.235,26.642547,128.57177520000002,8.59437,83.2221495,-6.15356892,36.2109456
3.29,329,-0.249,-0.8690000000000001,0.229,31.22621100000001,133.2700308,8.59437,83.39976648,-6.130650600000001,37.54020816
3.3,330,-0.308,-0.918,0.135,33.5753388,141.4060344,8.479778399999999,83.5659243,-6.09054354,38.95541442
3.31,331,-0.308,-0.99,0.02,30.7105488,161.23038119999995,5.72958,83.69197505999998,-6.0160589999999985,40.55969682
3.32,332,-0.242,-1.097,-0.071,31.4553942,189.8209854,1.0886202,83.78937792,-5.86708992,42.44472864
3.33,333,-0.132,-1.289,-0.122,26.0122932,204.0303438,-1.9480572,83.82375540000002,-5.683743359999999,44.46727038
3.34,334,0.006,-1.536,-0.338,11.8602306,197.1548478,1.5469866,83.72062296,-5.540503859999999,46.42678674
3.3499999999999996,335,0.16899999999999998,-1.692,-0.642,-5.1566220000000005,180.8828406,13.349921400000001,83.46852143999998,-5.52331512,48.22587486
3.36,336,0.233,-1.329,-0.501,-3.4377480000000005,159.9698736,25.6112226,83.25652698,-5.63790672,49.84161642
3.3699999999999997,337,0.303,-0.809,-0.21600000000000005,6.760904399999999,159.282324,20.8556712,83.14766496,-5.7009320999999975,51.44016924
3.38,338,0.336,-0.5710000000000001,-0.182,4.010706000000001,165.871341,7.333862400000001,83.00442546000002,-5.62071798,53.09028828
3.3899999999999997,339,0.301,-0.618,-0.302,1.3750992,164.5535376,-3.0366774,82.81534932000002,-5.40872352,54.71175942
3.4,340,0.19,-0.8190000000000001,-0.34700000000000003,3.8961144,158.995845,-5.6149884000000005,82.68929856,-5.19672906,56.27593476
3.4099999999999997,341,0.098,-1.029,-0.295,5.2139178,153.6100398,-1.4896908000000002,82.58616612,-5.02484166,57.79427346
3.42,342,0.07400000000000001,-1.175,-0.233,3.4377480000000005,149.542038,5.5003968,82.47157452,-4.9274388,59.27823468
3.4299999999999997,343,0.07,-1.211,-0.21,0.9167328,146.390769,11.8029348,82.33979418,-4.893061319999998,60.73927758000001
3.44,344,0.064,-1.129,-0.156,0.2291832000000001,144.27082439999995,15.469866,82.19655467999998,-4.88160216,62.18313174
3.4499999999999997,345,0.073,-1.037,-0.099,0.2291832000000001,145.4740362,16.386598799999998,82.05904475999998,-4.88733174,63.63844506
3.46,346,0.078,-0.982,-0.06,1.0313244,148.7971926,17.0168526,81.92153484,-4.893061319999998,65.12813586000001
3.4699999999999998,347,0.07,-0.962,-0.026,5.958763200000001,150.91713719999996,17.9908812,81.83559113999998,-4.898790900000002,66.64074498
3.48,348,0.052000000000000005,-0.984,0.005,11.917526400000002,152.2349406,19.4232762,81.80694324,-4.91597964,68.17054284
3.4899999999999998,349,0.044,-1.028,0.034,13.0634424,154.35488519999996,21.8869956,81.79548408,-4.94462754,69.72325902
3.5,350,0.056,-1.051,0.048,12.032117999999999,156.2456466,24.9809688,81.76110659999998,-5.0133825000000005,71.29889352000002
3.51,351,0.081,-1.045,0.055,12.7769634,156.64671719999996,27.444688199999998,81.72672911999999,-5.0993262,72.88025760000002
3.52,352,0.097,-1.021,0.055,14.8396122,156.2456466,29.335449600000004,81.71526996,-5.20818822,74.46735126
3.53,353,0.108,-0.988,0.054000000000000006,16.558486199999994,157.21967519999995,29.1062664,81.72099954000002,-5.311320660000002,76.0601745
3.54,354,0.109,-0.964,0.046,18.162768600000003,158.88125340000005,27.1582092,81.74391786,-5.38007562,77.66445689999998
3.55,355,0.109,-0.951,0.04,19.8816426,160.19905680000005,23.4339822,81.77256575999998,-5.42591226,79.28019846
3.56,356,0.105,-0.939,0.048,22.459953600000002,160.6001274,19.0795014,81.82413198,-5.4316418399999975,80.89021044
3.57,357,0.108,-0.926,0.064,25.0382646,160.7720148,15.2406828,81.90434609999998,-5.397264359999999,82.50022242
3.58,358,0.114,-0.91,0.075,26.0122932,160.9439022,12.9488508,81.99601937999998,-5.339968560000001,84.11023440000002
3.59,359,0.118,-0.877,0.07,25.8977016,160.5428316,11.9748222,82.09915182,-5.2712136,85.7145168
3.5999999999999996,360,0.127,-0.845,0.054000000000000006,25.496631,159.3396198,11.8602306,82.19082510000001,-5.2139178,87.30161045999998
3.61,361,0.14800000000000002,-0.807,0.042,25.7258142,160.6001274,11.3445684,82.28822796,-5.15089242,88.90589286
3.6199999999999997,362,0.177,-0.77,0.043,25.210152,161.6314518,10.1986524,82.37990124000002,-5.08213746,90.51590484
3.63,363,0.203,-0.73,0.026,25.6685184,160.714719,8.136003599999999,82.4773041,-4.99046418,92.11445766
3.6399999999999997,364,0.215,-0.6890000000000001,0.002,27.3873924,157.1623794,5.72958,82.60335486,-4.8701430000000006,93.67863300000002
3.65,365,0.208,-0.623,-0.02,31.111619399999995,149.542038,3.151269,82.77524226,-4.749821819999998,95.16259422
3.6599999999999997,366,0.21,-0.561,-0.031,40.7946096,140.37471000000002,0.6875496,83.05599168,-4.6180414800000005,96.55488216
3.67,367,0.215,-0.529,-0.022,46.5241896,129.8322828,-1.3750992,83.41122564,-4.48626114,97.83830808
3.6799999999999997,368,0.209,-0.531,-0.023,42.2270046,118.77419340000002,-2.8074942000000003,83.73208212,-4.3544808,99.01287198
3.69,369,0.221,-0.5870000000000001,-0.026,31.8564648,121.6962792,-3.5523396000000003,83.94980616,-4.19405256,100.21608378
3.6999999999999997,370,0.258,-0.696,-0.16699999999999998,17.0168526,130.9781988,-2.7501984,84.01283154000002,-4.0680017999999984,101.50523928
3.71,371,0.244,-0.82,-0.265,3.5523396000000003,132.1241148,-0.286479,83.938347,-3.9648693599999993,102.81158352
3.7199999999999998,372,0.133,-0.938,-0.315,-8.307891,127.36856340000001,2.86479,83.74927086,-3.89038482,104.07209112
3.73,373,-0.018000000000000002,-1.018,-0.273,-18.162768600000003,125.6496894,4.010706000000001,83.46279186000002,-3.83308902,105.31540998
3.7399999999999998,374,-0.16,-1.082,-0.208,-22.173474600000002,130.4052408,2.2345362,83.13047622,-3.74714532,106.60456548000002
3.75,375,-0.32,-1.114,-0.131,-20.9702628,135.3899754,-1.0886202,82.81534932000002,-3.61536498,107.93382804
3.76,376,-0.429,-1.101,-0.046,-12.891555,140.947668,-3.0939732,82.58043654000002,-3.44347758,109.3203864
3.77,377,-0.469,-1.138,0.068,-3.6669312000000014,146.4480648,-2.4064236,82.43719704,-3.27159018,110.75851098
3.78,378,-0.384,-1.212,0.257,7.2192707999999985,150.401475,1.7761698,82.40854913999998,-3.13408026,112.2424722
3.79,379,-0.155,-1.319,0.353,15.6990492,153.3235608,9.453807000000001,82.48303368,-3.0653253000000005,113.76654048
3.8,380,0.109,-1.4069999999999998,0.318,19.2513888,150.687954,20.340009,82.57470696,-3.11116194,115.27914960000001
3.81,381,0.309,-1.401,0.29600000000000004,17.3606274,143.7551622,28.4760126,82.65492108,-3.2486718599999995,116.72873334
3.82,382,0.406,-1.341,0.298,10.4278356,134.1867636,32.486718599999996,82.66065066,-3.4377480000000005,118.09237338
3.83,383,0.388,-1.249,0.236,0.8594370000000001,122.26923719999999,32.658606,82.58043654000002,-3.63255372,119.34142182
3.84,384,0.298,-1.182,0.156,-3.3231564,108.05987879999999,28.074942,82.4773041,-3.7815227999999994,120.44150118
3.8499999999999996,385,0.18,-1.163,0.128,-1.5469866,98.835255,21.199446,82.37990124000002,-3.89038482,121.4384481
3.86,386,0.064,-1.143,0.105,0.6302538000000001,90.6992514,14.495837400000001,82.31687586000002,-3.93622146,122.35518090000001
3.8699999999999997,387,-0.04,-1.1,0.099,1.3750992,83.0216142,9.740286,82.25958005999998,-3.94195104,123.18597
3.88,388,-0.086,-1.05,0.1,3.0366774,76.89096359999998,7.6203414,82.23093216,-3.93622146,123.95373372
3.8899999999999997,389,-0.098,-1.025,0.091,5.72958,72.88025760000002,8.078707799999998,82.25385048,-3.94195104,124.68139038
3.9,390,-0.105,-0.993,0.078,7.448453999999999,70.5884256,9.2819196,82.27103922,-3.95913978,125.38612872000002
3.9099999999999997,391,-0.135,-0.945,0.09,8.880849000000003,70.07276340000001,10.5424272,82.3054167,-3.98778768,126.09659664
3.92,392,-0.168,-0.898,0.108,9.1100322,72.82296179999999,11.4018642,82.33979418,-4.022165159999999,126.82998288
3.9299999999999997,393,-0.175,-0.851,0.093,6.990087599999999,77.17744259999998,11.0580894,82.34552376,-4.05081306,127.60347618
3.94,394,-0.158,-0.794,0.079,4.9847345999999995,82.5632478,9.9121734,82.34552376,-4.07373138,128.4285357
3.9499999999999997,395,-0.136,-0.741,0.079,4.4117766,88.06364459999998,8.250595200000001,82.31687586000002,-4.06227222,129.31089102
3.96,396,-0.112,-0.7020000000000001,0.08,4.010706000000001,93.1629708,6.5317212,82.2767688,-4.02789474,130.2333534
3.9699999999999998,397,-0.091,-0.6709999999999999,0.077,4.7555514,97.0590852,4.4117766,82.2481209,-3.97059894,131.19592284
3.98,398,-0.08900000000000001,-0.6509999999999999,0.077,6.0733548,100.6687206,2.0626488000000003,82.22520258,-3.88465524,132.19286975999998
3.9899999999999998,399,-0.108,-0.639,0.053,6.4744254,104.1637644,-0.9167328,82.219473,-3.77006364,133.21846458
4.0,400,-0.13,-0.622,0.026,6.5317212,109.6068654,-3.6669312000000014,82.20228426,-3.61536498,134.29562562
4.01,401,-0.149,-0.5920000000000001,0.005,8.59437,113.2737966,-5.9014674000000005,82.20801384,-3.4377480000000005,135.40143456
4.02,402,-0.14800000000000002,-0.5579999999999999,-0.008,15.0114996,114.878079,-7.5057497999999985,82.2767688,-3.2372127,136.52443223999998
4.03,403,-0.126,-0.534,0.065,26.41336380000001,115.16455800000001,-8.59437,82.47157452,-3.03094782,137.6531595
4.04,404,-0.091,-0.5329999999999999,0.195,37.757932200000006,116.023995,-9.3965112,82.80389016000002,-2.82468294,138.78761634
4.05,405,-0.045,-0.55,0.257,45.9512316,117.6855732,-10.886202,83.19923118,-2.6012293200000003,139.93926191999998
4.06,406,-0.02,-0.598,0.263,53.11320660000001,120.49306740000002,-12.834259199999998,83.66905674,-2.36631654,141.11382582000005
4.07,407,-0.033,-0.6809999999999999,0.253,62.7961968,122.040054,-15.5844576,84.24774432000002,-2.11421502,142.31130804
4.08,408,-0.057,-0.7879999999999999,0.24,70.0154676,123.8162238,-18.621135,84.89518686,-1.83919518,143.52024942
4.09,409,-0.075,-0.873,0.232,71.7343416,125.3632104,-20.2827132,85.58846604,-1.56417534,144.75210912
4.1,410,-0.081,-0.917,0.227,70.87490460000002,123.8162238,-19.938938399999998,86.2588269,-1.30634424,145.97250966
4.109999999999999,411,-0.063,-0.925,0.226,67.43715660000001,118.60230599999998,-16.959556799999998,86.90626943999996,-1.10007936,147.14134398000004
4.12,412,-0.001,-0.89,0.192,61.020027,112.4143596,-12.1467096,87.49068659999998,-0.9453806999999999,148.2528825
4.13,413,0.09,-0.863,0.115,54.54560160000001,105.4815678,-6.8182002000000015,88.01207838,-0.86516658,149.29566605999997
4.14,414,0.185,-0.882,0.052000000000000005,49.04520479999999,97.2882684,-3.0366774,88.48190394,-0.8021412000000001,150.26396508
4.1499999999999995,415,0.303,-0.966,-0.034,40.10706,93.50674559999999,-1.2605076000000002,88.8657858,-0.7906820400000001,151.19215704
4.16,416,0.412,-1.069,-0.005,27.043617600000005,79.92764100000002,-0.2291832000000001,89.11788732,-0.7906820400000001,151.98856866
4.17,417,0.44,-1.143,0.024,11.172681,67.895523,-1.6042823999999998,89.21529018,-0.7849524600000001,152.65892952
4.18,418,0.385,-1.123,-0.098,-12.7769634,74.9429064,-1.7188740000000002,89.06059152,-0.7792228800000001,153.39804534
4.1899999999999995,419,0.339,-1.105,-0.208,-27.3300966,94.1942952,4.4117766,88.74546462,-0.8078707799999998,154.3262373
4.2,420,0.264,-1.214,-0.337,-42.34159620000001,100.554129,14.32395,88.28709822,-0.95683986,155.31745464
4.21,421,0.1,-1.36,-0.458,-53.5142772,77.80769640000003,26.2414764,87.7198698,-1.22040054,156.09094794
4.22,422,-0.002,-1.38,-0.382,-49.3316838,52.425657,31.51269000000001,87.19847802,-1.52406828,156.61806930000003
4.2299999999999995,423,0.112,-1.251,-0.12,-35.9244666,51.1651494,24.8663772,86.80886658,-1.76471064,157.13373149999995
4.24,424,0.413,-1.421,-0.02,-34.7785506,70.5311298,7.2192707999999985,86.42498472,-1.8048176999999999,157.82701068
4.25,425,0.596,-1.861,-0.172,-43.9458786,54.43101,-6.589017,85.95515916000002,-1.7246035799999997,158.35986162
4.26,426,0.598,-1.91,-0.147,-44.2896534,23.376686399999997,-18.3919518,85.49679276,-1.53552744,158.57185608
4.27,427,0.399,-1.472,-0.131,-32.257535399999995,4.8128472,-21.3140376,85.16447712,-1.32353298,158.60050398
4.28,428,0.049,-1.3,0.047,-0.286479,-3.0366774,-15.0687954,85.16447712,-1.1745638999999999,158.55466733999995
4.29,429,-0.16399999999999998,-1.361,0.24,25.8977016,2.578311,-12.2040054,85.45095612,-1.0599723,158.57185608
4.3,430,-0.241,-1.463,0.342,31.627281600000003,23.0902074,-12.7769634,85.76035343999997,-0.9167328000000001,158.79530970000005
4.31,431,-0.201,-1.4509999999999998,0.35600000000000004,11.172681,50.76407879999999,-11.172681,85.86348588000001,-0.7849524600000001,159.29378316
4.32,432,-0.054000000000000006,-1.293,0.263,-12.891555,76.8336678,-6.016058999999999,85.70878722,-0.69327918,160.04435814
4.33,433,0.076,-1.178,0.157,-11.229976800000001,84.22482600000002,-2.6356068,85.57700688,-0.62452422,160.87514724
4.34,434,0.16899999999999998,-1.105,0.068,-4.5263682,82.21947300000002,0.2291832000000001,85.52544065999999,-0.56149884,161.68301802000005
4.35,435,0.244,-1.023,0.022,-1.145916,74.2553568,2.3491278,85.49679276,-0.5443101,162.42213384
4.36,436,0.3,-0.935,0.012,-0.8021411999999999,64.4004792,3.2085648,85.47387444,-0.5443101,163.05811722
4.37,437,0.334,-0.8540000000000001,0.032,-3.2658606,54.6601932,2.9793816000000004,85.4280378,-0.55003968,163.60242732
4.38,438,0.339,-0.7759999999999999,0.045,-4.5263682,45.8939358,2.6356068,85.370742,-0.55003968,164.05506413999996
4.39,439,0.315,-0.71,0.061,-2.2345362,37.2995658,2.9220857999999996,85.36501242,-0.4870143000000001,164.42175726
4.3999999999999995,440,0.262,-0.675,0.065,2.0626488000000003,26.814434400000003,4.583664,85.37647158,-0.52139178,164.69104752
4.41,441,0.2,-0.665,0.061,6.3025379999999975,18.7357266,7.6776372,85.43949696000001,-0.5844171599999999,164.88585324
4.42,442,0.141,-0.667,0.067,9.8548776,13.0634424,11.0007936,85.53689982,-0.6875496,165.02336316
4.43,443,0.094,-0.6659999999999999,0.083,12.7769634,8.7089616,13.9228794,85.66295058,-0.8193299399999999,165.12076602
4.4399999999999995,444,0.067,-0.652,0.102,16.2147114,5.7868758000000025,15.985528200000001,85.85202672,-0.96256944,165.18952098
4.45,445,0.069,-0.63,0.136,19.767051,4.4690724,16.959556799999998,86.05256202000002,-1.12872726,165.24681678
4.46,446,0.096,-0.613,0.145,21.6005166,3.2085648,17.303331600000003,86.27028606,-1.29488508,165.29265342000005
4.47,447,0.134,-0.604,0.132,22.6891368,2.5210152000000003,17.761698000000006,86.49946926,-1.46677248,165.33276048
4.4799999999999995,448,0.154,-0.612,0.123,23.777757,1.8334656000000005,18.5638392,86.74011162,-1.65011904,165.36140838
4.49,449,0.158,-0.639,0.121,24.7517856,1.6042823999999998,19.767051,87.01513145999998,-1.81054728,165.39005628
4.5,450,0.135,-0.687,0.134,25.84040580000001,1.7188740000000002,21.199446,87.27869214,-2.02254174,165.41870418
4.51,451,0.1,-0.752,0.127,24.5226024,2.1772404,23.2620948,87.52506408,-2.24599536,165.45308166
4.52,452,0.061,-0.81,0.094,22.5172494,3.151269,26.5279554,87.75424728,-2.50955604,165.4989183
4.53,453,0.03,-0.845,0.08,22.4026578,3.8388186,29.8511118,87.9777009,-2.80176462,165.55048452
4.54,454,0.019,-0.861,0.084,24.1215318,4.2398892,31.79916900000001,88.24126158,-3.1054323600000004,165.60205073999995
4.55,455,0.019,-0.862,0.077,26.929026,4.010706000000001,31.340802600000004,88.51055184,-3.4148296799999995,165.65361696
4.56,456,0.028,-0.855,0.049,30.93973200000001,4.5263682,28.7051958,88.81994916,-3.6955791,165.70518318
4.57,457,0.019,-0.851,0.005,37.1276784,5.9014674000000005,23.376686399999997,89.19237186000002,-3.9247623,165.77393813999996
4.58,458,-0.035,-0.9,-0.09,44.1750618,6.016058999999999,16.2147114,89.6392791,-4.08519054,165.8426931
4.59,459,-0.116,-0.991,-0.08900000000000001,49.04520479999999,9.568398599999998,8.4224826,90.10910466,-4.17686382,165.94009596
4.6,460,-0.198,-1.099,-0.087,44.690724,14.152062599999999,0.4010706,90.55028232,-4.1825934,166.08906503999995
4.61,461,-0.271,-1.193,-0.171,22.2307704,17.0168526,-7.448453999999999,90.76227678,-4.11383844,166.26095244
4.62,462,-0.28800000000000003,-1.169,-0.241,-13.750992000000002,16.501190400000002,-13.407217200000002,90.60757812,-3.98778768,166.42711026
4.63,463,-0.229,-0.986,-0.289,-27.6165756,12.7196676,-20.454600600000006,90.31536954,-3.79298196,166.54743144000003
4.64,464,-0.098,-0.892,-0.211,-19.0795014,10.8289062,-25.7258142,90.06326802,-3.54088044,166.65629346
4.6499999999999995,465,0.041,-0.887,-0.11,-11.3445684,17.589810600000003,-26.2414764,89.93721726,-3.28304934,166.83391044
4.66,466,0.041,-0.965,-0.18600000000000005,-11.745639,12.5477802,-19.1367972,89.8111665,-3.0997027800000003,166.95423162
4.67,467,-0.228,-1.253,-0.457,-16.329303,-14.152062599999999,-7.6203414,89.65073826,-3.01948866,166.81099212
4.68,468,-0.457,-2.01,-0.213,-20.912967,-5.6149884000000005,-16.7876694,89.44447338,-2.85333084,166.75369632
4.6899999999999995,469,-0.601,-2.628,0.208,-19.767051,40.6227222,-38.90384820000001,89.22101975999998,-2.47517856,167.14903734
4.7,470,-0.545,-1.811,0.326,-17.7044022,66.3485364,-31.4553942,89.00329572000004,-2.17151082,167.80220946
4.71,471,0.083,-1.141,0.348,12.2040054,72.479187,-14.4385416,89.08923942,-2.0340008999999997,168.51840696
4.72,472,0.387,-1.382,0.35700000000000004,48.529542600000006,53.8007562,-7.3911582,89.55906498,-1.96524594,169.05698748
4.7299999999999995,473,0.342,-1.493,0.354,16.329303,32.544014399999995,1.6042823999999998,89.70803406,-1.98816426,169.37784396
4.74,474,0.268,-1.4,0.269,-12.0894138,12.6623718,10.7716104,89.59344246,-2.07410796,169.50389472
4.75,475,0.231,-1.335,0.205,-14.4385416,-3.7815227999999994,15.6990492,89.45020296,-2.2345362,169.46378766
4.76,476,0.161,-1.3430000000000002,0.16699999999999998,-13.407217200000002,-14.152062599999999,13.8655836,89.3241522,-2.37204612,169.32054816
4.77,477,0.042,-1.3019999999999998,0.145,-14.896907999999998,-17.4179232,6.417129599999999,89.1809127,-2.4350715000000003,169.14866075999996
4.78,478,-0.063,-1.206,0.092,-15.6990492,-16.329303,-1.8907613999999997,89.03194361999998,-2.41215318,168.98250294
4.79,479,-0.108,-1.099,0.076,-11.8029348,-16.558486199999994,-5.3858052,88.9517295,-2.38350528,168.81634512
4.8,480,-0.131,-1.014,0.092,-5.72958,-20.340009,-2.5210152000000003,88.90016328,-2.35485738,168.61580981999995
4.81,481,-0.177,-0.942,0.118,-1.432395,-26.069589,3.4377480000000005,88.90016328,-2.38923486,168.35797872
4.82,482,-0.232,-0.8690000000000001,0.133,-0.572958,-30.8251404,9.9121734,88.91162244,-2.48663772,168.05431098
4.83,483,-0.273,-0.7879999999999999,0.115,-3.0939732,-30.4813656,14.4385416,88.90016328,-2.62414764,167.75637282
4.84,484,-0.303,-0.716,0.083,-7.2765666,-25.6685184,16.2147114,88.85432664,-2.84760126,167.50427130000003
4.85,485,-0.318,-0.647,0.07200000000000001,-10.886202,-16.7876694,14.4385416,88.75692378,-2.98511118,167.33811348
4.86,486,-0.308,-0.59,0.071,-12.261301199999998,-5.0993262,9.0527364,88.63087302,-3.07678446,167.28654726
4.87,487,-0.274,-0.5539999999999999,0.07,-11.1153852,7.5057497999999985,0.5156622000000001,88.51628142,-3.08824362,167.3610318
4.88,488,-0.233,-0.5329999999999999,0.068,-7.5057497999999985,19.938938399999998,-6.589017,88.42460814,-3.01948866,167.55583752
4.89,489,-0.2,-0.523,0.057,-3.724227,26.642547,-10.8289062,88.3787715,-2.93927454,167.81366862
4.8999999999999995,490,-0.179,-0.511,0.033,-1.7188740000000002,30.5386614,-12.605076,88.33866443999996,-2.81322378,168.11160678000005
4.91,491,-0.165,-0.48,-0.008,1.5469866,32.142943800000005,-12.1467096,88.33866443999996,-2.6929026,168.42673368
4.92,492,-0.159,-0.4370000000000001,0.01,10.6570188,30.7105488,-10.5424272,88.43033772,-2.58404058,168.73040142
4.93,493,-0.153,-0.415,0.129,20.168121600000006,31.971056400000002,-9.0527364,88.61368428,-2.4923673,169.05125790000002
4.9399999999999995,494,-0.117,-0.41,0.197,25.4393352,38.4454818,-8.651665800000002,88.87724496000001,-2.41788276,169.42941018000005
4.95,495,-0.081,-0.421,0.184,32.6013102,46.8106686,-9.568398599999998,89.1809127,-2.32620948,169.89350616000004
4.96,496,-0.073,-0.482,0.145,42.4561878,51.1651494,-11.0580894,89.5819833,-2.21734746,170.40343878
4.97,497,-0.079,-0.578,0.13,47.6128098,52.2537696,-11.9748222,90.04034970000002,-2.10848544,170.92483056
4.9799999999999995,498,-0.08800000000000001,-0.675,0.119,47.555514,52.597544400000004,-11.9748222,90.4987161,-2.005353,171.45195192
4.99,499,-0.095,-0.7340000000000001,0.114,44.8626114,50.3057124,-10.599723,90.93989376,-1.92513888,171.95615496
5.0,500,-0.086,-0.741,0.103,41.7113424,48.3576552,-8.307891,91.34096436,-1.8621135,172.44316926000005
5.01,501,-0.021,-0.701,0.026,35.9817624,54.8320806,-5.3858052,91.67900958,-1.8334656000000005,172.98747936
5.02,502,0.108,-0.6990000000000001,-0.08800000000000001,30.194886600000004,66.2912406,-1.0886202,91.959759,-1.85638392,173.64638106
5.03,503,0.207,-0.8190000000000001,-0.182,20.3973048,66.9214944,7.6203414,92.1316464,-1.9767051,174.31101234
5.04,504,0.16399999999999998,-1.065,-0.305,2.8074942000000003,26.929026,24.8090814,92.08008018,-2.2058883,174.56311386
5.05,505,0.147,-1.214,-0.218,-1.4896908000000002,6.5317212,36.4974246,92.06289144000002,-2.57258142,174.61468008
5.06,506,0.217,-1.334,-0.035,0.057295800000000015,14.495837400000001,37.52874900000001,92.05716186,-2.9564632800000004,174.74646042
5.07,507,0.266,-1.4980000000000002,-0.107,-11.45916,26.4706596,32.31483119999999,91.92538152,-3.2945085,174.99283236000005
5.08,508,0.235,-1.731,-0.188,-16.042824000000003,26.1268848,23.4339822,91.74203496,-3.54088044,175.2392043
5.09,509,0.218,-1.89,-0.051,-9.8548776,6.4744254,13.8655836,91.63890252,-3.67839036,175.30222968
5.1,510,0.214,-1.7519999999999998,0.08199999999999999,-7.0473834,-5.3858052,5.5003968,91.57014756,-3.7299565800000014,175.24493388
5.11,511,0.173,-1.8,0.016,-9.797581800000001,5.1566220000000005,2.7501984,91.46701512,-3.76433406,175.2965001
5.12,512,0.17,-2.296,-0.104,-18.048177,18.2200644,8.7089616,91.2722094,-3.86173692,175.4683875
5.13,513,0.13699999999999998,-2.404,-0.029,-32.085648000000006,3.5523396000000003,17.131444199999994,90.93989376,-4.03362432,175.49703540000004
5.14,514,-0.032,-1.732,-0.018000000000000002,-36.2109456,-12.261301199999998,18.6784308,90.5846598,-4.21697088,175.37098464000005
5.1499999999999995,515,-0.285,-1.307,0.102,-2.1199446,-15.870936600000002,12.4904844,90.57320064,-4.33729206,175.2105564
5.16,516,-0.407,-1.259,0.325,19.2513888,-5.443101,2.7501984,90.77373594,-4.36021038,175.15899018
5.17,517,-0.366,-1.286,0.343,10.8289062,12.5477802,-8.193299399999999,90.8711388,-4.28572584,175.28504094
5.18,518,-0.233,-1.3430000000000002,0.248,-1.2032118,25.78311,-15.527161800000002,90.83676132,-4.14248634,175.54287204000005
5.1899999999999995,519,-0.13,-1.386,0.199,-5.443101,30.252182399999995,-15.985528200000001,90.76800636,-3.99351726,175.84653978
5.2,520,-0.052000000000000005,-1.36,0.17,-4.0680017999999984,30.5959572,-10.3705398,90.69925140000001,-3.90184398,176.15020752
5.21,521,0.006,-1.26,0.153,-3.8961144,29.1635622,-4.1252976000000015,90.63622602,-3.873196080000002,176.43668652000005
5.22,522,0.054000000000000006,-1.128,0.15,-5.844171599999999,26.69984280000001,-1.0313244,90.5560119,-3.873196080000002,176.70024719999995
5.2299999999999995,523,0.091,-1.025,0.134,-10.9434978,23.4339822,-0.286479,90.42423156,-3.87892566,176.93515998
5.24,524,0.128,-0.946,0.107,-17.18874,19.7097552,-1.145916,90.26380332,-3.80444112,177.12423612
5.25,525,0.157,-0.872,0.099,-20.626488,14.7823164,-3.8388186,90.04034970000002,-3.77006364,177.26747562
5.26,526,0.194,-0.787,0.098,-20.1108258,8.7662574,-8.5370742,89.82835524000002,-3.68984952,177.35341932
5.27,527,0.221,-0.7090000000000001,0.079,-14.7823164,2.1772404,-14.4385416,89.67938615999998,-3.54661002,177.37060806
5.28,528,0.223,-0.647,0.067,-8.9381448,-3.8388186,-20.168121600000006,89.58771288,-3.34607472,177.330501
5.29,529,0.2,-0.614,0.085,-5.2139178,-7.6203414,-23.6058696,89.55906498,-3.07105488,177.25028688
5.3,530,0.159,-0.583,0.103,-2.86479,-10.1413566,-24.9809688,89.53614666000001,-2.81895336,177.14715443999995
5.31,531,0.11,-0.55,0.111,0.3437748,-11.745639,-24.0069402,89.54187624,-2.5783110000000002,177.03256284
5.32,532,0.063,-0.531,0.135,5.042030400000002,-13.0634424,-20.7410796,89.60490161999998,-2.36631654,176.9007825
5.33,533,0.023,-0.521,0.163,9.1100322,-14.5531332,-15.527161800000002,89.70230448,-2.21161788,176.757543
5.34,534,-0.003,-0.519,0.165,13.0061466,-15.2979786,-9.5111028,89.8684623,-2.10848544,176.60857392
5.35,535,-0.01,-0.53,0.14400000000000002,16.615782,-14.381245800000002,-2.9220857999999996,90.04034970000002,-2.07410796,176.46533442
5.36,536,-0.009000000000000001,-0.546,0.115,19.6524594,-12.2040054,2.7501984,90.24661458,-2.09702628,176.35074282
5.37,537,-0.003,-0.5770000000000001,0.096,22.1161788,-9.797581800000001,6.990087599999999,90.47579778,-2.16005166,176.25333996
5.38,538,0.001,-0.612,0.092,24.0069402,-7.7922288,9.453807000000001,90.7278993,-2.25172494,176.17885542
5.39,539,-0.005,-0.631,0.105,25.6112226,-5.958763200000001,10.1986524,91.00291914,-2.34339822,176.11583004
5.3999999999999995,540,-0.035,-0.625,0.14800000000000002,30.7105488,-3.4377480000000005,8.9381448,91.31804604,-2.42934192,176.08718214
5.41,541,-0.077,-0.624,0.243,40.164355799999996,-0.11459160000000004,6.760904399999999,91.72484622,-2.4923673,176.08718214
5.42,542,-0.113,-0.669,0.29100000000000004,44.0031744,5.2139178,6.0733548,92.17175346,-2.55539268,176.13874836
5.43,543,-0.106,-0.722,0.251,40.680018,16.8449652,7.906820400000001,92.57282406,-2.6413363800000003,176.31063576
5.4399999999999995,544,-0.041,-0.774,0.145,37.24227,28.762491600000004,12.261301199999998,92.94524676,-2.7788463,176.59138518
5.45,545,0.033,-0.821,0.07200000000000001,38.61736920000001,30.4240698,17.5325148,93.31766946,-2.9736520200000003,176.88359376
5.46,546,0.091,-0.873,0.07400000000000001,38.0444112,26.814434400000003,21.6578124,93.68436258,-3.2085648000000004,177.14142486
5.47,547,0.119,-0.922,0.07200000000000001,33.0596766,23.5485738,23.491278,94.00521906,-3.46066632,177.36487848
5.4799999999999995,548,0.052000000000000005,-0.982,-0.014,21.9442914,15.183387000000002,23.6058696,94.21721352,-3.70703826,177.49665882
5.49,549,-0.07200000000000001,-1.04,-0.184,13.349921400000001,8.250595200000001,20.6837838,94.251591,-3.94195104,177.57114336
5.5,550,-0.27,-1.132,-0.155,8.479778399999999,5.6722842,9.740286,94.3375347,-4.04508348,177.61697999999996
5.51,551,-0.425,-1.2,-0.226,-4.9274388,9.1100322,-9.5111028,94.2802389,-3.95913978,177.71438286
5.52,552,-0.528,-1.166,-0.265,-12.032117999999999,19.2513888,-29.4500412,94.13699940000001,-3.68411994,177.92637731999997
5.53,553,-0.51,-1.053,-0.157,-6.417129599999999,32.8877892,-46.982556,94.04532612,-3.25440144,178.28734086
5.54,554,-0.3670000000000001,-0.973,-0.043,-0.11459160000000004,51.5089242,-57.06661679999999,93.9937599,-2.76738714,178.83165096
5.55,555,-0.168,-0.93,0.046,1.7188740000000002,70.473834,-54.7747848,93.97084158,-2.2918320000000003,179.57076678
5.56,556,0.011,-0.918,0.138,5.1566220000000005,76.77637200000002,-39.1330314,93.98230074,-1.9767051,-179.63952174000005
5.57,557,0.121,-1.001,0.139,9.3965112,65.89017,-15.2406828,94.04532612,-1.8907613999999997,-178.98062004000005
5.58,558,-0.025,-1.321,-0.209,1.0313244,29.4500412,11.1153852,94.04532612,-2.02827132,-178.69987062
5.59,559,-0.18,-1.898,-0.044,5.2139178,15.0114996,18.6784308,94.09116276,-2.22880662,-178.56236069999997
5.6,560,-0.29600000000000004,-2.701,0.539,-14.5531332,53.34238979999999,-9.5111028,93.91927536,-2.18869956,-178.03523934
5.61,561,-0.586,-2.048,0.278,-36.8411994,67.66633979999999,-20.340009,93.5067456,-2.05118964,-177.35914889999995
5.62,562,-0.224,-1.1740000000000002,0.049,2.5210152000000003,86.8604328,-18.3919518,93.48955686,-1.94232762,-176.48825274
5.63,563,0.136,-1.196,0.25,47.2117392,77.80769640000003,-18.162768600000003,93.9364641,-1.82773602,-175.70330028
5.64,564,0.224,-1.182,0.433,37.3568616,46.5241896,-10.6570188,94.33180511999998,-1.73606274,-175.2392043
5.6499999999999995,565,0.222,-1.129,0.416,16.1001198,16.2147114,2.0053530000000004,94.48650378,-1.77044022,-175.07877606
5.66,566,0.171,-1.146,0.362,5.844171599999999,-0.11459160000000004,11.3445684,94.54952916,-1.88503182,-175.08450564
5.67,567,0.068,-1.19,0.309,0.2291832000000001,0.0,10.3705398,94.54952916,-1.98816426,-175.09596480000005
5.68,568,-0.108,-1.208,0.223,-2.4637194,11.8602306,2.2345362,94.52088126,-2.02254174,-174.98137319999995
5.6899999999999995,569,-0.29,-1.148,0.16699999999999998,-0.9740286,27.444688199999998,-4.9274388,94.50369252,-2.06837838,-174.70635336
5.7,570,-0.384,-1.054,0.166,2.9220857999999996,40.90920120000001,-7.7922288,94.51515168,-2.0340008999999997,-174.29955318
5.71,571,-0.393,-0.972,0.179,5.1566220000000005,51.2224452,-7.2192707999999985,94.54379958,-2.01681216,-173.78389098
5.72,572,-0.381,-0.92,0.199,5.042030400000002,59.4730404,-5.042030400000002,94.5667179,-2.02827132,-173.19947382
5.7299999999999995,573,-0.368,-0.8909999999999999,0.219,1.7761698,69.38521379999999,-2.9220857999999996,94.54952916,-2.07410796,-172.51192422000003
5.74,574,-0.364,-0.873,0.215,-4.1825934,81.3027402,-2.4064236,94.48650378,-2.18869956,-171.70978302
5.75,575,-0.362,-0.8440000000000001,0.192,-12.7196676,98.7206634,-4.4117766,94.3088868,-2.24599536,-170.73575441999995
5.76,576,-0.35200000000000004,-0.812,0.174,-16.157415599999997,112.0705848,-8.59437,94.08543318,-2.2746432600000004,-169.62994548
5.77,577,-0.315,-0.7909999999999999,0.181,-14.7823164,123.758928,-13.8655836,93.86770914,-2.25745452,-168.40381536
5.78,578,-0.247,-0.794,0.184,-10.5424272,135.218088,-19.1367972,93.69009216,-2.19442914,-167.05736406
5.79,579,-0.17600000000000002,-0.807,0.16399999999999998,-6.2452422,143.4686832,-22.5745452,93.56404139999998,-2.10848544,-165.63069864000005
5.8,580,-0.12,-0.8079999999999999,0.145,-2.7501984,145.53133200000005,-24.064235999999998,93.46090896,-1.99962342,-164.1811149
5.81,581,-0.091,-0.8009999999999999,0.114,-0.286479,142.89572520000004,-24.064235999999998,93.392154,-1.88503182,-162.76017905999996
5.82,582,-0.086,-0.767,0.06,1.3750992,137.45262419999997,-23.2620948,93.34058778,-1.77044022,-161.39080944
5.83,583,-0.115,-0.728,0.028,4.010706000000001,129.20202899999998,-23.204799,93.32912862,-1.65011904,-160.10165394
5.84,584,-0.171,-0.6920000000000001,0.018000000000000002,5.5003968,124.331886,-24.7517856,93.32912862,-1.52979786,-158.86406466
5.85,585,-0.217,-0.6559999999999999,0.044,6.1879464,120.1492926,-27.3300966,93.34631736,-1.3579104599999998,-157.66085286
5.86,586,-0.241,-0.626,0.152,5.9014674000000005,119.6336304,-30.93973200000001,93.3635061,-1.15164558,-156.46337064
5.87,587,-0.234,-0.607,0.217,4.1825934,123.758928,-34.37748,93.3635061,-0.9167328000000001,-155.22005178
5.88,588,-0.188,-0.607,0.189,1.7761698,131.60845260000002,-35.6379876,93.34631736,-0.67609044,-153.90224838
5.89,589,-0.13,-0.624,0.14400000000000002,2.6356068,138.8850192,-32.7159018,93.34631736,-0.48128472,-152.51569002
5.8999999999999995,590,-0.06,-0.6609999999999999,0.075,4.5263682,142.7238378,-27.5592798,93.3635061,-0.32658606,-151.09475418
5.91,591,0.0,-0.688,0.037000000000000005,8.880849000000003,143.6978664,-18.8503182,93.42653148,-0.26356068,-149.66235918
5.92,592,0.032,-0.7170000000000001,0.061,7.6776372,137.7391032,-10.7143146,93.4780977,-0.27501984,-148.29871914
5.93,593,0.091,-0.7170000000000001,0.038,-4.1252976000000015,139.2860898,-3.3231564,93.40934274,-0.36669312,-146.92934952
5.9399999999999995,594,0.263,-0.7170000000000001,0.063,-15.6417534,150.91713719999996,3.8961144,93.2202666,-0.4984734599999999,-145.44538830000005
5.95,595,0.457,-0.772,-0.078,-28.991674800000002,153.09437759999997,13.2926256,92.88795096,-0.75630456,-143.94996792
5.96,596,0.477,-0.937,-0.219,-52.3110654,107.716104,25.55392680000001,92.32645212,-1.09434978,-142.90718436
5.97,597,0.526,-1.039,-0.28300000000000003,-67.609044,78.20876700000002,35.695283399999994,91.61025462,-1.50114996,-142.15660938000005
5.9799999999999995,598,0.7140000000000001,-1.217,-0.065,-49.7900502,74.88561059999998,40.8519054,91.07740368,-1.9480572000000005,-141.43468230000005
5.99,599,0.675,-1.536,-0.13699999999999998,-59.8168152,54.029939399999996,50.82137460000001,90.43569072,-2.46944898,-140.91329052
6.0,600,0.46,-1.694,-0.322,-69.32791800000001,16.386598799999998,61.1919144,89.72522280000004,-3.08824362,-140.75859186
6.01,601,0.185,-1.575,-0.28300000000000003,-43.6021038,-1.7761698,58.9573782,89.28404514,-3.67266078,-140.78151018
6.02,602,0.155,-1.555,0.023,-33.002380800000005,35.695283399999994,44.404245,88.9230816,-4.1252976000000015,-140.42627622
6.03,603,0.511,-2.2230000000000003,-0.233,-56.72284200000001,83.36538900000002,35.695283399999994,88.27563906,-4.48626114,-139.59548712
6.04,604,0.677,-2.46,-0.274,-67.49445240000001,20.3973048,25.0955604,87.57090072000004,-4.73263308,-139.39495182000002
6.05,605,0.268,-1.3769999999999998,-0.16,-20.511896399999998,-27.788463,-5.3858052,87.38755416000002,-4.68679644,-139.67570124
6.06,606,-0.241,-1.195,0.322,32.2002396,-16.7876694,-18.8503182,87.73132896,-4.4977203,-139.84185906
6.07,607,-0.506,-1.496,0.467,26.356068,10.7143146,-15.126091199999998,87.98916005999996,-4.34302164,-139.73872662
6.08,608,-0.569,-1.643,0.339,21.4286292,49.2170922,-11.516455800000001,88.16104745999998,-4.22843004,-139.25171232
6.09,609,-0.466,-1.6840000000000002,0.24,12.2040054,81.1308528,-9.8548776,88.22407283999998,-4.131027179999999,-138.44957112000003
6.1,610,-0.233,-1.527,0.192,3.8388186,98.2050012,-8.307891,88.17823620000001,-4.04508348,-137.48127209999998
6.11,611,-0.043,-1.4369999999999998,0.16,3.7815227999999994,108.1171746,-3.8388186,88.12666998,-3.99924684,-136.40984064
6.12,612,0.065,-1.3769999999999998,0.14,-0.057295800000000015,116.99802359999998,0.572958,88.02926712000001,-3.99924684,-135.2467359
6.13,613,0.159,-1.3230000000000002,0.13,-3.380452200000001,121.3525044,3.3231564,87.89748678,-4.022165159999999,-134.04352409999998
6.14,614,0.229,-1.275,0.073,-4.4690724,119.4044472,5.1566220000000005,87.75424728,-4.0393539,-132.86323062
6.15,615,0.215,-1.159,0.017,-3.2085648,114.5916,5.3285094000000015,87.62819652,-4.0794609600000005,-131.72304419999998
6.16,616,0.163,-1.041,0.009000000000000001,0.11459160000000004,108.8047242,3.8388186,87.53652324,-4.102379279999999,-130.64588315999998
6.17,617,0.117,-0.971,0.039,4.4117766,101.2416786,1.7188740000000002,87.49641618000004,-4.102379279999999,-129.63747708
6.18,618,0.077,-0.956,0.06,7.6203414,95.111028,0.0,87.49068659999998,-4.09092012,-128.69782596
6.1899999999999995,619,0.039,-0.961,0.047,9.453807000000001,93.9078162,-0.9167328,87.5193345,-4.05081306,-127.76390442
6.2,620,0.006,-0.971,0.022,10.6570188,96.8871978,-1.2032118,87.54798240000002,-4.022165159999999,-126.80706456
6.21,621,-0.016,-0.962,0.028,10.6570188,101.9292282,-1.2605076000000002,87.57090072000004,-3.99351726,-125.7929289
6.22,622,-0.025,-0.928,0.053,8.8235532,106.3983006,-1.8907613999999997,87.57090072000004,-3.95913978,-124.73868618000002
6.2299999999999995,623,-0.012,-0.872,0.053,4.4117766,114.018642,-3.151269,87.52506408,-3.90757356,-123.60995892
6.24,624,0.021,-0.825,0.026,3.3231564,120.2638842,-4.2398892,87.46776828,-3.83308902,-122.41820628
6.25,625,0.064,-0.7929999999999999,0.006,5.5576926,124.7329566,-5.3285094000000015,87.42766122,-3.75860448,-121.18634658
6.26,626,0.1,-0.773,-0.004,8.7662574,126.910197,-6.4744254,87.41620206,-3.67266078,-119.93156856
6.27,627,0.127,-0.757,0.0,12.9488508,127.5404508,-7.7349330000000025,87.45057954,-3.57525792,-118.67106096
6.28,628,0.141,-0.742,0.006999999999999999,16.501190400000002,127.48315500000001,-8.9381448,87.52506408,-3.4663959,-117.41055336
6.29,629,0.151,-0.742,0.001,18.3919518,126.96749280000002,-9.797581800000001,87.61673736,-3.3231564,-116.15577534
6.3,630,0.15,-0.754,-0.045,18.2773602,125.191323,-10.1413566,87.71414021999998,-3.2085648000000004,-114.91818606
6.31,631,0.14300000000000002,-0.77,-0.028,23.4339822,122.1546456,-10.5424272,87.87456846,-3.08824362,-113.70924468
6.32,632,0.134,-0.81,-0.002,31.79916900000001,119.8628136,-11.917526400000002,88.11521081999999,-2.9564632800000004,-112.52322162
6.33,633,0.113,-0.879,-0.006999999999999999,36.5547204,118.77419340000002,-13.349921400000001,88.41314897999996,-2.81895336,-111.34292814
6.34,634,0.066,-0.951,-0.103,33.4607472,116.883432,-14.2093584,88.6652505,-2.6699842800000004,-110.18555298
6.35,635,-0.028,-1.021,-0.258,26.642547,117.169911,-15.3552744,88.8657858,-2.5210152000000003,-109.02817782
6.36,636,-0.14300000000000002,-1.117,-0.17800000000000002,25.55392680000001,125.1340272,-19.938938399999998,89.05486194,-2.33193906,-107.79058854
6.37,637,-0.252,-1.249,0.042,25.210152,136.4785956,-30.7105488,89.24393807999998,-2.03973048,-106.43840766
6.38,638,-0.285,-1.192,0.14800000000000002,19.2513888,151.1463204,-41.8832298,89.36998884,-1.64438946,-104.94871686
6.39,639,-0.156,-0.97,0.128,14.152062599999999,160.714719,-44.2323576,89.45593253999998,-1.23758928,-103.36162319999998
6.4,640,-0.002,-0.82,0.07200000000000001,14.2093584,153.4954482,-38.5600734,89.55333540000002,-0.8823553199999999,-101.8432845
6.41,641,0.07200000000000001,-0.764,0.019,17.303331600000003,137.3380326,-27.1582092,89.69084532,-0.64171296,-100.48537404
6.42,642,0.078,-0.785,-0.029,19.194093,120.4357716,-12.5477802,89.85700313999996,-0.5443101,-99.2936214
6.43,643,0.091,-0.875,0.019,20.168121600000006,108.05987879999999,-0.4583664000000001,90.04034970000002,-0.56722842,-98.22218994
6.4399999999999995,644,0.123,-1.004,0.128,20.2827132,103.418919,3.7815227999999994,90.23515542,-0.61879464,-97.19659512
6.45,645,0.123,-1.136,0.18600000000000005,19.4232762,104.2210602,0.057295800000000015,90.40704282,-0.64744254,-96.16527072
6.46,646,0.043,-1.223,0.161,19.9962342,105.8253426,-9.6256944,90.5846598,-0.59014674,-95.11675757999998
6.47,647,-0.045,-1.19,0.136,19.480572,106.7420754,-20.05353,90.7565472,-0.4297185000000001,-94.05678528
6.4799999999999995,648,-0.096,-1.135,0.15,18.907614000000002,107.7733998,-23.835052800000003,90.92843459999999,-0.24064236,-92.98535382
6.49,649,-0.136,-1.109,0.182,17.7044022,109.77875279999999,-22.91832,91.10605158,-0.06875496,-91.89673362
6.5,650,-0.172,-1.111,0.219,17.0741484,113.1019092,-18.5065434,91.26075024,0.057295800000000015,-90.77373594
6.51,651,-0.197,-1.126,0.243,16.501190400000002,116.5396572,-11.688343199999998,91.4154489,0.11459160000000004,-89.61636078000002
6.52,652,-0.206,-1.132,0.235,14.667724800000002,119.06067240000002,-4.8701430000000006,91.55295882,0.09740286,-88.44179688
6.53,653,-0.204,-1.121,0.213,13.349921400000001,121.180617,-0.4583664000000001,91.67328,0.04010706,-87.23858508000002
6.54,654,-0.185,-1.088,0.198,13.120738199999998,123.2432658,1.145916,91.80506034,-0.05156622,-86.02391412
6.55,655,-0.158,-1.051,0.191,13.464512999999998,125.87887260000001,0.8021411999999999,91.91965194,-0.13750992,-84.78059526000001
6.56,656,-0.121,-1.02,0.184,14.037471,128.05611299999998,-0.3437748,92.03997312,-0.21199446,-83.51435808
6.57,657,-0.077,-0.999,0.171,14.7250206,130.061466,-1.8334656000000005,92.17175346,-0.27501984,-82.23093216
6.58,658,-0.036000000000000004,-0.989,0.159,14.667724800000002,131.60845260000002,-3.3231564,92.29207464,-0.32658606,-80.9303175
6.59,659,-0.006999999999999999,-0.981,0.147,13.980175199999998,132.75436860000002,-4.7555514,92.4181254,-0.36669312,-79.61824368
6.6,660,0.0,-0.972,0.139,12.6623718,133.5565098,-5.958763200000001,92.52125784,-0.4010706000000001,-78.29471070000002
6.61,661,-0.016,-0.96,0.142,11.2872726,133.9575804,-6.703608600000001,92.60720154,-0.42398892,-76.97117771999999
6.62,662,-0.05,-0.948,0.14400000000000002,9.3965112,134.53053839999998,-7.0473834,92.6759565,-0.4526368200000001,-75.63618558
6.63,663,-0.078,-0.934,0.141,6.9327918,135.6191586,-7.1046792000000005,92.71606355999998,-0.48128472,-74.29546386000001
6.64,664,-0.097,-0.919,0.131,5.7868758000000025,136.1921166,-7.1046792000000005,92.75044104,-0.52139178,-72.94901256
6.65,665,-0.103,-0.908,0.121,6.130650599999999,135.73375019999997,-6.760904399999999,92.78481852,-0.55576926,-71.60829084
6.66,666,-0.096,-0.902,0.118,6.990087599999999,135.27538380000001,-6.4744254,92.82492558,-0.59587632,-70.27329870000001
6.67,667,-0.077,-0.903,0.114,8.078707799999998,134.12946780000001,-6.5317212,92.87076222,-0.6302538000000001,-68.94403614
6.68,668,-0.051,-0.916,0.11,8.7662574,132.8689602,-6.875496000000001,92.92805802,-0.66463128,-67.63196232
6.6899999999999995,669,-0.019,-0.93,0.099,8.59437,132.06681899999998,-7.448453999999999,92.98535382,-0.69327918,-66.32561808
6.7,670,0.016,-0.955,0.08900000000000001,8.307891,129.8895786,-8.250595200000001,93.03692004,-0.7161975,-65.03646258
6.71,671,0.041,-0.981,0.083,7.2765666,126.337239,-9.224623800000002,93.0770271,-0.72192708,-63.78741414
6.72,672,0.064,-1.011,0.061,4.583664,124.5037734,-10.599723,93.09421584,-0.7161975,-62.54982486
6.7299999999999995,673,0.1,-1.055,0.021,-0.1718874,126.6810138,-11.5737516,93.05983836,-0.70473834,-61.29504684
6.74,674,0.136,-1.121,0.003,-4.7555514,124.8475482,-11.172681,92.97389466,-0.68182002,-60.06318714
6.75,675,0.13,-1.149,0.061,-7.0473834,110.12252759999998,-9.797581800000001,92.87076222,-0.6703608600000001,-58.96883736
6.76,676,0.102,-1.0590000000000002,0.12,-6.875496000000001,99.2936214,-9.2819196,92.77908894,-0.65317212,-57.98907918
6.77,677,0.078,-0.946,0.14300000000000002,-4.8128472,102.0438198,-9.568398599999998,92.7046044,-0.63598338,-56.980673100000004
6.78,678,0.047,-0.928,0.12,-2.0053530000000004,110.52359820000001,-8.8235532,92.65303818,-0.62452422,-55.88632332
6.79,679,0.006,-1.017,0.131,2.2345362,114.0759378,-6.0733548,92.65876776,-0.64744254,-54.75759606
6.8,680,-0.017,-1.121,0.16,2.7501984,109.6641612,-2.578311,92.65876776,-0.70473834,-53.67470544
6.81,681,-0.006999999999999999,-1.162,0.162,0.8594370000000001,106.2264132,0.7448454000000001,92.64157902,-0.7906820400000001,-52.62619229999999
6.82,682,0.006999999999999999,-1.153,0.152,-1.0886202,104.851314,2.9793816000000004,92.60147196,-0.89381448,-51.59486790000001
6.83,683,0.015,-1.112,0.133,-5.042030400000002,104.1064686,3.6096354,92.52125784,-1.0026765,-50.56927308
6.84,684,0.026,-1.061,0.109,-7.906820400000001,104.278356,3.5523396000000003,92.41239582,-1.10580894,-49.54367826
6.85,685,0.057,-1.023,0.1,-9.3965112,104.7367224,3.4377480000000005,92.28061548,-1.21467096,-48.51235386000001
6.86,686,0.103,-1.005,0.092,-10.599723,102.559482,4.2398892,92.13737598,-1.32353298,-47.50394778
6.87,687,0.131,-0.999,0.079,-10.4851314,97.116381,5.5003968,91.99413648,-1.43812458,-46.54710792
6.88,688,0.142,-0.985,0.079,-8.8235532,91.8451674,4.9847345999999995,91.86808572,-1.5469866,-45.64183428
6.89,689,0.136,-0.966,0.086,-7.2765666,87.7198698,2.2345362,91.76495328,-1.59282324,-44.776667700000004
6.9,690,0.115,-0.951,0.075,-5.958763200000001,85.54262940000002,-1.4896908000000002,91.66755042,-1.6272007199999998,-43.93441944
6.91,691,0.08800000000000001,-0.958,0.06,-4.4690724,83.4799806,-4.4690724,91.5873363,-1.6329303,-43.10935992
6.92,692,0.071,-0.979,0.055,-3.724227,80.61519059999998,-5.72958,91.51285176,-1.6157415599999996,-42.3129483
6.93,693,0.062,-0.999,0.062,-3.2085648,77.46392159999998,-5.6149884000000005,91.44982638,-1.6042824000000002,-41.54518458
6.9399999999999995,694,0.063,-1.001,0.07400000000000001,-2.2345362,74.59913159999998,-4.297185,91.40398974,-1.5756344999999998,-40.80606876
6.95,695,0.077,-0.987,0.085,-0.7448454000000001,72.07811640000001,-2.6929026,91.36388268,-1.5870936600000003,-40.09560084
6.96,696,0.096,-0.971,0.084,0.286479,70.5884256,-1.6042823999999998,91.34096436,-1.61001198,-39.39659208
6.97,697,0.11,-0.961,0.076,1.2605076000000002,68.58307260000001,-0.6302538000000001,91.32377562,-1.6329303,-38.72050164
6.9799999999999995,698,0.112,-0.954,0.064,2.4064236,65.54639519999999,0.2291832000000001,91.32377562,-1.67303736,-38.0730591
6.99,699,0.101,-0.946,0.058,4.297185,62.3951262,0.8021411999999999,91.34096436,-1.6787669399999998,-37.45426446000001
7.0,700,0.08,-0.939,0.069,6.9327918,60.16059,0.6875496,91.386801,-1.7188740000000002,-36.85838814
7.01,701,0.054000000000000006,-0.936,0.097,9.167328,58.613603399999995,0.11459160000000004,91.45555596,-1.7475218999999995,-36.27970056
7.02,702,0.029,-0.929,0.116,11.0580894,58.613603399999995,-0.7448454000000001,91.54149966,-1.77044022,-35.70101298
7.03,703,0.02,-0.926,0.127,13.8655836,60.2751816,-1.3178034,91.65609126,-1.78762896,-35.09940708000001
7.04,704,0.031,-0.936,0.132,16.1001198,61.9367598,-1.432395,91.81078992,-1.7933585399999998,-34.48634202
7.05,705,0.049,-0.952,0.132,17.6471064,63.1972674,-1.2032118,91.959759,-1.81627686,-33.8618178
7.06,706,0.07400000000000001,-0.968,0.126,19.0222056,63.3691548,-0.7448454000000001,92.12591682,-1.85065434,-33.231564
7.07,707,0.094,-0.978,0.118,20.454600600000006,62.738901,-0.4583664000000001,92.3035338,-1.88503182,-32.61276936
7.08,708,0.109,-0.985,0.111,21.6578124,61.87946400000001,-0.1718874,92.49833952,-1.92513888,-31.9997043
7.09,709,0.115,-0.993,0.097,21.4286292,59.98870260000001,0.2291832000000001,92.68741566,-1.93659804,-31.40382798
7.1,710,0.105,-1.011,0.067,18.907614000000002,57.35309579999999,0.6302538000000001,92.85357348,-1.98816426,-30.83659956
7.11,711,0.07200000000000001,-1.051,0.013,15.0687954,53.9726436,0.286479,92.97962424,-2.02827132,-30.30374862
7.12,712,0.014,-1.111,-0.033,12.2040054,52.3110654,-1.3178034,93.0770271,-2.05691922,-29.78808642
7.13,713,-0.054000000000000006,-1.186,-0.003,11.1153852,52.425657,-4.2398892,93.16870038,-2.05691922,-29.26669464
7.14,714,-0.109,-1.229,0.038,9.1100322,54.602897399999996,-8.3651868,93.22599618,-2.02827132,-28.72238454
7.15,715,-0.125,-1.2009999999999998,0.048,6.3598338,59.24385720000001,-13.120738199999998,93.26037366,-1.9480572000000005,-28.12650822
7.16,716,-0.097,-1.117,0.064,4.010706000000001,63.25456320000001,-16.558486199999994,93.27183282,-1.8334656000000005,-27.496254420000003
7.17,717,-0.046,-1.018,0.07200000000000001,3.3231564,63.1399716,-17.303331600000003,93.27756240000001,-1.71314442,-26.86027104
7.18,718,0.013,-0.942,0.07,5.443101,59.53033620000001,-14.7250206,93.31193988,-1.6157415599999996,-26.264394719999995
7.1899999999999995,719,0.053,-0.905,0.068,7.8495246,52.6548402,-9.568398599999998,93.36923568,-1.5469866,-25.73727336
7.2,720,0.078,-0.901,0.075,8.7089616,46.8106686,-4.3544808,93.43799064,-1.5412570200000002,-25.27317738
7.21,721,0.08800000000000001,-0.925,0.08800000000000001,7.448453999999999,42.4561878,-0.4583664000000001,93.49528644,-1.56990492,-24.85491804
7.22,722,0.085,-0.964,0.091,5.2139178,40.6227222,0.9167328,93.52966392,-1.6157415599999996,-24.45384744
7.2299999999999995,723,0.077,-1.004,0.079,2.86479,40.04976420000001,0.0,93.54685266,-1.65011904,-24.05850642
7.24,724,0.06,-1.029,0.056,1.0313244,39.47680620000001,-2.2345362,93.52393434,-1.6329303,-23.66889498
7.25,725,0.044,-1.039,0.035,0.5156622000000001,37.9871154,-4.583664,93.51247518,-1.62147114,-23.29074270000001
7.26,726,0.025,-1.033,0.025,0.2291832000000001,35.9817624,-6.0733548,93.50101602,-1.59282324,-22.92977916
7.27,727,0.006999999999999999,-1.02,0.024,0.3437748,32.31483119999999,-5.844171599999999,93.48955686,-1.55844576,-22.60892268
7.28,728,-0.004,-1.01,0.028,0.4583664000000001,28.8770832,-4.583664,93.48382728,-1.5412570200000002,-22.32244368
7.29,729,-0.019,-1.01,0.031,0.6302538000000001,25.55392680000001,-3.2085648,93.4494498,-1.52979786,-22.06461258
7.3,730,-0.03,-1.011,0.037000000000000005,0.8594370000000001,22.7464326,-1.8907613999999997,93.4494498,-1.52979786,-21.84115896
7.31,731,-0.035,-1.009,0.043,0.9740286,20.798375399999998,-0.7448454000000001,93.45517938,-1.5412570200000002,-21.63489408
7.32,732,-0.029,-1.007,0.044,1.145916,19.8816426,0.2291832000000001,93.45517938,-1.55844576,-21.44008836
7.33,733,-0.026,-1.004,0.043,1.2032118,18.9649098,0.8021411999999999,93.46090896,-1.5813640800000002,-21.25101222
7.34,734,-0.024,-1.001,0.046,1.432395,17.8189938,1.0886202,93.44372022,-1.6042824000000002,-21.07339524
7.35,735,-0.024,-0.997,0.062,2.9220857999999996,17.5325148,0.7448454000000001,93.46663854,-1.6272007199999998,-20.90150784
7.36,736,-0.024,-1.0,0.07,3.5523396000000003,18.162768600000003,0.286479,93.49528644,-1.64438946,-20.72389086
7.37,737,-0.024,-1.0,0.073,3.3231564,18.048177,-0.11459160000000004,93.51820476,-1.6615782,-20.54627388
7.38,738,-0.025,-1.003,0.078,3.5523396000000003,17.8189938,-0.7448454000000001,93.54685266,-1.6673077799999998,-20.3686569
7.39,739,-0.025,-1.008,0.081,3.8388186,17.8762896,-1.145916,93.57550056,-1.6615782,-20.19103992
7.4,740,-0.025,-1.017,0.085,3.380452200000001,18.2200644,-1.145916,93.60414846,-1.6673077799999998,-20.00769336
7.41,741,-0.025,-1.018,0.083,2.1772404,18.6784308,-1.0886202,93.6213372,-1.67303736,-19.8243468
7.42,742,-0.025,-1.013,0.078,1.432395,18.8503182,-0.8021411999999999,93.62706678,-1.6844965200000002,-19.63527066
7.43,743,-0.019,-1.009,0.07200000000000001,1.0313244,18.2773602,-0.572958,93.62706678,-1.6959556799999995,-19.45765368
7.4399999999999995,744,-0.011,-1.003,0.067,0.5156622000000001,17.131444199999994,-0.4583664000000001,93.60987804,-1.6787669399999998,-19.28576628
7.45,745,-0.004,-0.998,0.065,0.0,15.126091199999998,-0.2291832000000001,93.60414846,-1.6902260999999998,-19.136797199999997
7.46,746,0.0,-0.997,0.063,0.0,12.891555,-0.11459160000000004,93.59841887999998,-1.70168526,-19.01074644
7.47,747,-0.001,-1.001,0.06,0.057295800000000015,10.886202,0.057295800000000015,93.5926893,-1.71314442,-18.90188442
7.4799999999999995,748,-0.008,-1.003,0.062,0.0,8.9381448,0.286479,93.5926893,-1.7246035799999997,-18.81594072
7.49,749,-0.018000000000000002,-1.002,0.063,0.286479,6.990087599999999,0.572958,93.55258224,-1.7074148399999998,-18.74145618
7.5,750,-0.026,-0.999,0.068,0.6875496,5.3285094000000015,0.8594370000000001,93.55831182,-1.7246035799999997,-18.68988996
7.51,751,-0.034,-0.992,0.07400000000000001,1.145916,3.7815227999999994,1.0313244,93.56977098,-1.73606274,-18.65551248
7.52,752,-0.036000000000000004,-0.988,0.079,1.7188740000000002,3.151269,1.145916,93.58695972,-1.75325148,-18.621135
7.53,753,-0.038,-0.99,0.083,1.7761698,2.9220857999999996,1.0886202,93.60414846,-1.76471064,-18.59821668
7.54,754,-0.036000000000000004,-0.992,0.084,1.6615782,2.7501984,0.9740286,93.61560762,-1.7761698,-18.56956878
7.55,755,-0.034,-0.998,0.079,1.2032118,2.6356068,0.8594370000000001,93.62706678,-1.78762896,-18.54092088
7.56,756,-0.03,-1.006,0.076,0.6302538000000001,2.1199446,0.9167328,93.63279636,-1.79908812,-18.52373214
7.57,757,-0.025,-1.013,0.076,-0.057295800000000015,1.145916,1.0886202,93.63279636,-1.81054728,-18.51227298
7.58,758,-0.021,-1.017,0.075,-0.6302538000000001,0.0,1.2605076000000002,93.62706678,-1.82200644,-18.51227298
7.59,759,-0.018000000000000002,-1.017,0.07200000000000001,-1.0313244,-1.7188740000000002,1.3178034,93.56404139999998,-1.7761698,-18.52946172
7.6,760,-0.021,-1.015,0.069,-1.2032118,-3.2658606,1.4896908000000002,93.55258224,-1.78762896,-18.5638392
7.61,761,-0.027000000000000003,-1.009,0.07,-0.9740286,-5.1566220000000005,1.6615782,93.54685266,-1.79908812,-18.61540542
7.62,762,-0.036000000000000004,-1.002,0.073,-0.572958,-6.8182002000000015,1.7761698,93.54112308,-1.81054728,-18.68416038
7.63,763,-0.043,-0.998,0.07400000000000001,-0.11459160000000004,-7.7922288,1.7761698,93.54685266,-1.82200644,-18.75864492
7.64,764,-0.048,-0.998,0.07400000000000001,0.11459160000000004,-8.136003599999999,1.6615782,93.5353935,-1.85065434,-18.83885904
7.65,765,-0.049,-1.0,0.076,0.3437748,-8.136003599999999,1.6615782,93.54112308,-1.8621135,-18.92480274
7.66,766,-0.048,-1.003,0.077,0.5156622000000001,-8.021412000000002,1.7188740000000002,93.55258224,-1.87357266,-19.00501686
7.67,767,-0.046,-1.004,0.079,0.8594370000000001,-7.5630456000000015,1.8907613999999997,93.56404139999998,-1.88503182,-19.0795014
7.68,768,-0.046,-1.006,0.08,1.145916,-6.9327918,2.1772404,93.58123014,-1.89649098,-19.14825636
7.6899999999999995,769,-0.043,-1.007,0.08,1.0313244,-6.130650599999999,2.3491278,93.58695972,-1.92513888,-19.21128174
7.7,770,-0.042,-1.008,0.08,0.8021411999999999,-5.6149884000000005,2.578311,93.59841887999998,-1.9480572000000005,-19.268577540000006
7.71,771,-0.04,-1.011,0.079,0.8594370000000001,-4.8128472,2.7501984,93.60987804,-1.97097552,-19.31441418
7.72,772,-0.04,-1.01,0.075,1.0886202,-4.297185,2.7501984,93.6213372,-1.99389384,-19.36025082
7.7299999999999995,773,-0.039,-1.007,0.075,1.145916,-4.2398892,2.86479,93.63852594,-2.01681216,-19.40608746
7.74,774,-0.039,-1.002,0.079,1.0313244,-4.7555514,2.9220857999999996,93.64425552,-2.03973048,-19.4519241
7.75,775,-0.038,-0.998,0.083,1.0313244,-5.443101,2.8074942000000003,93.65571468,-2.0626488000000003,-19.509219899999998
7.76,776,-0.036000000000000004,-1.0,0.08199999999999999,0.9167328,-5.7868758000000025,2.6929026,93.66717384,-2.08556712,-19.5665157
7.77,777,-0.035,-1.007,0.077,0.572958,-6.016058999999999,2.578311,93.67863300000002,-2.10275586,-19.629541080000006
7.78,778,-0.038,-1.012,0.073,0.1718874,-6.3025379999999975,2.4064236,93.68436258,-2.1199446,-19.69256646
7.79,779,-0.04,-1.016,0.071,0.11459160000000004,-6.703608600000001,2.2345362,93.66144426,-2.13713334,-19.76132142
7.8,780,-0.043,-1.016,0.07,0.286479,-6.589017,2.1199446,93.67290342,-2.15432208,-19.8243468
7.81,781,-0.044,-1.01,0.069,0.3437748,-6.1879464,1.8907613999999997,93.67863300000002,-2.1657812400000003,-19.88737218
7.82,782,-0.045,-1.001,0.071,0.6875496,-5.7868758000000025,1.7188740000000002,93.69009216,-2.1772404,-19.950397560000006
7.83,783,-0.044,-0.998,0.07400000000000001,0.6875496,-4.8701430000000006,1.7188740000000002,93.69582174,-2.18869956,-19.9962342
7.84,784,-0.044,-0.997,0.07200000000000001,0.286479,-4.5263682,1.6042823999999998,93.67290342,-2.2058883,-20.04207084
7.85,785,-0.041,-1.0,0.068,0.1718874,-4.4690724,1.7188740000000002,93.67863300000002,-2.21734746,-20.08790748
7.86,786,-0.039,-1.003,0.063,0.0,-4.1825934,1.7761698,93.67863300000002,-2.2345362,-20.12801454
7.87,787,-0.038,-1.005,0.063,-0.1718874,-4.1252976000000015,1.6615782,93.67863300000002,-2.24599536,-20.17385118
7.88,788,-0.036000000000000004,-1.004,0.067,-0.3437748,-4.2398892,1.4896908000000002,93.67863300000002,-2.25745452,-20.21395824
7.89,789,-0.033,-1.002,0.069,-0.3437748,-4.1825934,1.3178034,93.63279636,-2.2345362,-20.2540653
7.9,790,-0.027000000000000003,-1.001,0.068,-0.3437748,-4.4117766,1.145916,93.63279636,-2.24026578,-20.29990194
7.91,791,-0.026,-1.003,0.07,0.0,-4.9847345999999995,1.145916,93.63852594,-2.25172494,-20.35146816
7.92,792,-0.027000000000000003,-1.008,0.075,0.2291832000000001,-5.6722842,1.432395,93.64425552,-2.25745452,-20.40876396
7.93,793,-0.031,-1.011,0.081,0.2291832000000001,-6.417129599999999,1.7761698,93.6499851,-2.26891368,-20.47178934
7.94,794,-0.035,-1.009,0.083,0.2291832000000001,-7.2765666,2.1199446,93.6499851,-2.2746432600000004,-20.54627388
7.95,795,-0.039,-1.003,0.079,0.6302538000000001,-7.8495246,1.9480572,93.66144426,-2.28610242,-20.62075842
7.96,796,-0.042,-0.999,0.081,0.6875496,-7.7922288,1.5469866,93.67290342,-2.29756158,-20.70097254
7.97,797,-0.044,-1.0,0.08199999999999999,0.2291832000000001,-7.448453999999999,1.145916,93.67863300000002,-2.29756158,-20.77545708
7.9799999999999995,798,-0.046,-1.0,0.083,0.0,-6.9327918,0.8021411999999999,93.68436258,-2.30329116,-20.84421204
7.99,799,-0.046,-1.004,0.083,0.0,-6.4744254,0.9167328,93.68436258,-2.30902074,-20.90723742
8.0,800,-0.045,-1.003,0.08,0.0,-6.130650599999999,1.145916,93.68436258,-2.3147503200000004,-20.9702628
8.01,801,-0.043,-1.006,0.077,0.11459160000000004,-6.0733548,1.3750992,93.69009216,-2.3204799,-21.03328818
8.02,802,-0.041,-1.003,0.077,0.3437748,-6.1879464,1.4896908000000002,93.69582174,-2.33193906,-21.09058398
8.03,803,-0.044,-0.999,0.08,0.7448454000000001,-6.5317212,1.432395,93.7072809,-2.3376686399999995,-21.15933894
8.04,804,-0.047,-0.996,0.084,1.2032118,-6.760904399999999,1.145916,93.72446964,-2.3491277999999998,-21.228093899999998
8.05,805,-0.05,-0.997,0.084,1.4896908000000002,-6.9327918,0.9740286,93.74165838,-2.3491277999999998,-21.29684886
8.06,806,-0.051,-1.001,0.084,1.5469866,-7.1046792000000005,0.6875496,93.7645767,-2.3491277999999998,-21.36560382
8.07,807,-0.046,-1.008,0.081,1.432395,-7.0473834,0.572958,93.78176544,-2.3491277999999998,-21.43435878
8.08,808,-0.04,-1.014,0.077,1.3178034,-7.333862400000001,0.6875496,93.79895417999998,-2.3491277999999998,-21.50884332
8.09,809,-0.039,-1.016,0.077,1.2032118,-8.021412000000002,0.8594370000000001,93.79895417999998,-2.34339822,-21.58905744
8.1,810,-0.039,-1.013,0.078,1.2605076000000002,-8.651665800000002,1.0313244,93.81614292,-2.34339822,-21.67500114
8.11,811,-0.041,-1.006,0.081,1.432395,-9.167328,1.145916,93.83906124,-2.3491277999999998,-21.76667442
8.12,812,-0.044,-1.0,0.086,1.6615782,-9.3392154,1.145916,93.86197956,-2.3491277999999998,-21.8583477
8.13,813,-0.046,-0.999,0.092,1.7188740000000002,-9.1100322,1.145916,93.88489788,-2.35485738,-21.95002098
8.14,814,-0.046,-0.999,0.091,1.8907613999999997,-9.0527364,1.0886202,93.90208662,-2.35485738,-22.03596468
8.15,815,-0.045,-1.005,0.08800000000000001,2.1199446,-8.7662574,1.0886202,93.93073452,-2.36058696,-22.12190838
8.16,816,-0.044,-1.009,0.085,2.0053530000000004,-8.7089616,1.2032118,93.95365284,-2.36631654,-22.21358166
8.17,817,-0.044,-1.012,0.083,1.6042823999999998,-8.7662574,1.3178034,93.97657116,-2.36631654,-22.29952536
8.18,818,-0.045,-1.011,0.081,1.2605076000000002,-8.651665800000002,1.3178034,93.9937599,-2.37204612,-22.38546906
8.19,819,-0.046,-1.007,0.081,1.145916,-8.479778399999999,1.3750992,93.99948948,-2.3777757,-22.47141276
8.2,820,-0.047,-1.001,0.08199999999999999,1.2032118,-8.250595200000001,1.2605076000000002,94.01667822,-2.38350528,-22.55162688
8.209999999999999,821,-0.046,-0.996,0.081,1.3178034,-8.250595200000001,1.145916,94.03386695999998,-2.38923486,-22.631841
8.22,822,-0.045,-0.993,0.08,1.4896908000000002,-8.307891,1.145916,94.0510557,-2.39496444,-22.7177847
8.23,823,-0.047,-0.994,0.08,1.7188740000000002,-8.250595200000001,1.3178034,94.07397402,-2.39496444,-22.79799882
8.24,824,-0.048,-0.996,0.079,1.8334656000000005,-8.3651868,1.3750992,94.08543318,-2.4064236,-22.88394252
8.25,825,-0.052000000000000005,-0.998,0.079,2.0626488000000003,-8.250595200000001,1.3750992,94.11408108,-2.41215318,-22.96415664
8.26,826,-0.054000000000000006,-1.001,0.08199999999999999,2.4064236,-8.021412000000002,1.3178034,94.14272898,-2.41788276,-23.04437076
8.27,827,-0.056,-1.001,0.08199999999999999,2.578311,-7.6203414,1.145916,94.17137688,-2.41788276,-23.1188553
8.28,828,-0.057,-1.003,0.083,2.8074942000000003,-7.2192707999999985,0.9740286,94.20575436,-2.42361234,-23.19333984
8.29,829,-0.057,-1.003,0.083,3.151269,-6.5317212,0.8021411999999999,94.2229431,-2.4350715000000003,-23.25636522
8.3,830,-0.055,-1.003,0.084,3.5523396000000003,-6.016058999999999,0.8021411999999999,94.26305016,-2.44080108,-23.31366102
8.31,831,-0.054000000000000006,-1.006,0.085,3.4377480000000005,-5.2712136,0.8021411999999999,94.30315722,-2.44080108,-23.36522724000001
8.32,832,-0.053,-1.009,0.08800000000000001,2.9220857999999996,-4.9274388,0.6875496,94.3375347,-2.44080108,-23.41679346
