TimeStamp(s),FrameCounter,AccX,AccY,AccZ,GyrX,GyrY,GyrZ,EulerX,EulerY,EulerZ
0.01,1,-0.011000000000000001,-1.002,0.12,-3.9534102,-2.3491277999999998,0.4583664000000001,98.33678154,1.432395,-30.30374862
0.02,2,-0.005,-1.016,0.134,-6.875496000000001,-2.9220858,0.0,98.26802658,1.43812458,-30.33239652
0.03,3,0.0,-1.024,0.13699999999999998,-8.021412000000002,-2.9220858,-0.11459160000000004,98.18208288,1.44385416,-30.366774
0.04,4,0.009000000000000001,-1.034,0.135,-9.396511199999999,-2.5783110000000002,-0.286479,98.09040960000002,1.44958374,-30.38969232
0.05,5,0.016,-1.041,0.129,-11.2299768,-2.0626488000000003,-0.4583664000000001,97.95862926,1.4610428999999998,-30.41834022
0.060000000000000005,6,0.025,-1.0390000000000001,0.11599999999999999,-13.2353298,-1.3178034,-0.1718874,97.82111934,1.46677248,-30.42979938
0.06999999999999999,7,0.036000000000000004,-1.023,0.10400000000000001,-16.157415599999997,-1.0886202,0.40107059999999994,97.65496152,1.4610428999999998,-30.44125854
0.08,8,0.043,-1.0070000000000001,0.09300000000000001,-17.5325148,-1.0313244000000001,0.7448454000000001,97.47734454000002,1.45531332,-30.45844728
0.09,9,0.045,-0.995,0.084,-17.8762896,-1.5469866,0.6875496,97.29399798,1.44958374,-30.475636020000003
0.09999999999999999,10,0.039,-0.986,0.08,-17.18874,-2.4637194,0.3437748,97.09919226,1.45531332,-30.510013500000003
0.11,11,0.026000000000000002,-0.975,0.078,-16.2147114,-3.5523396000000003,0.11459160000000004,96.93303444,1.4610428999999998,-30.54439098000001
0.12,12,0.015,-0.963,0.08,-14.667724800000002,-4.3544808,0.11459160000000004,96.78406536,1.46677248,-30.59022762
0.13,13,0.004,-0.956,0.081,-12.5477802,-4.8701430000000006,0.286479,96.65228502,1.46677248,-30.64179384
0.14,14,-0.004,-0.9540000000000001,0.083,-10.599723,-4.9847346,0.4583664000000001,96.543423,1.47250206,-30.693360060000003
0.15000000000000002,15,-0.012,-0.9540000000000001,0.084,-8.5370742,-4.583664,0.9167328000000001,96.44029056,1.44958374,-30.7391967
0.16,16,-0.016,-0.955,0.084,-7.5630456000000015,-4.297185,1.3750992,96.36007644,1.44385416,-30.78503334
0.17,17,-0.016,-0.9570000000000001,0.08,-6.9327918,-4.010706000000001,1.9480572,96.29132148,1.42666542,-30.8251404
0.18000000000000002,18,-0.012,-0.958,0.067,-6.3598338,-3.6669312000000014,2.4064236,96.2282961,1.40947668,-30.86524746
0.19,19,-0.009000000000000001,-0.9540000000000001,0.045,-5.3858052,-3.6669312000000014,2.4064236,96.1710003,1.38655836,-30.905354520000003
0.2,20,-0.008,-0.9470000000000001,0.027999999999999997,-4.4117766,-4.1825934,2.1199446,96.07359744,1.36364004,-30.95692074
0.21000000000000002,21,-0.013000000000000001,-0.934,0.023,-4.2398892,-5.0993262,1.3750992,96.0277608,1.3579104599999998,-31.00848696
0.22,22,-0.026000000000000002,-0.914,0.024,-4.2398892,-7.161975,0.286479,95.98192416,1.36364004,-31.082971500000006
0.23,23,-0.044000000000000004,-0.8959999999999999,0.037000000000000005,-4.4117766,-11.1153852,-0.9740286,95.93608752,1.38655836,-31.19183352
0.24000000000000002,24,-0.059000000000000004,-0.895,0.057999999999999996,-3.9534102,-14.8396122,-2.1772404,95.89598046,1.42666542,-31.33507302000001
0.25,25,-0.067,-0.91,0.075,-3.4950437999999995,-18.048177,-3.0366774,95.85014382,1.45531332,-31.50123084
0.26,26,-0.071,-0.945,0.092,-2.6929026,-20.5118964,-3.3231564,95.82149592,1.51260912,-31.70176614
0.27,27,-0.065,-0.996,0.11,-1.8334656000000005,-21.5432208,-2.9793816000000004,95.7985776,1.56990492,-31.90803102
0.28,28,-0.052000000000000005,-1.056,0.126,-1.432395,-21.0848544,-1.8907614,95.78138886,1.6157415599999996,-32.114295899999995
0.29000000000000004,29,-0.036000000000000004,-1.11,0.14400000000000002,-1.3750992,-19.767051000000002,-0.11459160000000004,95.76420011999998,1.64438946,-32.30910162
0.3,30,-0.013999999999999999,-1.156,0.151,-1.6615782,-17.8189938,2.5210152000000003,95.74701138,1.6329303,-32.486718599999996
0.31,31,0.0,-1.171,0.149,-2.9220858,-13.980175199999998,5.958763200000001,95.71836348,1.59282324,-32.6299581
0.32,32,0.013000000000000001,-1.157,0.14400000000000002,-3.8961144,-10.7143146,9.1100322,95.67825642,1.51260912,-32.7445497
0.33,33,0.023,-1.123,0.132,-4.010706000000001,-8.5370742,11.802934800000001,95.63241978,1.40947668,-32.84195256
0.34,34,0.022000000000000002,-1.077,0.125,-3.380452200000001,-8.9381448,13.6936962,95.59804229999999,1.28342592,-32.93935542
0.35000000000000003,35,0.008,-1.028,0.127,-3.0366774,-12.4331886,14.5531332,95.56939440000001,1.15164558,-33.07686534
0.36000000000000004,36,-0.018000000000000002,-0.9790000000000001,0.14,-3.6096353999999997,-17.475219,14.32395,95.52928733999998,1.0255948199999998,-33.265941479999995
0.37,37,-0.052000000000000005,-0.943,0.166,-3.5523396000000003,-22.1734746,13.2926256,95.49490986,0.92246238,-33.49512468
0.38,38,-0.092,-0.9229999999999999,0.215,-1.8907614,-25.496631,11.5737516,95.47199154,0.8422482600000001,-33.75868536
0.39,39,-0.13,-0.934,0.254,2.5783110000000002,-28.074942,9.682990199999999,95.50063944,0.7792228800000001,-34.03943478
0.4,40,-0.155,-0.966,0.284,4.5263682,-27.4446882,8.250595200000001,95.58658314,0.6875496,-34.30299546
0.41000000000000003,41,-0.16699999999999998,-0.996,0.29100000000000004,3.7815228,-23.605869600000002,7.3911582,95.6266902,0.64171296,-34.53790823999999
0.42000000000000004,42,-0.166,-1.014,0.285,0.057295800000000015,-16.329303,6.990087599999999,95.6266902,0.59587632,-34.70979564
0.43,43,-0.156,-1.018,0.272,-4.8701430000000006,-6.990087599999999,7.161975,95.57512398,0.53285094,-34.78428018
0.44,44,-0.139,-1.0270000000000001,0.251,-8.8235532,1.9480572,7.8495246,95.48918028,0.4526368200000001,-34.772821019999995
0.45,45,-0.12300000000000001,-1.044,0.222,-11.917526400000002,7.9641161999999985,8.9954406,95.39177742,0.32085648,-34.692606899999994
0.46,46,-0.10300000000000001,-1.056,0.19699999999999998,-13.8655836,10.313244000000001,10.313244000000001,95.24853792,0.20626488,-34.60666320000001
0.47000000000000003,47,-0.08900000000000001,-1.041,0.177,-15.4125702,8.9381448,11.2872726,95.08810968,0.08021412,-34.52644908
0.48000000000000004,48,-0.081,-1.013,0.165,-15.2406828,5.443101,11.401864199999999,94.93341102,-0.03437748,-34.48634202
0.49,49,-0.076,-0.985,0.152,-14.32395,1.2605076000000002,10.3705398,94.79017152,-0.13750992,-34.48634202
0.5,50,-0.075,-0.966,0.149,-12.891555,-2.5783110000000002,8.651665800000002,94.67557992,-0.25210152,-34.50926034
0.51,51,-0.079,-0.9640000000000001,0.156,-12.261301199999998,-5.3858052,6.875496000000001,94.55525874,-0.31512690000000004,-34.56655614
0.52,52,-0.083,-0.963,0.161,-11.917526400000002,-6.589017,5.3285094000000015,94.43493756,-0.36096354,-34.64104068
0.53,53,-0.095,-0.96,0.172,-10.7143146,-7.734933000000002,4.1252976000000015,94.32607554,-0.39534102,-34.7212548
0.54,54,-0.105,-0.9570000000000001,0.18899999999999997,-8.9381448,-8.479778399999999,3.2658606,94.24013184,-0.41825934,-34.8071985
0.55,55,-0.11199999999999999,-0.9590000000000001,0.18899999999999997,-9.6256944,-8.136003599999999,2.4064236,94.18856562,-0.4870143000000001,-34.870223880000005
0.56,56,-0.114,-0.958,0.19,-11.917526400000002,-6.6463128000000005,1.8907614,94.06824444,-0.4984734599999999,-34.93897884
0.5700000000000001,57,-0.111,-0.9590000000000001,0.183,-13.521808800000002,-4.1252976000000015,1.6042823999999998,93.93073452,-0.5156622000000001,-34.984815479999995
0.5800000000000001,58,-0.113,-0.9590000000000001,0.16699999999999998,-14.381245800000002,-1.2605076000000002,1.432395,93.78749502,-0.52712136,-35.00200422
0.59,59,-0.121,-0.96,0.155,-15.2406828,0.8021411999999999,1.0886202,93.63279636,-0.53858052,-34.99627464
0.6,60,-0.131,-0.961,0.14800000000000002,-15.756345,2.1772404,0.2291832000000001,93.50674559999999,-0.6073354799999999,-34.95616758
0.61,61,-0.14300000000000002,-0.963,0.14300000000000002,-15.6990492,3.380452200000001,-1.0886202,93.34631736,-0.6016058999999999,-34.9217901
0.62,62,-0.161,-0.9670000000000001,0.133,-15.527161800000002,5.2139178,-2.7501984,93.18588912,-0.5786875800000001,-34.870223880000005
0.63,63,-0.172,-0.97,0.129,-14.7250206,7.8495246,-4.583664,93.03692004,-0.5443101,-34.79000976
0.64,64,-0.17800000000000002,-0.973,0.136,-13.8082878,9.396511199999999,-5.958763200000001,92.89368054,-0.49274388,-34.69833648
0.65,65,-0.177,-0.9740000000000001,0.14300000000000002,-13.2926256,10.7716104,-7.1046792000000005,92.77908894,-0.48128472,-34.57228572
0.66,66,-0.171,-0.972,0.141,-13.6936962,12.891555,-7.7922288,92.63584944,-0.41252976,-34.44623496
0.67,67,-0.161,-0.9690000000000001,0.13699999999999998,-13.8655836,15.6990492,-8.136003599999999,92.49260994,-0.3437748,-34.28580672
0.68,68,-0.152,-0.971,0.13,-14.037471,18.162768600000003,-8.250595200000001,92.34937044,-0.27501984,-34.10246016
0.6900000000000001,69,-0.145,-0.975,0.125,-14.381245800000002,20.1108258,-8.250595200000001,92.19467178,-0.20626488,-33.901924859999994
0.7000000000000001,70,-0.132,-0.9790000000000001,0.124,-14.5531332,21.485925,-8.250595200000001,92.06289144000002,-0.16615782,-33.684200819999994
0.7100000000000001,71,-0.12300000000000001,-0.987,0.12,-14.1520626,22.517249399999997,-8.8235532,91.91392236,-0.09740286,-33.45501762
0.72,72,-0.125,-0.9940000000000001,0.11,-13.750992000000002,22.7464326,-9.0527364,91.77068286,-0.01718874,-33.231564
0.73,73,-0.131,-1.013,0.113,-12.261301199999998,22.4026578,-9.2819196,91.6446321,0.05156622,-33.00811038
0.74,74,-0.14,-1.04,0.11900000000000001,-11.5737516,22.058882999999998,-9.2819196,91.52431092,0.13178034,-32.79038634
0.75,75,-0.14800000000000002,-1.062,0.12300000000000001,-11.1153852,21.485925,-9.5111028,91.42690806,0.18334656,-32.56693272
0.76,76,-0.151,-1.073,0.13699999999999998,-9.453807,20.340009,-9.8548776,91.32377562,0.27501984,-32.36066784
0.77,77,-0.154,-1.0759999999999998,0.155,-6.0160589999999985,18.334656,-10.084060800000001,91.26075024,0.36096354,-32.177321279999994
0.78,78,-0.15,-1.081,0.168,-3.8388186,17.8762896,-9.682990199999999,91.22064318,0.4526368200000001,-31.9997043
0.79,79,-0.13699999999999998,-1.0859999999999999,0.17600000000000002,-4.7555514,17.9908812,-9.2819196,91.17480654,0.53285094,-31.82208732
0.8,80,-0.125,-1.085,0.174,-5.844171599999999,17.0168526,-9.224623800000002,91.14042906,0.5844171599999999,-31.63874076
0.81,81,-0.113,-1.079,0.177,-6.0160589999999985,16.386598799999998,-8.9954406,91.08313326,0.66463128,-31.47258294
0.8200000000000001,82,-0.106,-1.061,0.171,-5.7868758000000025,15.6417534,-8.5370742,91.02010788,0.7448454000000001,-31.31788428
0.8300000000000001,83,-0.10300000000000001,-1.03,0.188,-3.7815228,14.438541599999999,-7.448453999999999,90.98000082,0.8078707799999998,-31.17464478
0.8400000000000001,84,-0.099,-1.001,0.19399999999999998,0.2291832000000001,13.2926256,-6.0733548,90.9857304,0.86516658,-31.04286444
0.85,85,-0.063,-1.044,0.163,-0.11459160000000004,16.4438946,-4.4690724,90.99718956,0.89381448,-30.87670662
0.86,86,0.132,-1.383,-0.19,-18.621135,31.9710564,0.572958,90.813843,0.87089616,-30.56157972
0.87,87,0.225,-1.597,-0.005,-22.9756158,12.2040054,13.407217200000002,90.57893022,0.73338624,-30.44698812
0.88,88,0.2,-1.38,0.044000000000000004,-11.9748222,-15.5844576,19.767051000000002,90.45860904,0.53858052,-30.60168678
0.89,89,0.131,-1.178,0.08900000000000001,-16.272007199999994,-35.52339600000001,22.345361999999998,90.29245122,0.32658606,-30.95692074
0.9,90,0.109,-1.129,-0.011000000000000001,-20.168121600000006,-41.539455,19.652459399999998,90.08618634,0.15469866,-31.37518008
0.91,91,0.09300000000000001,-1.1640000000000001,-0.084,-13.521808800000002,-44.977203,12.776963400000001,89.95440599999998,0.04010706,-31.82208732
0.92,92,0.035,-1.078,-0.07200000000000001,-3.6669312000000014,-52.54024860000001,6.1879464,89.92002852,0.0,-32.3434791
0.93,93,-0.057,-0.9670000000000001,0.002,4.2398892,-53.9726436,0.40107059999999994,89.97159474,0.0,-32.876330040000006
0.9400000000000001,94,-0.127,-0.972,0.027999999999999997,2.6356068,-48.414951,-4.6409598,90.00597222,0.06302537999999999,-33.35188518
0.9500000000000001,95,-0.17800000000000002,-1.002,-0.001,-0.057295800000000015,-35.8671708,-8.479778399999999,90.00597222,0.11459160000000003,-33.70138956
0.9600000000000001,96,-0.213,-1.001,-0.035,-2.5783110000000002,-20.05353,-10.4278356,89.98305390000002,0.22345362,-33.89619528
0.97,97,-0.22,-0.975,-0.057999999999999996,-7.734933000000002,0.6875496,-11.1153852,89.90283978,0.33231564,-33.8904657
0.98,98,-0.20199999999999999,-0.9279999999999999,-0.083,-14.266654199999998,23.892348600000002,-11.0007936,89.75960028,0.43544808,-33.65555292
0.99,99,-0.17,-0.879,-0.129,-20.5691922,44.8053156,-9.740286,89.54760582,0.52139178,-33.21437526
1.0,100,-0.14300000000000002,-0.852,-0.19,-26.4706596,60.50436480000001,-6.703608600000001,89.25539724,0.56722842,-32.62422852
1.01,101,-0.122,-0.873,-0.247,-32.658606,68.75496,-2.3491277999999998,88.9230816,0.5786875800000001,-31.94813808
1.02,102,-0.078,-0.938,-0.298,-39.1330314,69.72898860000001,2.0626488000000003,88.52201099999998,0.55003968,-31.26058848000001
1.03,103,-0.005,-0.978,-0.327,-44.2323576,64.8015498,5.6722842,88.06937418,0.49274388,-30.624605100000004
1.04,104,0.08800000000000001,-0.982,-0.34299999999999997,-44.404245,55.977996600000004,7.448453999999999,87.61673736,0.41825934,-30.07456542
1.05,105,0.16399999999999998,-0.9470000000000001,-0.354,-40.5081306,43.315624799999995,7.1046792000000005,87.16983012,0.37815228,-29.65630608
1.06,106,0.21,-0.899,-0.354,-33.4607472,27.4446882,4.0680017999999984,86.82605532,0.3437748,-29.38701582
1.07,107,0.223,-0.875,-0.322,-25.0382646,9.167328,-1.2605076000000002,86.5739538,0.35523396,-29.30107212
1.08,108,0.20199999999999999,-0.878,-0.258,-18.1054728,-9.453807,-7.906820400000001,86.39060724,0.4297185000000001,-29.40420456
1.09,109,0.14300000000000002,-0.9009999999999999,-0.187,-11.6310474,-22.6891368,-14.610429000000002,86.27028606,0.56149884,-29.63338776
1.1,110,0.047,-0.9420000000000001,-0.126,-6.0733548,-25.9549974,-19.595163600000006,86.19580152,0.75057498,-29.9084076
1.11,111,-0.024,-0.9740000000000001,-0.087,-2.6356068,-20.8556712,-23.2620948,86.16715362,0.9740286,-30.13186122
1.12,112,-0.083,-0.993,-0.05,-2.9220858,-12.261301199999998,-23.663165399999997,86.13850572,1.2032117999999998,-30.263641560000003
1.1300000000000001,113,-0.11,-1.003,-0.01,-6.8182002000000015,-2.86479,-21.0848544,86.06975076,1.40947668,-30.3094782
1.1400000000000001,114,-0.10800000000000001,-0.996,0.013000000000000001,-12.7196676,6.8182002000000015,-16.902261,85.93797042,1.5813640800000002,-30.252182399999995
1.1500000000000001,115,-0.087,-0.971,0.021,-17.0741484,16.272007199999994,-12.776963400000001,85.78327176,1.6902260999999998,-30.09748374
1.1600000000000001,116,-0.06,-0.972,0.032,-20.168121600000006,24.923673,-8.8235532,85.58273646,1.78762896,-29.85684138
1.17,117,-0.013000000000000001,-0.937,-0.003,-21.371333399999997,29.8511118,-7.0473834,85.370742,1.86784308,-29.57036238
1.18,118,0.045,-0.917,-0.036000000000000004,-18.8503182,30.252182399999995,-6.990087599999999,85.18166586000002,1.95378678,-29.2781538
1.19,119,0.08800000000000001,-0.92,-0.065,-15.4125702,26.642546999999997,-8.307891,85.03269678,2.05118964,-29.02605228
1.2,120,0.11800000000000001,-0.9279999999999999,-0.076,-12.834259199999998,20.3973048,-9.9121734,84.90091644,2.18296998,-28.83697614
1.21,121,0.128,-0.93,-0.076,-10.599723,12.3758928,-11.401864199999999,84.79205442,2.30329116,-28.728114120000004
1.22,122,0.12,-0.934,-0.077,-8.3651868,5.2139178,-12.891555,84.71184029999998,2.4350715000000003,-28.68800706
1.23,123,0.10099999999999999,-0.937,-0.063,-6.9327918,-0.6875496,-14.209358400000001,84.63735576,2.57258142,-28.71092538000001
1.24,124,0.07400000000000001,-0.94,-0.043,-5.7868758000000025,-5.958763200000001,-15.011499599999999,84.57433037999998,2.71582092,-28.77968034
1.25,125,0.053,-0.941,-0.023,-4.583664,-9.9121734,-15.126091199999998,84.5399529,2.85906042,-28.89427194
1.26,126,0.042,-0.946,-0.006999999999999999,-3.2085647999999996,-11.8602306,-14.667724800000002,84.49984584,2.9965703400000003,-29.02605228
1.27,127,0.038,-0.956,0.0,-1.432395,-11.688343199999998,-13.8082878,84.4826571,3.12835068,-29.152103040000004
1.28,128,0.043,-0.977,0.006999999999999999,0.11459160000000004,-10.2559482,-12.9488508,84.47692752,3.2486718599999995,-29.26669464
1.29,129,0.052000000000000005,-0.997,0.009000000000000001,0.7448454000000001,-8.9381448,-11.917526400000002,84.4826571,3.35753388,-29.364097500000003
1.3,130,0.067,-1.016,0.005,0.40107059999999994,-7.448453999999999,-11.172680999999999,84.51703458,3.47212548,-29.44431162
1.31,131,0.08900000000000001,-1.0270000000000001,-0.003,-1.7761698000000001,-5.9014674000000005,-10.4851314,84.49411626,3.56952834,-29.51306658
1.32,132,0.111,-1.025,-0.009000000000000001,-4.8128472,-5.2139178,-9.740286,84.44255003999999,3.66120162,-29.57609196000001
1.33,133,0.142,-1.008,0.011000000000000001,-7.734933000000002,-6.417129599999999,-8.7662574,84.35660634000001,3.74141574,-29.64484692000001
1.34,134,0.174,-0.9640000000000001,0.012,-10.4851314,-10.943497800000001,-6.417129599999999,84.24201474,3.79871154,-29.765168100000004
1.35,135,0.188,-0.9570000000000001,-0.063,-9.568398599999998,-14.9542038,-3.7815228,84.12742313999998,3.873196080000002,-29.93132592
1.36,136,0.17300000000000001,-1.012,-0.11599999999999999,-6.589017,-18.6784308,-4.010706000000001,84.04720902,3.896114400000001,-30.12040206
1.37,137,0.135,-1.092,-0.114,-5.7868758000000025,-23.835052800000003,-6.130650599999999,83.97845406,3.94195104,-30.36104442
1.3800000000000001,138,0.098,-1.151,-0.03,-9.167328,-31.79916900000001,-8.250595200000001,83.86386246,3.99924684,-30.68763048000001
1.3900000000000001,139,0.06,-1.167,0.071,-16.615782,-42.62807520000001,-7.906820400000001,83.67478632,4.0393539,-31.11734898000001
1.4000000000000001,140,0.013000000000000001,-1.168,0.225,-31.111619399999995,-54.4883058,-3.0366774,83.34820026,4.01643558,-31.65592950000001
1.4100000000000001,141,0.043,-1.1420000000000001,0.359,-46.8679644,-68.182002,3.8961144,82.83826764,3.90757356,-32.32629036
1.42,142,-0.024,-1.054,0.27399999999999997,-29.736520199999998,-61.07732280000001,0.1718874,82.50022242,3.84454818,-32.933625840000005
1.43,143,-0.251,-1.193,-0.01,20.3973048,-27.3873924,-12.3758928,82.69502814,3.94195104,-33.21437526
1.44,144,-0.51,-1.5230000000000001,-0.297,6.2452422,2.4637194,-23.2620948,82.75805352,4.17113424,-33.22010484
1.45,145,-0.612,-1.546,-0.20800000000000002,-27.8457588,38.90384820000001,-39.47680620000001,82.49449283999998,4.5836640000000015,-32.8877892
1.46,146,-0.512,-1.33,-0.12,-56.4936588,83.82375540000002,-47.0398518,81.97310106,5.127974099999999,-32.12575506
1.47,147,-0.28300000000000003,-1.158,-0.27899999999999997,-99.408213,106.7993712,-32.4294228,81.04490909999998,5.56915176,-31.12880814
1.48,148,0.1,-1.176,-0.534,-122.7848994,98.548776,-15.527161800000002,79.87607478,5.83844202,-30.194886600000004
1.49,149,0.311,-1.131,-0.547,-125.5350978,63.08267579999999,-2.9220858,78.65567424,5.9530336199999985,-29.593280699999998
1.5,150,0.375,-1.113,-0.467,-89.4387438,26.41336380000001,3.0366774,77.75613018,5.98168152,-29.34690876
1.51,151,0.455,-1.288,-0.4320000000000001,-36.2682414,-0.40107059999999994,-0.7448454000000001,77.38943706,5.9874111,-29.35836792
1.52,152,0.5539999999999999,-1.57,-0.345,-21.371333399999997,-13.178034,-10.4851314,77.15452428,6.06189564,-29.507337
1.53,153,0.528,-1.794,-0.183,-30.7105488,-30.137590799999998,-21.0848544,76.81074948,6.1994055600000015,-29.8511118
1.54,154,0.386,-1.8419999999999999,0.006,-44.9199072,-41.0237928,-30.366774000000003,76.30654644,6.40567044,-30.32666694000001
1.55,155,0.19699999999999998,-1.7990000000000002,0.182,-67.7809314,-30.3094782,-33.4607472,75.58461936,6.65777196,-30.70481922
1.56,156,0.026000000000000002,-1.5330000000000001,0.057,-98.1477054,-7.734933000000002,-29.335449600000004,74.57048370000003,6.90987348,-30.86524746
1.57,157,-0.06,-1.018,-0.306,-101.0697912,11.0007936,-21.485925,73.55061846,7.1333271000000025,-30.8251404
1.58,158,-0.024,-0.569,-0.369,-78.5525418,7.1046792000000005,-9.453807,72.75420684000002,7.2307299600000015,-30.79076292
1.59,159,0.061,-0.272,-0.27399999999999997,-55.1758554,-10.4851314,3.4377480000000005,72.18124884,7.161975,-30.88816578
1.6,160,0.187,-0.08,-0.063,-33.0596766,-21.0848544,8.9954406,71.82601488,7.0416538200000005,-31.07151234
1.61,161,0.34600000000000003,0.021,0.059000000000000004,-16.902261,-32.4867186,13.0061466,71.62547958,6.82392978,-31.346532180000004
1.62,162,0.507,0.134,0.078,3.2658606,-41.4248634,16.673077799999998,71.62547958,6.54890994,-31.6845774
1.6300000000000001,163,0.598,0.221,0.125,29.4500412,-50.133825,19.308684600000007,71.88331068,6.22805346,-32.10283674
1.6400000000000001,164,0.623,0.273,0.32299999999999995,41.5967508,-59.8168152,23.2620948,72.26146296,5.849901179999999,-32.59558062
1.6500000000000001,165,0.596,0.363,0.441,52.5975444,-74.1407652,31.455394199999997,72.74847725999999,5.3972643599999985,-33.22583442
1.6600000000000001,166,0.414,0.423,0.337,80.5578948,-92.07435059999999,43.1437374,73.51624097999998,4.76128098,-33.9764094
1.6700000000000002,167,0.15,0.349,0.18600000000000005,113.56027560000001,-112.52895120000001,53.9153478,74.61059076000002,3.9820581,-34.89887178
1.68,168,-0.128,0.18,-0.316,140.947668,-119.00337659999998,59.0719698,75.99714911999997,3.1627281600000003,-35.89008912
1.69,169,-0.419,-0.301,-0.797,165.64215780000004,-103.0751442,55.3477428,77.65299774,2.4350715000000003,-36.74952612
1.7,170,-0.698,-0.9690000000000001,-0.639,140.14552680000003,-82.33406459999998,35.9244666,79.05674484,1.9480572000000005,-37.46572362
1.71,171,-0.7859999999999999,-1.626,-0.348,110.7527814,-80.5578948,14.209358400000001,80.16828336,1.6959556799999995,-38.2162986
1.72,172,-0.523,-2.03,-0.53,70.5311298,-68.1247062,5.5003968,80.87302170000002,1.55844576,-38.86947072
1.73,173,-0.264,-1.7180000000000002,-0.588,32.8877892,-48.071176200000004,18.048177,81.20533734,1.32353298,-39.31064838
1.74,174,-0.316,-1.071,-0.537,15.011499599999999,-35.9244666,25.6112226,81.35430642,1.0255948199999998,-39.62004570000001
1.75,175,-0.445,-0.8290000000000001,-0.452,20.168121600000006,-9.8548776,18.048177,81.5032755,0.75057498,-39.68307108000001
1.76,176,-0.498,-0.951,-0.466,33.6326346,21.886995600000002,15.4125702,81.8470503,0.62452422,-39.44242872
1.77,177,-0.40700000000000003,-1.247,-0.578,40.10706,43.65939960000001,23.204798999999998,82.25385048,0.44690724,-38.97833274
1.78,178,-0.17300000000000001,-1.5959999999999999,-0.591,37.0703826,49.7327544,32.142943800000005,82.62627318,0.18334656,-38.4454818
1.79,179,0.09,-1.712,-0.5579999999999999,23.0329116,47.67010560000001,31.22621100000001,82.85545637999998,-0.06875496,-37.93554918
1.8,180,0.247,-1.5519999999999998,-0.55,11.9748222,37.9871154,21.027558600000006,82.95858882,-0.22918320000000006,-37.54020816
1.81,181,0.21600000000000005,-1.344,-0.561,7.906820400000001,22.517249399999997,6.875496000000001,83.03880294000002,-0.27501984,-37.31102496
1.82,182,0.07200000000000001,-1.337,-0.5479999999999999,8.479778399999999,10.3705398,-6.3598338,83.11901706,-0.20053530000000008,-37.2136221
1.83,183,-0.076,-1.472,-0.52,7.161975,2.291832,-15.6417534,83.19350159999998,-0.04583664,-37.20789252
1.84,184,-0.17300000000000001,-1.501,-0.46,2.5783110000000002,-0.057295800000000015,-18.277360199999997,83.21641991999998,0.13178034,-37.23081084
1.85,185,-0.214,-1.449,-0.414,-0.9740286,1.4896908000000002,-16.2147114,83.19923118,0.28647900000000004,-37.23081084
1.86,186,-0.23,-1.402,-0.34299999999999997,-2.4064236,5.72958,-13.5791046,83.17631286,0.42398892,-37.19070377999999
1.87,187,-0.23600000000000002,-1.375,-0.268,-3.8961144,11.5737516,-12.605075999999999,83.13047622,0.55576926,-37.09330092
1.8800000000000001,188,-0.168,-1.3659999999999999,-0.231,-2.4064236,18.334656,-11.9748222,83.1075579,0.69327918,-36.9271431
1.8900000000000001,189,-0.133,-1.389,-0.19,-2.2345362,24.7517856,-8.7089616,83.08463958,0.8021412000000001,-36.69223032
1.9000000000000001,190,-0.09,-1.365,-0.177,-4.1252976000000015,27.8457588,-4.1825934,83.04453251999998,0.86516658,-36.42294006
1.9100000000000001,191,-0.059000000000000004,-1.3130000000000002,-0.16699999999999998,-6.9327918,29.793815999999996,0.057295800000000015,82.97004798,0.8880849000000001,-36.13073148
1.9200000000000002,192,-0.039,-1.229,-0.172,-8.8235532,29.5646328,2.4064236,82.88410428,0.89381448,-35.8385229
1.93,193,-0.016,-1.159,-0.13699999999999998,-8.193299399999999,27.4446882,3.4377480000000005,82.79816058,0.8823553199999999,-35.56350306
1.94,194,0.0,-1.1059999999999999,-0.114,-7.7922288,23.777757,3.2085647999999996,82.72367604,0.87089616,-35.3228607
1.95,195,0.004,-1.0590000000000002,-0.1,-7.734933000000002,19.9389384,2.6356068,82.6491915,0.8594370000000001,-35.122325399999994
1.96,196,-0.008,-1.02,-0.094,-7.734933000000002,17.3606274,2.3491277999999998,82.56897738,0.8537074199999999,-34.950438
1.97,197,-0.033,-0.988,-0.10099999999999999,-7.3911582,16.272007199999994,2.9220858,82.49449283999998,0.8422482600000001,-34.79000976
1.98,198,-0.067,-0.9620000000000001,-0.095,-6.7609043999999985,15.813640800000002,4.2398892,82.42573788,0.8136003599999999,-34.62958152
1.99,199,-0.08900000000000001,-0.94,-0.084,-7.1046792000000005,16.7303736,6.130650599999999,82.35125334,0.7734933,-34.45769412
2.0,200,-0.10400000000000001,-0.909,-0.08,-7.161975,18.334656,7.9641161999999985,82.28822796,0.67609044,-34.25715882
2.01,201,-0.114,-0.882,-0.061,-6.7609043999999985,19.652459399999998,9.8548776,82.219473,0.6016058999999999,-34.050893939999995
2.02,202,-0.11699999999999999,-0.851,-0.053,-6.3598338,19.9962342,11.745639,82.15644762000002,0.5042030399999999,-33.838899479999995
2.03,203,-0.107,-0.821,-0.059000000000000004,-5.2712136,19.8816426,13.2353298,82.1048814,0.39534102,-33.626905019999995
2.04,204,-0.08800000000000001,-0.792,-0.07400000000000001,-4.010706000000001,18.907614,14.4958374,82.05904475999998,0.27501984,-33.42064014
2.05,205,-0.08199999999999999,-0.765,-0.069,-0.9740286,16.272007199999994,15.527161800000002,82.05331518,0.12032118,-33.23729358
2.0599999999999996,206,-0.084,-0.7440000000000001,-0.054000000000000006,1.145916,12.4904844,15.469866,82.06477434,-0.01145916,-33.09405408
2.07,207,-0.096,-0.705,-0.045,3.5523396000000003,8.479778399999999,13.636400400000001,82.09915182,-0.13750992,-32.99092164
2.0799999999999996,208,-0.102,-0.682,-0.033,6.2452422,7.0473834,11.172680999999999,82.1621772,-0.24064236,-32.90497794
2.09,209,-0.105,-0.6509999999999999,-0.06,7.6776372,7.7922288,8.250595200000001,82.24239132,-0.30939732,-32.81903423999999
2.0999999999999996,210,-0.10300000000000001,-0.612,-0.039,10.7143146,9.9121734,5.2139178,82.35698292000002,-0.36669312,-32.71017222
2.11,211,-0.10300000000000001,-0.5670000000000001,-0.015,15.183387000000002,10.2559482,2.1772404,82.50595200000002,-0.37815228,-32.6013102
2.1199999999999997,212,-0.09699999999999999,-0.512,0.016,21.371333399999997,10.4278356,-0.4583664000000001,82.72367604,-0.36096354,-32.49817776
2.13,213,-0.08,-0.46,0.06,28.877083199999998,11.9748222,-2.9220858,83.01015504,-0.31512690000000004,-32.37785658
2.1399999999999997,214,-0.071,-0.42,0.12300000000000001,38.10170700000001,14.7250206,-5.2139178,83.3940369,-0.24637194,-32.23461708000001
2.15,215,-0.067,-0.41100000000000003,0.149,46.1804148,20.340009,-7.9641161999999985,83.87532162,-0.15469866,-32.03408178
2.1599999999999997,216,-0.057,-0.42,0.18600000000000005,52.54024860000001,26.5279554,-10.943497800000001,84.40817256,-0.02291832,-31.78198026
2.17,217,-0.051,-0.45799999999999996,0.21899999999999997,58.0979412,34.37748,-13.980175199999998,84.99258972,0.13750992,-31.44966462
2.1799999999999997,218,-0.052000000000000005,-0.521,0.23,62.6243094,42.1697088,-16.615782,85.62284352,0.33231564,-31.03713486
2.19,219,-0.07200000000000001,-0.5870000000000001,0.249,65.89017,48.987909,-18.334656,86.28747480000001,0.53858052,-30.55585014
2.1999999999999997,220,-0.09300000000000001,-0.66,0.20800000000000002,67.66633979999999,56.3790672,-19.9962342,86.98648356,0.75057498,-30.000080879999995
2.21,221,-0.09,-0.79,0.02,65.66098679999999,63.25456320000001,-20.912967000000002,87.65684442,0.97975818,-29.37555666
2.2199999999999998,222,-0.057,-1.013,-0.196,61.1346186,64.17129600000001,-18.449247600000003,88.28136864,1.1688343199999998,-28.73957328
2.23,223,0.026000000000000002,-1.318,-0.354,53.1705024,54.4883058,-13.3499214,88.82567874,1.30634424,-28.20099276
2.2399999999999998,224,0.19899999999999998,-1.6269999999999998,-0.41700000000000004,41.883229799999995,37.9871154,-8.250595200000001,89.24966766,1.38655836,-27.82284048
2.25,225,0.40299999999999997,-1.724,-0.42,27.215505,16.4438946,-4.6982555999999995,89.5246875,1.44385416,-27.65668266
2.26,226,0.528,-1.5130000000000001,-0.387,20.3973048,-6.589017,-5.72958,89.73095237999998,1.50114996,-27.71970804
2.27,227,0.528,-1.2990000000000002,-0.335,25.6112226,-24.923673,-10.3705398,89.98878348,1.6157415599999996,-27.96607998
2.28,228,0.444,-1.261,-0.32799999999999996,31.22621100000001,-32.7159018,-16.7876694,90.2981808,1.7933585399999998,-28.28120688000001
2.29,229,0.27399999999999997,-1.324,-0.27899999999999997,35.4088044,-34.262888399999994,-22.6891368,90.65341476,2.0340009,-28.61352252
2.3,230,0.017,-1.3359999999999999,-0.217,35.6379876,-33.2888598,-26.814434400000003,90.99718956,2.3147503200000004,-28.934378999999996
2.31,231,-0.162,-1.317,-0.18600000000000005,34.1482968,-28.361421000000004,-28.4760126,91.33523478,2.61268848,-29.20939884
2.32,232,-0.262,-1.268,-0.175,30.7678446,-17.9908812,-27.788463,91.63890252,2.89916748,-29.37555666
2.3299999999999996,233,-0.285,-1.208,-0.14800000000000002,27.6165756,-4.8128472,-25.210151999999997,91.91965194,3.15699858,-29.40993414
2.34,234,-0.251,-1.136,-0.142,20.2827132,7.448453999999999,-19.652459399999998,92.12591682,3.34607472,-29.32399044
2.3499999999999996,235,-0.19899999999999998,-1.037,-0.18100000000000002,12.5477802,17.761698000000006,-11.9748222,92.20613094,3.40337052,-29.14637346
2.36,236,-0.156,-0.946,-0.22,8.651665800000002,24.923673,-4.8128472,92.30926338,3.43201842,-28.89427194
2.3699999999999997,237,-0.111,-0.8909999999999999,-0.245,6.703608600000001,27.559279800000002,0.5156622000000001,92.3894775,3.4091001000000003,-28.6192521
2.38,238,-0.065,-0.882,-0.22699999999999998,2.6929026,26.241476399999996,2.5210152000000003,92.42958456,3.3689930400000003,-28.361421000000004
2.3899999999999997,239,0.059000000000000004,-0.8809999999999999,-0.23399999999999999,-5.3285094000000015,20.6837838,0.6302538000000001,92.38374792,3.34607472,-28.1608857
2.4,240,0.191,-0.914,-0.239,-8.7089616,14.8396122,-2.86479,92.18321262,3.46066632,-28.057753260000005
2.4099999999999997,241,0.276,-0.986,-0.23399999999999999,-11.45916,7.5057497999999985,-6.703608600000001,92.06862102,3.51796212,-27.97753914
2.42,242,0.32,-1.071,-0.23,-15.6417534,0.4583664000000001,-10.313244000000001,91.90819278,3.62109456,-27.97180956
2.4299999999999997,243,0.32,-1.15,-0.245,-19.595163600000006,-6.4744254,-12.776963400000001,91.70765748,3.752874900000001,-28.03483494
2.44,244,0.294,-1.203,-0.251,-20.9702628,-13.120738199999998,-13.0634424,91.48993344,3.88465524,-28.1608857
2.4499999999999997,245,0.221,-1.197,-0.22899999999999998,-23.204798999999998,-19.595163600000006,-12.0894138,91.21491359999999,4.03362432,-28.36715058
2.46,246,0.14400000000000002,-1.156,-0.214,-24.064236,-23.319390600000002,-10.828906199999999,90.9570825,4.14821592,-28.59633378
2.4699999999999998,247,0.07,-1.104,-0.184,-24.0069402,-25.2674478,-10.7143146,90.69352182,4.26280752,-28.848435300000002
2.48,248,0.026000000000000002,-1.065,-0.155,-23.2620948,-24.809081399999997,-12.318597,90.4414203,4.39458786,-29.09480724
2.4899999999999998,249,0.002,-1.043,-0.14300000000000002,-23.14750320000001,-22.803728399999997,-14.0947668,90.19504836000002,4.53782736,-29.32399044
2.5,250,-0.002,-1.036,-0.14300000000000002,-22.2880662,-20.6837838,-15.4125702,89.9257581,4.68679644,-29.53025532
2.51,251,0.001,-1.0490000000000002,-0.136,-21.2567418,-19.652459399999998,-15.756345,89.6965749,4.8414951,-29.73079062
2.52,252,0.021,-1.077,-0.13,-20.5691922,-19.7097552,-14.8396122,89.47312128,4.99619376,-29.93132592
2.53,253,0.057,-1.101,-0.125,-21.199446,-20.1108258,-12.776963400000001,89.24393807999998,5.1222445200000015,-30.13186122
2.54,254,0.094,-1.1059999999999999,-0.099,-22.4599536,-22.803728399999997,-10.4278356,88.99756613999998,5.22537696,-30.36104442
2.55,255,0.128,-1.082,-0.07,-23.319390600000002,-27.501984000000004,-8.021412000000002,88.72827588,5.31705024,-30.64752342
2.56,256,0.14800000000000002,-1.048,-0.054000000000000006,-22.4026578,-31.1689152,-7.2765666,88.47617436,5.385805199999999,-30.95692074
2.57,257,0.15,-1.022,-0.039,-20.5118964,-34.0337052,-7.7922288,88.24126158,5.466019319999999,-31.30069554
2.5799999999999996,258,0.136,-1.003,-0.03,-18.9649098,-35.7525792,-9.3392154,88.01780796,5.5519630200000005,-31.66165908
2.59,259,0.11800000000000001,-0.986,-0.024,-16.8449652,-36.096354,-11.3445684,87.81727266,5.66082504,-32.0283522
2.5999999999999996,260,0.096,-0.976,-0.012,-15.527161800000002,-35.695283399999994,-12.891555,87.62819652,5.781146219999999,-32.38358616
2.61,261,0.07,-0.97,0.004,-14.32395,-35.0650296,-13.750992000000002,87.45057954,5.9129265600000025,-32.7445497
2.6199999999999997,262,0.044000000000000004,-0.9670000000000001,0.013999999999999999,-14.037471,-33.804522,-13.8082878,87.27296256,6.0447069,-33.08832450000001
2.63,263,0.021,-0.953,0.016,-14.4958374,-30.7105488,-13.0634424,87.09534558,6.165028080000001,-33.39772182
2.6399999999999997,264,0.004,-0.941,0.015,-14.8396122,-27.559279800000002,-12.032118,86.91772859999998,6.2796196800000015,-33.67847124
2.65,265,-0.003,-0.937,0.011000000000000001,-15.126091199999998,-23.835052800000003,-11.1153852,86.75157078,6.35410422,-33.9191136
2.6599999999999997,266,0.0,-0.9329999999999999,0.004,-16.042824000000003,-19.308684600000007,-10.3705398,86.56822422,6.451507079999999,-34.1196489
2.67,267,0.009000000000000001,-0.924,0.004,-17.7044022,-15.813640800000002,-10.084060800000001,86.37341849999999,6.543180359999999,-34.28580672
2.6799999999999997,268,0.027000000000000003,-0.912,0.0,-18.506543399999998,-13.178034,-10.3705398,86.17288319999999,6.640583220000001,-34.42331664
2.69,269,0.053,-0.907,-0.009000000000000001,-19.480572,-10.5424272,-11.0007936,85.96088874,6.743715660000001,-34.53790823999999
2.6999999999999997,270,0.085,-0.912,-0.03,-21.4286292,-7.5630456000000015,-12.0894138,85.73743512,6.85257768,-34.62385194
2.71,271,0.114,-0.9209999999999999,-0.051,-24.064236,-5.3285094000000015,-12.776963400000001,85.48533359999998,6.97862844,-34.68687732
2.7199999999999998,272,0.131,-0.924,-0.057,-25.55392680000001,-6.589017,-12.9488508,85.21604334,7.098949620000001,-34.767091439999994
2.73,273,0.142,-0.9209999999999999,-0.057,-26.5279554,-9.0527364,-12.891555,84.93529392,7.2192707999999985,-34.870223880000005
2.7399999999999998,274,0.14800000000000002,-0.917,-0.057,-27.7311672,-11.0007936,-12.5477802,84.63735576,7.333862399999999,-34.99627464
2.75,275,0.149,-0.9109999999999999,-0.066,-28.9916748,-12.318597,-11.745639,84.32222886000002,7.448453999999999,-35.133784559999995
2.76,276,0.133,-0.907,-0.079,-28.7051958,-13.636400400000001,-10.7716104,84.01283154000002,7.54012728,-35.28275364
2.77,277,0.099,-0.897,-0.055,-26.814434400000003,-16.7303736,-10.1413566,83.72062296,7.62607098,-35.46610020000001
2.78,278,0.053,-0.885,-0.026000000000000002,-22.345361999999998,-20.7983754,-10.084060800000001,83.46852143999998,7.7062851,-35.68382424
2.79,279,0.022000000000000002,-0.884,-0.002,-16.959556799999998,-22.803728399999997,-10.3705398,83.26798613999998,7.78649922,-35.9244666
2.8,280,0.006999999999999999,-0.885,0.02,-13.464512999999998,-21.7151082,-10.1413566,83.13047622,7.838065440000001,-36.14219064
2.81,281,0.006999999999999999,-0.889,0.049,-10.3705398,-19.308684600000007,-9.396511199999999,82.99869588,7.91254998,-36.34845552
2.82,282,0.028999999999999998,-0.904,0.068,-8.136003599999999,-15.5844576,-8.193299399999999,82.89556344,7.975575359999999,-36.51461334
2.8299999999999996,283,0.065,-0.925,0.07400000000000001,-6.990087599999999,-10.7143146,-6.5317212,82.80961973999997,8.03287116,-36.62920494
2.84,284,0.105,-0.9440000000000001,0.076,-7.1046792000000005,-6.589017,-3.8388186,82.72367604,8.06151906,-36.6979599
2.8499999999999996,285,0.136,-0.9590000000000001,0.071,-6.3025379999999975,-4.4690724,-0.6875496,82.81534932000002,8.07297822,-36.70368948
2.86,286,0.166,-0.9790000000000001,0.07,-4.4690724,-5.1566220000000005,3.6096353999999997,82.76378309999998,8.02714158,-36.74952612
2.8699999999999997,287,0.179,-0.9990000000000001,0.062,-1.3750992,-8.3651868,7.6203414,82.74086478000002,7.94692746,-36.82401066
2.88,288,0.183,-1.021,0.04,2.3491277999999998,-12.5477802,11.0007936,82.75232394,7.82660628,-36.93860226
2.8899999999999997,289,0.183,-1.06,-0.005,5.3858052,-15.870936600000002,13.521808800000002,82.79243100000002,7.677637200000001,-37.07611218
2.9,290,0.163,-1.127,-0.096,6.3598338,-17.246035799999998,14.667724800000002,82.83253806,7.51720896,-37.23081084
2.9099999999999997,291,0.111,-1.23,-0.22899999999999998,7.161975,-15.6417534,12.834259199999998,82.88983386,7.37396946,-37.36832076
2.92,292,0.036000000000000004,-1.347,-0.302,13.3499214,-12.6623718,6.8182002000000015,83.01015504,7.29948492,-37.48864194
2.9299999999999997,293,-0.052000000000000005,-1.433,-0.38,19.4232762,-11.401864199999999,-1.2032118,83.19923118,7.29948492,-37.59750396
2.94,294,-0.159,-1.3880000000000001,-0.618,31.340802600000004,-22.86102420000001,-8.136003599999999,83.48571018,7.3625102999999985,-37.83241674
2.9499999999999997,295,-0.188,-1.3359999999999999,-0.449,32.4294228,-44.404245,-4.2398892,83.76073002,7.3567807200000015,-38.27359439999999
2.96,296,-0.091,-1.217,-0.079,28.877083199999998,-39.247623,8.7089616,84.00710196,7.242189120000001,-38.65174668
2.9699999999999998,297,0.018000000000000002,-1.19,-0.10400000000000001,30.882436199999997,-24.2361234,23.14750320000001,84.29931054,6.99581718,-38.86374114
2.98,298,0.127,-1.2209999999999999,-0.191,33.1742682,-13.464512999999998,33.116972399999995,84.62589659999998,6.66350154,-38.96687358000001
2.9899999999999998,299,0.235,-1.253,-0.146,38.38818600000001,-11.3445684,39.9924684,85.00977845999998,6.26243094,-39.04135812
3.0,300,0.305,-1.2819999999999998,-0.11900000000000001,37.81522800000001,-13.521808800000002,43.7166954,85.38793074,5.83844202,-39.13876098
3.01,301,0.34600000000000003,-1.261,-0.14400000000000002,37.299565799999996,-18.048177,44.8053156,85.75462386000002,5.39153478,-39.28200048
3.02,302,0.327,-1.158,-0.20800000000000002,33.9191136,-21.657812399999997,42.1697088,86.0869395,4.96181628,-39.45961746
3.03,303,0.255,-1.016,-0.22899999999999998,30.137590799999998,-25.2674478,37.013086799999996,86.37914808000002,4.58939358,-39.68880066
3.04,304,0.16899999999999998,-0.925,-0.26,28.9916748,-26.7571386,31.741873200000004,86.65416791999998,4.2685371,-39.92944302
3.05,305,0.07,-0.865,-0.27899999999999997,28.2468294,-27.3300966,27.215505,86.89481028,3.99351726,-40.1930037
3.06,306,-0.040999999999999995,-0.8190000000000001,-0.284,26.7571386,-27.6165756,23.491278,87.15264138,3.75860448,-40.4508348
3.07,307,-0.138,-0.777,-0.28,25.55392680000001,-25.55392680000001,20.3973048,87.39901332,3.5523396000000003,-40.69147716
3.08,308,-0.187,-0.764,-0.28300000000000003,25.6112226,-20.05353,17.9908812,87.65111484,3.37472262,-40.8805533
3.09,309,-0.20199999999999999,-0.8029999999999999,-0.278,25.78311,-13.464512999999998,16.7876694,87.90894594,3.2085648000000004,-41.00660406
3.0999999999999996,310,-0.203,-0.8740000000000001,-0.276,25.7258142,-7.734933000000002,16.959556799999998,88.10948124000002,2.99084076,-41.0810886
3.11,311,-0.196,-0.9329999999999999,-0.262,25.210151999999997,-0.9167328000000001,17.475219,88.36731234,2.81895336,-41.0810886
3.1199999999999997,312,-0.161,-0.9620000000000001,-0.223,25.382039399999996,4.4117766,18.162768600000003,88.63087302,2.6413363800000003,-41.02952238
3.13,313,-0.11800000000000001,-0.97,-0.18100000000000002,25.7258142,9.3392154,18.506543399999998,88.89443370000002,2.45798982,-40.93211952
3.1399999999999997,314,-0.08800000000000001,-0.953,-0.141,26.069589,13.5791046,17.5325148,89.16372396,2.28610242,-40.78888002
3.15,315,-0.066,-0.937,-0.12300000000000001,27.100913399999996,17.7044022,14.610429000000002,89.42155505999996,2.13140376,-40.61126304
3.1599999999999997,316,-0.009000000000000001,-0.9670000000000001,-0.105,29.9657034,22.2307704,13.2926256,89.73095237999998,1.99389384,-40.38780942
3.17,317,-0.027000000000000003,-0.992,-0.092,29.163562199999998,24.8663772,12.605075999999999,90.03462012,1.86784308,-40.14143748
3.1799999999999997,318,-0.035,-1.008,-0.08199999999999999,27.788463,26.1841806,10.943497800000001,90.32109912,1.75325148,-39.877876799999996
3.19,319,-0.040999999999999995,-1.021,-0.087,25.4393352,26.1841806,10.084060800000001,90.5846598,1.64438946,-39.62004570000001
3.1999999999999997,320,-0.055999999999999994,-1.0270000000000001,-0.08800000000000001,22.91832,24.522602399999997,9.1100322,90.79665426,1.52979786,-39.37367376
3.21,321,-0.066,-1.022,-0.094,20.7410796,22.631841,7.7922288,91.00864872,1.44385416,-39.15022014
3.2199999999999998,322,-0.069,-1.002,-0.09,18.8503182,21.0848544,6.417129599999999,91.20345444,1.3750992,-38.94395526
3.23,323,-0.063,-0.98,-0.061,18.449247600000003,18.907614,5.0993262,91.39253058,1.31207382,-38.75487912000001
3.2399999999999998,324,-0.054000000000000006,-0.956,-0.037000000000000005,17.8189938,17.8189938,2.8074942000000003,91.57587714,1.27769634,-38.57726214
3.25,325,-0.048,-0.9309999999999999,-0.005,17.4179232,17.6471064,0.0,91.74203496,1.24904844,-38.39964516
3.26,326,-0.052000000000000005,-0.912,-0.002,15.4125702,19.767051000000002,-2.5783110000000002,91.9024632,1.26623718,-38.19910986
3.27,327,-0.055,-0.9129999999999999,-0.031,13.0634424,23.0902074,-3.0939732,92.03424354,1.28342592,-37.96992666
3.28,328,-0.026000000000000002,-0.9129999999999999,-0.071,11.3445684,25.152856200000002,-2.0053530000000004,92.15456472,1.2891555,-37.71782514
3.29,329,-0.013000000000000001,-0.9279999999999999,-0.044000000000000004,12.032118,23.491278,-0.40107059999999994,92.28061548,1.27769634,-37.48291236
3.3,330,-0.002,-0.935,-0.018000000000000002,10.886202,21.0848544,0.6875496,92.36655918,1.25477802,-37.28237706
3.31,331,-0.004,-0.912,-0.024,7.448453999999999,19.9962342,0.572958,92.44104372,1.23758928,-37.08184176
3.32,332,-0.025,-0.885,-0.017,5.3285094000000015,19.4232762,0.0,92.49833952,1.22613012,-36.88703604
3.33,333,-0.055,-0.879,0.001,5.443101,19.365980399999998,-0.286479,92.55563532,1.21467096,-36.6979599
3.34,334,-0.077,-0.893,0.013999999999999999,5.5576926,20.2254174,0.057295800000000015,92.61293112,1.19748222,-36.4974246
3.3499999999999996,335,-0.096,-0.904,0.019,5.3285094000000015,21.772404,0.572958,92.65876776,1.13445684,-36.27397098
3.36,336,-0.11699999999999999,-0.912,0.013999999999999999,4.8701430000000006,22.345361999999998,1.0313244000000001,92.71033398,1.11153852,-36.05624694
3.3699999999999997,337,-0.134,-0.9079999999999999,0.062,4.297185,23.5485738,1.7188740000000002,92.75617062,1.07716104,-35.82133416
3.38,338,-0.132,-0.879,0.081,5.0993262,25.496631,2.1199446,92.80773684,1.03705398,-35.56923264
3.3899999999999997,339,-0.136,-0.875,0.08199999999999999,7.0473834,28.533308399999996,2.0626488000000003,92.88222138,0.9912173399999998,-35.28848322
3.4,340,-0.138,-0.8759999999999999,0.099,7.2192707999999985,31.2835068,1.4896908000000002,92.97389466,0.91100322,-34.97335632
3.4099999999999997,341,-0.131,-0.872,0.133,7.1046792000000005,33.6326346,0.9167328000000001,93.04264962,0.87662574,-34.64104068
3.42,342,-0.11,-0.86,0.16699999999999998,9.682990199999999,36.2682414,0.4583664000000001,93.14578206000002,0.8422482600000001,-34.28007714
3.4299999999999997,343,-0.08199999999999999,-0.861,0.20199999999999999,12.1467096,39.018439799999996,-0.7448454000000001,93.26610324,0.8193299399999999,-33.89619528
3.44,344,-0.059000000000000004,-0.853,0.218,11.6310474,41.3102718,-2.9220858,93.38642442,0.8136003599999999,-33.48366552
3.4499999999999997,345,-0.052000000000000005,-0.833,0.195,12.834259199999998,43.602103799999995,-6.2452422,93.53539350000001,0.8250595199999999,-33.048217439999995
3.46,346,-0.045,-0.813,0.17600000000000002,15.2406828,46.638781200000004,-9.8548776,93.69009216,0.8823553199999999,-32.57839188
3.4699999999999998,347,-0.051,-0.794,0.193,18.6784308,48.5868384,-12.7196676,93.88489788,0.96829902,-32.09137758
3.48,348,-0.065,-0.767,0.213,23.5485738,48.2430636,-14.667724800000002,94.12554024,1.06570188,-31.5986337
3.4899999999999998,349,-0.078,-0.73,0.273,28.4760126,48.2430636,-15.3552744,94.41774882,1.1745639,-31.111619399999995
3.5,350,-0.08800000000000001,-0.693,0.317,33.6899304,48.8160216,-15.126091199999998,94.79017152,1.2605076000000002,-30.607416359999995
3.51,351,-0.106,-0.6659999999999999,0.313,39.47680620000001,49.90464179999999,-14.037471,95.19124212,1.3464512999999998,-30.10321332
3.52,352,-0.11599999999999999,-0.657,0.295,44.06047020000001,52.8840234,-12.9488508,95.64960852,1.40947668,-29.5646328
3.53,353,-0.121,-0.6809999999999999,0.295,48.7587258,55.86340500000001,-11.917526400000002,96.14808198,1.4610428999999998,-28.99740438
3.54,354,-0.105,-0.746,0.293,52.5975444,58.0406454,-11.688343199999998,96.6866625,1.50114996,-28.40725764
3.55,355,-0.052000000000000005,-0.8220000000000001,0.281,52.6548402,61.191914399999995,-13.2926256,97.24816134,1.5412570200000002,-27.78273342
3.56,356,0.002,-0.888,0.287,51.68081160000001,64.3431834,-16.959556799999998,97.78101228,1.61001198,-27.129561300000002
3.57,357,0.032,-0.9470000000000001,0.26899999999999996,49.90464179999999,64.8588456,-21.944291399999997,98.29667448,1.7188740000000002,-26.45920044
3.58,358,0.028999999999999998,-0.998,0.223,46.466893799999994,61.07732280000001,-25.4393352,98.77795919999998,1.86784308,-25.81748748
3.59,359,0.031,-1.04,0.177,44.0031744,48.7587258,-24.350715,99.23632559999999,2.02254174,-25.30182528000001
3.5999999999999996,360,0.062,-1.135,0.048,43.65939960000001,40.7373138,-19.652459399999998,99.67177368,2.14286292,-24.87210678000001
3.61,361,0.162,-1.275,-0.08900000000000001,41.5967508,38.961144,-11.6310474,100.10149218,2.18296998,-24.4653066
3.6199999999999997,362,0.272,-1.39,-0.168,37.4714532,37.24227,-0.9740286,100.49110362000002,2.1199446,-24.098613480000004
3.63,363,0.342,-1.42,-0.218,33.2888598,28.418716800000002,10.599723,100.83487842,1.9595163600000003,-23.84078238
3.6399999999999997,364,0.36200000000000004,-1.337,-0.24600000000000002,35.5806918,18.907614,17.7044022,101.20157154,1.7475218999999995,-23.68608372000001
3.65,365,0.33299999999999996,-1.218,-0.221,40.966497,13.178034,18.1054728,101.57399424000002,1.5756344999999998,-23.605869600000002
3.6599999999999997,366,0.289,-1.159,-0.225,43.029145799999995,11.3445684,13.521808800000002,102.0151719,1.4209358399999998,-23.51419632
3.67,367,0.252,-1.127,-0.258,44.175061799999995,13.3499214,7.734933000000002,102.46207914,1.3178034,-23.39960472
3.6799999999999997,368,0.21600000000000005,-1.1059999999999999,-0.258,43.20103320000001,19.136797199999997,5.042030400000002,102.9032568,1.22613012,-23.22198774
3.69,369,0.174,-1.078,-0.247,36.32553720000001,23.3766864,7.8495246,103.27567950000001,1.0886202,-23.00999328
3.6999999999999997,370,0.092,-1.056,-0.24100000000000002,30.080295,20.626488000000002,14.9542038,103.50486270000002,0.91100322,-22.85529462
3.71,371,0.011000000000000001,-1.056,-0.23399999999999999,28.533308399999996,15.297978599999999,22.2880662,103.79707128,0.6589017,-22.75789176
3.7199999999999998,372,-0.035,-1.084,-0.218,31.627281600000003,11.2299768,27.6165756,104.11792776,0.36096354,-22.71205512
3.73,373,-0.045,-1.128,-0.161,38.27359439999999,6.1879464,30.366774000000003,104.50180962,0.057295800000000015,-22.72351428
3.7399999999999998,374,-0.027000000000000003,-1.157,-0.07400000000000001,45.0917946,-0.057295800000000015,28.4760126,104.96017602,-0.20626488,-22.792269240000003
3.75,375,0.03,-1.161,0.034,52.3110654,-4.583664,22.631841,105.46437906,-0.4010706000000001,-22.89540168
3.76,376,0.10400000000000001,-1.1320000000000001,0.066,59.4157446,-2.6929026,16.4438946,106.07171454000002,-0.5443101,-22.95842706
3.77,377,0.18100000000000002,-1.063,0.085,64.8588456,0.0,10.7716104,106.73061624,-0.64744254,-22.98134538
3.78,378,0.223,-0.95,0.10800000000000001,71.5624542,0.1718874,6.2452422,107.45254332000002,-0.70473834,-22.98707496
3.79,379,0.204,-0.855,0.157,78.2660628,-2.5783110000000002,2.6929026,108.24895494,-0.7161975,-23.00999328
3.8,380,0.14800000000000002,-0.77,0.267,82.62054359999998,-7.161975,-0.6302538000000001,109.09120320000001,-0.66463128,-23.06728908
3.81,381,0.06,-0.69,0.359,85.1988546,-9.167328,-3.4377480000000005,109.95636978,-0.59587632,-23.12458488
3.82,382,-0.021,-0.6579999999999999,0.395,87.83446140000002,-6.9327918,-4.5263682,110.85018426000002,-0.52139178,-23.16469194
3.83,383,-0.044000000000000004,-0.606,0.355,89.1522648,0.5156622000000001,-4.2398892,111.75545789999998,-0.48128472,-23.13031446
3.84,384,-0.028999999999999998,-0.563,0.33,92.3035338,3.4377480000000005,-2.1772404,112.68937944,-0.47555514,-23.07874824
3.8499999999999996,385,0.019,-0.537,0.324,93.6213372,3.4377480000000005,1.0886202,113.6462193,-0.4870143000000001,-23.03864118
3.86,386,0.107,-0.528,0.28600000000000003,92.246238,2.9793816000000004,4.1825934,114.58014084,-0.53858052,-23.015722860000004
3.8699999999999997,387,0.21100000000000002,-0.514,0.294,85.37074199999998,-0.3437748,5.72958,115.45103700000001,-0.5844171599999999,-23.032911600000002
3.88,388,0.292,-0.486,0.35100000000000003,75.68775179999999,-6.990087599999999,6.130650599999999,116.21880072,-0.6073354799999999,-23.11312572
3.8899999999999997,389,0.32299999999999995,-0.42200000000000004,0.33899999999999997,64.8588456,-14.037471,5.9014674000000005,116.88343200000001,-0.59014674,-23.25063564
3.9,390,0.264,-0.35100000000000003,0.21100000000000002,56.264475600000004,-26.069589,4.6982555999999995,117.45066042,-0.48128472,-23.49700758
3.9099999999999997,391,0.18,-0.20800000000000002,0.024,46.696077,-43.7166954,1.0313244000000001,117.93767472,-0.28074942,-23.87515986
3.92,392,0.091,-0.039,-0.066,38.38818600000001,-60.045998399999995,-2.9220858,118.33301574,0.03437748,-24.36790374
3.9299999999999997,393,0.038,0.076,-0.16,35.2942128,-71.1040878,-6.6463128000000005,118.69970886,0.44690724,-24.94086174
3.94,394,0.016,0.106,-0.213,32.4294228,-78.89631659999998,-10.084060800000001,119.0320245,0.93392154,-25.55965638
3.9499999999999997,395,0.006,0.034,-0.21899999999999997,27.6165756,-88.35012359999996,-9.224623800000002,119.28412602,1.4610428999999998,-26.27012430000001
3.96,396,-0.053,-0.11,-0.198,25.496631,-99.23632559999999,-2.7501984,119.53622754,1.99389384,-27.09518382
3.9699999999999998,397,-0.142,-0.256,-0.129,24.350715,-108.51824520000001,7.3911582,119.75968116,2.48663772,-28.0462941
3.98,398,-0.228,-0.309,-0.08800000000000001,26.8717302,-114.3624168,18.7357266,120.00032351999998,2.91635622,-29.100536819999995
3.9899999999999998,399,-0.345,-0.251,-0.177,31.2835068,-108.69013259999998,25.55392680000001,120.27534336,3.26013102,-30.1375908
4.0,400,-0.419,-0.14300000000000002,-0.28300000000000003,33.002380800000005,-99.0071424,24.1215318,120.54463362,3.54661002,-31.08870108
4.01,401,-0.434,-0.013000000000000001,-0.325,31.51269000000001,-95.34021120000001,19.308684600000007,120.81965346,3.88465524,-31.982515560000003
4.02,402,-0.442,0.08900000000000001,-0.223,26.5852512,-98.6060718,12.1467096,121.03737749999999,4.30291458,-32.86487088
4.03,403,-0.44,0.151,-0.078,16.4438946,-101.2416786,5.7868758000000025,121.15196909999999,4.79565846,-33.74149662000001
4.04,404,-0.40299999999999997,0.183,0.011000000000000001,2.5783110000000002,-97.40286,2.4637194,121.11759161999998,5.29413192,-34.56655614
4.05,405,-0.34,0.22,-0.002,-12.7196676,-83.3080932,3.6669312000000014,120.92851548000002,5.6837433599999985,-35.28848322
4.06,406,-0.311,0.268,-0.256,-19.9389384,-57.2958,5.5003968,120.68214354,5.94157446,-35.79841584000001
4.07,407,-0.32899999999999996,0.28800000000000003,-0.36200000000000004,-13.464512999999998,-49.7900502,2.291832,120.50452656,6.18221682,-36.22813434
4.08,408,-0.366,0.155,-0.337,3.6669312000000014,-47.555514,-7.906820400000001,120.51025614,6.5030733,-36.58909788
4.09,409,-0.409,-0.048,-0.191,25.8977016,-53.11320660000001,-19.8243468,120.73943934000002,6.94998054,-36.93287268
4.1,410,-0.28800000000000003,-0.405,0.4370000000000001,53.4569814,-39.0757356,-32.4294228,121.28947902,7.408346939999999,-37.07611218
4.109999999999999,411,0.266,-0.919,0.373,41.6540466,37.52874900000001,-54.4883058,121.78795248,7.66617804,-36.46877670000001
4.12,412,0.456,-1.415,-0.42,71.67704579999999,69.6716928,-55.80610920000001,122.62447116,7.75212174,-35.5806918
4.13,413,0.636,-2.3930000000000002,0.157,82.04758559999998,49.4462754,-36.38283300000001,123.53547438,7.7750400599999985,-34.96762674
4.14,414,0.677,-2.7089999999999996,1.077,45.2063862,-37.757932200000006,-1.0886202,123.95373372,8.00422326,-35.25983532
4.1499999999999995,415,0.292,-1.218,0.96,-50.47759979999999,-97.40286,13.407217200000002,123.34639823999998,8.45686008,-36.13073148
4.16,416,0.18100000000000002,-0.225,0.705,-40.04976420000001,-30.022999199999997,3.2658606,122.90522058000002,8.594370000000001,-36.40575132
4.17,417,0.094,0.039,0.631,52.82672760000001,47.211739200000004,-16.959556799999998,123.50682648,8.47404882,-35.91300744
4.18,418,0.049,-0.106,0.21,107.3150334,81.0162612,-25.496631,124.70430870000001,8.21621772,-35.09940708000001
4.1899999999999995,419,-0.081,-0.254,-0.187,109.8360486,64.6869582,-16.558486199999994,125.90179092,7.9641161999999985,-34.46915328
4.2,420,-0.20199999999999999,-0.37,-0.204,87.8917572,14.209358400000001,6.417129599999999,126.7669575,7.80941754,-34.38893916
4.21,421,-0.005,-0.368,-0.267,65.317212,-23.892348600000002,23.605869600000002,127.39148172,7.76931048,-34.70979564
4.22,422,0.307,-0.306,-0.389,61.07732280000001,-41.5967508,25.382039399999996,127.95298056,7.8323358600000015,-35.17962120000001
4.2299999999999995,423,0.314,-0.324,-0.301,67.66633979999999,-54.3164184,29.9657034,128.56604562,7.94119788,-35.77549752
4.24,424,0.146,-0.381,-0.17300000000000001,64.9161414,-49.2170922,31.3980984,129.15619236,8.015682420000001,-36.33699636
4.25,425,-0.019,-0.4320000000000001,-0.268,58.0979412,-38.5027776,26.41336380000001,129.63174750000002,8.05578948,-36.80682192
4.26,426,-0.23,-0.544,-0.424,49.388979600000006,-26.814434400000003,23.14750320000001,130.09011389999998,8.05578948,-37.15059672
4.27,427,-0.354,-0.5820000000000001,-0.457,35.695283399999994,-16.329303,24.9809688,130.41669996000002,7.975575359999999,-37.42561656
4.28,428,-0.271,-0.519,-0.402,31.913760600000003,-14.4958374,24.9809688,130.70317896,7.88390208,-37.69490682
4.29,429,0.099,-0.507,-0.163,43.65939960000001,-21.944291399999997,16.8449652,131.11570872,7.90109082,-37.9584675
4.3,430,0.701,-0.743,0.375,79.06820400000002,-46.3523022,6.3598338,131.86055412000002,8.193299399999999,-38.33661978
4.31,431,1.284,-1.876,0.8320000000000001,88.4647152,-64.8015498,-2.0053530000000004,132.70280238,8.651665800000002,-38.77779744
4.32,432,0.895,-3.135,1.123,253.1328444,-36.669312,84.91237559999998,135.15506262,8.28497268,-39.59712738
4.33,433,-0.568,-0.391,3.687,1300.5000684000001,153.03708179999995,49.4462754,148.41904032,6.7150677599999975,-38.89238904
4.34,434,0.061,-3.1039999999999996,3.989,38.961144,0.6302538000000001,-30.022999199999997,148.84302924000005,6.86403684,-38.62882836
4.35,435,1.807,-2.376,3.9989999999999997,74.31265259999998,122.7848994,-8.5370742,149.65662959999997,5.844171599999999,-37.95273792
4.36,436,0.635,-2.662,3.889,117.34179840000002,81.07355700000002,34.4920716,150.84838224,4.96181628,-37.84960548
4.37,437,0.253,-1.235,2.499,171.31444199999999,5.6722842,2.86479,152.59017456,4.88733174,-37.82668716
4.38,438,-0.307,-0.526,1.2,159.7979862,-25.78311,-32.4294228,154.23456402,5.24829528,-37.62615186
4.39,439,-0.26,-0.40299999999999997,0.159,143.9270496,-36.955791,-41.0237928,155.71852524000005,5.7467687399999985,-37.3855095
4.3999999999999995,440,0.076,-0.047,-0.38,135.04620060000002,-44.06047020000001,-33.518043,157.07070612,6.2796196800000015,-37.24227000000001
4.41,441,-0.138,-0.16699999999999998,-0.47,113.2737966,-43.3729206,-30.7678446,158.24527002,6.7895523,-37.0990305
4.42,442,-0.16,0.145,0.128,107.143146,-48.9306132,-27.960350399999996,159.35107896,7.33959198,-36.984438899999994
4.43,443,-0.1,-0.16899999999999998,0.552,100.61142480000001,-53.285093999999994,-31.111619399999995,160.39386252,7.935468299999997,-36.85265856
4.4399999999999995,444,0.011000000000000001,-0.262,0.86,97.116381,-35.0650296,-25.55392680000001,161.40799818,8.34226848,-36.70368948
4.45,445,0.125,-0.17300000000000001,0.9079999999999999,96.6007188,-19.079501399999998,-20.6837838,162.42786342,8.57718126,-36.54326124
4.46,446,0.16699999999999998,-0.147,0.8220000000000001,102.4448904,-20.2827132,-17.8189938,163.48783572,8.81209404,-36.41721048
4.47,447,0.07,-0.25,0.847,96.19964820000001,-21.772404,-13.178034,164.47905306,9.0527364,-36.33126678
4.4799999999999995,448,0.06,-0.408,1.032,92.246238,-26.2987722,-10.886202,165.43016334,9.32202666,-36.27970056
4.49,449,0.07,-0.423,1.146,86.63124959999998,-31.627281600000003,-8.307891,166.31251866,9.64288314,-36.25678224
4.5,450,0.139,-0.36,1.189,80.32871159999998,-37.81522800000001,-6.9327918,167.1318486,10.01530584,-36.25678224
4.51,451,0.24100000000000002,-0.27399999999999997,1.193,76.60448459999998,-41.1383844,-6.703608600000001,167.91107148,10.42210602,-36.26251182
4.52,452,0.24600000000000002,-0.3,1.196,68.35388940000001,-41.5967508,-5.844171599999999,168.61008024,10.8289062,-36.2682414
4.53,453,0.24100000000000002,-0.258,1.185,57.8114622,-43.20103320000001,-6.0733548,169.20022698,11.258624699999999,-36.27397098
4.54,454,0.201,-0.22,1.216,47.6128098,-46.2377106,-5.6149884000000005,169.68724128,11.7169911,-36.28543014
4.55,455,0.172,-0.19399999999999998,1.153,40.10706,-44.34694920000001,-5.443101,170.09977104,12.1467096,-36.29115972
4.56,456,0.183,-0.244,1.0290000000000001,33.0596766,-40.5654264,-5.6722842,170.43781626,12.55350978,-36.29115972
4.57,457,0.16699999999999998,-0.213,0.889,25.152856200000002,-35.0077338,-5.6722842,170.70137694,12.903014159999998,-36.27970056
4.58,458,0.17300000000000001,-0.267,0.8109999999999999,16.1001198,-27.1582092,-4.7555514,170.87326434,13.17230442,-36.2682414
4.59,459,0.187,-0.281,0.8029999999999999,6.6463128000000005,-20.7410796,-3.1512689999999997,170.94201930000003,13.38429888,-36.26251182
4.6,460,0.21899999999999997,-0.272,0.7559999999999999,-0.40107059999999994,-10.1413566,-1.8907614,170.83888686,13.51607922,-36.2968893
4.61,461,0.259,-0.28800000000000003,0.79,-4.583664,5.2712136,-1.0886202,170.79305022,13.464513,-36.27970056
4.62,462,0.303,-0.268,0.8009999999999999,-9.3392154,21.0848544,1.0313244000000001,170.70137694,13.25824812,-36.26251182
4.63,463,0.255,-0.21,0.836,-13.120738199999998,33.002380800000005,3.0939732,170.56386702,12.93166206,-36.24532308
4.64,464,0.22699999999999998,-0.17300000000000001,0.919,-13.5791046,44.2896534,4.583664,170.4263571,12.4904844,-36.23386392
4.6499999999999995,465,0.18100000000000002,-0.16899999999999998,1.0190000000000001,-13.5791046,53.68616460000001,6.2452422,170.2831176,11.946174300000001,-36.22240476
4.66,466,0.18600000000000005,-0.19699999999999998,1.17,-11.45916,61.6502808,7.2192707999999985,170.16279642,11.33310924,-36.20521602
4.67,467,0.243,-0.231,1.33,-9.0527364,70.1300592,6.7609043999999985,170.06539356,10.63410048,-36.17083854
4.68,468,0.21899999999999997,-0.267,1.304,-9.453807,74.0834694,5.443101,169.9679907,9.906443820000002,-36.11927232
4.6899999999999995,469,0.105,-0.252,1.138,-11.6310474,71.7343416,5.0993262,169.84766952,9.1959759,-36.06197652
4.7,470,0.066,-0.23399999999999999,0.9640000000000001,-15.3552744,71.7343416,6.3025379999999975,169.6815117,8.479778399999999,-36.02186946
4.71,471,0.098,-0.239,0.8540000000000001,-15.9855282,74.88561059999998,7.0473834,169.51535388,7.734933000000002,-35.9817624
4.72,472,0.099,-0.255,0.875,-13.407217200000002,71.61975,6.3025379999999975,169.37784396,7.0244650800000015,-35.93019618
4.7299999999999995,473,0.107,-0.262,0.9740000000000001,-7.9641161999999985,63.48374640000001,5.2139178,169.29190026,6.39421128,-35.88435954
4.74,474,0.146,-0.24,1.0759999999999998,-1.0313244000000001,58.78549079999999,3.6096353999999997,169.28044110000005,5.815523699999999,-35.82706374
4.75,475,0.133,-0.248,1.0859999999999999,2.4637194,57.63957480000001,2.1199446,169.29190026,5.25402486,-35.75830878
4.76,476,0.083,-0.276,1.038,3.8961144,54.6601932,1.3178034,169.33200731999997,4.71544434,-35.68955382
4.77,477,0.049,-0.287,1.004,7.6203414,52.9413192,0.7448454000000001,169.40649186000005,4.19978214,-35.60933970000001
4.78,478,0.023,-0.289,1.01,11.3445684,51.1651494,0.2291832000000001,169.52108346,3.6955791,-35.53485516
4.79,479,0.01,-0.276,1.0070000000000001,12.776963400000001,48.5868384,0.0,169.64713422000003,3.22002396,-35.46037062
4.8,480,0.008,-0.265,0.991,12.1467096,45.4355694,0.0,169.75026666,2.76738714,-35.39161566
4.81,481,-0.002,-0.263,0.98,10.1413566,41.76863820000001,-0.1718874,169.8533991,2.36058696,-35.32859028
4.82,482,0.003,-0.259,0.971,7.6776372,38.27359439999999,-0.3437748,169.92788364,1.98243468,-35.2655649
4.83,483,0.018000000000000002,-0.258,0.968,4.9274388,32.6013102,-0.5156622000000001,169.97372028,1.6673077799999998,-35.21399868
4.84,484,-0.027999999999999997,-0.263,0.966,2.6929026,27.501984000000004,-0.572958,169.99663859999995,1.39801752,-35.16816204
4.85,485,-0.03,-0.248,0.94,1.8334656000000005,23.777757,-0.8594370000000001,169.97944986,1.13445684,-35.122325399999994
4.86,486,-0.012,-0.231,0.93,0.4583664000000001,22.345361999999998,-0.572958,169.97944986,0.9167328,-35.08794792
4.87,487,-0.026000000000000002,-0.23399999999999999,0.915,-0.6302538000000001,20.3973048,-0.8594370000000001,169.9679907,0.7161975,-35.04784086
4.88,488,-0.023,-0.226,0.903,-2.1772404,19.480572,-0.9740286,169.94507238,0.53285094,-35.0077338
4.89,489,-0.026000000000000002,-0.231,0.902,-3.6096353999999997,18.7357266,-0.8021411999999999,169.90496532,0.34950438,-34.97335632
4.8999999999999995,490,-0.05,-0.24,0.9,-4.8128472,17.761698000000006,-0.8594370000000001,169.81329204000005,0.14323950000000002,-34.93897884
4.91,491,-0.059000000000000004,-0.249,0.904,-5.5576926,16.902261,-0.8021411999999999,169.75599624,-0.01145916,-34.90460136
4.92,492,-0.054000000000000006,-0.257,0.917,-6.1879464,15.4125702,-0.8021411999999999,169.68724128,-0.16042824,-34.87595346
4.93,493,-0.055,-0.268,0.9279999999999999,-6.9327918,14.5531332,-0.7448454000000001,169.61848632,-0.30366774,-34.84730556
4.9399999999999995,494,-0.059000000000000004,-0.27399999999999997,0.9390000000000001,-8.250595200000001,13.750992000000002,-0.6302538000000001,169.53254262,-0.43544808,-34.82438724000001
4.95,495,-0.052000000000000005,-0.278,0.95,-8.59437,12.834259199999998,-0.4583664000000001,169.38357354,-0.5786875800000001,-34.80146892
4.96,496,-0.053,-0.27899999999999997,0.965,-8.250595200000001,11.9748222,-0.286479,169.29762983999996,-0.69327918,-34.7785506
4.97,497,-0.05,-0.285,0.992,-7.5630456000000015,10.7716104,-0.40107059999999994,169.21741572,-0.79641162,-34.76136186
4.9799999999999995,498,-0.05,-0.28300000000000003,1.012,-6.417129599999999,8.7089616,-0.4583664000000001,169.14866075999996,-0.8823553199999999,-34.74417312
4.99,499,-0.057999999999999996,-0.284,1.0270000000000001,-5.3858052,5.6149884000000005,-0.3437748,169.09136496000005,-0.93392154,-34.72698438
5.0,500,-0.053,-0.294,1.0290000000000001,-4.010706000000001,1.6615782,-0.286479,168.85645218,-0.98548776,-34.73844354
5.01,501,-0.048,-0.289,1.024,-2.6929026,-2.4637194,-0.40107059999999994,168.82780428,-0.95683986,-34.73844354
5.02,502,-0.048,-0.29600000000000004,1.025,-1.145916,-6.990087599999999,-0.4583664000000001,168.81634512,-0.8880849000000001,-34.74417312
5.03,503,-0.046,-0.295,1.0170000000000001,0.1718874,-11.172680999999999,-0.5156622000000001,168.8220747,-0.7792228800000001,-34.75563228
5.04,504,-0.044000000000000004,-0.28800000000000003,1.001,1.2032118,-14.0947668,-0.6875496,168.83353386,-0.64171296,-34.772821019999995
5.05,505,-0.035,-0.28,0.985,1.7761698000000001,-16.1001198,-0.8021411999999999,168.79915638,-0.49274388,-34.79573934
5.06,506,-0.031,-0.27399999999999997,0.973,2.1772404,-17.9335854,-0.8021411999999999,168.82780428,-0.31512690000000004,-34.81865766
5.07,507,-0.026000000000000002,-0.27,0.9590000000000001,2.1772404,-19.194093,-0.8594370000000001,168.85072259999995,-0.12605075999999998,-34.84157598
5.08,508,-0.023,-0.267,0.9490000000000001,1.8334656000000005,-19.9389384,-0.8594370000000001,168.87364092,0.06302537999999999,-34.864494300000004
5.09,509,-0.02,-0.262,0.9329999999999999,1.145916,-20.5691922,-0.9167328000000001,168.88510007999997,0.26929026,-34.887412620000006
5.1,510,-0.016,-0.261,0.925,0.286479,-20.7983754,-0.9167328000000001,168.84499302,0.46409598,-34.91606052
5.11,511,-0.011000000000000001,-0.261,0.924,-0.7448454000000001,-20.1108258,-0.8594370000000001,168.83926344,0.66463128,-34.93897884
5.12,512,-0.006999999999999999,-0.261,0.9329999999999999,-2.0053530000000004,-19.480572,-0.9167328000000001,168.8220747,0.8537074199999999,-34.96189716
5.13,513,-0.006999999999999999,-0.262,0.9420000000000001,-2.86479,-19.079501399999998,-0.8594370000000001,168.79342680000005,1.04278356,-34.984815479999995
5.14,514,-0.005,-0.262,0.951,-3.7242269999999995,-18.8503182,-0.8021411999999999,168.75904932,1.2318597,-35.01346338
5.1499999999999995,515,0.0,-0.265,0.9620000000000001,-4.5263682,-18.6784308,-0.6875496,168.67310562,1.40947668,-35.04211128
5.16,516,0.005,-0.271,0.972,-5.3285094000000015,-18.506543399999998,-0.6302538000000001,168.62153940000005,1.5870936600000003,-35.0650296
5.17,517,0.006999999999999999,-0.261,0.99,-5.72958,-18.2200644,-0.6875496,168.5642436,1.77044022,-35.08794792
5.18,518,-0.008,-0.265,1.003,-5.3858052,-16.7303736,-0.6875496,168.51267738,1.93659804,-35.11086624
5.1899999999999995,519,0.021,-0.28800000000000003,1.003,-5.2139178,-15.9855282,-0.40107059999999994,168.46111116,2.0912967,-35.133784559999995
5.2,520,0.036000000000000004,-0.285,0.997,-5.443101,-15.4125702,-0.2291832000000001,168.35797872,2.24599536,-35.16816204
5.21,521,0.026000000000000002,-0.285,1.005,-5.443101,-13.8655836,-0.1718874,168.30641250000005,2.38350528,-35.19108036
5.22,522,0.017,-0.28800000000000003,1.01,-5.0993262,-12.1467096,-0.057295800000000015,168.25484627999995,2.50382646,-35.20826909999999
5.2299999999999995,523,0.022000000000000002,-0.281,1.012,-4.3544808,-10.886202,-0.057295800000000015,168.20900964,2.6069589,-35.23118742
5.24,524,0.028999999999999998,-0.281,1.011,-3.3231564,-9.740286,-0.057295800000000015,168.17463216000004,2.70436176,-35.24837616
5.25,525,0.035,-0.284,1.0090000000000001,-2.3491277999999998,-8.7089616,-0.057295800000000015,168.07149972,2.7788463,-35.27129448
5.26,526,0.027999999999999997,-0.284,1.001,-1.0886202,-6.990087599999999,0.0,168.06004056,2.84760126,-35.28275364
5.27,527,0.034,-0.284,0.992,-0.4583664000000001,-5.5003968,0.0,168.05431098,2.90489706,-35.29421280000001
5.28,528,0.033,-0.281,0.985,-0.057295800000000015,-4.010706000000001,0.057295800000000015,168.05431098,2.93927454,-35.29994238
5.29,529,0.036000000000000004,-0.281,0.98,0.6302538000000001,-2.8074942000000003,0.2291832000000001,168.06004056,2.96792244,-35.31140154000001
5.3,530,0.037000000000000005,-0.289,0.97,1.3178034,-1.6615782,0.11459160000000004,167.75637282,2.9564632800000004,-35.35723818
5.31,531,0.036000000000000004,-0.282,0.961,1.7761698000000001,-0.6302538000000001,0.1718874,167.77356156000005,2.96219286,-35.36296776
5.32,532,0.036000000000000004,-0.285,0.9640000000000001,2.0053530000000004,0.4583664000000001,0.1718874,167.79647988000005,2.9564632800000004,-35.36296776
5.33,533,0.033,-0.285,0.96,2.2345362,1.6615782,0.2291832000000001,167.8193982,2.93927454,-35.36296776
5.34,534,0.035,-0.284,0.9690000000000001,2.5210152000000003,2.8074942000000003,0.3437748,167.84231652,2.91062664,-35.36296776
5.35,535,0.033,-0.282,0.9790000000000001,2.5210152000000003,3.7242269999999995,0.3437748,167.73918408,2.86479,-35.37442692000001
5.36,536,0.028999999999999998,-0.27699999999999997,0.98,2.3491277999999998,4.5263682,0.3437748,167.76783197999995,2.81895336,-35.36869734
5.37,537,0.027000000000000003,-0.27699999999999997,0.978,2.0626488000000003,4.8701430000000006,0.3437748,167.78502071999995,2.76738714,-35.36296776
5.38,538,0.027000000000000003,-0.278,0.97,2.0053530000000004,5.3858052,0.3437748,167.80793904,2.71582092,-35.35723818
5.39,539,0.024,-0.27699999999999997,0.972,1.6615782,6.0733548,0.286479,167.82512778,2.65279554,-35.3515086
5.3999999999999995,540,0.024,-0.278,0.983,1.145916,6.3598338,0.286479,167.72772492,2.57258142,-35.35723818
5.41,541,0.023,-0.276,0.9840000000000001,0.8594370000000001,6.3025379999999975,0.286479,167.7334545,2.50955604,-35.34577901999999
5.42,542,0.021,-0.27699999999999997,0.981,0.7448454000000001,6.3598338,0.286479,167.74491366,2.44653066,-35.33431986
5.43,543,0.02,-0.27699999999999997,0.978,0.9167328000000001,6.3598338,0.2291832000000001,167.75064324,2.38350528,-35.32859028
5.4399999999999995,544,0.017,-0.282,0.975,0.8021411999999999,6.5317212,0.2291832000000001,167.7621024,2.3204799,-35.31713112
5.45,545,0.019,-0.281,0.975,0.6875496,6.589017,0.2291832000000001,167.65324038,2.2345362,-35.3228607
5.46,546,0.016,-0.278,0.9790000000000001,0.6875496,6.6463128000000005,0.286479,167.66469954000004,2.17151082,-35.31140154000001
5.47,547,0.012,-0.28,0.98,0.7448454000000001,6.4744254,0.1718874,167.67042912,2.10848544,-35.29994238
5.4799999999999995,548,0.013999999999999999,-0.27899999999999997,0.978,1.0886202,6.0733548,0.286479,167.68188828,2.04546006,-35.29421280000001
5.49,549,0.013000000000000001,-0.28,0.981,1.4896908000000002,5.6149884000000005,0.2291832000000001,167.69334744,1.99389384,-35.28848322
5.5,550,0.009000000000000001,-0.27899999999999997,0.9840000000000001,1.8334656000000005,5.0993262,0.1718874,167.60167416,1.90795014,-35.28848322
5.51,551,0.009000000000000001,-0.276,0.9840000000000001,2.1772404,4.5263682,0.1718874,167.62459248,1.86784308,-35.28275364
5.52,552,0.008,-0.27699999999999997,0.986,2.1772404,3.9534102,0.1718874,167.64178122,1.82773602,-35.27702406
5.53,553,0.006,-0.278,0.983,2.1772404,3.1512689999999997,0.1718874,167.66469954000004,1.7933585399999998,-35.27129448
5.54,554,0.005,-0.276,0.9790000000000001,1.8334656000000005,2.5783110000000002,0.11459160000000004,167.68188828,1.77044022,-35.27129448
5.55,555,0.006,-0.275,0.978,1.4896908000000002,2.0626488000000003,0.11459160000000004,167.49281214,1.6959556799999995,-35.28848322
5.56,556,0.006,-0.27399999999999997,0.977,1.0886202,1.5469866,0.11459160000000004,167.50427130000003,1.6787669399999998,-35.28275364
5.57,557,0.006999999999999999,-0.27399999999999997,0.98,0.9167328000000001,0.9167328000000001,0.057295800000000015,167.51573046,1.6673077799999998,-35.28275364
5.58,558,0.006999999999999999,-0.27399999999999997,0.978,0.40107059999999994,0.2291832000000001,0.1718874,167.52146004,1.6673077799999998,-35.28848322
5.59,559,0.006999999999999999,-0.27399999999999997,0.971,0.057295800000000015,-0.2291832000000001,0.11459160000000004,167.52146004,1.6673077799999998,-35.28848322
5.6,560,0.008,-0.27399999999999997,0.968,-0.1718874,-0.572958,0.11459160000000004,166.90839498,1.55844576,-35.3515086
5.61,561,0.009000000000000001,-0.276,0.968,-0.40107059999999994,-0.8021411999999999,0.11459160000000004,166.90266540000005,1.56417534,-35.35723818
5.62,562,0.009000000000000001,-0.275,0.971,-0.6875496,-1.2605076000000002,0.1718874,166.89693582,1.5756344999999998,-35.36296776
5.63,563,0.01,-0.276,0.9740000000000001,-0.9167328000000001,-1.5469866,0.11459160000000004,166.88547666,1.59282324,-35.36296776
5.64,564,0.01,-0.275,0.978,-1.0886202,-1.9480572,0.057295800000000015,166.87401749999995,1.61001198,-35.36869734
5.6499999999999995,565,0.01,-0.276,0.9790000000000001,-1.0886202,-2.4064236,0.0,166.71358926,1.6042824000000002,-35.39161566
5.66,566,0.012,-0.27699999999999997,0.978,-1.2605076000000002,-2.7501984,0.0,166.7021301,1.6272007199999998,-35.39734524
5.67,567,0.012,-0.278,0.975,-1.3750992,-2.9793816000000004,0.0,166.69067094,1.6615782,-35.40307482
5.68,568,0.015,-0.27899999999999997,0.978,-1.3750992,-3.2085647999999996,0.0,166.6734822,1.6902260999999998,-35.408804399999994
5.6899999999999995,569,0.015,-0.27899999999999997,0.981,-1.3178034,-3.380452200000001,-0.057295800000000015,166.66202304,1.7246035799999997,-35.41453398
5.7,570,0.016,-0.27899999999999997,0.981,-1.2032118,-3.4950437999999995,0.0,166.5302427,1.74179232,-35.4374523
5.71,571,0.017,-0.27899999999999997,0.983,-1.0886202,-3.6096353999999997,0.0,166.51878354000004,1.78189938,-35.44318188
5.72,572,0.017,-0.28,0.985,-0.9740286,-3.6096353999999997,0.0,166.51305396,1.81627686,-35.44891146
5.7299999999999995,573,0.019,-0.28,0.9840000000000001,-0.6875496,-3.6096353999999997,0.0,166.50159480000005,1.85065434,-35.46037062
5.74,574,0.019,-0.28,0.9790000000000001,-0.40107059999999994,-3.4377480000000005,0.0,166.50159480000005,1.88503182,-35.46610020000001
5.75,575,0.02,-0.28,0.981,-0.057295800000000015,-3.0939732,0.0,166.33543698,1.8907614,-35.48901852
5.76,576,0.021,-0.28,0.98,0.057295800000000015,-2.7501984,0.0,166.33543698,1.9194093000000003,-35.4947481
5.77,577,0.022000000000000002,-0.28,0.98,0.2291832000000001,-2.3491277999999998,0.0,166.34116656,1.94232762,-35.50047768
5.78,578,0.021,-0.27899999999999997,0.9790000000000001,0.40107059999999994,-1.8907614,0.0,166.34116656,1.9595163600000003,-35.50620726000001
5.79,579,0.022000000000000002,-0.27899999999999997,0.977,0.40107059999999994,-1.4896908000000002,0.0,166.34689614,1.97097552,-35.51193684000001
5.8,580,0.023,-0.27899999999999997,0.9790000000000001,0.40107059999999994,-0.9740286,0.0,166.03749882,1.92513888,-35.54631432
5.81,581,0.023,-0.27899999999999997,0.98,0.40107059999999994,-0.6302538000000001,0.0,166.0432284,1.93659804,-35.54631432
5.82,582,0.024,-0.27899999999999997,0.982,0.6875496,0.0,0.11459160000000004,166.04895798,1.93086846,-35.54631432
5.83,583,0.024,-0.27899999999999997,0.9840000000000001,0.6875496,0.5156622000000001,0.11459160000000004,166.06041714,1.92513888,-35.5520439
5.84,584,0.023,-0.27899999999999997,0.983,0.6875496,0.9167328000000001,0.11459160000000004,166.06614672,1.9194093000000003,-35.54631432
5.85,585,0.023,-0.27899999999999997,0.98,0.6875496,1.2032118,0.1718874,165.89998889999995,1.88503182,-35.56923264
5.86,586,0.023,-0.27899999999999997,0.978,0.6875496,1.3750992,0.11459160000000004,165.90571848,1.87357266,-35.56350306
5.87,587,0.023,-0.27899999999999997,0.976,0.6875496,1.6615782,0.11459160000000004,165.91144806,1.85638392,-35.56350306
5.88,588,0.021,-0.278,0.977,0.572958,1.9480572,0.11459160000000004,165.91717764,1.8334656000000005,-35.56350306
5.89,589,0.021,-0.278,0.977,0.5156622000000001,2.0626488000000003,0.11459160000000004,165.92290722,1.81627686,-35.55777348
5.8999999999999995,590,0.021,-0.27899999999999997,0.976,0.6875496,2.2345362,0.057295800000000015,165.80831562,1.7761698000000001,-35.56923264
5.91,591,0.02,-0.28,0.978,0.9167328000000001,2.1772404,0.057295800000000015,165.81977478,1.75898106,-35.56350306
5.92,592,0.02,-0.27899999999999997,0.977,1.2032118,2.0626488000000003,0.057295800000000015,165.83123394,1.73606274,-35.55777348
5.93,593,0.019,-0.28,0.9790000000000001,1.0886202,2.0626488000000003,0.057295800000000015,165.8426931,1.71314442,-35.55777348
5.9399999999999995,594,0.017,-0.27899999999999997,0.9790000000000001,1.2032118,2.0053530000000004,0.057295800000000015,165.85415226,1.6959556799999995,-35.5520439
5.95,595,0.018000000000000002,-0.27899999999999997,0.9790000000000001,1.145916,1.8907614,0.057295800000000015,165.7567494,1.6615782,-35.56350306
5.96,596,0.019,-0.27899999999999997,0.982,1.145916,2.0053530000000004,0.057295800000000015,165.76820856,1.6386598799999998,-35.55777348
5.97,597,0.018000000000000002,-0.27899999999999997,0.986,1.0313244000000001,1.9480572,0.057295800000000015,165.77966772,1.62147114,-35.5520439
5.9799999999999995,598,0.017,-0.27699999999999997,0.986,0.572958,1.7188740000000002,0.0,165.78539730000003,1.6042824000000002,-35.5520439
5.99,599,0.016,-0.27699999999999997,0.98,0.5156622000000001,1.7188740000000002,0.057295800000000015,165.79112688,1.5870936600000003,-35.54631432
6.0,600,0.016,-0.278,0.976,0.6302538000000001,1.6042823999999998,0.0,165.63642822,1.5469866,-35.56350306
6.01,601,0.016,-0.278,0.975,0.7448454000000001,1.4896908000000002,0.057295800000000015,165.64788738,1.52979786,-35.55777348
6.02,602,0.016,-0.278,0.976,0.8594370000000001,1.432395,0.11459160000000004,165.65361696,1.5183387000000002,-35.55777348
6.03,603,0.016,-0.27699999999999997,0.9790000000000001,0.8021411999999999,1.0313244000000001,0.11459160000000004,165.65934654,1.50687954,-35.55777348
6.04,604,0.016,-0.27699999999999997,0.981,0.9167328000000001,0.6875496,0.057295800000000015,165.67080570000005,1.49542038,-35.5520439
6.05,605,0.016,-0.27699999999999997,0.98,0.9167328000000001,0.40107059999999994,0.057295800000000015,165.49318872,1.46677248,-35.57496222
6.06,606,0.016,-0.278,0.98,0.6302538000000001,0.1718874,0.0,165.4989183,1.46677248,-35.57496222
6.07,607,0.016,-0.27699999999999997,0.9790000000000001,0.5156622000000001,0.1718874,0.057295800000000015,165.50464788,1.4610428999999998,-35.57496222
6.08,608,0.017,-0.27699999999999997,0.976,0.4583664000000001,0.057295800000000015,0.1718874,165.51037746,1.4610428999999998,-35.57496222
6.09,609,0.016,-0.276,0.975,0.1718874,-0.057295800000000015,0.057295800000000015,165.51037746,1.4610428999999998,-35.57496222
6.1,610,0.017,-0.276,0.975,0.11459160000000004,-0.11459160000000004,0.0,165.00617442,1.42666542,-35.63225802
6.11,611,0.017,-0.27699999999999997,0.976,0.11459160000000004,-0.40107059999999994,0.057295800000000015,165.00617442,1.42666542,-35.63225802
6.12,612,0.018000000000000002,-0.27699999999999997,0.9790000000000001,0.11459160000000004,-0.4583664000000001,0.0,165.00617442,1.432395,-35.63798759999999
6.13,613,0.018000000000000002,-0.276,0.98,0.057295800000000015,-0.4583664000000001,0.057295800000000015,165.00617442,1.43812458,-35.63798759999999
6.14,614,0.018000000000000002,-0.27699999999999997,0.981,0.1718874,-0.572958,0.057295800000000015,165.01190400000004,1.44385416,-35.63798759999999
6.15,615,0.019,-0.27699999999999997,0.98,0.11459160000000004,-0.6875496,0.057295800000000015,164.83428701999995,1.432395,-35.66090592
6.16,616,0.018000000000000002,-0.27699999999999997,0.981,0.1718874,-0.8021411999999999,0.11459160000000004,164.83428701999995,1.44385416,-35.6666355
6.17,617,0.02,-0.278,0.9790000000000001,0.11459160000000004,-0.8021411999999999,0.0,164.83428701999995,1.44958374,-35.6666355
6.18,618,0.02,-0.278,0.98,0.2291832000000001,-0.8594370000000001,0.11459160000000004,164.84001659999996,1.4610428999999998,-35.67236508
6.1899999999999995,619,0.019,-0.27899999999999997,0.9790000000000001,0.2291832000000001,-0.9740286,0.0,164.84001659999996,1.46677248,-35.67236508
6.2,620,0.02,-0.27699999999999997,0.981,0.286479,-0.9167328000000001,0.057295800000000015,164.74834332,1.47250206,-35.68382424
6.21,621,0.021,-0.27699999999999997,0.978,0.286479,-0.7448454000000001,0.0,164.74834332,1.4782316400000002,-35.68955382
6.22,622,0.021,-0.278,0.976,0.4583664000000001,-0.8021411999999999,0.11459160000000004,164.75407289999995,1.4896908000000002,-35.68955382
6.2299999999999995,623,0.021,-0.278,0.976,0.40107059999999994,-0.6302538000000001,0.0,164.75980248000005,1.49542038,-35.695283399999994
6.24,624,0.022000000000000002,-0.278,0.977,0.4583664000000001,-0.40107059999999994,0.0,164.76553206,1.50114996,-35.695283399999994
6.25,625,0.021,-0.278,0.98,0.40107059999999994,-0.286479,0.0,164.5821855,1.49542038,-35.71820172
6.26,626,0.022000000000000002,-0.27699999999999997,0.983,0.3437748,-0.11459160000000004,0.057295800000000015,164.58791508,1.49542038,-35.71820172
6.27,627,0.021,-0.27899999999999997,0.983,0.3437748,-0.11459160000000004,0.0,164.59364466,1.49542038,-35.71820172
6.28,628,0.021,-0.278,0.98,0.5156622000000001,-0.11459160000000004,0.0,164.59364466,1.49542038,-35.71820172
6.29,629,0.02,-0.27899999999999997,0.98,0.6302538000000001,0.0,0.057295800000000015,164.60510382,1.49542038,-35.71820172
6.3,630,0.021,-0.278,0.9790000000000001,0.6875496,0.057295800000000015,0.0,164.48478264,1.48396122,-35.73539046000001
6.31,631,0.021,-0.27899999999999997,0.9790000000000001,0.6302538000000001,0.11459160000000004,0.057295800000000015,164.49051222,1.48396122,-35.73539046000001
6.32,632,0.022000000000000002,-0.278,0.9790000000000001,0.6302538000000001,0.1718874,0.0,164.4962418,1.48396122,-35.73539046000001
6.33,633,0.022000000000000002,-0.27699999999999997,0.9790000000000001,0.572958,0.40107059999999994,0.11459160000000004,164.50197138,1.4782316400000002,-35.73539046000001
6.34,634,0.021,-0.278,0.9790000000000001,0.4583664000000001,0.572958,0.057295800000000015,164.50770096,1.47250206,-35.73539046000001
6.35,635,0.021,-0.27699999999999997,0.98,0.286479,0.7448454000000001,0.11459160000000004,164.438946,1.46677248,-35.74112004000001
6.36,636,0.021,-0.27699999999999997,0.9790000000000001,0.2291832000000001,1.0313244000000001,0.11459160000000004,164.438946,1.45531332,-35.74112004000001
6.37,637,0.021,-0.27699999999999997,0.978,0.1718874,1.0886202,0.11459160000000004,164.438946,1.44385416,-35.74112004000001
6.38,638,0.022000000000000002,-0.278,0.9790000000000001,0.057295800000000015,1.2605076000000002,0.11459160000000004,164.44467558000005,1.42666542,-35.73539046000001
6.39,639,0.021,-0.27699999999999997,0.98,0.11459160000000004,1.2605076000000002,0.11459160000000004,164.44467558000005,1.41520626,-35.73539046000001
6.4,640,0.021,-0.27699999999999997,0.978,0.286479,1.145916,0.057295800000000015,164.39310935999995,1.4037471000000001,-35.74112004000001
6.41,641,0.021,-0.278,0.978,0.4583664000000001,1.145916,0.057295800000000015,164.39883894000005,1.39228794,-35.73539046000001
6.42,642,0.02,-0.27699999999999997,0.977,0.572958,1.0886202,0.11459160000000004,164.40456852,1.38082878,-35.73539046000001
6.43,643,0.02,-0.27699999999999997,0.977,0.572958,1.0886202,0.11459160000000004,164.41029809999995,1.36936962,-35.73539046000001
6.4399999999999995,644,0.02,-0.276,0.9790000000000001,0.5156622000000001,1.0313244000000001,0.11459160000000004,164.41602768,1.36364004,-35.73539046000001
6.45,645,0.021,-0.276,0.981,0.5156622000000001,1.0886202,0.057295800000000015,164.37592062000004,1.3579104599999998,-35.73539046000001
6.46,646,0.02,-0.27699999999999997,0.981,0.286479,0.9740286,0.057295800000000015,164.38165020000002,1.3464512999999998,-35.73539046000001
6.47,647,0.019,-0.276,0.98,0.286479,1.0313244000000001,0.057295800000000015,164.38165020000002,1.3349921400000002,-35.73539046000001
6.4799999999999995,648,0.019,-0.276,0.978,0.286479,0.8594370000000001,0.057295800000000015,164.38737978,1.32926256,-35.72966088
6.49,649,0.019,-0.27699999999999997,0.978,0.2291832000000001,0.7448454000000001,0.11459160000000004,164.38737978,1.32353298,-35.72966088
6.5,650,0.02,-0.27699999999999997,0.977,0.11459160000000004,0.8021411999999999,0.057295800000000015,164.33008397999996,1.3178034,-35.73539046000001
6.51,651,0.019,-0.27699999999999997,0.978,0.057295800000000015,0.8021411999999999,0.057295800000000015,164.33008397999996,1.31207382,-35.73539046000001
6.52,652,0.019,-0.27699999999999997,0.978,0.057295800000000015,0.8021411999999999,0.057295800000000015,164.33008397999996,1.30061466,-35.73539046000001
6.53,653,0.02,-0.278,0.977,0.11459160000000004,0.6875496,0.057295800000000015,164.33008397999996,1.29488508,-35.73539046000001
6.54,654,0.019,-0.27699999999999997,0.9790000000000001,0.2291832000000001,0.572958,0.057295800000000015,164.33581356,1.2891555,-35.73539046000001
6.55,655,0.019,-0.27699999999999997,0.9790000000000001,0.11459160000000004,0.572958,0.0,164.26132902,1.2891555,-35.74112004000001
6.56,656,0.018000000000000002,-0.27699999999999997,0.9790000000000001,0.1718874,0.5156622000000001,0.0,164.26705859999996,1.28342592,-35.74112004000001
6.57,657,0.018000000000000002,-0.278,0.982,0.0,0.4583664000000001,0.057295800000000015,164.26705859999996,1.28342592,-35.74112004000001
6.58,658,0.02,-0.278,0.978,0.0,0.40107059999999994,0.057295800000000015,164.26705859999996,1.27769634,-35.74112004000001
6.59,659,0.02,-0.278,0.98,0.0,0.572958,0.11459160000000004,164.26705859999996,1.27196676,-35.74112004000001
6.6,660,0.02,-0.27699999999999997,0.98,0.0,0.5156622000000001,0.11459160000000004,164.2097628,1.26623718,-35.74684962
6.61,661,0.019,-0.27699999999999997,0.9790000000000001,-0.057295800000000015,0.3437748,0.057295800000000015,164.2097628,1.26623718,-35.74684962
6.62,662,0.019,-0.278,0.977,0.0,0.3437748,0.057295800000000015,164.2097628,1.2605076000000002,-35.74684962
6.63,663,0.019,-0.278,0.9790000000000001,-0.057295800000000015,0.572958,0.11459160000000004,164.2097628,1.25477802,-35.74684962
6.64,664,0.019,-0.278,0.982,-0.11459160000000004,0.4583664000000001,0.11459160000000004,164.20403322,1.24904844,-35.74684962
6.65,665,0.019,-0.278,0.983,-0.057295800000000015,0.2291832000000001,0.11459160000000004,164.11235994,1.26623718,-35.75830878
6.66,666,0.019,-0.278,0.9840000000000001,0.057295800000000015,0.0,0.11459160000000004,164.11235994,1.26623718,-35.75830878
6.67,667,0.02,-0.278,0.982,0.057295800000000015,0.0,0.11459160000000004,164.11235994,1.26623718,-35.75830878
6.68,668,0.02,-0.27899999999999997,0.978,0.0,-0.4583664000000001,0.0,164.11235994,1.27196676,-35.75830878
6.6899999999999995,669,0.019,-0.27899999999999997,0.975,0.0,-0.40107059999999994,0.057295800000000015,164.11235994,1.27769634,-35.76403836
6.7,670,0.02,-0.27699999999999997,0.975,-0.057295800000000015,-0.3437748,0.057295800000000015,164.05506413999996,1.29488508,-35.76976794
6.71,671,0.02,-0.278,0.976,0.0,-0.40107059999999994,0.0,164.05506413999996,1.30061466,-35.76976794
6.72,672,0.02,-0.27699999999999997,0.977,-0.057295800000000015,-0.3437748,0.0,164.05506413999996,1.30061466,-35.77549752
6.7299999999999995,673,0.02,-0.278,0.977,0.0,-0.3437748,0.057295800000000015,164.05506413999996,1.30634424,-35.77549752
6.74,674,0.021,-0.278,0.978,0.0,-0.2291832000000001,0.0,164.05506413999996,1.30634424,-35.77549752
6.75,675,0.02,-0.278,0.978,0.11459160000000004,-0.1718874,0.0,163.99203876,1.3178034,-35.7812271
6.76,676,0.02,-0.278,0.9790000000000001,0.1718874,-0.2291832000000001,0.0,163.99203876,1.3178034,-35.7812271
6.77,677,0.02,-0.27899999999999997,0.9790000000000001,0.1718874,-0.11459160000000004,0.0,163.99203876,1.3178034,-35.7812271
6.78,678,0.019,-0.278,0.981,0.1718874,0.0,0.0,163.99776834000005,1.3178034,-35.7812271
6.79,679,0.019,-0.278,0.981,0.1718874,0.057295800000000015,0.0,163.99776834000005,1.3178034,-35.7812271
6.8,680,0.02,-0.27899999999999997,0.981,0.057295800000000015,0.057295800000000015,0.0,163.91755422,1.32926256,-35.79268626
6.81,681,0.02,-0.27899999999999997,0.981,0.0,0.057295800000000015,0.0,163.91755422,1.32926256,-35.79268626
6.82,682,0.019,-0.27899999999999997,0.98,0.0,0.057295800000000015,0.0,163.91755422,1.32926256,-35.79268626
6.83,683,0.02,-0.27899999999999997,0.98,-0.057295800000000015,0.057295800000000015,0.0,163.91182464000005,1.32926256,-35.79268626
6.84,684,0.02,-0.27899999999999997,0.978,-0.057295800000000015,0.057295800000000015,0.0,163.91182464000005,1.32926256,-35.79268626
6.85,685,0.019,-0.27899999999999997,0.977,0.0,0.057295800000000015,0.057295800000000015,163.87171758,1.32353298,-35.79268626
6.86,686,0.019,-0.28,0.976,0.0,0.11459160000000004,0.0,163.87744716,1.3178034,-35.79841584000001
6.87,687,0.019,-0.278,0.978,0.0,0.057295800000000015,0.0,163.87744716,1.3178034,-35.79268626
6.88,688,0.019,-0.28,0.98,0.0,0.1718874,0.0,163.87744716,1.3178034,-35.79268626
6.89,689,0.02,-0.27899999999999997,0.98,0.0,0.057295800000000015,0.0,163.87744716,1.3178034,-35.79268626
6.9,690,0.019,-0.27899999999999997,0.981,0.0,0.057295800000000015,0.0,163.84879926000005,1.3178034,-35.79841584000001
6.91,691,0.019,-0.278,0.9790000000000001,0.1718874,0.057295800000000015,0.0,163.84879926000005,1.3178034,-35.79841584000001
6.92,692,0.019,-0.27899999999999997,0.9790000000000001,0.11459160000000004,0.057295800000000015,0.0,163.84879926000005,1.3178034,-35.79841584000001
6.93,693,0.019,-0.27899999999999997,0.98,0.1718874,0.0,0.0,163.85452884,1.3178034,-35.79841584000001
6.9399999999999995,694,0.02,-0.27899999999999997,0.978,0.1718874,0.057295800000000015,0.0,163.85452884,1.3178034,-35.79268626
6.95,695,0.02,-0.27899999999999997,0.978,0.11459160000000004,0.1718874,0.0,163.82588094,1.31207382,-35.79841584000001
6.96,696,0.021,-0.27899999999999997,0.9790000000000001,0.057295800000000015,0.2291832000000001,0.0,163.82588094,1.30634424,-35.79841584000001
6.97,697,0.019,-0.27899999999999997,0.977,0.0,0.2291832000000001,0.0,163.83161052,1.30634424,-35.79841584000001
6.9799999999999995,698,0.02,-0.27899999999999997,0.9790000000000001,0.0,0.2291832000000001,0.0,163.83161052,1.30634424,-35.79268626
6.99,699,0.019,-0.278,0.98,-0.057295800000000015,0.11459160000000004,0.0,163.82588094,1.30061466,-35.79268626
7.0,700,0.019,-0.278,0.978,0.0,0.057295800000000015,0.0,163.79150346,1.30061466,-35.79841584000001
7.01,701,0.02,-0.278,0.978,0.0,0.1718874,0.0,163.79150346,1.30061466,-35.79841584000001
7.02,702,0.019,-0.278,0.978,0.057295800000000015,0.0,0.0,163.79723304,1.30061466,-35.79841584000001
7.03,703,0.019,-0.27699999999999997,0.9790000000000001,0.057295800000000015,-0.057295800000000015,0.0,163.79723304,1.30061466,-35.79841584000001
7.04,704,0.019,-0.27899999999999997,0.978,0.0,-0.057295800000000015,0.0,163.79723304,1.30061466,-35.79841584000001
7.05,705,0.02,-0.27899999999999997,0.977,0.0,-0.1718874,0.0,163.75712598,1.30061466,-35.79841584000001
7.06,706,0.019,-0.27899999999999997,0.978,0.0,-0.057295800000000015,0.0,163.75712598,1.30061466,-35.79841584000001
7.07,707,0.02,-0.28,0.98,0.057295800000000015,0.0,0.0,163.76285556,1.30061466,-35.79841584000001
7.08,708,0.019,-0.28,0.98,0.0,0.0,0.0,163.76285556,1.30061466,-35.80414542
7.09,709,0.018000000000000002,-0.28,0.978,-0.057295800000000015,0.0,0.0,163.76285556,1.30061466,-35.80414542
7.1,710,0.019,-0.28,0.978,0.0,0.0,0.0,163.70555976,1.31207382,-35.809875
7.11,711,0.019,-0.27899999999999997,0.9790000000000001,0.0,-0.057295800000000015,0.0,163.70555976,1.31207382,-35.809875
7.12,712,0.019,-0.278,0.98,0.0,-0.11459160000000004,0.0,163.70555976,1.31207382,-35.809875
7.13,713,0.019,-0.28,0.982,0.0,-0.057295800000000015,0.0,163.70555976,1.31207382,-35.809875
7.14,714,0.02,-0.27899999999999997,0.982,0.0,0.0,0.057295800000000015,163.70555976,1.31207382,-35.809875
7.15,715,0.019,-0.28,0.9790000000000001,0.057295800000000015,0.0,0.0,163.66545269999997,1.31207382,-35.81560458
7.16,716,0.019,-0.27899999999999997,0.978,0.057295800000000015,-0.057295800000000015,0.0,163.66545269999997,1.31207382,-35.81560458
7.17,717,0.018000000000000002,-0.27899999999999997,0.976,0.11459160000000004,0.0,0.0,163.66545269999997,1.31207382,-35.81560458
7.18,718,0.02,-0.28,0.978,0.2291832000000001,0.0,0.0,163.66545269999997,1.31207382,-35.81560458
7.1899999999999995,719,0.019,-0.28,0.98,0.1718874,0.0,0.0,163.67118227999995,1.31207382,-35.81560458
7.2,720,0.019,-0.27899999999999997,0.98,0.1718874,0.0,0.0,163.65972312,1.3178034,-35.81560458
7.21,721,0.02,-0.27899999999999997,0.9790000000000001,0.2291832000000001,0.057295800000000015,0.0,163.65972312,1.3178034,-35.81560458
7.22,722,0.019,-0.278,0.9790000000000001,0.286479,0.0,0.0,163.66545269999997,1.3178034,-35.81560458
7.2299999999999995,723,0.019,-0.28,0.981,0.1718874,-0.057295800000000015,-0.057295800000000015,163.66545269999997,1.3178034,-35.81560458
7.24,724,0.018000000000000002,-0.27899999999999997,0.978,0.2291832000000001,-0.2291832000000001,0.0,163.66545269999997,1.3178034,-35.81560458
7.25,725,0.02,-0.27899999999999997,0.976,0.4583664000000001,-0.11459160000000004,0.0,163.65972312,1.32353298,-35.81560458
7.26,726,0.018000000000000002,-0.27899999999999997,0.977,0.3437748,0.0,0.0,163.66545269999997,1.3178034,-35.81560458
7.27,727,0.019,-0.28,0.981,0.286479,0.0,0.0,163.66545269999997,1.3178034,-35.81560458
7.28,728,0.019,-0.27899999999999997,0.9840000000000001,0.1718874,0.0,0.0,163.66545269999997,1.32353298,-35.81560458
7.29,729,0.019,-0.27899999999999997,0.982,0.1718874,-0.1718874,0.0,163.67118227999995,1.32353298,-35.81560458
7.3,730,0.019,-0.27899999999999997,0.98,0.1718874,-0.2291832000000001,0.0,163.66545269999997,1.32353298,-35.82133416
7.31,731,0.019,-0.28,0.977,0.1718874,-0.2291832000000001,0.0,163.66545269999997,1.32926256,-35.82133416
7.32,732,0.02,-0.28,0.978,0.1718874,-0.2291832000000001,0.0,163.67118227999995,1.32926256,-35.82133416
7.33,733,0.019,-0.278,0.9790000000000001,0.0,-0.1718874,0.0,163.67118227999995,1.32926256,-35.82133416
7.34,734,0.019,-0.278,0.98,0.057295800000000015,-0.286479,0.0,163.67118227999995,1.3349921400000002,-35.82133416
7.35,735,0.019,-0.27699999999999997,0.98,0.057295800000000015,-0.40107059999999994,0.0,163.67118227999995,1.34072172,-35.82133416
7.36,736,0.019,-0.27699999999999997,0.978,0.11459160000000004,-0.40107059999999994,-0.057295800000000015,163.67118227999995,1.34072172,-35.82133416
7.37,737,0.019,-0.278,0.978,0.2291832000000001,-0.4583664000000001,-0.057295800000000015,163.67691186,1.3464512999999998,-35.82133416
7.38,738,0.019,-0.27699999999999997,0.978,0.2291832000000001,-0.40107059999999994,0.0,163.67691186,1.35218088,-35.82133416
7.39,739,0.019,-0.278,0.976,0.2291832000000001,-0.40107059999999994,0.0,163.68264144,1.3579104599999998,-35.82133416
7.4,740,0.019,-0.278,0.976,0.2291832000000001,-0.3437748,0.0,163.68264144,1.3579104599999998,-35.82706374
7.41,741,0.019,-0.278,0.978,0.2291832000000001,-0.286479,-0.057295800000000015,163.68264144,1.36364004,-35.82706374
7.42,742,0.019,-0.27699999999999997,0.9790000000000001,0.286479,-0.40107059999999994,0.0,163.68837102,1.36364004,-35.82706374
7.43,743,0.02,-0.27899999999999997,0.9790000000000001,0.2291832000000001,-0.3437748,-0.057295800000000015,163.68837102,1.36936962,-35.82706374
7.4399999999999995,744,0.02,-0.27899999999999997,0.982,0.286479,-0.1718874,0.0,163.6941006,1.36936962,-35.82706374
7.45,745,0.02,-0.278,0.982,0.1718874,-0.2291832000000001,0.0,163.68837102,1.3750992,-35.82706374
7.46,746,0.02,-0.27899999999999997,0.981,0.057295800000000015,-0.1718874,0.0,163.6941006,1.3750992,-35.82706374
7.47,747,0.02,-0.27899999999999997,0.977,0.0,-0.11459160000000004,0.0,163.6941006,1.3750992,-35.82706374
7.4799999999999995,748,0.02,-0.27899999999999997,0.976,0.0,0.0,0.0,163.6941006,1.3750992,-35.82706374
7.49,749,0.02,-0.27899999999999997,0.977,-0.057295800000000015,0.057295800000000015,0.0,163.6941006,1.3750992,-35.82706374
7.5,750,0.02,-0.27899999999999997,0.98,-0.11459160000000004,0.2291832000000001,0.0,163.68264144,1.36936962,-35.82706374
7.51,751,0.02,-0.27899999999999997,0.981,-0.2291832000000001,0.11459160000000004,0.0,163.67691186,1.36936962,-35.82706374
7.52,752,0.02,-0.27699999999999997,0.98,-0.286479,0.0,0.0,163.67691186,1.36936962,-35.82706374
