TimeStamp(s),FrameCounter,AccX,AccY,AccZ,GyrX,GyrY,GyrZ,EulerX,EulerY,EulerZ
0.01,1,0.035,-1.025,0.025,-0.8021411999999999,-4.8701430000000006,-5.3285094000000015,90.22942584,3.81590028,-35.3515086
0.02,2,0.036000000000000004,-1.023,0.024,-0.8021411999999999,-4.5263682,-5.7868758000000025,90.22369626,3.873196080000002,-35.39734524
0.03,3,0.039,-1.019,0.021,-0.4583664000000001,-3.2658606,-6.130650599999999,90.2122371,3.93622146,-35.43172272
0.04,4,0.047,-1.016,0.026,-0.286479,-2.0053530000000004,-6.016058999999999,90.21796668,3.97632852,-35.44891146
0.05,5,0.049,-1.014,0.037000000000000005,0.572958,-2.2345362,-5.5576926,90.22369626,4.03362432,-35.47182978
0.060000000000000005,6,0.048,-1.014,0.042,1.145916,-1.9480572,-5.042030400000002,90.23515542,4.0794609600000005,-35.48901852
0.06999999999999999,7,0.05,-1.009,0.042,1.2032118,-1.9480572,-4.1252976000000015,90.24661458,4.1252976000000015,-35.50620726000001
0.08,8,0.056,-1.004,0.036000000000000004,1.6615782,-2.9793816000000004,-3.2658606,90.26380332,4.15967508,-35.53485516
0.09,9,0.066,-1.0,0.037000000000000005,2.2345362,-4.583664,-2.4064236,90.2981808,4.1825934,-35.5806918
0.09999999999999999,10,0.069,-0.996,0.048,3.0939732,-6.417129599999999,-1.7761698,90.3268287,4.20551172,-35.64371718
0.11,11,0.071,-0.993,0.048,2.9220857999999996,-7.161975,-1.7761698,90.3554766,4.22843004,-35.71820172
0.12,12,0.071,-0.986,0.045,2.4064236,-7.161975,-2.1772404,90.37266534,4.25134836,-35.78695668
0.13,13,0.064,-0.983,0.041,2.5210152000000003,-6.9327918,-2.9220857999999996,90.39558366,4.27999626,-35.85571164
0.14,14,0.059,-0.982,0.042,2.4637194,-5.9014674000000005,-3.7815227999999994,90.42996114,4.31437374,-35.91300744
0.15000000000000002,15,0.062,-0.984,0.044,2.4064236,-4.4690724,-4.297185,90.45287946,4.36021038,-35.95884408
0.16,16,0.068,-0.987,0.042,2.2345362,-3.5523396000000003,-4.2398892,90.47579778,4.40031744,-35.99322156
0.17,17,0.069,-0.991,0.034,2.0053530000000004,-3.0366774,-3.9534102,90.49298652,4.4404245000000016,-36.02186946
0.18000000000000002,18,0.063,-0.998,0.029,1.4896908000000002,-2.7501984,-3.8388186,90.51017526,4.48053156,-36.05051736
0.19,19,0.055,-1.005,0.03,1.2605076000000002,-1.7188740000000002,-4.010706000000001,90.51590484,4.48626114,-36.06197652
0.2,20,0.052000000000000005,-1.008,0.031,1.2032118,-0.4583664000000001,-4.4690724,90.527364,4.53209778,-36.067706099999995
0.21000000000000002,21,0.051,-1.006,0.031,0.9740286,0.4010706,-5.0993262,90.53882316,4.5836640000000015,-36.06197652
0.22,22,0.048,-1.005,0.03,0.9740286,1.0313244,-5.72958,90.55028232,4.6409598,-36.05051736
0.23,23,0.05,-1.002,0.034,0.8594370000000001,2.1772404,-6.417129599999999,90.56174148,4.703985179999999,-36.02759904
0.24000000000000002,24,0.058,-0.997,0.035,1.0313244,3.3231564,-6.990087599999999,90.57893022,4.7555514,-35.99322156
0.25,25,0.067,-0.997,0.038,1.4896908000000002,3.4950437999999995,-7.333862400000001,90.59611896,4.83003594,-35.95311450000001
0.26,26,0.078,-1.002,0.042,1.3178034,3.7815227999999994,-7.5057497999999985,90.6133077,4.898790900000002,-35.91873702
0.27,27,0.092,-1.005,0.035,0.6875496,3.7815227999999994,-7.5057497999999985,90.62476686,4.97327544,-35.87862996
0.28,28,0.09,-1.011,0.034,0.572958,2.7501984,-6.990087599999999,90.63049644,5.042030400000002,-35.84998205999999
0.29000000000000004,29,0.077,-1.019,0.032,0.0,2.0053530000000004,-6.417129599999999,90.63049644,5.08786704,-35.82706374
0.3,30,0.066,-1.02,0.029,-0.286479,2.0053530000000004,-6.016058999999999,90.63049644,5.15089242,-35.80414542
0.31,31,0.061,-1.015,0.027000000000000003,-0.6875496,2.0626488000000003,-5.9014674000000005,90.62476686,5.20818822,-35.78695668
0.32,32,0.048,-1.009,0.029,-0.3437748,1.2032118,-5.6149884000000005,90.61903728,5.2654840200000015,-35.76976794
0.33,33,0.037000000000000005,-1.002,0.038,0.11459160000000004,0.8021411999999999,-5.5576926,90.61903728,5.31705024,-35.76403836
0.34,34,0.037000000000000005,-0.996,0.046,0.286479,2.578311,-6.130650599999999,90.6419556,5.32277982,-35.72966088
0.35000000000000003,35,0.04,-0.99,0.055,0.4583664000000001,3.9534102,-6.875496000000001,90.65341476,5.385805199999999,-35.68955382
0.36000000000000004,36,0.048,-0.991,0.057,0.9167328,5.5576926,-7.5057497999999985,90.66487392,5.46028974,-35.63225802
0.37,37,0.061,-0.995,0.057,1.3750992,6.6463128000000005,-7.8495246,90.68779224,5.53477428,-35.56350306
0.38,38,0.068,-0.999,0.061,1.0313244,7.7349330000000025,-8.021412000000002,90.70498098,5.6149884000000005,-35.48901852
0.39,39,0.078,-1.002,0.062,0.9167328,9.167328,-8.307891,90.73362888,5.683743359999999,-35.39161566
0.4,40,0.08199999999999999,-1.006,0.05,0.7448454000000001,10.1413566,-8.5370742,90.75081762,5.76395748,-35.28848322
0.41000000000000003,41,0.07400000000000001,-1.01,0.035,0.11459160000000004,11.229976800000001,-8.9381448,90.76227678,5.849901179999999,-35.17962120000001
0.42000000000000004,42,0.065,-1.007,0.029,-0.057295800000000015,12.4331886,-9.797581800000001,90.77373594,5.94157446,-35.05357044
0.43,43,0.056,-1.004,0.028,0.2291832000000001,13.120738199999998,-10.7143146,90.79092468,6.0447069,-34.9217901
0.44,44,0.046,-0.999,0.032,0.6302538000000001,13.349921400000001,-11.688343199999998,90.80811342,6.130650600000001,-34.78428018
0.45,45,0.037000000000000005,-0.994,0.049,1.145916,13.8655836,-12.9488508,90.83103174,6.25097178,-34.64104068
0.46,46,0.045,-0.991,0.071,2.0053530000000004,16.042824000000003,-14.5531332,90.8711388,6.3884817000000025,-34.48061244
0.47000000000000003,47,0.068,-0.993,0.08900000000000001,3.0366774,18.3919518,-16.272007199999994,90.92270502,6.543180359999999,-34.291536300000004
0.48000000000000004,48,0.091,-0.997,0.08800000000000001,2.9793816000000004,20.2254174,-17.8189938,90.96854166,6.7150677599999975,-34.091001
0.49,49,0.103,-1.01,0.08,2.4637194,21.4286292,-19.0795014,91.03156704,6.89268474,-33.87327696
0.5,50,0.112,-1.024,0.079,2.1199446,22.058883,-20.168121600000006,91.07740368,7.08176088,-33.64409376
0.51,51,0.107,-1.036,0.062,1.145916,21.6005166,-20.5691922,91.11178116,7.2765666,-33.42636972
0.52,52,0.091,-1.042,0.052000000000000005,0.0,21.4286292,-20.8556712,91.13469948,7.47137232,-33.208645680000004
0.53,53,0.08,-1.045,0.046,-0.572958,21.199446,-20.9702628,91.1576178,7.6719076200000025,-32.99092164
0.54,54,0.067,-1.051,0.037000000000000005,-0.6302538000000001,20.340009,-20.8556712,91.16907696,7.8495246,-32.784656760000004
0.55,55,0.06,-1.055,0.034,-1.4896908000000002,19.938938399999998,-20.9702628,91.18053612,8.044330319999998,-32.57839188
0.56,56,0.064,-1.056,0.033,-1.8907613999999997,19.3659804,-21.6578124,91.1862657,8.250595200000001,-32.38358616
0.5700000000000001,57,0.077,-1.056,0.049,-1.6042823999999998,19.0795014,-23.2620948,91.19772486,8.47404882,-32.183050859999994
0.5800000000000001,58,0.093,-1.053,0.063,-2.0626488000000003,18.048177,-26.356068,91.19772486,8.72615034,-31.9997043
0.59,59,0.108,-1.054,0.052000000000000005,-2.4637194,16.2147114,-29.1635622,91.19772486,9.001170179999997,-31.8278169
0.6,60,0.113,-1.0659999999999998,0.022,-4.583664,13.349921400000001,-31.2835068,91.16907696,9.30483792,-31.690306979999995
0.61,61,0.116,-1.086,-0.002,-6.6463128000000005,10.4851314,-32.945085,91.11751074,9.6256944,-31.57571538
0.62,62,0.108,-1.103,-0.006,-9.5111028,7.8495246,-34.60666320000001,91.03729662,9.963739620000002,-31.48977168
0.63,63,0.094,-1.089,0.001,-12.1467096,6.3598338,-36.1536498,90.92270502,10.31897358,-31.42101672
0.64,64,0.08800000000000001,-1.06,0.009000000000000001,-13.2926256,5.0993262,-37.5860448,90.79092468,10.66847796,-31.36372092
0.65,65,0.096,-1.024,0.025,-13.521808800000002,2.7501984,-38.5027776,90.65914434,11.05235982,-31.32934344
0.66,66,0.119,-0.993,0.031,-13.6364004,-1.9480572,-39.3049188,90.51590484,11.44197126,-31.346532180000004
0.67,67,0.15,-0.972,0.038,-13.464512999999998,-6.0733548,-39.9351726,90.36693576,11.83731228,-31.40382798
0.68,68,0.165,-0.958,0.039,-13.8655836,-9.969469199999999,-40.5081306,90.20650752,12.24411246,-31.506960419999995
0.6900000000000001,69,0.166,-0.944,0.041,-13.407217200000002,-12.7196676,-41.6540466,90.04607927999999,12.65091264,-31.63301118
0.7000000000000001,70,0.149,-0.936,0.04,-12.9488508,-13.8655836,-44.06047020000001,89.88565104,13.0920903,-31.776250680000004
0.7100000000000001,71,0.12,-0.932,0.043,-12.891555,-13.2926256,-47.2117392,89.72522280000004,13.56191586,-31.913760600000003
0.72,72,0.098,-0.928,0.049,-12.5477802,-11.45916,-50.706783,89.56479456,14.066118900000001,-32.03408178
0.73,73,0.078,-0.921,0.067,-12.6623718,-8.5370742,-54.029939399999996,89.41582548,14.60469942,-32.12575506
0.74,74,0.064,-0.92,0.07400000000000001,-11.1153852,-3.8961144,-57.811462199999994,89.30123388000001,15.149009520000002,-32.16586212
0.75,75,0.066,-0.93,0.066,-9.8548776,-0.7448454000000001,-60.733548000000006,89.19810143999999,15.75061542,-32.183050859999994
0.76,76,0.091,-0.946,0.058,-8.021412000000002,0.0,-63.08267579999999,89.11215774000001,16.38086922,-32.18878044
0.77,77,0.113,-0.972,0.058,-6.760904399999999,-0.2291832000000001,-65.317212,89.03767320000001,17.02831176,-32.2002396
0.78,78,0.136,-0.998,0.053,-6.130650599999999,0.5156622000000001,-67.7236356,88.96891824000002,17.69867262,-32.20596918
0.79,79,0.153,-1.025,0.042,-5.443101,1.9480572,-70.473834,88.9230816,18.37476306,-32.19451002
0.8,80,0.174,-1.037,0.041,-5.9014674000000005,3.724227,-72.9948492,88.87151537999998,19.09669014,-32.1715917
0.81,81,0.196,-1.044,0.058,-5.6722842,4.8128472,-75.2866812,88.81994916,19.84726512,-32.13721422
0.8200000000000001,82,0.215,-1.0490000000000002,0.07200000000000001,-6.2452422,6.589017,-78.781725,88.77411251999996,20.626488000000002,-32.07991842
0.8300000000000001,83,0.232,-1.043,0.073,-7.5057497999999985,8.8235532,-81.932994,88.7225463,21.44008836,-32.005433880000005
0.8400000000000001,84,0.252,-1.051,0.058,-8.307891,10.0840608,-84.4540092,88.67098008,22.259418300000004,-31.913760600000003
0.85,85,0.274,-1.052,0.039,-10.5424272,8.8235532,-86.23017899999998,88.59076596,23.11312572,-31.839276060000003
0.86,86,0.298,-1.048,0.022,-11.8029348,6.589017,-87.94905299999998,88.48763352,23.98975146,-31.79343942000001
0.87,87,0.306,-1.037,0.018000000000000002,-12.5477802,5.1566220000000005,-90.1262934,88.37304191999998,24.87783636,-31.75906194
0.88,88,0.3,-1.015,0.008,-13.5791046,4.2398892,-92.3608296,88.24126158,25.79456916,-31.7418732
0.89,89,0.278,-0.989,0.003,-14.381245800000002,3.9534102,-94.824549,88.09802207999998,26.71703154,-31.73041404
0.9,90,0.244,-0.968,-0.009000000000000001,-13.980175199999998,6.2452422,-98.2050012,87.96624174,27.69106014,-31.69603656
0.91,91,0.229,-0.951,-0.002,-13.2353298,9.5111028,-101.413566,87.8631093,28.69373664,-31.6272816
0.92,92,0.225,-0.929,0.009000000000000001,-12.261301199999998,11.8602306,-104.1064686,87.77716559999998,29.73079062,-31.53560832
0.93,93,0.242,-0.901,0.013,-11.8602306,13.9228794,-105.5388636,87.71414021999998,30.77930376,-31.4267463
0.9400000000000001,94,0.277,-0.885,0.017,-10.4278356,15.3552744,-106.3410048,87.67403316,31.81635774,-31.28923638
0.9500000000000001,95,0.322,-0.878,0.018000000000000002,-9.6829902,16.042824000000003,-107.0285544,87.64538526,32.876330040000006,-31.15172646000001
0.9600000000000001,96,0.383,-0.872,0.002,-9.3965112,16.902261,-107.8306956,87.62819652,33.9477615,-31.00275738
0.97,97,0.445,-0.872,-0.02,-9.6256944,17.7044022,-109.148499,87.61673736,35.03065212,-30.84232914
0.98,98,0.46,-0.87,-0.036000000000000004,-11.0007936,16.329303,-110.2371192,87.58235988,36.13073148,-30.693360060000003
0.99,99,0.447,-0.845,-0.046,-12.261301199999998,17.18874,-110.294415,87.54798240000002,37.2136221,-30.5386614
1.0,100,0.435,-0.81,-0.047,-11.5737516,19.0795014,-110.0652318,87.53652324,38.3022423,-30.36104442
1.01,101,0.423,-0.7709999999999999,-0.051,-10.9434978,21.3140376,-110.12252759999998,87.55371198,39.40232166,-30.14904996
1.02,102,0.4370000000000001,-0.7340000000000001,-0.038,-9.3392154,22.5745452,-110.0652318,87.59954862,40.49667144,-29.91413718
1.03,103,0.47,-0.71,-0.009000000000000001,-6.875496000000001,22.5172494,-109.6641612,87.68549232000002,41.58529164,-29.67349482
1.04,104,0.508,-0.6940000000000001,0.0,-4.1825934,21.0848544,-109.434978,87.78862475999998,42.66818226,-29.44431162
1.05,105,0.569,-0.693,0.002,-2.4637194,20.6837838,-109.6068654,87.91467551999996,43.75680246,-29.21512842000001
1.06,106,0.635,-0.693,-0.004,-0.9167328,19.8816426,-110.580894,88.05791502,44.85688182,-28.9916748
1.07,107,0.684,-0.695,-0.039,-0.7448454000000001,20.912967,-112.24247220000001,88.22407283999998,45.96842034,-28.74530286
1.08,108,0.7340000000000001,-0.701,-0.059,0.286479,22.631841,-114.13323359999998,88.42460814,47.10287718,-28.46455344
1.09,109,0.768,-0.7,-0.049,0.0,21.6005166,-115.45103700000001,88.61941386,48.24879317999999,-28.1895336
1.1,110,0.799,-0.69,-0.039,0.9167328,20.5691922,-116.4823614,88.83140832000002,49.40616834,-27.91451376
1.11,111,0.8390000000000001,-0.682,-0.031,0.6875496,17.3606274,-117.3990942,89.01475488,50.56927308,-27.673871400000003
1.12,112,0.855,-0.654,-0.011,-0.9740286,12.318597,-117.97205220000001,89.13507606,51.7381074,-27.50771358
1.1300000000000001,113,0.845,-0.618,-0.006999999999999999,-2.2345362,9.9121734,-118.88878500000001,89.21529018,52.91840088,-27.37020366
1.1400000000000001,114,0.8140000000000001,-0.581,0.02,-4.4690724,9.740286,-120.89413799999998,89.28404514,54.1158831,-27.22696416
1.1500000000000001,115,0.785,-0.5539999999999999,0.015,-5.443101,10.1413566,-121.753575,89.3528001,55.32482448,-27.072265500000004
1.1600000000000001,116,0.789,-0.534,-0.003,-6.3025379999999975,12.032117999999999,-121.9827582,89.44447338,56.53376586,-26.87745978
1.17,117,0.799,-0.513,-0.033,-5.7868758000000025,13.8655836,-122.09734979999999,89.5819833,57.74270724,-26.63681742
1.18,118,0.7879999999999999,-0.4920000000000001,-0.054000000000000006,-5.6722842,14.495837400000001,-122.61301200000001,89.74241154,58.9573782,-26.37325674
1.19,119,0.779,-0.468,-0.034,-5.844171599999999,14.9542038,-123.47244899999998,89.9257581,60.17777874,-26.08677774
1.2,120,0.758,-0.433,-0.012,-6.417129599999999,17.131444199999994,-124.6756608,90.16067088,61.40963844,-25.73154378
1.21,121,0.76,-0.377,0.021,-6.417129599999999,21.7151082,-125.9361684,90.51590484,62.6529573,-25.25598864
1.22,122,0.773,-0.333,0.035,-6.0733548,23.777757,-126.337239,90.95135292,63.89627615999999,-24.68876022
1.23,123,0.787,-0.28300000000000003,0.04,-6.3598338,24.2361234,-125.2486188,91.4440968,65.12813586000001,-24.064236
1.24,124,0.8079999999999999,-0.253,0.061,-3.8388186,23.9496444,-123.70163219999999,92.02278438,66.35426598000001,-23.38241598
1.25,125,0.8140000000000001,-0.247,0.068,-2.7501984,22.2880662,-122.2119414,92.63011986,67.55174819999999,-22.6891368
1.26,126,0.805,-0.235,0.059,-2.4637194,21.829699800000004,-121.00872959999998,93.30048072,68.73204168,-21.93283224
1.27,127,0.802,-0.232,0.047,-1.3750992,24.2934192,-120.607659,94.13126982,69.90660558,-21.027558600000006
1.28,128,0.807,-0.237,0.038,-0.8021411999999999,25.8977016,-120.77954640000002,95.11675757999998,71.06971032,-19.9675863
1.29,129,0.7979999999999999,-0.218,0.051,-0.6875496,27.1009134,-120.034701,96.27986232,72.22708548,-18.729997020000006
1.3,130,0.809,-0.199,0.058,0.6875496,29.4500412,-118.37312279999999,97.68360942,73.35008316,-17.26322454
1.31,131,0.835,-0.184,0.04,0.057295800000000015,31.111619399999995,-116.76884040000002,99.33372846,74.44443294,-15.53862096
1.32,132,0.853,-0.16,0.031,-1.145916,32.142943800000005,-114.93537479999999,101.24740818,75.50440524000003,-13.53899754
1.33,133,0.8540000000000001,-0.13699999999999998,0.036000000000000004,-1.2605076000000002,31.627281600000003,-112.6435428,103.41318942,76.5185409,-11.28154302
1.34,134,0.852,-0.117,0.043,-1.432395,30.9970278,-110.40900659999998,105.8826384,77.49829908000002,-8.72615034
1.35,135,0.8590000000000001,-0.115,0.051,-1.0886202,32.4294228,-109.3203864,108.82191294,78.43222062,-5.70666168
1.36,136,0.8690000000000001,-0.099,0.057,-0.9167328,35.695283399999994,-109.6641612,112.43727792,79.32030552,-2.01108258
1.37,137,0.879,-0.063,0.067,-0.6302538000000001,37.8725238,-111.5549226,116.84332494,80.1568242,2.48090814
1.3800000000000001,138,0.914,-0.02,0.07,-0.286479,40.737313799999995,-115.2791496,122.32080342,80.94750624,8.044330319999998
1.3900000000000001,139,0.967,0.023,0.068,0.572958,41.023792799999995,-119.34715140000002,129.01295285999998,81.6751629,14.810964300000002
1.4000000000000001,140,1.055,0.064,0.043,1.9480572,39.0184398,-123.47244899999998,136.94269158,82.29968712,22.80945798
1.4100000000000001,141,1.157,0.07200000000000001,0.002,3.151269,35.7525792,-125.764281,146.09283084,82.79243100000002,32.01116346
1.42,142,1.25,0.027000000000000003,0.0,3.4377480000000005,31.2835068,-122.26923719999999,155.89041264,83.10182832,41.848852320000006
1.43,143,1.327,0.009000000000000001,0.02,0.9740286,25.6112226,-112.81543020000001,165.3843267,83.23360865999999,51.41152134
1.44,144,1.435,0.063,0.009000000000000001,-3.0366774,21.829699800000004,-99.0644382,173.80107972000005,83.19923118,59.92567722
1.45,145,1.612,0.194,0.078,-6.990087599999999,18.334656,-80.50059900000002,-179.60514426,83.05599168,66.63501540000001
1.46,146,1.7180000000000002,0.338,0.17600000000000002,-12.261301199999998,10.1986524,-57.4103916,-175.16471976,82.92994092,71.23586814000002
1.47,147,1.729,0.3720000000000001,0.269,-13.0634424,7.9641161999999985,-36.898495200000006,-172.47181716,82.81534932000002,74.0834694
1.48,148,1.713,0.28800000000000003,0.31,-13.178034,8.7089616,-15.9282324,-171.49205898,82.7064873,75.20646708
1.49,149,1.626,0.142,0.28300000000000003,-15.6417534,10.7716104,3.8961144,-172.08220572,82.60908443999998,74.771019
1.5,150,1.4380000000000002,0.006999999999999999,0.257,-20.9702628,15.2406828,20.9702628,-174.05891082,82.48303368,72.9948492
1.51,151,1.285,-0.064,0.229,-23.6631654,17.475219,33.8618178,-176.96953746,82.34552376,70.30767618000002
1.52,152,1.196,-0.08900000000000001,0.209,-23.777757,13.2926256,39.7632852,179.79994998,82.22520258,67.2939171
1.53,153,1.099,-0.064,0.21600000000000005,-24.350715,3.4377480000000005,39.820581,176.6429514,82.18509551999998,64.36037214000001
1.54,154,0.956,0.003,0.26,-25.9549974,-11.229976800000001,34.60666320000001,173.89848258,82.2481209,61.850816099999996
1.55,155,0.816,0.099,0.29,-25.4393352,-16.902261,26.0122932,171.600921,82.37990124000002,59.7881673
1.56,156,0.7,0.171,0.297,-24.694489800000003,-16.558486199999994,17.18874,169.89350616000004,82.52314074,58.31566524000001
1.57,157,0.643,0.208,0.301,-21.9442914,-11.6310474,9.3392154,168.81634512,82.62054359999998,57.45049866
1.58,158,0.583,0.243,0.278,-19.308684600000007,-5.443101,2.3491278,168.35797872,82.67210982,57.18693798
1.59,159,0.5920000000000001,0.239,0.246,-14.037471,2.6356068,-3.4950437999999995,168.98250294,82.63200276,57.94897212000001
1.6,160,0.6859999999999999,0.154,0.225,-7.5057497999999985,12.7769634,-5.2712136,169.4523285,82.51741116,58.49901180000001
1.61,161,0.8079999999999999,0.055,0.211,-3.151269,19.194093,-3.6669312000000014,169.90496532,82.33406459999998,58.99175568
1.62,162,0.898,0.023,0.228,0.0,20.626488,-2.4064236,170.29457676,82.13352929999998,59.38709670000001
1.6300000000000001,163,0.984,0.016,0.269,2.86479,18.8503182,-3.8961144,170.78159105999995,81.95591232000002,59.85119268
1.6400000000000001,164,1.064,0.006999999999999999,0.311,5.72958,15.469866,-6.8182002000000015,171.56654352,81.77256575999998,60.58457892
1.6500000000000001,165,1.132,0.004,0.331,6.875496000000001,11.6310474,-9.5111028,172.3744143,81.66943332,61.32942432
1.6600000000000001,166,1.181,0.012,0.331,6.3025379999999975,7.448453999999999,-11.172681,173.23958088,81.61213752,62.14302468
1.6700000000000002,167,1.204,0.02,0.315,5.443101,1.8334656000000005,-11.2872726,174.06464039999997,81.60067836,62.92224756
1.68,168,1.194,0.029,0.305,5.0993262,-4.0680017999999984,-9.6829902,174.75218999999996,81.65224458,63.56396052
1.69,169,1.148,0.033,0.287,5.2139178,-9.797581800000001,-6.990087599999999,175.38244379999998,81.72672911999999,64.13691852000001
1.7,170,1.098,0.039,0.284,5.6722842,-15.5844576,-4.3544808,175.6975707,81.88142778,64.39474962
1.71,171,1.0759999999999998,0.053,0.294,6.9327918,-17.3606274,-4.010706000000001,176.00123844,82.05331518,64.6296624
1.72,172,1.079,0.064,0.295,9.3392154,-18.334656,-4.6982556,176.39084988,82.23666174,64.92187098
1.73,173,1.084,0.056,0.282,12.0894138,-21.3140376,-4.4690724,176.80910922,82.4486562,65.21980914
1.74,174,1.095,0.029,0.272,13.464512999999998,-24.2934192,-2.86479,177.21017981999995,82.66638024,65.47764024
1.75,175,1.102,0.009000000000000001,0.257,13.349921400000001,-27.5592798,-0.057295800000000015,177.32477142,82.9356705,65.44899233999999
1.76,176,1.092,0.008,0.241,13.120738199999998,-31.913760600000003,2.9793816000000004,177.17007275999995,83.25079740000002,65.16251334
1.77,177,1.0659999999999998,0.01,0.223,12.2040054,-35.4088044,5.844171599999999,176.7288951,83.5945722,64.58382576
1.78,178,1.036,0.016,0.199,10.6570188,-37.1276784,7.9641161999999985,176.00696802,83.95553574,63.74157750000001
1.79,179,1.006,0.017,0.17600000000000002,10.4278356,-35.9244666,8.479778399999999,175.23347472,84.28785138,62.84776302
1.8,180,0.976,0.006,0.159,11.0580894,-33.6326346,8.3651868,174.28809402,84.61443744,61.78206114
1.81,181,0.951,-0.006999999999999999,0.145,11.8029348,-32.142943800000005,8.021412000000002,173.27395836,84.91810518,60.64187472
1.82,182,0.939,-0.026,0.142,12.0894138,-31.22621100000001,7.906820400000001,172.15669026,85.21604334,59.38709670000001
1.83,183,0.937,-0.042,0.129,11.2872726,-30.1375908,8.193299399999999,170.84461644,85.50252234,57.96043128
1.84,184,0.946,-0.045,0.114,10.026765,-29.507337,8.8235532,169.22314530000003,85.76608302,56.22436854
1.85,185,0.972,-0.04,0.099,8.880849000000003,-29.5646328,9.3965112,167.33811348,86.03537328,54.23620428
1.86,186,1.002,-0.041,0.08900000000000001,7.0473834,-28.4187168,9.969469199999999,165.10357728,86.28174521999998,51.92145396
1.87,187,1.017,-0.035,0.067,6.016058999999999,-28.2468294,10.1413566,162.50807754,86.52811716,49.25719926
1.8800000000000001,188,1.028,-0.031,0.046,5.0993262,-29.1635622,10.313244,159.43702266,86.76875952,46.123119
1.8900000000000001,189,1.032,-0.035,0.031,4.5263682,-30.252182399999995,10.1413566,155.71279566,87.02086104,42.34732578
1.9000000000000001,190,1.034,-0.051,0.016,4.3544808,-31.627281600000003,10.026765,151.34112612,87.25577381999999,37.91836044
1.9100000000000001,191,1.025,-0.07,0.01,4.1252976000000015,-33.116972399999995,9.3965112,146.11001958000003,87.49641618000004,32.635687680000004
1.9200000000000002,192,1.009,-0.08800000000000001,0.01,4.1825934,-33.8618178,8.021412000000002,139.98509855999998,87.7198698,26.45920044
1.93,193,0.986,-0.107,0.015,4.5263682,-33.6326346,6.130650599999999,133.02365886,87.92613467999998,19.44046494
1.94,194,0.962,-0.118,0.0,4.1825934,-32.31483119999999,3.6096354,124.60117626,88.0922925,10.9721457
1.95,195,0.949,-0.122,-0.014,3.2658606,-31.4553942,1.7188740000000002,116.1099387,88.24126158,2.4350715000000003
1.96,196,0.942,-0.124,-0.029,2.578311,-30.93973200000001,0.3437748,106.58737674,88.35585318,-7.116138359999999
1.97,197,0.933,-0.118,-0.035,1.8334656000000005,-29.9084076,-0.9167328,96.35434686,88.43606729999998,-17.37781614
1.98,198,0.927,-0.107,-0.039,1.0313244,-27.903054600000004,-2.1199446,86.15569446,88.47044478000002,-27.5879277
1.99,199,0.933,-0.095,-0.04,0.1718874,-25.1528562,-2.9793816000000004,76.1747661,88.44179688,-37.58031522
2.0,200,0.938,-0.084,-0.034,-0.4010706,-23.032911600000002,-3.151269,67.86114552,88.40741940000002,-45.893935799999994
2.01,201,0.943,-0.076,-0.033,-0.8594370000000001,-20.912967,-2.7501984,60.74500716,88.34439402000002,-53.00434458
2.02,202,0.954,-0.07400000000000001,-0.045,-1.8334656000000005,-17.9335854,-1.9480572,55.17012582,88.26990948,-58.56776676
2.03,203,0.959,-0.07400000000000001,-0.06,-2.4064236,-16.272007199999994,-1.6615782,50.55781392,88.18969536,-63.15716034
2.04,204,0.962,-0.081,-0.056,-2.4637194,-14.7250206,-1.5469866,46.73045448000001,88.0636446,-66.96160146
2.05,205,0.974,-0.084,-0.055,-3.0939732,-13.2926256,-1.432395,43.61356296,87.98343048000002,-70.04984508
2.0599999999999996,206,0.99,-0.08900000000000001,-0.05,-3.4377480000000005,-13.2926256,-0.9740286,40.83471666,87.89748678,-72.79431389999998
2.07,207,0.998,-0.09,-0.041,-4.2398892,-13.521808800000002,-0.6302538000000001,38.31370146,87.80008391999998,-75.28095162
2.0799999999999996,208,0.996,-0.087,-0.038,-4.9847345999999995,-13.178034,-0.6875496,36.03905820000001,87.70268106,-77.50402865999997
2.09,209,0.993,-0.081,-0.033,-5.1566220000000005,-11.516455800000001,-1.0313244,34.60666320000001,87.58808946,-78.89058702
2.0999999999999996,210,0.996,-0.078,-0.036000000000000004,-5.2139178,-8.7662574,-1.2605076000000002,33.12270198,87.52506408,-80.31725244
2.11,211,1.002,-0.076,-0.042,-5.3285094000000015,-6.5317212,-0.7448454000000001,32.09137758,87.47349786,-81.29701062000002
2.1199999999999997,212,1.006,-0.07200000000000001,-0.049,-5.6149884000000005,-5.1566220000000005,0.0,31.409557560000003,87.42766122,-81.92726442
2.13,213,1.005,-0.069,-0.045,-6.016058999999999,-4.4690724,0.7448454000000001,30.9683799,87.38755416000002,-82.3054167
2.1399999999999997,214,0.995,-0.063,-0.04,-6.130650599999999,-3.724227,1.145916,31.07724192,87.31879920000002,-82.12779972
2.15,215,0.98,-0.062,-0.039,-5.6722842,-2.5210152000000003,0.8594370000000001,30.88816578,87.29015129999998,-82.25958005999998
2.1599999999999997,216,0.965,-0.058,-0.036000000000000004,-5.042030400000002,-0.9167328,0.057295800000000015,30.75638544000001,87.28442172,-82.34552376
2.17,217,0.957,-0.053,-0.036000000000000004,-4.0680017999999984,0.7448454000000001,-0.9740286,30.61887552,87.29588088,-82.43719704
2.1799999999999997,218,0.96,-0.05,-0.037000000000000005,-3.0939732,2.578311,-2.0626488000000003,30.498554340000005,87.32452878000002,-82.52887032
2.19,219,0.966,-0.049,-0.039,-2.291832,3.3231564,-2.9220857999999996,30.424069799999995,87.34171752,-82.57470696
2.1999999999999997,220,0.973,-0.05,-0.038,-1.5469866,3.4950437999999995,-3.4377480000000005,30.166238699999997,87.38755416000002,-82.82107890000002
2.21,221,0.979,-0.051,-0.033,-0.6302538000000001,3.4950437999999995,-3.724227,29.84538222,87.43912037999998,-83.13047622
2.2199999999999998,222,0.983,-0.052000000000000005,-0.027000000000000003,0.11459160000000004,3.6669312000000014,-3.8961144,29.50160742,87.49068659999998,-83.47425102000003
2.23,223,0.983,-0.044,-0.019,0.6875496,3.8961144,-4.0680017999999984,29.152103040000004,87.54225282,-83.83521456
2.2399999999999998,224,0.983,-0.038,-0.013,1.6042823999999998,4.3544808,-4.010706000000001,29.12345514,87.61100778,-83.8810512
2.25,225,0.986,-0.033,-0.009000000000000001,2.5210152000000003,4.7555514,-3.8961144,28.91146068,87.66830358,-84.11596397999998
2.26,226,0.99,-0.031,-0.011,3.6096354,5.3285094000000015,-3.724227,28.79686908,87.73705853999998,-84.26493306
2.27,227,0.995,-0.03,-0.013,4.1252976000000015,5.844171599999999,-3.380452200000001,28.83124656,87.80008391999998,-84.27639222
2.28,228,1.0,-0.029,-0.013,4.583664,6.1879464,-2.9793816000000004,29.00886354,87.86883888,-84.13888229999998
2.29,229,1.004,-0.026,-0.01,5.2712136,6.589017,-2.5210152000000003,29.35263834,87.94905299999998,-83.85240329999998
2.3,230,1.009,-0.026,-0.006,5.9014674000000005,6.875496000000001,-2.0626488000000003,29.902678020000003,88.01780796,-83.35965941999999
2.31,231,1.014,-0.028,-0.001,6.5317212,7.1046792000000005,-1.6042823999999998,30.65325300000001,88.08656292,-82.67783940000002
2.32,232,1.02,-0.03,0.0,7.0473834,7.3911582,-1.145916,31.62155202000001,88.15531788,-81.77829534
2.3299999999999996,233,1.033,-0.035,-0.01,7.448453999999999,6.9327918,-0.7448454000000001,32.69298348,88.21834326000004,-80.78134842
2.34,234,1.038,-0.044,-0.011,8.021412000000002,5.6149884000000005,-0.7448454000000001,34.016516460000005,88.26417990000002,-79.53802956
2.3499999999999996,235,1.034,-0.045,-0.006,7.2192707999999985,4.3544808,-0.9740286,34.66395900000001,88.30428696,-78.96507156
2.36,236,1.034,-0.049,0.0,7.1046792000000005,3.6096354,-1.0886202,35.1509733,88.33866443999996,-78.54681221999998
2.3699999999999997,237,1.029,-0.048,0.005,6.3025379999999975,3.0939732,-1.3178034,35.48901852,88.37304191999998,-78.27752196
2.38,238,1.026,-0.047,0.006999999999999999,5.7868758000000025,2.9220857999999996,-1.4896908000000002,35.74684962,88.40741940000002,-78.07125708
2.3899999999999997,239,1.028,-0.047,0.006,5.72958,3.151269,-1.7188740000000002,36.91568394,88.44179688,-76.95971856
2.4,240,1.033,-0.045,0.002,4.6982556,3.0939732,-1.7761698,37.15059672,88.48190394,-76.77637200000002
2.4099999999999997,241,1.032,-0.045,0.004,3.724227,2.3491278,-1.6042823999999998,37.25945874,88.51055184,-76.70761704
2.42,242,1.026,-0.049,0.011,3.0366774,1.4896908000000002,-1.3178034,37.23654042,88.52774058,-76.75918326
2.4299999999999997,243,1.019,-0.051,0.018000000000000002,2.3491278,1.432395,-1.145916,37.24799958000001,88.54492932000002,-76.77064241999999
2.44,244,1.021,-0.05,0.022,1.7761698,2.1199446,-1.2032118,40.2216516,88.59076596,-73.81990872
2.4499999999999997,245,1.015,-0.048,0.022,2.1199446,3.4377480000000005,-1.3750992,40.74877296,88.62514344,-73.3099761
2.46,246,1.008,-0.045,0.023,2.2345362,3.4377480000000005,-1.145916,41.39048592,88.65952092,-72.69691104
2.4699999999999998,247,1.012,-0.044,0.012,1.0313244,3.380452200000001,-0.6875496,42.16397922,88.68816882,-71.93487689999998
2.48,248,1.014,-0.041,0.01,0.3437748,3.2658606,-0.3437748,43.06352328,88.71681672,-71.03533284
2.4899999999999998,249,1.016,-0.038,0.016,0.2291832000000001,2.4064236,0.057295800000000015,48.61548629999999,88.7511942,-65.4890994
2.5,250,1.015,-0.041,0.02,0.057295800000000015,1.6615782,0.286479,49.30876548,88.76265336,-64.79582022
2.51,251,1.015,-0.041,0.023,-0.1718874,1.8907613999999997,0.2291832000000001,50.07079962,88.76838294000002,-64.03378608
2.52,252,1.024,-0.043,0.035,-0.3437748,2.578311,0.11459160000000004,51.0505578,88.78557168,-63.04829832
2.53,253,1.042,-0.046,0.054000000000000006,-0.572958,5.0993262,-0.057295800000000015,52.9699671,88.81421958,-61.12315944
2.54,254,1.062,-0.043,0.048,-0.6302538000000001,7.5057497999999985,-0.11459160000000004,58.16096658,88.87724496000001,-55.92643038
2.55,255,1.085,-0.042,0.033,-0.057295800000000015,7.8495246,-0.057295800000000015,61.69038786,88.91162244,-52.39127952
2.56,256,1.096,-0.048,0.018000000000000002,-1.2605076000000002,5.2712136,0.6302538000000001,64.34891298,88.92881118,-49.72129524
2.57,257,1.106,-0.048,0.035,-2.7501984,1.0313244,2.0053530000000004,65.2885641,88.91735202,-48.75299622
2.5799999999999996,258,1.127,-0.044,0.05,-3.8961144,-2.7501984,2.86479,64.5437187,88.87724496000001,-49.45773456
2.59,259,1.171,-0.038,0.084,-6.1879464,-4.9847345999999995,2.9220857999999996,63.9421128,88.8371379,-49.99631508
2.5999999999999996,260,1.26,-0.037000000000000005,0.094,-10.1986524,-5.2139178,2.9220857999999996,62.171672580000006,88.79130126,-51.66935244
2.61,261,1.329,-0.023,0.077,-12.834259199999998,-8.4224826,4.3544808,59.56471368,88.71108714,-54.14453099999999
2.6199999999999997,262,1.3969999999999998,-0.009000000000000001,0.048,-16.615782,-16.4438946,7.5630456000000015,55.19304414,88.56211806,-58.3557723
2.63,263,1.4269999999999998,-0.003,0.057,-19.938938399999998,-25.1528562,12.891555,50.38019694,88.31001654,-62.96808420000001
2.6399999999999997,264,1.349,-0.006999999999999999,0.033,-23.2620948,-34.60666320000001,18.334656,45.85382874,87.95478258,-67.2652692
2.65,265,1.203,-0.033,0.02,-24.1788276,-41.3675676,25.0955604,42.69110058,87.49068659999998,-70.19308457999999
2.6599999999999997,266,1.068,-0.029,0.004,-25.55392680000001,-41.9405256,30.366774000000003,41.14411398,86.98648356,-71.48796966
2.67,267,0.977,0.006999999999999999,-0.023,-24.694489800000003,-36.7839036,33.231564,40.92638994,86.49373968,-71.45932176
2.6799999999999997,268,0.93,0.028,-0.062,-23.204799,-34.4920716,35.0650296,41.1670323,86.01245496,-70.9894962
2.69,269,0.924,0.021,-0.033,-20.2254174,-35.7525792,34.8358464,41.17276188,85.53117024000002,-70.78323132
2.6999999999999997,270,0.925,-0.014,0.026,-17.0168526,-35.9817624,33.403451399999994,41.09827734,85.04988552,-70.69155803999998
2.71,271,0.931,-0.042,0.044,-16.558486199999994,-34.3201842,31.5699858,40.9951449,84.59151912,-70.62280308000003
2.7199999999999998,272,0.918,-0.063,0.027000000000000003,-18.449247600000003,-33.231564,30.0229992,40.84044624,84.15034145999998,-70.59988476
2.73,273,0.917,-0.075,0.002,-19.5378678,-32.257535399999995,29.1062664,40.680018,83.72062296,-70.56550728
2.7399999999999998,274,0.892,-0.058,-0.02,-19.308684600000007,-31.3980984,27.444688199999998,40.47375312,83.31955236,-70.58269602
2.75,275,0.862,-0.048,-0.057,-19.5378678,-31.054323600000004,26.642547,40.24456992,82.91275218,-70.61707349999998
2.76,276,0.845,-0.038,-0.037000000000000005,-18.6784308,-30.5386614,26.356068,40.04403462,82.51741116,-70.62853265999998
2.77,277,0.862,-0.026,-0.025,-17.589810600000003,-30.252182399999995,25.78311,39.85495848000001,82.12779972,-70.65145097999998
2.78,278,0.888,-0.019,-0.006,-16.042824000000003,-30.9970278,24.8663772,39.60285696,81.73245870000002,-70.74312426
2.79,279,0.948,-0.031,0.001,-13.2353298,-30.3094782,24.4653066,39.41378082,81.37149516,-70.80614964
2.8,280,0.987,-0.049,0.0,-11.8602306,-31.913760600000003,25.6112226,39.23043426,80.97042456,-70.86917502
2.81,281,0.988,-0.08800000000000001,0.026,-10.4851314,-32.945085,28.5906042,39.17313846,80.54070606,-70.82906796
2.82,282,0.954,-0.112,0.006999999999999999,-10.255948199999999,-30.9970278,31.971056400000002,39.3335667,80.11098756,-70.5597777
2.8299999999999996,283,0.924,-0.116,-0.03,-11.229976800000001,-28.8770832,33.74722620000001,39.62004570000001,79.67553948,-70.15870709999999
2.84,284,0.91,-0.11,-0.073,-10.6570188,-25.78311,33.518043,39.9924684,79.28019846,-69.67742238
2.8499999999999996,285,0.918,-0.093,-0.09,-11.229976800000001,-22.4026578,31.627281600000003,40.35916152,78.90777576,-69.19040808
2.86,286,0.996,-0.08800000000000001,-0.079,-12.4331886,-18.048177,28.5906042,40.71439548,78.58691927999998,-68.69766419999999
2.8699999999999997,287,1.077,-0.098,-0.116,-12.0894138,-17.5325148,26.69984280000001,41.00087448,78.28325154000002,-68.28513444
2.88,288,1.111,-0.111,-0.124,-12.0894138,-19.4232762,27.215505,41.2243281,77.96239505999998,-67.93563006
2.8899999999999997,289,1.142,-0.14800000000000002,-0.112,-10.8289062,-22.173474600000002,29.335449600000004,41.4535113,77.61289067999998,-67.59758484
2.9,290,1.132,-0.163,-0.122,-11.45916,-24.637194,32.0283522,41.6540466,77.22327924,-67.27099878
2.9099999999999997,291,1.112,-0.157,-0.133,-12.5477802,-25.4393352,34.4347758,41.883229799999995,76.81074948,-66.91003524
2.92,292,1.136,-0.147,-0.119,-13.0061466,-25.6112226,36.669312,42.15824964,76.38103097999998,-66.49750548
2.9299999999999997,293,1.189,-0.14,-0.14,-12.318597,-27.444688199999998,39.3049188,42.43899906,75.916935,-66.07924614
2.94,294,1.234,-0.141,-0.152,-12.032117999999999,-32.7159018,43.1437374,42.66818226,75.4012728,-65.72401218
2.9499999999999997,295,1.267,-0.138,-0.129,-11.172681,-37.757932200000006,47.0971476,42.86871756,74.81685564,-65.40888528
2.96,296,1.266,-0.13699999999999998,-0.138,-9.3392154,-42.62807520000001,50.8786704,43.04060496,74.1694131,-65.13959502
2.9699999999999998,297,1.211,-0.132,-0.129,-8.59437,-45.83664,55.11855960000001,43.23541068,73.47040434,-64.85311602
2.98,298,1.166,-0.129,-0.119,-6.016058999999999,-48.128471999999995,59.0719698,43.47605304,72.73128852,-64.5437187
2.9899999999999998,299,1.142,-0.123,-0.125,-4.297185,-49.90464179999999,61.9367598,43.72242498,71.96925438,-64.24578054
3.0,300,1.13,-0.107,-0.142,-3.151269,-52.19647379999999,64.11400019999999,43.9745265,71.16711318,-63.95930154
3.01,301,1.11,-0.097,-0.156,-1.0313244,-54.20182679999999,65.8328742,44.21516886,70.33632408,-63.70147044
3.02,302,1.072,-0.104,-0.149,1.7188740000000002,-55.6915176,67.5517482,44.46727038,69.48261666,-63.46082808
3.03,303,1.042,-0.117,-0.135,5.2139178,-54.3737142,68.8122558,44.78239728,68.62890924,-63.19153781999999
3.04,304,0.992,-0.135,-0.157,8.479778399999999,-54.7747848,69.6716928,45.10325376,67.7809314,-62.94516588000001
3.05,305,0.972,-0.166,-0.184,9.453807000000001,-56.3790672,70.473834,45.41265108,66.90430566,-62.72744184
3.06,306,0.98,-0.17600000000000002,-0.166,11.2872726,-57.06661679999999,71.5624542,45.7220484,66.01049118,-62.51544738
3.07,307,0.999,-0.17800000000000002,-0.154,13.2926256,-57.811462199999994,72.82296179999999,46.04863446,65.10521754,-62.32064166
3.08,308,1.007,-0.185,-0.179,13.8082878,-61.4210976,75.1147938,46.33511346,64.15983684,-62.16594299999999
3.09,309,0.986,-0.172,-0.191,14.0947668,-65.2026204,78.7244292,46.59867414,63.18007865999999,-62.04562182000001
3.0999999999999996,310,0.95,-0.16,-0.207,16.386598799999998,-65.66098679999999,83.3080932,46.93098978,62.14875426,-61.87373441999999
3.11,311,0.898,-0.159,-0.238,18.3919518,-65.4890994,87.37609499999998,47.31487163999999,61.08878196000001,-61.65601038
3.1199999999999997,312,0.847,-0.163,-0.262,19.938938399999998,-66.9787902,90.9857304,47.72167182000001,59.98870260000001,-61.43255676
3.13,313,0.805,-0.177,-0.277,22.0015872,-68.8122558,94.4807742,48.13993116,58.84851618,-61.22056230000001
3.1399999999999997,314,0.779,-0.2,-0.284,24.9809688,-68.01011460000001,97.689339,48.59829756,57.70260018000001,-60.991379099999996
3.15,315,0.77,-0.225,-0.28300000000000003,26.9863218,-65.7755784,100.0384668,49.11968934,56.54522502,-60.71062968
3.1599999999999997,316,0.746,-0.238,-0.281,29.0489706,-66.3485364,102.559482,49.6468107,55.35920196000001,-60.44133942
3.17,317,0.677,-0.273,-0.336,30.080295,-69.4425096,104.9659056,50.15101374,54.13307184,-60.20642664
3.1799999999999997,318,0.627,-0.312,-0.37,27.8457588,-62.738901,106.97125859999998,50.70105342,52.93558962000001,-59.89702932
3.19,319,0.581,-0.361,-0.361,30.194886600000004,-54.7747848,108.2317662,51.32557764000001,51.76675529999999,-59.50168829999999
3.1999999999999997,320,0.524,-0.419,-0.407,29.0489706,-50.5348956,108.86202,51.96156102,50.62656888,-59.0719698
3.21,321,0.502,-0.462,-0.445,25.84040580000001,-44.1750618,109.2630906,52.60327398,49.50930078,-58.59068508
3.2199999999999998,322,0.498,-0.499,-0.466,25.496631,-37.9871154,108.2317662,53.26217568,48.43786932,-58.06929330000001
3.23,323,0.509,-0.536,-0.48,25.3247436,-35.695283399999994,105.710751,53.89242948,47.38935618000001,-57.57654941999999
3.2399999999999998,324,0.524,-0.5539999999999999,-0.496,24.694489800000003,-34.37748,101.3562702,54.46538748,46.36949094,-57.13537176
3.25,325,0.552,-0.568,-0.5,25.3820394,-31.79916900000001,95.7412818,55.02115674,45.42411024,-56.72284200000001
3.26,326,0.5670000000000001,-0.585,-0.508,25.2674478,-29.67922440000001,88.5793068,55.54254852,44.54175492,-56.36187846
3.27,327,0.5539999999999999,-0.593,-0.493,25.78311,-27.2728008,81.9902898,56.02956282,43.72242498,-56.04102198
3.28,328,0.514,-0.612,-0.487,27.1582092,-23.204799,76.0888224,56.5223067,42.97757958,-55.73162466
3.29,329,0.477,-0.643,-0.484,27.501984000000004,-18.3919518,70.07276340000001,57.00359142,42.27857082,-55.42795692
3.3,330,0.467,-0.659,-0.453,28.5333084,-13.2353298,65.4318036,57.51352404000001,41.66550576,-55.10710044
3.31,331,0.466,-0.665,-0.41,30.0229992,-10.313244,62.68160520000001,58.03491582,41.09254776,-54.78051438
3.32,332,0.483,-0.6709999999999999,-0.3670000000000001,31.51269000000001,-8.307891,61.30650600000001,58.56776676,40.53104892,-54.45392832
3.33,333,0.503,-0.67,-0.35100000000000003,31.971056400000002,-7.6203414,61.24921020000001,59.10634728,39.98100924,-54.12734226
3.34,334,0.506,-0.675,-0.35200000000000004,32.31483119999999,-8.136003599999999,62.5670136,59.64492780000001,39.39659208,-53.80648578
3.3499999999999996,335,0.486,-0.684,-0.35700000000000004,32.8877892,-8.021412000000002,64.62966239999999,60.1892379,38.80644534,-53.47989972000001
3.36,336,0.445,-0.706,-0.391,33.002380800000005,-4.5263682,66.9787902,60.75073674,38.21056902,-53.1132066
3.3699999999999997,337,0.401,-0.733,-0.421,31.913760600000003,-0.2291832000000001,69.55710119999999,61.3351539,37.60896312,-52.68921768
3.38,338,0.381,-0.7509999999999999,-0.426,32.0283522,4.1252976000000015,71.8489332,61.94821896,37.00162764,-52.21939212000001
3.3899999999999997,339,0.373,-0.762,-0.421,32.31483119999999,6.4744254,73.96887779999999,62.57274318,36.35991468,-51.72091866
3.4,340,0.3720000000000001,-0.764,-0.411,32.6013102,10.1986524,75.74504759999998,63.22018572,35.73539046000001,-51.18233814
3.4099999999999997,341,0.368,-0.762,-0.401,33.1742682,14.381245800000002,76.54718879999999,63.89054658,35.11659582,-50.60938014
3.42,342,0.371,-0.76,-0.383,34.262888399999994,17.475219,76.60448459999998,64.5723666,34.503530760000004,-50.01350382
3.4299999999999997,343,0.394,-0.773,-0.363,35.122325399999994,18.5638392,76.7190762,65.26564578,33.8904657,-49.4176275
3.44,344,0.423,-0.797,-0.358,35.122325399999994,19.0795014,77.062851,65.94173622000001,33.260211899999995,-48.82748076
3.4499999999999997,345,0.452,-0.833,-0.353,34.37748,18.7357266,77.80769640000003,66.6063675,32.62422852,-48.24879317999999
3.46,346,0.456,-0.8540000000000001,-0.336,33.1742682,17.5325148,78.2660628,67.2366213,31.97678598,-47.698753499999995
3.4699999999999998,347,0.442,-0.867,-0.322,32.31483119999999,16.615782,78.1514712,67.84395678,31.32361386,-47.17163214
3.48,348,0.429,-0.8740000000000001,-0.307,30.7105488,16.7876694,77.34933000000002,68.41691478,30.67044174,-46.65596994000001
3.4899999999999998,349,0.403,-0.866,-0.28800000000000003,29.67922440000001,16.1001198,76.20341400000002,68.97268404,30.00581046,-46.15749648
3.5,350,0.35100000000000003,-0.856,-0.29,28.991674800000002,16.673077799999998,75.1147938,69.50553498000001,29.369827080000004,-45.67621176
3.51,351,0.303,-0.845,-0.28300000000000003,28.5333084,19.0222056,73.625103,70.03265634,28.74530286,-45.18346788
3.52,352,0.272,-0.843,-0.275,29.335449600000004,22.5745452,71.7343416,70.57123686,28.14369696,-44.66780568
3.53,353,0.268,-0.852,-0.275,29.335449600000004,26.5852512,69.21332640000001,71.12127654,27.57646854,-44.12349558
3.54,354,0.282,-0.863,-0.261,29.507337,29.1635622,67.0933818,71.67131622000002,27.02069928,-43.573455900000006
3.55,355,0.308,-0.878,-0.258,28.8770832,31.340802600000004,65.4318036,72.21562631999998,26.49357792,-43.01768664
3.56,356,0.331,-0.8859999999999999,-0.244,27.6165756,32.2002396,64.8015498,72.7370181,25.96645656,-42.456187799999995
3.57,357,0.341,-0.888,-0.237,27.2728008,31.6845774,64.6869582,73.24695072,25.4393352,-41.91187770000001
3.58,358,0.34,-0.8909999999999999,-0.235,27.3873924,31.3980984,64.62966239999999,73.75115376,24.90648426000001,-41.37902676
3.59,359,0.335,-0.903,-0.237,27.6738714,31.5699858,64.3431834,74.24389764,24.36217416,-40.8519054
3.5999999999999996,360,0.32299999999999995,-0.916,-0.232,27.6165756,31.6845774,63.82752120000001,74.73664152,23.82932322,-40.33051362
3.61,361,0.333,-0.923,-0.228,27.788463,31.6845774,62.853492599999996,75.21792624,23.30220186,-39.820581
3.6199999999999997,362,0.334,-0.929,-0.218,28.0176462,31.51269000000001,61.4210976,75.69348138000002,22.78653966,-39.32210754000001
3.63,363,0.338,-0.929,-0.206,28.304125199999998,30.1375908,60.0459984,76.16330694,22.27087746,-38.8465524
3.6399999999999997,364,0.333,-0.93,-0.199,28.991674800000002,28.361421000000004,59.014674,76.62167334,21.76094484,-38.40537474
3.65,365,0.33,-0.934,-0.18600000000000005,29.507337,26.298772200000002,58.2125328,77.06858058,21.25101222,-37.9871154
3.6599999999999997,366,0.321,-0.941,-0.17,30.1375908,23.376686399999997,57.58227899999999,77.50975824000002,20.7410796,-37.60896312
3.67,367,0.309,-0.954,-0.165,31.2835068,21.829699800000004,56.3790672,77.9509359,20.23687656,-37.25372916
3.6799999999999997,368,0.307,-0.971,-0.162,31.79916900000001,21.1421502,54.94667220000001,78.38638397999998,19.74413268,-36.90995436
3.69,369,0.298,-0.988,-0.155,30.9970278,19.480572,53.285094,78.8103729,19.2513888,-36.59482746
3.6999999999999997,370,0.284,-0.996,-0.142,30.5959572,16.7303736,51.5089242,79.2114435,18.78156324,-36.31980762
3.71,371,0.271,-0.999,-0.131,30.4240698,15.183387000000002,49.90464179999999,79.59532535999998,18.32319684,-36.06197652
3.7199999999999998,372,0.268,-0.996,-0.126,29.9657034,13.8082878,48.414951,79.97347764,17.870560020000006,-35.83279331999999
3.73,373,0.277,-0.987,-0.118,29.9084076,11.3445684,47.1544434,80.34017076,17.429382359999998,-35.62652844
3.7399999999999998,374,0.289,-0.976,-0.112,30.7105488,8.9954406,46.065823200000004,80.70686388,16.9882047,-35.45464104
3.75,375,0.284,-0.971,-0.109,32.0283522,5.844171599999999,45.550161,81.07355700000002,16.55275662,-35.31713112
3.76,376,0.278,-0.967,-0.11,32.142943800000005,2.578311,45.206386200000004,81.42879096,16.117308540000003,-35.21399868
3.77,377,0.263,-0.965,-0.097,33.1742682,-1.2605076000000002,45.263682,81.77829534,15.676130880000002,-35.16243246
3.78,378,0.237,-0.966,-0.084,35.46610020000001,-5.6149884000000005,45.0917946,82.14498846000002,15.22922364,-35.1509733
3.79,379,0.208,-0.964,-0.07200000000000001,36.4401288,-7.2765666,43.9458786,82.51741116,14.7823164,-35.15670288
3.8,380,0.193,-0.978,-0.084,37.0703826,-6.4744254,41.825934,82.88983386,14.36978664,-35.16816204
3.81,381,0.183,-0.996,-0.07,36.6120162,-6.8182002000000015,39.591397799999996,83.26225656,13.97444562,-35.18535078
3.82,382,0.182,-1.007,-0.058,36.096354,-7.906820400000001,37.24227,83.62322009999998,13.60202292,-35.21972826
3.83,383,0.184,-1.01,-0.052000000000000005,37.5860448,-9.224623800000002,34.950438,83.9956428,13.25251854,-35.27129448
3.84,384,0.19,-1.006,-0.026,39.0184398,-10.599723,32.945085,84.38525424,12.920202899999998,-35.34004944
3.8499999999999996,385,0.182,-0.997,0.002,39.820581,-11.45916,31.2835068,84.77486567999998,12.605076,-35.42026356
3.86,386,0.173,-0.992,0.038,40.10706,-9.453807000000001,29.9084076,85.17020670000002,12.30713784,-35.48901852
3.8699999999999997,387,0.162,-0.991,0.056,38.7892566,-4.6409598,28.81978740000001,85.55981814,12.02065884,-35.50620726000001
3.88,388,0.14800000000000002,-1.002,0.042,36.1536498,-0.2291832000000001,27.788463,85.93224083999998,11.75136858,-35.48901852
3.8899999999999997,389,0.13,-1.016,0.004,32.7731976,0.572958,27.215505,86.27601564,11.46488958,-35.45464104
3.9,390,0.11,-1.036,-0.015,32.7159018,-1.3178034,27.2728008,86.61406086000002,11.2013289,-35.44891146
3.9099999999999997,391,0.112,-1.0590000000000002,-0.006999999999999999,32.372127,-1.145916,27.6165756,86.94064691999998,10.92630906,-35.44318188
3.92,392,0.136,-1.072,-0.021,29.335449600000004,0.7448454000000001,27.903054600000004,87.24431466,10.65128922,-35.42026356
3.9299999999999997,393,0.152,-1.065,-0.024,25.210152,0.572958,28.5906042,87.50787534,10.3705398,-35.39734524
3.94,394,0.142,-1.033,-0.002,23.3193906,-0.572958,28.762491600000004,87.75424728,10.07833122,-35.38588608
3.9499999999999997,395,0.112,-1.013,0.027000000000000003,23.835052800000003,-0.3437748,28.1322378,87.99488964000004,9.7975818,-35.3801565
3.96,396,0.077,-1.003,0.045,23.204799,2.1772404,26.9863218,88.23553199999998,9.53402112,-35.34577901999999
3.9699999999999998,397,0.054000000000000006,-1.001,0.045,21.9442914,6.016058999999999,25.6112226,88.47044478000002,9.2819196,-35.27702406
3.98,398,0.035,-1.004,0.05,21.4286292,8.9954406,24.5226024,88.70535756,9.04127724,-35.17962120000001
3.9899999999999998,399,0.029,-1.018,0.047,21.829699800000004,11.745639,23.6631654,88.9517295,8.77771656,-35.05357044
4.0,400,0.042,-1.041,0.045,20.912967,14.9542038,22.5172494,89.18664228,8.554262940000001,-34.89887178
4.01,401,0.079,-1.054,0.027000000000000003,17.9335854,16.2147114,21.6578124,89.39290716000002,8.3365389,-34.73271396
4.02,402,0.106,-1.052,0.028,15.756345000000001,11.917526400000002,22.459953600000002,89.57052414,8.11308528,-34.60666320000001
4.03,403,0.103,-1.045,0.06,15.870936600000002,7.2192707999999985,23.835052800000003,89.74241154,7.878172500000002,-34.53217866
4.04,404,0.105,-1.032,0.078,14.610429000000002,4.9847345999999995,24.4653066,89.91429894,7.62607098,-34.48061244
4.05,405,0.101,-1.02,0.08199999999999999,13.6936962,3.151269,24.2361234,90.05753844,7.385428619999999,-34.44623496
4.06,406,0.086,-1.013,0.075,13.0061466,1.8907613999999997,23.4339822,90.19504836000002,7.15051584,-34.429046220000004
4.07,407,0.064,-1.007,0.08199999999999999,12.5477802,1.4896908000000002,22.459953600000002,90.32109912,6.9327918,-34.41185748
4.08,408,0.035,-1.008,0.1,12.032117999999999,2.0053530000000004,21.027558600000006,90.44714988,6.72079734,-34.38893916
4.09,409,0.02,-1.017,0.112,11.0580894,4.1825934,19.0795014,90.59611896,6.497343719999999,-34.3488321
4.1,410,0.017,-1.031,0.104,10.026765,6.4744254,16.7876694,90.70498098,6.3254563200000025,-34.28580672
4.109999999999999,411,0.018000000000000002,-1.039,0.098,9.797581800000001,7.7349330000000025,15.527161800000002,90.813843,6.17075766,-34.2055926
4.12,412,0.026,-1.044,0.099,9.3392154,9.167328,14.667724800000002,90.91697544,6.02178858,-34.1196489
4.13,413,0.032,-1.041,0.096,9.0527364,9.969469199999999,14.0947668,91.0143783,5.87854908,-34.02224604
4.14,414,0.029,-1.038,0.102,9.0527364,10.3705398,13.750992000000002,91.14042906,5.70666168,-33.9191136
4.1499999999999995,415,0.028,-1.028,0.107,8.193299399999999,11.0007936,13.750992000000002,91.23210234,5.56915176,-33.81025158
4.16,416,0.033,-1.017,0.127,8.136003599999999,10.5424272,14.2093584,91.32377562,5.42018268,-33.70711914
4.17,417,0.035,-1.013,0.13,8.136003599999999,9.1100322,14.9542038,91.4154489,5.2712136,-33.62117544
4.18,418,0.034,-1.021,0.125,6.9327918,7.906820400000001,15.2979786,91.48993344,5.11078536,-33.5466909
4.1899999999999995,419,0.029,-1.034,0.117,5.958763200000001,7.448453999999999,14.7250206,91.5873363,4.93889796,-33.472206359999994
4.2,420,0.021,-1.054,0.099,4.7555514,7.5630456000000015,13.8082878,91.63890252,4.79565846,-33.39772182
4.21,421,0.011,-1.068,0.086,3.0366774,7.8495246,12.605076,91.67900958,4.669607699999999,-33.32323728
4.22,422,0.004,-1.0659999999999998,0.084,1.5469866,8.7089616,11.3445684,91.69619832,4.549286520000001,-33.24302315999999
4.2299999999999995,423,0.006999999999999999,-1.051,0.075,0.572958,9.0527364,10.5424272,91.71338706000002,4.4404245000000016,-33.15707946
4.24,424,0.01,-1.037,0.059,0.1718874,8.651665800000002,10.3705398,91.71911664,4.29145542,-33.07113576
4.25,425,0.013,-1.026,0.057,0.0,7.906820400000001,10.8289062,91.72484622,4.17686382,-32.996651220000004
4.26,426,0.02,-1.012,0.065,0.057295800000000015,7.0473834,11.229976800000001,91.7305758,4.06227222,-32.92789626
4.27,427,0.022,-0.999,0.081,0.0,6.6463128000000005,11.3445684,91.73630538,3.94768062,-32.86487088
4.28,428,0.025,-0.986,0.094,0.0,6.875496000000001,11.0580894,91.73630538,3.83308902,-32.8018455
4.29,429,0.029,-0.978,0.103,0.2291832000000001,7.448453999999999,10.4851314,91.78214202,3.70703826,-32.73309054
4.3,430,0.037000000000000005,-0.979,0.1,0.2291832000000001,8.136003599999999,9.740286,91.78787159999999,3.60390582,-32.65287642
4.31,431,0.039,-0.986,0.093,0.2291832000000001,7.0473834,9.1100322,91.79360118,3.50650296,-32.58412146
4.32,432,0.033,-1.004,0.081,-0.3437748,5.2139178,8.651665800000002,91.79360118,3.42055926,-32.53828482
4.33,433,0.036000000000000004,-1.017,0.07200000000000001,-1.6615782,5.1566220000000005,7.9641161999999985,91.77641244,3.33461556,-32.4867186
4.34,434,0.042,-1.026,0.058,-2.3491278,5.443101,7.0473834,91.7592237,3.25440144,-32.43515238
4.35,435,0.045,-1.029,0.05,-2.291832,5.0993262,6.4744254,91.73630538,3.18564648,-32.389315739999994
4.36,436,0.047,-1.028,0.046,-2.1199446,4.1252976000000015,6.4744254,91.71338706000002,3.1226211000000004,-32.34920868
4.37,437,0.051,-1.022,0.052000000000000005,-2.1199446,3.6669312000000014,6.703608600000001,91.69619832,3.04813656,-32.3148312
4.38,438,0.057,-1.015,0.07,-2.578311,3.9534102,6.703608600000001,91.67328,2.9793816000000004,-32.280453720000004
4.39,439,0.062,-1.012,0.071,-2.6929026,3.8961144,6.2452422,91.66182084,2.93354496,-32.24607624
4.3999999999999995,440,0.066,-1.014,0.068,-2.6929026,3.151269,5.7868758000000025,91.63890252,2.87624916,-32.217428340000005
4.41,441,0.069,-1.013,0.059,-3.2658606,1.6042823999999998,5.5576926,91.60452504,2.81895336,-32.2002396
4.42,442,0.063,-1.02,0.053,-3.3231564,-0.7448454000000001,5.3285094000000015,91.57014756,2.76738714,-32.211698760000004
4.43,443,0.056,-1.025,0.045,-4.1825934,-1.7188740000000002,4.6982556,91.52431092,2.7215505,-32.2288875
4.4399999999999995,444,0.051,-1.028,0.031,-5.1566220000000005,-2.3491278,3.5523396000000003,91.44982638,2.6929026,-32.2575354
4.45,445,0.047,-1.025,0.025,-5.443101,-2.86479,2.6929026,91.39253058,2.6699842800000004,-32.2861833
4.46,446,0.041,-1.018,0.021,-5.1566220000000005,-3.2085648,2.291832,91.34096436,2.64706596,-32.32056078
4.47,447,0.035,-1.008,0.026,-5.042030400000002,-3.6096354,2.291832,91.28366856,2.62414764,-32.35493826
4.4799999999999995,448,0.033,-0.995,0.036000000000000004,-4.8128472,-3.8961144,2.4637194,91.23783192,2.6012293200000003,-32.395045319999994
4.49,449,0.03,-0.985,0.048,-4.5263682,-4.7555514,2.7501984,91.19772486,2.56685184,-32.446611540000006
4.5,450,0.025,-0.981,0.046,-4.010706000000001,-5.958763200000001,3.0939732,91.1576178,2.53820394,-32.50390734
4.51,451,0.021,-0.985,0.047,-3.9534102,-6.016058999999999,3.2658606,91.11178116,2.50955604,-32.56693272
4.52,452,0.015,-0.992,0.042,-4.010706000000001,-6.589017,3.151269,91.0716741,2.48090814,-32.6299581
4.53,453,0.011,-1.003,0.029,-3.7815227999999994,-6.9327918,3.0939732,91.03156704,2.45226024,-32.70444264
4.54,454,0.006,-1.012,0.019,-4.010706000000001,-7.0473834,2.9793816000000004,90.96281208,2.39496444,-32.76746802
4.55,455,0.004,-1.013,0.016,-4.1252976000000015,-6.9327918,2.86479,90.92270502,2.36631654,-32.84195256
4.56,456,-0.002,-1.007,0.021,-3.6669312000000014,-6.990087599999999,2.7501984,90.88259796,2.34339822,-32.91070752
4.57,457,-0.006999999999999999,-0.996,0.024,-3.2085648,-6.417129599999999,2.3491278,90.84822048,2.3204799,-32.973732899999995
4.58,458,-0.006,-0.989,0.028,-2.1772404,-5.9014674000000005,2.0626488000000003,90.81957258,2.30329116,-33.03102869999999
4.59,459,-0.006999999999999999,-0.985,0.033,-1.3750992,-5.958763200000001,1.8907613999999997,90.80811342,2.22307704,-33.08832450000001
4.6,460,-0.006,-0.987,0.043,-0.7448454000000001,-5.958763200000001,1.7188740000000002,90.79665426,2.21161788,-33.15134988
4.61,461,0.0,-0.989,0.045,-0.4583664000000001,-5.5576926,1.5469866,90.79092468,2.19442914,-33.2029161
4.62,462,0.002,-0.997,0.045,-0.2291832000000001,-5.6722842,1.3750992,90.78519509999998,2.18296998,-33.260211899999995
4.63,463,0.005,-1.003,0.043,-0.2291832000000001,-5.958763200000001,1.0886202,90.78519509999998,2.1772404,-33.31750770000001
4.64,464,0.003,-1.007,0.04,-0.057295800000000015,-6.5317212,0.8594370000000001,90.78519509999998,2.11421502,-33.38053308
4.6499999999999995,465,0.001,-1.01,0.041,-0.11459160000000004,-6.703608600000001,0.4583664000000001,90.78519509999998,2.11421502,-33.44928804
4.66,466,0.001,-1.006,0.045,-0.1718874,-6.016058999999999,0.0,90.77946552,2.11421502,-33.506583840000005
4.67,467,0.004,-1.005,0.044,0.286479,-5.72958,-0.5156622000000001,90.78519509999998,2.12567418,-33.56387964
4.68,468,0.006,-1.007,0.043,0.7448454000000001,-5.3858052,-0.8594370000000001,90.79092468,2.13713334,-33.62117544
4.6899999999999995,469,0.008,-1.007,0.049,1.0886202,-5.2139178,-0.9740286,90.82530216,2.10848544,-33.66701208
4.7,470,0.008,-1.007,0.056,1.145916,-5.2712136,-0.9740286,90.83676132,2.1199446,-33.718578300000004
4.71,471,0.005,-1.006,0.065,1.3750992,-5.5003968,-0.9740286,90.84822048,2.13140376,-33.7758741
4.72,472,0.001,-1.005,0.068,1.3750992,-5.3285094000000015,-0.9740286,90.85967964,2.14286292,-33.82744032
4.7299999999999995,473,0.004,-1.009,0.064,1.3178034,-4.6409598,-1.145916,90.8711388,2.16005166,-33.87327696
4.74,474,0.009000000000000001,-1.014,0.057,1.0313244,-3.8961144,-1.3750992,90.92270502,2.13140376,-33.90765444
4.75,475,0.017,-1.018,0.056,0.6875496,-3.724227,-1.5469866,90.92843459999999,2.1485925000000003,-33.9477615
4.76,476,0.021,-1.021,0.056,0.3437748,-3.8388186,-1.7188740000000002,90.93416418,2.1657812400000003,-33.98213898
4.77,477,0.021,-1.023,0.052000000000000005,0.2291832000000001,-3.6669312000000014,-1.6615782,90.93416418,2.18869956,-34.02224604
4.78,478,0.022,-1.02,0.049,0.0,-3.4377480000000005,-1.5469866,90.93416418,2.2058883,-34.05662352
4.79,479,0.019,-1.016,0.049,0.0,-3.4950437999999995,-1.432395,90.9570825,2.1772404,-34.08527142
4.8,480,0.012,-1.014,0.052000000000000005,0.286479,-3.380452200000001,-1.2605076000000002,90.9570825,2.19442914,-34.1196489
4.81,481,0.011,-1.007,0.057,0.3437748,-2.9220857999999996,-1.145916,90.96281208,2.2058883,-34.1482968
4.82,482,0.013,-1.002,0.061,0.4010706,-2.4064236,-1.0313244,90.96281208,2.21734746,-34.17121512000001
4.83,483,0.016,-0.997,0.062,0.4010706,-2.578311,-0.9740286,90.96854166,2.22880662,-34.19986302
4.84,484,0.018000000000000002,-0.999,0.06,0.572958,-3.0939732,-0.7448454000000001,91.03156704,2.19442914,-34.228510920000005
4.85,485,0.016,-1.0,0.063,0.057295800000000015,-3.151269,-0.7448454000000001,91.03156704,2.2058883,-34.25715882
4.86,486,0.016,-1.003,0.052000000000000005,-0.3437748,-3.0366774,-0.8594370000000001,91.02583746,2.21734746,-34.291536300000004
4.87,487,0.015,-1.006,0.043,-0.4010706,-3.0366774,-0.9740286,91.02010788,2.22880662,-34.3201842
4.88,488,0.017,-1.007,0.04,-0.2291832000000001,-2.86479,-0.9740286,91.02010788,2.24026578,-34.3488321
4.89,489,0.018000000000000002,-1.006,0.039,-0.057295800000000015,-2.7501984,-0.9740286,91.02010788,2.20015872,-34.37175042
4.8999999999999995,490,0.016,-1.003,0.044,0.3437748,-2.6929026,-0.8594370000000001,91.02583746,2.21161788,-34.40039832
4.91,491,0.012,-1.002,0.046,0.5156622000000001,-2.0626488000000003,-0.7448454000000001,91.03156704,2.21734746,-34.41758706
4.92,492,0.012,-1.0,0.05,0.6875496,-1.3178034,-0.6875496,91.03729662,2.22880662,-34.4347758
4.93,493,0.014,-0.999,0.05,0.9167328,-1.0886202,-0.572958,91.0430262,2.2345362,-34.44623496
4.9399999999999995,494,0.015,-0.998,0.058,1.145916,-0.8594370000000001,-0.3437748,91.14042906,2.15432208,-34.45196454
4.95,495,0.016,-1.0,0.055,1.2032118,-0.8594370000000001,-0.4010706,91.15188822,2.16005166,-34.45769412
4.96,496,0.02,-1.005,0.05,1.0886202,-1.0313244,-0.6302538000000001,91.16334738,2.1657812400000003,-34.46915328
4.97,497,0.021,-1.011,0.046,0.8594370000000001,-1.6042823999999998,-0.7448454000000001,91.17480654,2.1772404,-34.48634202
4.9799999999999995,498,0.025,-1.017,0.043,0.8594370000000001,-2.1199446,-0.8594370000000001,91.18053612,2.18869956,-34.503530760000004
4.99,499,0.025,-1.017,0.051,0.6875496,-2.5210152000000003,-1.0313244,91.20918402,2.17151082,-34.52644908
5.0,500,0.022,-1.014,0.054000000000000006,0.4583664000000001,-2.578311,-1.2605076000000002,91.2149136,2.18296998,-34.555096979999995
5.01,501,0.018000000000000002,-1.011,0.054000000000000006,0.3437748,-2.1199446,-1.432395,91.22064318,2.20015872,-34.5780153
5.02,502,0.015,-1.01,0.052000000000000005,0.11459160000000004,-1.6042823999999998,-1.5469866,91.22064318,2.21734746,-34.58947446
5.03,503,0.013,-1.013,0.052000000000000005,0.11459160000000004,-1.3750992,-1.5469866,91.22064318,2.2345362,-34.60666320000001
5.04,504,0.013,-1.015,0.053,0.0,-1.5469866,-1.4896908000000002,91.24929108,2.18296998,-34.61812236
5.05,505,0.012,-1.016,0.055,-0.11459160000000004,-1.7188740000000002,-1.4896908000000002,91.24929108,2.20015872,-34.6353111
5.06,506,0.015,-1.016,0.057,-0.5156622000000001,-1.8334656000000005,-1.7188740000000002,91.2435615,2.21734746,-34.652499840000004
5.07,507,0.018000000000000002,-1.016,0.056,-0.9167328,-1.7188740000000002,-1.9480572,91.23210234,2.2345362,-34.66968858
5.08,508,0.018000000000000002,-1.014,0.055,-1.145916,-1.2032118,-2.1772404,91.22064318,2.25745452,-34.68114774
5.09,509,0.021,-1.012,0.051,-1.2605076000000002,-0.8594370000000001,-2.4637194,91.22637276,2.24599536,-34.68687732
5.1,510,0.018000000000000002,-1.011,0.051,-1.3178034,-0.5156622000000001,-2.7501984,91.20918402,2.2746432600000004,-34.692606899999994
5.11,511,0.018000000000000002,-1.009,0.049,-1.3750992,-0.2291832000000001,-2.8074942000000003,91.19772486,2.30329116,-34.692606899999994
5.12,512,0.02,-1.007,0.051,-1.145916,-0.286479,-2.6356068,91.1862657,2.33193906,-34.692606899999994
5.13,513,0.02,-1.003,0.055,-1.145916,-0.6875496,-2.3491278,91.17480654,2.35485738,-34.70406606
5.14,514,0.019,-0.999,0.059,-1.2605076000000002,-0.9740286,-2.2345362,91.19772486,2.3376686399999995,-34.70979564
5.1499999999999995,515,0.017,-0.998,0.057,-1.2032118,-0.9740286,-2.1772404,91.1862657,2.36058696,-34.7212548
5.16,516,0.017,-1.0,0.052000000000000005,-1.2032118,-0.8594370000000001,-2.1772404,91.17480654,2.38350528,-34.72698438
5.17,517,0.02,-1.005,0.045,-1.0886202,-0.6875496,-2.3491278,91.16334738,2.4064236,-34.73271396
5.18,518,0.023,-1.008,0.044,-1.0886202,-0.6302538000000001,-2.4637194,91.15188822,2.42934192,-34.73844354
5.1899999999999995,519,0.026,-1.01,0.044,-0.9167328,-0.5156622000000001,-2.4637194,91.14615864,2.42361234,-34.74417312
5.2,520,0.027000000000000003,-1.007,0.047,-1.0313244,-0.4583664000000001,-2.5210152000000003,91.13469948,2.45226024,-34.74417312
5.21,521,0.027000000000000003,-1.003,0.051,-1.0886202,-0.5156622000000001,-2.3491278,91.12324032,2.47517856,-34.7499027
5.22,522,0.024,-0.999,0.055,-0.9740286,-0.8021411999999999,-2.0626488000000003,91.11178116,2.49809688,-34.76136186
5.2299999999999995,523,0.023,-0.995,0.053,-0.7448454000000001,-1.145916,-1.7188740000000002,91.10605158,2.51528562,-34.772821019999995
5.24,524,0.024,-0.999,0.049,-0.4583664000000001,-1.0313244,-1.3750992,91.11178116,2.47517856,-34.7785506
5.25,525,0.027000000000000003,-1.006,0.043,-0.572958,-0.7448454000000001,-1.145916,91.10605158,2.48663772,-34.78428018
5.26,526,0.028,-1.012,0.042,-0.6302538000000001,-0.8594370000000001,-1.3178034,91.100322,2.50382646,-34.79573934
5.27,527,0.027000000000000003,-1.015,0.042,-0.572958,-1.3750992,-1.3750992,91.09459242,2.51528562,-34.8071985
5.28,528,0.027000000000000003,-1.016,0.043,-0.7448454000000001,-1.8334656000000005,-1.6042823999999998,91.08313326,2.53247436,-34.82438724000001
5.29,529,0.028,-1.012,0.047,-0.7448454000000001,-1.9480572,-1.7761698,91.09459242,2.53247436,-34.84157598
5.3,530,0.03,-1.005,0.049,-0.7448454000000001,-2.4064236,-2.0053530000000004,91.08313326,2.55539268,-34.864494300000004
5.31,531,0.026,-1.002,0.052000000000000005,-0.7448454000000001,-2.3491278,-2.1199446,91.07740368,2.5783110000000002,-34.887412620000006
5.32,532,0.027000000000000003,-1.001,0.05,-0.8021411999999999,-1.7188740000000002,-2.4064236,91.06594452,2.6012293200000003,-34.90460136
5.33,533,0.029,-1.003,0.048,-0.6875496,-1.2605076000000002,-2.5210152000000003,91.06021494,2.62414764,-34.9217901
5.34,534,0.029,-1.004,0.047,-0.572958,-1.6615782,-2.5210152000000003,91.0716741,2.62414764,-34.933249260000004
5.35,535,0.025,-1.006,0.048,-0.4010706,-1.8907613999999997,-2.3491278,91.06594452,2.64706596,-34.950438
5.36,536,0.024,-1.007,0.047,-0.4010706,-1.8907613999999997,-2.2345362,91.06021494,2.6699842800000004,-34.97335632
5.37,537,0.026,-1.008,0.051,-0.5156622000000001,-1.5469866,-2.0626488000000003,91.05448536,2.6929026,-34.984815479999995
5.38,538,0.028,-1.005,0.048,-0.4583664000000001,-1.145916,-1.9480572,91.04875578,2.71009134,-34.99627464
5.39,539,0.028,-1.0,0.048,-0.4010706,-1.3178034,-1.7761698,91.06594452,2.6929026,-35.0077338
5.3999999999999995,540,0.027000000000000003,-1.001,0.05,-0.3437748,-1.2032118,-1.7761698,91.06021494,2.71009134,-35.01919296
5.41,541,0.028,-1.001,0.048,-0.4583664000000001,-0.9167328,-1.8907613999999997,91.05448536,2.73300966,-35.03065212
5.42,542,0.029,-1.002,0.046,-0.286479,-0.8594370000000001,-1.9480572,91.04875578,2.7501984,-35.03638170000001
5.43,543,0.03,-1.004,0.05,0.0,-0.572958,-1.9480572,91.04875578,2.77311672,-35.04211128
5.4399999999999995,544,0.031,-1.005,0.054000000000000006,0.2291832000000001,-0.4583664000000001,-1.7761698,91.100322,2.7501984,-35.04784086
5.45,545,0.034,-1.008,0.051,0.286479,-0.2291832000000001,-1.6042823999999998,91.10605158,2.76738714,-35.04784086
5.46,546,0.037000000000000005,-1.013,0.045,0.3437748,-0.3437748,-1.3178034,91.11178116,2.78457588,-35.05357044
5.47,547,0.038,-1.017,0.041,0.1718874,-0.4583664000000001,-1.0313244,91.11178116,2.79603504,-35.05930002
5.4799999999999995,548,0.038,-1.016,0.04,0.057295800000000015,-0.4583664000000001,-0.9740286,91.11178116,2.80176462,-35.05930002
5.49,549,0.039,-1.013,0.042,0.0,-0.6302538000000001,-1.145916,91.11751074,2.79030546,-35.0650296
5.5,550,0.038,-1.007,0.045,-0.057295800000000015,-0.4010706,-1.3750992,91.11751074,2.80176462,-35.07075918
5.51,551,0.038,-1.003,0.046,-0.057295800000000015,-0.4583664000000001,-1.6042823999999998,91.11178116,2.81895336,-35.07075918
5.52,552,0.035,-1.001,0.046,-0.057295800000000015,-0.7448454000000001,-1.7761698,91.11178116,2.8361421,-35.082218340000004
5.53,553,0.031,-1.005,0.047,0.0,-0.7448454000000001,-1.7188740000000002,91.11178116,2.85906042,-35.08794792
5.54,554,0.032,-1.007,0.043,-0.2291832000000001,-0.2291832000000001,-1.8907613999999997,91.11178116,2.8361421,-35.08794792
5.55,555,0.034,-1.008,0.044,-0.4010706,-0.2291832000000001,-2.0626488000000003,91.11178116,2.85906042,-35.08794792
5.56,556,0.033,-1.009,0.045,-0.4583664000000001,-0.4010706,-2.1199446,91.10605158,2.87624916,-35.093677500000005
5.57,557,0.033,-1.009,0.042,-0.4583664000000001,-0.3437748,-2.0626488000000003,91.100322,2.89916748,-35.093677500000005
5.58,558,0.034,-1.006,0.042,-0.4010706,-0.286479,-2.1199446,91.09459242,2.9220858,-35.09940708000001
5.59,559,0.034,-1.006,0.041,-0.4010706,-0.1718874,-2.1772404,91.08886284,2.91062664,-35.09940708000001
5.6,560,0.036000000000000004,-1.006,0.039,-0.5156622000000001,0.0,-2.2345362,91.08313326,2.93354496,-35.09940708000001
5.61,561,0.035,-1.004,0.04,-0.1718874,-0.3437748,-2.1199446,91.08313326,2.9507337,-35.09940708000001
5.62,562,0.034,-1.006,0.04,0.11459160000000004,-0.6302538000000001,-1.9480572,91.08313326,2.9736520200000003,-35.10513666
