TimeStamp(s),FrameCounter,AccX,AccY,AccZ,GyrX,GyrY,GyrZ,EulerX,EulerY,EulerZ
0.01,1,0.021,-1.004,-0.017,-2.0626488000000003,0.1718874,-5.0993262,90.22369626,0.7792228800000001,-22.30525494
0.02,2,0.039,-1.008,-0.015,-3.2085647999999996,0.057295800000000015,-5.9014674000000005,90.19504836000002,0.8422482600000001,-22.30525494
0.03,3,0.036000000000000004,-1.015,-0.016,-3.4950437999999995,0.40107059999999994,-6.1879464,90.16067088,0.89954406,-22.30525494
0.04,4,0.034,-1.0170000000000001,-0.025,-3.9534102,0.9740286,-6.4744254,90.11483424,0.96256944,-22.29379578
0.05,5,0.037000000000000005,-1.013,-0.034,-4.3544808,1.7761698000000001,-6.589017,90.04607927999999,1.04278356,-22.27660704
0.060000000000000005,6,0.045,-1.0070000000000001,-0.043,-5.042030400000002,2.86479,-6.417129599999999,89.99451306,1.10580894,-22.25368872
0.06999999999999999,7,0.055999999999999994,-0.996,-0.047,-5.5576926,3.4950437999999995,-5.958763200000001,89.93721726,1.16310474,-22.219311240000003
0.08,8,0.065,-0.987,-0.05,-5.958763200000001,4.1252976000000015,-5.5576926,89.87419188,1.22040054,-22.17920418
0.09,9,0.071,-0.983,-0.051,-6.417129599999999,4.3544808,-5.2712136,89.8111665,1.27196676,-22.13336754
0.09999999999999999,10,0.07400000000000001,-0.98,-0.051,-6.703608600000001,4.1252976000000015,-4.9847346,89.71949322,1.3464512999999998,-22.10471964000001
0.11,11,0.07400000000000001,-0.9790000000000001,-0.051,-6.703608600000001,3.7242269999999995,-4.4117766,89.65073826,1.38655836,-22.06461258
0.12,12,0.07,-0.983,-0.044000000000000004,-6.417129599999999,3.4950437999999995,-3.7815228,89.5819833,1.4209358399999998,-22.0302351
0.13,13,0.063,-0.992,-0.038,-6.589017,3.6669312000000014,-3.2085647999999996,89.51895792,1.45531332,-21.99585762
0.14,14,0.052000000000000005,-1.001,-0.034,-6.703608600000001,4.1252976000000015,-2.9220858,89.45020296,1.48396122,-21.95575056
0.15000000000000002,15,0.044000000000000004,-1.012,-0.037000000000000005,-6.8182002000000015,4.7555514,-2.9220858,89.35852968,1.5183387000000002,-21.915643499999998
0.16,16,0.040999999999999995,-1.016,-0.038,-6.875496000000001,5.958763200000001,-2.9793816000000004,89.28977472,1.5469866,-21.8583477
0.17,17,0.044000000000000004,-1.0190000000000001,-0.038,-6.703608600000001,6.3598338,-2.9220858,89.22674934,1.5756344999999998,-21.79532232
0.18000000000000002,18,0.048,-1.02,-0.036000000000000004,-6.4744254,6.589017,-2.5210152000000003,89.15799438,1.59855282,-21.73229694
0.19,19,0.054000000000000006,-1.02,-0.034,-6.0160589999999985,6.8182002000000015,-1.9480572,89.10069858,1.62147114,-21.66354198
0.2,20,0.064,-1.016,-0.026000000000000002,-5.5576926,6.7609043999999985,-1.2605076000000002,89.03194361999998,1.6558486199999998,-21.60624618
0.21000000000000002,21,0.075,-1.014,-0.02,-5.2139178,6.589017,-0.8594370000000001,88.98037740000002,1.6615782,-21.53749122
0.22,22,0.084,-1.014,-0.017,-5.1566220000000005,6.589017,-0.6302538000000001,88.9230816,1.6673077799999998,-21.47446584
0.23,23,0.091,-1.0170000000000001,-0.012,-5.2139178,6.6463128000000005,-0.8021411999999999,88.87151537999998,1.67303736,-21.41144046
0.24000000000000002,24,0.098,-1.023,-0.01,-5.3858052,6.3598338,-1.2605076000000002,88.81994916,1.6844965200000002,-21.34841508
0.25,25,0.107,-1.024,-0.013999999999999999,-5.72958,5.958763200000001,-1.8907614,88.75692378,1.7475218999999995,-21.30257844
0.26,26,0.11699999999999999,-1.02,-0.013999999999999999,-5.7868758000000025,4.8128472,-2.3491277999999998,88.69962798,1.77044022,-21.2567418
0.27,27,0.128,-1.012,-0.012,-5.7868758000000025,3.2085647999999996,-2.6356068,88.63660259999996,1.7933585399999998,-21.2280939
0.28,28,0.138,-1.006,-0.013000000000000001,-5.72958,1.6042823999999998,-2.9793816000000004,88.57930680000004,1.82773602,-21.21090516
0.29000000000000004,29,0.14300000000000002,-0.9940000000000001,-0.009000000000000001,-5.3858052,0.11459160000000004,-3.3231564,88.52774058,1.85638392,-21.21090516
0.3,30,0.14300000000000002,-0.993,0.001,-4.7555514,-1.2032118,-3.9534102,88.48190394,1.9767051,-21.25101222
0.31,31,0.13699999999999998,-1.001,0.008,-4.1825934,-2.5783110000000002,-4.583664,88.44179688,2.02254174,-21.27393054
0.32,32,0.13,-1.006,0.009000000000000001,-3.5523396000000003,-4.1252976000000015,-5.443101,88.40168982,2.07410796,-21.31976718
0.33,33,0.122,-1.012,0.005,-2.86479,-4.9274388,-6.3598338,88.37304191999998,2.13713334,-21.371333399999997
0.34,34,0.114,-1.02,0.005,-2.1772404,-5.7868758000000025,-7.333862400000001,88.35012359999996,2.21161788,-21.4286292
0.35000000000000003,35,0.10800000000000001,-1.026,0.006999999999999999,-1.6042823999999998,-6.1879464,-8.4224826,88.33293486,2.32620948,-21.50311374
0.36000000000000004,36,0.10400000000000001,-1.026,0.009000000000000001,-1.145916,-6.0733548,-9.682990199999999,88.3214757,2.41788276,-21.56613912
0.37,37,0.105,-1.021,0.009000000000000001,-1.0886202,-5.5576926,-10.7143146,88.31001654,2.52674478,-21.62343492
0.38,38,0.11199999999999999,-1.012,0.006,-1.3750992,-4.9274388,-11.0580894,88.2928278,2.6356068,-21.67500114
0.39,39,0.11800000000000001,-1.005,0.0,-1.5469866,-4.297185,-10.599723,88.27563906,2.73873924,-21.72083778
0.4,40,0.11800000000000001,-0.9990000000000001,-0.001,-2.0053530000000004,-3.380452200000001,-9.453807,88.25272074,2.87051958,-21.772404
0.41000000000000003,41,0.115,-0.996,-0.001,-2.291832,-2.9793816000000004,-8.3651868,88.22980242,2.9564632800000004,-21.801051899999997
0.42000000000000004,42,0.11900000000000001,-0.998,0.002,-2.8074942000000003,-3.1512689999999997,-7.2765666,88.20115452,3.03094782,-21.83542938
0.43,43,0.124,-0.998,0.0,-3.1512689999999997,-3.4377480000000005,-6.3025379999999975,88.16677704,3.08824362,-21.87553644
0.44,44,0.125,-0.995,-0.009000000000000001,-3.4950437999999995,-3.8961144,-5.443101,88.12666998,3.14553942,-21.915643499999998
0.45,45,0.129,-0.99,-0.015,-4.1252976000000015,-4.5263682,-4.6982555999999995,88.08083334,3.2314831199999987,-21.9729393
0.46,46,0.127,-0.987,-0.015,-4.4117766,-5.3858052,-4.1825934,88.03499670000002,3.27159018,-22.0302351
0.47000000000000003,47,0.12300000000000001,-0.99,-0.01,-4.6409598,-6.2452422,-3.8388186,87.98343048000002,3.3116972399999995,-22.09326048
0.48000000000000004,48,0.121,-0.993,-0.01,-4.9274388,-6.990087599999999,-3.6669312000000014,87.93186426,3.34607472,-22.16201544
0.49,49,0.122,-0.995,-0.013999999999999999,-5.5003968,-7.734933000000002,-3.7242269999999995,87.86883888,3.380452200000001,-22.24222956
0.5,50,0.127,-0.998,-0.013000000000000001,-6.130650599999999,-8.7089616,-3.6669312000000014,87.8058135,3.4492071599999994,-22.33963242
0.51,51,0.132,-1.004,-0.015,-6.589017,-10.1413566,-3.8388186,87.73132896,3.48358464,-22.44276486
0.52,52,0.135,-1.0070000000000001,-0.02,-6.9327918,-11.2872726,-3.7815228,87.65684442,3.51796212,-22.55735646
0.53,53,0.133,-1.004,-0.021,-6.8182002000000015,-12.318597,-3.6096353999999997,87.58235988,3.5523396000000003,-22.68340722
0.54,54,0.134,-1.004,-0.022000000000000002,-6.7609043999999985,-13.2353298,-3.5523396000000003,87.50214575999998,3.58671708,-22.81518756
0.55,55,0.133,-1.005,-0.022000000000000002,-6.875496000000001,-13.980175199999998,-3.6096353999999997,87.42766122,3.644012880000001,-22.96415664
0.56,56,0.136,-1.006,-0.021,-7.1046792000000005,-15.2406828,-3.6669312000000014,87.3474471,3.67266078,-23.11312572
0.5700000000000001,57,0.14300000000000002,-1.006,-0.019,-7.6203414,-16.386598799999998,-3.7242269999999995,87.26150340000002,3.70703826,-23.27928354
0.5800000000000001,58,0.14800000000000002,-1.006,-0.02,-7.9641161999999985,-17.131444199999994,-3.8961144,87.16983012,3.74141574,-23.45117094
0.59,59,0.152,-1.003,-0.025,-8.078707799999998,-17.6471064,-4.0680017999999984,87.07815683999998,3.7815228,-23.62878792
0.6,60,0.149,-0.998,-0.026000000000000002,-8.021412000000002,-18.1054728,-4.010706000000001,86.98648356,3.83308902,-23.81786406
0.61,61,0.145,-0.997,-0.023,-7.8495246,-18.449247600000003,-3.4377480000000005,86.90053986000002,3.8674665,-24.00694020000001
0.62,62,0.14300000000000002,-0.9940000000000001,-0.015,-7.5630456000000015,-19.079501399999998,-2.7501984,86.80886658,3.88465524,-24.19601634
0.63,63,0.14,-0.9890000000000001,-0.004,-7.0473834,-20.168121600000006,-2.0626488000000003,86.72865246,3.90184398,-24.40228122000001
0.64,64,0.14,-0.982,0.001,-6.417129599999999,-21.485925,-1.6615782,86.64843834,3.90757356,-24.61427568
0.65,65,0.14400000000000002,-0.982,0.003,-5.9014674000000005,-22.5745452,-1.6042823999999998,86.58541296,3.94195104,-24.843458880000004
0.66,66,0.145,-0.985,0.005,-5.443101,-23.0902074,-1.9480572,86.51665799999998,3.9534102,-25.07837166
0.67,67,0.14800000000000002,-0.9940000000000001,0.008,-4.8701430000000006,-22.7464326,-2.5210152000000003,86.45363262000002,3.97059894,-25.30182528000001
0.68,68,0.15,-0.995,0.005,-4.6409598,-22.2307704,-2.6929026,86.39633682,3.98778768,-25.5252789
0.6900000000000001,69,0.154,-0.998,0.004,-4.1825934,-22.058882999999998,-2.1199446,86.33904102,3.99924684,-25.74873252
0.7000000000000001,70,0.155,-1.002,0.006,-3.9534102,-22.1161788,-1.2032118,86.29893396,4.02789474,-25.97218614
0.7100000000000001,71,0.152,-0.996,0.013000000000000001,-3.6669312000000014,-22.6891368,0.11459160000000004,86.24736774,4.01643558,-26.20136934000001
0.72,72,0.149,-0.996,0.021,-3.0939732,-24.1215318,1.432395,86.20726068,3.99351726,-26.43628212
0.73,73,0.146,-0.997,0.032,-2.7501984,-25.152856200000002,2.0053530000000004,86.16142404,3.9648693599999993,-26.68838364
0.74,74,0.146,-0.997,0.039,-2.5783110000000002,-25.9549974,2.4637194,86.12131698,3.93049188,-26.94048516
0.75,75,0.151,-0.998,0.037000000000000005,-2.5210152000000003,-26.41336380000001,3.0939732,86.09839866,3.91330314,-27.20404584000001
0.76,76,0.162,-0.992,0.034,-2.4064236,-26.8717302,4.297185,86.05829159999998,3.85600734,-27.46760652
0.77,77,0.17600000000000002,-0.988,0.028999999999999998,-2.5210152000000003,-27.960350399999996,5.9014674000000005,86.01818454000002,3.78725238,-27.74262636
0.78,78,0.182,-0.977,0.021,-2.0053530000000004,-29.507337,7.9641161999999985,85.98380705999998,3.6955791,-28.02910536
0.79,79,0.18,-0.966,0.005,-1.3178034,-32.142943800000005,9.740286,85.95515916000002,3.58671708,-28.34423226
0.8,80,0.162,-0.9990000000000001,-0.040999999999999995,-2.4637194,-37.4714532,10.084060800000001,85.90932252,3.48358464,-28.71092538000001
0.81,81,0.111,-1.135,-0.11900000000000001,-9.9694692,-42.5707794,5.2139178,85.78900134,3.4091001000000003,-29.129184719999994
0.8200000000000001,82,0.03,-1.198,-0.111,-9.9121734,-34.66395900000001,-5.042030400000002,85.66868016,3.44347758,-29.4786891
0.8300000000000001,83,-0.054000000000000006,-1.139,-0.07400000000000001,3.380452200000001,-25.152856200000002,-12.5477802,85.69159848,3.5580691799999995,-29.736520199999998
0.8400000000000001,84,-0.037000000000000005,-1.1520000000000001,-0.068,8.4224826,-22.91832,-17.0741484,85.76608302,3.71276784,-29.97143298
0.85,85,0.019,-1.1540000000000001,-0.065,7.6203414,-16.8449652,-19.480572,85.83483798,3.896114400000001,-30.15477954
0.86,86,0.06,-1.0959999999999999,-0.061,8.479778399999999,-9.9121734,-16.959556799999998,85.9150521,4.06227222,-30.263641560000003
0.87,87,0.105,-1.077,-0.07,8.250595200000001,-6.3025379999999975,-13.120738199999998,85.98953664,4.1883229800000015,-30.33239652
0.88,88,0.146,-1.065,-0.08800000000000001,8.7089616,-1.7761698000000001,-9.8548776,86.08120991999998,4.28572584,-30.35531484
0.89,89,0.16699999999999998,-1.0490000000000002,-0.084,10.7716104,-1.145916,-6.417129599999999,86.19007194,4.3544808,-30.37250358
0.9,90,0.179,-1.046,-0.07,11.1153852,-4.0680017999999984,-2.4637194,86.28747480000001,4.41750618,-30.424069799999995
0.91,91,0.193,-1.023,-0.071,10.7716104,-7.5630456000000015,1.3750992,86.39633682,4.40031744,-30.498554340000005
0.92,92,0.20800000000000002,-0.9890000000000001,-0.085,11.802934800000001,-11.802934800000001,4.7555514,86.50519884,4.3544808,-30.61314594
0.93,93,0.214,-0.9590000000000001,-0.109,13.636400400000001,-16.959556799999998,7.2765666,86.63697918,4.27426668,-30.773574180000004
0.9400000000000001,94,0.213,-0.946,-0.14,15.2406828,-22.631841,8.479778399999999,86.78021868,4.1883229800000015,-30.99129822
0.9500000000000001,95,0.191,-0.93,-0.171,15.928232399999999,-28.7051958,8.651665800000002,86.90626943999996,4.10810886,-31.27777722
0.9600000000000001,96,0.147,-0.9079999999999999,-0.179,17.7044022,-36.898495200000006,7.7922288,87.06669767999998,4.02789474,-31.63874076
0.97,97,0.094,-0.89,-0.187,18.7357266,-42.97185,5.5003968,87.2328555,3.9648693599999993,-32.0570001
0.98,98,0.036000000000000004,-0.872,-0.193,18.449247600000003,-47.498218200000004,1.8334656000000005,87.39328374,3.93622146,-32.52682566
0.99,99,-0.015,-0.861,-0.204,15.5844576,-49.7327544,-2.291832,87.52506408,3.9534102,-33.01956954
1.0,100,-0.055999999999999994,-0.853,-0.20199999999999999,11.802934800000001,-49.7327544,-6.0733548,87.59954862,3.99351726,-33.512313420000005
1.01,101,-0.08199999999999999,-0.868,-0.185,7.6776372,-46.5814854,-9.2819196,87.65111484,4.0794609600000005,-33.9764094
1.02,102,-0.098,-0.9,-0.16899999999999998,2.6929026,-41.9405256,-11.745639,87.65684442,4.19405256,-34.39466874
1.03,103,-0.086,-0.937,-0.161,-1.8907614,-36.32553720000001,-13.3499214,87.61100778,4.3201033199999985,-34.76136186
1.04,104,-0.051,-0.973,-0.159,-4.7555514,-28.762491600000004,-13.750992000000002,87.54798240000002,4.45188366,-35.05357044
1.05,105,-0.012,-1.005,-0.146,-4.4690724,-23.9496444,-12.891555,87.46203870000002,4.56074568,-35.29421280000001
1.06,106,0.019,-1.0290000000000001,-0.138,-3.2658606,-20.168121600000006,-11.0580894,87.41620206,4.6696076999999985,-35.50047768
1.07,107,0.05,-1.046,-0.13699999999999998,-1.3750992,-17.0168526,-7.906820400000001,87.38755416000002,4.74409224,-35.67236508
1.08,108,0.08199999999999999,-1.06,-0.126,1.4896908000000002,-13.980175199999998,-3.7242269999999995,87.39328374,4.77846972,-35.809875
1.09,109,0.10800000000000001,-1.07,-0.106,4.6982555999999995,-11.172680999999999,0.9167328000000001,87.4333908,4.76701056,-35.9244666
1.1,110,0.115,-1.071,-0.079,7.734933000000002,-9.740286,5.5576926,87.49641618000004,4.72117392,-36.02186946
1.11,111,0.099,-1.0659999999999998,-0.055,9.9694692,-9.9121734,10.599723,87.59381904,4.612311900000001,-36.11354274
1.12,112,0.07200000000000001,-1.047,-0.040999999999999995,10.4851314,-11.401864199999999,14.4958374,87.69122189999999,4.4690724,-36.21667518
1.1300000000000001,113,0.051,-1.024,-0.039,9.8548776,-13.120738199999998,16.1001198,87.78862475999998,4.30864416,-36.34272594
1.1400000000000001,114,0.037000000000000005,-1.0070000000000001,-0.043,8.8235532,-14.667724800000002,15.870936600000002,87.86883888,4.14821592,-36.48023586
1.1500000000000001,115,0.035,-0.988,-0.046,7.3911582,-15.469866,14.32395,87.93186426,4.00497642,-36.62920494
1.1600000000000001,116,0.044000000000000004,-0.97,-0.048,6.2452422,-15.870936600000002,12.3758928,87.98343048000002,3.87892566,-36.7839036
1.17,117,0.049,-0.958,-0.042,5.1566220000000005,-15.870936600000002,10.7716104,88.02926712000001,3.77006364,-36.93287268
1.18,118,0.044000000000000004,-0.943,-0.026000000000000002,4.1825934,-14.8396122,10.084060800000001,88.0636446,3.67266078,-37.08184176
1.19,119,0.032,-0.9329999999999999,-0.012,3.4377480000000005,-12.776963400000001,10.026765,88.0922925,3.56952834,-37.20216294
1.2,120,0.009000000000000001,-0.934,-0.006,1.7761698000000001,-10.313244000000001,10.313244000000001,88.10948124000002,3.4492071599999994,-37.2995658
1.21,121,-0.017,-0.943,-0.001,0.11459160000000004,-8.5370742,10.657018800000001,88.10948124000002,3.34034514,-37.37977992
1.22,122,-0.038,-0.955,0.0,-0.6875496,-6.5317212,11.0580894,88.09802207999998,3.2314831199999987,-37.442805299999996
1.23,123,-0.057999999999999996,-0.9640000000000001,0.006,-0.7448454000000001,-4.1825934,11.0580894,88.0922925,3.1226211000000004,-37.47718278000001
1.24,124,-0.071,-0.972,0.017,-0.3437748,-1.4896908000000002,10.943497800000001,88.08656292,3.0137590800000003,-37.48864194
1.25,125,-0.078,-0.9740000000000001,0.027000000000000003,0.3437748,1.7761698000000001,10.3705398,88.11521081999999,2.8361421,-37.44853488
1.26,126,-0.078,-0.97,0.039,1.2032118,5.2712136,9.3392154,88.12666998,2.74446882,-37.39123908
1.27,127,-0.067,-0.963,0.051,1.7188740000000002,8.4224826,8.250595200000001,88.14958829999998,2.6642547000000003,-37.30529538
1.28,128,-0.055999999999999994,-0.958,0.051,1.2605076000000002,12.0894138,7.1046792000000005,88.16677704,2.58977016,-37.1849742
1.29,129,-0.049,-0.9490000000000001,0.04,0.3437748,15.4125702,6.130650599999999,88.17250662000002,2.53247436,-37.03027554000001
1.3,130,-0.054000000000000006,-0.94,0.022000000000000002,-0.5156622000000001,18.793022399999998,5.1566220000000005,88.18396578000002,2.45226024,-36.83546982
1.31,131,-0.061,-0.929,0.0,-1.8907614,21.7151082,4.297185,88.16677704,2.41215318,-36.61774578
1.32,132,-0.067,-0.912,-0.024,-2.291832,24.637194,3.5523396000000003,88.14958829999998,2.3777757,-36.37137384
1.33,133,-0.069,-0.89,-0.051,-1.6042823999999998,27.501984000000004,2.6929026,88.14385872,2.3491278,-36.096354
1.34,134,-0.064,-0.865,-0.069,0.572958,29.8511118,2.0053530000000004,88.15531788,2.33193906,-35.80414542
1.35,135,-0.063,-0.857,-0.062,3.3231564,31.627281600000003,1.145916,88.18969536,2.30902074,-35.48328894
1.36,136,-0.044000000000000004,-0.873,-0.027999999999999997,5.3858052,33.518043,0.8594370000000001,88.25845032,2.29756158,-35.1509733
1.37,137,-0.033,-0.903,0.001,7.0473834,35.3515086,1.6042823999999998,88.33866443999996,2.28610242,-34.80146892
1.3800000000000001,138,-0.03,-0.946,0.03,9.224623800000002,36.8411994,3.7242269999999995,88.44179688,2.24599536,-34.4347758
1.3900000000000001,139,-0.039,-1.003,0.040999999999999995,9.9121734,36.554720399999994,6.6463128000000005,88.5506589,2.18296998,-34.06808268
1.4000000000000001,140,-0.033,-1.048,0.051,10.084060800000001,35.46610020000001,9.167328,88.67098008,2.07983754,-33.71284872
1.4100000000000001,141,-0.024,-1.069,0.065,11.1153852,34.262888399999994,10.886202,88.79130126,1.97097552,-33.36907392
1.42,142,-0.024,-1.071,0.086,12.4904844,32.31483119999999,11.401864199999999,88.9230816,1.85638392,-33.048217439999995
1.43,143,-0.038,-1.047,0.122,13.6936962,29.8511118,11.0580894,89.07205067999998,1.7475218999999995,-32.75027928
1.44,144,-0.052000000000000005,-1.032,0.17600000000000002,16.329303,29.4500412,10.5424272,89.2382085,1.6386598799999998,-32.45234112
1.45,145,-0.053,-1.084,0.16899999999999998,15.6417534,32.0283522,10.2559482,89.41582548,1.52406828,-32.13148464
1.46,146,0.040999999999999995,-1.348,-0.025,3.3231564,36.2682414,13.120738199999998,89.45593253999998,1.38655836,-31.770521100000003
1.47,147,0.152,-1.5030000000000001,-0.17800000000000002,-9.0527364,27.7311672,23.3766864,89.36425926,1.15164558,-31.49550126
1.48,148,0.282,-1.339,-0.095,13.636400400000001,13.464512999999998,29.2781538,89.50749876,0.8594370000000001,-31.35799134
1.49,149,0.252,-1.3980000000000001,-0.099,24.350715,-0.4583664000000001,35.695283399999994,89.75387070000002,0.5042030399999999,-31.35799134
1.5,150,0.078,-1.2409999999999999,-0.002,26.5279554,-8.4224826,35.17962120000001,90.02316096,0.16615782,-31.443935040000003
1.51,151,-0.077,-1.073,-0.005,25.152856200000002,-11.802934800000001,23.7204612,90.28099206,-0.06302537999999999,-31.558526640000004
1.52,152,-0.145,-1.094,-0.038,18.5638392,-9.682990199999999,11.172680999999999,90.4700682,-0.16615782,-31.65019992
1.53,153,-0.155,-1.1520000000000001,-0.07400000000000001,14.896907999999998,-0.9740286,2.0053530000000004,90.62476686,-0.18334656,-31.66165908
1.54,154,-0.13699999999999998,-1.256,-0.111,10.2559482,10.599723,-2.86479,90.7278993,-0.16042824,-31.55279706
1.55,155,-0.115,-1.328,-0.124,5.7868758000000025,21.027558600000006,-3.7815228,90.77373594,-0.13750992,-31.3408026
1.56,156,-0.07400000000000001,-1.317,-0.129,6.2452422,31.1689152,-2.5210152000000003,90.83103174,-0.12605075999999998,-31.03140528
1.57,157,-0.025,-1.249,-0.17300000000000001,8.9954406,41.76863820000001,0.286479,90.91697544,-0.14323950000000002,-30.61887552
1.58,158,0.019,-1.131,-0.21899999999999997,11.3445684,52.0818822,3.5523396000000003,91.02010788,-0.20053530000000008,-30.10321332
1.59,159,0.076,-0.971,-0.223,13.120738199999998,59.93140680000001,6.0733548,91.14615864,-0.28647900000000004,-29.51306658
1.6,160,0.107,-0.873,-0.21899999999999997,10.2559482,61.87946400000001,8.250595200000001,91.21491359999999,-0.38961144,-28.9057311
1.61,161,0.102,-0.835,-0.222,0.5156622000000001,55.11855960000001,11.5737516,91.20918402,-0.52712136,-28.361421000000004
1.62,162,0.107,-0.841,-0.22,-10.1413566,46.123119,15.9855282,91.09459242,-0.7104679199999999,-27.91451376
1.6300000000000001,163,0.132,-0.866,-0.203,-17.761698000000006,37.81522800000001,19.480572,90.8997867,-0.92246238,-27.54782064
1.6400000000000001,164,0.16699999999999998,-0.8909999999999999,-0.192,-21.4286292,30.137590799999998,20.340009,90.67633308,-1.14018642,-27.25561206
1.6500000000000001,165,0.19699999999999998,-0.922,-0.183,-19.194093,21.886995600000002,17.0168526,90.4414203,-1.27769634,-27.04934718
1.6600000000000001,166,0.198,-0.9620000000000001,-0.177,-14.037471,13.521808800000002,9.9694692,90.29245122,-1.38655836,-26.91756684
1.6700000000000002,167,0.165,-0.9840000000000001,-0.159,-8.7089616,6.2452422,-1.2032118,90.20077794,-1.3750992,-26.86027104
1.68,168,0.122,-0.978,-0.13,-4.9847346,0.8594370000000001,-12.1467096,90.14921172,-1.25477802,-26.84881188
1.69,169,0.099,-0.981,-0.10099999999999999,-1.5469866,-1.145916,-20.6837838,90.13775256,-1.04851314,-26.86027104
1.7,170,0.09300000000000001,-0.988,-0.075,1.6615782,-1.0313244000000001,-27.6165756,90.13202298,-0.7448454000000001,-26.87745978
1.71,171,0.092,-0.982,-0.048,3.2085647999999996,0.40107059999999994,-31.5699858,90.16640046,-0.4297185000000001,-26.8717302
1.72,172,0.094,-0.9620000000000001,-0.023,3.1512689999999997,2.6929026,-31.9710564,90.19504836000002,-0.11459160000000003,-26.83735272
1.73,173,0.08800000000000001,-0.948,-0.018000000000000002,2.0053530000000004,5.2712136,-29.335449600000004,90.2122371,0.1718874,-26.7857865
1.74,174,0.085,-0.946,-0.021,-0.4583664000000001,7.7922288,-25.55392680000001,90.20650752,0.42398892,-26.70557238
1.75,175,0.09,-0.945,-0.025,-4.010706000000001,8.7662574,-20.5691922,90.1549413,0.64744254,-26.62535826
1.76,176,0.10400000000000001,-0.9420000000000001,-0.039,-7.8495246,8.307891,-16.2147114,90.07472718,0.8078707799999998,-26.54514414
1.77,177,0.124,-0.934,-0.053,-11.1153852,7.5630456000000015,-14.037471,89.96013558000001,0.9453807,-26.4706596
1.78,178,0.142,-0.932,-0.065,-13.2926256,6.703608600000001,-13.750992000000002,89.82835524000002,1.07716104,-26.40190464
1.79,179,0.154,-0.9329999999999999,-0.07200000000000001,-15.126091199999998,4.9847346,-15.011499599999999,89.67365658,1.22613012,-26.356068
1.8,180,0.16399999999999998,-0.9359999999999999,-0.08,-16.329303,3.0366774,-17.18874,89.48458044,1.42666542,-26.33887926000001
1.81,181,0.165,-0.9329999999999999,-0.085,-16.673077799999998,0.8021411999999999,-19.767051000000002,89.31842262,1.62147114,-26.33314968
1.82,182,0.16399999999999998,-0.9279999999999999,-0.09,-16.501190400000002,-1.3750992,-21.944291399999997,89.14653522,1.83919518,-26.350338420000003
1.83,183,0.16699999999999998,-0.917,-0.095,-15.9855282,-3.2085647999999996,-23.2620948,88.98610698,2.06837838,-26.39044548
1.84,184,0.17600000000000002,-0.899,-0.092,-13.8655836,-6.2452422,-23.0902074,88.84286748000002,2.29756158,-26.45347086
1.85,185,0.182,-0.888,-0.079,-11.45916,-9.3392154,-21.772404,88.70535756,2.54393352,-26.562332880000003
1.86,186,0.185,-0.888,-0.062,-8.7089616,-12.776963400000001,-19.9389384,88.61368428,2.74446882,-26.69411322
1.87,187,0.18,-0.899,-0.040999999999999995,-6.3025379999999975,-16.329303,-18.162768600000003,88.54492932000002,2.9220857999999996,-26.86027104
1.8800000000000001,188,0.174,-0.92,-0.01,-4.297185,-19.9962342,-16.272007199999994,88.4933631,3.08824362,-27.06080634
1.8900000000000001,189,0.168,-0.951,0.009000000000000001,-3.0939732,-23.204798999999998,-14.610429000000002,88.44752645999998,3.2314831199999987,-27.29571912
1.9000000000000001,190,0.165,-0.966,0.01,-2.5210152000000003,-25.152856200000002,-13.2353298,88.41314897999996,3.38618178,-27.55355022
1.9100000000000001,191,0.162,-0.965,-0.009000000000000001,-1.3750992,-25.78311,-11.5737516,88.38450107999998,3.50077338,-27.81138132
1.9200000000000002,192,0.156,-0.95,-0.024,1.3178034,-25.0382646,-9.2819196,88.38450107999998,3.59244666,-28.06348284
1.93,193,0.14300000000000002,-0.9359999999999999,-0.023,4.0680017999999984,-24.2361234,-6.8182002000000015,88.41887856000002,3.66120162,-28.304125200000005
1.94,194,0.129,-0.929,-0.013000000000000001,6.130650599999999,-23.7204612,-4.1252976000000015,88.4647152,3.70703826,-28.53903798
1.95,195,0.12,-0.922,0.002,7.8495246,-23.777757,-1.2605076000000002,88.53919973999999,3.73568616,-28.77968034
1.96,196,0.11900000000000001,-0.914,0.018000000000000002,10.026765,-24.4080108,1.3178034,88.62514344,3.7242269999999995,-29.0203227
1.97,197,0.12,-0.9129999999999999,0.040999999999999995,13.178034,-25.496631,3.380452200000001,88.74546462,3.68984952,-29.27242422
1.98,198,0.127,-0.929,0.076,16.959556799999998,-27.559279800000002,4.9847346,88.90589286,3.644012880000001,-29.54171448
1.99,199,0.138,-0.953,0.10800000000000001,19.652459399999998,-30.5386614,5.958763200000001,89.08923942,3.59244666,-29.839652640000004
2.0,200,0.159,-0.986,0.133,22.517249399999997,-33.8618178,6.589017,89.31842262,3.54661002,-30.17769786
2.01,201,0.17800000000000002,-1.022,0.14400000000000002,24.2934192,-36.2109456,6.9327918,89.54760582,3.48931422,-30.53293182
2.02,202,0.193,-1.069,0.139,24.0069402,-39.1330314,6.990087599999999,89.77678902,3.42628884,-30.91681368
2.03,203,0.19699999999999998,-1.124,0.109,21.829699800000004,-40.6227222,6.4744254,89.97732432000002,3.37472262,-31.31788428
2.04,204,0.184,-1.182,0.044000000000000004,18.8503182,-40.6227222,5.0993262,90.1549413,3.33461556,-31.7132253
2.05,205,0.146,-1.216,-0.019,17.8762896,-38.159002799999996,2.5783110000000002,90.30963996,3.32888598,-32.09137758
2.0599999999999996,206,0.091,-1.21,-0.049,19.767051000000002,-35.5806918,0.3437748,90.4987161,3.34034514,-32.446611540000006
2.07,207,0.039,-1.192,-0.062,20.626488000000002,-34.1482968,-0.6302538000000001,90.69352182,3.36326346,-32.77892718
2.0799999999999996,208,0.017,-1.166,-0.07,18.1054728,-32.945085,-0.7448454000000001,90.85967964,3.38618178,-33.10551324
2.09,209,0.03,-1.153,-0.094,17.9335854,-29.5646328,-0.11459160000000004,91.03156704,3.39764094,-33.39199224
2.0999999999999996,210,0.063,-1.186,-0.16399999999999998,19.480572,-26.5279554,0.7448454000000001,91.19199528,3.4091001000000003,-33.65555292
2.11,211,0.083,-1.238,-0.217,17.3606274,-27.043617600000005,1.432395,91.3581531,3.4091001000000003,-33.92484318
2.1199999999999997,212,0.087,-1.244,-0.248,13.0634424,-28.5906042,1.8334656000000005,91.47847428,3.40337052,-34.2055926
2.13,213,0.08,-1.198,-0.255,12.4331886,-29.392745399999995,2.5783110000000002,91.59306588,3.39764094,-34.49780118
2.1399999999999997,214,0.062,-1.123,-0.261,13.178034,-31.741873200000004,3.380452200000001,91.71338706000002,3.380452200000001,-34.8071985
2.15,215,0.039,-1.033,-0.28,12.7196676,-35.9817624,2.7501984,91.77641244,3.37472262,-35.16816204
2.1599999999999997,216,0.0,-0.929,-0.306,10.026765,-43.029145799999995,0.7448454000000001,91.85662656,3.3919113599999995,-35.59215096
2.17,217,-0.025,-0.846,-0.289,7.906820400000001,-46.5814854,-0.9740286,91.91392236,3.43201842,-36.05051736
2.1799999999999997,218,-0.015,-0.799,-0.255,5.042030400000002,-45.2063862,-3.380452200000001,91.94829984,3.48931422,-36.4974246
2.19,219,0.023,-0.7979999999999999,-0.237,-0.3437748,-39.5913978,-6.8182002000000015,91.92538152,3.5809875,-36.88703604
2.1999999999999997,220,0.066,-0.8320000000000001,-0.22699999999999998,-7.161975,-33.0596766,-10.657018800000001,91.79360118,3.71276784,-37.21935168
2.21,221,0.08800000000000001,-0.882,-0.205,-12.605075999999999,-27.1582092,-13.464512999999998,91.65036168,3.86173692,-37.48291236
2.2199999999999998,222,0.077,-0.9620000000000001,-0.193,-16.959556799999998,-22.0015872,-14.266654199999998,91.46701512,4.01643558,-37.7006364
2.23,223,0.04,-1.052,-0.198,-20.7983754,-18.3919518,-12.0894138,91.2435615,4.14248634,-37.87825338
2.2399999999999998,224,0.0,-1.1159999999999999,-0.198,-21.600516600000002,-14.9542038,-6.1879464,91.02010788,4.211241299999998,-38.02722246
2.25,225,-0.026000000000000002,-1.138,-0.18600000000000005,-18.334656,-12.3758928,-0.286479,90.78519509999998,4.19978214,-38.15327322
2.26,226,-0.037000000000000005,-1.121,-0.17300000000000001,-13.750992000000002,-9.9694692,5.1566220000000005,90.6419556,4.14821592,-38.25640566
2.27,227,-0.028999999999999998,-1.083,-0.147,-9.453807,-7.6776372,9.568398599999998,90.53882316,4.05654264,-38.33661978
2.28,228,-0.009000000000000001,-1.052,-0.11599999999999999,-6.130650599999999,-5.042030400000002,12.834259199999998,90.47579778,3.93049188,-38.38818600000001
2.29,229,0.009000000000000001,-1.0270000000000001,-0.09699999999999999,-4.6982555999999995,-2.9220858,14.4958374,90.42423156,3.78725238,-38.4168339
2.3,230,0.025,-1.003,-0.08,-4.4690724,-1.2605076000000002,14.8396122,90.33828786,3.62682414,-38.43975222
2.31,231,0.045,-0.9890000000000001,-0.069,-5.1566220000000005,-0.057295800000000015,13.8655836,90.28672164,3.48931422,-38.43975222
2.32,232,0.063,-0.985,-0.061,-6.875496000000001,0.3437748,12.032118,90.2122371,3.3689930400000003,-38.43975222
2.3299999999999996,233,0.069,-0.986,-0.055999999999999994,-8.5370742,0.5156622000000001,10.4278356,90.1262934,3.2658606,-38.43402264
2.34,234,0.067,-0.983,-0.052000000000000005,-10.2559482,1.3178034,9.453807,90.02316096,3.16845774,-38.42256348
2.3499999999999996,235,0.057999999999999996,-0.981,-0.051,-11.917526400000002,2.0053530000000004,9.396511199999999,89.87992145999998,3.07678446,-38.40537474
2.36,236,0.046,-0.98,-0.05,-13.120738199999998,2.7501984,10.313244000000001,89.74814112,2.9736520200000003,-38.38245642
2.3699999999999997,237,0.036000000000000004,-0.9690000000000001,-0.05,-14.1520626,2.9793816000000004,11.8602306,89.60490161999998,2.85333084,-38.35380852
2.38,238,0.019,-0.9540000000000001,-0.049,-15.068795399999999,3.2658606,13.521808800000002,89.45020296,2.7215505,-38.31943104
2.3899999999999997,239,0.0,-0.9420000000000001,-0.053,-15.6990492,4.1252976000000015,15.011499599999999,89.29550429999998,2.56685184,-38.27932398
2.4,240,-0.025,-0.938,-0.059000000000000004,-16.386598799999998,5.6149884000000005,16.042824000000003,89.11788732,2.38923486,-38.22202818
2.4099999999999997,241,-0.045,-0.9420000000000001,-0.057999999999999996,-16.615782,7.6776372,16.558486199999994,88.9517295,2.22307704,-38.14754364
2.42,242,-0.057999999999999996,-0.955,-0.055,-16.501190400000002,10.084060800000001,16.7876694,88.78557168,2.05118964,-38.0444112
2.4299999999999997,243,-0.059000000000000004,-0.9620000000000001,-0.059000000000000004,-16.501190400000002,12.4904844,16.7876694,88.61941386,1.88503182,-37.91836044
2.44,244,-0.057,-0.9590000000000001,-0.065,-16.1001198,14.438541599999999,16.501190400000002,88.45898561999998,1.7188740000000002,-37.77512094
2.4499999999999997,245,-0.040999999999999995,-0.951,-0.066,-15.6417534,14.7250206,16.1001198,88.2928278,1.5469866,-37.62615186
2.46,246,-0.022000000000000002,-0.95,-0.063,-15.011499599999999,14.209358400000001,15.469866,88.14385872,1.39228794,-37.48291236
2.4699999999999998,247,-0.001,-0.937,-0.069,-14.4958374,13.5791046,14.32395,87.99488964000004,1.24904844,-37.34540244
2.48,248,0.013000000000000001,-0.9179999999999999,-0.059000000000000004,-13.0061466,13.0061466,12.7196676,87.8631093,1.12299768,-37.2136221
2.4899999999999998,249,0.019,-0.9009999999999999,-0.039,-11.0580894,12.6623718,11.0007936,87.75424728,1.01413566,-37.08184176
2.5,250,0.022000000000000002,-0.892,-0.011000000000000001,-8.078707799999998,12.605075999999999,9.3392154,87.67403316,0.92246238,-36.955791
2.51,251,0.016,-0.889,0.019,-5.042030400000002,12.4904844,8.078707799999998,87.62246694,0.8422482600000001,-36.82974024
2.52,252,0.006999999999999999,-0.894,0.048,-3.0939732,12.9488508,7.2192707999999985,87.59381904,0.7734933,-36.6979599
2.53,253,-0.001,-0.9129999999999999,0.055,-1.4896908000000002,13.6936962,6.8182002000000015,87.57663029999998,0.7104679199999999,-36.56044998
2.54,254,-0.013000000000000001,-0.94,0.040999999999999995,-0.286479,14.037471,6.7609043999999985,87.57663029999998,0.64171296,-36.42294006
2.55,255,-0.022000000000000002,-0.9620000000000001,0.033,1.4896908000000002,14.4958374,6.9327918,87.6052782,0.56149884,-36.2682414
2.56,256,-0.03,-0.978,0.033,4.3544808,15.183387000000002,7.0473834,87.65111484,0.4984734599999999,-36.11927232
2.57,257,-0.04,-0.982,0.048,7.1046792000000005,15.756345,7.161975,87.7198698,0.4297185000000001,-35.95884408
2.5799999999999996,258,-0.040999999999999995,-0.978,0.064,8.651665800000002,16.4438946,6.703608600000001,87.81154308,0.36096354,-35.79268626
2.59,259,-0.05,-0.966,0.087,9.7975818,17.3606274,5.5576926,87.90894594,0.30939732,-35.61506928
2.5999999999999996,260,-0.051,-0.963,0.107,11.0007936,18.9649098,3.9534102,88.04645586000002,0.25783110000000004,-35.42026356
2.61,261,-0.046,-0.983,0.10099999999999999,11.2299768,21.2567418,2.4064236,88.16104745999998,0.23491278,-35.20826909999999
2.6199999999999997,262,-0.035,-1.0390000000000001,0.054000000000000006,9.682990199999999,22.4599536,2.291832,88.25845032,0.21199446,-34.984815479999995
2.63,263,-0.003,-1.097,-0.008,7.1046792000000005,20.912967000000002,3.4377480000000005,88.32720528,0.18334656,-34.7785506
2.6399999999999997,264,0.037000000000000005,-1.121,-0.045,6.130650599999999,17.8762896,4.5263682,88.39023066,0.13750992,-34.59520404
2.65,265,0.065,-1.119,-0.061,7.7922288,15.5844576,4.8128472,88.45325604000001,0.10886202,-34.44623496
2.6599999999999997,266,0.069,-1.121,-0.096,8.193299399999999,13.9228794,4.297185,88.53347016000002,0.06302537999999999,-34.30872504
2.67,267,0.064,-1.1059999999999999,-0.135,7.333862400000001,11.9748222,3.380452200000001,88.60795470000002,0.028647900000000007,-34.18840386
2.6799999999999997,268,0.057999999999999996,-1.0979999999999999,-0.162,6.0160589999999985,10.313244000000001,2.3491277999999998,88.6652505,0.00572958,-34.079541840000005
2.69,269,0.06,-1.1079999999999999,-0.187,4.2398892,10.943497800000001,1.5469866,88.70535756,-0.00572958,-33.97067982
2.6999999999999997,270,0.053,-1.0959999999999999,-0.203,3.8388186,13.464512999999998,0.0,88.68243924,0.01145916,-33.84462906
2.71,271,0.019,-1.074,-0.2,4.5263682,16.501190400000002,-3.8388186,88.7225463,0.04583664,-33.684200819999994
2.7199999999999998,272,-0.026000000000000002,-1.07,-0.18100000000000002,6.130650599999999,20.9702628,-7.6776372,88.78557168,0.12032118,-33.477935939999995
2.73,273,-0.07,-1.0959999999999999,-0.17600000000000002,7.9641161999999985,25.78311,-10.599723,88.86005622,0.22918320000000006,-33.22010484
2.7399999999999998,274,-0.113,-1.122,-0.191,9.3392154,30.4813656,-11.745639,88.9517295,0.3437748,-32.922166680000004
2.75,275,-0.155,-1.119,-0.21600000000000005,10.7143146,34.1482968,-10.3705398,89.03194361999998,0.41825934,-32.57839188
2.76,276,-0.17,-1.0859999999999999,-0.237,11.172680999999999,37.0703826,-6.9327918,89.14653522,0.4870143000000001,-32.211698760000004
2.77,277,-0.153,-1.02,-0.256,10.313244000000001,39.7632852,-3.0366774,89.24966766,0.5099326200000001,-31.81635774
2.78,278,-0.106,-0.938,-0.267,8.880849000000003,42.5707794,0.0,89.33561136,0.5099326200000001,-31.3980984
2.79,279,-0.023,-0.871,-0.256,6.5317212,44.9199072,2.2345362,89.39863674,0.47555514,-30.95119116
2.8,280,0.071,-0.8490000000000001,-0.223,2.7501984,44.9199072,3.7242269999999995,89.38717758,0.4526368200000001,-30.510013500000003
2.81,281,0.157,-0.875,-0.20199999999999999,-2.0626488000000003,41.825934000000004,5.3285094000000015,89.36425926,0.38961144,-30.09748374
2.82,282,0.22699999999999998,-0.9259999999999999,-0.185,-6.3025379999999975,36.1536498,7.333862400000001,89.30123388000001,0.31512690000000004,-29.74224978
2.8299999999999996,283,0.272,-0.9940000000000001,-0.166,-9.1100322,29.163562199999998,8.4224826,89.20383102000002,0.22345362,-29.4500412
2.84,284,0.282,-1.0490000000000002,-0.146,-8.9381448,22.0015872,8.479778399999999,89.11215774000001,0.13750992,-29.23231716
2.8499999999999996,285,0.257,-1.083,-0.131,-6.3025379999999975,15.5844576,6.6463128000000005,89.00902529999998,0.13178034,-29.09480724
2.86,286,0.19399999999999998,-1.091,-0.12300000000000001,-3.0939732,9.740286,2.9793816000000004,88.98037740000002,0.10313244,-28.99740438
2.8699999999999997,287,0.11199999999999999,-1.094,-0.121,-0.11459160000000004,5.6149884000000005,-3.380452200000001,88.97464782,0.13750992,-28.940108580000004
2.88,288,0.039,-1.103,-0.11900000000000001,2.5210152000000003,3.9534102,-9.6256944,89.00329572000004,0.22918320000000006,-28.9057311
2.8899999999999997,289,-0.006999999999999999,-1.109,-0.11599999999999999,4.1825934,4.6982555999999995,-14.32395,89.04340278,0.3724227000000001,-28.85989446
2.9,290,-0.023,-1.109,-0.102,4.7555514,5.958763200000001,-17.6471064,89.06632110000002,0.5443101,-28.80259866
2.9099999999999997,291,-0.013000000000000001,-1.0979999999999999,-0.091,3.6096353999999997,7.8495246,-19.308684600000007,89.10642816,0.73338624,-28.72238454
2.92,292,0.013000000000000001,-1.072,-0.087,2.6929026,9.740286,-19.595163600000006,89.12934648,0.92819196,-28.63071126
2.9299999999999997,293,0.044000000000000004,-1.05,-0.086,2.3491277999999998,11.1153852,-18.621135,89.15799438,1.11153852,-28.52184924
2.94,294,0.07,-1.038,-0.08,1.4896908000000002,12.4331886,-17.4179232,89.16945354,1.28342592,-28.40152806
2.9499999999999997,295,0.09,-1.035,-0.084,-0.6875496,13.750992000000002,-16.4438946,89.14080564,1.46677248,-28.2754773
2.96,296,0.10800000000000001,-1.023,-0.086,-3.0366774,14.5531332,-16.157415599999997,89.11215774000001,1.6272007199999998,-28.1322378
2.9699999999999998,297,0.11699999999999999,-1.006,-0.081,-4.583664,14.438541599999999,-16.329303,89.06632110000002,1.78762896,-27.988998300000002
2.98,298,0.11599999999999999,-0.987,-0.079,-6.8182002000000015,13.521808800000002,-16.501190400000002,88.99756613999998,1.9480572000000005,-27.857217960000003
2.9899999999999998,299,0.111,-0.961,-0.08,-9.682990199999999,12.261301199999998,-16.673077799999998,88.90589286,2.11421502,-27.74262636
3.0,300,0.10300000000000001,-0.9359999999999999,-0.08199999999999999,-12.4904844,10.886202,-16.8449652,88.76265336,2.2918320000000003,-27.645223500000004
3.01,301,0.10300000000000001,-0.9179999999999999,-0.085,-15.2406828,9.5111028,-17.18874,88.60795470000002,2.4637194,-27.55355022
3.02,302,0.111,-0.9079999999999999,-0.09300000000000001,-18.048177,8.651665800000002,-17.8762896,88.42460814,2.6413363800000003,-27.473336100000004
3.03,303,0.12,-0.899,-0.08900000000000001,-20.168121600000006,5.5003968,-17.7044022,88.22407283999998,2.81322378,-27.42749946
3.04,304,0.135,-0.904,-0.08199999999999999,-22.5745452,0.3437748,-16.501190400000002,87.99488964000004,2.9736520200000003,-27.433229040000004
3.05,305,0.15,-0.8959999999999999,-0.062,-23.4339822,-2.4637194,-15.3552744,87.74278812,3.1512689999999997,-27.46760652
3.06,306,0.157,-0.898,-0.040999999999999995,-23.3766864,-4.4690724,-14.667724800000002,87.50214575999998,3.2945085,-27.51917274
3.07,307,0.154,-0.909,-0.028999999999999998,-23.777757,-5.5576926,-14.5531332,87.26150340000002,3.4377480000000005,-27.5879277
3.08,308,0.149,-0.9229999999999999,-0.015,-23.892348600000002,-5.3285094000000015,-15.068795399999999,87.01513145999998,3.5809875,-27.65095308
3.09,309,0.135,-0.938,-0.001,-24.4080108,-4.4117766,-15.3552744,86.76302994,3.7299565800000014,-27.702519300000002
3.0999999999999996,310,0.11900000000000001,-0.9390000000000001,-0.003,-25.382039399999996,-3.7242269999999995,-14.266654199999998,86.50519884,3.88465524,-27.75408552
3.11,311,0.107,-0.9209999999999999,-0.018000000000000002,-26.0122932,-3.2085647999999996,-10.657018800000001,86.24163816000002,3.98778768,-27.79419258
3.1199999999999997,312,0.105,-0.898,-0.036000000000000004,-26.4706596,-1.8907614,-6.0160589999999985,85.96661832,4.04508348,-27.8171109
3.13,313,0.109,-0.883,-0.046,-26.4706596,0.0,-1.2605076000000002,85.69732806,4.05081306,-27.82284048
3.1399999999999997,314,0.1,-0.8759999999999999,-0.033,-26.1841806,1.6615782,2.9793816000000004,85.43376737999998,4.022165159999999,-27.805651739999995
3.15,315,0.084,-0.875,-0.021,-25.84040580000001,2.4064236,6.3598338,85.18166586000002,3.9648693599999993,-27.78273342
3.1599999999999997,316,0.07200000000000001,-0.866,-0.011000000000000001,-25.4393352,2.3491277999999998,9.2819196,84.92383476,3.8674665,-27.75408552
3.17,317,0.07400000000000001,-0.8390000000000001,0.006,-21.829699800000004,2.9793816000000004,12.4331886,84.70611072,3.74714532,-27.71397846
3.1799999999999997,318,0.083,-0.8220000000000001,0.025,-15.928232399999999,3.8961144,15.5844576,84.54568248000002,3.59244666,-27.66241224
3.19,319,0.09300000000000001,-0.816,0.055999999999999994,-8.8235532,4.8701430000000006,18.2200644,84.45973878,3.4148296799999995,-27.59938686
3.1999999999999997,320,0.09,-0.8240000000000001,0.086,-3.7242269999999995,6.3025379999999975,19.8243468,84.45973878,3.2372127,-27.51917274
3.21,321,0.078,-0.857,0.077,0.1718874,6.990087599999999,21.199446,84.46546836,3.03094782,-27.42749946
3.2199999999999998,322,0.054000000000000006,-0.927,0.057999999999999996,3.2085647999999996,6.2452422,22.345361999999998,84.50557542,2.81322378,-27.34728534
3.23,323,0.002,-0.982,0.063,4.6409598,2.5783110000000002,24.809081399999997,84.55141205999998,2.56685184,-27.29571912
3.2399999999999998,324,-0.055999999999999994,-0.996,0.099,6.5317212,-4.010706000000001,29.392745399999995,84.62016702,2.2746432600000004,-27.30717828
3.25,325,-0.087,-0.98,0.14,8.479778399999999,-10.1986524,35.0650296,84.74048819999999,1.90222056,-27.37020366
3.26,326,-0.066,-0.9740000000000001,0.12,8.4224826,-14.1520626,39.1330314,84.8264319,1.50687954,-27.47906568
3.27,327,-0.006999999999999999,-0.9940000000000001,0.038,7.161975,-16.7303736,39.8778768,84.90091644,1.10580894,-27.60511644
3.28,328,0.046,-1.062,-0.036000000000000004,9.0527364,-20.9702628,37.1276784,84.99258972,0.72192708,-27.78273342
3.29,329,0.077,-1.146,-0.11199999999999999,10.7716104,-27.215505,31.913760600000003,85.10718132,0.39534102,-28.02337578
3.3,330,0.115,-1.202,-0.17600000000000002,13.0061466,-32.4294228,24.4653066,85.23323208,0.14323950000000002,-28.32704352
3.31,331,0.157,-1.22,-0.254,14.8396122,-33.0596766,15.4125702,85.38793074,-0.01718874,-28.63644084
3.32,332,0.175,-1.2009999999999998,-0.358,14.4958374,-30.7105488,5.5003968,85.53689982,-0.0859437,-28.934378999999996
3.33,333,0.14300000000000002,-1.193,-0.445,11.688343199999998,-27.043617600000005,-5.2139178,85.66295058,-0.04583664,-29.203669260000005
3.34,334,0.042,-1.2209999999999999,-0.52,5.9014674000000005,-26.7571386,-14.8396122,85.72597596,0.08021412,-29.4786891
3.3499999999999996,335,-0.127,-1.235,-0.564,-3.0366774,-33.403451399999994,-22.0015872,85.67440974,0.27501984,-29.822463899999995
3.36,336,-0.266,-1.23,-0.607,-11.917526400000002,-42.05511720000001,-25.382039399999996,85.55408856,0.5042030399999999,-30.25791198
3.3699999999999997,337,-0.322,-1.198,-0.626,-20.5118964,-44.51883660000001,-27.7311672,85.34782368,0.75630456,-30.72200796000001
3.38,338,-0.297,-1.151,-0.581,-27.4446882,-35.809875,-30.7678446,85.06707426,1.03705398,-31.10588982
3.3899999999999997,339,-0.21600000000000005,-1.0959999999999999,-0.526,-30.4240698,-18.449247600000003,-33.518043,84.75194736,1.3579104599999998,-31.31788428
3.4,340,-0.106,-1.033,-0.474,-29.67922440000001,-0.7448454000000001,-33.3461556,84.40817256,1.67303736,-31.35799134
3.4099999999999997,341,0.044000000000000004,-0.997,-0.41700000000000004,-27.100913399999996,12.2040054,-29.0489706,84.13315272,1.96524594,-31.27204764
3.42,342,0.201,-1.02,-0.33299999999999996,-23.14750320000001,20.2254174,-21.027558600000006,83.89823994000002,2.18869956,-31.09443066
3.4299999999999997,343,0.322,-1.068,-0.25,-17.761698000000006,24.809081399999997,-9.167328,83.72635254,2.29756158,-30.85951788
3.44,344,0.39,-1.1059999999999999,-0.19699999999999998,-12.7196676,25.0955604,1.5469866,83.60603136,2.30329116,-30.61314594
3.4499999999999997,345,0.375,-1.112,-0.174,-8.4224826,22.2880662,9.740286,83.51435808,2.2746432600000004,-30.395421899999995
3.46,346,0.292,-1.088,-0.159,-6.7609043999999985,18.6784308,15.2406828,83.45133270000002,2.13713334,-30.194886600000004
3.4699999999999998,347,0.165,-1.067,-0.16399999999999998,-7.9641161999999985,14.9542038,18.5638392,83.37111858,1.96524594,-30.022999200000005
3.48,348,0.037000000000000005,-1.052,-0.182,-10.599723,11.6310474,20.8556712,83.26798613999998,1.77044022,-29.88548928
3.4899999999999998,349,-0.063,-1.036,-0.20800000000000002,-12.834259199999998,9.453807,22.5745452,83.14193537999998,1.5527161800000002,-29.77089768
3.5,350,-0.133,-1.0,-0.21600000000000005,-13.407217200000002,8.9954406,23.7204612,82.98150714,1.2891555,-29.6505765
3.51,351,-0.16899999999999998,-0.9620000000000001,-0.20800000000000002,-12.6623718,10.7143146,24.522602399999997,82.85545637999998,1.05424272,-29.51306658
3.52,352,-0.179,-0.9159999999999999,-0.201,-11.2299768,13.8082878,25.210151999999997,82.74086478000002,0.8193299399999999,-29.34690876
3.53,353,-0.159,-0.8909999999999999,-0.184,-10.026765,16.8449652,25.2674478,82.64346192,0.5844171599999999,-29.152103040000004
3.54,354,-0.11699999999999999,-0.893,-0.16699999999999998,-10.5424272,19.8243468,25.0955604,82.5345999,0.35523396,-28.92864942
3.55,355,-0.066,-0.9009999999999999,-0.161,-12.7196676,22.1734746,24.923673,82.39136040000002,0.12605075999999998,-28.6765479
3.56,356,-0.005,-0.907,-0.174,-15.6417534,22.803728399999997,25.0955604,82.23093216,-0.09167328,-28.42444638
3.57,357,0.047,-0.909,-0.183,-17.246035799999998,20.6837838,25.9549974,82.05331518,-0.32658606,-28.18380402
3.58,358,0.08199999999999999,-0.892,-0.188,-16.615782,18.334656,26.814434400000003,81.88142778,-0.5729580000000001,-27.97180956
3.59,359,0.09300000000000001,-0.873,-0.187,-15.527161800000002,15.6417534,26.929026,81.72099954000002,-0.8193299399999999,-27.78273342
3.5999999999999996,360,0.065,-0.865,-0.179,-14.037471,13.2353298,25.9549974,81.56057129999998,-1.04851314,-27.6165756
3.61,361,0.002,-0.866,-0.163,-12.776963400000001,11.6310474,23.9496444,81.42879096,-1.27196676,-27.473336100000004
3.6199999999999997,362,-0.07400000000000001,-0.887,-0.155,-12.261301199999998,11.917526400000002,21.027558600000006,81.29701062000002,-1.46677248,-27.32436702
3.63,363,-0.141,-0.9209999999999999,-0.16899999999999998,-12.0894138,14.32395,18.048177,81.16523028,-1.6272007199999998,-27.1582092
3.6399999999999997,364,-0.192,-0.932,-0.17300000000000001,-10.1986524,17.3606274,15.4125702,81.05636826,-1.75898106,-26.96340348
3.65,365,-0.209,-0.941,-0.159,-7.3911582,21.944291399999997,12.6623718,80.96469498,-1.90222056,-26.722761119999994
3.6599999999999997,366,-0.195,-0.934,-0.157,-5.7868758000000025,27.501984000000004,9.9121734,80.89021044,-1.96524594,-26.43628212
3.67,367,-0.16899999999999998,-0.9,-0.129,-2.9793816000000004,32.658606,7.0473834,80.8443738,-1.98816426,-26.103966480000004
3.6799999999999997,368,-0.132,-0.871,-0.086,0.0,38.67466500000001,2.86479,80.82718506,-1.96524594,-25.72008462
3.69,369,-0.095,-0.855,-0.05,1.5469866,43.258328999999996,-0.6875496,80.82145548,-1.90222056,-25.30182528000001
3.6999999999999997,370,-0.057,-0.852,-0.026000000000000002,2.1772404,47.326330799999994,-3.8388186,80.83864422,-1.8048177,-24.8377293
3.71,371,-0.038,-0.866,-0.027000000000000003,2.7501984,50.305712400000004,-6.130650599999999,80.8443738,-1.6787669399999998,-24.35644458
3.7199999999999998,372,-0.039,-0.889,-0.031,3.7815228,52.19647379999999,-7.448453999999999,80.86156254,-1.5412570200000002,-23.85797112
3.73,373,-0.062,-0.9059999999999999,-0.037000000000000005,4.6982555999999995,53.571573,-8.3651868,80.89021044,-1.38655836,-23.34230892
3.7399999999999998,374,-0.092,-0.915,-0.031,5.5003968,55.7488134,-9.453807,80.92458792,-1.22040054,-22.80945798
3.75,375,-0.11199999999999999,-0.917,-0.013999999999999999,5.958763200000001,59.1292656,-11.2872726,80.98188372,-1.04851314,-22.24795914
3.76,376,-0.106,-0.938,-0.02,4.4117766,63.9994086,-14.1520626,81.01053162,-0.8250595199999999,-21.64062366
3.77,377,-0.07400000000000001,-0.982,-0.065,0.6875496,66.9214944,-16.157415599999997,80.99907246000002,-0.5844171599999999,-21.00464028
3.78,378,-0.031,-1.002,-0.09300000000000001,-1.8334656000000005,67.7236356,-17.6471064,80.96469498,-0.32085648,-20.368656899999998
3.79,379,0.005,-1.0,-0.077,-2.2345362,68.2392978,-20.1108258,80.9303175,-0.03437748,-19.73267352
3.8,380,0.023,-0.985,-0.09300000000000001,-4.1825934,68.0674104,-24.2934192,80.88448086000002,0.28647900000000004,-19.10241972
3.81,381,0.023,-0.95,-0.134,-6.3025379999999975,66.4058322,-30.022999199999997,80.8157259,0.66463128,-18.50081382
3.82,382,0.016,-0.937,-0.171,-8.651665800000002,63.712929599999995,-36.6120162,80.72405262,1.10580894,-17.9335854
3.83,383,0.013999999999999999,-0.943,-0.198,-11.45916,63.02538000000001,-42.7999626,80.61519059999998,1.61001198,-17.383545719999994
3.84,384,0.001,-0.9329999999999999,-0.214,-10.886202,64.4004792,-48.185767799999994,80.51205816,2.17151082,-16.83350604
3.8499999999999996,385,-0.006999999999999999,-0.932,-0.188,-10.1986524,65.030733,-50.706783,80.42038488,2.7501984,-16.27773678
3.86,386,0.002,-0.953,-0.17600000000000002,-12.4331886,67.036086,-51.3943326,80.31152286,3.34607472,-15.704778780000002
3.8699999999999997,387,0.023,-0.9740000000000001,-0.21100000000000002,-15.068795399999999,68.2965936,-50.305712400000004,80.18547209999998,3.93049188,-15.12036162
3.88,388,0.045,-0.9420000000000001,-0.266,-15.3552744,66.9214944,-47.784697200000004,80.06515092,4.49199072,-14.541674039999998
3.8899999999999997,389,0.046,-0.907,-0.272,-11.802934800000001,65.14532460000001,-43.888582799999995,79.97920722,5.0133825000000005,-13.980175199999998
3.9,390,0.02,-0.853,-0.245,-8.479778399999999,65.89017,-40.393539000000004,79.92764100000002,5.5003968,-13.40148762
3.9099999999999997,391,-0.005,-0.7709999999999999,-0.23399999999999999,-6.130650599999999,69.9581718,-40.5081306,79.91618184000002,5.9931406800000016,-12.782692979999998
3.92,392,-0.046,-0.688,-0.215,-2.86479,76.8336678,-42.91455420000001,79.95055932,6.525991620000001,-12.10660254
3.9299999999999997,393,-0.077,-0.642,-0.185,0.11459160000000004,82.4486562,-43.4302164,80.02504386000003,7.0703017200000025,-11.36748672
3.94,394,-0.113,-0.622,-0.129,2.1199446,84.56860079999998,-41.0810886,80.13390588000001,7.59742308,-10.599723
3.9499999999999997,395,-0.122,-0.603,-0.03,3.380452200000001,85.9437,-35.8671708,80.2714158,8.0500599,-9.80904096
3.96,396,-0.11699999999999999,-0.573,0.033,5.5576926,85.9437,-28.9916748,80.43184404,8.45686008,-9.00689976
3.9699999999999998,397,-0.068,-0.551,0.06,8.880849000000003,85.1988546,-22.9756158,80.63237934,8.794905300000002,-8.19902898
3.98,398,-0.009000000000000001,-0.579,0.10099999999999999,11.8602306,81.1308528,-18.9649098,80.86156254,9.09284346,-7.4198061
3.9899999999999998,399,0.03,-0.645,0.127,14.438541599999999,75.00020219999998,-16.7303736,81.11366405999998,9.350674559999998,-6.7036086
4.0,400,0.051,-0.7340000000000001,0.115,17.303331600000003,65.2026204,-14.4958374,81.40014306,9.568398599999998,-6.067625219999999
4.01,401,0.06,-0.762,0.099,22.2880662,59.014674,-14.1520626,81.71526996,9.78039306,-5.5003968
4.02,402,0.07,-0.764,0.114,29.507337,58.0406454,-16.7303736,82.1048814,10.01530584,-4.93889796
4.03,403,0.06,-0.7759999999999999,0.11599999999999999,32.658606,60.44706899999999,-21.199446,82.52887032,10.29032568,-4.36021038
4.04,404,0.064,-0.765,0.07,31.1689152,65.317212,-26.069589,82.94712966,10.61118216,-3.73568616
4.05,405,0.061,-0.716,0.038,29.507337,69.32791800000001,-30.137590799999998,83.37111858,10.972145699999999,-3.07105488
4.06,406,0.017,-0.6859999999999999,0.022000000000000002,28.2468294,72.82296179999999,-33.6899304,83.78364833999998,11.36748672,-2.3777757
4.07,407,-0.053,-0.679,0.001,23.5485738,79.354683,-37.1849742,84.16180062,11.79720522,-1.6157415599999996
4.08,408,-0.10300000000000001,-0.6459999999999999,-0.071,17.761698000000006,90.6419556,-39.247623,84.51703458,12.24984204,-0.73338624
4.09,409,-0.13699999999999998,-0.613,-0.18899999999999997,14.438541599999999,101.52815759999999,-40.680018,84.86080938,12.7196676,0.24637194
4.1,410,-0.136,-0.598,-0.28300000000000003,14.9542038,110.29441499999999,-42.34159620000001,85.22177292,13.18376358,1.32926256
4.109999999999999,411,-0.11699999999999999,-0.636,-0.326,15.870936600000002,119.28985559999998,-44.34694920000001,85.64003226,13.687966619999996,2.50955604
4.12,412,-0.054000000000000006,-0.6890000000000001,-0.361,14.9542038,134.2440594,-45.034498799999994,86.09266908,14.19216966,3.84454818
4.13,413,-0.006,-0.759,-0.379,15.527161800000002,147.8804598,-43.4302164,86.60260170000002,14.67918396,5.3285094000000015
4.14,414,-0.040999999999999995,-0.835,-0.359,14.4958374,155.61539280000005,-38.61736920000001,87.13545264000004,15.10317288,6.898414319999999
4.1499999999999995,415,-0.165,-0.862,-0.27399999999999997,10.3705398,158.36559119999995,-30.3094782,87.62819652,15.40684062,8.51415588
4.16,416,-0.20800000000000002,-0.8220000000000001,-0.133,4.8128472,161.17308540000005,-21.0848544,88.0922925,15.63029424,10.15854534
4.17,417,-0.16,-0.738,-0.036000000000000004,-2.5783110000000002,168.3350604,-15.4125702,88.51055184,15.7849929,11.88314892
4.18,418,-0.133,-0.608,0.046,-8.7662574,174.98137319999995,-15.011499599999999,88.88870412,15.9282324,13.67650746
4.1899999999999995,419,-0.111,-0.461,0.113,-17.761698000000006,179.16396659999995,-17.761698000000006,89.19237186000002,16.08293106,15.51570264
4.2,420,-0.034,-0.293,0.191,-26.1841806,180.3098826,-21.4286292,89.43301421999998,16.26054804,17.37208656
4.21,421,0.064,-0.179,0.187,-33.3461556,174.75218999999996,-23.4339822,89.57625372,16.45535376,19.165445100000003
4.22,422,0.11900000000000001,-0.114,-0.051,-40.2789474,166.444299,-22.91832,89.63354952,16.6444299,20.87285994
4.2299999999999995,423,0.126,-0.14800000000000002,-0.09,-47.6128098,166.7880738,-19.5378678,89.61636078000002,16.79912856,22.59173394
4.24,424,0.17300000000000001,-0.20800000000000002,-0.052000000000000005,-60.50436480000001,178.3618254,-19.0222056,89.51322834,16.94809764,24.42519954
4.25,425,0.17,-0.28,-0.005,-63.02538000000001,191.19608459999998,-20.912967000000002,89.42155505999996,17.11998504,26.39044548
4.26,426,0.10800000000000001,-0.355,0.038,-69.61439700000001,205.17625980000003,-24.0069402,89.31269304,17.32052034,28.504660499999996
4.27,427,-0.003,-0.447,0.005,-79.354683,214.91654580000002,-26.7571386,89.14653522,17.549703540000007,30.71627838
4.28,428,-0.106,-0.564,-0.057,-85.3134462,213.36955919999997,-31.741873200000004,88.91735202,17.83618254,32.9164371
4.29,429,-0.096,-0.725,-0.175,-90.527364,205.9211052,-37.4714532,88.62514344,18.18568692,35.04211128
4.3,430,0.028999999999999998,-0.833,-0.21,-85.65722099999998,200.4207084,-41.9978214,88.37304191999998,18.58675752,37.10476008
4.31,431,0.092,-0.826,-0.172,-97.2882684,203.973048,-52.19647379999999,88.03499670000002,19.10241972,39.20751594
4.32,432,0.07,-0.565,-0.171,-117.8574606,212.91119280000004,-63.48374640000001,87.54225282,19.74413268,41.40194508
4.33,433,0.048,-0.153,0.08900000000000001,-119.6909262,214.6300668,-66.9214944,87.05523852,20.43741186,43.61356296
4.34,434,0.015,0.251,0.19699999999999998,-107.2577376,198.816426,-70.18735500000001,86.66562708000002,21.18225726,45.6647526
4.35,435,0.025,0.285,0.055,-82.90702259999998,194.46194519999997,-76.9482594,86.53957632,22.007316780000004,47.67583517999999
4.36,436,0.063,0.042,0.053,-75.68775179999999,199.102905,-85.82910840000002,86.53384674,22.91259042,49.74421356000001
4.37,437,0.027999999999999997,-0.23199999999999998,0.08199999999999999,-82.4486562,213.7706298,-106.7993712,86.55103548,24.0355881,51.9672906
4.38,438,0.079,-0.534,0.033,-87.83446140000002,247.11678540000003,-143.1822042,86.70573413999998,25.5252789,54.55706076
4.39,439,0.22,-0.754,-0.055,-75.63045600000002,288.7135362,-185.351913,87.26723297999996,27.42749946,57.63384522
4.3999999999999995,440,0.716,-0.835,0.42200000000000004,-47.9565846,317.5333236,-212.5101222,88.40741940000002,29.57036238,61.11742986
4.41,441,1.474,-0.9570000000000001,0.7859999999999999,-32.372127,327.9038634,-225.745452,89.93148768,31.76479152,64.84738644000001
4.42,442,2.144,-1.069,0.888,-23.0329116,316.3301118,-230.5010034,91.69046874,33.92484318,68.61172049999999
4.43,443,2.428,-1.17,0.782,-12.776963400000001,288.0832824,-237.0327246,93.58695972,36.06197652,72.21562631999998
4.4399999999999995,444,2.492,-1.248,0.9470000000000001,-0.286479,253.3620276,-244.8249534,95.58085356,38.2162986,75.59034894
4.45,445,2.783,-1.349,1.161,26.69984280000001,229.469679,-246.4292358,97.89560387999998,40.32478404,78.87339828
4.46,446,2.832,-1.4809999999999999,1.04,78.20876700000002,207.410796,-228.4383546,100.76039388,42.18116796,82.05904475999998
4.47,447,3.109,-1.6569999999999998,0.934,133.38462239999998,168.9653142,-193.086846,103.99760658,43.65939960000001,84.86080938
4.4799999999999995,448,2.931,-1.305,0.972,98.4914802,101.52815759999999,-175.55433119999995,106.38684144,45.05168754,86.87189196
4.49,449,2.9389999999999996,-0.503,0.888,56.436363,38.27359439999999,-189.1907316,107.89945056000002,46.73045448000001,88.20115452
4.5,450,2.68,-0.003,1.2790000000000001,82.1621772,11.5737516,-218.35429380000002,109.63551329999999,48.74726663999999,89.42155505999996
4.51,451,2.262,0.017,1.2670000000000001,137.05155359999998,24.350715,-238.12134480000003,112.31122716,50.86148166,91.11751074
4.52,452,1.8530000000000002,-0.563,1.074,174.98137319999995,31.913760600000003,-217.7813358,115.59427649999999,52.70640641999999,93.04264962
4.53,453,1.776,-0.86,1.266,161.6314518,50.420303999999994,-184.778955,118.98618786,54.09869436,95.23134918
4.54,454,1.4880000000000002,-0.451,1.161,159.282324,66.23394479999999,-172.3457664,122.64165990000002,55.21596246,97.7466348
4.55,455,1.196,-0.419,0.875,144.44271179999996,61.592985,-170.455005,126.27421362,56.24728686,100.37651202
4.56,456,1.045,-0.34600000000000003,0.772,134.5878342,59.24385720000001,-174.9240774,129.98698146,57.2385042,103.19546538
4.57,457,1.028,-0.22699999999999998,0.861,136.82237039999998,65.14532460000001,-180.8828406,134.03779451999998,58.12085952,106.35819354
4.58,458,0.937,-0.094,0.828,119.5763346,73.5678072,-186.497829,138.24903582000002,58.85997533999999,109.88761482
4.59,459,0.884,0.013000000000000001,0.65,111.153852,87.1469118,-193.0295502,142.7524857,59.38709670000001,113.83529543999998
4.6,460,0.93,0.153,0.605,101.0124954,101.0697912,-201.33744119999997,147.53095542,59.69076444,118.20696498
4.61,461,1.018,0.256,0.691,99.1790298,109.721457,-203.973048,152.4354759,59.73660108,122.73906276
4.62,462,1.107,0.166,0.779,104.564835,115.04996640000002,-199.1602008,157.3342668,59.52460662,127.20813516
4.63,463,1.042,0.04,0.7829999999999999,95.8558734,118.7168976,-187.4718576,161.88928289999996,59.04905147999999,131.39072856
4.64,464,1.0190000000000001,-0.062,0.8490000000000001,80.21412,121.2379128,-178.18993799999996,165.99166218,58.36150188000001,135.25819506
4.6499999999999995,465,0.996,-0.28,0.802,63.02538000000001,109.7787528,-170.7987798,169.58983842,57.63957480000001,138.77615717999998
4.66,466,0.983,-0.254,0.732,37.013086799999996,87.37609499999998,-164.8973124,172.65516372,57.02650974,141.98472198
4.67,467,0.893,-0.198,0.619,36.955791,78.6671334,-154.18299779999995,175.42828043999995,56.40198552,144.87243030000005
4.68,468,0.8270000000000001,-0.013999999999999999,0.552,42.2270046,75.51586440000001,-134.70242580000001,177.86908152,55.72589508000001,147.31323138
4.6899999999999995,469,0.73,0.354,0.613,52.82672760000001,77.5785132,-128.9728458,-179.75411334,54.96959052,149.55922674
4.7,470,0.731,0.39,0.727,52.5975444,77.17744259999998,-119.6336304,-177.58260252,54.16171974,151.57030932
4.71,471,0.741,0.316,0.728,47.8992888,83.4226848,-106.3983006,-175.76059607999997,53.27363484,153.23761710000005
4.72,472,0.718,0.34700000000000003,0.695,37.299565799999996,80.7297822,-95.4548028,-174.2651757,52.39127952,154.65282336
4.7299999999999995,473,0.698,0.377,0.547,30.882436199999997,70.8176088,-88.5793068,-172.97029062,51.58913832,155.91906054
4.74,474,0.7340000000000001,0.445,0.41,37.81522800000001,67.1506776,-86.45936219999999,-171.66394638,50.81564502,157.11081317999995
4.75,475,0.67,0.502,0.473,48.0138804,69.6716928,-77.80769640000003,-170.36906130000003,50.00777424,158.14786716
4.76,476,0.654,0.613,0.5429999999999999,52.712136,72.30729960000002,-73.85428619999998,-169.16584949999995,49.17125556000001,159.04168164
4.77,477,0.628,0.57,0.657,50.0765292,74.82831479999999,-68.35388940000001,-168.09441804,48.30608897999999,159.80371578
4.78,478,0.61,0.583,0.789,42.742666799999995,76.1461182,-61.4783934,-167.21206272,47.43519282,160.42251042
4.79,479,0.701,0.48700000000000004,0.795,33.9764094,71.1613836,-51.852699,-166.5302427,46.63305162,160.89806556000005
4.8,480,0.6459999999999999,0.58,0.789,22.2880662,60.10329419999999,-40.1643558,-166.03176924000005,45.9512316,161.2590291
4.81,481,0.6970000000000001,0.444,0.736,13.980175199999998,48.4722468,-28.6479,-165.74529024,45.41838066,161.47102356
4.82,482,0.638,0.48700000000000004,0.735,4.010706000000001,43.602103799999995,-16.615782,-165.67080570000005,44.96001426,161.52831936
4.83,483,0.627,0.426,0.716,-2.5210152000000003,38.27359439999999,-7.5630456000000015,-165.73383108,44.58186198,161.48821230000001
4.84,484,0.625,0.401,0.706,-12.891555,38.38818600000001,-0.572958,-165.96301428,44.21516886,161.35070238
4.85,485,0.608,0.41600000000000004,0.723,-19.365980399999998,42.7999626,3.6096353999999997,-166.26095244,43.8026391,161.1730854
4.86,486,0.621,0.385,0.755,-21.886995600000002,47.67010560000001,6.3598338,-166.66775262,43.36146144,160.91525430000004
4.87,487,0.634,0.33899999999999997,0.75,-23.835052800000003,47.9565846,9.1100322,-167.11465986000005,42.92601336,160.6287753
4.88,488,0.625,0.32,0.742,-24.8663772,44.690723999999996,11.5164558,-167.57875584,42.52494276,160.32510756
4.89,489,0.617,0.282,0.728,-23.5485738,39.0757356,14.5531332,-168.03712223999997,42.18689754,160.00998066
4.8999999999999995,490,0.61,0.253,0.7170000000000001,-22.6891368,32.0283522,17.8189938,-168.47257032,41.91187770000001,159.68912418
4.91,491,0.611,0.23600000000000002,0.726,-20.626488000000002,26.5852512,21.485925,-168.92520714,41.69988324,159.32816064
4.92,492,0.609,0.23199999999999998,0.75,-17.6471064,24.1788276,23.14750320000001,-169.35492563999995,41.5108071,158.95573794
4.93,493,0.612,0.215,0.778,-15.928232399999999,23.3766864,24.1788276,-169.77318498,41.33319012,158.57758566
4.9399999999999995,494,0.616,0.20600000000000002,0.813,-15.5844576,25.2674478,23.4339822,-170.17998516,41.12692524,158.19943338000004
4.95,495,0.622,0.214,0.816,-13.980175199999998,27.903054600000004,21.886995600000002,-170.54667827999995,40.8805533,157.849929
4.96,496,0.622,0.172,0.8340000000000001,-15.928232399999999,26.5852512,18.7357266,-170.91337140000005,40.65709968,157.54053168
4.97,497,0.63,0.183,0.8340000000000001,-15.011499599999999,25.496631,16.673077799999998,-171.24568704,40.43364606,157.26551184
4.9799999999999995,498,0.61,0.2,0.805,-13.521808800000002,20.912967000000002,14.5531332,-171.54362519999995,40.25602908,157.03059906
4.99,499,0.596,0.20199999999999999,0.7859999999999999,-13.2353298,15.928232399999999,13.178034,-171.81291546,40.11851916,156.82433418
5.0,500,0.6,0.215,0.7759999999999999,-13.120738199999998,13.8655836,12.032118,-172.02490992,39.9924684,156.66390594
5.01,501,0.599,0.20199999999999999,0.763,-12.7196676,12.891555,12.0894138,-172.27128186,39.88360638,156.48055938
5.02,502,0.605,0.203,0.77,-11.9748222,12.5477802,12.3758928,-172.51192422000003,39.78047393999999,156.29148324
5.03,503,0.606,0.205,0.792,-11.401864199999999,13.0634424,11.745639,-172.74683699999997,39.66588234,156.11386626
5.04,504,0.61,0.212,0.83,-11.3445684,15.126091199999998,11.45916,-172.97602020000005,39.534102,155.93624928000003
5.05,505,0.617,0.19899999999999998,0.8490000000000001,-12.7196676,17.8762896,11.6310474,-173.19374424,39.35648502,155.77009146
5.06,506,0.628,0.195,0.86,-14.5531332,16.7303736,11.0007936,-173.45157534,39.20751594,155.59820406
5.07,507,0.635,0.19399999999999998,0.8740000000000001,-14.0947668,13.6936962,10.3705398,-173.69794728,39.08719476,155.43777582
5.08,508,0.636,0.204,0.883,-13.750992000000002,10.1986524,10.1986524,-173.93286006,39.00125106,155.28880674
5.09,509,0.635,0.205,0.885,-12.834259199999998,7.448453999999999,10.828906199999999,-174.16204326,38.93822568,155.13983766
5.1,510,0.66,0.20800000000000002,0.887,-13.521808800000002,6.2452422,12.1467096,-174.35684898,38.88092988,155.00232774
5.11,511,0.657,0.252,0.893,-11.688343199999998,4.1252976000000015,14.5531332,-174.59749133999995,38.85228198,154.80752202
5.12,512,0.64,0.177,0.885,-10.313244000000001,1.6042823999999998,19.480572,-174.86105202,38.85801156,154.55542050000003
5.13,513,0.636,0.204,0.887,-7.6203414,-4.3544808,20.05353,-175.09023522,38.92103694,154.30331898
5.14,514,0.638,0.231,0.8909999999999999,-3.0939732,-9.6256944,23.7204612,-175.30222968,39.03562854,154.01683998
5.1499999999999995,515,0.64,0.233,0.89,1.3750992,-13.8655836,27.6738714,-175.45692834000005,39.17886804,153.70744266000003
5.16,516,0.638,0.233,0.893,4.6982555999999995,-17.4179232,31.6845774,-175.64600448,39.37940334,153.32356080000002
5.17,517,0.657,0.221,0.8859999999999999,6.0733548,-21.829699800000004,35.46610020000001,-175.85226935999995,39.62004570000001,152.89957188
5.18,518,0.61,0.191,0.857,17.0741484,-25.152856200000002,37.9298196,-175.96686096000005,39.88933596,152.44693506
5.1899999999999995,519,0.629,0.2,0.8490000000000001,19.7097552,-29.220858000000003,38.7892566,-176.05853424000003,40.20446286,151.98283908000005
5.2,520,0.627,0.21899999999999997,0.8590000000000001,26.356068,-31.79916900000001,40.90920120000001,-176.08145256,40.5367785,151.50155436
5.21,521,0.629,0.20600000000000002,0.853,31.1689152,-34.3201842,42.91455420000001,-176.09864130000003,40.89774204,150.98589216
5.22,522,0.622,0.21,0.85,37.3568616,-37.52874900000001,44.51883660000001,-176.06426382,41.29308306,150.45304122
5.2299999999999995,523,0.622,0.19699999999999998,0.8390000000000001,38.0444112,-42.1697088,45.4928652,-176.02988634,41.7399903,149.90873112000003
5.24,524,0.639,0.184,0.8270000000000001,45.0917946,-47.8992888,46.7533728,-175.93821306,42.23846376,149.35296186
5.25,525,0.633,0.158,0.8220000000000001,46.8679644,-53.11320660000001,47.6128098,-175.82935103999995,42.78277386,148.79146302
5.26,526,0.648,0.172,0.816,43.1437374,-56.264475600000004,47.555514,-175.76632566,43.36719102,148.22996418
5.27,527,0.662,0.172,0.78,43.7166954,-59.014674,46.925260200000004,-175.6975707,43.98025608,147.67419492000005
5.28,528,0.667,0.166,0.79,46.123119,-60.8481396,47.7274014,-175.61735658,44.61050988,147.10123692
5.29,529,0.6509999999999999,0.122,0.8059999999999999,44.175061799999995,-57.754166399999995,47.9565846,-175.57151994,45.21211578,146.52254934
5.3,530,0.6579999999999999,0.14800000000000002,0.789,36.8411994,-52.8840234,46.466893799999994,-175.58870868000002,45.75642588,145.95532092000005
5.31,531,0.6629999999999999,0.162,0.738,33.2888598,-52.19647379999999,46.2377106,-175.65746364,46.30073598,145.37663334
5.32,532,0.66,0.12300000000000001,0.705,30.882436199999997,-55.6915176,46.00852740000001,-175.7548665,46.879423560000006,144.79794576
5.33,533,0.6809999999999999,0.138,0.672,23.9496444,-60.5616606,45.0917946,-175.92102432,47.50394778,144.23071733999996
5.34,534,0.701,0.15,0.6679999999999999,24.1788276,-64.11400019999999,45.607456799999994,-176.09291172000005,48.16857906,143.65202976
5.35,535,0.71,0.146,0.664,24.4653066,-67.1506776,44.34694920000001,-176.24188080000005,48.85612866,143.09626050000003
5.36,536,0.72,0.147,0.648,26.4706596,-66.4058322,43.1437374,-176.38512029999995,49.5322191,142.54049124
5.37,537,0.7240000000000001,0.129,0.636,26.814434400000003,-64.3431834,42.34159620000001,-176.53408938,50.1911208,141.9789924
5.38,538,0.7240000000000001,0.12300000000000001,0.632,25.7258142,-58.2125328,41.76863820000001,-176.70597678,50.78699712000001,141.41176398
5.39,539,0.7290000000000001,0.115,0.634,24.1788276,-48.8733174,41.1383844,-176.9007825,51.29120016,140.82734682
5.3999999999999995,540,0.743,0.109,0.623,22.4599536,-39.1330314,39.820581,-177.11277696,51.69227076,140.25438881999997
5.41,541,0.736,0.11,0.609,20.912967000000002,-34.1482968,37.9298196,-177.33623058,52.04750471999999,139.69288998
5.42,542,0.758,0.095,0.608,22.9756158,-32.085648000000006,36.7266078,-177.53676588000005,52.37982036,139.13712071999998
5.43,543,0.7809999999999999,0.084,0.614,24.2361234,-32.0283522,33.002380800000005,-177.68573496000005,52.70640641999999,138.63864726
5.4399999999999995,544,0.7959999999999999,0.084,0.62,26.0122932,-32.8877892,28.5906042,-177.7602195,53.03872206,138.20319918
5.45,545,0.81,0.076,0.603,26.4706596,-34.5493674,24.2934192,-177.7602195,53.38822644,137.8536948
5.46,546,0.8079999999999999,0.062,0.585,26.9863218,-35.9244666,20.7983754,-177.72584202,53.74918998,137.55002706
5.47,547,0.815,0.059000000000000004,0.579,25.7258142,-35.9817624,16.2147114,-177.64562790000005,54.10442393999999,137.32084386
5.4799999999999995,548,0.812,0.068,0.5820000000000001,24.5798982,-36.32553720000001,12.0894138,-177.51957714,54.46538748,137.16041562
5.49,549,0.812,0.076,0.574,26.1268848,-37.1276784,8.479778399999999,-177.330501,54.83208060000001,137.06301276
5.5,550,0.8029999999999999,0.064,0.565,28.877083199999998,-37.41415739999999,5.1566220000000005,-177.04975158,55.20450329999999,137.03436486
5.51,551,0.7879999999999999,0.062,0.5489999999999999,27.4446882,-37.1276784,1.3750992,-176.74035426,55.56546684,137.06874234
5.52,552,0.784,0.08,0.529,25.382039399999996,-36.32553720000001,-1.0313244000000001,-176.4137682,55.92070079999999,137.14895646
5.53,553,0.7859999999999999,0.086,0.523,25.0955604,-34.5493674,-2.6929026,-176.06426382,56.25874602,137.2520889
5.54,554,0.784,0.095,0.515,23.9496444,-32.257535399999995,-4.010706000000001,-175.70330028,56.56814333999999,137.38386924000002
5.55,555,0.782,0.1,0.517,22.4026578,-29.163562199999998,-5.443101,-175.31941842,56.84889276,137.56148622
5.56,556,0.789,0.10099999999999999,0.529,20.9702628,-26.1841806,-6.990087599999999,-174.94699572,57.0952647,137.74483278
5.57,557,0.7979999999999999,0.099,0.5429999999999999,18.621135,-23.0329116,-8.9381448,-174.57457302,57.31298874,137.96255682
5.58,558,0.812,0.106,0.56,16.902261,-20.5118964,-10.886202,-174.19069116,57.50206488,138.20892876
5.59,559,0.825,0.11,0.58,15.068795399999999,-17.9335854,-13.8082878,-173.77816140000004,57.66249312,138.5125965
5.6,560,0.8340000000000001,0.11599999999999999,0.586,13.2353298,-16.157415599999997,-16.501190400000002,-173.32552458,57.78281430000001,138.87928962
5.61,561,0.8370000000000001,0.121,0.579,11.45916,-15.469866,-18.7357266,-172.87288776,57.91459464,139.26890106
5.62,562,0.831,0.13,0.563,9.568398599999998,-16.386598799999998,-20.912967000000002,-172.4030622,58.04637498,139.71007872
5.63,563,0.828,0.134,0.551,8.193299399999999,-17.8762896,-22.4026578,-171.9160479,58.1838849,140.17990428000002
5.64,564,0.8270000000000001,0.147,0.539,6.875496000000001,-19.136797199999997,-23.777757,-171.41184486000003,58.33858356,140.6898369
5.6499999999999995,565,0.825,0.14400000000000002,0.529,5.844171599999999,-19.8243468,-24.4653066,-170.86753475999996,58.48182306,141.24560616000005
5.66,566,0.8270000000000001,0.156,0.525,4.1252976000000015,-20.2254174,-24.7517856,-170.36333172000005,58.64225129999999,141.78418668
5.67,567,0.836,0.168,0.526,2.9220858,-20.2827132,-24.522602399999997,-169.87058784,58.79122037999999,142.3227672
5.68,568,0.8420000000000001,0.18600000000000005,0.528,2.4064236,-20.168121600000006,-23.5485738,-169.39503269999997,58.94591904,142.84988856
5.6899999999999995,569,0.8390000000000001,0.201,0.526,3.1512689999999997,-19.8816426,-21.829699800000004,-168.93093672,59.09488811999999,143.34263244000005
5.7,570,0.83,0.204,0.526,3.5523396000000003,-19.079501399999998,-20.3973048,-168.43246326,59.22666846,143.85829464
5.71,571,0.83,0.21,0.519,3.0366774,-18.048177,-18.7357266,-168.02566308000004,59.3584488,144.29947230000005
5.72,572,0.8170000000000001,0.231,0.513,2.3491277999999998,-15.9855282,-17.18874,-167.65324038,59.47876998,144.70054290000004
5.7299999999999995,573,0.8220000000000001,0.231,0.516,2.5210152000000003,-13.8655836,-15.3552744,-167.31519516,59.57617283999999,145.06150644000004
5.74,574,0.8270000000000001,0.24100000000000002,0.52,2.4637194,-12.032118,-13.6936962,-167.01152742000005,59.66211654,145.38236292
5.75,575,0.833,0.249,0.529,3.0366774,-9.7975818,-12.0894138,-166.59899766,59.69076444,145.77197436
5.76,576,0.8290000000000001,0.257,0.527,3.1512689999999997,-8.9381448,-10.1413566,-166.3583553,59.74806024000001,146.01261672
5.77,577,0.8290000000000001,0.258,0.52,3.8961144,-9.224623800000002,-8.193299399999999,-166.14063126000005,59.81681519999999,146.21888159999997
5.78,578,0.833,0.259,0.516,4.2398892,-10.084060800000001,-6.417129599999999,-165.94582554000004,59.89702932,146.39649858
5.79,579,0.835,0.259,0.516,4.4690724,-10.1413566,-4.4117766,-165.77393813999996,59.98297302,146.5340085
5.8,580,0.8370000000000001,0.256,0.517,5.0993262,-9.6256944,-2.4064236,-165.46454082,60.0173505,146.77465086
5.81,581,0.845,0.244,0.52,5.2712136,-8.7089616,-0.2291832000000001,-165.36140838,60.10329420000001,146.82621708000005
5.82,582,0.852,0.23800000000000002,0.525,4.2398892,-8.193299399999999,1.7761698000000001,-165.30984216,60.18350832,146.83767624
5.83,583,0.8540000000000001,0.245,0.527,3.0939732,-7.7922288,3.6096353999999997,-165.298383,60.26372244,146.81475791999995
5.84,584,0.852,0.244,0.521,3.2085647999999996,-7.906820400000001,5.1566220000000005,-165.31557174000002,60.35539572,146.75746212
5.85,585,0.848,0.23600000000000002,0.512,3.380452200000001,-8.193299399999999,6.6463128000000005,-165.21243930000003,60.41269152,146.78611002
5.86,586,0.8420000000000001,0.231,0.5,3.380452200000001,-8.307891,7.9641161999999985,-165.27546468,60.51009438,146.67724800000005
5.87,587,0.838,0.225,0.495,3.6669312000000014,-7.8495246,8.880849000000003,-165.34421964,60.60749724,146.54546766
5.88,588,0.84,0.218,0.496,3.4950437999999995,-7.0473834,9.3392154,-165.43589292,60.69917052,146.40795774
5.89,589,0.843,0.214,0.499,3.2085647999999996,-6.130650599999999,9.568398599999998,-165.53329577999997,60.77938464,146.25325908
5.8999999999999995,590,0.847,0.207,0.501,2.9793816000000004,-5.3858052,9.682990199999999,-165.52756619999997,60.8194917,146.18450412
5.91,591,0.85,0.20199999999999999,0.505,2.4064236,-4.8128472,9.682990199999999,-165.64788738,60.88824666000001,146.01834630000005
5.92,592,0.8490000000000001,0.19899999999999998,0.508,2.0626488000000003,-4.6409598,9.5111028,-165.76820856,60.95700161999999,145.85791806
5.93,593,0.848,0.19699999999999998,0.508,1.7188740000000002,-4.6982555999999995,9.0527364,-165.88280016000004,61.020027000000006,145.70321940000005
5.9399999999999995,594,0.8490000000000001,0.192,0.507,1.6042823999999998,-4.7555514,8.3651868,-165.99166218,61.08878196000001,145.5599799
5.95,595,0.85,0.187,0.509,1.3750992,-4.6982555999999995,7.6776372,-165.96301428,61.10024112,145.53133200000005
5.96,596,0.852,0.185,0.504,1.0886202,-4.4117766,6.875496000000001,-166.04895798,61.15753692,145.42246998000005
5.97,597,0.852,0.185,0.501,0.8021411999999999,-4.1252976000000015,6.1879464,-166.12917209999995,61.21483271999999,145.31933754
5.9799999999999995,598,0.85,0.18100000000000002,0.496,0.40107059999999994,-3.7815228,5.5576926,-166.20365664,61.26639894,145.22766426
5.99,599,0.847,0.182,0.491,-0.40107059999999994,-3.4377480000000005,4.7555514,-166.27814118,61.30650599999999,145.15317972
6.0,600,0.8490000000000001,0.183,0.49,-0.6302538000000001,-3.2085647999999996,4.2398892,-166.12344252,61.2778581,145.26204174000003
6.01,601,0.848,0.183,0.491,-0.9740286,-2.8074942000000003,3.8388186,-166.19219748,61.31223558000001,145.19901636
6.02,602,0.846,0.183,0.488,-1.2032118,-2.2345362,3.6096353999999997,-166.25522286,61.34661306,145.13599098
6.03,603,0.846,0.18,0.486,-1.2032118,-1.6615782,3.2085647999999996,-166.31824824,61.36953138,145.07869518
6.04,604,0.847,0.17800000000000002,0.488,-1.4896908000000002,-1.0313244000000001,2.9220858,-166.38127362,61.38672012000001,145.02712896
6.05,605,0.848,0.177,0.49,-1.7761698000000001,-0.4583664000000001,2.4637194,-166.1005242,61.2778581,145.25631216
6.06,606,0.85,0.17800000000000002,0.4970000000000001,-1.9480572,-0.2291832000000001,1.7761698000000001,-166.14636084,61.28358768,145.22193468
6.07,607,0.851,0.177,0.502,-1.7761698000000001,0.40107059999999994,0.9167328000000001,-166.1864679,61.28358768,145.19901636
6.08,608,0.852,0.18,0.502,-1.6615782,0.9740286,0.11459160000000004,-166.20938622,61.27212852,145.19328678000005
6.09,609,0.852,0.18,0.498,-1.3750992,1.4896908000000002,-0.5156622000000001,-166.22084538,61.26066936,145.19328678000005
6.1,610,0.852,0.18100000000000002,0.496,-0.8594370000000001,1.7761698000000001,-1.0313244000000001,-165.82550436,61.10597070000001,145.53133200000005
6.11,611,0.8540000000000001,0.18100000000000002,0.4970000000000001,-0.286479,2.0053530000000004,-1.6042823999999998,-165.80831562,61.08305237999999,145.54852074
6.12,612,0.853,0.183,0.499,0.057295800000000015,2.5210152000000003,-2.1772404,-165.78539730000003,61.05440448,145.58289822
6.13,613,0.853,0.185,0.506,0.5156622000000001,3.2085647999999996,-2.6929026,-165.74529024,61.01429741999999,145.6172757
6.14,614,0.8540000000000001,0.18600000000000005,0.513,0.9167328000000001,3.7815228,-3.1512689999999997,-165.69945360000003,60.96846078,145.65738276
6.15,615,0.8540000000000001,0.187,0.52,1.432395,4.0680017999999984,-3.4950437999999995,-165.4989183,60.84241002,145.82354058
6.16,616,0.8540000000000001,0.187,0.53,1.2032118,3.6669312000000014,-3.7242269999999995,-165.44162250000005,60.79657338000001,145.87510680000003
6.17,617,0.851,0.187,0.532,0.6302538000000001,2.6929026,-3.8961144,-165.3843267,60.76219590000001,145.9324026
6.18,618,0.85,0.192,0.536,0.40107059999999994,1.4896908000000002,-3.8961144,-165.32130132,60.73927758000001,146.00115756
6.1899999999999995,619,0.852,0.19399999999999998,0.535,0.0,0.5156622000000001,-4.010706000000001,-165.25254636,60.72208884000001,146.08137168
6.2,620,0.8540000000000001,0.19399999999999998,0.534,-0.3437748,-0.11459160000000004,-4.1252976000000015,-164.93168988,60.55593102,146.35639152000005
6.21,621,0.856,0.196,0.536,-0.5156622000000001,-0.7448454000000001,-4.2398892,-164.86293492,60.55593102,146.44233522
6.22,622,0.8590000000000001,0.2,0.534,-0.3437748,-1.3750992,-4.4690724,-164.78272080000005,60.55593102,146.53973808
6.2299999999999995,623,0.8590000000000001,0.204,0.531,0.0,-2.5783110000000002,-4.4117766,-164.69677710000005,60.56739018,146.64287052
6.24,624,0.856,0.20800000000000002,0.528,0.2291832000000001,-3.4950437999999995,-4.0680017999999984,-164.60510382,60.59030849999999,146.74027338000005
6.25,625,0.8540000000000001,0.21,0.523,0.4583664000000001,-3.8961144,-3.4377480000000005,-164.31289524000005,60.52728312000001,146.99810448
6.26,626,0.853,0.213,0.516,0.8594370000000001,-4.1825934,-2.5783110000000002,-164.23841069999997,60.55593102,147.07258902
6.27,627,0.848,0.21100000000000002,0.512,1.0886202,-4.010706000000001,-1.7188740000000002,-164.17538532,60.59030849999999,147.12988481999997
6.28,628,0.847,0.207,0.505,1.2605076000000002,-3.7815228,-0.8021411999999999,-164.12954868,60.62468598,147.16999188
6.29,629,0.846,0.204,0.503,1.0886202,-3.8388186,-0.057295800000000015,-164.09517119999995,60.65906345999999,147.19863977999995
6.3,630,0.8440000000000001,0.205,0.508,0.7448454000000001,-3.8961144,0.572958,-163.79150346,60.57311976,147.43355256
6.31,631,0.845,0.203,0.507,0.9740286,-3.5523396000000003,1.3178034,-163.78577388,60.60749724,147.42782298000003
6.32,632,0.848,0.19699999999999998,0.509,1.0886202,-3.0939732,2.0053530000000004,-163.79150346,60.6476043,147.41063424
6.33,633,0.852,0.191,0.515,0.3437748,-2.7501984,2.5210152000000003,-163.81442178,60.6762522,147.37625676
6.34,634,0.855,0.193,0.518,-0.40107059999999994,-2.6929026,2.6356068,-163.84879926000005,60.71062968,147.34187928
6.35,635,0.858,0.195,0.525,-0.40107059999999994,-2.9793816000000004,2.5210152000000003,-163.70555976,60.62468598,147.4507413
6.36,636,0.857,0.195,0.524,0.0,-3.2658606,2.4064236,-163.72847808,60.66479303999999,147.42209340000005
6.37,637,0.855,0.191,0.518,0.5156622000000001,-3.6669312000000014,2.4064236,-163.73993724,60.70490010000001,147.39917508
6.38,638,0.852,0.19,0.514,0.8021411999999999,-4.2398892,2.3491277999999998,-163.7513964,60.75073674,147.37625676
6.39,639,0.8490000000000001,0.188,0.514,0.6875496,-5.042030400000002,2.1772404,-163.7513964,60.80803254,147.3647976
6.4,640,0.8490000000000001,0.187,0.513,0.572958,-5.5003968,1.8907614,-163.62534564,60.78511422,147.45647088
6.41,641,0.852,0.187,0.512,0.5156622000000001,-5.6149884000000005,1.7188740000000002,-163.61388648,60.84241002,147.46220046
6.42,642,0.8540000000000001,0.187,0.51,0.6875496,-5.443101,1.432395,-163.60242732,60.89970582,147.46793004
6.43,643,0.857,0.188,0.51,0.8021411999999999,-5.3285094000000015,1.2032118,-163.58523857999995,60.951272040000006,147.4793892
6.4399999999999995,644,0.857,0.188,0.51,1.0313244000000001,-5.3858052,0.9740286,-163.56232026,61.00283826,147.49084836
6.45,645,0.857,0.187,0.508,1.145916,-5.5003968,0.7448454000000001,-163.4076216,60.97991994,147.60543996
6.46,646,0.857,0.18600000000000005,0.507,1.3750992,-5.6722842,0.5156622000000001,-163.36751454,61.03148616,147.63408786
6.47,647,0.857,0.187,0.505,1.6615782,-5.958763200000001,0.2291832000000001,-163.3216779,61.08878196000001,147.66846533999995
6.4799999999999995,648,0.856,0.18600000000000005,0.505,2.0626488000000003,-6.0160589999999985,0.0,-163.2643821,61.14607776,147.7085724
6.49,649,0.855,0.185,0.506,2.2345362,-5.958763200000001,-0.11459160000000004,-163.20708630000001,61.20337356,147.74867946
6.5,650,0.855,0.185,0.505,2.3491277999999998,-5.9014674000000005,-0.4583664000000001,-163.04092848,61.18618482000001,147.87473022
6.51,651,0.856,0.18600000000000005,0.504,2.291832,-5.72958,-0.6875496,-162.96644394,61.23775104,147.92629644000004
6.52,652,0.858,0.18600000000000005,0.504,2.3491277999999998,-5.6722842,-0.9740286,-162.8919594,61.28931726,147.98359224
6.53,653,0.856,0.187,0.501,2.3491277999999998,-5.5003968,-1.3178034,-162.81174528,61.3351539,148.04661761999995
6.54,654,0.853,0.188,0.496,2.3491277999999998,-5.042030400000002,-1.432395,-162.73153116,61.38099053999999,148.109643
6.55,655,0.852,0.18600000000000005,0.494,2.291832,-4.9274388,-1.5469866,-162.55391418,61.35807222,148.2528825
6.56,656,0.852,0.185,0.495,1.9480572,-4.6982555999999995,-1.6615782,-162.47942964,61.39817928,148.31590788
6.57,657,0.855,0.18600000000000005,0.499,1.7188740000000002,-4.4690724,-1.8334656000000005,-162.39921552,61.43255676,148.38466283999998
6.58,658,0.856,0.188,0.501,1.6615782,-4.3544808,-1.9480572,-162.32473098,61.46693424,148.4534178
6.59,659,0.858,0.191,0.502,1.6615782,-4.010706000000001,-2.0626488000000003,-162.24451686,61.50131172,148.52217276000005
6.6,660,0.857,0.192,0.498,1.7761698000000001,-4.010706000000001,-2.2345362,-162.05544072,61.45547508000001,148.67687142
6.61,661,0.857,0.191,0.498,1.7761698000000001,-4.010706000000001,-2.291832,-161.97522659999996,61.48985256,148.75135596
6.62,662,0.856,0.19,0.4970000000000001,1.8334656000000005,-4.1252976000000015,-2.291832,-161.88928289999996,61.51850046,148.8258405
6.63,663,0.857,0.191,0.495,1.7188740000000002,-3.9534102,-2.4637194,-161.80333919999995,61.54714836000001,148.90032504
6.64,664,0.856,0.192,0.494,1.5469866,-3.7242269999999995,-2.5783110000000002,-161.7173955,61.57579626,148.98053915999995
6.65,665,0.857,0.19399999999999998,0.495,1.432395,-3.4950437999999995,-2.5783110000000002,-161.52831936,61.52423004,149.13523782
6.66,666,0.858,0.195,0.495,1.2605076000000002,-3.3231564,-2.5783110000000002,-161.44810524,61.54714836000001,149.20972236
6.67,667,0.857,0.19699999999999998,0.493,1.2605076000000002,-3.1512689999999997,-2.4637194,-161.3736207,61.5643371,149.28420690000004
6.68,668,0.858,0.196,0.493,1.3178034,-2.9793816000000004,-2.3491277999999998,-161.29913616000005,61.58725542000001,149.35296186
6.6899999999999995,669,0.857,0.196,0.495,1.2032118,-2.7501984,-2.2345362,-161.22465161999997,61.60444416,149.41598724
6.7,670,0.856,0.19899999999999998,0.4970000000000001,0.9167328000000001,-2.6356068,-2.0053530000000004,-161.02411632,61.50704129999999,149.58214506
6.71,671,0.857,0.19899999999999998,0.5,0.7448454000000001,-2.2345362,-1.8334656000000005,-160.97255009999995,61.51850046,149.63944086
6.72,672,0.8540000000000001,0.19899999999999998,0.501,0.572958,-2.1772404,-1.4896908000000002,-160.92671346,61.5356892,149.68527749999996
6.7299999999999995,673,0.855,0.2,0.503,0.40107059999999994,-2.0626488000000003,-1.3178034,-160.88087682,61.55287794,149.72538456
6.74,674,0.856,0.20199999999999999,0.505,0.40107059999999994,-1.9480572,-1.0886202,-160.84649933999995,61.5643371,149.75976204
6.75,675,0.858,0.20199999999999999,0.504,0.4583664000000001,-1.7188740000000002,-0.9167328000000001,-160.6001274,61.38099053999999,149.95456776
6.76,676,0.858,0.203,0.5,0.3437748,-1.6042823999999998,-0.6302538000000001,-160.57720908,61.3924497,149.97748608
6.77,677,0.858,0.203,0.496,0.5156622000000001,-1.6615782,-0.2291832000000001,-160.55429076,61.40963844,149.99467482
6.78,678,0.8590000000000001,0.201,0.498,0.5156622000000001,-1.7761698000000001,0.11459160000000004,-160.53710202,61.42682718,150.00613398000004
6.79,679,0.861,0.201,0.5,0.40107059999999994,-1.7761698000000001,0.4583664000000001,-160.53137243999996,61.44401592000001,150.01186356
6.8,680,0.86,0.2,0.499,0.2291832000000001,-1.6615782,0.6302538000000001,-160.30218924000005,61.26639894,150.17802138
6.81,681,0.8640000000000001,0.198,0.496,0.286479,-1.432395,0.8021411999999999,-160.30791882,61.2778581,150.17802138
6.82,682,0.8640000000000001,0.19899999999999998,0.495,0.11459160000000004,-1.6042823999999998,0.9740286,-160.30791882,61.30077642,150.16656222
6.83,683,0.861,0.2,0.4970000000000001,-0.057295800000000015,-1.6615782,1.145916,-160.31937798,61.31796515999999,150.16083264
6.84,684,0.856,0.19699999999999998,0.496,0.286479,-1.3750992,1.2605076000000002,-160.33083714,61.3351539,150.14364389999997
6.85,685,0.858,0.19,0.493,0.572958,-1.0313244000000001,1.432395,-160.18759763999995,61.16899608,150.23531717999995
6.86,686,0.857,0.185,0.495,-0.1718874,-0.8021411999999999,1.3750992,-160.21051596,61.18045524,150.21239885999995
6.87,687,0.857,0.18899999999999997,0.499,-0.7448454000000001,-0.7448454000000001,1.145916,-160.22770469999998,61.1919144,150.19521012
6.88,688,0.857,0.191,0.503,-0.7448454000000001,-0.8021411999999999,0.8021411999999999,-160.24489344,61.20337356,150.18948054
6.89,689,0.855,0.19,0.502,-0.6875496,-0.6875496,0.572958,-160.26208218,61.21483271999999,150.17802138
6.9,690,0.8540000000000001,0.18899999999999997,0.494,-0.4583664000000001,-0.40107059999999994,0.40107059999999994,-159.92403696,60.81376212,150.42439332
6.91,691,0.855,0.188,0.491,-0.2291832000000001,-0.4583664000000001,0.2291832000000001,-159.92403696,60.8194917,150.42439332
6.92,692,0.8540000000000001,0.188,0.494,-0.1718874,-0.6875496,0.057295800000000015,-159.92403696,60.82522128,150.43012290000001
6.93,693,0.855,0.18899999999999997,0.4970000000000001,-0.1718874,-0.9167328000000001,-0.11459160000000004,-159.91830738000004,60.83095086000001,150.44158206000003
6.9399999999999995,694,0.857,0.19,0.5,-0.1718874,-1.0886202,-0.286479,-159.90684821999997,60.84241002,150.45304122
6.95,695,0.86,0.191,0.502,0.0,-0.9167328000000001,-0.4583664000000001,-159.71777208,60.59030849999999,150.59055114
6.96,696,0.862,0.192,0.501,0.286479,-0.6875496,-0.6302538000000001,-159.70058334,60.59603808000001,150.60773988
6.97,697,0.861,0.191,0.503,0.5156622000000001,-0.7448454000000001,-0.6302538000000001,-159.67766502,60.60176765999999,150.62492862000005
6.9799999999999995,698,0.862,0.191,0.506,0.7448454000000001,-0.9167328000000001,-0.7448454000000001,-159.64901712,60.60749724,150.64784694
6.99,699,0.861,0.191,0.506,0.7448454000000001,-1.0313244000000001,-0.8594370000000001,-159.62036922,60.61322682,150.67076526
7.0,700,0.8590000000000001,0.192,0.504,0.9740286,-1.145916,-0.8594370000000001,-159.51723678000005,60.49863522,150.75097938
7.01,701,0.8590000000000001,0.18899999999999997,0.502,0.9740286,-1.3750992,-0.8594370000000001,-159.4828593,60.51009438,150.7738977
7.02,702,0.858,0.18899999999999997,0.501,1.0886202,-1.432395,-0.9740286,-159.44275224,60.51582396,150.80827518
7.03,703,0.857,0.188,0.501,1.2605076000000002,-1.432395,-1.0313244000000001,-159.40264518,60.52728312000001,150.83692308
7.04,704,0.857,0.18899999999999997,0.503,1.3750992,-1.6042823999999998,-1.145916,-159.35680854,60.53874228000001,150.87130056
7.05,705,0.858,0.191,0.505,1.4896908000000002,-1.6615782,-1.2032118,-159.27086484,60.46425774000001,150.93432594
7.06,706,0.86,0.191,0.506,1.4896908000000002,-1.7188740000000002,-1.145916,-159.2250282,60.4757169,150.96870342
7.07,707,0.858,0.192,0.507,1.2605076000000002,-1.6615782,-1.0886202,-159.18492114,60.48717606,151.0030809
7.08,708,0.857,0.195,0.508,1.2605076000000002,-1.6042823999999998,-1.0313244000000001,-159.1390845,60.49863522,151.03745838
7.09,709,0.856,0.191,0.507,1.5469866,-1.8907614,-0.9740286,-159.09324786,60.51009438,151.06610628
7.1,710,0.8590000000000001,0.192,0.506,1.3178034,-2.0053530000000004,-1.0313244000000001,-159.03022248,60.44133942,151.1176725
7.11,711,0.861,0.192,0.509,1.2032118,-2.1772404,-1.2032118,-158.97865626,60.45852816,151.15204998
7.12,712,0.86,0.19399999999999998,0.507,1.3750992,-2.4637194,-1.2605076000000002,-158.92709004,60.4757169,151.19788662
7.13,713,0.8590000000000001,0.19399999999999998,0.507,1.4896908000000002,-2.8074942000000003,-1.3178034,-158.86979424,60.49863522,151.24372326
7.14,714,0.858,0.19399999999999998,0.503,1.4896908000000002,-2.86479,-1.2605076000000002,-158.81249843999996,60.51582396,151.29528948
7.15,715,0.857,0.19399999999999998,0.5,1.5469866,-2.9793816000000004,-1.2605076000000002,-158.73228432000005,60.48144648,151.35258528
7.16,716,0.855,0.193,0.5,1.5469866,-2.86479,-1.0886202,-158.67498852,60.50436480000001,151.39842191999998
7.17,717,0.858,0.192,0.501,1.3750992,-2.6929026,-1.2032118,-158.62342230000004,60.52155354,151.44425856
7.18,718,0.858,0.19399999999999998,0.499,1.2032118,-2.5783110000000002,-1.145916,-158.57185608,60.54447186,151.48436562
7.1899999999999995,719,0.858,0.195,0.5,1.0886202,-2.5210152000000003,-1.0886202,-158.52601944,60.5616606,151.52447268
7.2,720,0.8590000000000001,0.19699999999999998,0.501,1.145916,-2.5783110000000002,-1.0313244000000001,-158.44580532,60.51009438,151.58749806
7.21,721,0.857,0.19699999999999998,0.5,1.432395,-2.6929026,-0.8021411999999999,-158.39996868,60.53301269999999,151.62760512
7.22,722,0.855,0.196,0.499,1.4896908000000002,-2.5210152000000003,-0.6302538000000001,-158.35413204000002,60.55020144,151.65625302
7.2299999999999995,723,0.856,0.195,0.498,1.3750992,-2.291832,-0.5156622000000001,-158.31402498,60.56739018,151.68490092
7.24,724,0.857,0.195,0.499,1.3750992,-2.0626488000000003,-0.40107059999999994,-158.2796475,60.58457892,151.71354882
7.25,725,0.855,0.195,0.5,1.4896908000000002,-1.9480572,-0.3437748,-158.22808128,60.51009438,151.73646714
7.26,726,0.856,0.195,0.502,1.4896908000000002,-1.7761698000000001,-0.2291832000000001,-158.1937038,60.52155354,151.75365588
7.27,727,0.857,0.19399999999999998,0.502,1.3750992,-1.4896908000000002,-0.1718874,-158.1650559,60.53874228000001,151.77084462
7.28,728,0.858,0.193,0.502,1.432395,-1.4896908000000002,-0.2291832000000001,-158.13640800000005,60.55020144,151.78803336
7.29,729,0.858,0.19399999999999998,0.503,1.4896908000000002,-1.6615782,-0.2291832000000001,-158.1077601,60.5616606,151.80522209999995
7.3,730,0.8590000000000001,0.192,0.503,1.432395,-1.9480572,-0.2291832000000001,-158.07338262,60.48717606,151.81668126
7.31,731,0.858,0.193,0.504,1.2032118,-2.1199446,-0.40107059999999994,-158.03900514,60.50436480000001,151.84532915999995
7.32,732,0.8590000000000001,0.19399999999999998,0.502,1.2605076000000002,-2.3491277999999998,-0.40107059999999994,-157.99889808,60.52155354,151.87397706000004
7.33,733,0.86,0.195,0.502,1.3750992,-2.5210152000000003,-0.4583664000000001,-157.95879101999995,60.54447186,151.90262496
7.34,734,0.8590000000000001,0.195,0.504,1.4896908000000002,-2.6929026,-0.40107059999999994,-157.91868396,60.56739018,151.93127285999995
7.35,735,0.8590000000000001,0.196,0.508,1.432395,-2.9220858,-0.40107059999999994,-157.88430648000005,60.51009438,151.9484616
7.36,736,0.8590000000000001,0.19399999999999998,0.505,1.5469866,-2.86479,-0.40107059999999994,-157.83846984,60.53301269999999,151.97710949999995
7.37,737,0.86,0.19399999999999998,0.5,1.5469866,-2.86479,-0.4583664000000001,-157.79263319999995,60.55593102,152.01148698
7.38,738,0.86,0.196,0.501,1.0886202,-3.1512689999999997,-0.5156622000000001,-157.75252614,60.58457892,152.05159404
7.39,739,0.86,0.198,0.504,0.8021411999999999,-3.2085647999999996,-0.572958,-157.70668949999995,60.61322682,152.08597152
7.4,740,0.8590000000000001,0.19699999999999998,0.503,1.432395,-3.1512689999999997,-0.4583664000000001,-157.66658244,60.57311976,152.10888984
7.41,741,0.8590000000000001,0.19,0.5,1.7188740000000002,-2.9220858,-0.286479,-157.6207458,60.59603808000001,152.14326732
7.42,742,0.86,0.18899999999999997,0.499,0.9740286,-2.6356068,-0.40107059999999994,-157.58636832,60.6189564,152.17191522000005
7.43,743,0.86,0.192,0.499,0.572958,-2.4637194,-0.4583664000000001,-157.55199084,60.64187472,152.20056312
7.4399999999999995,744,0.855,0.193,0.502,0.5156622000000001,-2.86479,-0.5156622000000001,-157.51761335999996,60.66479303999999,152.23494060000004
7.45,745,0.858,0.192,0.499,0.6302538000000001,-2.9793816000000004,-0.5156622000000001,-157.49469503999995,60.62468598,152.25212934
7.46,746,0.855,0.193,0.4920000000000001,0.8594370000000001,-2.9220858,-0.4583664000000001,-157.45458798,60.6476043,152.28650682
7.47,747,0.858,0.193,0.488,0.9740286,-2.86479,-0.3437748,-157.4202105,60.67052262,152.31515471999995
7.4799999999999995,748,0.857,0.191,0.491,0.9167328000000001,-2.7501984,-0.4583664000000001,-157.38010344,60.69344094,152.3495322
7.49,749,0.856,0.195,0.494,0.8594370000000001,-2.5783110000000002,-0.4583664000000001,-157.33999638,60.71635926,152.37818009999995
7.5,750,0.856,0.19399999999999998,0.493,0.8594370000000001,-2.4064236,-0.6302538000000001,-157.30561889999996,60.65333388000001,152.40682800000005
7.51,751,0.858,0.196,0.495,0.9740286,-1.9480572,-0.6302538000000001,-157.27124142,60.66479303999999,152.4354759
7.52,752,0.8590000000000001,0.195,0.4970000000000001,1.2605076000000002,-1.7188740000000002,-0.572958,-157.23686394,60.68198178,152.45839422
7.53,753,0.857,0.195,0.498,1.432395,-1.6042823999999998,-0.5156622000000001,-157.19675688,60.69344094,152.48131254
7.54,754,0.86,0.19399999999999998,0.499,1.4896908000000002,-1.7188740000000002,-0.4583664000000001,-157.16237940000005,60.70490010000001,152.50423086
7.55,755,0.858,0.195,0.499,1.6042823999999998,-1.8907614,-0.286479,-157.14519066,60.63614514,152.50423086
7.56,756,0.8590000000000001,0.195,0.5,1.6615782,-2.0053530000000004,-0.2291832000000001,-157.11081317999995,60.65333388000001,152.52714917999995
7.57,757,0.8590000000000001,0.19399999999999998,0.498,1.5469866,-2.0626488000000003,-0.1718874,-157.0764357,60.67052262,152.54433792
7.58,758,0.86,0.191,0.495,1.7188740000000002,-2.0626488000000003,-0.1718874,-157.04205822,60.68771136,152.56725624
7.59,759,0.86,0.192,0.498,1.7188740000000002,-2.0053530000000004,-0.1718874,-157.00195116,60.70490010000001,152.59017456
7.6,760,0.8590000000000001,0.193,0.498,1.7188740000000002,-2.0626488000000003,-0.11459160000000004,-157.00195116,60.64187472,152.57298582
7.61,761,0.86,0.195,0.499,1.8334656000000005,-2.0626488000000003,-0.11459160000000004,-156.96184409999995,60.65906345999999,152.59017456
7.62,762,0.861,0.195,0.498,1.8907614,-2.0626488000000003,-0.057295800000000015,-156.92746662,60.6762522,152.61309288
7.63,763,0.861,0.195,0.496,1.8907614,-1.8334656000000005,0.0,-156.89308913999997,60.69344094,152.63028162
7.64,764,0.858,0.196,0.496,2.1199446,-1.8907614,0.0,-156.85871165999995,60.71062968,152.64747036
7.65,765,0.858,0.195,0.496,2.291832,-2.1199446,0.0,-156.84152292,60.65906345999999,152.64174078
7.66,766,0.86,0.19399999999999998,0.4970000000000001,2.291832,-2.2345362,-0.11459160000000004,-156.79568627999996,60.68198178,152.65892952
7.67,767,0.861,0.195,0.499,2.2345362,-2.3491277999999998,-0.1718874,-156.74984964,60.69917052,152.68184784
7.68,768,0.861,0.19399999999999998,0.5,2.3491277999999998,-2.3491277999999998,-0.2291832000000001,-156.70401299999997,60.72208884000001,152.71049574
7.6899999999999995,769,0.86,0.196,0.498,2.4064236,-2.4064236,-0.2291832000000001,-156.65817636,60.73927758000001,152.73341406
7.7,770,0.8590000000000001,0.195,0.496,2.3491277999999998,-2.291832,-0.1718874,-156.64098761999998,60.69917052,152.73341406
7.71,771,0.8590000000000001,0.196,0.496,2.5210152000000003,-2.3491277999999998,-0.1718874,-156.58942140000005,60.72208884000001,152.75633238
7.72,772,0.858,0.195,0.496,2.6929026,-2.3491277999999998,-0.057295800000000015,-156.54358476,60.73927758000001,152.77925069999995
7.7299999999999995,773,0.8590000000000001,0.19399999999999998,0.498,2.5783110000000002,-2.3491277999999998,-0.057295800000000015,-156.49774812,60.76219590000001,152.80216902
7.74,774,0.8590000000000001,0.19399999999999998,0.499,2.4637194,-2.4064236,-0.1718874,-156.45191148,60.78511422,152.82508733999995
7.75,775,0.86,0.196,0.5,2.3491277999999998,-2.1772404,-0.1718874,-156.43472274,60.733548,152.81362818
7.76,776,0.86,0.196,0.499,2.4637194,-2.4064236,-0.2291832000000001,-156.3888861,60.75646632,152.84227607999995
7.77,777,0.861,0.196,0.5,2.4637194,-2.5783110000000002,-0.11459160000000004,-156.34304946,60.77365506,152.8651944
7.78,778,0.861,0.198,0.501,2.5210152000000003,-2.6356068,-0.11459160000000004,-156.29148324,60.79657338000001,152.89384230000005
7.79,779,0.86,0.19699999999999998,0.501,2.5210152000000003,-2.5783110000000002,0.0,-156.24564660000001,60.8194917,152.91676062
7.8,780,0.861,0.19699999999999998,0.502,2.5210152000000003,-2.6929026,0.11459160000000004,-156.23991701999995,60.77938464,152.89957188
7.81,781,0.86,0.19699999999999998,0.502,2.291832,-2.7501984,0.2291832000000001,-156.19408038,60.80803254,152.91676062
7.82,782,0.861,0.19399999999999998,0.502,2.1772404,-2.8074942000000003,0.286479,-156.15397332,60.83095086000001,152.93967894
7.83,783,0.861,0.195,0.499,1.9480572,-2.9220858,0.40107059999999994,-156.11959584000004,60.85959876,152.95686768000004
7.84,784,0.861,0.195,0.4970000000000001,1.8907614,-2.9793816000000004,0.3437748,-156.08521836,60.88824666000001,152.97405642
7.85,785,0.86,0.195,0.494,1.8907614,-3.1512689999999997,0.286479,-156.07948878,60.86532834,152.96259726
7.86,786,0.86,0.19399999999999998,0.49,1.8334656000000005,-2.9793816000000004,0.3437748,-156.03938172,60.89397623999999,152.98551558
7.87,787,0.858,0.19399999999999998,0.49,1.8907614,-3.1512689999999997,0.3437748,-156.00500424,60.92262414,153.00270432
7.88,788,0.858,0.195,0.493,1.8334656000000005,-3.2085647999999996,0.2291832000000001,-155.96489718,60.951272040000006,153.03135222
7.89,789,0.86,0.193,0.496,1.8334656000000005,-2.9220858,0.11459160000000004,-155.92479011999995,60.97991994,153.05427054
7.9,790,0.861,0.193,0.496,1.6615782,-2.6929026,0.11459160000000004,-155.94770844,60.92835372,153.01416348
7.91,791,0.858,0.195,0.4920000000000001,1.6615782,-2.4637194,0.0,-155.91333096,60.94554246,153.0370818
7.92,792,0.86,0.195,0.491,1.8907614,-2.5783110000000002,0.0,-155.8732239,60.96846078,153.06000011999996
7.93,793,0.8590000000000001,0.193,0.494,-0.11459160000000004,-0.286479,-0.057295800000000015,-155.86749432000005,60.97419036,153.0657297
7.94,794,0.858,0.192,0.495,-0.1718874,-0.4583664000000001,-0.057295800000000015,-155.86749432000005,60.97419036,153.07145928
7.95,795,0.858,0.19399999999999998,0.494,-0.3437748,-0.286479,-0.11459160000000004,-156.09094794,60.62468598,152.84800565999996
7.96,796,0.8590000000000001,0.19399999999999998,0.49,-0.4583664000000001,0.057295800000000015,-0.1718874,-156.09667752,60.6189564,152.85373524000005
7.97,797,0.86,0.195,0.49,-0.8594370000000001,0.2291832000000001,-0.11459160000000004,-156.1024071,60.6189564,152.85373524000005
7.9799999999999995,798,0.861,0.198,0.493,-1.145916,0.40107059999999994,-0.057295800000000015,-156.11959584000004,60.61322682,152.84800565999996
7.99,799,0.861,0.19699999999999998,0.493,-0.40107059999999994,0.6875496,0.057295800000000015,-156.131055,60.60749724,152.84227607999995
8.0,800,0.8640000000000001,0.191,0.4920000000000001,0.2291832000000001,0.8021411999999999,0.2291832000000001,-156.30867198,60.46998732000001,152.67038868
8.01,801,0.865,0.185,0.498,-0.4583664000000001,0.7448454000000001,0.2291832000000001,-156.32586071999995,60.46425774000001,152.65892952
8.02,802,0.8640000000000001,0.192,0.503,-1.3750992,0.7448454000000001,0.0,-156.34877904,60.45852816,152.65319994
8.03,803,0.866,0.196,0.509,-1.3178034,0.6875496,-0.1718874,-156.3602382,60.45279858,152.65319994
8.04,804,0.8640000000000001,0.198,0.502,-0.8021411999999999,0.5156622000000001,-0.3437748,-156.37169736,60.44706899999999,152.65319994
8.05,805,0.863,0.19699999999999998,0.493,-0.3437748,0.3437748,-0.3437748,-156.42899316,60.24080411999999,152.58444498
8.06,806,0.86,0.198,0.49,0.11459160000000004,0.057295800000000015,-0.11459160000000004,-156.42899316,60.23507453999999,152.59017456
8.07,807,0.86,0.19899999999999998,0.493,0.286479,-0.057295800000000015,-0.057295800000000015,-156.42326357999997,60.23507453999999,152.59017456
8.08,808,0.861,0.198,0.494,0.1718874,0.0,-0.11459160000000004,-156.41753400000005,60.23507453999999,152.59590414
8.09,809,0.863,0.2,0.493,0.2291832000000001,0.286479,0.0,-156.41753400000005,60.23507453999999,152.59017456
8.1,810,0.8640000000000001,0.2,0.494,0.40107059999999994,0.6875496,0.1718874,-156.46910022,60.12048294,152.53287876
8.11,811,0.865,0.201,0.4920000000000001,0.572958,1.0313244000000001,0.3437748,-156.4748298,60.10902378,152.51569002
8.12,812,0.8640000000000001,0.2,0.494,0.7448454000000001,1.2032118,0.572958,-156.48628896,60.10329420000001,152.4927717
8.13,813,0.863,0.19899999999999998,0.496,0.9167328000000001,1.3178034,0.7448454000000001,-156.49774812,60.09183504,152.46985338
8.14,814,0.862,0.19899999999999998,0.4920000000000001,0.9167328000000001,1.432395,0.9167328000000001,-156.51493686,60.08610546,152.4354759
8.15,815,0.8590000000000001,0.19399999999999998,0.491,0.8594370000000001,1.432395,1.0313244000000001,-156.5607735,60.02880966,152.38390968000004
8.16,816,0.858,0.195,0.49,0.7448454000000001,1.3178034,1.145916,-156.57796223999995,60.02308008,152.3495322
8.17,817,0.856,0.192,0.491,0.5156622000000001,1.2032118,1.2032118,-156.60088056,60.0173505,152.32088430000005
8.18,818,0.855,0.192,0.494,0.286479,0.9740286,1.145916,-156.62379887999995,60.01162092,152.28650682
