TimeStamp(s),FrameCounter,AccX,AccY,AccZ,GyrX,GyrY,GyrZ,EulerX,EulerY,EulerZ
0.01,1,-0.006,-1.022,-0.012,-0.9740286,1.145916,-0.6302538000000001,90.28099206,0.03437748,-34.2055926
0.02,2,-0.001,-1.018,-0.012,-0.6875496,0.6302538000000001,-0.8021411999999999,90.27526248,0.04010706,-34.19986302
0.03,3,0.004,-1.012,-0.01,-0.4010706,0.3437748,-0.8021411999999999,90.05753844,0.10886202,-34.17694470000001
0.04,4,0.006999999999999999,-1.002,-0.009000000000000001,-0.11459160000000004,0.4583664000000001,-0.4583664000000001,90.05753844,0.11459160000000004,-34.17694470000001
0.05,5,0.006999999999999999,-0.995,-0.008,0.0,0.8594370000000001,0.0,90.05753844,0.11459160000000004,-34.16548554000001
0.060000000000000005,6,0.006999999999999999,-0.992,-0.009000000000000001,0.0,1.0886202,0.3437748,90.05753844,0.11459160000000004,-34.15402638
0.06999999999999999,7,0.004,-0.991,-0.01,-0.2291832000000001,1.2032118,0.6302538000000001,90.05180886000002,0.10313244,-34.14256722
0.08,8,0.003,-0.993,-0.011,-0.4583664000000001,1.0313244,0.6875496,89.93148768,0.12032118,-34.12537848
0.09,9,0.002,-1.002,-0.014,-0.9167328,0.7448454000000001,0.572958,89.9257581,0.11459160000000004,-34.1196489
0.09999999999999999,10,-0.002,-1.015,-0.013,-1.432395,0.286479,0.3437748,89.90856936,0.11459160000000004,-34.113919319999994
0.11,11,-0.006,-1.026,-0.013,-1.3750992,0.0,0.0,89.8971102,0.11459160000000004,-34.113919319999994
0.12,12,-0.008,-1.032,-0.013,-0.9740286,-0.2291832000000001,-0.4583664000000001,89.88565104,0.12032118,-34.1196489
0.13,13,-0.003,-1.026,-0.011,-0.1718874,-0.5156622000000001,-0.8594370000000001,89.73668196000001,0.13178034,-34.1196489
0.14,14,0.0,-1.013,-0.006999999999999999,0.1718874,-0.5156622000000001,-1.0313244,89.73668196000001,0.14323950000000002,-34.12537848
0.15000000000000002,15,0.002,-1.001,-0.003,0.6875496,-0.4010706,-1.0313244,89.74814112,0.14896908,-34.131108059999995
0.16,16,0.0,-0.993,0.0,0.9167328,-0.1718874,-0.9740286,89.75387070000002,0.16042824,-34.131108059999995
0.17,17,0.0,-0.99,0.0,0.6875496,0.11459160000000004,-0.8021411999999999,89.75960028,0.1718874,-34.131108059999995
0.18000000000000002,18,0.001,-0.989,-0.002,0.11459160000000004,0.3437748,-0.572958,89.6392791,0.18907614,-34.12537848
0.19,19,0.003,-0.993,-0.008,-0.9167328,0.4010706,-0.4010706,89.63354952,0.19480572,-34.1196489
0.2,20,0.004,-1.002,-0.012,-2.0053530000000004,0.4583664000000001,0.0,89.6106312,0.19480572,-34.113919319999994
0.21000000000000002,21,0.004,-1.014,-0.018000000000000002,-3.4950437999999995,0.6875496,0.286479,89.57625372,0.18907614,-34.10818974
0.22,22,0.006,-1.02,-0.024,-4.297185,0.9740286,0.572958,89.53041707999998,0.18334656,-34.10246016
0.23,23,0.006,-1.021,-0.03,-4.583664,0.7448454000000001,0.8021411999999999,89.43301421999998,0.18907614,-34.091001
0.24000000000000002,24,0.006,-1.016,-0.031,-4.3544808,0.1718874,0.8594370000000001,89.38717758,0.17761697999999998,-34.091001
0.25,25,0.006999999999999999,-1.007,-0.03,-3.6096354,-0.4010706,0.8594370000000001,89.34707052,0.1718874,-34.091001
0.26,26,0.008,-1.0,-0.026,-2.8074942000000003,-1.0313244,0.7448454000000001,89.31842262,0.16042824,-34.10246016
0.27,27,0.01,-0.998,-0.024,-2.1199446,-1.6042823999999998,0.6302538000000001,89.30123388000001,0.15469866,-34.1196489
0.28,28,0.003,-1.0,-0.018000000000000002,-1.2032118,-1.9480572,0.286479,89.22101975999998,0.16042824,-34.13683764
0.29000000000000004,29,-0.001,-1.007,-0.013,-0.4010706,-2.3491278,-0.057295800000000015,89.22101975999998,0.16042824,-34.15975596
0.3,30,-0.008,-1.015,-0.006999999999999999,0.0,-2.6356068,-0.5156622000000001,89.22101975999998,0.16615782,-34.18840386
0.31,31,-0.008,-1.021,0.0,0.0,-2.6356068,-0.9167328,89.22101975999998,0.17761697999999998,-34.21132218
0.32,32,-0.003,-1.025,0.002,-0.5156622000000001,-2.3491278,-0.9740286,89.21529018,0.18907614,-34.23424050000001
0.33,33,0.001,-1.027,-0.001,-1.3178034,-2.0626488000000003,-0.6875496,89.1809127,0.20626488,-34.25715882
0.34,34,0.005,-1.026,-0.006,-1.8334656000000005,-1.9480572,-0.2291832000000001,89.15799438,0.20626488,-34.27434756
0.35000000000000003,35,0.003,-1.022,-0.01,-2.1772404,-1.8334656000000005,0.11459160000000004,89.14080564,0.20626488,-34.291536300000004
0.36000000000000004,36,-0.001,-1.014,-0.013,-2.0626488000000003,-1.8334656000000005,0.4010706,89.11788732,0.20053530000000008,-34.31445462
0.37,37,-0.005,-1.005,-0.014,-2.0626488000000003,-1.6042823999999998,0.4583664000000001,89.09496899999998,0.19480572,-34.32591377999999
0.38,38,-0.005,-0.997,-0.014,-2.0626488000000003,-1.2605076000000002,0.4583664000000001,89.03194361999998,0.18334656,-34.343102519999995
0.39,39,-0.004,-0.988,-0.016,-2.1772404,-0.9740286,0.3437748,89.01475488,0.17761697999999998,-34.35456168
0.4,40,-0.002,-0.981,-0.017,-2.291832,-0.7448454000000001,0.3437748,88.98610698,0.17761697999999998,-34.36029126
0.41000000000000003,41,0.003,-0.975,-0.017,-2.578311,-0.9740286,0.5156622000000001,88.96318865999999,0.1718874,-34.37175042
0.42000000000000004,42,0.009000000000000001,-0.974,-0.017,-3.0939732,-1.432395,0.6302538000000001,88.92881118,0.16042824,-34.38320958
0.43,43,0.015,-0.977,-0.02,-3.9534102,-2.1199446,0.9740286,88.8657858,0.1718874,-34.40039832
0.44,44,0.019,-0.988,-0.022,-4.6409598,-2.9220857999999996,1.3750992,88.81994916,0.15469866,-34.4347758
0.45,45,0.019,-1.001,-0.023,-5.1566220000000005,-3.724227,1.6615782,88.76838294000002,0.13750992,-34.46915328
0.46,46,0.013,-1.011,-0.025,-5.1566220000000005,-4.1252976000000015,1.9480572,88.71681672,0.12032118,-34.50926034
0.47000000000000003,47,0.008,-1.015,-0.026,-4.8701430000000006,-4.297185,2.1772404,88.6652505,0.09740286,-34.555096979999995
0.48000000000000004,48,0.003,-1.011,-0.023,-4.3544808,-4.4117766,2.1199446,88.60795470000002,0.08021412,-34.59520404
0.49,49,0.0,-0.999,-0.021,-3.8961144,-4.4690724,1.8907613999999997,88.56784764,0.06302537999999999,-34.64104068
0.5,50,0.004,-0.986,-0.014,-3.3231564,-4.5263682,1.7761698,88.53919973999999,0.04010706,-34.68687732
0.51,51,0.013,-0.978,-0.009000000000000001,-2.86479,-4.7555514,1.8907613999999997,88.51055184,0.02291832,-34.73271396
0.52,52,0.025,-0.972,-0.003,-2.86479,-5.0993262,2.4064236,88.48190394,0.0,-34.78428018
0.53,53,0.033,-0.97,0.002,-3.0939732,-5.958763200000001,3.2658606,88.45325604000001,-0.00572958,-34.8358464
0.54,54,0.034,-0.969,0.01,-3.4377480000000005,-6.3025379999999975,4.0680017999999984,88.41887856000002,-0.04583664,-34.89887178
0.55,55,0.027000000000000003,-0.973,0.014,-3.9534102,-6.3025379999999975,4.6409598,88.3787715,-0.09167328,-34.96189716
0.56,56,0.014,-0.982,0.016,-4.4690724,-6.0733548,4.583664,88.33866443999996,-0.13750992,-35.01919296
0.5700000000000001,57,0.0,-0.993,0.019,-4.7555514,-5.6149884000000005,3.9534102,88.28709822,-0.17761697999999998,-35.076488760000004
0.5800000000000001,58,-0.011,-1.002,0.025,-4.8128472,-4.6982556,2.7501984,88.26417990000002,-0.21199446,-35.122325399999994
0.59,59,-0.015,-1.008,0.041,-4.6982556,-3.4377480000000005,1.145916,88.21834326000004,-0.22345362,-35.15670288
0.6,60,-0.009000000000000001,-1.008,0.048,-4.1825934,-1.6042823999999998,-0.6875496,88.17250662000002,-0.21772404,-35.17389162
0.61,61,0.0,-1.005,0.042,-3.4377480000000005,0.1718874,-3.2658606,88.13812913999998,-0.18334656,-35.17389162
0.62,62,0.006999999999999999,-0.997,0.038,-3.0939732,1.432395,-5.0993262,88.10948124000002,-0.13178034,-35.16243246
0.63,63,0.015,-0.989,0.028,-3.3231564,2.6356068,-6.1879464,88.0922925,-0.057295800000000015,-35.133784559999995
0.64,64,0.029,-0.983,0.018000000000000002,-4.297185,2.7501984,-6.589017,88.04645586000002,0.0,-35.11086624
0.65,65,0.046,-0.979,0.015,-4.9847345999999995,2.578311,-6.3598338,87.99488964000004,0.06875496,-35.08794792
0.66,66,0.06,-0.985,0.013,-5.5003968,2.3491278,-5.7868758000000025,87.93759384,0.12605075999999998,-35.0650296
0.67,67,0.066,-0.992,0.009000000000000001,-6.0733548,1.6615782,-5.0993262,87.88029803999999,0.1718874,-35.05357044
0.68,68,0.07,-0.995,0.006,-6.1879464,1.145916,-4.297185,87.82873182,0.26356068,-35.03065212
0.6900000000000001,69,0.068,-0.99,0.008,-5.9014674000000005,1.6042823999999998,-3.6096354,87.76570644,0.30366774,-35.01346338
0.7000000000000001,70,0.055,-0.981,0.01,-6.417129599999999,2.4064236,-2.86479,87.70268106,0.33231564,-34.99627464
0.7100000000000001,71,0.037000000000000005,-0.977,0.018000000000000002,-7.161975,3.8961144,-2.1772404,87.62819652,0.34950438,-34.95616758
0.72,72,0.015,-0.986,0.02,-9.1100322,5.2139178,-1.3750992,87.53652324,0.36669312,-34.90460136
0.73,73,-0.008,-1.003,0.015,-13.0634424,5.2139178,-0.7448454000000001,87.41620206,0.36669312,-34.85876472
0.74,74,-0.029,-1.024,0.009000000000000001,-18.1054728,3.9534102,-0.4583664000000001,87.2328555,0.3724227000000001,-34.81865766
0.75,75,-0.045,-1.035,-0.013,-23.204799,1.9480572,-0.8594370000000001,86.99794272,0.37815228,-34.80146892
0.76,76,-0.058,-1.02,-0.044,-27.9603504,-2.1772404,-2.1772404,86.71146372000004,0.39534102,-34.83011682
0.77,77,-0.068,-0.989,-0.055,-31.741873200000004,-8.8235532,-4.4690724,86.39060724,0.43544808,-34.9217901
0.78,78,-0.07400000000000001,-0.958,-0.047,-37.52874900000001,-15.0687954,-6.3598338,86.00672538,0.48128472,-35.082218340000004
0.79,79,-0.069,-0.943,-0.051,-44.1750618,-20.798375399999998,-6.990087599999999,85.55981814,0.53858052,-35.29994238
0.8,80,-0.048,-0.973,-0.07,-48.414951,-28.0176462,-5.7868758000000025,85.07280384,0.5729580000000001,-35.58642138000001
0.81,81,-0.018000000000000002,-1.012,-0.084,-51.3943326,-36.03905820000001,-4.010706000000001,84.55141205999998,0.5844171599999999,-35.94738492000001
0.8200000000000001,82,-0.01,-1.023,-0.101,-49.7327544,-39.0757356,-4.010706000000001,84.04720902,0.59587632,-36.34272594
0.8300000000000001,83,-0.042,-1.04,-0.075,-44.06047020000001,-35.7525792,-6.3598338,83.60603136,0.61879464,-36.70941906
0.8400000000000001,84,-0.099,-1.086,-0.022,-36.669312,-31.4553942,-11.0007936,83.23360865999999,0.69900876,-37.03600512000001
0.85,85,-0.142,-1.162,0.022,-27.9603504,-28.4187168,-14.381245800000002,82.94712966,0.8078707799999998,-37.33394328
0.86,86,-0.162,-1.22,0.057,-21.9442914,-26.1841806,-14.152062599999999,82.72367604,0.92246238,-37.6146927
0.87,87,-0.152,-1.241,0.106,-16.2147114,-23.3193906,-9.9121734,82.55751822,0.9969469199999998,-37.85533506
0.88,88,-0.116,-1.25,0.145,-12.4331886,-19.0222056,-3.151269,82.45438578,0.9969469199999998,-38.05014078
0.89,89,-0.071,-1.232,0.158,-14.7823164,-14.896907999999998,4.0680017999999984,82.3054167,0.93965112,-38.19338028
0.9,90,-0.022,-1.176,0.139,-21.6005166,-12.9488508,9.453807000000001,82.08769266,0.8307891,-38.31370146
0.91,91,0.008,-1.101,0.105,-26.298772200000002,-14.037471,12.4331886,81.81840240000002,0.6875496,-38.43402264
0.92,92,0.03,-1.028,0.077,-30.5959572,-16.501190400000002,14.037471,81.50900508000002,0.52712136,-38.58299172
0.93,93,0.045,-0.974,0.056,-33.1742682,-18.2773602,14.5531332,81.19387818,0.36669312,-38.74341996
0.9400000000000001,94,0.047,-0.938,0.05,-34.8358464,-17.5325148,14.667724800000002,80.8443738,0.19480572,-38.89238904
0.9500000000000001,95,0.035,-0.908,0.04,-35.8671708,-15.183387000000002,14.495837400000001,80.48341026,0.028647900000000007,-39.02416938
0.9600000000000001,96,0.006,-0.888,0.023,-36.4974246,-12.5477802,14.037471,80.11098756,-0.12605075999999998,-39.12730182
0.97,97,-0.031,-0.872,0.006999999999999999,-37.757932200000006,-10.599723,13.2926256,79.73283528,-0.27501984,-39.21324552
0.98,98,-0.07,-0.862,-0.005,-38.5600734,-9.167328,12.318597,79.36041258,-0.42398892,-39.28773006
0.99,99,-0.104,-0.851,-0.017,-38.1590028,-7.7922288,11.4018642,78.97080113999998,-0.55003968,-39.34502586
1.0,100,-0.14,-0.8640000000000001,-0.013,-36.096354,-6.703608600000001,10.0840608,78.60983759999998,-0.66463128,-39.39659208
1.01,101,-0.161,-0.877,-0.017,-33.231564,-5.72958,9.568398599999998,78.27179238,-0.76776372,-39.43669914
1.02,102,-0.175,-0.897,0.002,-29.392745399999995,-4.583664,9.167328,77.97385421999998,-0.87089616,-39.46534704
1.03,103,-0.175,-0.922,0.019,-25.55392680000001,-3.6096354,9.0527364,77.76185976,-1.0026765,-39.49399494
1.04,104,-0.16899999999999998,-0.944,0.047,-22.345362,-3.4377480000000005,9.0527364,77.53267656,-1.10007936,-39.51118368
1.05,105,-0.154,-0.958,0.095,-21.027558600000006,-3.380452200000001,8.9381448,77.3206821,-1.19175264,-39.52264284
1.06,106,-0.131,-0.987,0.112,-17.0168526,-1.2605076000000002,8.193299399999999,77.14879470000002,-1.27769634,-39.52264284
1.07,107,-0.097,-0.985,0.119,-15.183387000000002,-0.6875496,6.4744254,76.99409604,-1.3464512999999998,-39.51691326
1.08,108,-0.069,-1.001,0.138,-10.1986524,0.8594370000000001,5.2139178,77.06858058,-1.40947668,-39.5054541
1.09,109,-0.054000000000000006,-1.017,0.141,-5.2139178,4.6409598,4.8701430000000006,77.01128478000003,-1.44958374,-39.4481583
1.1,110,-0.073,-1.019,0.133,-2.4637194,6.5317212,5.958763200000001,76.98836646,-1.49542038,-39.37367376
1.11,111,-0.107,-1.026,0.135,-0.6875496,7.5630456000000015,6.875496000000001,76.97690730000002,-1.5469866,-39.28200048
1.12,112,-0.147,-1.037,0.133,0.9167328,8.7662574,8.250595200000001,76.98263688,-1.61001198,-39.17886804
1.1300000000000001,113,-0.189,-1.072,0.145,4.0680017999999984,11.1153852,9.6256944,77.09722848,-1.7188740000000002,-39.05854686
1.1400000000000001,114,-0.234,-1.107,0.133,5.6149884000000005,13.120738199999998,11.45916,77.14879470000002,-1.8048176999999999,-38.9038482
1.1500000000000001,115,-0.284,-1.146,0.1,6.8182002000000015,13.750992000000002,14.266654199999998,77.21182008000002,-1.91367972,-38.73769038
1.1600000000000001,116,-0.301,-1.145,0.109,10.255948199999999,11.745639,18.2200644,77.30922294000001,-2.06837838,-38.58299172
1.17,117,-0.269,-1.153,0.108,11.0580894,6.417129599999999,21.8869956,77.41808496,-2.26891368,-38.4741297
1.18,118,-0.227,-1.166,0.069,9.3392154,-1.6615782,23.777757,77.54413572000001,-2.51528562,-38.445481799999996
1.19,119,-0.163,-1.225,-0.006999999999999999,6.1879464,-10.7716104,23.5485738,77.61289067999998,-2.76738714,-38.49704802
1.2,120,-0.087,-1.2990000000000002,-0.115,8.021412000000002,-20.05353,21.5432208,77.70456396,-3.0137590800000003,-38.6460171
1.21,121,-0.005,-1.362,-0.197,15.0687954,-28.2468294,16.673077799999998,77.87072178,-3.2257535399999995,-38.88665946
1.22,122,0.069,-1.356,-0.222,20.2254174,-32.142943800000005,7.906820400000001,78.09990497999998,-3.35753388,-39.17886804
1.23,123,0.099,-1.3130000000000002,-0.279,17.303331600000003,-33.6899304,-2.1199446,78.29471070000002,-3.380452200000001,-39.51118368
1.24,124,0.098,-1.272,-0.328,13.407217200000002,-33.5753388,-8.250595200000001,78.46086852,-3.35753388,-39.85495848000001
1.25,125,0.111,-1.239,-0.355,14.4385416,-26.9863218,-10.7143146,78.62702634000001,-3.30023808,-40.1357079
1.26,126,0.114,-1.187,-0.362,13.178034,-13.0061466,-11.0007936,78.77026584,-3.2085648000000004,-40.28467698
1.27,127,0.075,-1.137,-0.381,10.4851314,4.1825934,-9.568398599999998,78.87339828,-3.11116194,-40.26175866
1.28,128,0.033,-1.082,-0.386,12.834259199999998,15.2979786,-5.3858052,78.96507156,-3.01948866,-40.11278958000001
1.29,129,-0.047,-1.084,-0.341,13.750992000000002,15.4125702,1.9480572,79.09112232,-3.0137590800000003,-39.95809092
1.3,130,-0.172,-1.077,-0.275,2.86479,10.9434978,11.172681,79.11404064,-3.0997027800000003,-39.83204016
1.31,131,-0.289,-1.004,-0.207,-9.3965112,9.6256944,18.2200644,79.01090819999997,-3.2658606,-39.70025982
1.32,132,-0.32,-0.975,-0.174,-17.131444199999994,10.5424272,19.6524594,78.82756164,-3.44347758,-39.5627499
1.33,133,-0.261,-1.025,-0.181,-20.5691922,10.9434978,14.667724800000002,78.60983759999998,-3.59817624,-39.43669914
1.34,134,-0.17,-1.0590000000000002,-0.206,-20.5691922,9.9121734,6.8182002000000015,78.39211356000001,-3.64974246,-39.32783712
1.35,135,-0.051,-1.055,-0.197,-14.495837400000001,9.1100322,-1.3750992,78.2374149,-3.62109456,-39.24189342
1.36,136,0.062,-1.024,-0.181,-8.307891,7.5057497999999985,-9.2819196,78.1514712,-3.51796212,-39.19032720000001
1.37,137,0.142,-0.958,-0.138,-3.4377480000000005,6.4744254,-17.246035799999998,78.11136413999998,-3.34034514,-39.161679299999996
1.3800000000000001,138,0.173,-0.892,-0.096,-1.7761698,7.0473834,-24.4080108,78.10563456,-3.04240698,-39.1330314
1.3900000000000001,139,0.17,-0.836,-0.08800000000000001,-2.2345362,8.59437,-29.8511118,78.07698666,-2.73300966,-39.11011308
1.4000000000000001,140,0.129,-0.799,-0.102,-3.6096354,11.1153852,-33.1742682,78.03687959999998,-2.39496444,-39.07000602
1.4100000000000001,141,0.071,-0.7709999999999999,-0.121,-5.443101,13.5791046,-33.6326346,77.9795838,-2.03973048,-39.00698064
1.42,142,0.029,-0.747,-0.129,-7.7349330000000025,13.980175199999998,-31.22621100000001,77.8936401,-1.71314442,-38.9324961
1.43,143,0.0,-0.713,-0.127,-10.1413566,13.178034,-26.8717302,77.79050766,-1.42666542,-38.85801156
1.44,144,-0.01,-0.6920000000000001,-0.124,-12.6623718,11.4018642,-21.772404,77.65872732,-1.19748222,-38.79498618
1.45,145,-0.006999999999999999,-0.695,-0.106,-15.813640800000002,8.3651868,-17.4179232,77.4925695,-1.01413566,-38.75487912000001
1.46,146,-0.003,-0.713,-0.078,-21.2567418,4.8128472,-14.896907999999998,77.27484546000002,-0.8594370000000001,-38.73769038
1.47,147,-0.012,-0.725,-0.054000000000000006,-26.298772200000002,4.8701430000000006,-13.407217200000002,77.00555519999998,-0.72192708,-38.72623122
1.48,148,-0.009000000000000001,-0.732,-0.02,-27.043617600000005,4.4117766,-12.318597,76.75345368,-0.59587632,-38.70904248
1.49,149,0.013,-0.732,0.01,-24.0069402,1.6042823999999998,-12.0894138,76.50708174,-0.48128472,-38.72623122
1.5,150,0.05,-0.745,-0.002,-19.8816426,-1.7761698,-12.4904844,76.30654644,-0.36669312,-38.77206786000001
1.51,151,0.127,-0.78,-0.062,-17.589810600000003,-4.4117766,-12.318597,76.12892946000002,-0.25783110000000004,-38.8465524
1.52,152,0.219,-0.8029999999999999,-0.112,-14.9542038,-8.307891,-11.3445684,75.9742308,-0.16615782,-38.95541442
1.53,153,0.305,-0.815,-0.156,-10.026765,-14.7250206,-10.6570188,75.87682794,-0.01718874,-39.11011308
1.54,154,0.343,-0.809,-0.179,-2.86479,-19.8243468,-10.6570188,75.84818004,0.03437748,-39.32783712
1.55,155,0.365,-0.7959999999999999,-0.083,4.9274388,-24.8663772,-10.7143146,75.90547584,0.0859437,-39.591397799999996
1.56,156,0.337,-0.797,0.055,13.6364004,-30.8251404,-11.917526400000002,76.04871534,0.13750992,-39.91798386
1.57,157,0.267,-0.887,0.166,18.3919518,-36.8411994,-13.2353298,76.23779148,0.18907614,-40.30186572
1.58,158,0.195,-1.033,0.205,15.6417534,-43.544808,-12.4904844,76.43832678,0.24064236,-40.74877296
1.59,159,0.141,-1.16,0.12,11.5737516,-47.6128098,-9.8548776,76.56437754,0.24064236,-41.23005768
1.6,160,0.105,-1.25,0.035,20.6837838,-38.67466500000001,-7.3911582,76.77637200000002,0.23491278,-41.61966912000001
1.61,161,0.02,-1.335,0.031,35.0650296,-20.7410796,-6.6463128000000005,77.13160596,0.26356068,-41.83166358
1.62,162,-0.116,-1.332,0.056,37.81522800000001,-1.6042823999999998,-4.6982556,77.51548782,0.30939732,-41.8545819
1.6300000000000001,163,-0.318,-1.209,0.065,27.1582092,4.9274388,1.4896908000000002,77.83061472,0.25783110000000004,-41.80874526
1.6400000000000001,164,-0.44,-1.11,0.061,20.1108258,6.990087599999999,6.5317212,78.03115002,0.20626488,-41.72280156
1.6500000000000001,165,-0.399,-1.082,-0.011,27.1009134,6.3598338,5.958763200000001,78.30616986,0.16615782,-41.64831702
1.6600000000000001,166,-0.23,-1.139,-0.127,37.41415739999999,3.380452200000001,0.0,78.68432214,0.1718874,-41.60820996
1.6700000000000002,167,-0.056,-1.264,-0.318,43.544808,6.3025379999999975,-7.0473834,79.1254998,0.25783110000000004,-41.55664374
1.68,168,0.038,-1.402,-0.552,45.779344200000004,12.7769634,-13.750992000000002,79.5838662,0.41825934,-41.4535113
1.69,169,0.02,-1.489,-0.6940000000000001,46.4668938,18.8503182,-22.459953600000002,80.05369175999998,0.6703608600000001,-41.30454222
1.7,170,-0.11,-1.462,-0.7040000000000001,44.51883660000001,21.2567418,-31.51269000000001,80.50632858,1.01413566,-41.14411398
1.71,171,-0.253,-1.295,-0.594,35.9817624,19.595163600000006,-36.2682414,80.86729212,1.39801752,-41.00087448
1.72,172,-0.241,-1.127,-0.514,18.5065434,22.459953600000002,-39.9924684,81.05636826,1.82200644,-40.84044624
1.73,173,-0.139,-0.998,-0.401,4.0680017999999984,29.220858000000003,-41.023792799999995,81.07355700000002,2.24599536,-40.61699262000001
1.74,174,-0.029,-0.951,-0.35,-3.3231564,32.085648000000006,-35.46610020000001,81.04490909999998,2.6356068,-40.35916152
1.75,175,0.081,-1.022,-0.33,-5.1566220000000005,31.6845774,-26.929026,81.00480204,2.93927454,-40.08987126
1.76,176,0.192,-1.124,-0.316,-5.3858052,29.9657034,-18.8503182,80.95896540000003,3.1627281600000003,-39.82631058
1.77,177,0.28300000000000003,-1.2,-0.28,-4.5263682,28.4187168,-13.6364004,80.92458792,3.32888598,-39.56847947999999
1.78,178,0.388,-1.307,-0.258,1.6615782,27.6165756,-7.906820400000001,80.94750624,3.46066632,-39.3049188
1.79,179,0.402,-1.267,-0.189,5.2712136,24.7517856,-1.8334656000000005,81.01053162,3.5122325400000003,-39.06427644
1.8,180,0.302,-1.165,-0.175,4.6409598,17.475219,5.72958,81.06782741999999,3.47785506,-38.88092988
1.81,181,0.14400000000000002,-1.058,-0.162,4.297185,12.4904844,9.8548776,81.11939364,3.39764094,-38.74341996
1.82,182,0.02,-0.959,-0.138,3.0366774,9.8548776,11.688343199999998,81.1595007,3.2945085,-38.62882836
1.83,183,-0.049,-0.872,-0.114,1.2605076000000002,9.167328,12.1467096,81.17668943999998,3.15699858,-38.52569592
1.84,184,-0.08,-0.804,-0.102,0.5156622000000001,11.2872726,12.9488508,81.18814859999998,3.04240698,-38.39391558
1.85,185,-0.083,-0.7509999999999999,-0.097,0.9740286,14.610429000000002,14.381245800000002,81.20533734,2.9220858,-38.22775776
1.86,186,-0.069,-0.708,-0.086,1.8907613999999997,18.048177,16.157415599999997,81.23398524000002,2.78457588,-38.02722246
1.87,187,-0.038,-0.659,-0.07400000000000001,3.0939732,21.027558600000006,17.8189938,81.27409229999998,2.6356068,-37.79230968
1.8800000000000001,188,-0.01,-0.62,-0.064,4.6409598,23.6631654,19.2513888,81.3313881,2.46944898,-37.528749
1.8900000000000001,189,0.01,-0.604,-0.049,4.2398892,24.064235999999998,20.1108258,81.38295432,2.30329116,-37.26518832
1.9000000000000001,190,0.012,-0.614,-0.042,1.7761698,24.2361234,20.8556712,81.40587264,2.12567418,-36.99589806
1.9100000000000001,191,-0.006999999999999999,-0.624,-0.042,-2.291832,25.55392680000001,20.912967,81.3886839,1.95378678,-36.71514864
1.9200000000000002,192,-0.044,-0.636,-0.034,-5.3858052,29.507337,19.8243468,81.34284726,1.7933585399999998,-36.394292160000006
1.93,193,-0.091,-0.653,-0.027000000000000003,-6.9327918,37.1276784,17.475219,81.27982188,1.6558486199999998,-36.01041030000001
1.94,194,-0.14800000000000002,-0.6779999999999999,-0.047,-7.2192707999999985,47.67010560000001,14.7250206,81.21679650000002,1.56417534,-35.51766642
1.95,195,-0.192,-0.68,-0.09,-8.3651868,57.7541664,12.1467096,81.14231196,1.5183387000000002,-34.933249260000004
1.96,196,-0.23,-0.684,-0.106,-9.6256944,68.58307260000001,10.6570188,81.05063868,1.49542038,-34.24569966
1.97,197,-0.251,-0.6659999999999999,-0.116,-7.1046792000000005,69.72898860000001,11.2872726,80.98761329999998,1.47250206,-33.5466909
1.98,198,-0.217,-0.6509999999999999,-0.048,-0.572958,67.1506776,13.2353298,80.98761329999998,1.4209358399999998,-32.87060046000001
1.99,199,-0.155,-0.701,0.008,9.6256944,66.0620574,16.1001198,81.09074574,1.3464512999999998,-32.19451002
2.0,200,-0.07200000000000001,-0.772,0.085,12.7769634,62.22323879999999,18.8503182,81.22825566,1.23758928,-31.55279706
2.01,201,0.027000000000000003,-0.89,0.174,15.813640800000002,59.7022236,20.912967,81.39441348,1.10580894,-30.93973200000001
2.02,202,0.12,-1.045,0.17,16.386598799999998,57.63957480000001,21.5432208,81.56630088,0.96829902,-30.3381261
2.03,203,0.204,-1.205,0.091,15.0687954,50.8786704,21.3140376,81.73245870000002,0.8307891,-29.80527516
2.04,204,0.253,-1.3130000000000002,0.001,11.4018642,27.9603504,21.485925,81.85277988,0.65317212,-29.50160742
2.05,205,0.318,-1.337,-0.009000000000000001,7.0473834,2.86479,22.058883,81.92153484,0.43544808,-29.43858204
2.0599999999999996,206,0.383,-1.225,0.078,7.2192707999999985,-12.5477802,17.8189938,81.99601937999998,0.25210152,-29.5359849
2.07,207,0.333,-1.146,0.14400000000000002,5.9014674000000005,-15.3552744,9.568398599999998,82.05904475999998,0.13750992,-29.67349482
2.0799999999999996,208,0.194,-1.118,0.172,6.703608600000001,-11.688343199999998,2.291832,82.21374342,0.14323950000000002,-29.77662726
2.09,209,-0.003,-1.171,0.172,14.9542038,-8.7089616,-1.6042823999999998,82.36844208,0.14896908,-29.86257096
2.0999999999999996,210,-0.197,-1.341,0.038,32.2002396,-0.286479,-1.7761698,82.69502814,0.1718874,-29.86830054
2.11,211,-0.354,-1.578,-0.233,42.91455420000001,12.605076,4.583664,83.13047622,0.14323950000000002,-29.73079062
2.1199999999999997,212,-0.377,-1.597,-0.405,36.7266078,17.131444199999994,16.042824000000003,83.50289891999998,0.0,-29.54171448
2.13,213,-0.238,-1.523,-0.5329999999999999,24.8090814,15.6990492,26.69984280000001,83.74354128,-0.24637194,-29.35263834
2.1399999999999997,214,0.039,-1.5219999999999998,-0.644,14.667724800000002,17.246035799999998,36.7839036,83.88678078000002,-0.59587632,-29.14637346
2.15,215,0.31,-1.503,-0.7140000000000001,3.8388186,14.4385416,47.0971476,83.92115826,-1.04851314,-28.95156774
2.1599999999999997,216,0.47,-1.345,-0.6679999999999999,-4.1825934,7.448453999999999,54.717489,83.87532162,-1.5813640800000002,-28.82551698
2.17,217,0.51,-1.126,-0.539,-0.1718874,4.4690724,57.35309579999999,83.87532162,-2.1485925000000003,-28.72238454
2.1799999999999997,218,0.399,-1.027,-0.44,5.958763200000001,2.6356068,56.3790672,83.89823994000002,-2.65852512,-28.62498168
2.19,219,0.147,-1.036,-0.382,6.2452422,2.7501984,51.9672906,83.95553574,-3.16845774,-28.544767560000004
2.1999999999999997,220,-0.087,-1.099,-0.383,0.8021411999999999,-0.6302538000000001,46.2377106,83.96126532,-3.62682414,-28.5046605
2.21,221,-0.253,-1.149,-0.391,-4.9274388,-4.8128472,42.5707794,83.91542868,-4.05081306,-28.51039008
2.2199999999999998,222,-0.362,-1.159,-0.35200000000000004,-9.224623800000002,-7.1046792000000005,36.898495200000006,83.82375540000002,-4.42323576,-28.544767560000004
2.23,223,-0.394,-1.114,-0.309,-12.1467096,-7.161975,28.5906042,83.6805159,-4.749821819999998,-28.5906042
2.2399999999999998,224,-0.348,-1.037,-0.262,-11.45916,-5.844171599999999,18.449247600000003,83.5659243,-4.93889796,-28.62498168
2.25,225,-0.268,-0.975,-0.22,-9.5111028,-5.3285094000000015,8.136003599999999,83.47425102000003,-5.02484166,-28.670818319999995
2.26,226,-0.163,-0.913,-0.19,-7.7922288,-3.0366774,-1.3750992,83.39976648,-5.0133825000000005,-28.7051958
2.27,227,-0.055,-0.8220000000000001,-0.14400000000000002,-4.9847345999999995,0.5156622000000001,-10.6570188,83.34820026,-4.91025006,-28.71092538000001
2.28,228,0.005,-0.76,-0.111,-3.3231564,4.8701430000000006,-18.8503182,83.3080932,-4.703985179999999,-28.68227748
2.29,229,0.034,-0.733,-0.099,-3.151269,6.760904399999999,-23.3193906,83.26798613999998,-4.4690724,-28.64217042
2.3,230,0.058,-0.721,-0.091,-3.7815227999999994,7.5057497999999985,-25.78311,83.22787908000002,-4.20551172,-28.59633378
2.31,231,0.083,-0.7020000000000001,-0.08800000000000001,-4.0680017999999984,6.6463128000000005,-26.5279554,83.18204244,-3.93622146,-28.561956300000002
2.32,232,0.107,-0.6970000000000001,-0.07400000000000001,-3.151269,2.8074942000000003,-26.0122932,83.14766496,-3.67839036,-28.56768588
2.3299999999999996,233,0.123,-0.688,-0.054000000000000006,-3.8388186,-3.4950437999999995,-24.4653066,83.11328748,-3.4148296799999995,-28.62498168
2.34,234,0.139,-0.677,-0.032,-5.958763200000001,-11.0007936,-22.7464326,83.06172126,-3.20283522,-28.762491600000004
2.3499999999999996,235,0.134,-0.6920000000000001,-0.01,-8.7089616,-18.7930224,-20.912967,82.98723672,-3.0137590800000003,-28.974486060000004
2.36,236,0.12,-0.7120000000000001,0.009000000000000001,-12.5477802,-27.6738714,-19.0795014,82.8783747,-2.85333084,-29.27242422
2.3699999999999997,237,0.109,-0.748,0.021,-15.0687954,-34.8358464,-18.1054728,82.74659436,-2.71009134,-29.63911734
2.38,238,0.104,-0.7809999999999999,0.024,-19.194093,-41.4248634,-18.162768600000003,82.58616612,-2.55539268,-30.06883584
2.3899999999999997,239,0.102,-0.789,0.009000000000000001,-24.5798982,-49.2170922,-18.5638392,82.36844208,-2.42934192,-30.57876846
2.4,240,0.111,-0.762,-0.017,-25.3247436,-54.7747848,-18.5638392,82.13925888,-2.30329116,-31.14599688
2.4099999999999997,241,0.125,-0.742,-0.018000000000000002,-21.772404,-57.00932099999999,-18.621135,81.95018274,-2.18296998,-31.73041404
2.42,242,0.149,-0.728,-0.003,-16.7876694,-54.7747848,-19.194093,81.80694324,-2.05691922,-32.29764246
2.4299999999999997,243,0.135,-0.72,0.059,-9.6829902,-52.19647379999999,-19.767051,81.74964744,-1.90795014,-32.836222979999995
2.44,244,0.092,-0.7559999999999999,0.081,-1.2605076000000002,-50.8786704,-20.340009,81.76110659999998,-1.77044022,-33.36907392
2.4499999999999997,245,0.022,-0.799,0.159,6.703608600000001,-50.133825,-19.5378678,81.8470503,-1.6329303,-33.88473612
2.46,246,-0.03,-0.863,0.244,11.2872726,-50.3630082,-18.162768600000003,81.98456021999998,-1.50687954,-34.4061279
2.4699999999999998,247,-0.07200000000000001,-0.981,0.277,11.0007936,-49.1597964,-17.303331600000003,82.11634056,-1.39228794,-34.91033094
2.48,248,-0.093,-1.115,0.179,9.167328,-41.252976,-17.475219,82.2481209,-1.26623718,-35.34004944
2.4899999999999998,249,-0.115,-1.228,0.024,13.178034,-24.064235999999998,-17.6471064,82.39136040000002,-1.1172681,-35.59788054
2.5,250,-0.154,-1.241,-0.038,25.8977016,-8.021412000000002,-15.2406828,82.65492108,-0.9740286,-35.695283399999994
2.51,251,-0.236,-1.23,-0.062,30.5386614,4.7555514,-9.453807000000001,82.9643184,-0.87089616,-35.65517634
2.52,252,-0.304,-1.162,-0.068,22.2307704,7.906820400000001,-0.11459160000000004,83.18777202,-0.86516658,-35.57496222
2.53,253,-0.312,-1.122,-0.12,8.193299399999999,3.724227,6.760904399999999,83.26225656,-1.0026765,-35.54058474
2.54,254,-0.294,-1.148,-0.2,3.4950437999999995,-2.5210152000000003,8.307891,83.29663404,-1.0886202,-35.55777348
2.55,255,-0.257,-1.286,-0.362,12.318597,-5.5576926,0.0,83.4226848,-1.09434978,-35.60933970000001
2.56,256,-0.192,-1.46,-0.569,28.2468294,-3.3231564,-19.767051,83.7091638,-0.89954406,-35.66090592
2.57,257,-0.147,-1.591,-0.598,41.4821592,5.3858052,-46.753372799999994,84.13315272,-0.4297185000000001,-35.64944676000001
2.5799999999999996,258,-0.117,-1.605,-0.532,45.83664,17.8189938,-69.38521379999999,84.58578954,0.26929026,-35.53485516
2.59,259,-0.044,-1.479,-0.496,37.4714532,21.772404,-75.17208959999998,84.96394182,1.0255948199999998,-35.38588608
2.5999999999999996,260,0.07200000000000001,-1.288,-0.445,15.126091199999998,12.7196676,-60.67625219999999,85.11864048,1.6386598799999998,-35.30567196
2.61,261,0.177,-1.168,-0.364,2.1199446,-3.2085648,-40.5654264,85.13582922,2.03973048,-35.36869734
2.6199999999999997,262,0.29,-1.144,-0.337,-8.5370742,-15.2979786,-20.340009,85.04415594,2.22880662,-35.54058474
2.63,263,0.408,-1.17,-0.29600000000000004,-11.8602306,-24.064235999999998,-4.4690724,84.90091644,2.2918320000000003,-35.77549752
2.6399999999999997,264,0.46,-1.243,-0.305,-9.0527364,-27.6738714,-0.11459160000000004,84.80351358,2.2746432600000004,-36.05051736
2.65,265,0.405,-1.314,-0.306,-4.7555514,-26.1268848,-4.0680017999999984,84.74621778000002,2.29756158,-36.31407804
2.6599999999999997,266,0.244,-1.2990000000000002,-0.244,-1.0313244,-24.2361234,-6.417129599999999,84.72902904,2.3491277999999998,-36.56044998
2.67,267,0.039,-1.18,-0.153,1.6615782,-25.0382646,-4.7555514,84.74048819999999,2.3777757,-36.8125515
2.6799999999999997,268,-0.11,-1.124,-0.124,1.2032118,-23.491278,-2.291832,84.73475862000002,2.33193906,-37.05319386
2.69,269,-0.209,-1.0490000000000002,-0.093,-2.5210152000000003,-18.449247600000003,-0.286479,84.70611072,2.3204799,-37.23654042
2.6999999999999997,270,-0.255,-0.959,-0.096,-4.7555514,-9.797581800000001,2.291832,84.6545445,2.2918320000000003,-37.33394328
2.71,271,-0.241,-0.888,-0.115,-4.0680017999999984,0.4583664000000001,6.6463128000000005,84.60870786,2.22880662,-37.32248412
2.7199999999999998,272,-0.193,-0.8220000000000001,-0.126,-2.4637194,10.1986524,12.032117999999999,84.59151912,2.11421502,-37.20789252
2.73,273,-0.14800000000000002,-0.762,-0.12,-0.3437748,17.18874,17.0168526,84.58005996,1.93086846,-37.03027554000001
2.7399999999999998,274,-0.115,-0.708,-0.097,2.2345362,22.173474600000002,21.2567418,84.60297828,1.73606274,-36.78963318
2.75,275,-0.084,-0.653,-0.064,4.4117766,26.814434400000003,25.0955604,84.6545445,1.50114996,-36.50315418
2.76,276,-0.071,-0.614,-0.031,5.042030400000002,33.8618178,27.9603504,84.71184029999998,1.24904844,-36.14219064
2.77,277,-0.068,-0.601,-0.006999999999999999,2.4064236,40.8519054,30.1375908,84.74048819999999,0.9740286,-35.71247214
2.78,278,-0.073,-0.59,0.005,-1.3750992,48.3576552,31.741873200000004,84.72902904,0.6875496,-35.20826909999999
2.79,279,-0.08900000000000001,-0.588,0.013,-3.9534102,55.4623344,31.8564648,84.68892198,0.40680018,-34.62958152
2.8,280,-0.116,-0.607,0.021,-5.0993262,61.7648724,30.4240698,84.63162618,0.14323950000000002,-33.99359814
2.81,281,-0.14300000000000002,-0.64,0.02,-5.443101,68.1247062,27.444688199999998,84.56860079999998,-0.08021412,-33.30031896000001
2.82,282,-0.18,-0.65,0.034,-7.5630456000000015,73.51051140000001,22.173474600000002,84.47692752,-0.25210152,-32.55547356
2.8299999999999996,283,-0.199,-0.6829999999999999,0.001,-4.9847345999999995,79.6984578,16.386598799999998,84.41963172,-0.3724227000000001,-31.753332359999995
2.84,284,-0.18600000000000005,-0.654,-0.011,-4.7555514,83.93834700000002,11.45916,84.35087675999998,-0.4297185000000001,-30.91681368
2.8499999999999996,285,-0.157,-0.667,-0.003,0.4010706,86.40206640000002,8.3651868,84.3394176,-0.4526368200000001,-30.057376680000004
2.86,286,-0.109,-0.675,-0.013,4.7555514,88.69389840000002,6.2452422,84.3680655,-0.4526368200000001,-29.17502136
2.8699999999999997,287,-0.071,-0.6709999999999999,-0.023,8.651665800000002,89.26685640000002,6.5317212,84.43682046,-0.4526368200000001,-28.286936460000003
2.88,288,-0.044,-0.685,-0.025,12.4904844,85.3134462,7.9641161999999985,84.55141205999998,-0.47555514,-27.43895862
2.8899999999999997,289,-0.02,-0.68,0.03,18.162768600000003,75.4012728,9.0527364,84.71756988,-0.5156622000000001,-26.68265406
2.9,290,0.005,-0.723,0.166,23.14750320000001,67.3798608,8.3651868,84.93529392,-0.55576926,-26.00656362
2.9099999999999997,291,0.046,-0.8190000000000001,0.252,23.032911600000002,67.322565,7.3911582,85.15874754000002,-0.59014674,-25.33620276
2.92,292,0.087,-0.959,0.179,14.266654199999998,67.26526919999999,9.224623800000002,85.2847983,-0.64171296,-24.660112320000003
2.9299999999999997,293,0.128,-1.075,0.08800000000000001,9.453807000000001,55.1758554,14.8396122,85.38220116,-0.7391158200000001,-24.10434306
2.94,294,0.179,-1.162,0.035,8.021412000000002,35.0077338,21.5432208,85.45668570000002,-0.93392154,-23.73764994
2.9499999999999997,295,0.221,-1.22,0.004,5.3858052,10.599723,27.903054600000004,85.50825191999998,-1.2032117999999998,-23.61159918
2.96,296,0.254,-1.157,0.08199999999999999,8.250595200000001,-7.2765666,29.7365202,85.59419562000002,-1.50114996,-23.6631654
2.9699999999999998,297,0.23,-1.064,0.17,22.5172494,-10.5424272,25.7258142,85.82910840000002,-1.75898106,-23.74337952
2.98,298,0.123,-1.113,0.11,34.0337052,0.8594370000000001,21.199446,86.18434235999996,-1.95378678,-23.71473162
2.9899999999999998,299,0.008,-1.28,-0.036000000000000004,35.52339600000001,17.6471064,19.2513888,86.53384674,-2.13713334,-23.52565548
3.0,300,-0.059,-1.484,-0.218,33.002380800000005,32.8877892,23.0902074,86.84897364,-2.35485738,-23.18188068
3.01,301,-0.037000000000000005,-1.675,-0.374,27.215505,38.961144,37.0703826,87.10680474,-2.71009134,-22.7750805
3.02,302,0.121,-1.81,-0.5720000000000001,13.5791046,38.61736920000001,57.92605379999999,87.22139634,-3.27731976,-22.36828032
3.03,303,0.353,-1.814,-0.7170000000000001,3.7815227999999994,38.5600734,75.8596392,87.22139634,-4.01643558,-21.95002098
3.04,304,0.4970000000000001,-1.6780000000000002,-0.8240000000000001,0.286479,30.7678446,85.82910840000002,87.19847802,-4.858683839999999,-21.6005166
3.05,305,0.485,-1.38,-0.7959999999999999,8.136003599999999,24.064235999999998,85.42803780000001,87.25004424,-5.7009320999999975,-21.32549676
3.06,306,0.355,-1.062,-0.599,17.8762896,21.6005166,76.4325972,87.4047429,-6.45723666,-21.07339524
3.07,307,0.118,-0.983,-0.4320000000000001,15.0114996,16.2147114,63.1399716,87.53652324,-7.076031300000001,-20.884319100000006
3.08,308,-0.153,-1.041,-0.377,3.4377480000000005,12.318597,43.9458786,87.50214575999998,-7.52293854,-20.7410796
3.09,309,-0.3670000000000001,-1.169,-0.359,1.3178034,13.0061466,30.7678446,87.49641618000004,-7.82660628,-20.597840100000006
3.0999999999999996,310,-0.469,-1.297,-0.295,6.130650599999999,14.8396122,17.131444199999994,87.53652324,-7.9927641,-20.43741186
3.11,311,-0.493,-1.399,-0.223,15.469866,19.308684600000007,1.0313244,87.66257399999998,-7.99849368,-20.24260614
3.1199999999999997,312,-0.391,-1.442,-0.103,21.6578124,26.7571386,-13.521808800000002,87.84592056,-7.860983760000001,-19.97904546
3.13,313,-0.182,-1.385,0.001,20.168121600000006,33.4607472,-22.7464326,88.00061922,-7.62607098,-19.6524594
3.1399999999999997,314,0.034,-1.289,0.023,16.7303736,37.4714532,-26.4706596,88.12094040000002,-7.3625102999999985,-19.28576628
3.15,315,0.199,-1.141,0.006,9.5111028,40.966497,-27.444688199999998,88.16104745999998,-7.0874904600000015,-18.88469568
3.1599999999999997,316,0.265,-1.005,-0.017,3.0939732,41.3675676,-26.356068,88.13812913999998,-6.8182002000000015,-18.4778955
3.17,317,0.265,-0.8909999999999999,-0.046,0.057295800000000015,37.3568616,-23.7204612,88.08656292,-6.58328742,-18.11120238
3.1799999999999997,318,0.24,-0.799,-0.065,-1.8907613999999997,30.93973200000001,-19.6524594,88.01780796,-6.3311859,-17.80180506
3.19,319,0.202,-0.733,-0.084,-4.1252976000000015,24.1788276,-14.8396122,87.94905299999998,-6.18221682,-17.566892279999998
3.1999999999999997,320,0.172,-0.691,-0.1,-6.3025379999999975,18.048177,-9.9121734,87.8631093,-6.079084379999999,-17.3892753
3.21,321,0.136,-0.682,-0.105,-8.136003599999999,12.3758928,-6.130650599999999,87.76570644,-6.02178858,-17.268954119999997
3.2199999999999998,322,0.108,-0.68,-0.099,-11.2872726,7.161975,-3.6096354,87.63965568,-5.98168152,-17.20019916
3.23,323,0.078,-0.6759999999999999,-0.081,-14.7823164,1.0886202,-2.7501984,87.47922744,-5.93584488,-17.188740000000006
3.2399999999999998,324,0.05,-0.6659999999999999,-0.07,-16.4438946,-5.958763200000001,-3.8388186,87.31879920000002,-5.895737819999999,-17.251765380000002
3.25,325,0.03,-0.66,-0.051,-16.673077799999998,-12.4331886,-6.760904399999999,87.16410053999998,-5.83271244,-17.37781614
3.26,326,0.015,-0.654,-0.041,-16.615782,-16.1001198,-10.4851314,87.00940188,-5.735309579999999,-17.549703540000007
3.27,327,0.022,-0.6509999999999999,-0.022,-17.131444199999994,-19.6524594,-12.0894138,86.8604328,-5.62071798,-17.75023884
3.28,328,0.062,-0.644,-0.029,-13.9228794,-21.3713334,-11.4018642,86.74011162,-5.4946672199999975,-17.96796288
3.29,329,0.108,-0.657,-0.023,-7.333862400000001,-19.480572,-8.5370742,86.68854540000002,-5.42018268,-18.16849818
3.3,330,0.129,-0.643,0.012,-1.9480572,-15.5844576,-3.5523396000000003,86.68281582,-5.385805199999999,-18.32319684
3.31,331,0.127,-0.622,0.053,6.3025379999999975,-11.5737516,2.6929026,86.75730036,-5.414453099999999,-18.43778844
3.32,332,0.07200000000000001,-0.604,0.104,17.4179232,-6.130650599999999,6.9327918,86.94064691999998,-5.48893764,-18.49508424
3.33,333,0.012,-0.628,0.17,25.6685184,-1.5469866,9.453807000000001,87.23858508000002,-5.56915176,-18.50081382
3.34,334,-0.016,-0.696,0.232,28.934379,2.6929026,10.4278356,87.52506408,-5.6722842,-18.46643634
3.3499999999999996,335,0.006999999999999999,-0.799,0.261,27.3300966,6.3598338,10.5424272,87.79435434000001,-5.77541664,-18.39768138
3.36,336,0.083,-0.931,0.207,21.2567418,8.5370742,11.0007936,88.00061922,-5.87854908,-18.3060081
3.3699999999999997,337,0.16899999999999998,-1.071,0.07,13.8082878,7.9641161999999985,12.7196676,88.13239956,-6.00459984,-18.2200644
3.38,338,0.2,-1.186,-0.054000000000000006,11.9748222,2.3491278,16.959556799999998,88.24126158,-6.12492102,-18.17995734
3.3899999999999997,339,0.158,-1.198,-0.07400000000000001,21.5432208,-1.5469866,25.3247436,88.4647152,-6.3770225400000005,-18.191416500000006
3.4,340,0.063,-1.114,0.009000000000000001,41.1383844,2.6356068,33.8618178,88.87724496000001,-6.7093381800000005,-18.15130944
3.4099999999999997,341,-0.04,-1.004,0.123,50.76407879999999,8.9381448,40.164355799999996,89.37571842,-7.1046792000000005,-18.048177
3.42,342,-0.126,-0.942,0.183,44.0031744,8.7662574,42.5707794,89.8111665,-7.5286681200000025,-17.95650372
3.4299999999999997,343,-0.156,-0.913,0.163,26.7571386,9.969469199999999,38.7892566,90.09191592,-7.9182795599999976,-17.85337128
3.44,344,-0.139,-0.932,0.081,19.0222056,13.6936962,27.6738714,90.26380332,-8.193299399999999,-17.715861359999995
3.4499999999999997,345,-0.11,-1.025,-0.129,25.7258142,19.194093,9.8548776,90.49298652,-8.29643184,-17.52105564
3.46,346,-0.122,-1.178,-0.278,35.7525792,26.69984280000001,-10.4278356,90.813843,-8.19902898,-17.251765380000002
3.4699999999999998,347,-0.192,-1.361,-0.3670000000000001,29.4500412,36.03905820000001,-31.79916900000001,91.05448536,-7.89536124,-16.88507226
3.48,348,-0.275,-1.5630000000000002,-0.494,4.5263682,48.9306132,-47.4982182,91.02010788,-7.448453999999999,-16.38086922
3.4899999999999998,349,-0.361,-1.661,-0.59,-15.469866,61.7075766,-59.24385720000001,90.77373594,-6.886955159999999,-15.756345
3.5,350,-0.42,-1.582,-0.642,-16.272007199999994,70.473834,-65.14532460000001,90.51590484,-6.26816052,-15.05160666
3.51,351,-0.446,-1.433,-0.627,-7.7349330000000025,73.85428619999998,-63.311859,90.34974702,-5.66655462,-14.31249084
3.52,352,-0.328,-1.301,-0.517,-0.2291832000000001,78.03687959999998,-55.4623344,90.26380332,-5.13943326,-13.53326796
3.53,353,-0.168,-1.192,-0.382,2.8074942000000003,84.91237559999998,-43.77399120000001,90.18931878,-4.73263308,-12.68529012
3.54,354,0.0,-1.146,-0.239,7.5057497999999985,95.6266902,-29.9084076,90.17213004,-4.46334282,-11.73417984
3.55,355,0.155,-1.209,-0.145,18.907614000000002,104.564835,-17.18874,90.2695329,-4.325832900000001,-10.69712586
3.56,356,0.221,-1.2819999999999998,-0.122,23.4339822,112.24247220000001,-11.6310474,90.4127724,-4.24561878,-9.57985776
3.57,357,0.205,-1.298,-0.119,21.9442914,114.2478252,-9.9121734,90.53309358,-4.1883229800000015,-8.44540092
3.58,358,0.14400000000000002,-1.273,-0.114,18.7930224,112.013289,-9.6256944,90.62476686,-4.11956802,-7.328132819999999
3.59,359,0.039,-1.233,-0.102,14.8396122,109.3203864,-9.3965112,90.68206266,-4.0680017999999984,-6.2452422000000025
3.5999999999999996,360,-0.08,-1.175,-0.085,11.2872726,109.4922738,-7.7349330000000025,90.70498098,-4.03362432,-5.1566220000000005
3.61,361,-0.184,-1.108,-0.058,9.969469199999999,114.5916,-4.9274388,90.71071056,-4.02789474,-4.022165159999999
3.6199999999999997,362,-0.239,-1.015,-0.018000000000000002,8.59437,123.3005616,-1.3750992,90.69352182,-4.06227222,-2.79603504
3.63,363,-0.244,-0.929,0.013,7.448453999999999,132.23870639999998,2.8074942000000003,90.65914434,-4.1539455,-1.4896908000000002
3.6399999999999997,364,-0.21600000000000005,-0.8759999999999999,0.039,5.72958,140.89037219999997,7.2192707999999985,90.59611896,-4.27999626,-0.09167328
3.65,365,-0.16399999999999998,-0.847,0.053,2.578311,148.0523472,10.7716104,90.49298652,-4.4404245000000016,1.36364004
3.6599999999999997,366,-0.118,-0.8320000000000001,0.058,0.11459160000000004,155.04243480000005,14.667724800000002,90.34974702,-4.6409598,2.89916748
3.67,367,-0.094,-0.83,0.063,-0.5156622000000001,161.97522659999996,18.449247600000003,90.18931878,-4.87587258,4.50344988
3.6799999999999997,368,-0.073,-0.836,0.065,0.7448454000000001,167.4183276,21.2567418,90.03462012,-5.13943326,6.165028080000001
3.69,369,-0.124,-0.845,0.073,7.5057497999999985,172.3457664,21.7151082,89.93148768,-5.40299394,7.878172500000002
3.6999999999999997,370,-0.12,-0.836,0.109,9.5111028,180.65365740000001,22.173474600000002,89.83408482,-5.66655462,9.67153104
3.71,371,-0.07,-0.845,0.135,-0.4583664000000001,187.1280828,24.2361234,89.61636078000002,-5.953033619999999,11.52791496
3.7199999999999998,372,-0.023,-0.848,0.154,-10.313244,191.0241972,27.1009134,89.28404514,-6.25670136,13.43013552
3.73,373,-0.006999999999999999,-0.8759999999999999,0.139,-12.4904844,194.80572,29.4500412,88.91735202,-6.566098679999999,15.37246314
3.7399999999999998,374,-0.01,-0.885,0.112,-12.1467096,200.0769336,31.971056400000002,88.53347016000002,-6.898414319999999,17.36635698
3.75,375,0.0,-0.8740000000000001,0.079,-9.568398599999998,205.118964,33.4607472,88.16104745999998,-7.225000379999999,19.41754662
3.76,376,0.021,-0.8540000000000001,0.057,-5.5003968,209.8172196,32.7159018,87.8058135,-7.534397699999999,21.52030248
3.77,377,0.043,-0.836,0.06,-1.3178034,213.8852214,30.252182399999995,87.47349786,-7.80941754,23.6631654
3.78,378,0.073,-0.8059999999999999,0.114,3.4377480000000005,215.145729,27.215505,87.19274844,-8.02714158,25.82321706
3.79,379,0.098,-0.792,0.188,10.5424272,212.7966012,24.1788276,86.96929482,-8.21621772,27.9603504
3.8,380,0.122,-0.8109999999999999,0.268,17.3606274,211.30691040000002,20.5691922,86.81459616,-8.3651868,30.086024580000004
3.81,381,0.116,-0.889,0.303,19.480572,210.5047692,17.4179232,86.67135666,-8.479778399999999,32.2002396
3.82,382,0.066,-0.979,0.236,21.3140376,207.5826834,17.0168526,86.55103548,-8.58291084,34.28580672
3.83,383,-0.003,-1.062,0.115,17.9908812,202.5979488,20.511896399999998,86.40779597999996,-8.7089616,36.32553720000001
3.84,384,-0.018000000000000002,-1.04,0.08,12.605076,194.5765368,25.9549974,86.21299026,-8.89230816,38.28505356
3.8499999999999996,385,0.016,-0.975,0.09,12.9488508,189.1334358,27.7311672,86.01818454000002,-9.09284346,40.19873328
3.86,386,0.076,-0.931,0.077,8.9954406,185.6956878,25.78311,85.78327176,-9.27046044,42.07230594
3.8699999999999997,387,0.124,-0.86,0.08800000000000001,2.9220857999999996,180.48176999999998,22.8037284,85.49679276,-9.407970359999998,43.89431238
3.88,388,0.17,-0.804,0.13699999999999998,6.3025379999999975,177.1013178,17.4179232,85.25615040000002,-9.46526616,45.68194134
3.8899999999999997,389,0.196,-0.875,0.129,10.7143146,183.1746726,10.255948199999999,85.03842636,-9.46526616,47.5268661
3.9,390,0.18,-1.021,0.069,9.740286,195.665157,6.0733548,84.78632483999998,-9.407970359999998,49.48638246
3.9099999999999997,391,0.126,-1.161,-0.015,7.7922288,205.9211052,9.6256944,84.49984584,-9.3678633,51.55476083999999
3.92,392,0.079,-1.304,-0.092,5.5003968,210.04640279999998,23.7204612,84.18471894,-9.453807,53.68043501999999
3.9299999999999997,393,0.08900000000000001,-1.482,-0.159,-1.3750992,210.39017760000002,46.352302200000004,83.78364833999998,-9.746015580000002,55.82902752
3.94,394,0.151,-1.545,-0.265,-11.745639,210.2182902,72.70837019999998,83.25652698,-10.29032568,58.01199749999999
3.9499999999999997,395,0.153,-1.43,-0.336,-12.032117999999999,213.3695592,94.53806999999999,82.69502814,-11.02371192,60.26372244
3.96,396,0.134,-1.297,-0.363,-9.1100322,219.9012804,104.1064686,82.11061098,-11.82012354,62.60139108
3.9699999999999998,397,0.053,-1.228,-0.32,-10.7143146,222.3649998,101.5281576,81.46889802,-12.57069852,64.97916677999999
3.98,398,-0.073,-1.226,-0.263,-15.5844576,221.90663340000003,91.7305758,80.75270051999998,-13.18949316,67.35121290000001
3.9899999999999998,399,-0.18600000000000005,-1.255,-0.21,-14.2093584,220.9899006,76.31800559999998,80.03077343999998,-13.63067082,69.7003407
4.0,400,-0.25,-1.3090000000000002,-0.14300000000000002,-6.1879464,217.8386316,58.67089920000001,79.39479005999998,-13.88277234,71.99790228
4.01,401,-0.244,-1.365,-0.076,3.9534102,215.145729,41.9405256,78.86766870000002,-13.945797720000002,74.24389764
4.02,402,-0.163,-1.34,-0.011,13.8082878,216.9218988,28.1895336,78.44367978,-13.85412444,76.47843384000002
4.03,403,-0.07,-1.263,0.013,16.902261,225.5162688,19.595163600000006,78.04260918,-13.642129979999998,78.77599542
4.04,404,-0.001,-1.165,0.018000000000000002,13.464512999999998,237.8921616,15.4125702,77.58424278,-13.361380559999995,81.18814859999998
4.05,405,0.036000000000000004,-1.0590000000000002,0.031,10.1986524,247.0021938,13.5791046,77.08576932000003,-13.02333534,83.6805159
4.06,406,0.055,-0.955,0.061,9.8548776,251.7004494,12.9488508,76.59302543999998,-12.64518306,86.21299026
4.07,407,0.071,-0.882,0.104,9.8548776,253.0755486,13.2926256,76.11174072,-12.24984204,88.7511942
4.08,408,0.104,-0.8640000000000001,0.132,7.161975,251.815041,15.2406828,75.64191516,-11.84304186,91.2722094
4.09,409,0.16899999999999998,-0.885,0.122,1.432395,249.5805048,19.4232762,75.1147938,-11.47634874,93.77603586
4.1,410,0.26,-0.916,0.08900000000000001,-4.9274388,244.2519954,26.5852512,74.54756538,-11.16695142,96.23402568
4.109999999999999,411,0.329,-0.894,0.049,-11.2872726,233.1366102,36.955791,73.94595948,-10.95495696,98.61180138
4.12,412,0.366,-0.83,0.038,-14.381245800000002,219.5002098,47.0398518,73.34435358,-10.85182452,100.88071506
4.13,413,0.349,-0.778,0.053,-16.501190400000002,205.2908514,53.1705024,72.75993642,-10.8002583,103.02357798
4.14,414,0.312,-0.7490000000000001,0.044,-20.2254174,193.1441418,55.06126379999999,72.14687136,-10.8002583,105.05757887999998
4.1499999999999995,415,0.264,-0.7340000000000001,0.026,-25.496631,184.26329280000002,53.5142772,71.49942881999998,-10.78879914,106.9999065
4.16,416,0.224,-0.735,0.009000000000000001,-29.8511118,174.2938236,49.9619376,70.82906796,-10.75442166,108.83337209999999
4.17,417,0.196,-0.746,-0.002,-32.372127,161.80333919999995,45.263682,70.16443668000001,-10.69139628,110.53505736000002
4.18,418,0.172,-0.787,0.006999999999999999,-31.8564648,148.9117842,40.164355799999996,69.55137162,-10.58253426,112.08777354
4.1899999999999995,419,0.154,-0.8320000000000001,0.012,-25.7258142,138.59854019999997,34.7212548,69.00706152000001,-10.456483500000001,113.52589812
4.2,420,0.135,-0.902,0.031,-19.7097552,133.1554392,28.5333084,68.54869512,-10.2845961,114.88953816
4.21,421,0.115,-0.963,0.079,-17.8189938,129.7176912,22.2307704,68.11897662,-10.04968332,116.19015282
4.22,422,0.104,-1.003,0.079,-17.7044022,128.5144794,16.386598799999998,67.70071728,-9.75747474,117.46211958
4.2299999999999995,423,0.112,-1.022,0.015,-16.902261,130.634424,11.6310474,67.32829458,-9.38505204,118.72262718
4.24,424,0.149,-1.032,-0.06,-15.2406828,134.072172,8.9954406,66.95014230000001,-8.98971102,120.0060531
4.25,425,0.19,-1.05,-0.1,-11.6310474,135.67645439999998,9.5111028,66.61209708,-8.58291084,121.30666776
4.26,426,0.204,-1.062,-0.085,-6.9327918,133.3273266,12.261301199999998,66.33707724,-8.204758559999998,122.59009368
4.27,427,0.193,-1.072,0.003,3.0366774,121.6962792,17.131444199999994,66.18810816,-7.906820399999999,123.78184632
4.28,428,0.163,-1.125,0.117,11.0007936,107.7733998,19.308684600000007,66.17664900000001,-7.66044846,124.85327778
4.29,429,0.136,-1.188,0.171,18.6784308,95.4548028,18.449247600000003,66.22821522,-7.46564274,125.81011764
4.3,430,0.126,-1.257,0.185,29.5646328,85.82910840000002,15.469866,66.40583219999999,-7.288025760000001,126.66955464
4.31,431,0.105,-1.334,0.166,41.7113424,79.9849368,11.229976800000001,66.72095909999999,-7.0874904600000015,127.4545071
4.32,432,0.097,-1.461,0.121,51.10785360000001,77.46392159999998,6.0733548,67.13921844000001,-6.858307260000001,128.1993525
4.33,433,0.153,-1.581,-0.08199999999999999,47.269034999999995,78.32335859999998,0.7448454000000001,67.53455946,-6.5718282599999975,128.93273874
4.34,434,0.247,-1.531,-0.306,36.5547204,75.45856859999998,-5.5576926,67.81530888,-6.25097178,129.61455876
4.35,435,0.307,-1.355,-0.34600000000000003,34.7212548,66.86419860000001,-15.4125702,68.10178787999999,-5.87854908,130.18751676000002
4.36,436,0.337,-1.194,-0.405,38.67466500000001,56.72284200000001,-19.767051,68.43983309999999,-5.4946672199999975,130.64588315999998
4.37,437,0.26,-1.064,-0.431,34.8931422,47.3263308,-19.1367972,68.75496000000001,-5.1566220000000005,131.01830586
4.38,438,0.093,-0.96,-0.438,25.0955604,37.757932200000006,-16.272007199999994,68.96122488,-4.858683839999999,131.31624402
4.39,439,-0.035,-0.85,-0.371,13.9228794,36.7266078,-13.6936962,69.07581647999999,-4.60658232,131.61418218
4.3999999999999995,440,-0.104,-0.84,-0.334,3.2085648,42.7999626,-12.0894138,69.0700869,-4.3544808,131.96941614
4.41,441,-0.146,-0.927,-0.317,-6.417129599999999,51.3943326,-9.6256944,68.96695446,-4.0966497,132.41632338
4.42,442,-0.161,-1.087,-0.314,-9.969469199999999,60.7908438,-5.042030400000002,68.81798538,-3.85027776,132.96636306
4.43,443,-0.12,-1.223,-0.331,-16.386598799999998,71.44786260000002,2.7501984,68.60599092,-3.6382833,133.6424535
4.4399999999999995,444,-0.034,-1.295,-0.339,-15.813640800000002,75.916935,11.5737516,68.38826688,-3.4950437999999995,134.38729890000002
4.45,445,0.05,-1.3019999999999998,-0.312,-12.032117999999999,80.5578948,20.340009,68.20492032,-3.4091001000000003,135.21235842000002
4.46,446,0.1,-1.237,-0.255,-3.8388186,85.42803780000001,27.903054600000004,68.10178787999999,-3.37472262,136.10617290000002
4.47,447,0.085,-1.119,-0.203,2.4064236,88.23553199999998,32.142943800000005,68.06168081999999,-3.3689930400000003,137.04582402
4.4799999999999995,448,0.034,-1.03,-0.187,5.958763200000001,88.23553199999998,34.5493674,68.07313998,-3.37472262,137.99120471999998
4.49,449,-0.013,-0.957,-0.188,9.0527364,85.8864042,35.7525792,68.10178787999999,-3.4091001000000003,138.91939668
4.5,450,-0.033,-0.908,-0.183,11.8029348,82.33406459999998,36.2682414,68.1533541,-3.46066632,139.81894074
4.51,451,0.012,-0.898,-0.163,16.272007199999994,76.1461182,37.4714532,68.25648654,-3.54661002,140.66691858
4.52,452,0.06,-0.8909999999999999,-0.14800000000000002,18.162768600000003,70.87490460000002,39.3049188,68.3825373,-3.6669312000000014,141.47478936
4.53,453,0.125,-0.893,-0.135,22.6891368,67.2079734,40.8519054,68.57161344,-3.79298196,142.24828266000003
4.54,454,0.17,-0.831,-0.11,24.4653066,63.5410422,41.4821592,68.76068957999999,-3.9648693599999993,142.98739848
4.55,455,0.184,-0.7759999999999999,-0.096,25.210152,58.5563076,40.5654264,68.96122488,-4.14248634,143.68067766
4.56,456,0.16699999999999998,-0.6920000000000001,-0.09,25.78311,52.597544400000004,38.27359439999999,69.17321934,-4.325832900000001,144.31093146
4.57,457,0.114,-0.637,-0.094,26.069589,45.72204840000001,35.2942128,69.39094338,-4.50344988,144.86670071999995
4.58,458,0.045,-0.595,-0.095,26.298772200000002,39.9924684,31.913760600000003,69.62585616,-4.65814854,145.35371502
4.59,459,-0.046,-0.588,-0.092,24.4653066,35.46610020000001,28.1322378,69.83212104,-4.80711762,145.78343352
4.6,460,-0.104,-0.617,-0.107,20.8556712,34.60666320000001,25.1528562,70.00400843999999,-4.93316838,146.19596328
4.61,461,-0.142,-0.64,-0.124,21.027558600000006,34.2055926,23.7204612,70.18162542,-5.042030400000002,146.60276346
4.62,462,-0.13699999999999998,-0.6729999999999999,-0.102,23.3193906,31.8564648,22.6891368,70.37643114,-5.1566220000000005,146.98091574
4.63,463,-0.09,-0.733,-0.05,27.2728008,27.7311672,22.173474600000002,70.65145097999998,-5.27694318,147.31323138
4.64,464,-0.043,-0.777,0.038,29.0489706,19.194093,22.0015872,70.92074124,-5.42018268,147.57106248
4.6499999999999995,465,-0.011,-0.772,0.17600000000000002,31.22621100000001,10.886202,21.4286292,71.21867940000001,-5.5863405,147.74867946
4.66,466,-0.005,-0.8140000000000001,0.26,36.32553720000001,4.297185,20.8556712,71.57391336,-5.76968706,147.85754148
4.67,467,-0.025,-0.933,0.249,38.10170700000001,1.3750992,19.2513888,71.95206564,-5.94157446,147.93202602
4.68,468,-0.048,-1.054,0.189,31.3980984,2.2345362,16.7303736,72.35886581999998,-6.079084379999999,148.00078098
4.6899999999999995,469,-0.068,-1.152,0.125,24.923673,2.9220857999999996,14.5531332,72.60523776,-6.205135139999999,148.06953593999995
4.7,470,-0.097,-1.205,0.099,23.9496444,4.1252976000000015,13.2926256,72.84015054,-6.31972674,148.15547964
4.71,471,-0.142,-1.213,0.08900000000000001,25.6685184,6.016058999999999,12.5477802,73.09225205999998,-6.4228591800000014,148.2528825
4.72,472,-0.203,-1.193,0.1,26.8717302,7.6203414,10.3705398,73.35008316,-6.497343719999999,148.35601494
4.7299999999999995,473,-0.247,-1.194,0.101,27.215505,9.167328,5.443101,73.67093964,-6.53745078,148.45914738000005
4.74,474,-0.249,-1.217,0.119,28.7051958,10.1986524,-1.3178034,73.95168906,-6.497343719999999,148.55655024
4.75,475,-0.209,-1.195,0.117,36.096354,12.3758928,-9.6829902,74.30692302,-6.37129296,148.65395310000005
4.76,476,-0.172,-1.265,-0.027000000000000003,40.33624320000001,16.673077799999998,-13.8082878,74.69653446000002,-6.19367598,148.78000386
4.77,477,-0.112,-1.412,-0.266,33.6899304,21.6578124,-13.6364004,75.01739094,-6.01032942,148.95762084
4.78,478,0.006,-1.557,-0.488,26.298772200000002,23.4339822,-7.7922288,75.2580333,-5.872819499999999,149.16388572
4.79,479,0.157,-1.611,-0.6779999999999999,28.934379,16.7303736,4.8701430000000006,75.53305314,-5.87854908,149.34150269999995
4.8,480,0.335,-1.571,-0.757,30.4240698,12.1467096,17.8762896,75.81953214,-6.02178858,149.50766052
4.81,481,0.431,-1.367,-0.705,24.8663772,14.32395,25.8977016,76.04871534,-6.23951262,149.7139254
4.82,482,0.308,-1.039,-0.5770000000000001,23.6058696,13.8655836,23.204799,76.26643938,-6.428588760000001,149.90300154
4.83,483,0.145,-0.935,-0.458,27.1009134,13.750992000000002,15.2979786,76.47270426,-6.5088028799999975,150.07488894
4.84,484,-0.026,-0.964,-0.399,23.14750320000001,18.7930224,11.6310474,76.68469872,-6.57755784,150.28688340000005
4.85,485,-0.17800000000000002,-1.074,-0.404,13.750992000000002,20.8556712,13.2353298,76.79356074,-6.66350154,150.52179618
4.86,486,-0.271,-1.206,-0.394,7.3911582,23.14750320000001,16.157415599999997,76.8336678,-6.77236356,150.78535686
4.87,487,-0.303,-1.281,-0.388,2.578311,24.8090814,18.6784308,76.82793822,-6.9041438999999984,151.07183586000005
4.88,488,-0.308,-1.288,-0.377,-1.2032118,24.4080108,16.615782,76.77064241999999,-7.030194660000001,151.35258528
4.89,489,-0.272,-1.226,-0.348,-3.151269,24.4080108,9.6829902,76.70188746,-7.076031300000001,151.61041638
4.8999999999999995,490,-0.175,-1.114,-0.28600000000000003,-3.8961144,26.0122932,1.145916,76.62740292000002,-7.03592424,151.86824747999995
4.91,491,-0.065,-1.036,-0.246,-8.3651868,26.9863218,-8.307891,76.50708174,-6.898414319999999,152.10888984
4.92,492,0.063,-0.962,-0.203,-9.2819196,26.5279554,-16.615782,76.38103097999998,-6.686419860000001,152.33234346
4.93,493,0.15,-0.8809999999999999,-0.17800000000000002,-7.8495246,25.7258142,-23.4339822,76.27789854,-6.348374640000001,152.51569002
4.9399999999999995,494,0.179,-0.799,-0.171,-5.6149884000000005,23.777757,-28.4187168,76.20341400000002,-6.0275181600000005,152.68184784
4.95,495,0.162,-0.7509999999999999,-0.172,-2.6929026,20.3973048,-32.2002396,76.15757735999998,-5.6722842,152.80216902
4.96,496,0.132,-0.75,-0.171,-0.11459160000000004,16.615782,-35.17962120000001,76.14611819999998,-5.2998615,152.88238314
4.97,497,0.117,-0.759,-0.162,1.2605076000000002,11.8029348,-37.0130868,76.15184778,-4.91597964,152.91103103999995
4.9799999999999995,498,0.1,-0.759,-0.138,1.3750992,7.0473834,-37.1849742,76.18049568,-4.50917946,152.88238314
4.99,499,0.098,-0.7559999999999999,-0.113,0.4010706,2.0053530000000004,-35.0650296,76.18622526,-4.16540466,152.81935776
5.0,500,0.113,-0.757,-0.09,-1.8334656000000005,-2.4064236,-31.3980984,76.1747661,-3.8674665,152.72195490000001
5.01,501,0.118,-0.7490000000000001,-0.083,-4.9847345999999995,-6.016058999999999,-27.3873924,76.12892946000002,-3.61536498,152.60163372
5.02,502,0.118,-0.733,-0.091,-6.703608600000001,-9.224623800000002,-22.9756158,76.07163366,-3.4148296799999995,152.45839422
5.03,503,0.12,-0.721,-0.096,-7.333862400000001,-12.5477802,-19.0795014,76.02006744,-3.22002396,152.28077724
5.04,504,0.118,-0.7090000000000001,-0.123,-11.172681,-16.272007199999994,-16.4438946,75.92266457999997,-3.0997027800000003,152.08597152
5.05,505,0.117,-0.685,-0.149,-9.8548776,-21.4286292,-14.9542038,75.83672088,-3.00229992,151.83959958
5.06,506,0.145,-0.667,-0.131,-4.9847345999999995,-24.923673,-14.495837400000001,75.80234340000001,-2.91635622,151.56457974
5.07,507,0.153,-0.649,-0.044,3.4950437999999995,-27.3300966,-14.2093584,75.85390962,-2.8361421,151.26664158
5.08,508,0.122,-0.63,0.034,5.443101,-29.1062664,-15.469866,75.95704206,-2.72728008,150.9457851
5.09,509,0.075,-0.622,0.094,13.0634424,-28.6479,-16.4438946,76.11174072,-2.62987722,150.6306582
5.1,510,0.024,-0.66,0.175,16.8449652,-29.0489706,-16.7303736,76.30081686,-2.52674478,150.30980172000002
5.11,511,-0.009000000000000001,-0.759,0.188,17.8189938,-31.1689152,-16.2147114,76.49562258,-2.42934192,149.97175650000003
5.12,512,-0.005,-0.903,0.158,19.0795014,-33.4607472,-15.527161800000002,76.71334662,-2.34339822,149.61652254
5.13,513,-0.004,-1.062,0.139,19.938938399999998,-35.7525792,-15.2979786,76.98263688,-2.2631841,149.23264067999997
5.14,514,-0.023,-1.217,0.149,18.162768600000003,-35.695283399999994,-15.985528200000001,77.18890176,-2.17151082,148.85448839999995
5.1499999999999995,515,-0.012,-1.293,0.111,10.8289062,-28.81978740000001,-17.4179232,77.31495251999998,-2.05691922,148.53936149999996
5.16,516,-0.01,-1.297,0.08800000000000001,8.021412000000002,-18.2200644,-18.7357266,77.40662579999999,-1.90795014,148.32163746
5.17,517,-0.031,-1.279,0.09,10.026765,-7.448453999999999,-18.2773602,77.50975824000002,-1.7475218999999995,148.21277544
5.18,518,-0.067,-1.268,0.105,11.917526400000002,-1.0313244,-13.8655836,77.68737522,-1.6157415599999996,148.17266838
5.1899999999999995,519,-0.084,-1.262,0.111,8.9954406,1.3750992,-6.3598338,77.7790485,-1.5527161800000002,148.17266838
5.2,520,-0.078,-1.26,0.065,5.443101,4.0680017999999984,0.572958,77.83634430000002,-1.5469866,148.21277544
5.21,521,-0.066,-1.29,-0.031,11.172681,8.8235532,3.380452200000001,77.94520632,-1.56417534,148.31017830000005
5.22,522,-0.044,-1.351,-0.181,21.0848544,11.6310474,2.1772404,78.1514712,-1.56417534,148.43049948
5.2299999999999995,523,-0.024,-1.308,-0.254,29.392745399999995,8.7089616,-2.4637194,78.44367978,-1.5183387000000002,148.5107136
5.24,524,-0.006999999999999999,-1.243,-0.299,30.65325300000001,4.6982556,-9.2819196,78.7530771,-1.41520626,148.53936149999996
5.25,525,-0.029,-1.199,-0.397,33.6326346,1.7188740000000002,-15.6417534,79.0968519,-1.2605076000000002,148.53363192
5.26,526,-0.115,-1.127,-0.465,35.8671708,0.2291832000000001,-20.3973048,79.45781544,-1.05424272,148.49925444000004
5.27,527,-0.221,-1.057,-0.445,32.2002396,-0.1718874,-25.2674478,79.7844015,-0.8078707799999998,148.45914738000005
5.28,528,-0.27,-1.016,-0.401,22.5745452,1.7188740000000002,-32.2002396,79.97347764,-0.52712136,148.43049948
5.29,529,-0.238,-1.02,-0.358,11.229976800000001,6.417129599999999,-41.023792799999995,80.08806924,-0.12032118,148.4247699
5.3,530,-0.16,-1.035,-0.366,-2.291832,9.740286,-47.3263308,80.05942134,0.35523396,148.44195864
5.31,531,-0.041,-1.079,-0.336,-13.120738199999998,10.6570188,-47.7846972,79.92764100000002,0.83651868,148.46487696
5.32,532,0.092,-1.143,-0.332,-20.454600600000006,8.8235532,-44.977203,79.71564654,1.2891555000000001,148.47060654
5.33,533,0.208,-1.179,-0.342,-20.511896399999998,6.8182002000000015,-39.877876799999996,79.49219292000002,1.7074148399999998,148.45914738000005
5.34,534,0.289,-1.1740000000000002,-0.304,-14.495837400000001,5.6149884000000005,-32.486718599999996,79.34322384000002,2.0340008999999997,148.4534178
5.35,535,0.341,-1.2,-0.276,-6.3025379999999975,6.130650599999999,-22.1161788,79.27446888,2.25745452,148.47633612
5.36,536,0.369,-1.224,-0.235,0.8594370000000001,5.5003968,-10.0840608,79.28592804,2.36631654,148.5107136
5.37,537,0.294,-1.143,-0.16699999999999998,2.9220857999999996,3.4950437999999995,0.1718874,79.31457594,2.36631654,148.54509108
5.38,538,0.14,-1.053,-0.114,4.3544808,0.4583664000000001,8.307891,79.4119788,2.3204799,148.56227982
5.39,539,0.018000000000000002,-0.984,-0.086,1.7188740000000002,-4.0680017999999984,12.834259199999998,79.42916754,2.18869956,148.54509108
5.3999999999999995,540,-0.043,-0.916,-0.068,-3.8388186,-7.448453999999999,13.8655836,79.38906048,2.03973048,148.49925444000004
5.41,541,-0.068,-0.8590000000000001,-0.051,-7.7922288,-8.078707799999998,12.9488508,79.30884636,1.90222056,148.44195864
5.42,542,-0.076,-0.823,-0.039,-9.224623800000002,-5.3285094000000015,12.032117999999999,79.21717308,1.77044022,148.41331074
5.43,543,-0.077,-0.784,-0.036000000000000004,-9.453807000000001,-0.1718874,12.1467096,79.14841812,1.62147114,148.43622906000004
5.4399999999999995,544,-0.07,-0.753,-0.034,-8.7662574,5.3858052,13.0061466,79.06247442,1.50687954,148.5107136
5.45,545,-0.066,-0.7290000000000001,-0.033,-8.5370742,9.797581800000001,14.5531332,78.97653072,1.3750992,148.63676436
5.46,546,-0.061,-0.708,-0.039,-9.568398599999998,12.605076,16.673077799999998,78.87912786,1.2318597,148.78573344
5.47,547,-0.07,-0.6940000000000001,-0.036000000000000004,-11.8029348,14.7823164,19.2513888,78.75880667999998,1.07143146,148.96908000000005
5.4799999999999995,548,-0.078,-0.6829999999999999,-0.02,-13.407217200000002,16.7876694,20.626488,78.64421508000002,0.8823553199999999,149.17534488
5.49,549,-0.102,-0.69,0.001,-12.7769634,20.511896399999998,21.2567418,78.51243473999997,0.70473834,149.41025766
5.5,550,-0.119,-0.7070000000000001,0.029,-11.3445684,26.929026,20.798375399999998,78.39784313999998,0.55003968,149.7139254
5.51,551,-0.141,-0.727,0.039,-9.6256944,36.38283300000001,19.308684600000007,78.30044028,0.42398892,150.10353684
5.52,552,-0.161,-0.737,0.041,-7.5630456000000015,47.4409224,16.615782,78.22022616,0.3437748,150.60201030000005
5.53,553,-0.183,-0.737,0.03,-4.4117766,56.436363,12.9488508,78.19157826,0.28647900000000004,151.18069788
5.54,554,-0.187,-0.725,0.012,-2.2345362,61.36380179999999,9.3392154,78.16865994000003,0.29793816,151.79376294
5.55,555,-0.191,-0.7190000000000001,0.0,3.4377480000000005,62.16594300000001,6.130650599999999,78.19730784,0.34950438,152.41255758
5.56,556,-0.166,-0.726,0.032,4.9847345999999995,59.0719698,4.1825934,78.24314448,0.41252976,152.99697473999996
5.57,557,-0.085,-0.752,-0.008,9.453807000000001,55.06126379999999,4.6982556,78.33481775999998,0.46409598,153.54128483999997
5.58,558,-0.016,-0.8190000000000001,0.083,10.4851314,48.3003594,5.0993262,78.495246,0.4984734599999999,154.02256956000005
5.59,559,0.08,-0.934,0.07200000000000001,8.880849000000003,41.8832298,8.021412000000002,78.58118970000002,0.49274388,154.45228806
5.6,560,0.152,-1.089,-0.032,3.2085648,29.621928600000004,12.4904844,78.61556718,0.41825934,154.76168538
5.61,561,0.24,-1.17,-0.08900000000000001,2.5210152000000003,15.2406828,17.7044022,78.6384855,0.27501984,154.94503193999995
5.62,562,0.321,-1.252,-0.122,3.3231564,-4.0680017999999984,21.5432208,78.67286298,0.057295800000000015,154.95076152
5.63,563,0.4,-1.207,-0.067,0.9167328,-25.496631,19.8816426,78.71297003999999,-0.11459160000000004,154.73303748
5.64,564,0.387,-1.045,0.087,5.5576926,-30.080295,11.172681,78.77599542,-0.27501984,154.45801763999995
5.6499999999999995,565,0.252,-1.025,0.177,10.1986524,-27.5592798,2.3491278,78.88485744,-0.33804522,154.19445696
5.66,566,0.055,-1.118,0.173,13.0634424,-25.55392680000001,-0.9167328,79.02236736,-0.3724227000000001,153.94808502
5.67,567,-0.188,-1.304,0.014,22.0015872,-17.761698000000006,-1.5469866,79.25155056000001,-0.38388186,153.77046804000003
5.68,568,-0.401,-1.577,-0.22,29.9657034,-6.1879464,1.5469866,79.55521829999998,-0.41252976,153.71890182
5.6899999999999995,569,-0.467,-1.727,-0.477,30.9970278,-3.7815227999999994,11.917526400000002,79.8703452,-0.53285094,153.70171308000005
5.7,570,-0.308,-1.5830000000000002,-0.591,28.0176462,-3.9534102,25.3247436,80.1568242,-0.7849524600000001,153.71317224
5.71,571,-0.058,-1.395,-0.583,28.074942,2.6356068,30.8251404,80.43757362,-1.07716104,153.79338636
5.72,572,0.139,-1.22,-0.522,27.2728008,8.880849000000003,30.5386614,80.71259346,-1.36364004,153.93089628
5.7299999999999995,573,0.228,-0.999,-0.393,24.8090814,15.2406828,27.6165756,80.91885834,-1.56417534,154.11997242
5.74,574,0.211,-0.8959999999999999,-0.255,20.454600600000006,22.2880662,25.2674478,81.11366405999998,-1.78189938,154.37780352
5.75,575,0.147,-0.943,-0.241,10.255948199999999,26.1268848,25.210152,81.20533734,-1.99389384,154.67574168
5.76,576,0.046,-1.108,-0.305,-1.0313244,28.7051958,27.6738714,81.18241902,-2.22880662,154.99659816000005
5.77,577,-0.059,-1.294,-0.358,-9.6256944,28.4187168,33.518043,81.06782741999999,-2.52674478,155.32891379999995
5.78,578,-0.126,-1.3730000000000002,-0.379,-13.8082878,24.8090814,42.28430039999999,80.90166959999998,-2.91062664,155.63258154
5.79,579,-0.166,-1.29,-0.365,-15.6417534,21.772404,43.831287,80.72405262,-3.31742682,155.91333096
5.8,580,-0.177,-1.178,-0.343,-14.32395,20.340009,37.9298196,80.55789480000001,-3.66120162,156.17689163999995
5.81,581,-0.181,-1.057,-0.309,-11.0007936,16.615782,27.215505,80.43184404,-3.90757356,156.38315652
5.82,582,-0.145,-0.966,-0.244,-6.990087599999999,10.599723,13.6936962,80.35162992,-4.02789474,156.50347770000005
5.83,583,-0.092,-0.924,-0.2,-3.7815227999999994,2.2345362,-0.5156622000000001,80.24849748,-4.022165159999999,156.5321256
5.84,584,-0.034,-0.887,-0.161,-0.7448454000000001,-3.4377480000000005,-14.266654199999998,80.24849748,-3.88465524,156.4748298
5.85,585,0.008,-0.867,-0.128,0.1718874,-4.7555514,-25.3820394,80.25422705999998,-3.6440128800000013,156.38315652
5.86,586,0.044,-0.8540000000000001,-0.114,-0.5156622000000001,-3.2658606,-34.091001,80.25422705999998,-3.3116972399999995,156.29721282
5.87,587,0.071,-0.846,-0.104,-0.572958,-0.7448454000000001,-37.757932200000006,80.25422705999998,-2.94500412,156.22845786
5.88,588,0.101,-0.8290000000000001,-0.094,0.2291832000000001,0.4010706,-37.6433406,80.26568621999998,-2.53247436,156.1597029
5.89,589,0.133,-0.7929999999999999,-0.08800000000000001,1.145916,-0.5156622000000001,-35.17962120000001,80.27714538,-2.18869956,156.09667752
5.8999999999999995,590,0.161,-0.75,-0.086,2.1772404,-4.1825934,-31.5699858,80.30579328,-1.88503182,156.00500424
5.91,591,0.171,-0.715,-0.073,3.4377480000000005,-10.8289062,-27.788463,80.34590034,-1.6272007199999998,155.85603516
5.92,592,0.165,-0.6940000000000001,-0.052000000000000005,3.2085648,-19.5378678,-24.1788276,80.3860074,-1.41520626,155.62112238
5.93,593,0.14300000000000002,-0.691,-0.024,2.1199446,-27.6165756,-20.8556712,80.43184404,-1.22613012,155.31745464
5.9399999999999995,594,0.113,-0.698,-0.001,-0.7448454000000001,-35.46610020000001,-17.4179232,80.43757362,-1.10007936,154.93930236
5.95,595,0.094,-0.715,0.023,-4.010706000000001,-42.91455420000001,-15.2979786,80.40892572,-1.01413566,154.49239512
5.96,596,0.081,-0.7170000000000001,0.026,-6.5317212,-48.0711762,-14.610429000000002,80.3573595,-0.93392154,153.99965124
5.97,597,0.079,-0.705,0.022,-4.7555514,-52.0818822,-13.9228794,80.32298202,-0.87089616,153.4668003
5.9799999999999995,598,0.092,-0.6970000000000001,0.027000000000000003,-1.9480572,-54.14453099999999,-13.2353298,80.34017076,-0.79641162,152.91103103999995
5.99,599,0.112,-0.695,0.054000000000000006,2.0053530000000004,-54.6601932,-12.4331886,80.37454824,-0.75057498,152.35526178
6.0,600,0.13,-0.6940000000000001,0.085,3.5523396000000003,-56.0925882,-11.0007936,80.42611446000002,-0.72192708,151.78803336
6.01,601,0.115,-0.7020000000000001,0.118,6.1879464,-57.7541664,-9.740286,80.50632858,-0.70473834,151.20361619999997
6.02,602,0.08900000000000001,-0.758,0.168,10.4278356,-58.38442020000001,-9.6256944,80.62664975999998,-0.6875496,150.61919904
6.03,603,0.061,-0.8640000000000001,0.191,8.136003599999999,-60.2178858,-10.7143146,80.77561884,-0.64744254,150.01186356
6.04,604,0.04,-0.969,0.193,2.291832,-63.48374640000001,-13.120738199999998,80.8157259,-0.6016058999999999,149.37015060000004
6.05,605,0.01,-1.074,0.163,-0.8594370000000001,-64.4004792,-16.558486199999994,80.82145548,-0.52712136,148.71124890000004
6.06,606,-0.034,-1.17,0.094,-1.6042823999999998,-58.3271244,-20.340009,80.8157259,-0.4010706000000001,148.109643
6.07,607,-0.086,-1.198,0.005,5.6149884000000005,-41.4248634,-23.5485738,80.88448086000002,-0.22345362,147.66846533999995
6.08,608,-0.154,-1.198,0.025,14.8396122,-21.829699800000004,-24.1788276,81.06209784,-0.04010706,147.42209340000005
6.09,609,-0.205,-1.116,0.092,22.173474600000002,-2.291832,-19.308684600000007,81.29128104,0.14323950000000002,147.37052718
6.1,610,-0.189,-1.072,0.181,16.386598799999998,1.2605076000000002,-4.1825934,81.45743886,0.18907614,147.38198634
6.11,611,-0.131,-1.072,0.16399999999999998,-1.145916,-3.0939732,10.1986524,81.4459797,0.08021412,147.3647976
6.12,612,-0.075,-1.068,0.093,-4.5263682,-9.3965112,18.3919518,81.40014306,-0.10313244,147.29604264
6.13,613,-0.017,-1.152,-0.006,6.417129599999999,-19.1367972,17.7044022,81.48035718,-0.29793816,147.1356144
6.14,614,0.034,-1.285,-0.154,22.86102420000001,-26.298772200000002,8.078707799999998,81.72099954000002,-0.40680018,146.88924246
6.15,615,0.094,-1.327,-0.265,35.9244666,-27.215505,-7.448453999999999,82.08769266,-0.36096354,146.61422262
6.16,616,0.097,-1.283,-0.344,43.48751220000001,-23.6631654,-23.7204612,82.5345999,-0.14896908,146.35639152000005
6.17,617,-0.034,-1.268,-0.465,47.2117392,-23.2620948,-35.695283399999994,83.01588462000002,0.18334656,146.08710126
6.18,618,-0.205,-1.254,-0.4970000000000001,45.3209778,-25.1528562,-45.0917946,83.45706228,0.59014674,145.79489268
6.1899999999999995,619,-0.331,-1.264,-0.44,34.4347758,-23.376686399999997,-56.3790672,83.80656666,1.13445684,145.50841368000005
6.2,620,-0.329,-1.249,-0.407,14.381245800000002,-17.7044022,-65.7182826,83.94980616,1.77044022,145.26777132
6.21,621,-0.221,-1.203,-0.4270000000000001,-2.8074942000000003,-16.042824000000003,-67.7236356,83.9096991,2.42361234,145.03858812
6.22,622,-0.057,-1.196,-0.415,-12.318597,-21.6005166,-61.36380179999999,83.77218918,3.0137590800000003,144.76356828
6.2299999999999995,623,0.099,-1.203,-0.365,-16.2147114,-26.298772200000002,-51.5089242,83.57165388,3.50650296,144.4427118
6.24,624,0.213,-1.2,-0.31,-13.178034,-24.8663772,-41.023792799999995,83.4226848,3.89038482,144.15050322
6.25,625,0.306,-1.243,-0.239,-4.1252976000000015,-21.1421502,-30.8824362,83.36538900000002,4.17686382,143.90986086
6.26,626,0.3720000000000001,-1.3159999999999998,-0.17600000000000002,7.5057497999999985,-16.959556799999998,-19.0795014,83.42841438,4.34875122,143.72078472
6.27,627,0.335,-1.275,-0.115,12.5477802,-14.037471,-4.4117766,83.54873556,4.3831287,143.57754522
6.28,628,0.188,-1.215,-0.079,11.8602306,-15.9282324,6.875496000000001,83.66905674,4.30864416,143.42857614
6.29,629,0.016,-1.15,-0.047,8.5370742,-18.5638392,14.32395,83.74927086,4.1539455,143.25668874000004
6.3,630,-0.114,-1.0759999999999998,-0.044,4.1825934,-18.9649098,17.6471064,83.77791876,3.9648693599999993,143.09053092
6.31,631,-0.17800000000000002,-1.014,-0.042,0.8594370000000001,-17.475219,17.8189938,83.78364833999998,3.77579322,142.93583225999996
6.32,632,-0.196,-0.953,-0.033,-2.4064236,-12.891555,15.985528200000001,83.75500044,3.60390582,142.82697024
6.33,633,-0.18,-0.867,-0.009000000000000001,-3.4950437999999995,-4.8701430000000006,13.2353298,83.74927086,3.36326346,142.8097815
6.34,634,-0.14300000000000002,-0.795,0.006999999999999999,-2.0626488000000003,4.6409598,11.1153852,83.73208212,3.26013102,142.86707729999995
6.35,635,-0.104,-0.74,0.014,-2.1772404,12.891555,10.7716104,83.71489338,3.1627281600000003,143.00458722000005
6.36,636,-0.07400000000000001,-0.706,0.019,-5.72958,18.621135,12.3758928,83.66905674,3.05386614,143.19939294
6.37,637,-0.061,-0.6859999999999999,0.014,-10.255948199999999,23.8923486,15.3552744,83.57165388,2.9220858,143.45149446
6.38,638,-0.07400000000000001,-0.682,0.008,-13.178034,28.8770832,19.308684600000007,83.46279186000002,2.73300966,143.76089178
6.39,639,-0.102,-0.7070000000000001,0.002,-13.980175199999998,33.8618178,23.5485738,83.33101152,2.53247436,144.12185532
6.4,640,-0.128,-0.752,0.001,-12.4904844,39.9924684,26.8717302,83.21641991999998,2.29756158,144.54584424
6.41,641,-0.147,-0.7879999999999999,0.023,-9.797581800000001,48.3576552,28.2468294,83.13047622,2.0626488000000003,145.05004728
6.42,642,-0.154,-0.7929999999999999,0.049,-6.2452422,58.72819499999999,26.929026,83.07891,1.85065434,145.66311234
6.43,643,-0.146,-0.779,0.081,-5.3285094000000015,67.66633979999999,23.032911600000002,83.06172126,1.6615782,146.35639152000005
6.4399999999999995,644,-0.121,-0.747,0.058,-7.6203414,72.9948492,18.2773602,82.99296629999998,1.5527161800000002,147.09550733999995
6.45,645,-0.092,-0.728,0.036000000000000004,-11.688343199999998,72.9948492,14.0947668,82.88410428,1.4782316400000002,147.83462316
6.46,646,-0.07400000000000001,-0.698,0.008,-13.2353298,69.32791800000001,11.516455800000001,82.75805352,1.432395,148.52790234
6.47,647,-0.054000000000000006,-0.674,0.011,-11.8029348,65.7755784,10.7143146,82.6491915,1.38655836,149.18680404
6.4799999999999995,648,-0.056,-0.6509999999999999,0.059,-5.7868758000000025,62.45242200000001,11.2872726,82.62627318,1.32353298,149.81705784000005
6.49,649,-0.023,-0.674,0.08199999999999999,2.86479,60.9627312,13.407217200000002,82.66065066,1.25477802,150.43585248
6.5,650,-0.009000000000000001,-0.737,0.147,8.021412000000002,60.7908438,14.667724800000002,82.74659436,1.1688343199999998,151.04891754
6.51,651,0.016,-0.8270000000000001,0.202,12.0894138,60.9627312,15.813640800000002,82.87264512,1.07143146,151.67344176
6.52,652,0.026,-0.982,0.133,9.969469199999999,58.8427866,18.048177,82.98150714,0.95111028,152.27504766
6.53,653,0.016,-1.099,-0.001,3.6096354,47.4409224,23.491278,83.03307336,0.76203414,152.76779154000005
6.54,654,0.02,-1.144,0.0,2.9220857999999996,31.340802600000004,30.252182399999995,83.06172126,0.49274388,153.11156634
6.55,655,0.062,-1.1909999999999998,0.011,6.3025379999999975,16.386598799999998,38.7892566,83.13047622,0.12605075999999998,153.32356080000002
6.56,656,0.121,-1.156,0.075,12.605076,8.8235532,44.0031744,83.25652698,-0.29220857999999994,153.46107072
6.57,657,0.136,-1.06,0.157,18.6784308,11.229976800000001,42.5134836,83.44560312,-0.69900876,153.62149896
6.58,658,0.103,-1.073,0.138,17.6471064,18.6784308,36.955791,83.65186800000002,-1.0313244,153.84495257999995
6.59,659,0.065,-1.195,0.005,8.59437,24.2361234,32.0283522,83.72635254,-1.32353298,154.11997242
6.6,660,0.026,-1.298,-0.138,6.3598338,25.0955604,29.8511118,83.78364833999998,-1.59855282,154.39499226
6.61,661,0.002,-1.399,-0.263,11.0007936,25.6112226,31.6845774,83.88678078000002,-1.8907613999999997,154.68720084
6.62,662,-0.01,-1.531,-0.387,10.7716104,27.501984000000004,38.1590028,83.97845406,-2.24599536,154.99659816000005
6.63,663,0.043,-1.636,-0.508,0.4583664000000001,32.486718599999996,48.3576552,83.95553574,-2.6929026,155.36902086
6.64,664,0.195,-1.618,-0.5720000000000001,-7.3911582,34.7785506,60.733548000000006,83.85813288,-3.27159018,155.77009146
6.65,665,0.368,-1.4680000000000002,-0.541,-5.5003968,35.236917,70.7030172,83.77218918,-3.94195104,156.19408038
6.66,666,0.371,-1.311,-0.495,-3.4377480000000005,34.7785506,74.65642740000001,83.70343421999998,-4.65241896,156.61806930000003
6.67,667,0.232,-1.157,-0.485,-4.583664,32.945085,72.07811640000001,83.61749052,-5.33423898,157.0191399
6.68,668,0.043,-1.067,-0.428,-4.7555514,29.1635622,62.9107884,83.49143975999998,-5.91865614,157.38010344
6.6899999999999995,669,-0.113,-1.104,-0.384,-4.3544808,24.694489800000003,48.8733174,83.41122564,-6.382752120000001,157.6780416
6.7,670,-0.211,-1.188,-0.38,-5.5003968,23.5485738,33.5753388,83.31955236,-6.69214944,157.94733186000005
6.71,671,-0.256,-1.265,-0.34600000000000003,-2.4064236,27.1009134,19.8816426,83.26225656,-6.86403684,158.23954043999996
6.72,672,-0.226,-1.293,-0.28300000000000003,4.010706000000001,32.0283522,10.599723,83.25652698,-6.94425096,158.57185608
6.7299999999999995,673,-0.171,-1.244,-0.19,9.6256944,38.1590028,4.583664,83.29663404,-6.955710119999999,158.95573794
6.74,674,-0.125,-1.147,-0.126,12.4904844,45.83664,1.6042823999999998,83.36538900000002,-6.9270622200000025,159.41410434
6.75,675,-0.087,-1.051,-0.075,16.386598799999998,53.9726436,2.1772404,83.45706228,-6.9041438999999984,159.95268486
6.76,676,-0.067,-0.949,-0.045,13.2926256,61.4210976,4.4690724,83.5086285,-6.89268474,160.57147949999995
6.77,677,-0.048,-0.846,-0.029,10.4851314,69.9581718,6.417129599999999,83.52581724,-6.898414319999999,161.27048826
6.78,678,-0.03,-0.778,-0.023,8.651665800000002,78.95361240000003,6.5317212,83.51435808,-6.886955159999999,162.06117030000001
6.79,679,-0.005,-0.723,-0.026,8.021412000000002,87.49068659999998,5.2712136,83.4799806,-6.86403684,162.93779604
6.8,680,0.01,-0.7070000000000001,-0.027000000000000003,8.021412000000002,91.8451674,4.4117766,83.43987354000002,-6.829659359999999,163.85452884
6.81,681,0.025,-0.711,-0.027000000000000003,6.5317212,90.1835892,5.5576926,83.38257774,-6.8010114600000025,164.75407289999995
6.82,682,0.046,-0.71,-0.025,4.583664,81.18814859999998,9.3965112,83.32528194,-6.82392978,165.57340284
6.83,683,0.071,-0.7,-0.005,4.297185,70.35924240000001,13.8082878,83.28517488,-6.875496000000001,166.28387076
6.84,684,0.096,-0.698,0.026,5.3285094000000015,59.874111,17.246035799999998,83.25652698,-6.99581718,166.89693582
6.85,685,0.107,-0.7040000000000001,0.053,6.3025379999999975,51.3943326,18.9649098,83.25079740000002,-7.1333271000000025,167.42978676
6.86,686,0.109,-0.72,0.09,7.2192707999999985,45.3782736,18.8503182,83.25652698,-7.282296179999999,167.9053419
6.87,687,0.08900000000000001,-0.7340000000000001,0.113,7.7349330000000025,40.7946096,16.959556799999998,83.27371572000001,-7.408346939999999,168.32933082000002
6.88,688,0.064,-0.74,0.133,7.5630456000000015,38.961144,14.381245800000002,83.3367411,-7.4885610599999985,168.72467183999996
6.89,689,0.043,-0.73,0.163,7.333862400000001,40.7946096,11.45916,83.34820026,-7.56877518,169.14293118
6.9,690,0.042,-0.743,0.194,4.297185,44.06047020000001,7.7922288,83.33101152,-7.603152659999999,169.58983842
6.91,691,0.063,-0.769,0.16899999999999998,-0.9740286,46.352302200000004,7.1046792000000005,83.25079740000002,-7.63180056,170.05966398
6.92,692,0.094,-0.7759999999999999,0.1,-3.4950437999999995,47.4982182,10.026765,83.14193537999998,-7.6890963600000015,170.5409487
6.93,693,0.116,-0.76,0.04,-2.86479,47.8992888,15.756345000000001,83.06172126,-7.763580899999999,171.027963
6.9399999999999995,694,0.12,-0.738,0.031,-0.7448454000000001,47.7274014,22.1161788,82.97577756,-7.9354682999999975,171.52643646
6.95,695,0.099,-0.725,0.06,1.6615782,48.9306132,26.69984280000001,82.91848175999998,-8.15319234,172.04782824
6.96,696,0.056,-0.762,0.075,2.9220857999999996,51.33703679999999,29.621928600000004,82.86118596,-8.39956428,172.59786792
6.97,697,0.001,-0.86,0.064,2.291832,51.852699,33.0596766,82.79816058,-8.67458412,173.15363718
6.9799999999999995,698,-0.055,-0.99,0.0,0.057295800000000015,48.9306132,38.2162986,82.72367604,-8.98971102,173.68075854
6.99,699,-0.104,-1.067,-0.064,0.5156622000000001,46.8106686,42.4561878,82.63773234,-9.36213372,174.20215032000004
7.0,700,-0.153,-1.089,-0.111,2.7501984,43.6021038,44.51883660000001,82.58043654000002,-9.75747474,174.6948942
7.01,701,-0.198,-1.1,-0.113,0.1718874,36.4974246,43.831287,82.50595200000002,-10.15281576,175.11315353999996
7.02,702,-0.205,-1.136,-0.127,-5.1566220000000005,32.31483119999999,37.8725238,82.37990124000002,-10.49086098,175.48557624
7.03,703,-0.213,-1.266,-0.256,-6.0733548,35.6379876,21.4286292,82.23093216,-10.66274838,175.87518768
7.04,704,-0.311,-1.548,-0.386,-6.1879464,51.7954032,-8.3651868,82.07050392,-10.52523846,176.37939072
7.05,705,-0.438,-1.8,-0.458,-13.407217200000002,74.9429064,-42.398892,81.80121366,-10.026765,177.06694032
7.06,706,-0.387,-1.776,-0.512,-0.11459160000000004,99.2363256,-67.5517482,81.63505583999998,-9.24754212,177.96075480000005
7.07,707,-0.159,-1.505,-0.5489999999999999,23.6058696,111.61221840000002,-68.6403684,81.7038108,-8.43967134,178.97489045999995
7.08,708,0.017,-1.168,-0.46,45.9512316,117.05531940000002,-55.1758554,81.98456021999998,-7.75212174,-179.93173032
7.09,709,0.083,-0.931,-0.333,51.2224452,114.13323359999998,-37.9871154,82.34552376,-7.2479187,-178.84311011999995
7.1,710,0.121,-0.7859999999999999,-0.29,38.90384820000001,111.0392604,-20.6837838,82.59189570000002,-6.9270622200000025,-177.76594907999996
7.11,711,0.185,-0.774,-0.257,22.2307704,112.9300218,-7.2192707999999985,82.67210982,-6.743715660000001,-176.65441056
7.12,712,0.259,-0.91,-0.21600000000000005,7.1046792000000005,119.00337659999998,1.3178034,82.59189570000002,-6.63485364,-175.47411707999996
7.13,713,0.265,-1.194,-0.224,-0.2291832000000001,126.3945348,3.7815227999999994,82.42000829999998,-6.52026204,-174.21933905999995
7.14,714,0.132,-1.411,-0.28800000000000003,0.4583664000000001,142.78113359999998,0.6302538000000001,82.2481209,-6.3770225400000005,-172.80413280000005
7.15,715,-0.071,-1.403,-0.319,3.0366774,153.78192719999996,-3.0366774,82.09342224,-6.18221682,-171.28579409999998
7.16,716,-0.242,-1.342,-0.315,7.7922288,160.19905680000005,-6.0733548,81.98456021999998,-5.9473040400000015,-169.71588918
7.17,717,-0.305,-1.248,-0.265,9.6829902,166.21511579999995,-6.5317212,81.89288694,-5.6952025200000005,-168.08295888
7.18,718,-0.304,-1.116,-0.226,9.797581800000001,175.7835144,-2.9220857999999996,81.79548408,-5.48320806,-166.34689614
7.1899999999999995,719,-0.304,-1.031,-0.224,11.9748222,188.27399880000002,3.151269,81.72099954000002,-5.29413192,-164.48478264
7.2,720,-0.304,-1.0,-0.218,13.8655836,202.3114698,9.1100322,81.65224458,-5.15089242,-162.47370006
7.21,721,-0.271,-0.986,-0.175,14.152062599999999,213.9425172,14.667724800000002,81.57776004,-5.042030400000002,-160.34229630000004
7.22,722,-0.21,-0.978,-0.126,13.178034,223.3963242,21.6005166,81.48608676,-4.99046418,-158.11348968
7.2299999999999995,723,-0.154,-0.993,-0.07400000000000001,11.917526400000002,225.8027478,28.074942,81.38295432,-4.99619376,-155.84457600000005
7.24,724,-0.124,-1.019,-0.032,11.3445684,226.9486638,34.4920716,81.26836272,-5.05348956,-153.55847358
7.25,725,-0.114,-1.037,-0.006,12.891555,230.2718202,38.5027776,81.16523028,-5.14516284,-151.23226409999995
7.26,726,-0.163,-1.043,-0.005,17.246035799999998,235.772217,38.67466500000001,81.09074574,-5.231106540000001,-148.84875882
7.27,727,-0.17800000000000002,-1.011,0.009000000000000001,20.7410796,242.7623046,37.0130868,81.04490909999998,-5.2826727600000005,-146.40222816
7.28,728,-0.157,-0.947,0.067,23.9496444,247.0594896,36.5547204,81.03917952,-5.33423898,-143.91559044
7.29,729,-0.149,-0.919,0.114,25.1528562,251.242083,35.809875,81.02199078,-5.3628868800000005,-141.38311607999995
7.3,730,-0.149,-0.92,0.122,21.4286292,260.23752360000003,34.66395900000001,80.96469498,-5.36861646,-138.76469802000003
7.31,731,-0.147,-0.915,0.13699999999999998,15.9282324,265.50873720000004,35.7525792,80.83864422,-5.37434604,-136.09471374
7.32,732,-0.153,-0.924,0.145,11.8029348,268.0870482,39.1330314,80.67248640000003,-5.40299394,-133.39035198
7.33,733,-0.14400000000000002,-0.919,0.149,9.6256944,271.3529088,42.7999626,80.48913983999998,-5.46028974,-130.65734232
7.34,734,-0.125,-0.901,0.16699999999999998,10.0840608,273.4728534,45.6074568,80.28860454,-5.5290447,-127.88995518000002
7.35,735,-0.087,-0.897,0.182,13.2353298,273.0717828,47.0971476,80.12244672,-5.603529239999999,-125.12829761999998
7.36,736,-0.035,-0.885,0.192,19.2513888,271.4102046,47.3836266,80.00785512,-5.67801378,-122.37809922
7.37,737,0.016,-0.88,0.212,27.2728008,269.1756684,46.696077,79.97920722,-5.74103916,-119.65081914
7.38,738,0.044,-0.873,0.23,35.46610020000001,267.1703154,44.0031744,80.05369175999998,-5.77541664,-116.94645738
7.39,739,0.039,-0.892,0.258,37.24227,265.96710360000003,39.9924684,80.12244672,-5.781146219999999,-114.25928436
7.4,740,0.019,-0.908,0.28800000000000003,34.60666320000001,264.1909338,34.60666320000001,80.17401294,-5.74103916,-111.60075924
7.41,741,-0.006999999999999999,-0.925,0.28800000000000003,32.0283522,263.3314968,27.903054600000004,80.20266084,-5.6436363,-108.96515244
7.42,742,-0.024,-0.94,0.287,30.194886600000004,264.64930019999997,20.3973048,80.21412000000002,-5.466019319999999,-106.32381605999998
7.43,743,-0.046,-0.954,0.251,28.7051958,265.96710360000003,13.521808800000002,80.2427679,-5.21964738,-103.68820926
7.4399999999999995,744,-0.073,-0.953,0.209,26.1841806,264.3055254,8.880849000000003,80.2427679,-4.93316838,-101.07552078
7.45,745,-0.05,-0.959,0.121,21.6578124,256.05493019999994,8.136003599999999,80.21984957999999,-4.65241896,-98.54304642
7.46,746,0.032,-0.921,0.094,17.303331600000003,242.4185298,9.6829902,80.17401294,-4.40031744,-96.14808198
7.47,747,0.159,-0.889,0.106,17.0741484,228.6675378,11.917526400000002,80.14536504,-4.19405256,-93.8791683
7.4799999999999995,748,0.26,-0.88,0.116,14.896907999999998,214.8019542,14.9542038,80.13390588000001,-4.010706,-91.74776454000002
7.49,749,0.318,-0.868,0.134,12.9488508,200.0769336,18.3919518,80.09952840000003,-3.90184398,-89.75387070000002
7.5,750,0.337,-0.843,0.151,12.318597,186.6697164,20.798375399999998,80.07661008,-3.8388186000000006,-87.8917572
7.51,751,0.289,-0.8270000000000001,0.16699999999999998,15.6990492,179.2212624,21.199446,80.09379881999998,-3.78725238,-86.09266908
7.52,752,0.232,-0.921,0.104,15.2406828,182.2579398,20.340009,80.10525798,-3.724227,-84.27066264
7.53,753,0.165,-1.139,-0.006999999999999999,9.1100322,189.0188442,19.595163600000006,80.05369175999998,-3.63255372,-82.38563081999997
7.54,754,0.14300000000000002,-1.304,-0.12,2.1199446,194.80572,21.5432208,79.92764100000002,-3.56379876,-80.44330319999997
7.55,755,0.203,-1.4340000000000002,-0.202,-5.5576926,193.4879166,30.366774000000003,79.72710570000002,-3.57525792,-78.495246
7.56,756,0.328,-1.452,-0.264,-17.4179232,180.8828406,41.539455,79.4119788,-3.71276784,-76.65032124000003
7.57,757,0.41,-1.364,-0.343,-21.7151082,166.38700319999995,47.6128098,79.05101526000001,-3.91330314,-74.93717682
7.58,758,0.411,-1.255,-0.339,-11.745639,156.93319619999997,48.70143,78.79318416,-4.11383844,-73.3099761
7.59,759,0.353,-1.141,-0.29600000000000004,-0.9740286,152.1776448,44.977203,78.64994466,-4.297185000000002,-71.74007118
7.6,760,0.243,-1.0659999999999998,-0.268,5.2712136,144.32812019999997,39.591397799999996,78.56973054,-4.4404245000000016,-70.25038038
7.61,761,0.098,-1.023,-0.254,7.906820400000001,135.8483418,33.9764094,78.52389389999998,-4.54355694,-68.85809244000001
7.62,762,0.019,-1.039,-0.249,10.026765,131.37926940000003,28.1322378,78.50097558,-4.59512316,-67.51737072
7.63,763,-0.012,-1.08,-0.234,10.8289062,133.1554392,21.9442914,78.48378684000002,-4.57220484,-66.17091941999999
7.64,764,-0.024,-1.136,-0.215,10.3705398,137.3953284,15.9282324,78.46659809999998,-4.49199072,-64.79582022
7.65,765,-0.011,-1.176,-0.215,9.1100322,142.3227672,11.917526400000002,78.43222062,-4.36593996,-63.38061395999999
7.66,766,0.013,-1.1740000000000002,-0.207,9.224623800000002,146.677248,10.1413566,78.39784313999998,-4.211241299999998,-61.93103021999999
7.67,767,0.04,-1.158,-0.185,10.026765,149.77122119999999,9.740286,78.36919524,-4.05081306,-60.44706899999999
7.68,768,0.052000000000000005,-1.119,-0.153,11.4018642,151.6046868,9.6256944,78.36919524,-3.8674665,-58.94591904
7.6899999999999995,769,0.057,-1.0490000000000002,-0.111,13.178034,153.6673356,8.651665800000002,78.38065440000003,-3.68984952,-57.42758034
7.7,770,0.066,-1.003,-0.064,15.2406828,158.76666179999995,5.3858052,78.42076146,-3.4663959,-55.86913458
7.71,771,0.08,-0.998,-0.041,15.6990492,164.26705859999996,0.9740286,78.46086852,-3.1913760600000005,-54.26485218000001
7.72,772,0.095,-1.019,-0.041,14.4385416,168.5642436,-1.9480572,78.50097558,-2.88770832,-52.62046272
7.7299999999999995,773,0.123,-1.031,-0.045,9.9121734,168.736131,-1.432395,78.51243473999997,-2.56685184,-50.97607326000001
7.74,774,0.16699999999999998,-1.014,-0.045,5.5003968,166.55889059999996,1.8907613999999997,78.47232768,-2.30329116,-49.34887254
7.75,775,0.215,-0.986,-0.047,1.6615782,163.23573420000002,6.3025379999999975,78.40930230000002,-2.08556712,-47.74459014
7.76,776,0.254,-0.958,-0.056,-0.6875496,159.1104366,10.7143146,78.32335859999998,-1.91367972,-46.17468522
7.77,777,0.285,-0.916,-0.066,-2.291832,152.80789860000004,14.037471,78.23168532,-1.78762896,-44.6620761
7.78,778,0.299,-0.872,-0.093,-2.1772404,142.09358400000005,15.183387000000002,78.1514712,-1.65011904,-43.24114026
7.79,779,0.319,-0.848,-0.128,1.432395,134.4732426,14.037471,78.11136413999998,-1.5527161800000002,-41.90614812
7.8,780,0.35200000000000004,-0.81,-0.134,7.448453999999999,125.4205062,12.032117999999999,78.14001204,-1.44385416,-40.66282926
7.81,781,0.38,-0.777,-0.138,13.0061466,113.9040504,10.313244,78.23168532,-1.3464512999999998,-39.52837242
7.82,782,0.389,-0.765,-0.131,15.3552744,100.6114248,9.167328,78.35200649999999,-1.25477802,-38.5314255
7.83,783,0.416,-0.772,-0.1,16.558486199999994,85.3134462,8.7662574,78.495246,-1.12872726,-37.67198850000001
7.84,784,0.435,-0.779,-0.067,18.162768600000003,70.7030172,9.969469199999999,78.65567424,-1.10580894,-36.96152058
7.85,785,0.404,-0.782,-0.062,19.8816426,58.5563076,13.464512999999998,78.8390208,-1.13445684,-36.36564426
7.86,786,0.304,-0.777,-0.098,21.772404,47.4982182,17.8762896,79.04528567999998,-1.2318597,-35.8671708
7.87,787,0.191,-0.8029999999999999,-0.139,22.9756158,44.06047020000001,19.9962342,79.26300972,-1.35218088,-35.39734524
7.88,788,0.091,-0.867,-0.179,22.5172494,45.6074568,19.767051,79.46354502,-1.4610428999999998,-34.91033094
7.89,789,-0.006,-0.936,-0.219,19.8243468,45.0344988,19.0795014,79.64689158,-1.5756344999999998,-34.4347758
7.9,790,-0.097,-1.002,-0.237,17.8762896,40.737313799999995,17.8189938,79.81304940000003,-1.6902260999999998,-33.999327720000004
7.91,791,-0.14800000000000002,-1.071,-0.247,16.902261,35.0650296,15.2979786,79.96774806,-1.78189938,-33.6326346
7.92,792,-0.129,-1.125,-0.23,17.4179232,30.93973200000001,9.6256944,80.12817629999998,-1.8334656000000005,-33.31177812
7.93,793,-0.032,-1.199,-0.192,20.2254174,29.9084076,0.8021411999999999,80.32298202,-1.78762896,-33.01383996
7.94,794,0.075,-1.255,-0.16899999999999998,25.2674478,29.7365202,-4.2398892,80.56362438,-1.70168526,-32.72736096
7.95,795,0.17800000000000002,-1.246,-0.155,25.4393352,24.7517856,-2.291832,80.8157259,-1.64438946,-32.48098902
7.96,796,0.235,-1.173,-0.163,23.032911600000002,17.7044022,4.6409598,81.03917952,-1.6615782,-32.29764246
7.97,797,0.236,-1.07,-0.16899999999999998,22.5172494,10.3705398,12.261301199999998,81.26263314,-1.77044022,-32.177321279999994
7.9799999999999995,798,0.199,-0.981,-0.16399999999999998,21.6005166,2.6929026,17.8189938,81.46889802,-1.85638392,-32.114295899999995
7.99,799,0.147,-0.92,-0.149,18.7930224,-3.4950437999999995,19.7097552,81.65797416000002,-2.05118964,-32.114295899999995
8.0,800,0.077,-0.898,-0.141,14.610429000000002,-7.2192707999999985,17.9908812,81.81267282,-2.2345362,-32.16013254
8.01,801,-0.012,-0.908,-0.152,10.6570188,-8.9954406,13.750992000000002,81.92153484,-2.3777757,-32.2288875
8.02,802,-0.084,-0.926,-0.14300000000000002,9.568398599999998,-9.0527364,8.5370742,82.02466728,-2.47517856,-32.30337204
8.03,803,-0.14300000000000002,-0.947,-0.134,8.7662574,-6.990087599999999,4.8701430000000006,82.1048814,-2.62414764,-32.37785658
8.04,804,-0.188,-0.959,-0.112,8.7662574,-3.7815227999999994,2.9793816000000004,82.19655467999998,-2.65852512,-32.41223406
8.05,805,-0.22,-0.978,-0.099,10.1986524,0.572958,2.8074942000000003,82.29968712,-2.68144344,-32.4007749
8.06,806,-0.249,-0.994,-0.098,12.3758928,4.6982556,3.8388186,82.42000829999998,-2.71582092,-32.3434791
8.07,807,-0.263,-0.984,-0.095,14.667724800000002,8.4224826,4.7555514,82.5632478,-2.7501984,-32.2575354
8.08,808,-0.246,-0.967,-0.08199999999999999,16.673077799999998,11.9748222,4.4117766,82.7351352,-2.85906042,-32.13721422
8.09,809,-0.196,-0.953,-0.087,16.959556799999998,14.7250206,3.0939732,82.90129302,-2.87624916,-31.988245140000004
8.1,810,-0.141,-0.932,-0.078,17.8189938,16.8449652,0.4010706,83.06745083999998,-2.86479,-31.81635774
8.11,811,-0.107,-0.919,-0.066,20.2254174,19.1367972,-2.0053530000000004,83.26225656,-2.82468294,-31.6272816
8.12,812,-0.068,-0.937,-0.08199999999999999,18.6784308,22.2880662,-4.297185,83.43987354000002,-2.75592798,-31.41528714
8.13,813,-0.015,-0.953,-0.13,15.5844576,23.0902074,-6.990087599999999,83.5659243,-2.65279554,-31.18610394
8.14,814,0.031,-0.961,-0.123,16.558486199999994,23.3193906,-10.4278356,83.72062296,-2.52674478,-30.9683799
8.15,815,0.071,-1.007,-0.125,18.3919518,23.9496444,-13.178034,83.89823994000002,-2.3777757,-30.74492628
8.16,816,0.104,-1.04,-0.123,19.3659804,22.5172494,-14.7250206,84.0815865,-2.21161788,-30.53293182
8.17,817,0.123,-1.036,-0.084,21.199446,19.767051,-15.183387000000002,84.28785138,-2.04546006,-30.34958526
8.18,818,0.109,-1.012,-0.036000000000000004,23.376686399999997,15.985528200000001,-14.667724800000002,84.52849374,-1.85065434,-30.20061618
8.19,819,0.064,-1.005,-0.033,21.0848544,13.9228794,-13.9228794,84.73475862000002,-1.70168526,-30.07456542
8.2,820,0.022,-1.006,-0.043,16.959556799999998,12.2040054,-12.7196676,84.90664602000003,-1.56417534,-29.95997382
8.209999999999999,821,0.0,-1.019,-0.058,13.464512999999998,10.3705398,-11.9748222,85.03842636,-1.43812458,-29.86830054
8.22,822,-0.006999999999999999,-1.051,-0.081,10.4851314,8.651665800000002,-11.3445684,85.1415588,-1.3178034,-29.78808642
8.23,823,0.009000000000000001,-1.095,-0.114,6.6463128000000005,7.2192707999999985,-10.599723,85.17593628,-1.18602306,-29.72506104
8.24,824,0.055,-1.136,-0.138,2.6356068,5.443101,-9.453807000000001,85.19885459999998,-1.0886202,-29.67349482
8.25,825,0.104,-1.171,-0.146,-0.057295800000000015,2.4637194,-6.4744254,85.19885459999998,-1.01986524,-29.65630608
8.26,826,0.129,-1.182,-0.14400000000000002,-0.6302538000000001,-1.7761698,-2.6929026,85.19312502,-0.9969469199999998,-29.6792244
8.27,827,0.121,-1.144,-0.128,1.8334656000000005,-4.4117766,0.572958,85.21604334,-1.0026765,-29.71933146
8.28,828,0.085,-1.079,-0.118,3.380452200000001,-5.6149884000000005,2.5210152000000003,85.19312502,-0.93392154,-29.75943852
8.29,829,0.027000000000000003,-1.003,-0.117,3.6669312000000014,-5.0993262,2.6356068,85.23323208,-0.96256944,-29.811004740000005
8.3,830,-0.022,-0.936,-0.112,3.9534102,-3.2658606,0.9740286,85.27333913999998,-0.9740286,-29.839652640000004
8.31,831,-0.063,-0.892,-0.102,4.6982556,-0.4010706,-1.3750992,85.31917578,-0.95683986,-29.84538222
8.32,832,-0.087,-0.875,-0.091,6.130650599999999,2.4637194,-3.6669312000000014,85.38220116,-0.92246238,-29.822463899999995
8.33,833,-0.093,-0.884,-0.073,7.7922288,5.5003968,-5.2139178,85.45095612,-0.91100322,-29.77662726
8.34,834,-0.09,-0.9,-0.055,7.6203414,8.479778399999999,-5.1566220000000005,85.52544065999999,-0.8594370000000001,-29.69641314
8.35,835,-0.07200000000000001,-0.918,-0.049,7.1046792000000005,10.599723,-4.3544808,85.59419562000002,-0.8078707799999998,-29.5932807
8.36,836,-0.045,-0.952,-0.05,7.1046792000000005,12.261301199999998,-2.86479,85.66295058,-0.7734933,-29.47295952
8.37,837,-0.018000000000000002,-0.981,-0.055,7.2192707999999985,13.407217200000002,-1.0886202,85.73170554,-0.75630456,-29.34117918
8.38,838,0.006999999999999999,-0.998,-0.058,7.906820400000001,14.381245800000002,0.4010706,85.80619008000002,-0.72765666,-29.192210100000004
8.39,839,0.028,-1.006,-0.057,8.59437,15.4125702,1.4896908000000002,85.89213378,-0.7391158200000001,-29.03751144
8.4,840,0.047,-1.009,-0.053,9.1100322,15.870936600000002,2.2345362,85.97807748,-0.75057498,-28.88281278
8.41,841,0.064,-1.02,-0.054000000000000006,9.740286,15.9282324,2.8074942000000003,86.07548034,-0.7734933,-28.72238454
8.42,842,0.07200000000000001,-1.025,-0.055,10.599723,15.2979786,3.151269,86.17861278000002,-0.79641162,-28.56768588
8.43,843,0.073,-1.028,-0.064,11.229976800000001,14.32395,2.9793816000000004,86.27601564,-0.7734933,-28.41298722
8.44,844,0.07,-1.035,-0.073,12.318597,13.178034,2.9793816000000004,86.39633682,-0.79641162,-28.28120688000001
8.45,845,0.059,-1.037,-0.079,13.9228794,11.745639,2.9793816000000004,86.53384674,-0.8250595199999999,-28.1608857
8.459999999999999,846,0.045,-1.034,-0.077,15.469866,9.9121734,2.6356068,86.68854540000002,-0.8479778399999999,-28.057753260000005
8.47,847,0.033,-1.024,-0.069,17.3606274,7.5057497999999985,2.0053530000000004,86.8604328,-0.8594370000000001,-27.98326872
8.48,848,0.022,-1.011,-0.06,18.3919518,4.9274388,1.0313244,87.03232019999999,-0.8422482600000001,-27.92597292
8.49,849,0.02,-0.989,-0.053,17.9908812,2.0053530000000004,0.0,87.20993718,-0.8422482600000001,-27.908784180000005
8.5,850,0.018000000000000002,-0.97,-0.05,16.501190400000002,-1.0886202,-1.145916,87.38182458,-0.8307891,-27.91451376
8.51,851,0.014,-0.964,-0.042,15.813640800000002,-3.6096354,-2.1772404,87.54225282,-0.8078707799999998,-27.94889124
8.52,852,0.015,-0.972,-0.033,15.2979786,-5.3858052,-3.0939732,87.69695148,-0.7734933,-28.00618704
8.53,853,0.017,-0.984,-0.023,14.8396122,-6.3025379999999975,-3.9534102,87.85165014,-0.7161975,-28.06348284
8.54,854,0.021,-1.001,-0.011,14.4385416,-6.760904399999999,-4.5263682,87.99488964000004,-0.6703608600000001,-28.132237800000002
8.55,855,0.025,-1.016,-0.003,13.521808800000002,-7.1046792000000005,-4.5263682,88.13812913999998,-0.62452422,-28.20099276
8.56,856,0.019,-1.024,0.001,12.7196676,-7.3911582,-4.0680017999999984,88.26990948,-0.5786875800000001,-28.2754773
8.57,857,0.013,-1.031,0.001,11.516455800000001,-8.021412000000002,-2.9220857999999996,88.38450107999998,-0.55003968,-28.35569142
8.58,858,0.006,-1.032,-0.003,10.255948199999999,-8.880849000000003,-1.9480572,88.4933631,-0.5156622000000001,-28.44163512
8.59,859,-0.004,-1.028,-0.009000000000000001,9.167328,-9.5111028,-1.2605076000000002,88.58503637999998,-0.5042030399999999,-28.53330840000001
8.6,860,-0.016,-1.025,-0.016,8.250595200000001,-10.1986524,-0.9740286,88.67670966,-0.49274388,-28.63071126
8.61,861,-0.027000000000000003,-1.022,-0.021,7.333862400000001,-10.7143146,-0.9740286,88.7511942,-0.48128472,-28.73957328
8.62,862,-0.034,-1.017,-0.022,6.4744254,-10.7716104,-1.2605076000000002,88.81994916,-0.46982556,-28.84270572
8.63,863,-0.035,-1.018,-0.026,5.6722842,-10.5424272,-1.6615782,88.85432664,-0.46982556,-28.95156774
8.64,864,-0.033,-1.019,-0.028,4.7555514,-10.1413566,-1.9480572,88.90589286,-0.44690724,-29.0489706
8.65,865,-0.027000000000000003,-1.016,-0.03,3.724227,-9.797581800000001,-2.0053530000000004,88.94599991999998,-0.42398892,-29.14637346
8.66,866,-0.023,-1.011,-0.033,3.0366774,-9.453807000000001,-1.8907613999999997,88.97464782,-0.40680018,-29.24377632
8.67,867,-0.021,-1.006,-0.035,2.7501984,-9.453807000000001,-1.6042823999999998,89.00902529999998,-0.38961144,-29.335449600000004
8.68,868,-0.02,-1.005,-0.038,2.6356068,-9.3392154,-1.3750992,88.98610698,-0.38388186,-29.42712288
8.69,869,-0.023,-1.007,-0.037000000000000005,2.6356068,-9.167328,-1.0886202,89.01475488,-0.3724227000000001,-29.51879616
8.7,870,-0.027000000000000003,-1.009,-0.035,2.6929026,-9.0527364,-0.8021411999999999,89.04340278,-0.36096354,-29.61046944000001
8.71,871,-0.03,-1.01,-0.033,2.4637194,-8.5370742,-0.6302538000000001,89.07205067999998,-0.35523396,-29.690683560000004
8.72,872,-0.033,-1.006,-0.033,2.0626488000000003,-7.7349330000000025,-0.4010706,89.09496899999998,-0.34950438,-29.77089768
8.73,873,-0.034,-1.002,-0.032,1.6615782,-6.875496000000001,-0.057295800000000015,89.04340278,-0.38388186,-29.839652640000004
8.74,874,-0.029,-0.998,-0.033,1.2605076000000002,-6.016058999999999,0.2291832000000001,89.06059152,-0.38961144,-29.902678020000003
8.75,875,-0.025,-0.994,-0.033,0.9740286,-5.6149884000000005,0.5156622000000001,89.07205067999998,-0.39534102,-29.95424424
8.76,876,-0.021,-0.994,-0.032,0.8021411999999999,-5.2712136,0.4010706,89.07778026000004,-0.39534102,-30.01154004
8.77,877,-0.022,-0.997,-0.028,0.6302538000000001,-4.8128472,0.2291832000000001,89.08923942,-0.4010706000000001,-30.057376680000004
8.78,878,-0.025,-1.0,-0.022,0.4583664000000001,-4.8128472,-0.11459160000000004,89.02621404,-0.4297185000000001,-30.1089429
8.79,879,-0.027000000000000003,-1.0,-0.016,0.5156622000000001,-5.3285094000000015,-0.572958,89.03194361999998,-0.42398892,-30.16050912
8.8,880,-0.025,-1.001,-0.01,1.0313244,-5.72958,-0.9740286,89.04340278,-0.41252976,-30.21780492
8.81,881,-0.018000000000000002,-1.003,-0.003,1.5469866,-5.5576926,-1.0886202,89.06059152,-0.4010706000000001,-30.27510072
8.82,882,-0.006999999999999999,-1.01,0.001,1.8334656000000005,-4.9274388,-0.8021411999999999,89.07778026000004,-0.39534102,-30.32093736
8.83,883,-0.003,-1.015,0.002,1.9480572,-4.583664,-0.2291832000000001,89.08923942,-0.3724227000000001,-30.366774
8.84,884,-0.005,-1.017,0.002,1.8907613999999997,-4.2398892,0.286479,89.11215774000001,-0.3724227000000001,-30.40688106
8.85,885,-0.009000000000000001,-1.017,0.0,1.8907613999999997,-3.9534102,0.8021411999999999,89.12934648,-0.38388186,-30.44698812
8.86,886,-0.013,-1.013,-0.002,1.8907613999999997,-3.4950437999999995,0.8594370000000001,89.1522648,-0.38961144,-30.481365600000004
8.87,887,-0.015,-1.011,-0.004,2.0053530000000004,-2.9220857999999996,0.6875496,89.17518312,-0.39534102,-30.510013500000003
8.88,888,-0.017,-1.008,-0.006,1.9480572,-2.578311,0.4010706,89.14653522,-0.41825934,-30.5386614
8.89,889,-0.018000000000000002,-1.005,-0.006999999999999999,2.0626488000000003,-2.1199446,0.057295800000000015,89.16945354,-0.41825934,-30.55585014
8.9,890,-0.017,-1.005,-0.009000000000000001,1.9480572,-1.8334656000000005,-0.2291832000000001,89.18664228,-0.41825934,-30.57876846
8.91,891,-0.01,-1.004,-0.01,1.8334656000000005,-1.7761698,-0.6875496,89.20956059999996,-0.41252976,-30.595957199999997
8.92,892,-0.001,-1.007,-0.011,1.6042823999999998,-1.432395,-0.9167328,89.22674934,-0.4010706000000001,-30.607416359999995
8.93,893,0.006999999999999999,-1.009,-0.014,1.5469866,-1.3178034,-0.8594370000000001,89.1522648,-0.31512690000000004,-30.61314594
8.94,894,0.008,-1.01,-0.015,1.432395,-1.432395,-0.4583664000000001,89.16372396,-0.30939732,-30.624605100000004
8.95,895,0.006,-1.008,-0.017,1.145916,-1.3178034,-0.057295800000000015,89.17518312,-0.30939732,-30.63606426
8.96,896,-0.001,-1.004,-0.021,1.145916,-1.2605076000000002,0.2291832000000001,89.19237186000002,-0.31512690000000004,-30.65325300000001
8.97,897,-0.006999999999999999,-1.003,-0.023,1.2605076000000002,-1.0886202,0.5156622000000001,89.20383102000002,-0.31512690000000004,-30.66471216
8.98,898,-0.014,-1.004,-0.021,1.432395,-0.8594370000000001,0.7448454000000001,89.10069858,-0.34950438,-30.67044174
8.99,899,-0.017,-1.008,-0.019,1.5469866,-0.6302538000000001,0.8021411999999999,89.11788732,-0.35523396,-30.67617132
9.0,900,-0.015,-1.009,-0.016,1.6615782,-0.5156622000000001,0.7448454000000001,89.13507606,-0.36096354,-30.68190090000001
9.01,901,-0.01,-1.009,-0.014,1.7761698,-0.5156622000000001,0.572958,89.1522648,-0.36669312,-30.68763048000001
9.02,902,-0.005,-1.008,-0.008,1.7188740000000002,-0.572958,0.4010706,89.16945354,-0.3724227000000001,-30.693360060000003
9.03,903,-0.002,-1.01,-0.006999999999999999,1.3178034,-0.5156622000000001,0.11459160000000004,89.06632110000002,-0.30939732,-30.693360060000003
9.04,904,-0.004,-1.015,-0.006999999999999999,0.8021411999999999,-0.1718874,0.0,89.07778026000004,-0.30939732,-30.693360060000003
9.05,905,-0.009000000000000001,-1.017,-0.012,0.3437748,0.2291832000000001,0.0,89.08350984,-0.30939732,-30.693360060000003
9.06,906,-0.019,-1.017,-0.014,0.11459160000000004,0.4583664000000001,0.057295800000000015,89.08350984,-0.31512690000000004,-30.68763048000001
9.07,907,-0.024,-1.011,-0.015,0.286479,0.572958,0.11459160000000004,89.08350984,-0.31512690000000004,-30.68190090000001
9.08,908,-0.025,-1.006,-0.012,0.572958,0.6875496,0.11459160000000004,88.96891824000002,-0.4010706000000001,-30.68190090000001
9.09,909,-0.02,-1.001,-0.009000000000000001,0.8021411999999999,0.8594370000000001,0.0,88.97464782,-0.4010706000000001,-30.67617132
9.1,910,-0.012,-0.999,-0.006,0.8594370000000001,1.2032118,-0.057295800000000015,88.98610698,-0.4010706000000001,-30.66471216
9.11,911,-0.003,-1.001,-0.006,0.4583664000000001,1.432395,-0.11459160000000004,88.98610698,-0.4010706000000001,-30.64752342
9.12,912,0.003,-1.004,-0.008,0.057295800000000015,1.2032118,-0.11459160000000004,88.98610698,-0.4010706000000001,-30.63606426
9.13,913,0.006,-1.01,-0.009000000000000001,-0.11459160000000004,0.572958,-0.057295800000000015,88.69962798,-0.06875496,-30.58449804
9.14,914,0.004,-1.015,-0.006,0.0,0.0,0.0,88.69962798,-0.06875496,-30.58449804
9.15,915,-0.002,-1.016,-0.006,0.1718874,-0.4583664000000001,0.0,88.69962798,-0.06875496,-30.59022762
9.16,916,-0.008,-1.013,-0.004,0.3437748,-0.4010706,0.1718874,88.70535756,-0.07448454,-30.595957199999997
9.17,917,-0.015,-1.009,-0.004,0.3437748,-0.1718874,0.286479,88.71108714,-0.07448454,-30.595957199999997
9.18,918,-0.022,-1.006,-0.005,0.0,0.3437748,0.2291832000000001,88.65379134000001,-0.23491278,-30.61887552
9.19,919,-0.027000000000000003,-1.008,-0.008,-0.5156622000000001,1.0313244,0.0,88.64806175999998,-0.23491278,-30.607416359999995
9.2,920,-0.031,-1.011,-0.011,-0.8594370000000001,1.4896908000000002,-0.11459160000000004,88.64233218000004,-0.23491278,-30.59022762
9.21,921,-0.028,-1.016,-0.013,-0.9740286,2.0053530000000004,-0.3437748,88.63087302,-0.23491278,-30.57303888
9.22,922,-0.022,-1.019,-0.015,-1.145916,2.5210152000000003,-0.572958,88.61941386,-0.2291832000000001,-30.55012056
9.23,923,-0.015,-1.017,-0.015,-1.2605076000000002,2.6929026,-0.6875496,88.57930680000004,-0.2291832000000001,-30.52147266
9.24,924,-0.008,-1.011,-0.015,-1.3750992,3.0939732,-0.6302538000000001,88.56784764,-0.22345362,-30.49282476
9.25,925,-0.001,-1.003,-0.013,-1.432395,3.4377480000000005,-0.5156622000000001,88.5506589,-0.21772404,-30.45844728
9.26,926,0.003,-0.996,-0.013,-1.7188740000000002,3.6096354,-0.11459160000000004,88.53347016000002,-0.21772404,-30.424069799999995
9.27,927,0.002,-0.995,-0.013,-2.1199446,3.4950437999999995,0.11459160000000004,88.51055184,-0.21772404,-30.38969232
9.28,928,-0.005,-0.998,-0.014,-2.3491278,3.2658606,0.4010706,88.47044478000002,-0.22345362,-30.35531484
9.29,929,-0.014,-1.003,-0.014,-2.2345362,3.3231564,0.3437748,88.44179688,-0.2291832000000001,-30.32093736
9.3,930,-0.019,-1.01,-0.011,-2.0626488000000003,3.4950437999999995,0.057295800000000015,88.42460814,-0.2291832000000001,-30.28655988
9.31,931,-0.017,-1.012,-0.01,-1.9480572,3.0366774,-0.11459160000000004,88.40168982,-0.2291832000000001,-30.25791198
