TimeStamp(s),FrameCounter,AccX,AccY,AccZ,GyrX,GyrY,GyrZ,EulerX,EulerY,EulerZ
0.01,1,-0.015,-0.99,0.188,-1.0313244000000001,1.9480572,-0.6875496,100.73747556,-0.4297185000000001,-19.45765368
0.02,2,-0.006999999999999999,-0.991,0.187,-1.145916,1.8907614,-1.0886202,100.7260164,-0.42398892,-19.43473536
0.03,3,-0.008,-0.991,0.187,-1.145916,1.9480572,-1.0313244000000001,100.71455724,-0.41825934,-19.41754662
0.04,4,-0.01,-0.992,0.187,-1.2032118,1.8907614,-1.0313244000000001,100.70309808,-0.40680018,-19.3946283
0.05,5,-0.013000000000000001,-0.9940000000000001,0.188,-1.3750992,2.2345362,-1.145916,100.66299102,-0.41252976,-19.3659804
0.060000000000000005,6,-0.013999999999999999,-0.997,0.187,-1.6042823999999998,2.5783110000000002,-1.3750992,100.64580228,-0.4010706000000001,-19.337332500000002
0.06999999999999999,7,-0.015,-0.998,0.18600000000000005,-1.7188740000000002,2.86479,-1.2032118,100.62861354,-0.39534102,-19.308684600000007
0.08,8,-0.015,-1.001,0.19,-1.6615782,2.9220858,-1.2032118,100.61142480000001,-0.38961144,-19.27430712
0.09,9,-0.013999999999999999,-0.998,0.19,-1.7188740000000002,2.86479,-1.145916,100.59423606,-0.38388186,-19.24565922
0.09999999999999999,10,-0.01,-0.995,0.188,-1.432395,2.6929026,-1.145916,100.56558816,-0.37815228,-19.21701132
0.11,11,-0.006999999999999999,-0.995,0.188,-1.6042823999999998,2.6929026,-1.0313244000000001,100.54839942,-0.3724227000000001,-19.18836342
0.12,12,-0.005,-0.993,0.187,-1.9480572,2.8074942000000003,-1.0313244000000001,100.5254811,-0.36669312,-19.15971552
0.13,13,-0.003,-0.993,0.187,-1.8334656000000005,3.1512689999999997,-0.9740286,100.50829236,-0.36669312,-19.12533804
0.14,14,-0.003,-0.992,0.184,-1.9480572,3.380452200000001,-0.9740286,100.48537404,-0.36096354,-19.09096056
0.15000000000000002,15,-0.006,-0.992,0.183,-2.0053530000000004,3.2658606,-0.8021411999999999,100.45099656,-0.36096354,-19.06231266
0.16,16,-0.009000000000000001,-0.993,0.184,-2.0053530000000004,2.8074942000000003,-0.8021411999999999,100.42807824,-0.35523396,-19.02793518
0.17,17,-0.011000000000000001,-0.9940000000000001,0.182,-2.2345362,2.5783110000000002,-0.7448454000000001,100.40515992,-0.35523396,-19.00501686
0.18000000000000002,18,-0.012,-0.995,0.182,-2.2345362,2.3491277999999998,-0.7448454000000001,100.3822416,-0.34950438,-18.982098540000006
0.19,19,-0.013000000000000001,-0.996,0.183,-2.1199446,2.4064236,-0.8594370000000001,100.35932327999998,-0.34950438,-18.95345064
0.2,20,-0.01,-0.995,0.183,-1.8907614,2.3491277999999998,-0.9740286,100.31921622,-0.3437748,-18.93053232
0.21000000000000002,21,-0.006999999999999999,-0.993,0.185,-1.7188740000000002,2.4064236,-1.0886202,100.30202748,-0.33804522,-18.90188442
0.22,22,-0.005,-0.9890000000000001,0.188,-1.7761698000000001,2.291832,-1.145916,100.28483874,-0.33231564,-18.878966100000003
0.23,23,-0.003,-0.988,0.19,-1.7188740000000002,1.7188740000000002,-1.2032118,100.26765,-0.32085648,-18.86177736
0.24000000000000002,24,-0.006,-0.9890000000000001,0.19699999999999998,-1.8334656000000005,1.0886202,-1.3750992,100.24473168,-0.30939732,-18.844588620000003
0.25,25,-0.008,-0.993,0.201,-2.0626488000000003,0.9167328000000001,-1.7188740000000002,100.22754294,-0.29220857999999994,-18.83885904
0.26,26,-0.011000000000000001,-0.995,0.20600000000000002,-2.1772404,1.145916,-2.0626488000000003,100.20462462,-0.27501984,-18.8216703
0.27,27,-0.012,-0.997,0.204,-2.5210152000000003,1.7761698000000001,-2.8074942000000003,100.17597672,-0.25210152,-18.79875198
0.28,28,-0.013000000000000001,-0.996,0.201,-2.9220858,1.8907614,-3.4950437999999995,100.14732882,-0.21772404,-18.77583366
0.29000000000000004,29,-0.015,-0.99,0.19899999999999998,-3.2658606,1.4896908000000002,-4.0680017999999984,100.11295134,-0.18334656,-18.75291534
0.3,30,-0.016,-0.987,0.195,-3.8961144,2.291832,-4.6982555999999995,100.07284428,-0.14896908,-18.71853786
0.31,31,-0.009000000000000001,-0.9890000000000001,0.18899999999999997,-4.4690724,3.5523396000000003,-5.1566220000000005,100.02700764,-0.10313244,-18.6784308
0.32,32,0.0,-0.9940000000000001,0.188,-5.1566220000000005,4.4690724,-5.1566220000000005,99.96971184,-0.06302537999999999,-18.62686458
0.33,33,0.003,-0.997,0.19699999999999998,-4.8701430000000006,4.6409598,-4.9274388,99.91814562,-0.02291832,-18.56956878
0.34,34,0.005,-0.998,0.205,-4.4117766,4.8128472,-4.8128472,99.87230898,0.00572958,-18.518002560000006
0.35000000000000003,35,0.002,-0.992,0.209,-4.1825934,5.958763200000001,-4.7555514,99.8379315,0.04583664,-18.45497718
0.36000000000000004,36,0.001,-0.982,0.204,-4.4117766,7.6203414,-4.8128472,99.79209486,0.08021412,-18.37476306
0.37,37,0.0,-0.976,0.19699999999999998,-4.8128472,8.9381448,-4.8128472,99.74052864,0.10886202,-18.2773602
0.38,38,0.004,-0.975,0.19399999999999998,-5.443101,9.9121734,-4.9847346,99.68323284,0.13750992,-18.17422776
0.39,39,0.015,-0.978,0.192,-5.6722842,10.7716104,-4.9847346,99.62593704,0.16615782,-18.05963616
0.4,40,0.028999999999999998,-0.9840000000000001,0.192,-5.443101,10.828906199999999,-4.3544808,99.56864124,0.20053530000000008,-17.95650372
0.41000000000000003,41,0.046,-0.992,0.195,-5.2712136,10.1413566,-3.4950437999999995,99.51707502,0.21772404,-17.85337128
0.42000000000000004,42,0.065,-0.998,0.192,-5.3285094000000015,9.453807,-2.5783110000000002,99.45977922,0.22345362,-17.755968420000006
0.43,43,0.076,-1.0,0.19,-5.72958,8.136003599999999,-1.8334656000000005,99.40248342,0.22918320000000006,-17.6757543
0.44,44,0.08,-1.003,0.184,-6.3025379999999975,7.0473834,-1.3178034,99.33372846,0.22345362,-17.606999339999994
0.45,45,0.077,-1.006,0.18600000000000005,-6.703608600000001,5.5576926,-0.9167328000000001,99.27643266,0.27501984,-17.57835144
0.46,46,0.066,-1.008,0.19,-6.4744254,3.8961144,-0.5156622000000001,99.2076777,0.26929026,-17.538244380000002
0.47000000000000003,47,0.055,-1.0090000000000001,0.192,-6.3025379999999975,2.5783110000000002,-0.11459160000000004,99.14465232,0.26929026,-17.51532606
0.48000000000000004,48,0.044000000000000004,-1.005,0.191,-6.417129599999999,1.8907614,0.2291832000000001,99.07589736,0.25783110000000004,-17.498137319999998
0.49,49,0.036000000000000004,-0.9940000000000001,0.191,-6.3598338,1.432395,0.8021411999999999,99.01287198,0.24637194,-17.48667816
0.5,50,0.028999999999999998,-0.986,0.19399999999999998,-6.6463128000000005,1.2032118,1.2605076000000002,98.95557618,0.26356068,-17.492407739999994
0.51,51,0.024,-0.981,0.198,-6.703608600000001,0.6875496,1.9480572,98.88682122,0.24064236,-17.48667816
0.52,52,0.021,-0.983,0.201,-6.6463128000000005,0.7448454000000001,2.2345362,98.82379584,0.21772404,-17.48667816
0.53,53,0.019,-0.9890000000000001,0.203,-6.6463128000000005,0.8594370000000001,2.5210152000000003,98.75504088,0.18907614,-17.48094858
0.54,54,0.016,-0.993,0.20600000000000002,-6.5317212,1.3178034,2.4637194,98.68628592,0.16042824,-17.475219
0.55,55,0.015,-0.993,0.204,-6.589017,1.9480572,2.2345362,98.6347197,0.14896908,-17.46948942
0.56,56,0.016,-0.991,0.2,-6.990087599999999,2.4064236,2.0053530000000004,98.56596474,0.12605075999999998,-17.45230068
0.5700000000000001,57,0.015,-0.987,0.19399999999999998,-7.161975,2.7501984,1.9480572,98.4914802,0.10313244,-17.429382359999998
0.5800000000000001,58,0.015,-0.985,0.18600000000000005,-7.333862400000001,3.0366774,1.9480572,98.41699566,0.07448454,-17.40073446
0.59,59,0.016,-0.987,0.17800000000000002,-7.161975,3.1512689999999997,2.1199446,98.34251112,0.05156622,-17.37208656
0.6,60,0.017,-0.99,0.17800000000000002,-7.3911582,3.0366774,2.291832,98.27375616,0.03437748,-17.354897819999998
0.61,61,0.015,-0.9940000000000001,0.18,-7.5630456000000015,2.7501984,2.4637194,98.19354204,0.00572958,-17.331979500000006
0.62,62,0.016,-0.998,0.183,-7.734933000000002,2.291832,2.4064236,98.1190575,-0.01718874,-17.31479076
0.63,63,0.018000000000000002,-1.0,0.18600000000000005,-8.250595200000001,1.8907614,2.3491277999999998,98.0331138,-0.04583664,-17.303331600000003
0.64,64,0.021,-0.998,0.18600000000000005,-8.7662574,1.7188740000000002,2.291832,97.94144052,-0.06875496,-17.29187244
0.65,65,0.021,-0.998,0.185,-8.880849000000003,1.6615782,2.2345362,97.8612264,-0.07448454,-17.286142859999998
0.66,66,0.019,-0.998,0.179,-8.7089616,1.6615782,2.1772404,97.7752827,-0.10313244,-17.2746837
0.67,67,0.015,-1.004,0.17800000000000002,-8.7089616,1.6615782,2.3491277999999998,97.68360942,-0.12605075999999998,-17.26322454
0.68,68,0.008,-1.004,0.174,-9.167328,1.6042823999999998,2.7501984,97.59193614,-0.16042824,-17.251765380000002
0.6900000000000001,69,-0.001,-1.002,0.17,-9.3392154,1.2605076000000002,3.0939732,97.49453327999998,-0.19480572,-17.246035799999998
0.7000000000000001,70,-0.013000000000000001,-1.002,0.168,-9.568398599999998,0.8021411999999999,3.380452200000001,97.40286,-0.22918320000000006,-17.24030622
0.7100000000000001,71,-0.013999999999999999,-0.9990000000000001,0.17,-9.740286,0.4583664000000001,3.6669312000000014,97.30545714,-0.26929026,-17.246035799999998
0.72,72,-0.009000000000000001,-1.001,0.172,-9.682990199999999,0.572958,3.9534102,97.20805428,-0.30939732,-17.246035799999998
0.73,73,-0.004,-1.003,0.174,-9.8548776,0.40107059999999994,4.1825934,97.11065142,-0.34950438,-17.246035799999998
0.74,74,0.0,-0.9990000000000001,0.17300000000000001,-9.396511199999999,0.0,4.1825934,97.01324856,-0.39534102,-17.251765380000002
0.75,75,0.004,-1.001,0.168,-7.448453999999999,-0.7448454000000001,4.2398892,96.94449360000002,-0.41825934,-17.2746837
0.76,76,0.013000000000000001,-1.005,0.16,-7.2765666,-1.6615782,4.6409598,96.87573864,-0.46409598,-17.29760202
0.77,77,0.017,-1.005,0.156,-7.6776372,-2.7501984,5.2712136,96.79552452,-0.5156622000000001,-17.331979500000006
0.78,78,0.018000000000000002,-1.004,0.152,-8.193299399999999,-4.297185,6.130650599999999,96.7153104,-0.56722842,-17.383545719999994
0.79,79,0.012,-1.005,0.154,-8.8235532,-6.1879464,7.1046792000000005,96.62363712,-0.6302538000000001,-17.45230068
0.8,80,0.001,-1.005,0.157,-9.740286,-7.5057497999999985,7.5630456000000015,96.53196384,-0.6875496,-17.54397396
0.81,81,-0.009000000000000001,-1.004,0.157,-10.084060800000001,-8.59437,7.6203414,96.43456098,-0.75630456,-17.63564724
0.8200000000000001,82,-0.021,-1.005,0.151,-10.313244000000001,-9.8548776,7.5057497999999985,96.33142854,-0.8136003599999999,-17.74450926
0.8300000000000001,83,-0.026000000000000002,-1.0090000000000001,0.14300000000000002,-10.657018800000001,-11.5164558,7.3911582,96.2282961,-0.87662574,-17.86483044
0.8400000000000001,84,-0.027000000000000003,-1.0090000000000001,0.133,-11.917526400000002,-13.3499214,7.5630456000000015,96.10797492,-0.93392154,-18.00806994
0.85,85,-0.03,-1.0070000000000001,0.134,-13.2353298,-14.896907999999998,8.021412000000002,95.98192416,-0.9969469199999998,-18.162768600000003
0.86,86,-0.03,-1.006,0.135,-14.209358400000001,-16.2147114,8.8235532,95.84441424,-1.0599723,-18.334656000000006
0.87,87,-0.027999999999999997,-1.003,0.135,-15.183387000000002,-17.131444199999994,9.396511199999999,95.69544516,-1.13445684,-18.51227298
0.88,88,-0.034,-0.996,0.135,-15.928232399999999,-17.4179232,9.224623800000002,95.5407465,-1.2032117999999998,-18.69561954
0.89,89,-0.046,-0.99,0.136,-16.673077799999998,-16.959556799999998,8.651665800000002,95.37458868,-1.27196676,-18.87323652
0.9,90,-0.065,-0.98,0.14400000000000002,-16.959556799999998,-16.558486199999994,7.9641161999999985,95.21416044,-1.34072172,-19.03939434
0.91,91,-0.08800000000000001,-0.978,0.162,-16.386598799999998,-16.042824000000003,7.2765666,95.0537322,-1.39228794,-19.20555216
0.92,92,-0.11,-0.982,0.16899999999999998,-16.4438946,-14.7823164,6.9327918,94.89330396,-1.44958374,-19.36025082
0.93,93,-0.13,-0.99,0.168,-16.386598799999998,-13.120738199999998,6.8182002000000015,94.73287572,-1.50114996,-19.49776074
0.9400000000000001,94,-0.14800000000000002,-1.0,0.17300000000000001,-16.157415599999997,-11.1153852,6.6463128000000005,94.57244748,-1.55844576,-19.61235234
0.9500000000000001,95,-0.158,-1.01,0.171,-15.469866,-8.9954406,6.5317212,94.42920798000002,-1.64438946,-19.69829604
0.9600000000000001,96,-0.162,-1.02,0.17,-14.610429000000002,-7.2192707999999985,6.589017,94.28023890000001,-1.7074148399999998,-19.77278058
0.97,97,-0.165,-1.028,0.16699999999999998,-13.9228794,-5.0993262,6.875496000000001,94.14272898,-1.77044022,-19.83007638
0.98,98,-0.163,-1.031,0.157,-13.464512999999998,-3.0366774,7.3911582,94.00521906,-1.83919518,-19.87018344
0.99,99,-0.161,-1.025,0.152,-13.178034,-0.7448454000000001,8.021412000000002,93.87343872,-1.9194093000000003,-19.8816426
1.0,100,-0.155,-1.016,0.14800000000000002,-13.178034,0.7448454000000001,8.307891,93.74738796,-2.04546006,-19.86445386
1.01,101,-0.146,-1.0090000000000001,0.145,-13.120738199999998,1.8334656000000005,8.307891,93.61560762,-2.12567418,-19.8529947
1.02,102,-0.13699999999999998,-1.002,0.14,-13.178034,2.6356068,8.3651868,93.4780977,-2.21161788,-19.83580596
1.03,103,-0.131,-0.996,0.131,-13.0634424,2.6929026,8.193299399999999,93.34631736,-2.29756158,-19.812887640000003
1.04,104,-0.126,-0.99,0.127,-12.776963400000001,2.5210152000000003,7.734933000000002,93.21453702,-2.3777757,-19.7956989
1.05,105,-0.125,-0.9840000000000001,0.124,-12.834259199999998,2.1199446,7.333862400000001,93.09421584,-2.48663772,-19.767051
1.06,106,-0.129,-0.978,0.13,-12.834259199999998,1.8907614,6.8182002000000015,92.9624355,-2.55539268,-19.75559184
1.07,107,-0.135,-0.97,0.126,-12.318597,2.0053530000000004,5.9014674000000005,92.83638474,-2.61841806,-19.738403100000006
1.08,108,-0.142,-0.966,0.127,-11.688343199999998,2.3491277999999998,4.9274388,92.71606355999998,-2.6699842800000004,-19.72121436
1.09,109,-0.149,-0.9640000000000001,0.126,-11.172680999999999,2.7501984,3.8388186,92.60147196,-2.71009134,-19.69829604
1.1,110,-0.156,-0.961,0.131,-10.7716104,3.3231564,2.6929026,92.50979868,-2.79030546,-19.64672982
1.11,111,-0.162,-0.961,0.135,-10.3705398,4.7555514,1.432395,92.40093666,-2.8074942000000003,-19.60089318
1.12,112,-0.166,-0.9590000000000001,0.134,-9.9694692,6.3025379999999975,0.286479,92.29780422000002,-2.81895336,-19.5378678
1.1300000000000001,113,-0.17,-0.955,0.139,-9.3392154,8.193299399999999,-0.9167328000000001,92.20040136,-2.81322378,-19.45765368
1.1400000000000001,114,-0.17,-0.96,0.149,-8.651665800000002,10.026765,-1.9480572,92.1029985,-2.80176462,-19.36025082
1.1500000000000001,115,-0.16699999999999998,-0.961,0.157,-7.8495246,12.7196676,-2.86479,92.03997312,-2.81895336,-19.21701132
1.1600000000000001,116,-0.16,-0.9620000000000001,0.166,-7.1046792000000005,14.7250206,-3.3231564,91.95975899999999,-2.79603504,-19.07377182
1.17,117,-0.154,-0.96,0.175,-6.3598338,16.673077799999998,-3.7815228,91.87954488,-2.76738714,-18.907614000000002
1.18,118,-0.151,-0.955,0.185,-5.6722842,18.5638392,-4.3544808,91.81078992,-2.73873924,-18.72426744
1.19,119,-0.153,-0.9520000000000001,0.193,-5.0993262,20.5691922,-5.3285094000000015,91.74776454000002,-2.69863218,-18.518002560000006
1.2,120,-0.155,-0.948,0.19899999999999998,-4.3544808,22.86102420000001,-6.5317212,91.71338706000002,-2.6699842800000004,-18.28308978
1.21,121,-0.161,-0.95,0.205,-3.3231564,25.2674478,-7.8495246,91.66755042,-2.6069589,-18.03098826
1.22,122,-0.16399999999999998,-0.9570000000000001,0.21600000000000005,-2.5783110000000002,27.272800800000002,-9.224623800000002,91.62171378,-2.52674478,-17.755968420000006
1.23,123,-0.162,-0.9570000000000001,0.213,-1.6615782,29.793815999999996,-10.3705398,91.5873363,-2.44080108,-17.46375984
1.24,124,-0.153,-0.9520000000000001,0.201,-0.3437748,30.7678446,-10.943497800000001,91.56441798,-2.3491278,-17.15436252
1.25,125,-0.14400000000000002,-0.9440000000000001,0.192,1.0313244000000001,31.340802600000004,-11.5164558,91.58160672,-2.26891368,-16.83350604
1.26,126,-0.13699999999999998,-0.929,0.192,2.5783110000000002,32.4294228,-12.318597,91.5873363,-2.1657812400000003,-16.51264956
1.27,127,-0.133,-0.917,0.19,4.4117766,34.2055926,-13.0634424,91.6159842,-2.05118964,-16.16887476
1.28,128,-0.131,-0.909,0.191,6.4744254,36.096354,-13.8655836,91.66182084,-1.93659804,-15.80791122
1.29,129,-0.127,-0.905,0.203,8.479778399999999,38.10170700000001,-14.438541599999999,91.7305758,-1.81054728,-15.42402936
1.3,130,-0.12,-0.902,0.20800000000000002,10.5424272,39.7059894,-14.9542038,91.83370824,-1.6959556799999995,-15.02295876
1.31,131,-0.11599999999999999,-0.899,0.21899999999999997,13.0061466,41.825934000000004,-15.297978599999999,91.94829984,-1.56990492,-14.60469942
1.32,132,-0.115,-0.897,0.24100000000000002,13.9228794,43.3729206,-15.3552744,92.07435059999999,-1.44385416,-14.16925134
1.33,133,-0.11699999999999999,-0.89,0.267,14.1520626,43.831286999999996,-15.297978599999999,92.20040136,-1.3178034,-13.72807368
1.34,134,-0.121,-0.873,0.295,15.9855282,43.315624799999995,-14.9542038,92.34937044,-1.19748222,-13.2926256
1.35,135,-0.128,-0.8540000000000001,0.321,20.05353,43.0864416,-14.4958374,92.56136490000002,-1.0886202,-12.857177520000002
1.36,136,-0.138,-0.87,0.33299999999999996,25.2674478,47.3836266,-14.1520626,92.80200726,-0.97975818,-12.38162238
1.37,137,-0.063,-1.025,0.141,25.668518399999996,64.28588760000001,-11.3445684,93.04264962,-0.9167328,-11.73417984
1.3800000000000001,138,0.021,-1.3630000000000002,0.03,26.069589,61.1346186,2.291832,93.28902156,-0.98548776,-11.13257394
1.3900000000000001,139,0.08800000000000001,-1.703,0.17600000000000002,23.204798999999998,40.04976420000001,16.042824000000003,93.51247518,-1.18029348,-10.7429625
1.4000000000000001,140,0.23600000000000002,-1.8780000000000001,0.07400000000000001,21.829699800000004,41.1383844,27.501984000000004,93.71874006,-1.48396122,-10.35908064
1.4100000000000001,141,0.318,-1.801,-0.034,22.5745452,34.0337052,37.4714532,93.9364641,-1.88503182,-10.04395374
1.42,142,0.27,-1.5319999999999998,-0.08,25.0382646,24.064236,33.8618178,94.18283604,-2.24026578,-9.826229699999999
1.43,143,0.095,-1.2209999999999999,-0.066,25.6112226,21.142150199999996,19.480572,94.42920798000002,-2.45798982,-9.63142398
1.44,144,-0.044000000000000004,-1.003,0.023,24.694489800000003,19.4232762,4.3544808,94.66985034,-2.51528562,-9.44234784
1.45,145,-0.125,-0.87,0.057999999999999996,21.944291399999997,15.6990492,-6.2452422,94.87611522,-2.4923672999999997,-9.27046044
1.46,146,-0.166,-0.7929999999999999,0.016,15.183387000000002,21.0848544,-13.8082878,95.01935472,-2.3777757,-9.04700682
1.47,147,-0.162,-0.77,-0.008,12.5477802,36.2682414,-17.3606274,95.12821674,-2.24599536,-8.67458412
1.48,148,-0.132,-0.772,-0.019,9.6256944,46.3523022,-18.1054728,95.1969717,-2.1199446,-8.19902898
1.49,149,-0.092,-0.78,-0.02,6.703608600000001,52.2537696,-16.501190400000002,95.24280834,-2.01681216,-7.671907620000002
1.5,150,-0.046,-0.81,-0.026000000000000002,4.5263682,52.0245864,-12.0894138,95.24853792,-1.9595163600000003,-7.144786260000001
1.51,151,0.015,-0.862,-0.039,1.4896908000000002,46.7533728,-6.3598338,95.24280834,-1.95378678,-6.680690279999999
1.52,152,0.075,-0.909,-0.049,-0.7448454000000001,39.304918799999996,-0.286479,95.21416044,-1.99389384,-6.29107884
1.53,153,0.14300000000000002,-0.9490000000000001,-0.045,-3.0366774,29.9657034,4.583664,95.17405338,-2.07410796,-6.00459984
1.54,154,0.209,-0.968,-0.04,-4.4117766,20.3973048,7.2192707999999985,95.11675757999998,-2.17151082,-5.80979412
1.55,155,0.23399999999999999,-0.976,-0.024,-3.2085647999999996,8.9954406,6.8182002000000015,95.04800262,-2.10848544,-5.77541664
1.56,156,0.233,-0.975,0.006,-2.86479,2.6929026,4.010706000000001,95.01935472,-2.15432208,-5.75249832
1.57,157,0.223,-0.976,0.046,-2.1199446,-1.7761698000000001,-0.8021411999999999,94.99643640000001,-2.14286292,-5.76968706
1.58,158,0.20199999999999999,-0.983,0.07400000000000001,-0.7448454000000001,-3.7242269999999995,-6.4744254,94.99070682,-2.07410796,-5.80406454
1.59,159,0.16899999999999998,-1.004,0.076,0.8021411999999999,-4.1252976000000015,-11.45916,95.00216598,-1.9595163600000003,-5.83271244
1.6,160,0.132,-1.0270000000000001,0.075,2.0053530000000004,-4.1252976000000015,-15.183387000000002,95.01935472,-1.7475218999999995,-5.87854908
1.61,161,0.094,-1.04,0.08,3.5523396000000003,-4.7555514,-17.6471064,95.05946178,-1.56990492,-5.9129265600000025
1.62,162,0.053,-1.032,0.094,5.0993262,-5.6722842,-18.793022399999998,95.111028,-1.3750992,-5.9473040400000015
1.6300000000000001,163,0.021,-1.012,0.11199999999999999,6.4744254,-7.2765666,-18.6784308,95.17978295999998,-1.18029348,-6.00459984
1.6400000000000001,164,0.006,-0.9890000000000001,0.127,6.5317212,-7.8495246,-17.6471064,95.24853792,-0.9969469199999998,-6.06189564
1.6500000000000001,165,0.0,-0.972,0.13699999999999998,5.72958,-7.0473834,-16.2147114,95.31729288,-0.8193299399999999,-6.11919144
1.6600000000000001,166,0.002,-0.9590000000000001,0.135,4.3544808,-4.6409598,-14.7250206,95.36312952,-0.6703608600000001,-6.15356892
1.6700000000000002,167,0.004,-0.9520000000000001,0.127,2.6356068,-1.6042823999999998,-13.3499214,95.38604784,-0.53285094,-6.15356892
1.68,168,0.006999999999999999,-0.9520000000000001,0.11599999999999999,1.0313244000000001,1.6615782,-12.032118,95.397507,-0.41825934,-6.12492102
1.69,169,0.015,-0.956,0.11199999999999999,-0.2291832000000001,4.4117766,-11.2299768,95.397507,-0.30939732,-6.0733548000000015
1.7,170,0.028999999999999998,-0.963,0.109,-0.9167328000000001,5.958763200000001,-10.7143146,95.38604784,-0.19480572,-6.01032942
1.71,171,0.05,-0.9620000000000001,0.11199999999999999,-1.6042823999999998,6.703608600000001,-10.3705398,95.3688591,-0.09740286,-5.93584488
1.72,172,0.071,-0.9520000000000001,0.111,-2.4064236,6.0733548,-9.9121734,95.34021120000001,-0.00572958,-5.86708992
1.73,173,0.09,-0.934,0.11199999999999999,-2.7501984,4.0680017999999984,-9.2819196,95.31156330000002,0.07448454,-5.815523699999999
1.74,174,0.10800000000000001,-0.915,0.122,-3.0939732,0.9167328000000001,-8.4224826,95.28291540000001,0.15469866,-5.79833496
1.75,175,0.12,-0.9,0.136,-3.7242269999999995,-2.5783110000000002,-7.3911582,95.26572666,0.29220857999999994,-5.849901179999999
1.76,176,0.128,-0.892,0.145,-3.9534102,-5.443101,-6.3598338,95.2256196,0.36096354,-5.895737819999999
1.77,177,0.127,-0.898,0.155,-3.8388186,-7.5630456000000015,-4.9847346,95.18551254,0.42398892,-5.96449278
1.78,178,0.115,-0.912,0.171,-3.9534102,-8.9381448,-3.2085647999999996,95.14540548,0.46409598,-6.05043648
1.79,179,0.10099999999999999,-0.93,0.18600000000000005,-3.1512689999999997,-10.084060800000001,-0.8021411999999999,95.11675757999998,0.48128472,-6.15356892
1.8,180,0.094,-0.9470000000000001,0.19699999999999998,-2.5210152000000003,-10.313244000000001,1.0886202,95.13967590000001,0.5443101,-6.29107884
1.81,181,0.095,-0.958,0.201,-2.0053530000000004,-10.2559482,3.0939732,95.12248716,0.52712136,-6.39421128
1.82,182,0.106,-0.963,0.2,-1.5469866,-10.4278356,4.7555514,95.10529842,0.49274388,-6.497343719999999
1.83,183,0.125,-0.966,0.18899999999999997,-1.145916,-11.2872726,6.3598338,95.09383926,0.44117766,-6.6176648999999985
1.84,184,0.151,-0.966,0.166,-0.8021411999999999,-13.2926256,7.6776372,95.08810968,0.37815228,-6.7551748200000015
1.85,185,0.17300000000000001,-0.963,0.142,-0.6302538000000001,-17.0168526,9.396511199999999,95.09956884,0.36669312,-6.955710119999999
1.86,186,0.188,-0.96,0.122,0.0,-21.772404,11.5164558,95.09956884,0.27501984,-7.17916374
1.87,187,0.201,-0.951,0.132,2.0053530000000004,-31.79916900000001,14.8396122,95.12248716,0.16615782,-7.505749800000001
1.8800000000000001,188,0.201,-0.94,0.16399999999999998,4.010706000000001,-42.1697088,17.8189938,95.1683238,0.04010706,-7.935468299999997
1.8900000000000001,189,0.19899999999999998,-0.9309999999999999,0.212,6.3598338,-51.9099948,20.3973048,95.24280834,-0.09740286,-8.46258966
1.9000000000000001,190,0.17800000000000002,-0.935,0.253,7.906820400000001,-58.9000824,22.2307704,95.34594078,-0.22918320000000006,-9.06992514
1.9100000000000001,191,0.158,-0.9540000000000001,0.284,11.1153852,-62.910788399999994,21.772404,95.47199154,-0.36669312,-9.7116381
1.9200000000000002,192,0.136,-0.992,0.313,11.9748222,-64.8015498,19.9389384,95.60950146,-0.48128472,-10.36481022
1.93,193,0.102,-1.025,0.324,11.8602306,-63.9994086,17.131444199999994,95.7412818,-0.5729580000000001,-11.00652318
1.94,194,0.051,-1.065,0.35700000000000004,12.032118,-61.191914399999995,13.2926256,95.87879172,-0.62452422,-11.61958824
1.95,195,0.009000000000000001,-1.085,0.395,11.8602306,-52.139178,8.7662574,96.03349038,-0.63598338,-12.14098002
1.96,196,-0.025,-1.091,0.409,12.3758928,-44.8626114,6.0160589999999985,96.1710003,-0.63598338,-12.58788726
1.97,197,-0.045,-1.082,0.34600000000000003,11.5164558,-41.0810886,4.5263682,96.29705106,-0.62452422,-12.994687439999998
1.98,198,-0.091,-1.145,0.172,9.8548776,-43.65939960000001,2.1772404,96.40591308,-0.59014674,-13.42440594
1.99,199,-0.158,-1.315,0.109,12.891555,-40.90920120000001,-5.72958,96.54915258,-0.47555514,-13.81401738
2.0,200,-0.22399999999999998,-1.535,0.162,16.959556799999998,-38.27359439999999,-16.2147114,96.72676956,-0.26356068,-14.16925134
2.01,201,-0.308,-1.6159999999999999,0.18600000000000005,10.313244000000001,-39.304918799999996,-26.5279554,96.83563158,0.05156622,-14.518755719999998
2.02,202,-0.316,-1.619,0.174,11.8602306,-37.6433406,-37.81522800000001,96.96168234,0.48128472,-14.8396122
2.03,203,-0.168,-1.59,0.079,18.048177,-19.136797199999997,-43.258328999999996,97.1450289,0.93392154,-14.97139254
2.04,204,0.021,-1.351,-0.013999999999999999,15.2406828,-6.703608600000001,-34.4347758,97.29972756,1.28342592,-14.98858128
2.05,205,0.19699999999999998,-1.107,0.009000000000000001,17.3606274,-1.432395,-19.652459399999998,97.4601558,1.53552744,-14.99431086
2.0599999999999996,206,0.289,-1.008,0.02,21.4286292,-6.3025379999999975,-5.5003968,97.67215026,1.59855282,-15.04587708
2.07,207,0.313,-0.9890000000000001,0.01,19.2513888,-18.621135,5.443101,97.86695598,1.5756344999999998,-15.23495322
2.0799999999999996,208,0.275,-0.963,-0.025,12.9488508,-33.5753388,13.0061466,97.99300674,1.50114996,-15.57872802
2.09,209,0.201,-0.9440000000000001,-0.047,7.161975,-46.8679644,16.959556799999998,98.0617617,1.41520626,-16.060012739999998
2.0999999999999996,210,0.10800000000000001,-0.9129999999999999,-0.07200000000000001,2.6929026,-56.78013780000001,17.0741484,98.0617617,1.3464512999999998,-16.638700319999998
2.11,211,0.023,-0.888,-0.063,1.145916,-65.317212,12.2040054,98.06749128,1.3349921400000002,-17.29187244
2.1199999999999997,212,-0.023,-0.873,-0.057,0.286479,-65.2599162,5.7868758000000025,98.06749128,1.38655836,-17.9335854
2.13,213,-0.036000000000000004,-0.8490000000000001,-0.06,-1.6042823999999998,-60.10329419999999,-0.286479,98.04457296,1.4896908000000002,-18.52373214
2.1399999999999997,214,-0.048,-0.821,-0.054000000000000006,-4.0680017999999984,-51.9672906,-4.7555514,97.99300674,1.62147114,-19.0222056
2.15,215,-0.067,-0.8109999999999999,-0.047,-6.990087599999999,-44.06047020000001,-6.9327918,97.89560387999998,1.7475218999999995,-19.43473536
2.1599999999999997,216,-0.09300000000000001,-0.8220000000000001,-0.035,-9.224623800000002,-36.955791,-7.1046792000000005,97.79820102,1.87357266,-19.78996932
2.17,217,-0.11900000000000001,-0.866,-0.022000000000000002,-10.7716104,-29.9084076,-6.130650599999999,97.68360942,1.98243468,-20.07071874
2.1799999999999997,218,-0.155,-0.929,0.003,-11.688343199999998,-23.7204612,-4.0680017999999984,97.55755866,2.0626488000000003,-20.29990194
2.19,219,-0.192,-0.9840000000000001,0.035,-9.9694692,-15.6990492,-0.8594370000000001,97.45442622,2.0912967,-20.454600600000006
2.1999999999999997,220,-0.223,-0.997,0.054000000000000006,-7.5057497999999985,-10.599723,2.5210152000000003,97.33410504,1.9480572000000005,-20.50616682
2.21,221,-0.243,-0.971,0.077,-2.7501984,-6.6463128000000005,6.589017,97.30545714,1.89649098,-20.57492178
2.2199999999999998,222,-0.23800000000000002,-0.9420000000000001,0.094,1.8334656000000005,-2.6929026,10.026765,97.32264588,1.79908812,-20.61502884
2.23,223,-0.20800000000000002,-0.93,0.094,4.9847346,1.7188740000000002,12.7196676,97.3742121,1.67303736,-20.61502884
2.2399999999999998,224,-0.171,-0.9390000000000001,0.1,8.021412000000002,5.958763200000001,14.7250206,97.45442622,1.5183387000000002,-20.57492178
2.25,225,-0.133,-0.958,0.11,8.880849000000003,9.167328,16.157415599999997,97.53464034,1.30634424,-20.488978080000006
2.26,226,-0.096,-0.961,0.11800000000000001,9.2819196,10.657018800000001,16.7876694,97.6320432,1.12872726,-20.40876396
2.27,227,-0.063,-0.955,0.131,8.193299399999999,11.917526400000002,15.469866,97.71225732,0.95683986,-20.3113611
2.28,228,-0.04,-0.946,0.14,6.703608600000001,12.0894138,13.120738199999998,97.78101228,0.8078707799999998,-20.20822866
2.29,229,-0.027000000000000003,-0.937,0.138,4.5263682,11.5164558,10.4278356,97.82684892,0.6875496,-20.1108258
2.3,230,-0.024,-0.9309999999999999,0.129,2.6929026,10.084060800000001,7.7922288,97.84976724,0.5786875800000001,-20.01342294
2.31,231,-0.031,-0.929,0.11699999999999999,0.6875496,7.333862400000001,5.5576926,97.85549682,0.5099326200000001,-19.950397560000006
2.32,232,-0.046,-0.9259999999999999,0.111,-0.5156622000000001,3.380452200000001,3.9534102,97.84976724,0.46409598,-19.92174966
2.3299999999999996,233,-0.055,-0.922,0.111,-1.2605076000000002,-0.7448454000000001,3.0366774,97.83830808,0.43544808,-19.93320882
2.34,234,-0.08199999999999999,-0.929,0.125,-1.3750992,-3.2658606,2.7501984,97.82111934,0.41252976,-19.97331588
2.3499999999999996,235,-0.105,-0.9279999999999999,0.131,-2.5783110000000002,-4.010706000000001,2.6356068,97.78101228,0.29793816,-19.97331588
2.36,236,-0.124,-0.922,0.142,-2.86479,-2.6356068,2.3491277999999998,97.75236438,0.27501984,-20.00196378
2.3699999999999997,237,-0.136,-0.917,0.156,-3.4377480000000005,0.0,1.7761698000000001,97.7179869,0.25783110000000004,-20.00769336
2.38,238,-0.131,-0.912,0.162,-3.7815228,3.0366774,1.145916,97.67787984,0.24064236,-19.97904546
2.3899999999999997,239,-0.113,-0.9009999999999999,0.172,-3.4377480000000005,5.7868758000000025,0.5156622000000001,97.64350236,0.22918320000000006,-19.92174966
2.4,240,-0.08900000000000001,-0.904,0.187,-3.7242269999999995,7.5630456000000015,-0.057295800000000015,97.62058404,0.16615782,-19.83007638
2.4099999999999997,241,-0.07200000000000001,-0.889,0.183,-3.9534102,8.250595200000001,-0.40107059999999994,97.58047698,0.15469866,-19.74986226
2.42,242,-0.065,-0.885,0.192,-2.291832,7.906820400000001,-1.145916,97.55755866,0.15469866,-19.67537772
2.4299999999999997,243,-0.073,-0.882,0.196,-1.2032118,6.703608600000001,-2.5210152000000003,97.5460995,0.1718874,-19.60662276
2.44,244,-0.08800000000000001,-0.887,0.203,-0.057295800000000015,6.1879464,-4.1825934,97.54036992,0.20053530000000008,-19.5378678
2.4499999999999997,245,-0.10800000000000001,-0.89,0.20800000000000002,0.40107059999999994,6.875496000000001,-6.2452422,97.56901782,0.18907614,-19.44046494
2.46,246,-0.136,-0.89,0.21,0.8021411999999999,8.8235532,-8.59437,97.5747474,0.26356068,-19.34306208
2.4699999999999998,247,-0.158,-0.8809999999999999,0.209,1.0313244000000001,12.5477802,-11.2299768,97.58620656,0.35523396,-19.20555216
2.48,248,-0.17600000000000002,-0.8690000000000001,0.217,2.0626488000000003,17.9335854,-13.750992000000002,97.6033953,0.4583664000000001,-19.01074644
2.4899999999999998,249,-0.184,-0.86,0.231,3.8388186,24.0069402,-15.870936600000002,97.64350236,0.5786875800000001,-18.75291534
2.5,250,-0.19,-0.863,0.255,6.5317212,29.2781538,-17.0168526,97.72371648,0.66463128,-18.43205886
2.51,251,-0.195,-0.88,0.27,8.9381448,34.7785506,-16.902261,97.81538976,0.7792228800000001,-18.06536574
2.52,252,-0.192,-0.9059999999999999,0.272,10.1413566,38.27359439999999,-15.928232399999999,97.91852220000001,0.87089616,-17.67002472
2.53,253,-0.18,-0.9390000000000001,0.26899999999999996,10.7143146,41.3675676,-14.5531332,98.02738422000002,0.95111028,-17.246035799999998
2.54,254,-0.157,-0.975,0.268,10.828906199999999,44.175061799999995,-12.7196676,98.14197582,1.0026765,-16.79339898
2.55,255,-0.11800000000000001,-1.014,0.261,11.1153852,45.034498799999994,-10.599723,98.262297,1.01413566,-16.33503258
2.56,256,-0.07400000000000001,-1.052,0.24100000000000002,12.4904844,42.7999626,-7.906820400000001,98.38834776,1.01986524,-15.90531408
2.57,257,-0.036000000000000004,-1.073,0.22899999999999998,16.1001198,36.2682414,-4.297185,98.55450558,1.0026765,-15.54435054
2.5799999999999996,258,-0.012,-1.0759999999999998,0.27,21.199446,29.793815999999996,-0.9167328000000001,98.77222962,0.96256944,-15.24641238
2.59,259,-0.012,-1.0590000000000002,0.311,26.41336380000001,29.163562199999998,1.2605076000000002,99.04151988,0.89381448,-14.95993338
2.5999999999999996,260,-0.013000000000000001,-1.0979999999999999,0.292,26.1841806,43.258328999999996,2.0626488000000003,99.31081014,0.79641162,-14.541674039999998
2.61,261,0.069,-1.206,0.168,24.1788276,58.15523699999999,7.906820400000001,99.55718208,0.61306506,-13.985904779999998
2.6199999999999997,262,0.078,-1.3730000000000002,0.203,27.788463,52.425657,15.756345,99.83220192,0.35523396,-13.504620060000002
2.63,263,0.172,-1.632,0.16,24.694489800000003,57.4676874,23.835052800000003,100.07857386,0.01145916,-12.98322828
2.6399999999999997,264,0.249,-1.8419999999999999,0.128,27.215505,42.742666799999995,43.544808,100.34786412,-0.49274388,-12.64518306
2.65,265,0.27699999999999997,-1.8259999999999998,0.054000000000000006,36.7839036,23.0329116,56.6082504,100.71455724,-1.0886202,-12.52486188
2.6599999999999997,266,0.22399999999999998,-1.507,-0.044000000000000004,39.8778768,16.902261,52.19647379999999,101.11562784,-1.6272007199999998,-12.45610692
2.67,267,0.064,-1.256,0.044000000000000004,39.247623,12.3758928,38.3308902,101.51669844,-2.02827132,-12.404540699999998
2.6799999999999997,268,-0.163,-1.036,0.11800000000000001,27.215505,3.6669312000000014,22.86102420000001,101.79171827999998,-2.25745452,-12.41027028
2.69,269,-0.244,-0.868,0.07,14.7250206,5.72958,8.3651868,101.94068736,-2.3491278,-12.370163219999998
2.6999999999999997,270,-0.239,-0.8009999999999999,0.071,7.5630456000000015,16.7303736,-0.9167328000000001,101.98079442,-2.42361234,-12.186816659999998
2.71,271,-0.179,-0.769,0.052000000000000005,5.2139178,30.4240698,-5.7868758000000025,102.0151719,-2.44080108,-11.88314892
2.7199999999999998,272,-0.125,-0.785,0.040999999999999995,4.9847346,42.5707794,-7.2765666,102.0438198,-2.46944898,-11.45343042
2.73,273,-0.08900000000000001,-0.795,0.057,1.3750992,49.7900502,-5.5003968,102.03236064,-2.52674478,-10.96641612
2.7399999999999998,274,-0.037000000000000005,-0.83,0.063,-2.7501984,49.61816279999999,-1.0313244000000001,101.97506484,-2.6356068,-10.4851314
2.75,275,0.013999999999999999,-0.8959999999999999,0.046,-7.2765666,44.117765999999996,5.3285094000000015,101.85474366,-2.7788463,-10.07260164
2.76,276,0.07,-0.965,0.027999999999999997,-10.1986524,36.7839036,9.2819196,101.7286929,-2.9507337000000002,-9.740286
2.77,277,0.121,-1.0070000000000001,0.027000000000000003,-8.9381448,28.877083199999998,9.8548776,101.61983088,-3.11689152,-9.4824549
2.78,278,0.152,-1.031,0.027000000000000003,-5.042030400000002,20.9702628,6.9327918,101.5568055,-3.2314831199999987,-9.29337876
2.79,279,0.161,-1.02,0.027000000000000003,-1.6615782,13.0061466,1.7761698000000001,101.52815759999999,-3.27731976,-9.17305758
2.8,280,0.172,-0.991,0.057,1.145916,7.0473834,-4.1252976000000015,101.47086180000001,-3.0939732,-9.138680099999998
2.81,281,0.175,-0.966,0.092,1.9480572,2.2345362,-9.682990199999999,101.48805054,-3.00229992,-9.098573040000002
2.82,282,0.161,-0.961,0.111,1.2605076000000002,-1.8907614,-13.2353298,101.4995097,-2.87051958,-9.08711388
2.8299999999999996,283,0.146,-0.98,0.128,-0.9740286,-3.5523396000000003,-16.1001198,101.48805054,-2.70436176,-9.09284346
2.84,284,0.126,-0.9940000000000001,0.146,-2.291832,-3.6096353999999997,-16.902261,101.46513222,-2.53247436,-9.09284346
2.8499999999999996,285,0.10099999999999999,-1.0070000000000001,0.165,-3.1512689999999997,-4.8128472,-16.157415599999997,101.42502516,-2.30902074,-9.12149136
2.86,286,0.083,-1.0070000000000001,0.177,-3.0939732,-6.3025379999999975,-14.0947668,101.39637726,-2.16005166,-9.15586884
2.8699999999999997,287,0.076,-1.001,0.18100000000000002,-2.6356068,-7.906820400000001,-11.745639,101.37345894,-2.02827132,-9.20743506
2.88,288,0.071,-0.991,0.174,-2.5210152000000003,-9.2819196,-10.026765,101.35054062,-1.90795014,-9.2819196
2.8899999999999997,289,0.066,-0.982,0.16,-2.7501984,-9.3392154,-9.1100322,101.32189272,-1.79908812,-9.350674559999998
2.9,290,0.053,-0.9690000000000001,0.154,-3.7815228,-8.7089616,-8.7662574,101.2703265,-1.6615782,-9.43088868
2.9099999999999997,291,0.039,-0.955,0.153,-5.3285094000000015,-7.734933000000002,-8.7089616,101.21876028,-1.55844576,-9.48818448
2.92,292,0.033,-0.935,0.157,-6.8182002000000015,-6.703608600000001,-8.5370742,101.15000532,-1.4610428999999998,-9.53402112
2.9299999999999997,293,0.027000000000000003,-0.9159999999999999,0.16399999999999998,-8.5370742,-5.2712136,-7.8495246,101.06406162,-1.3750992,-9.57412818
2.94,294,0.032,-0.895,0.171,-10.599723,-3.8388186,-7.1046792000000005,100.96092918,-1.29488508,-9.5970465
2.9499999999999997,295,0.034,-0.887,0.175,-12.261301199999998,-2.0053530000000004,-6.3025379999999975,100.83487842,-1.20894138,-9.61423524
2.96,296,0.028999999999999998,-0.894,0.183,-13.2353298,0.6875496,-6.3025379999999975,100.69736850000001,-1.1459160000000002,-9.5970465
2.9699999999999998,297,0.036000000000000004,-0.899,0.18899999999999997,-12.4904844,3.4950437999999995,-6.1879464,100.57131774,-1.09434978,-9.55693944
2.98,298,0.053,-0.8959999999999999,0.196,-10.828906199999999,5.2139178,-5.7868758000000025,100.45672614,-1.04851314,-9.49391406
2.9899999999999998,299,0.078,-0.888,0.185,-7.7922288,6.0733548,-4.5263682,100.37651202,-1.01986524,-9.4251591
3.0,300,0.10800000000000001,-0.878,0.174,-4.3544808,4.6409598,-2.5210152000000003,100.33640496,-0.90527364,-9.41369994
3.01,301,0.135,-0.8690000000000001,0.17600000000000002,-0.8594370000000001,1.0313244000000001,0.057295800000000015,100.3249458,-0.91100322,-9.40224078
3.02,302,0.159,-0.856,0.195,2.1772404,-3.6096353999999997,2.9793816000000004,100.34786412,-0.92819196,-9.44234784
3.03,303,0.18100000000000002,-0.84,0.22699999999999998,4.4690724,-9.568398599999998,5.9014674000000005,100.39943034,-0.96829902,-9.54548028
3.04,304,0.20199999999999999,-0.828,0.253,6.1879464,-15.9855282,8.651665800000002,100.4681853,-1.01986524,-9.71736768
3.05,305,0.218,-0.8270000000000001,0.261,6.9327918,-21.944291399999997,10.7143146,100.56558816,-1.01986524,-9.969469199999999
3.06,306,0.21899999999999997,-0.836,0.259,7.734933000000002,-26.9863218,12.0894138,100.65153186,-1.08289062,-10.255948199999999
3.07,307,0.20800000000000002,-0.8690000000000001,0.27399999999999997,8.9954406,-33.804522,12.6623718,100.75466429999999,-1.13445684,-10.60545258
3.08,308,0.188,-0.9109999999999999,0.287,9.9694692,-38.67466500000001,13.178034,100.8692559,-1.18029348,-11.0007936
3.09,309,0.166,-0.9490000000000001,0.298,12.9488508,-41.1383844,12.891555,101.01822498,-1.22040054,-11.41905294
3.0999999999999996,310,0.132,-0.998,0.295,15.126091199999998,-42.456187799999995,12.261301199999998,101.19584196,-1.22613012,-11.860230599999998
3.11,311,0.071,-1.06,0.26,14.9542038,-45.550160999999996,11.172680999999999,101.36199978,-1.2318597,-12.318597
3.1199999999999997,312,-0.027000000000000003,-1.156,0.19,11.688343199999998,-51.0505578,8.9381448,101.4995097,-1.2032117999999998,-12.82852962
3.13,313,-0.162,-1.325,0.163,5.0993262,-51.4516284,3.2658606,101.56826466,-1.12299768,-13.33273266
3.1399999999999997,314,-0.301,-1.615,0.141,-1.432395,-41.4248634,-8.7089616,101.56826466,-0.9453807,-13.71088494
3.15,315,-0.39,-1.844,0.138,-4.0680017999999984,-25.84040580000001,-27.4446882,101.52815759999999,-0.62452422,-13.90569066
3.1599999999999997,316,-0.38,-1.837,0.153,2.9220858,-12.318597,-38.731960799999996,101.56253508,-0.21772404,-13.945797720000002
3.17,317,-0.153,-1.545,0.14,11.802934800000001,-2.291832,-33.231564,101.67712668,0.10313244,-13.89996108
3.1799999999999997,318,0.14400000000000002,-1.2690000000000001,0.142,20.6837838,0.0,-16.272007199999994,101.88912114,0.26356068,-13.85985402
3.19,319,0.33,-1.1,0.191,27.788463,-7.448453999999999,3.6669312000000014,102.17560014,0.24637194,-13.94006814
3.1999999999999997,320,0.387,-0.9890000000000001,0.19899999999999998,22.2307704,-14.209358400000001,18.277360199999997,102.39905376,0.1718874,-14.13487386
3.21,321,0.368,-0.91,0.154,11.802934800000001,-23.5485738,25.0382646,102.52510452,-0.00572958,-14.41562328
3.2199999999999998,322,0.267,-0.868,0.109,4.297185,-33.518043,24.1215318,102.57094116,-0.16042824,-14.78804598
3.23,323,0.131,-0.871,0.063,0.6302538000000001,-43.7166954,18.793022399999998,102.5881299,-0.23491278,-15.24641238
3.2399999999999998,324,-0.031,-0.8909999999999999,0.03,0.7448454000000001,-52.6548402,12.0894138,102.60531864,-0.22345362,-15.779263320000002
3.25,325,-0.14,-0.9109999999999999,0.031,0.2291832000000001,-56.72284200000001,6.5317212,102.5881299,-0.18334656,-16.323573420000002
3.26,326,-0.19899999999999998,-0.897,0.038,-2.7501984,-55.1758554,1.8334656000000005,102.57094116,-0.06875496,-16.85642436
3.27,327,-0.24100000000000002,-0.867,0.032,-7.6203414,-49.9619376,-2.3491277999999998,102.49645662,0.06875496,-17.331979500000006
3.28,328,-0.281,-0.8340000000000001,0.018000000000000002,-13.407217200000002,-43.029145799999995,-5.3858052,102.36467628,0.22345362,-17.733050100000003
3.29,329,-0.304,-0.8059999999999999,-0.006999999999999999,-18.334656,-34.37748,-6.6463128000000005,102.18132972,0.3724227000000001,-18.05390658
3.3,330,-0.301,-0.813,-0.026000000000000002,-20.912967000000002,-24.637194,-5.0993262,101.9292282,0.41252976,-18.25444188
3.31,331,-0.272,-0.8590000000000001,-0.016,-21.371333399999997,-13.521808800000002,-1.8907614,101.71723374,0.4583664000000001,-18.38049264
3.32,332,-0.22399999999999998,-0.932,0.009000000000000001,-19.4232762,-5.3285094000000015,2.1199446,101.51669844,0.44690724,-18.44351802
3.33,333,-0.177,-0.995,0.055999999999999994,-16.157415599999997,-0.2291832000000001,5.72958,101.3562702,0.39534102,-18.45497718
3.34,334,-0.128,-1.026,0.102,-13.120738199999998,2.291832,8.7662574,101.21876028,0.30366774,-18.45497718
3.3499999999999996,335,-0.091,-1.026,0.12300000000000001,-11.0580894,2.86479,10.7143146,101.07552078,0.15469866,-18.43205886
3.36,336,-0.066,-1.004,0.12300000000000001,-8.8235532,1.432395,11.745639,100.9838475,0.03437748,-18.44351802
3.3699999999999997,337,-0.055999999999999994,-0.982,0.127,-5.958763200000001,-0.5156622000000001,11.172680999999999,100.9265517,-0.06302537999999999,-18.47216592
3.38,338,-0.066,-0.9670000000000001,0.153,-4.2398892,-2.0626488000000003,9.0527364,100.88071506,-0.14896908,-18.506543399999998
3.3899999999999997,339,-0.09300000000000001,-0.956,0.175,-4.5263682,-3.0366774,5.6149884000000005,100.84060799999999,-0.20053530000000008,-18.54665046
3.4,340,-0.11900000000000001,-0.945,0.182,-4.4690724,-2.8074942000000003,1.8334656000000005,100.76612346,-0.36096354,-18.52373214
3.4099999999999997,341,-0.136,-0.9359999999999999,0.184,-4.4117766,-1.2605076000000002,-2.1772404,100.72028682,-0.33804522,-18.5351913
3.42,342,-0.147,-0.9229999999999999,0.17800000000000002,-4.583664,1.145916,-5.5003968,100.67445018,-0.28647900000000004,-18.51227298
3.4299999999999997,343,-0.158,-0.912,0.162,-4.6982555999999995,3.6096353999999997,-7.6203414,100.62861354,-0.22345362,-18.46643634
3.44,344,-0.155,-0.897,0.139,-4.7555514,5.2139178,-8.479778399999999,100.57704732,-0.14896908,-18.39768138
3.4499999999999997,345,-0.14300000000000002,-0.888,0.113,-4.9847346,5.9014674000000005,-8.136003599999999,100.49110362000002,-0.14323950000000002,-18.30027852
3.46,346,-0.115,-0.893,0.109,-4.8128472,5.958763200000001,-6.7609043999999985,100.4395374,-0.09167328,-18.23152356
3.4699999999999998,347,-0.076,-0.9079999999999999,0.10800000000000001,-4.8701430000000006,7.5057497999999985,-5.0993262,100.38797118,-0.057295800000000015,-18.15130944
3.48,348,-0.032,-0.932,0.134,-4.7555514,9.167328,-3.8388186,100.34213454,-0.04010706,-18.05390658
3.4899999999999998,349,0.013000000000000001,-0.955,0.16699999999999998,-4.0680017999999984,11.688343199999998,-3.5523396000000003,100.29629789999998,-0.028647900000000007,-17.9335854
3.5,350,0.053,-0.983,0.18,-3.2658606,13.464512999999998,-3.8961144,100.25619084000002,0.01145916,-17.80753464
3.51,351,0.081,-1.004,0.177,-2.2345362,13.2353298,-4.2398892,100.23327252,0.028647900000000007,-17.6757543
3.52,352,0.092,-1.02,0.166,-0.9167328000000001,11.1153852,-3.9534102,100.22181336,0.04010706,-17.561162699999993
3.53,353,0.091,-1.0290000000000001,0.163,0.40107059999999994,7.7922288,-2.86479,100.22181336,0.057295800000000015,-17.48094858
3.54,354,0.081,-1.034,0.165,1.7761698000000001,3.6096353999999997,-1.2032118,100.2390021,0.057295800000000015,-17.44084152
3.55,355,0.06,-1.0290000000000001,0.17800000000000002,3.0939732,-1.4896908000000002,0.057295800000000015,100.25046126,0.14323950000000002,-17.48094858
3.56,356,0.036000000000000004,-1.014,0.192,3.6096353999999997,-4.5263682,0.5156622000000001,100.29056832,0.14896908,-17.52678522
3.57,357,0.006,-0.9890000000000001,0.205,3.4377480000000005,-6.0160589999999985,0.11459160000000004,100.3249458,0.15469866,-17.58408102
3.58,358,-0.031,-0.956,0.213,3.2085647999999996,-5.72958,-0.6875496,100.35932327999998,0.17761697999999998,-17.63564724
3.59,359,-0.065,-0.934,0.221,2.6929026,-3.0939732,-1.432395,100.38797118,0.19480572,-17.66429514
3.5999999999999996,360,-0.086,-0.9309999999999999,0.22,1.8907614,1.6042823999999998,-1.3750992,100.42807824,0.0859437,-17.606999339999994
3.61,361,-0.094,-0.946,0.21600000000000005,1.7188740000000002,5.6722842,-0.286479,100.44526698,0.08021412,-17.549703540000007
3.6199999999999997,362,-0.092,-0.975,0.209,2.0053530000000004,7.5630456000000015,2.0626488000000003,100.4681853,0.04010706,-17.48094858
3.63,363,-0.08,-1.004,0.193,2.3491277999999998,6.9327918,5.2712136,100.49110362000002,-0.01718874,-17.42365278
3.6399999999999997,364,-0.062,-1.024,0.175,2.6929026,4.9274388,8.479778399999999,100.51402194,-0.11459160000000003,-17.3892753
3.65,365,-0.048,-1.03,0.159,2.6929026,2.3491277999999998,11.3445684,100.51402194,-0.25210152,-17.37781614
3.6599999999999997,366,-0.040999999999999995,-1.021,0.14800000000000002,2.6356068,-0.4583664000000001,13.3499214,100.54266984,-0.37815228,-17.40646404
3.67,367,-0.039,-0.998,0.145,2.3491277999999998,-3.2085647999999996,14.209358400000001,100.56558816,-0.5099326200000001,-17.46375984
3.6799999999999997,368,-0.042,-0.9670000000000001,0.153,2.6929026,-5.1566220000000005,14.32395,100.59423606,-0.64171296,-17.538244380000002
3.69,369,-0.046,-0.934,0.17300000000000001,2.9220858,-6.417129599999999,13.6936962,100.62861354,-0.76203414,-17.62991766
3.6999999999999997,370,-0.053,-0.9009999999999999,0.2,2.291832,-6.703608600000001,12.5477802,100.66299102,-0.8823553199999999,-17.71013178
3.71,371,-0.057,-0.885,0.217,1.2605076000000002,-5.72958,10.943497800000001,100.67445018,-0.97975818,-17.7903459
3.7199999999999998,372,-0.062,-0.884,0.223,-0.3437748,-3.9534102,9.740286,100.67445018,-1.06570188,-17.847641699999997
3.73,373,-0.07,-0.8909999999999999,0.221,-2.1199446,-2.1199446,8.3651868,100.65153186,-1.1459160000000002,-17.88201918
3.7399999999999998,374,-0.085,-0.9079999999999999,0.213,-3.5523396000000003,-0.286479,7.1046792000000005,100.61715438,-1.21467096,-17.899207920000006
3.75,375,-0.1,-0.929,0.201,-4.0680017999999984,1.0886202,5.7868758000000025,100.57704732,-1.34072172,-17.8762896
3.76,376,-0.114,-0.95,0.195,-4.1252976000000015,2.5210152000000003,4.583664,100.53121068,-1.39228794,-17.85910086
3.77,377,-0.11599999999999999,-0.9620000000000001,0.195,-4.297185,4.8128472,3.2085647999999996,100.48537404,-1.432395,-17.818993799999994
3.78,378,-0.11,-0.97,0.203,-4.5263682,7.333862400000001,1.7188740000000002,100.4395374,-1.46677248,-17.75023884
3.79,379,-0.092,-0.966,0.21899999999999997,-4.4117766,10.657018800000001,0.3437748,100.38797118,-1.4896908000000002,-17.65283598
3.8,380,-0.073,-0.961,0.22899999999999998,-4.583664,13.0061466,-0.6875496,100.3535937,-1.52979786,-17.52105564
3.81,381,-0.057999999999999996,-0.9540000000000001,0.235,-4.7555514,14.4958374,-1.7188740000000002,100.29629789999998,-1.5412570200000002,-17.37781614
3.82,382,-0.047,-0.948,0.24,-4.5263682,15.469866,-2.4637194,100.24473168,-1.5527161800000002,-17.22311748
3.83,383,-0.040999999999999995,-0.948,0.23800000000000002,-4.2398892,15.6417534,-2.86479,100.19316546,-1.5527161800000002,-17.068418819999998
3.84,384,-0.043,-0.9520000000000001,0.23199999999999998,-4.297185,14.7823164,-3.0939732,100.14732882,-1.5527161800000002,-16.919449739999994
3.8499999999999996,385,-0.05,-0.956,0.23,-4.8128472,13.6936962,-3.3231564,100.10149218,-1.55844576,-16.77621024
3.86,386,-0.064,-0.96,0.233,-5.5576926,12.7196676,-3.6096353999999997,100.04419638,-1.5469866,-16.650159480000006
3.8699999999999997,387,-0.076,-0.9590000000000001,0.242,-6.8182002000000015,12.1467096,-3.9534102,99.96971184,-1.53552744,-16.524108719999994
3.88,388,-0.087,-0.95,0.253,-7.6776372,12.4331886,-4.1825934,99.88376814,-1.5183387000000002,-16.39805796
3.8899999999999997,389,-0.098,-0.9359999999999999,0.258,-8.3651868,13.0061466,-4.5263682,99.79209486,-1.50114996,-16.26627762
3.9,390,-0.105,-0.924,0.261,-9.3392154,13.8655836,-4.8128472,99.71761032,-1.50687954,-16.117308540000003
3.9099999999999997,391,-0.11,-0.915,0.262,-10.313244000000001,15.3552744,-5.0993262,99.60301872,-1.48396122,-15.96260988
3.92,392,-0.111,-0.9079999999999999,0.256,-10.7716104,17.475219,-5.5003968,99.48842712,-1.46677248,-15.7849929
3.9299999999999997,393,-0.111,-0.902,0.247,-11.0007936,19.5378678,-5.958763200000001,99.36810594,-1.44385416,-15.584457600000002
3.94,394,-0.11,-0.892,0.242,-11.5164558,22.4026578,-6.417129599999999,99.24205518,-1.42666542,-15.355274400000004
3.9499999999999997,395,-0.10400000000000001,-0.883,0.23800000000000002,-12.1467096,26.5852512,-6.8182002000000015,99.121734,-1.4209358399999998,-15.08598414
3.96,396,-0.09699999999999999,-0.872,0.24100000000000002,-12.776963400000001,29.67922440000001,-6.8182002000000015,98.97849449999998,-1.40947668,-14.78804598
3.9699999999999998,397,-0.091,-0.861,0.247,-13.2353298,32.31483119999999,-6.7609043999999985,98.82952542,-1.4037471000000001,-14.467189499999998
3.98,398,-0.083,-0.848,0.253,-13.2926256,33.804522,-6.6463128000000005,98.68628592,-1.39801752,-14.12914428
3.9899999999999998,399,-0.08,-0.8370000000000001,0.259,-13.0634424,34.262888399999994,-6.4744254,98.53731684,-1.39801752,-13.78536948
4.0,400,-0.079,-0.826,0.258,-13.0061466,34.0337052,-6.589017,98.41126608,-1.39801752,-13.447324259999998
4.01,401,-0.087,-0.813,0.254,-13.120738199999998,33.6899304,-7.0473834,98.262297,-1.38655836,-13.10927904
4.02,402,-0.102,-0.799,0.24600000000000002,-13.0061466,33.6899304,-7.9641161999999985,98.1190575,-1.36936962,-12.77123382
4.03,403,-0.115,-0.7909999999999999,0.243,-13.0634424,34.8931422,-9.0527364,97.97008842,-1.3349921400000002,-12.41599986
4.04,404,-0.12300000000000001,-0.78,0.244,-13.0061466,36.38283300000001,-10.2559482,97.82684892,-1.29488508,-12.049306740000002
4.05,405,-0.127,-0.767,0.253,-12.891555,38.445481799999996,-11.2872726,97.69506857999998,-1.2605076000000002,-11.6596953
4.06,406,-0.126,-0.753,0.27,-12.605075999999999,40.8519054,-11.917526400000002,97.55182908,-1.20894138,-11.24716554
4.07,407,-0.121,-0.7390000000000001,0.285,-11.917526400000002,43.1437374,-12.032118,97.42004874,-1.1573751600000002,-10.80598788
4.08,408,-0.11599999999999999,-0.726,0.298,-10.7143146,44.9199072,-11.688343199999998,97.29399798,-1.1172681,-10.35335106
4.09,409,-0.114,-0.715,0.308,-9.453807,45.893935799999994,-11.0007936,97.18513596,-1.07716104,-9.89498466
4.1,410,-0.11800000000000001,-0.7090000000000001,0.312,-8.021412000000002,46.3523022,-10.5424272,97.11065142,-1.05424272,-9.43088868
4.109999999999999,411,-0.12300000000000001,-0.708,0.313,-5.9014674000000005,47.4409224,-10.3705398,97.03616688,-1.01986524,-8.95533354
4.12,412,-0.13,-0.706,0.318,-4.010706000000001,48.185767799999994,-10.7716104,96.97887108,-0.98548776,-8.46831924
4.13,413,-0.135,-0.6990000000000001,0.321,-1.8334656000000005,48.128472,-11.5164558,96.94449360000002,-0.9453807,-7.9813049399999985
4.14,414,-0.14300000000000002,-0.687,0.321,0.6302538000000001,46.7533728,-12.5477802,96.93876402,-0.8880849000000001,-7.51147938
4.1499999999999995,415,-0.153,-0.6729999999999999,0.311,2.5783110000000002,44.748019799999994,-13.5791046,96.9731415,-0.83651868,-7.05311298
4.16,416,-0.158,-0.649,0.295,2.9220858,45.3209778,-14.5531332,96.99033024,-0.76203414,-6.5947465800000025
4.17,417,-0.155,-0.615,0.261,4.4117766,49.9619376,-15.6417534,97.02470772,-0.68182002,-6.08481396
4.18,418,-0.146,-0.575,0.23600000000000002,4.9847346,57.1812084,-17.3606274,97.05908520000001,-0.59587632,-5.50612638
4.1899999999999995,419,-0.138,-0.5329999999999999,0.22899999999999998,1.4896908000000002,65.8328742,-19.365980399999998,97.05908520000001,-0.4984734599999999,-4.83576552
4.2,420,-0.121,-0.499,0.209,-1.0313244000000001,71.44786260000002,-20.340009,97.04189646,-0.41252976,-4.11383844
4.21,421,-0.081,-0.491,0.19699999999999998,-5.3285094000000015,72.70837019999998,-20.3973048,96.9731415,-0.32085648,-3.37472262
4.22,422,-0.027000000000000003,-0.502,0.18899999999999997,-12.5477802,67.2079734,-19.767051000000002,96.829902,-0.22918320000000006,-2.6929026
4.2299999999999995,423,0.027000000000000003,-0.508,0.17,-17.4179232,59.4157446,-19.079501399999998,96.64655544,-0.12605075999999998,-2.0912967
4.24,424,0.085,-0.518,0.159,-19.5378678,50.706783,-19.136797199999997,96.44029056,-0.00572958,-1.5756344999999998
4.25,425,0.133,-0.516,0.10400000000000001,-22.631841,44.690723999999996,-19.9389384,96.20537778,0.13178034,-1.12299768
4.26,426,0.15,-0.46799999999999997,0.052000000000000005,-25.0382646,43.0864416,-22.058882999999998,95.94754668,0.29220857999999994,-0.68182002
4.27,427,0.12,-0.41700000000000004,0.069,-26.1841806,43.9458786,-24.1788276,95.67825642,0.47555514,-0.22918320000000006
4.28,428,0.08199999999999999,-0.391,0.075,-27.7311672,44.977203,-25.6112226,95.39177742,0.6703608600000001,0.22918320000000006
4.29,429,0.057,-0.3720000000000001,0.042,-33.74722620000001,42.05511720000001,-26.5279554,95.04800262,0.8823553199999999,0.66463128
4.3,430,0.035,-0.3720000000000001,0.017,-44.748019799999994,44.06047020000001,-29.67922440000001,94.5953658,1.12872726,1.1172681
4.31,431,0.027000000000000003,-0.40399999999999997,0.049,-60.045998399999995,45.263682,-34.7785506,93.98803032,1.4209358399999998,1.5813640800000002
4.32,432,0.09,-0.479,0.066,-76.6617804,42.62807520000001,-40.4508348,93.2202666,1.7761698000000001,2.01681216
4.33,433,0.14400000000000002,-0.568,0.21100000000000002,-90.240885,26.5852512,-43.029145799999995,92.30926338,2.1772404,2.2918320000000003
4.34,434,0.151,-0.718,0.35100000000000003,-93.67863299999999,5.6722842,-44.748019799999994,91.3581531,2.61268848,2.35485738
4.35,435,0.156,-0.925,0.44,-88.2928278,-7.448453999999999,-45.607456799999994,90.48152736,3.07105488,2.26891368
4.36,436,0.187,-1.245,0.47100000000000003,-96.19964820000001,-8.8235532,-48.2430636,89.50176918,3.54088044,2.17151082
4.37,437,0.198,-1.585,0.44799999999999995,-115.9094034,-13.9228794,-50.82137460000001,88.31574612,4.0393539,2.01108258
4.38,438,0.15,-1.893,0.4370000000000001,-128.45718359999998,-14.667724800000002,-49.388979600000006,86.99794272,4.51490904,1.8334656000000005
4.39,439,0.11199999999999999,-1.996,0.5529999999999999,-133.09814340000003,-10.313244000000001,-43.65939960000001,85.63430267999998,4.93316838,1.6902260999999998
4.3999999999999995,440,0.151,-1.929,0.695,-133.9575804,-8.307891,-36.7266078,84.27066264,5.2826727600000005,1.56417534
4.41,441,0.201,-1.9909999999999999,0.6759999999999999,-145.1302614,-1.0886202,-31.6845774,82.79243100000002,5.58061092,1.50114996
4.42,442,0.21100000000000002,-2.169,0.5870000000000001,-162.7773678,12.9488508,-35.236917,81.14231196,5.92438572,1.56417534
4.43,443,0.073,-2.214,0.462,-166.7880738,17.3606274,-46.696077,79.45781544,6.3884817000000025,1.64438946
4.4399999999999995,444,-0.147,-2.165,0.479,-157.73533740000005,16.157415599999997,-55.6342218,77.85353303999999,6.94425096,1.6787669399999998
4.45,445,-0.342,-1.973,0.452,-154.18299779999995,15.469866,-60.9627312,76.29508728,7.545856859999999,1.6787669399999998
4.46,446,-0.315,-1.567,0.363,-158.8239576,15.527161800000002,-56.6082504,74.67934572,8.107355700000001,1.6787669399999998
4.47,447,-0.147,-1.197,0.365,-158.2509996,17.9335854,-49.847346,73.06933374,8.61155874,1.6959556799999995
4.4799999999999995,448,0.081,-0.925,0.303,-165.24108719999995,18.506543399999998,-47.67010560000001,71.39629638,9.09284346,1.7188740000000002
4.49,449,0.304,-0.665,0.308,-175.3824438,18.9649098,-46.8106686,69.614397,9.568398599999998,1.73033316
4.5,450,0.44,-0.297,0.24100000000000002,-188.1021114,20.6837838,-45.3782736,67.7236356,10.06114248,1.73606274
4.51,451,0.387,-0.075,0.39799999999999996,-201.33744119999997,25.78311,-43.4302164,65.68390511999999,10.52523846,1.7933585399999998
4.52,452,0.39899999999999997,0.285,0.354,-215.7759828,30.4813656,-46.3523022,63.50093514,11.04090066,1.85638392
4.53,453,0.397,0.5670000000000001,0.34,-221.10449219999998,37.586044799999996,-54.43101,61.26639894,11.65396572,1.93086846
4.54,454,0.36200000000000004,0.713,0.24100000000000002,-224.4849444,39.3622146,-66.3485364,58.98029652,12.38162238,1.93086846
4.55,455,0.293,0.765,-0.063,-219.5575056,33.74722620000001,-77.1201468,56.69992368000001,13.18376358,1.7933585399999998
4.56,456,0.271,0.679,-0.165,-210.3901776,27.788463,-88.06364459999998,54.49403537999999,14.02601184,1.51260912
4.57,457,0.261,0.475,-0.33299999999999996,-202.88442780000003,22.1734746,-97.7466348,52.32825413999999,14.90836716,1.09434978
4.58,458,0.32,0.149,-0.503,-208.7285994,16.2147114,-104.22106020000001,50.05934046,15.7849929,0.55003968
4.59,459,0.39399999999999996,-0.032,-0.7290000000000001,-221.33367540000003,-2.3491277999999998,-106.1118216,47.60708021999999,16.53556788,-0.18907614
4.6,460,0.37,-0.07200000000000001,-1.001,-225.80274780000002,-22.6891368,-104.39294759999999,45.02876922,17.1027963,-1.1172681
4.61,461,0.537,-0.11599999999999999,-1.294,-229.9280454,-40.5654264,-99.408213,42.38743284,17.475219,-2.1657812400000003
4.62,462,0.551,-0.08,-1.5959999999999999,-241.21531800000002,-45.607456799999994,-92.81919599999999,39.625775280000006,17.715861359999995,-3.22002396
4.63,463,0.8079999999999999,-0.053,-1.942,-248.72106780000004,-36.955791,-86.23017899999998,36.8125515,17.9335854,-4.17113424
4.64,464,0.889,-0.005,-2.448,-249.2940258,-13.0634424,-81.932994,34.03943478,18.27163062,-4.95035712
4.6499999999999995,465,0.915,0.12300000000000001,-2.8139999999999996,-238.8661902,-10.599723,-78.09417540000003,31.380909660000004,18.56956878,-5.7009320999999975
4.66,466,0.753,0.35600000000000004,-3.681,-216.52082819999995,9.396511199999999,-65.317212,29.00886354,18.94772106,-6.23951262
4.67,467,0.51,0.307,-3.9960000000000004,-198.7018344,-0.1718874,-60.2178858,26.80870482000001,19.19982258,-6.7895523
4.68,468,0.7759999999999999,0.11800000000000001,-3.9960000000000004,-165.58486200000004,-17.0168526,-63.1399716,24.90648426000001,19.29722544,-7.46564274
4.6899999999999995,469,1.149,0.086,-3.93,-137.16614520000002,-36.2682414,-77.1201468,23.22198774,19.268577540000006,-8.3651868
4.7,470,1.53,0.27399999999999997,-3.486,-132.926256,-44.748019799999994,-91.9024632,21.52030248,19.19982258,-9.44807742
4.71,471,1.558,0.217,-3.0210000000000004,-122.040054,-34.3201842,-100.7260164,19.91602008,19.2227409,-10.571075099999998
4.72,472,1.169,-0.079,-2.59,-94.42347840000001,-24.1215318,-98.3195928,18.60967584,19.31441418,-11.631047399999998
4.7299999999999995,473,0.691,-0.22899999999999998,-1.9909999999999999,-83.82375540000002,-16.042824000000003,-83.53727640000002,17.46375984,19.41181704,-12.5191323
4.74,474,0.37799999999999995,-0.312,-1.291,-78.1514712,-6.703608600000001,-64.457775,16.4438946,19.52640864,-13.18376358
4.75,475,0.47,-0.294,-1.0090000000000001,-66.176649,0.057295800000000015,-44.748019799999994,15.62456466,19.65818898,-13.642129979999998
4.76,476,0.643,-0.24,-0.888,-51.0505578,1.2605076000000002,-28.7051958,15.00577002,19.738403100000006,-13.928608980000002
4.77,477,0.654,-0.207,-0.745,-42.62807520000001,-1.2605076000000002,-16.157415599999997,14.518755719999998,19.76132142,-14.0947668
4.78,478,0.583,-0.14300000000000002,-0.705,-45.0917946,-3.7815228,-7.0473834,14.03174142,19.738403100000006,-14.17498092
4.79,479,0.46799999999999997,0.023,-0.6890000000000001,-49.1025006,-5.72958,-4.9274388,13.51607922,19.69256646,-14.2380063
4.8,480,0.263,0.18,-0.6779999999999999,-53.5142772,0.3437748,-11.2299768,12.88582542,19.704025620000003,-14.35832748
4.81,481,0.13,0.285,-0.602,-57.52498320000001,10.943497800000001,-19.9389384,12.23838288,19.84726512,-14.53594446
4.82,482,0.066,0.307,-0.518,-60.5616606,20.6837838,-26.1841806,11.55083328,20.09363706,-14.74793892
4.83,483,0.057999999999999996,0.273,-0.54,-64.28588760000001,30.022999199999997,-27.6165756,10.81744704,20.4259527,-14.96566296
4.84,484,0.065,0.19399999999999998,-0.6409999999999999,-64.6869582,30.4813656,-26.2987722,10.084060800000001,20.76399792,-15.166198259999998
4.85,485,0.086,0.091,-0.657,-61.87946400000001,23.491278,-24.694489800000003,9.36213372,21.01036986,-15.37246314
4.86,486,0.11199999999999999,0.0,-0.682,-56.9520252,18.6784308,-22.4599536,8.7089616,21.21663474,-15.567268860000002
4.87,487,0.187,-0.05,-0.735,-52.54024860000001,14.4958374,-19.8816426,8.107355700000001,21.38279256,-15.75061542
4.88,488,0.275,-0.042,-0.758,-49.5035712,8.193299399999999,-17.4179232,7.545856859999999,21.48019542,-15.91677324
4.89,489,0.35600000000000004,0.043,-0.775,-45.3209778,-1.0313244000000001,-15.9855282,7.0244650800000015,21.485925,-16.08293106
4.8999999999999995,490,0.36,0.16399999999999998,-0.79,-38.2162986,-10.1413566,-15.297978599999999,6.52026204,21.40571088,-16.272007199999994
4.91,491,0.406,0.267,-0.867,-32.8877892,-15.928232399999999,-14.5531332,6.12492102,21.26247138,-16.44962418
4.92,492,0.441,0.35100000000000003,-0.882,-28.361421000000004,-21.600516600000002,-12.261301199999998,5.781146219999999,21.056206500000002,-16.61005242
4.93,493,0.41600000000000004,0.37799999999999995,-0.92,-23.2620948,-22.91832,-8.307891,5.50612638,20.83848246,-16.72464402
4.9399999999999995,494,0.396,0.348,-0.922,-18.277360199999997,-21.485925,-3.6669312000000014,5.2998615,20.626488,-16.787669400000002
4.95,495,0.364,0.284,-0.95,-13.9228794,-19.308684600000007,0.2291832000000001,5.05348956,20.4259527,-16.83350604
4.96,496,0.376,0.221,-1.006,-10.599723,-15.756345,3.2085647999999996,4.9560867,20.27125404,-16.82204688
4.97,497,0.42,0.183,-0.972,-9.2819196,-12.032118,4.8701430000000006,4.87587258,20.14520328,-16.781939819999998
4.9799999999999995,498,0.42,0.172,-0.973,-9.224623800000002,-9.224623800000002,5.7868758000000025,4.79565846,20.04780042,-16.7303736
4.99,499,0.41100000000000003,0.15,-1.024,-6.8182002000000015,-4.4117766,6.9327918,4.7555514,19.9962342,-16.66161864
5.0,500,0.43799999999999994,0.151,-1.055,0.3437748,-7.3911582,8.7662574,4.7269035000000015,19.927479240000004,-16.598593259999998
5.01,501,0.46,0.14800000000000002,-1.037,12.3758928,-18.449247600000003,12.318597,4.893061319999998,19.738403100000006,-16.48973124
5.02,502,0.48100000000000004,0.139,-1.045,19.652459399999998,-23.3766864,15.527161800000002,5.13943326,19.49776074,-16.3579509
5.03,503,0.508,0.138,-0.9790000000000001,21.829699800000004,-27.903054600000004,18.6784308,5.42018268,19.21128174,-16.197522659999994
5.04,504,0.447,0.14,-0.953,25.4393352,-32.4867186,20.5691922,5.735309579999999,18.87323652,-16.02563526
5.05,505,0.397,0.105,-0.961,30.080295,-30.137590799999998,21.600516600000002,6.08481396,18.56956878,-15.85374786
5.06,506,0.39399999999999996,0.059000000000000004,-0.912,30.194886600000004,-30.997027799999998,22.345361999999998,6.451507079999999,18.24298272,-15.66467172
5.07,507,0.38299999999999995,0.034,-0.951,31.741873200000004,-33.74722620000001,23.663165399999997,6.8411185199999975,17.88774876,-15.469866
5.08,508,0.405,0.016,-0.8540000000000001,33.2888598,-38.67466500000001,26.0122932,7.2479187000000005,17.48094858,-15.26360112
5.09,509,0.379,0.0,-0.7909999999999999,33.8618178,-44.6334282,27.6738714,7.66044846,17.01112302,-15.05733624
5.1,510,0.375,-0.022000000000000002,-0.873,32.658606,-44.06047020000001,29.1062664,8.0500599,16.5584862,-14.8396122
5.11,511,0.397,-0.031,-0.851,30.7678446,-45.550160999999996,31.111619399999995,8.43394176,16.071471900000002,-14.59896984
5.12,512,0.358,-0.006,-0.845,34.4347758,-52.3110654,31.9710564,8.857930679999997,15.52143222,-14.37551622
5.13,513,0.321,0.013000000000000001,-0.9570000000000001,38.445481799999996,-52.7694318,30.4240698,9.3105675,14.96566296,-14.16925134
5.14,514,0.32899999999999996,0.011000000000000001,-1.0,37.9298196,-53.34238979999999,28.361421000000004,9.746015580000002,14.40416412,-13.985904779999998
5.1499999999999995,515,0.373,-0.006,-1.044,35.6379876,-53.1705024,26.1841806,10.1413566,13.85412444,-13.836935700000002
5.16,516,0.39399999999999996,-0.053,-1.052,33.74722620000001,-51.6235158,26.41336380000001,10.52523846,13.30981434,-13.68223704
5.17,517,0.41600000000000004,-0.12,-1.057,27.3873924,-47.326330799999994,26.814434400000003,10.84609494,12.8056113,-13.51607922
5.18,518,0.446,-0.18100000000000002,-1.087,17.8762896,-39.820581,26.1268848,11.07527814,12.3758928,-13.34419182
5.1899999999999995,519,0.449,-0.239,-1.063,7.5630456000000015,-31.51269000000001,25.7258142,11.19559932,12.02065884,-13.160845260000002
5.2,520,0.386,-0.26,-0.9620000000000001,1.6042823999999998,-22.631841,24.064236,11.26435428,11.78574606,-12.977498700000002
5.21,521,0.244,-0.3,-1.044,0.2291832000000001,-19.595163600000006,22.2880662,11.31019092,11.55083328,-12.79988172
5.22,522,0.124,-0.33,-1.05,-3.6669312000000014,-22.4026578,21.886995600000002,11.30446134,11.29300218,-12.6337239
5.2299999999999995,523,0.066,-0.33399999999999996,-0.986,-14.32395,-30.366774000000003,23.5485738,11.19559932,10.94922738,-12.46756608
5.24,524,0.066,-0.322,-0.951,-19.480572,-33.518043,24.0069402,11.03517108,10.57680468,-12.30140826
5.25,525,0.052000000000000005,-0.314,-0.841,-18.334656,-28.533308399999996,22.7464326,10.90339074,10.23875946,-12.12952086
5.26,526,0.052000000000000005,-0.315,-0.711,-11.0580894,-17.4179232,20.1108258,10.82317662,10.03249458,-11.96909262
5.27,527,0.059000000000000004,-0.35600000000000004,-0.747,-4.6409598,-10.886202,14.32395,10.79452872,9.90071424,-11.84877144
5.28,528,0.10300000000000001,-0.385,-0.892,-4.9847346,-7.7922288,3.8388186,10.74869208,9.81477054,-11.82585312
5.29,529,0.138,-0.429,-0.983,-6.130650599999999,-4.3544808,-7.734933000000002,10.67420754,9.78612264,-11.91179682
5.3,530,0.226,-0.439,-0.997,-9.1100322,-2.4637194,-18.277360199999997,10.599723,9.80904096,-12.10087296
5.31,531,0.276,-0.425,-1.036,-17.8762896,-0.6302538000000001,-27.215505,10.3705398,9.8548776,-12.370163219999998
5.32,532,0.295,-0.36,-1.104,-23.605869600000002,0.5156622000000001,-28.6479,10.084060800000001,9.906443820000002,-12.65091264
5.33,533,0.263,-0.24600000000000002,-1.085,-19.8243468,5.7868758000000025,-25.3247436,9.83768886,10.00384668,-12.891555
5.34,534,0.174,-0.132,-1.0,-8.9954406,13.464512999999998,-21.2567418,9.7116381,10.1700045,-13.07490156
5.35,535,0.08,-0.036000000000000004,-0.978,1.6615782,9.682990199999999,-17.0168526,9.61996482,10.227300300000001,-13.21241148
5.36,536,-0.004,0.045,-0.951,7.1046792000000005,-2.4637194,-11.9748222,9.67153104,10.22157072,-13.338462239999998
5.37,537,-0.08,0.102,-0.9990000000000001,8.880849000000003,-13.8655836,-5.72958,9.75174516,10.10124954,-13.42440594
5.38,538,-0.11599999999999999,0.128,-0.94,10.313244000000001,-27.6738714,1.0886202,9.84914802,9.83195928,-13.47024258
5.39,539,-0.152,0.11199999999999999,-0.877,11.917526400000002,-42.97185,9.3392154,9.98092836,9.3965112,-13.464513
5.3999999999999995,540,-0.145,0.040999999999999995,-0.863,13.980175199999998,-45.2063862,13.9228794,10.10697912,8.89230816,-13.4072172
5.41,541,-0.1,-0.064,-0.867,13.5791046,-35.52339600000001,14.9542038,10.26167778,8.519885460000001,-13.33273266
5.42,542,-0.052000000000000005,-0.20600000000000002,-0.9390000000000001,9.5111028,-22.86102420000001,12.261301199999998,10.3705398,8.2792431,-13.25824812
5.43,543,-0.001,-0.34600000000000003,-0.99,0.572958,-10.943497800000001,5.443101,10.38199896,8.164651500000002,-13.223870639999998
5.4399999999999995,544,0.028999999999999998,-0.474,-1.022,-8.479778399999999,3.8961144,-3.4377480000000005,10.29032568,8.204758559999998,-13.25251854
5.45,545,0.035,-0.5870000000000001,-1.0490000000000002,-16.501190400000002,19.9389384,-13.2926256,10.15281576,8.41102344,-13.338462239999998
5.46,546,0.018000000000000002,-0.647,-0.983,-23.7204612,25.6112226,-20.912967000000002,9.8835255,8.691772859999999,-13.487431320000002
5.47,547,-0.004,-0.5870000000000001,-0.963,-25.9549974,29.9084076,-25.210151999999997,9.58558734,9.01835892,-13.67650746
5.4799999999999995,548,0.061,-0.473,-0.8959999999999999,-27.100913399999996,35.2942128,-24.2934192,9.27619002,9.40224078,-13.84839486
5.49,549,0.155,-0.322,-0.818,-30.137590799999998,30.4813656,-18.6784308,8.949603960000003,9.72309726,-13.980175199999998
5.5,550,0.22699999999999998,-0.177,-0.809,-32.142943800000005,19.5378678,-10.1986524,8.60582916,9.94655088,-14.04893016
5.51,551,0.27899999999999997,-0.069,-0.835,-31.627281600000003,9.224623800000002,-1.0886202,8.28497268,10.03249458,-14.04320058
5.52,552,0.307,0.001,-0.857,-30.080295,1.3750992,6.7609043999999985,7.9927641000000005,10.03249458,-13.96871604
5.53,553,0.292,0.027000000000000003,-0.877,-27.6165756,-3.5523396000000003,12.032118,7.72920342,9.97519878,-13.85412444
5.54,554,0.25,0.025,-0.877,-26.0122932,-6.5317212,14.266654199999998,7.49429064,9.88925508,-13.716614520000002
5.55,555,0.17300000000000001,0.02,-0.89,-24.1788276,-9.7975818,13.178034,7.2307299600000015,9.7689339,-13.60202292
5.56,556,0.102,0.027999999999999997,-0.907,-18.8503182,-5.3858052,9.0527364,7.05311298,9.70017894,-13.51607922
5.57,557,0.091,0.021,-0.938,-11.6310474,0.057295800000000015,4.3544808,6.94425096,9.69444936,-13.47024258
5.58,558,0.049,0.004,-0.9540000000000001,-7.906820400000001,-6.3025379999999975,1.3750992,6.86403684,9.63142398,-13.464513
5.59,559,-0.015,-0.001,-0.951,-4.5263682,-4.9847346,-1.0313244000000001,6.8182002000000015,9.57985776,-13.487431320000002
5.6,560,0.001,0.003,-0.968,0.6875496,6.1879464,-1.432395,6.69787902,9.49964364,-13.464513
5.61,561,0.066,0.02,-0.991,2.9220858,12.7196676,0.8594370000000001,6.72652692,9.6256944,-13.4358651
5.62,562,0.127,0.057999999999999996,-1.026,2.4064236,13.5791046,4.8701430000000006,6.76663398,9.75174516,-13.36711014
5.63,563,0.19699999999999998,0.071,-1.055,3.5523396000000003,13.3499214,7.734933000000002,6.812470620000001,9.87779592,-13.26970728
5.64,564,0.247,0.034,-1.063,4.6409598,13.2353298,8.021412000000002,6.875496000000001,9.9981171,-13.17230442
5.6499999999999995,565,0.297,-0.023,-1.056,4.1825934,12.605075999999999,6.417129599999999,6.898414319999999,10.15281576,-13.09781988
5.66,566,0.32899999999999996,-0.08,-1.038,3.1512689999999997,11.8602306,4.297185,6.93852138,10.26740736,-13.04052408
5.67,567,0.34700000000000003,-0.11900000000000001,-1.015,2.6356068,10.943497800000001,2.1772404,6.972898860000001,10.3705398,-13.00041702
5.68,568,0.349,-0.131,-0.993,2.291832,9.6256944,1.0886202,7.001546759999999,10.46221308,-12.977498700000002
5.6899999999999995,569,0.33899999999999997,-0.122,-0.977,1.7761698000000001,8.59437,0.9167328000000001,7.0244650800000015,10.54815678,-12.95458038
5.7,570,0.33,-0.10300000000000001,-0.9690000000000001,1.2605076000000002,8.59437,1.2605076000000002,7.00727634,10.76015124,-12.96603954
5.71,571,0.32899999999999996,-0.086,-0.9570000000000001,0.572958,8.193299399999999,1.4896908000000002,7.018735500000001,10.84036536,-12.93739164
5.72,572,0.326,-0.075,-0.958,-0.3437748,7.9641161999999985,0.9740286,7.018735500000001,10.914849900000002,-12.91447332
5.7299999999999995,573,0.325,-0.065,-0.9540000000000001,-1.0886202,8.3651868,0.057295800000000015,7.00727634,11.0007936,-12.903014159999998
5.74,574,0.319,-0.053,-0.9470000000000001,-2.0053530000000004,8.307891,-1.145916,6.98435802,11.08100772,-12.903014159999998
5.75,575,0.306,-0.042,-0.9520000000000001,-2.5210152000000003,7.2765666,-2.0053530000000004,6.875496000000001,11.25289512,-12.94312122
5.76,576,0.29100000000000004,-0.038,-0.9640000000000001,-2.4064236,5.958763200000001,-2.291832,6.8468481,11.3159205,-12.96030996
5.77,577,0.271,-0.044000000000000004,-0.9740000000000001,-2.5210152000000003,4.1252976000000015,-1.7188740000000002,6.8182002000000015,11.35602756,-12.96603954
5.78,578,0.244,-0.054000000000000006,-0.977,-3.7242269999999995,2.1199446,-0.057295800000000015,6.77809314,11.37894588,-12.96603954
5.79,579,0.222,-0.059000000000000004,-0.975,-5.042030400000002,-0.3437748,1.7761698000000001,6.7322565,11.3732163,-12.9488508
5.8,580,0.205,-0.06,-0.9570000000000001,-5.3285094000000015,-2.4064236,3.2658606,6.611935319999999,11.33883882,-12.925932479999995
5.81,581,0.195,-0.055,-0.9390000000000001,-3.8961144,-2.1199446,3.8388186,6.58328742,11.3159205,-12.88582542
5.82,582,0.18100000000000002,-0.059000000000000004,-0.938,-1.432395,-3.2085647999999996,3.8961144,6.5718282599999975,11.27581344,-12.85144794
5.83,583,0.16399999999999998,-0.067,-0.9359999999999999,0.4583664000000001,-5.9014674000000005,3.4950437999999995,6.58328742,11.21278806,-12.82852962
5.84,584,0.156,-0.075,-0.9440000000000001,1.6615782,-6.1879464,2.6929026,6.60620574,11.149762679999998,-12.8056113
5.85,585,0.158,-0.091,-0.9620000000000001,2.6356068,-4.3544808,1.7761698000000001,6.589017,11.04663024,-12.782692979999998
5.86,586,0.16699999999999998,-0.106,-0.973,2.6929026,-3.0939732,0.7448454000000001,6.6176648999999985,11.01225276,-12.782692979999998
5.87,587,0.18,-0.11599999999999999,-0.981,2.6929026,-3.4950437999999995,0.0,6.640583220000001,10.97787528,-12.78842256
5.88,588,0.191,-0.126,-0.982,2.9793816000000004,-4.2398892,-0.6302538000000001,6.669231119999999,10.93776822,-12.79988172
5.89,589,0.198,-0.133,-0.978,3.1512689999999997,-4.5263682,-1.0886202,6.7036086,10.89766116,-12.81707046
5.8999999999999995,590,0.203,-0.134,-0.972,3.0366774,-4.1252976000000015,-1.3178034,6.72652692,10.86901326,-12.839988780000002
5.91,591,0.20600000000000002,-0.133,-0.9670000000000001,2.5783110000000002,-3.4950437999999995,-1.5469866,6.74944524,10.83463578,-12.8629071
5.92,592,0.20800000000000002,-0.129,-0.973,2.3491277999999998,-2.7501984,-1.9480572,6.77236356,10.81171746,-12.88582542
5.93,593,0.21100000000000002,-0.125,-0.977,2.2345362,-2.1772404,-2.5210152000000003,6.7895523,10.79452872,-12.91447332
5.9399999999999995,594,0.213,-0.11900000000000001,-0.973,1.4896908000000002,-2.1199446,-3.4377480000000005,6.79528188,10.77733998,-12.95458038
5.95,595,0.214,-0.111,-0.97,0.6302538000000001,-2.6356068,-4.1252976000000015,6.7551748200000015,10.78879914,-13.011876179999998
5.96,596,0.21100000000000002,-0.10400000000000001,-0.9690000000000001,0.057295800000000015,-3.2658606,-4.3544808,6.74944524,10.76015124,-13.05771282
5.97,597,0.203,-0.096,-0.968,-0.2291832000000001,-3.5523396000000003,-4.297185,6.7379860800000015,10.73150334,-13.10927904
5.9799999999999995,598,0.201,-0.087,-0.965,-0.5156622000000001,-3.380452200000001,-3.8961144,6.72079734,10.70285544,-13.1493861
5.99,599,0.195,-0.07400000000000001,-0.958,-0.8021411999999999,-3.2085647999999996,-3.3231564,6.7093381800000005,10.67420754,-13.18949316
6.0,600,0.185,-0.062,-0.96,-0.4583664000000001,-3.5523396000000003,-2.6356068,6.57755784,10.61691174,-13.22960022
6.01,601,0.168,-0.054000000000000006,-0.9690000000000001,0.11459160000000004,-3.8961144,-1.9480572,6.5718282599999975,10.58253426,-13.25251854
6.02,602,0.156,-0.052000000000000005,-0.975,0.1718874,-3.6096353999999997,-1.0886202,6.5718282599999975,10.54815678,-13.26970728
6.03,603,0.151,-0.051,-0.972,-0.11459160000000004,-2.4637194,-0.286479,6.5718282599999975,10.52523846,-13.275436860000005
6.04,604,0.14800000000000002,-0.052000000000000005,-0.97,-0.2291832000000001,-1.3750992,0.286479,6.566098679999999,10.50804972,-13.275436860000005
6.05,605,0.147,-0.054000000000000006,-0.977,0.1718874,-0.6875496,0.6302538000000001,6.13638018,10.23875946,-13.24105938
6.06,606,0.152,-0.057999999999999996,-0.983,0.8021411999999999,-0.1718874,0.8594370000000001,6.147839339999999,10.23302988,-13.2353298
6.07,607,0.159,-0.061,-0.983,1.0313244000000001,0.0,1.0313244000000001,6.1592985,10.23302988,-13.223870639999998
6.08,608,0.165,-0.064,-0.977,0.8021411999999999,0.7448454000000001,1.2032118,6.17075766,10.23875946,-13.21241148
6.09,609,0.16899999999999998,-0.067,-0.975,0.6875496,1.2605076000000002,1.2032118,6.18221682,10.25021862,-13.19522274
6.1,610,0.17600000000000002,-0.068,-0.971,0.9167328000000001,1.4896908000000002,1.0886202,6.05616606,10.24448904,-13.18949316
6.11,611,0.183,-0.07200000000000001,-0.972,1.2605076000000002,1.8907614,1.2032118,6.067625219999999,10.26167778,-13.178034
6.12,612,0.185,-0.075,-0.973,1.4896908000000002,2.2345362,1.3178034,6.08481396,10.27886652,-13.160845260000002
6.13,613,0.184,-0.079,-0.9690000000000001,1.3178034,2.4637194,1.3750992,6.1020027,10.30178484,-13.14365652
6.14,614,0.183,-0.084,-0.9620000000000001,0.7448454000000001,2.5210152000000003,1.3750992,6.113461859999999,10.33043274,-13.12646778
6.15,615,0.185,-0.087,-0.9570000000000001,0.11459160000000004,2.4064236,1.3178034,6.0275181600000005,10.35908064,-13.11500862
6.16,616,0.19,-0.09,-0.961,-0.1718874,2.2345362,1.3750992,6.0275181600000005,10.37626938,-13.09781988
6.17,617,0.19699999999999998,-0.095,-0.971,-0.11459160000000004,1.8907614,1.432395,6.0332477399999975,10.39345812,-13.08063114
6.18,618,0.20600000000000002,-0.09699999999999999,-0.976,0.0,1.6042823999999998,1.3178034,6.0332477399999975,10.41064686,-13.069171980000002
6.1899999999999995,619,0.213,-0.09699999999999999,-0.981,0.057295800000000015,1.2605076000000002,1.2605076000000002,6.03897732,10.42210602,-13.051983240000002
6.2,620,0.21600000000000005,-0.098,-0.977,0.3437748,0.6875496,1.0886202,5.92438572,10.55388636,-13.08063114
6.21,621,0.215,-0.10300000000000001,-0.973,0.5156622000000001,0.0,0.7448454000000001,5.930115299999999,10.55388636,-13.07490156
6.22,622,0.21100000000000002,-0.10400000000000001,-0.971,0.6302538000000001,-0.572958,0.572958,5.94157446,10.54815678,-13.069171980000002
6.2299999999999995,623,0.209,-0.10300000000000001,-0.968,0.6302538000000001,-0.9167328000000001,0.3437748,5.9473040400000015,10.53669762,-13.0634424
6.24,624,0.21100000000000002,-0.1,-0.965,0.572958,-0.9167328000000001,0.286479,5.9530336199999985,10.52523846,-13.0634424
6.25,625,0.214,-0.09300000000000001,-0.961,0.40107059999999994,-0.8594370000000001,0.2291832000000001,5.74103916,10.70858502,-13.12646778
6.26,626,0.215,-0.087,-0.9620000000000001,0.2291832000000001,-0.6302538000000001,0.1718874,5.7467687399999985,10.69712586,-13.12646778
6.27,627,0.21899999999999997,-0.085,-0.9640000000000001,0.2291832000000001,-0.572958,0.057295800000000015,5.7467687399999985,10.69139628,-13.12646778
6.28,628,0.217,-0.08199999999999999,-0.968,0.1718874,-0.8021411999999999,0.0,5.75249832,10.685666699999999,-13.12646778
6.29,629,0.214,-0.079,-0.968,0.11459160000000004,-0.8594370000000001,-0.2291832000000001,5.75249832,10.67420754,-13.132197359999996
6.3,630,0.212,-0.076,-0.9670000000000001,0.286479,-0.7448454000000001,-0.40107059999999994,5.5576926,10.76015124,-13.178034
6.31,631,0.209,-0.075,-0.968,0.40107059999999994,-0.572958,-0.5156622000000001,5.5576926,10.75442166,-13.18376358
6.32,632,0.20800000000000002,-0.07400000000000001,-0.968,0.6302538000000001,-0.5156622000000001,-0.6302538000000001,5.56342218,10.74869208,-13.18949316
6.33,633,0.209,-0.076,-0.968,0.6875496,-0.6302538000000001,-0.6875496,5.56915176,10.7429625,-13.20095232
6.34,634,0.207,-0.077,-0.9670000000000001,0.8594370000000001,-0.8594370000000001,-0.6875496,5.574881339999999,10.73723292,-13.2066819
6.35,635,0.205,-0.079,-0.97,1.2032118,-0.8594370000000001,-0.7448454000000001,5.48893764,10.76015124,-13.2353298
6.36,636,0.205,-0.083,-0.971,1.3178034,-0.8594370000000001,-0.6875496,5.5003968,10.74869208,-13.24105938
6.37,637,0.20199999999999999,-0.084,-0.97,1.2032118,-1.145916,-0.6875496,5.51185596,10.73723292,-13.246788959999998
6.38,638,0.195,-0.084,-0.971,1.2032118,-1.2605076000000002,-0.6302538000000001,5.52331512,10.72577376,-13.25824812
6.39,639,0.19,-0.084,-0.971,1.145916,-1.2032118,-0.6302538000000001,5.53477428,10.7143146,-13.263977700000002
6.4,640,0.18899999999999997,-0.083,-0.9690000000000001,0.9167328000000001,-0.9167328000000001,-0.6302538000000001,5.42018268,10.69139628,-13.281166440000002
6.41,641,0.188,-0.081,-0.9670000000000001,0.7448454000000001,-0.6302538000000001,-0.6875496,5.42591226,10.685666699999999,-13.28689602
6.42,642,0.18899999999999997,-0.08,-0.966,0.8021411999999999,-0.40107059999999994,-0.6875496,5.4316418399999975,10.679937120000002,-13.29835518
6.43,643,0.187,-0.08199999999999999,-0.968,0.7448454000000001,-0.3437748,-0.572958,5.43737142,10.67420754,-13.30408476
6.4399999999999995,644,0.184,-0.083,-0.9690000000000001,0.6302538000000001,-0.40107059999999994,-0.4583664000000001,5.443101,10.67420754,-13.30981434
6.45,645,0.18100000000000002,-0.086,-0.971,0.5156622000000001,-0.286479,-0.286479,5.23683612,10.56534552,-13.30981434
6.46,646,0.179,-0.08900000000000001,-0.97,0.3437748,-0.1718874,-0.11459160000000004,5.23683612,10.55961594,-13.31554392
6.47,647,0.17600000000000002,-0.092,-0.971,0.1718874,-0.1718874,0.057295800000000015,5.2425657,10.55961594,-13.31554392
6.4799999999999995,648,0.17600000000000002,-0.092,-0.971,0.11459160000000004,-0.11459160000000004,0.2291832000000001,5.2425657,10.55961594,-13.30981434
6.49,649,0.177,-0.091,-0.971,-0.057295800000000015,-0.1718874,0.286479,5.2425657,10.55388636,-13.30981434
6.5,650,0.177,-0.08900000000000001,-0.97,-0.057295800000000015,-0.11459160000000004,0.2291832000000001,4.9217092199999986,10.38199896,-13.29835518
6.51,651,0.17800000000000002,-0.087,-0.972,0.057295800000000015,-0.1718874,0.286479,4.9217092199999986,10.37626938,-13.29835518
6.52,652,0.17800000000000002,-0.086,-0.9690000000000001,0.1718874,0.0,0.2291832000000001,4.9217092199999986,10.37626938,-13.2926256
6.53,653,0.179,-0.085,-0.968,0.1718874,0.286479,0.2291832000000001,4.9274388,10.38199896,-13.2926256
6.54,654,0.18100000000000002,-0.084,-0.9670000000000001,0.2291832000000001,0.4583664000000001,0.11459160000000004,4.9274388,10.38772854,-13.28689602
6.55,655,0.183,-0.084,-0.968,0.286479,0.5156622000000001,0.057295800000000015,4.80138804,10.37626938,-13.2926256
6.56,656,0.18600000000000005,-0.085,-0.968,0.3437748,0.2291832000000001,0.1718874,4.80711762,10.37626938,-13.2926256
6.57,657,0.188,-0.085,-0.971,0.2291832000000001,0.286479,0.1718874,4.812847199999998,10.38199896,-13.2926256
6.58,658,0.19399999999999998,-0.086,-0.97,0.11459160000000004,0.572958,0.1718874,4.812847199999998,10.38772854,-13.28689602
6.59,659,0.19699999999999998,-0.086,-0.9670000000000001,0.0,0.4583664000000001,0.2291832000000001,4.812847199999998,10.39345812,-13.28689602
6.6,660,0.198,-0.084,-0.9690000000000001,0.0,0.3437748,0.11459160000000004,4.6696076999999985,10.47940182,-13.31554392
6.61,661,0.19699999999999998,-0.084,-0.97,0.286479,0.5156622000000001,0.0,4.675337279999999,10.4851314,-13.31554392
6.62,662,0.19899999999999998,-0.085,-0.971,0.3437748,0.8021411999999999,-0.11459160000000004,4.675337279999999,10.49086098,-13.31554392
6.63,663,0.198,-0.085,-0.968,0.286479,0.8021411999999999,-0.2291832000000001,4.68106686,10.49659056,-13.31554392
6.64,664,0.19899999999999998,-0.083,-0.966,0.40107059999999994,1.0313244000000001,-0.2291832000000001,4.68106686,10.50804972,-13.31554392
6.65,665,0.203,-0.083,-0.9690000000000001,0.40107059999999994,0.8021411999999999,-0.1718874,4.60658232,10.58253426,-13.338462239999998
6.66,666,0.20600000000000002,-0.08199999999999999,-0.973,0.40107059999999994,0.4583664000000001,-0.057295800000000015,4.612311900000001,10.58826384,-13.338462239999998
6.67,667,0.207,-0.081,-0.97,0.2291832000000001,0.40107059999999994,0.0,4.612311900000001,10.59399342,-13.338462239999998
6.68,668,0.207,-0.08199999999999999,-0.97,0.1718874,0.40107059999999994,0.057295800000000015,4.6180414800000005,10.599723,-13.338462239999998
6.6899999999999995,669,0.205,-0.083,-0.97,0.3437748,0.4583664000000001,0.11459160000000004,4.62377106,10.599723,-13.338462239999998
6.7,670,0.204,-0.084,-0.968,0.40107059999999994,0.286479,0.057295800000000015,4.53209778,10.67420754,-13.361380559999995
6.71,671,0.201,-0.084,-0.968,0.6302538000000001,0.1718874,0.0,4.53782736,10.67420754,-13.361380559999995
6.72,672,0.19899999999999998,-0.085,-0.971,0.7448454000000001,0.057295800000000015,0.0,4.54355694,10.679937120000002,-13.361380559999995
6.7299999999999995,673,0.198,-0.087,-0.971,0.6875496,0.0,-0.057295800000000015,4.549286520000001,10.679937120000002,-13.361380559999995
6.74,674,0.19699999999999998,-0.08800000000000001,-0.972,0.572958,0.0,-0.057295800000000015,4.5550161000000005,10.679937120000002,-13.361380559999995
6.75,675,0.19699999999999998,-0.08900000000000001,-0.968,0.4583664000000001,0.11459160000000004,-0.11459160000000004,4.46334282,10.73150334,-13.38429888
6.76,676,0.19699999999999998,-0.08800000000000001,-0.9670000000000001,0.3437748,-0.11459160000000004,-0.11459160000000004,4.4690724,10.72577376,-13.38429888
6.77,677,0.196,-0.08800000000000001,-0.9690000000000001,0.3437748,-0.2291832000000001,-0.1718874,4.4690724,10.72577376,-13.38429888
6.78,678,0.196,-0.087,-0.97,0.5156622000000001,-0.286479,-0.286479,4.4748019800000005,10.72577376,-13.390028460000002
6.79,679,0.195,-0.087,-0.97,0.5156622000000001,-0.1718874,-0.286479,4.48053156,10.72004418,-13.39575804
6.8,680,0.19399999999999998,-0.086,-0.968,0.4583664000000001,-0.11459160000000004,-0.2291832000000001,4.4117766000000005,10.72577376,-13.4072172
6.81,681,0.19399999999999998,-0.087,-0.97,0.6302538000000001,-0.1718874,-0.286479,4.41750618,10.72577376,-13.4072172
6.82,682,0.191,-0.087,-0.977,0.7448454000000001,-0.2291832000000001,-0.2291832000000001,4.42323576,10.72577376,-13.412946780000002
6.83,683,0.19,-0.087,-0.9790000000000001,0.3437748,-0.40107059999999994,-0.11459160000000004,4.42323576,10.72004418,-13.412946780000002
6.84,684,0.18899999999999997,-0.086,-0.977,0.2291832000000001,-0.5156622000000001,-0.057295800000000015,4.42896534,10.7143146,-13.41867636
6.85,685,0.19,-0.085,-0.976,0.11459160000000004,-0.6875496,-0.057295800000000015,4.3544808,10.70285544,-13.42440594
6.86,686,0.192,-0.086,-0.976,0.1718874,-0.9740286,0.0,4.3544808,10.69139628,-13.42440594
6.87,687,0.193,-0.08800000000000001,-0.976,0.2291832000000001,-0.9167328000000001,-0.057295800000000015,4.3544808,10.679937120000002,-13.42440594
6.88,688,0.19,-0.09,-0.975,0.057295800000000015,-0.8021411999999999,0.0,4.3544808,10.67420754,-13.43013552
6.89,689,0.185,-0.08900000000000001,-0.9670000000000001,-0.1718874,-0.6875496,-0.11459160000000004,4.3544808,10.66274838,-13.43013552
6.9,690,0.184,-0.085,-0.963,-0.2291832000000001,-0.3437748,-0.1718874,4.23415962,10.61691174,-13.4358651
6.91,691,0.18899999999999997,-0.08199999999999999,-0.968,0.0,-0.11459160000000004,-0.057295800000000015,4.22843004,10.61691174,-13.4358651
6.92,692,0.192,-0.08199999999999999,-0.973,-0.3437748,-0.286479,0.0,4.22843004,10.61118216,-13.4358651
6.93,693,0.19399999999999998,-0.081,-0.976,-0.6302538000000001,-0.3437748,0.1718874,4.22270046,10.60545258,-13.4358651
6.9399999999999995,694,0.195,-0.081,-0.9740000000000001,-0.5156622000000001,-0.2291832000000001,0.2291832000000001,4.21697088,10.60545258,-13.4358651
6.95,695,0.193,-0.08199999999999999,-0.972,-0.286479,-0.286479,0.3437748,4.15967508,10.61118216,-13.44159468
6.96,696,0.193,-0.084,-0.97,-0.2291832000000001,-0.40107059999999994,0.40107059999999994,4.15967508,10.61118216,-13.4358651
6.97,697,0.193,-0.085,-0.97,-0.11459160000000004,-0.286479,0.3437748,4.15967508,10.60545258,-13.43013552
6.9799999999999995,698,0.191,-0.084,-0.971,0.057295800000000015,-0.1718874,0.286479,4.15967508,10.60545258,-13.43013552
6.99,699,0.188,-0.084,-0.971,0.11459160000000004,-0.286479,0.2291832000000001,4.15967508,10.599723,-13.42440594
7.0,700,0.187,-0.084,-0.968,0.1718874,0.0,0.1718874,4.08519054,10.57680468,-13.43013552
7.01,701,0.188,-0.084,-0.9690000000000001,0.286479,0.11459160000000004,0.057295800000000015,4.09092012,10.58253426,-13.43013552
7.02,702,0.19,-0.086,-0.968,0.1718874,0.1718874,0.057295800000000015,4.09092012,10.58253426,-13.43013552
7.03,703,0.195,-0.085,-0.97,-0.057295800000000015,0.2291832000000001,0.0,4.09092012,10.58253426,-13.43013552
7.04,704,0.19699999999999998,-0.083,-0.971,-0.286479,0.11459160000000004,0.057295800000000015,4.09092012,10.58826384,-13.42440594
7.05,705,0.198,-0.083,-0.972,-0.2291832000000001,0.2291832000000001,0.11459160000000004,4.02789474,10.63983006,-13.44159468
7.06,706,0.196,-0.087,-0.972,-0.11459160000000004,0.1718874,0.286479,4.02789474,10.63983006,-13.4358651
7.07,707,0.19399999999999998,-0.087,-0.97,-0.1718874,0.057295800000000015,0.286479,4.02789474,10.64555964,-13.4358651
7.08,708,0.195,-0.08800000000000001,-0.9690000000000001,-0.057295800000000015,0.0,0.2291832000000001,4.02789474,10.63983006,-13.43013552
7.09,709,0.19699999999999998,-0.08900000000000001,-0.9690000000000001,-0.057295800000000015,-0.1718874,0.2291832000000001,4.02789474,10.63983006,-13.43013552
7.1,710,0.2,-0.091,-0.966,-0.11459160000000004,-0.286479,0.2291832000000001,4.02789474,10.69139628,-13.4358651
7.11,711,0.201,-0.092,-0.9670000000000001,0.0,-0.40107059999999994,0.286479,4.02789474,10.685666699999999,-13.43013552
7.12,712,0.201,-0.091,-0.968,0.0,-0.3437748,0.1718874,4.02789474,10.679937120000002,-13.43013552
7.13,713,0.2,-0.08900000000000001,-0.968,0.0,-0.286479,0.11459160000000004,4.02789474,10.679937120000002,-13.43013552
7.14,714,0.198,-0.085,-0.968,0.0,-0.6875496,0.057295800000000015,4.02789474,10.66847796,-13.43013552
7.15,715,0.192,-0.086,-0.97,0.1718874,-0.8594370000000001,-0.057295800000000015,4.01643558,10.66274838,-13.43013552
7.16,716,0.19,-0.087,-0.9690000000000001,0.11459160000000004,-0.6302538000000001,0.0,4.022165159999999,10.65128922,-13.43013552
7.17,717,0.188,-0.087,-0.971,0.0,-0.572958,-0.057295800000000015,4.022165159999999,10.64555964,-13.4358651
7.18,718,0.18899999999999997,-0.087,-0.9690000000000001,-0.11459160000000004,-0.5156622000000001,-0.057295800000000015,4.01643558,10.64555964,-13.4358651
7.1899999999999995,719,0.192,-0.085,-0.9690000000000001,-0.2291832000000001,-0.3437748,-0.057295800000000015,4.01643558,10.63983006,-13.4358651
7.2,720,0.196,-0.084,-0.968,-0.2291832000000001,-0.40107059999999994,-0.057295800000000015,3.97632852,10.66274838,-13.447324259999998
7.21,721,0.196,-0.084,-0.971,0.057295800000000015,-0.9167328000000001,-0.057295800000000015,3.97632852,10.65128922,-13.447324259999998
7.22,722,0.192,-0.08199999999999999,-0.973,0.11459160000000004,-1.0313244000000001,-0.11459160000000004,3.9820581,10.63983006,-13.45305384
7.2299999999999995,723,0.18899999999999997,-0.083,-0.972,0.0,-0.7448454000000001,-0.11459160000000004,3.9820581,10.63410048,-13.45305384
7.24,724,0.188,-0.085,-0.972,-0.11459160000000004,-0.7448454000000001,-0.057295800000000015,3.97632852,10.6283709,-13.45305384
7.25,725,0.188,-0.086,-0.971,-0.286479,-0.9167328000000001,-0.057295800000000015,3.9648693599999993,10.61118216,-13.45305384
7.26,726,0.18899999999999997,-0.084,-0.972,-0.286479,-0.9740286,0.0,3.95913978,10.599723,-13.45878342
7.27,727,0.19,-0.084,-0.971,-0.2291832000000001,-0.8594370000000001,0.057295800000000015,3.95913978,10.59399342,-13.45878342
7.28,728,0.19,-0.084,-0.9690000000000001,-0.2291832000000001,-0.6875496,0.057295800000000015,3.95913978,10.58253426,-13.45305384
7.29,729,0.18899999999999997,-0.083,-0.9690000000000001,-0.11459160000000004,-0.5156622000000001,0.0,3.9534102,10.58253426,-13.45878342
7.3,730,0.188,-0.08199999999999999,-0.97,-0.057295800000000015,-0.4583664000000001,-0.11459160000000004,3.9190327200000006,10.56534552,-13.464513
7.31,731,0.188,-0.083,-0.97,-0.057295800000000015,-0.3437748,-0.1718874,3.91330314,10.56534552,-13.464513
7.32,732,0.187,-0.085,-0.9690000000000001,-0.1718874,-0.286479,-0.2291832000000001,3.91330314,10.55961594,-13.47024258
7.33,733,0.187,-0.087,-0.968,-0.3437748,0.0,-0.11459160000000004,3.90757356,10.55961594,-13.47024258
7.34,734,0.18899999999999997,-0.08800000000000001,-0.971,-0.40107059999999994,0.0,0.0,3.90757356,10.55961594,-13.47024258
7.35,735,0.191,-0.08800000000000001,-0.97,-0.5156622000000001,-0.057295800000000015,0.11459160000000004,3.896114400000001,10.56534552,-13.47024258
7.36,736,0.19,-0.087,-0.971,-0.40107059999999994,-0.1718874,0.1718874,3.89038482,10.55961594,-13.464513
7.37,737,0.18899999999999997,-0.087,-0.972,-0.40107059999999994,0.0,0.057295800000000015,3.88465524,10.55961594,-13.464513
7.38,738,0.188,-0.086,-0.973,-0.5156622000000001,0.0,0.0,3.87892566,10.55961594,-13.464513
7.39,739,0.187,-0.085,-0.97,-0.572958,0.057295800000000015,-0.057295800000000015,3.873196080000002,10.56534552,-13.464513
7.4,740,0.18899999999999997,-0.084,-0.9690000000000001,-0.5156622000000001,0.11459160000000004,-0.057295800000000015,3.85027776,10.56534552,-13.47024258
7.41,741,0.191,-0.08199999999999999,-0.971,-0.4583664000000001,0.1718874,0.0,3.84454818,10.56534552,-13.47024258
7.42,742,0.18899999999999997,-0.08199999999999999,-0.971,-0.3437748,0.0,-0.057295800000000015,3.8388186000000006,10.56534552,-13.47024258
7.43,743,0.187,-0.083,-0.972,-0.286479,0.11459160000000004,-0.057295800000000015,3.83308902,10.56534552,-13.47024258
7.4399999999999995,744,0.18600000000000005,-0.085,-0.9690000000000001,-0.2291832000000001,0.11459160000000004,-0.11459160000000004,3.83308902,10.571075099999998,-13.47024258
7.45,745,0.187,-0.087,-0.9690000000000001,-0.1718874,0.4583664000000001,-0.057295800000000015,3.83308902,10.55961594,-13.47024258
7.46,746,0.19,-0.087,-0.9690000000000001,-0.2291832000000001,0.4583664000000001,0.0,3.83308902,10.56534552,-13.47024258
7.47,747,0.193,-0.087,-0.9690000000000001,-0.286479,0.11459160000000004,0.0,3.82735944,10.571075099999998,-13.47024258
7.4799999999999995,748,0.19399999999999998,-0.085,-0.971,-0.2291832000000001,0.057295800000000015,0.11459160000000004,3.82735944,10.571075099999998,-13.464513
7.49,749,0.192,-0.085,-0.971,-0.1718874,-0.11459160000000004,0.11459160000000004,3.82735944,10.56534552,-13.464513
7.5,750,0.19,-0.087,-0.97,-0.286479,-0.1718874,0.057295800000000015,3.82162986,10.55961594,-13.464513
7.51,751,0.18899999999999997,-0.086,-0.9690000000000001,-0.40107059999999994,0.0,0.057295800000000015,3.81590028,10.55961594,-13.464513
7.52,752,0.19,-0.084,-0.9690000000000001,-0.3437748,0.0,0.0,3.810170700000002,10.55961594,-13.464513
7.53,753,0.19,-0.081,-0.971,-0.3437748,0.057295800000000015,-0.057295800000000015,3.810170700000002,10.55961594,-13.464513
7.54,754,0.191,-0.08,-0.97,-0.3437748,0.2291832000000001,-0.11459160000000004,3.80444112,10.56534552,-13.464513
7.55,755,0.191,-0.079,-0.972,-0.286479,0.2291832000000001,-0.11459160000000004,3.752874900000001,10.56534552,-13.47024258
7.56,756,0.191,-0.079,-0.9690000000000001,-0.286479,0.0,-0.057295800000000015,3.74714532,10.56534552,-13.47597216
7.57,757,0.19,-0.081,-0.9670000000000001,-0.286479,-0.286479,-0.057295800000000015,3.74141574,10.55961594,-13.47597216
7.58,758,0.19,-0.083,-0.968,-0.1718874,0.0,-0.11459160000000004,3.74141574,10.55961594,-13.47597216
7.59,759,0.19,-0.084,-0.97,0.11459160000000004,0.286479,0.0,3.74141574,10.56534552,-13.47597216
7.6,760,0.188,-0.086,-0.968,-0.1718874,0.40107059999999994,0.0,3.74141574,10.571075099999998,-13.47597216
7.61,761,0.188,-0.08199999999999999,-0.96,-0.5156622000000001,0.7448454000000001,-0.057295800000000015,3.73568616,10.57680468,-13.47597216
7.62,762,0.187,-0.081,-0.9620000000000001,-0.286479,0.9167328000000001,-0.1718874,3.7299565800000014,10.58826384,-13.47597216
7.63,763,0.188,-0.083,-0.968,-0.057295800000000015,1.0886202,-0.1718874,3.7299565800000014,10.599723,-13.47597216
7.64,764,0.191,-0.08199999999999999,-0.973,0.0,0.9740286,-0.057295800000000015,3.7299565800000014,10.60545258,-13.47597216
7.65,765,0.192,-0.084,-0.975,0.11459160000000004,0.8021411999999999,-0.11459160000000004,3.7242269999999995,10.61118216,-13.47597216
7.66,766,0.19,-0.086,-0.9740000000000001,0.286479,0.5156622000000001,-0.057295800000000015,3.7299565800000014,10.61691174,-13.47597216
7.67,767,0.18899999999999997,-0.086,-0.97,0.5156622000000001,0.1718874,-0.057295800000000015,3.73568616,10.62264132,-13.48170174
7.68,768,0.185,-0.087,-0.972,0.5156622000000001,0.0,-0.057295800000000015,3.74141574,10.62264132,-13.48170174
7.6899999999999995,769,0.184,-0.086,-0.971,0.40107059999999994,0.286479,0.0,3.74714532,10.62264132,-13.48170174
7.7,770,0.18600000000000005,-0.08199999999999999,-0.97,0.1718874,0.4583664000000001,0.0,3.7242269999999995,10.60545258,-13.48170174
7.71,771,0.18600000000000005,-0.078,-0.9690000000000001,0.057295800000000015,0.5156622000000001,0.0,3.7242269999999995,10.61118216,-13.48170174
7.72,772,0.188,-0.075,-0.968,0.1718874,0.6302538000000001,0.0,3.7242269999999995,10.61691174,-13.48170174
7.7299999999999995,773,0.18899999999999997,-0.073,-0.966,0.11459160000000004,0.9167328000000001,-0.1718874,3.7242269999999995,10.6283709,-13.48170174
7.74,774,0.188,-0.073,-0.966,0.11459160000000004,0.9740286,-0.11459160000000004,3.7242269999999995,10.63410048,-13.48170174
7.75,775,0.187,-0.076,-0.9670000000000001,0.1718874,1.2605076000000002,-0.1718874,3.71276784,10.64555964,-13.48170174
7.76,776,0.188,-0.079,-0.966,0.11459160000000004,1.3750992,-0.11459160000000004,3.71276784,10.657018800000001,-13.48170174
7.77,777,0.19,-0.081,-0.965,0.11459160000000004,1.3178034,0.057295800000000015,3.71849742,10.66847796,-13.48170174
7.78,778,0.19,-0.08199999999999999,-0.966,0.286479,1.145916,0.1718874,3.71849742,10.679937120000002,-13.47597216
7.79,779,0.18899999999999997,-0.084,-0.968,0.286479,1.0886202,0.2291832000000001,3.7242269999999995,10.69139628,-13.47597216
7.8,780,0.19,-0.083,-0.968,0.40107059999999994,0.9740286,0.11459160000000004,3.7299565800000014,10.69712586,-13.47024258
7.81,781,0.19,-0.083,-0.9670000000000001,0.5156622000000001,0.9740286,0.0,3.73568616,10.70858502,-13.47024258
7.82,782,0.18899999999999997,-0.084,-0.963,0.6875496,0.9167328000000001,0.0,3.74141574,10.72004418,-13.47024258
7.83,783,0.19,-0.085,-0.965,0.9167328000000001,1.0886202,-0.11459160000000004,3.74714532,10.73150334,-13.47024258
7.84,784,0.192,-0.085,-0.966,0.8021411999999999,1.0313244000000001,-0.11459160000000004,3.75860448,10.73723292,-13.47024258
7.85,785,0.19399999999999998,-0.084,-0.97,0.6302538000000001,0.7448454000000001,-0.1718874,3.75860448,10.75442166,-13.47597216
7.86,786,0.195,-0.083,-0.9690000000000001,0.6302538000000001,0.572958,-0.1718874,3.76433406,10.76015124,-13.47597216
7.87,787,0.19399999999999998,-0.086,-0.9690000000000001,0.6302538000000001,0.7448454000000001,-0.11459160000000004,3.77006364,10.76588082,-13.47597216
7.88,788,0.192,-0.086,-0.9690000000000001,0.572958,0.8021411999999999,-0.1718874,3.77579322,10.771610399999998,-13.47597216
7.89,789,0.193,-0.086,-0.968,0.5156622000000001,0.7448454000000001,-0.1718874,3.7815228,10.78306956,-13.47597216
7.9,790,0.19399999999999998,-0.084,-0.968,0.4583664000000001,0.6302538000000001,-0.286479,3.7815228,10.78879914,-13.48170174
7.91,791,0.192,-0.084,-0.968,0.3437748,0.6875496,-0.3437748,3.7815228,10.800258300000001,-13.48170174
7.92,792,0.193,-0.08199999999999999,-0.9690000000000001,0.40107059999999994,0.572958,-0.286479,3.78725238,10.80598788,-13.487431320000002
7.93,793,0.19399999999999998,-0.08,-0.972,0.286479,0.6875496,-0.286479,3.78725238,10.81171746,-13.487431320000002
7.94,794,0.19699999999999998,-0.079,-0.972,0.3437748,0.9167328000000001,-0.11459160000000004,3.79298196,10.81744704,-13.487431320000002
7.95,795,0.19899999999999998,-0.078,-0.973,0.5156622000000001,0.7448454000000001,0.0,3.7815228,10.83463578,-13.4931609
7.96,796,0.196,-0.078,-0.9740000000000001,0.572958,0.6302538000000001,0.0,3.78725238,10.84036536,-13.4931609
7.97,797,0.193,-0.078,-0.973,0.5156622000000001,0.572958,0.0,3.79298196,10.84609494,-13.4931609
