TimeStamp(s),FrameCounter,AccX,AccY,AccZ,GyrX,GyrY,GyrZ,EulerX,EulerY,EulerZ
0.01,1,-0.031,-0.982,0.224,-9.167328,-4.9847345999999995,-0.8021411999999999,100.99530666,1.36364004,-35.31140154000001
0.020000000000000004,2,-0.029,-0.975,0.225,-9.167328,-4.297185,-0.5156622000000001,100.8979038,1.38082878,-35.3515086
0.030000000000000006,3,-0.026,-0.968,0.226,-9.0527364,-3.9534102,-0.286479,100.83487842,1.34072172,-35.38588608
0.04000000000000001,4,-0.021,-0.964,0.224,-8.9954406,-3.7815227999999994,-0.11459160000000004,100.74320514,1.3464512999999998,-35.42599314
0.05000000000000001,5,-0.018000000000000002,-0.96,0.22,-8.7089616,-3.6669312000000014,0.1718874,100.65153186,1.35218088,-35.46037062
0.06000000000000001,6,-0.018000000000000002,-0.96,0.217,-8.479778399999999,-3.2658606,0.286479,100.56558816,1.3579104599999998,-35.4947481
0.07,7,-0.018000000000000002,-0.963,0.213,-8.59437,-3.0366774,0.286479,100.47964446,1.3579104599999998,-35.52339600000001
0.08,8,-0.019,-0.966,0.211,-8.7089616,-3.2085648,0.3437748,100.40515992,1.31207382,-35.5520439
0.09000000000000001,9,-0.022,-0.97,0.213,-8.9381448,-3.4950437999999995,0.3437748,100.31348664,1.3178034,-35.58642138000001
0.10000000000000002,10,-0.028,-0.972,0.214,-9.0527364,-4.0680017999999984,0.286479,100.22181336,1.32353298,-35.63225802
0.11000000000000001,11,-0.03,-0.976,0.21600000000000005,-8.5370742,-4.6982556,0.0,100.13014008,1.32926256,-35.67809466
0.12000000000000001,12,-0.027000000000000003,-0.981,0.221,-7.7349330000000025,-4.9274388,0.0,100.04992596,1.34072172,-35.72393130000001
0.13000000000000003,13,-0.022,-0.982,0.219,-7.1046792000000005,-4.7555514,-0.2291832000000001,100.0098189,1.30061466,-35.76403836
0.14000000000000004,14,-0.02,-0.98,0.217,-6.760904399999999,-4.0680017999999984,-0.4583664000000001,99.94106394,1.31207382,-35.80414542
0.15000000000000002,15,-0.021,-0.974,0.21600000000000005,-6.703608600000001,-3.6096354,-0.6302538000000001,99.87230898,1.32353298,-35.8385229
0.16000000000000003,16,-0.02,-0.971,0.209,-6.589017,-3.4377480000000005,-0.6875496,99.80355402,1.34072172,-35.87290038
0.17000000000000004,17,-0.02,-0.969,0.206,-6.5317212,-3.380452200000001,-0.6302538000000001,99.74052864,1.35218088,-35.90727786
0.18000000000000005,18,-0.019,-0.971,0.206,-6.3025379999999975,-3.151269,-0.3437748,99.70615116,1.30061466,-35.93019618
0.19000000000000006,19,-0.016,-0.974,0.203,-5.958763200000001,-2.5210152000000003,-0.057295800000000015,99.64885536,1.30634424,-35.95311450000001
0.20000000000000004,20,-0.016,-0.977,0.198,-5.6722842,-1.7761698,0.0,99.58582998,1.31207382,-35.97603282
0.21000000000000005,21,-0.018000000000000002,-0.979,0.197,-5.5576926,-1.2605076000000002,-0.057295800000000015,99.53426376,1.31207382,-35.98749198
0.22000000000000006,22,-0.02,-0.979,0.197,-5.5003968,-0.6302538000000001,-0.2291832000000001,99.47696796,1.3178034,-35.99322156
0.23000000000000004,23,-0.019,-0.98,0.198,-5.1566220000000005,-0.286479,-0.1718874,99.4655088,1.21467096,-35.9817624
0.24000000000000005,24,-0.017,-0.979,0.201,-4.6409598,0.0,-0.057295800000000015,99.41394258,1.22040054,-35.98749198
0.25000000000000006,25,-0.013,-0.976,0.204,-4.0680017999999984,0.0,0.0,99.37383552,1.22040054,-35.98749198
0.26000000000000006,26,-0.008,-0.973,0.203,-3.6669312000000014,0.4010706,0.0,99.33945804,1.21467096,-35.9817624
0.2700000000000001,27,-0.003,-0.968,0.2,-3.151269,0.6875496,0.0,99.30508056,1.21467096,-35.97603282
0.2800000000000001,28,-0.002,-0.966,0.196,-2.578311,0.4583664000000001,-0.057295800000000015,99.36810594,1.1172681,-35.96457366
0.29000000000000004,29,-0.001,-0.968,0.196,-1.9480572,0.0,0.057295800000000015,99.3509172,1.1172681,-35.96457366
0.30000000000000004,30,0.0,-0.973,0.195,-1.5469866,-0.286479,0.3437748,99.33372846,1.11153852,-35.96457366
0.31000000000000005,31,-0.001,-0.976,0.195,-1.0313244,-0.6875496,0.8021411999999999,99.3222693,1.10580894,-35.97603282
0.32000000000000006,32,-0.001,-0.978,0.199,-0.5156622000000001,-0.9167328,1.0313244,99.31653972,1.10007936,-35.98749198
0.33000000000000007,33,0.0,-0.982,0.203,0.0,-1.0313244,1.145916,99.4368609,1.01413566,-35.99322156
0.3400000000000001,34,-0.001,-0.984,0.209,0.4583664000000001,-1.6042823999999998,1.2605076000000002,99.44259048,1.0026765,-36.01613988
0.3500000000000001,35,-0.001,-0.983,0.21,0.8594370000000001,-2.291832,1.432395,99.45404964,0.9912173399999998,-36.03905820000001
0.3600000000000001,36,-0.004,-0.981,0.214,1.0886202,-2.6929026,1.5469866,99.4655088,0.98548776,-36.067706099999995
0.3700000000000001,37,-0.006999999999999999,-0.979,0.217,1.3178034,-2.6356068,1.7188740000000002,99.47696796,0.96829902,-36.096354
0.38000000000000006,38,-0.013,-0.98,0.221,1.6042823999999998,-2.4064236,1.9480572,99.58582998,0.89954406,-36.11927232
0.39000000000000007,39,-0.016,-0.983,0.227,2.0053530000000004,-2.0053530000000004,2.1772404,99.60874830000002,0.8823553199999999,-36.14219064
0.4000000000000001,40,-0.017,-0.989,0.224,2.1772404,-1.8907613999999997,2.4064236,99.63166662,0.8594370000000001,-36.16510896000001
0.4100000000000001,41,-0.022,-0.989,0.22,2.578311,-1.8907613999999997,2.6929026,99.65458494,0.83651868,-36.18802728
0.4200000000000001,42,-0.029,-0.996,0.23,4.4117766,-0.9167328,2.291832,99.70042158,0.8136003599999999,-36.19948644
0.4300000000000001,43,-0.026,-1.021,0.251,3.6096354,0.5156622000000001,2.4064236,99.8379315,0.7391158200000001,-36.19948644
0.4400000000000001,44,-0.015,-1.025,0.251,1.6615782,0.2291832000000001,3.6669312000000014,99.85512024,0.69900876,-36.20521602
0.45000000000000007,45,-0.014,-1.026,0.244,1.0313244,-2.2345362,5.042030400000002,99.8665794,0.6589017,-36.23386392
0.4600000000000001,46,-0.016,-1.024,0.234,-0.8021411999999999,-4.8128472,6.4744254,99.86084981999998,0.6016058999999999,-36.29115972
0.4700000000000001,47,-0.01,-1.012,0.221,-1.7188740000000002,-6.8182002000000015,7.6203414,99.84366108,0.53858052,-36.37137384
0.4800000000000001,48,-0.013,-1.008,0.209,-1.8907613999999997,-8.9954406,8.3651868,99.83220192,0.46409598,-36.47450628
0.4900000000000001,49,-0.033,-1.002,0.208,-2.4637194,-11.3445684,8.307891,99.80355402,0.4010706000000001,-36.59482746
0.5000000000000001,50,-0.061,-0.988,0.227,-3.2085648,-12.834259199999998,7.448453999999999,99.77490612,0.35523396,-36.73233738
0.5100000000000001,51,-0.086,-0.975,0.243,-3.4377480000000005,-12.318597,6.1879464,99.74052864,0.32085648,-36.86411772
0.5200000000000001,52,-0.103,-0.972,0.252,-3.9534102,-11.229976800000001,5.1566220000000005,99.70042158,0.29220857999999994,-36.9844389
0.5300000000000001,53,-0.118,-0.972,0.256,-4.1825934,-10.8289062,4.297185,99.70615116,0.17761697999999998,-37.08184176
0.5400000000000001,54,-0.124,-0.972,0.254,-4.4117766,-10.7143146,3.8961144,99.6660441,0.16042824,-37.19643336
0.5500000000000002,55,-0.124,-0.972,0.252,-4.583664,-10.8289062,3.8388186,99.62020746,0.14323950000000002,-37.30529538
0.5600000000000002,56,-0.124,-0.963,0.253,-4.8701430000000006,-10.8289062,4.010706000000001,99.56864124,0.12605075999999998,-37.41988698
0.5700000000000001,57,-0.123,-0.953,0.255,-5.443101,-10.313244,3.8388186,99.51707502,0.10313244,-37.528749
0.5800000000000001,58,-0.126,-0.944,0.255,-6.0733548,-9.1100322,3.0366774,99.51707502,0.0,-37.60896312
0.5900000000000001,59,-0.132,-0.941,0.251,-6.589017,-6.8182002000000015,1.8334656000000005,99.44832006,-0.00572958,-37.67771808
0.6000000000000001,60,-0.14,-0.943,0.241,-6.760904399999999,-5.844171599999999,0.8021411999999999,99.3795651,0.0,-37.73501388
0.6100000000000001,61,-0.146,-0.948,0.24,-5.3285094000000015,-5.6722842,-0.057295800000000015,99.32799888,0.00572958,-37.79230968
0.6200000000000001,62,-0.142,-0.973,0.246,-4.8128472,-4.583664,-0.4583664000000001,99.27643266,0.01718874,-37.83814632
0.6300000000000001,63,-0.135,-0.991,0.23,-5.72958,-3.6669312000000014,0.0,99.27070308,-0.14896908,-37.84387589999999
0.6400000000000001,64,-0.124,-0.988,0.208,-3.4950437999999995,-3.8388186,0.6302538000000001,99.2363256,-0.14896908,-37.87825338
0.6500000000000001,65,-0.108,-1.001,0.204,-0.6302538000000001,-4.2398892,0.8594370000000001,99.23059602,-0.14896908,-37.92409002
0.6600000000000001,66,-0.087,-1.005,0.184,-1.2032118,-4.7555514,1.3178034,99.21913686,-0.14896908,-37.96992666
0.6700000000000002,67,-0.076,-0.986,0.18,-1.5469866,-5.5003968,1.4896908000000002,99.20194812,-0.15469866,-38.02722246
0.6800000000000002,68,-0.07200000000000001,-0.971,0.183,-1.3178034,-5.9014674000000005,1.432395,99.20194812,-0.25783110000000004,-38.06732952
0.6900000000000002,69,-0.071,-0.953,0.19,-1.9480572,-5.844171599999999,1.145916,99.1790298,-0.25783110000000004,-38.12462532
0.7000000000000002,70,-0.07200000000000001,-0.937,0.2,-3.0366774,-4.8701430000000006,0.286479,99.1503819,-0.25210152,-38.17619154000001
0.7100000000000002,71,-0.075,-0.925,0.206,-4.6409598,-3.2658606,-1.0886202,99.10454526,-0.23491278,-38.20483944
0.7200000000000002,72,-0.078,-0.918,0.198,-6.016058999999999,-0.4010706,-2.7501984,99.04151988,-0.20626488,-38.20483944
0.7300000000000002,73,-0.075,-0.911,0.192,-6.990087599999999,4.3544808,-3.7815227999999994,98.98995366,-0.22345362,-38.15327322
0.7400000000000001,74,-0.06,-0.89,0.165,-7.2765666,11.4018642,-3.4950437999999995,98.90973954,-0.21199446,-38.03868162
0.7500000000000001,75,-0.031,-0.853,0.138,-8.7662574,25.9549974,-1.8334656000000005,98.81806626,-0.24064236,-37.78085052
0.7600000000000001,76,0.006999999999999999,-0.809,0.124,-10.9434978,38.1590028,0.1718874,98.69774508,-0.30939732,-37.41415739999999
0.7700000000000001,77,0.046,-0.767,0.136,-14.5531332,47.0398518,2.9220857999999996,98.54304642,-0.42398892,-36.96152058
0.7800000000000001,78,0.061,-0.7609999999999999,0.16399999999999998,-19.480572,49.4462754,6.5317212,98.34251112,-0.56149884,-36.4974246
0.7900000000000001,79,0.051,-0.8009999999999999,0.205,-25.3247436,43.9458786,11.172681,98.07322086,-0.7448454000000001,-36.08489484
0.8000000000000002,80,0.037000000000000005,-0.898,0.236,-29.0489706,34.091001,17.18874,97.76955312,-0.9740286,-35.7812271
0.8100000000000002,81,0.041,-1.044,0.272,-27.3300966,25.3247436,22.9756158,97.4888037,-1.24331886,-35.56923264
0.8200000000000002,82,0.036000000000000004,-1.231,0.32,-21.485925,21.2567418,24.7517856,97.2596205,-1.5183387000000002,-35.39734524
0.8300000000000002,83,-0.022,-1.421,0.314,-13.349921400000001,23.0902074,16.329303,97.12211058,-1.7188740000000002,-35.19108036
0.8400000000000002,84,-0.136,-1.4480000000000002,0.304,-15.6417534,21.027558600000006,2.4064236,96.95595276,-1.7761698,-34.99054506
0.8500000000000002,85,-0.152,-1.348,0.316,-17.589810600000003,15.527161800000002,-10.886202,96.76687662,-1.6902260999999998,-34.83011682
0.8600000000000002,86,-0.092,-1.203,0.37,-16.2147114,12.032117999999999,-20.1108258,96.59498922000002,-1.51260912,-34.68687732
0.8700000000000002,87,-0.064,-1.134,0.457,-15.2406828,9.797581800000001,-24.2934192,96.44029056,-1.28342592,-34.56655614
0.8800000000000002,88,-0.064,-1.091,0.473,-18.621135,10.1413566,-23.491278,96.30278064,-1.07716104,-34.45196454
0.8900000000000001,89,-0.061,-1.062,0.445,-22.86102420000001,14.667724800000002,-20.912967,96.06213828,-0.8880849000000001,-34.291536300000004
0.9000000000000001,90,-0.041,-1.037,0.406,-26.642547,19.480572,-19.2513888,95.78711844,-0.72765666,-34.079541840000005
0.9100000000000001,91,-0.002,-1.002,0.364,-27.215505,24.8090814,-20.05353,95.50636902,-0.56149884,-33.82171074
0.9200000000000002,92,0.034,-0.972,0.316,-26.1841806,30.0229992,-22.345362,95.23134918,-0.37815228,-33.506583840000005
0.9300000000000002,93,0.059,-0.947,0.27,-26.1841806,35.46610020000001,-25.210152,94.97924766,-0.16042824,-33.145620300000004
0.9400000000000002,94,0.087,-0.926,0.231,-27.6738714,38.90384820000001,-27.6165756,94.69276866,0.06302537999999999,-32.7445497
0.9500000000000002,95,0.109,-0.902,0.204,-30.252182399999995,38.7892566,-28.6479,94.38337134,0.30366774,-32.3434791
0.9600000000000002,96,0.131,-0.861,0.185,-33.3461556,35.9817624,-28.0176462,94.03959654,0.5443101,-31.9710564
0.9700000000000002,97,0.141,-0.8140000000000001,0.163,-35.0650296,31.79916900000001,-26.1841806,93.68436258,0.7734933,-31.64447034
0.9800000000000002,98,0.14,-0.772,0.147,-35.6379876,27.043617600000005,-23.14750320000001,93.3348582,0.9969469199999998,-31.37518008
0.9900000000000002,99,0.121,-0.7509999999999999,0.13,-35.0650296,19.6524594,-19.4232762,92.97962424,1.1688343199999998,-31.17464478
1.0000000000000002,100,0.101,-0.7609999999999999,0.126,-32.830493399999995,13.0634424,-16.501190400000002,92.6473086,1.32353298,-31.04286444
1.0100000000000002,101,0.08900000000000001,-0.7859999999999999,0.127,-30.65325300000001,6.016058999999999,-13.980175199999998,92.33791128,1.45531332,-30.97983906
1.0200000000000002,102,0.086,-0.823,0.13,-28.7051958,-0.6875496,-11.8029348,92.0457027,1.56990492,-30.985568640000004
1.0300000000000002,103,0.09,-0.853,0.141,-26.5279554,-6.0733548,-10.1413566,91.80506034,1.6959556799999995,-31.054323600000004
1.0400000000000003,104,0.102,-0.8809999999999999,0.16,-23.4339822,-9.9121734,-8.479778399999999,91.56441798,1.78189938,-31.15172646000001
1.0500000000000003,105,0.113,-0.902,0.188,-19.9962342,-12.2040054,-6.875496000000001,91.3581531,1.85638392,-31.27204764
1.0600000000000003,106,0.116,-0.913,0.223,-16.615782,-13.6936962,-5.2712136,91.19199528,1.91367972,-31.409557560000003
1.0700000000000003,107,0.109,-0.918,0.253,-11.8029348,-15.469866,-3.380452200000001,91.06594452,1.95378678,-31.564256220000004
1.0800000000000003,108,0.091,-0.93,0.28,-8.9954406,-16.902261,-1.8907613999999997,91.100322,2.01108258,-31.75906194
1.0900000000000003,109,0.067,-0.937,0.299,-7.7922288,-17.8189938,-0.286479,91.0143783,2.01681216,-31.93667892
1.1000000000000003,110,0.052000000000000005,-0.947,0.311,-7.8495246,-18.5065434,1.3178034,90.93416418,2.01108258,-32.120025479999995
1.1100000000000003,111,0.044,-0.957,0.308,-8.479778399999999,-18.3919518,3.0366774,90.84249090000002,1.98816426,-32.30337204
1.1200000000000003,112,0.048,-0.972,0.28600000000000003,-8.880849000000003,-18.048177,5.0993262,90.74508804,1.9480572000000005,-32.4867186
1.1300000000000001,113,0.063,-0.995,0.264,-9.1100322,-18.2200644,7.333862400000001,90.73362888,1.89649098,-32.68152432
1.1400000000000001,114,0.107,-1.04,0.249,-9.6829902,-18.907614000000002,9.167328,90.63049644,1.81054728,-32.876330040000006
1.1500000000000001,115,0.14800000000000002,-1.085,0.243,-10.255948199999999,-19.9962342,10.255948199999999,90.527364,1.7188740000000002,-33.07686534
1.1600000000000001,116,0.181,-1.134,0.255,-10.3705398,-22.2307704,10.3705398,90.41850198,1.62147114,-33.294589380000005
1.1700000000000002,117,0.204,-1.168,0.273,-10.313244,-25.8977016,9.969469199999999,90.30963996,1.52979786,-33.55242048
1.1800000000000002,118,0.214,-1.177,0.289,-8.880849000000003,-30.3094782,9.5111028,90.25234416,1.47250206,-33.87327696
1.1900000000000002,119,0.212,-1.188,0.29600000000000004,-6.016058999999999,-34.7212548,9.2819196,90.18931878,1.39228794,-34.217051760000004
1.2000000000000002,120,0.197,-1.193,0.304,-3.4377480000000005,-38.7892566,9.453807000000001,90.14921172,1.30634424,-34.60093362
1.2100000000000002,121,0.177,-1.196,0.336,-0.572958,-43.4302164,10.7143146,90.13775256,1.21467096,-35.03065212
1.2200000000000002,122,0.116,-1.209,0.378,-1.145916,-46.9252602,11.3445684,90.1262934,1.1172681,-35.4947481
1.2300000000000002,123,0.085,-1.1909999999999998,0.408,0.4583664000000001,-48.8733174,12.4331886,90.17213004,1.01413566,-35.98749198
1.2400000000000002,124,0.041,-1.2009999999999998,0.389,0.572958,-50.0192334,13.0061466,90.17785962,0.89954406,-36.48023586
1.2500000000000002,125,-0.057,-1.321,0.215,-2.291832,-50.82137460000001,9.969469199999999,90.14921172,0.8136003599999999,-36.9844389
1.2600000000000002,126,-0.16,-1.5659999999999998,0.078,-6.130650599999999,-35.0077338,-2.1199446,90.08618634,0.8479778399999999,-37.33394328
1.2700000000000002,127,-0.208,-1.721,0.132,0.6302538000000001,-9.8548776,-17.0741484,90.0976455,1.01986524,-37.43134614
1.2800000000000002,128,-0.251,-1.635,0.111,11.9748222,-8.136003599999999,-22.5172494,90.21796668,1.23758928,-37.50583068
1.2900000000000003,129,-0.277,-1.479,0.155,11.6310474,-23.204799,-20.05353,90.33255828,1.44385416,-37.7292843
1.3000000000000003,130,-0.162,-1.243,0.271,-0.2291832000000001,-22.4026578,-9.8548776,90.3268287,1.5469866,-37.95273792
1.3100000000000003,131,0.027000000000000003,-0.984,0.113,-5.3858052,-7.0473834,5.3858052,90.27526248,1.49542038,-38.02149288
1.3200000000000003,132,0.135,-0.8270000000000001,0.0,10.8289062,-11.8602306,17.8762896,90.3841245,1.32353298,-38.14181406
1.3300000000000003,133,0.145,-0.836,0.024,21.3713334,-20.626488,26.9863218,90.59611896,1.0886202,-38.35380852
1.3400000000000003,134,0.125,-0.895,-0.016,11.172681,-20.626488,29.793816,90.71071056,0.8021412000000001,-38.56007340000001
1.3500000000000003,135,0.115,-0.946,-0.102,2.6929026,-16.386598799999998,25.0955604,90.73935846,0.56149884,-38.72623122
1.3600000000000003,136,0.091,-1.047,-0.104,2.9793816000000004,-12.3758928,15.0114996,90.76800636,0.41825934,-38.85228198
1.3700000000000003,137,0.037000000000000005,-1.13,-0.109,3.7815227999999994,-11.745639,3.9534102,90.80811342,0.38388186,-38.96687358000001
1.3800000000000003,138,-0.005,-1.112,-0.121,2.5210152000000003,-13.120738199999998,-3.4377480000000005,90.74508804,0.41252976,-39.08146518
1.3900000000000003,139,-0.012,-1.0,-0.097,-0.7448454000000001,-11.688343199999998,-4.8128472,90.73935846,0.46982556,-39.196056780000006
1.4000000000000004,140,-0.024,-0.888,-0.07,-0.8021411999999999,-9.2819196,-2.5210152000000003,90.73362888,0.4984734599999999,-39.28773006
1.4100000000000004,141,-0.046,-0.8320000000000001,-0.052000000000000005,0.2291832000000001,-7.2765666,0.2291832000000001,90.73362888,0.4984734599999999,-39.35648502
1.4200000000000004,142,-0.06,-0.8270000000000001,-0.042,0.8021411999999999,-4.4690724,2.4637194,90.74508804,0.47555514,-39.40232166
1.4300000000000004,143,-0.063,-0.8420000000000001,-0.025,1.3750992,-0.4583664000000001,4.0680017999999984,90.71644014,0.38388186,-39.3908625
1.4400000000000004,144,-0.061,-0.877,-0.016,2.3491278,3.2085648,4.9274388,90.73935846,0.33231564,-39.35648502
1.4500000000000004,145,-0.054000000000000006,-0.917,0.003,3.7815227999999994,5.2139178,6.4744254,90.77946552,0.26356068,-39.3049188
1.4600000000000002,146,-0.06,-0.937,0.02,4.6982556,7.5630456000000015,9.8548776,90.83103174,0.16615782,-39.23043426
1.4700000000000002,147,-0.04,-0.923,0.026,6.3025379999999975,10.9434978,13.0634424,90.89405712,0.028647900000000007,-39.12730182
1.4800000000000002,148,-0.019,-0.892,0.047,8.021412000000002,12.261301199999998,15.126091199999998,90.98000082,-0.12032118,-39.00698064
1.4900000000000002,149,0.002,-0.852,0.065,8.9954406,11.688343199999998,15.985528200000001,91.06594452,-0.28074942,-38.89238904
1.5000000000000002,150,0.009000000000000001,-0.805,0.064,8.193299399999999,8.651665800000002,16.157415599999997,91.15188822,-0.44690724,-38.81217492
1.5100000000000002,151,0.005,-0.759,0.047,6.8182002000000015,2.8074942000000003,15.9282324,91.22064318,-0.6073354799999999,-38.78352702
1.5200000000000002,152,-0.009000000000000001,-0.722,0.05,6.016058999999999,-3.151269,15.469866,91.28366856,-0.75630456,-38.8179045
1.5300000000000002,153,-0.029,-0.698,0.059,5.2712136,-7.6203414,14.495837400000001,91.34669394,-0.90527364,-38.89811862
1.5400000000000003,154,-0.063,-0.679,0.081,3.9534102,-10.313244,12.605076,91.39253058,-1.0255948199999998,-39.00125106
1.5500000000000003,155,-0.086,-0.672,0.106,2.6929026,-10.026765,9.5111028,91.42117848,-1.11153852,-39.1043835
1.5600000000000003,156,-0.113,-0.6729999999999999,0.116,1.2032118,-7.7349330000000025,6.3025379999999975,91.43836722,-1.1688343199999998,-39.18459762
1.5700000000000003,157,-0.132,-0.6809999999999999,0.117,0.11459160000000004,-4.297185,3.3231564,91.43836722,-1.2032117999999998,-39.23043426
1.5800000000000003,158,-0.139,-0.688,0.118,-0.5156622000000001,-1.0313244,0.8594370000000001,91.46701512,-1.2605076000000002,-39.23043426
1.5900000000000003,159,-0.14300000000000002,-0.6970000000000001,0.123,-0.057295800000000015,1.7761698,-1.145916,91.46701512,-1.24904844,-39.21324552
1.6000000000000003,160,-0.139,-0.7190000000000001,0.131,-0.1718874,4.1825934,-2.5210152000000003,91.46128554,-1.22613012,-39.17313846
1.6100000000000003,161,-0.131,-0.7340000000000001,0.139,-1.6042823999999998,5.1566220000000005,-3.4950437999999995,91.4440968,-1.19175264,-39.11584266
1.6200000000000003,162,-0.127,-0.727,0.14300000000000002,-1.7761698,5.844171599999999,-3.8388186,91.42117848,-1.1573751600000002,-39.05854686
1.6300000000000003,163,-0.13699999999999998,-0.74,0.157,-0.3437748,5.3858052,-3.9534102,91.4727447,-1.18029348,-39.00125106
1.6400000000000003,164,-0.146,-0.773,0.171,0.3437748,4.9847345999999995,-3.7815227999999994,91.47847428,-1.1459160000000002,-38.94968484
1.6500000000000004,165,-0.155,-0.807,0.177,1.0886202,6.130650599999999,-3.9534102,91.48420386,-1.10580894,-38.88665946
1.6600000000000004,166,-0.162,-0.85,0.179,2.9220857999999996,7.8495246,-4.6982556,91.51285176,-1.06570188,-38.80644534
1.6700000000000004,167,-0.172,-0.885,0.181,5.042030400000002,9.568398599999998,-5.7868758000000025,91.56441798,-1.01413566,-38.70904248
1.6800000000000004,168,-0.179,-0.907,0.17600000000000002,7.6776372,12.3758928,-7.2192707999999985,91.69619832,-1.0255948199999998,-38.57153256
1.6900000000000004,169,-0.194,-0.924,0.172,10.1413566,16.7303736,-9.0527364,91.79360118,-0.9453806999999999,-38.40537474
1.7000000000000004,170,-0.21,-0.95,0.16899999999999998,10.255948199999999,22.459953600000002,-11.229976800000001,91.89100404,-0.8422482600000001,-38.17619154000001
1.7100000000000004,171,-0.222,-0.964,0.166,8.250595200000001,28.6479,-13.2353298,91.96548857999998,-0.72765666,-37.88971254000001
1.7200000000000004,172,-0.239,-1.004,0.188,8.7089616,31.913760600000003,-13.750992000000002,92.0457027,-0.61306506,-37.56885606
1.7300000000000004,173,-0.227,-1.072,0.217,7.7922288,35.3515086,-13.750992000000002,92.14883514,-0.53285094,-37.20789252
1.7400000000000004,174,-0.199,-1.166,0.252,6.8182002000000015,39.3622146,-13.6936962,92.21186052,-0.42398892,-36.8125515
1.7500000000000004,175,-0.16399999999999998,-1.259,0.277,6.5317212,41.8832298,-12.9488508,92.26915632,-0.32085648,-36.394292160000006
1.7600000000000005,176,-0.103,-1.339,0.305,10.255948199999999,40.737313799999995,-10.1986524,92.36655918,-0.24637194,-35.98749198
1.7700000000000002,177,-0.036000000000000004,-1.382,0.35200000000000004,12.3758928,35.3515086,-6.5317212,92.48115077999998,-0.20626488,-35.63225802
1.7800000000000002,178,0.051,-1.3630000000000002,0.388,16.7303736,28.934379,-2.6929026,92.6759565,-0.19480572,-35.3515086
1.7900000000000003,179,0.079,-1.264,0.461,22.5172494,21.5432208,-0.3437748,92.89941012,-0.20053530000000008,-35.133784559999995
1.8000000000000003,180,0.048,-1.113,0.531,24.064235999999998,13.6936962,0.8594370000000001,93.14005248,-0.22345362,-34.99627464
1.8100000000000003,181,-0.067,-0.974,0.574,31.054323600000004,2.7501984,1.8334656000000005,93.45517938,-0.24064236,-34.96762674
1.8200000000000003,182,-0.246,-0.894,0.488,49.560867,2.291832,1.8907613999999997,93.95938242,-0.25783110000000004,-34.93897884
1.8300000000000003,183,-0.361,-1.0490000000000002,0.237,66.80690279999999,39.3622146,0.3437748,94.6240137,-0.32085648,-34.53790823999999
1.8400000000000003,184,-0.243,-1.476,0.055,57.1812084,84.7404882,3.9534102,95.19124212,-0.4526368200000001,-33.70138956
1.8500000000000003,185,-0.157,-1.936,0.316,22.345362,61.1919144,11.5737516,95.40323658,-0.63598338,-33.10551324
1.8600000000000003,186,0.102,-1.912,0.027000000000000003,15.527161800000002,68.01011460000001,23.376686399999997,95.5407465,-0.95111028,-32.46380028
1.8700000000000003,187,0.508,-1.811,-0.075,40.10706,87.20420759999998,26.9863218,95.92462836,-1.32353298,-31.6272816
1.8800000000000003,188,0.609,-1.648,-0.289,33.518043,73.85428619999998,27.903054600000004,96.22256652,-1.6787669399999998,-30.93400242
1.8900000000000003,189,0.461,-1.304,-0.426,-0.286479,49.04520479999999,25.84040580000001,96.19964819999998,-2.005353,-30.481365600000004
1.9000000000000004,190,0.265,-0.944,-0.34700000000000003,-8.193299399999999,17.3606274,20.798375399999998,96.10797492,-2.2345362,-30.33239652
1.9100000000000004,191,0.094,-0.85,-0.21,-0.11459160000000004,-5.3858052,15.2406828,96.10797492,-2.3777757,-30.40115148
1.9200000000000004,192,-0.031,-0.882,-0.078,-2.578311,-17.246035799999998,10.4851314,96.09651576,-2.45798982,-30.58449804
1.9300000000000004,193,-0.151,-1.058,0.025,-2.7501984,-21.6005166,12.032117999999999,96.0564087,-2.58404058,-30.79076292
1.9400000000000004,194,-0.234,-1.24,0.08800000000000001,-0.8594370000000001,-18.449247600000003,13.0061466,96.0564087,-2.68717302,-30.985568640000004
1.9500000000000004,195,-0.276,-1.321,0.147,1.3750992,-10.7716104,6.8182002000000015,96.07932702,-2.74446882,-31.10016024
1.9600000000000004,196,-0.26,-1.224,0.132,1.3178034,-2.291832,-2.86479,96.09651576,-2.71009134,-31.123078560000003
1.9700000000000004,197,-0.212,-1.048,0.07200000000000001,3.6096354,1.8334656000000005,-9.9121734,96.13089324,-2.61268848,-31.08870108
1.9800000000000004,198,-0.127,-0.935,0.029,9.167328,1.4896908000000002,-13.0634424,96.17672988,-2.50955604,-31.04286444
1.9900000000000004,199,-0.024,-0.863,0.034,12.1467096,-0.8594370000000001,-15.126091199999998,96.29705106,-2.35485738,-31.03140528
2.0000000000000004,200,0.067,-0.7959999999999999,0.048,12.1467096,-0.9167328,-17.0168526,96.42310182,-2.18869956,-31.01994612
2.0100000000000002,201,0.133,-0.7240000000000001,0.081,10.5424272,0.3437748,-18.3919518,96.52623426,-2.005353,-30.9970278
2.02,202,0.172,-0.654,0.097,7.6776372,3.8961144,-18.9649098,96.6007188,-1.82200644,-30.93400242
2.0300000000000002,203,0.19,-0.593,0.102,3.7815227999999994,9.740286,-18.8503182,96.64082586,-1.61001198,-30.8251404
2.04,204,0.191,-0.557,0.097,0.8594370000000001,13.464512999999998,-17.9908812,96.64082586,-1.44958374,-30.67617132
2.0500000000000003,205,0.192,-0.542,0.081,-1.7188740000000002,15.469866,-16.7303736,96.61790754,-1.30634424,-30.50428392
2.06,206,0.171,-0.557,0.063,-2.5210152000000003,15.0687954,-15.4125702,96.58925964,-1.1745638999999999,-30.3381261
2.0700000000000003,207,0.161,-0.588,0.059,-3.724227,13.0634424,-13.6364004,96.543423,-1.0599723,-30.194886600000004
2.08,208,0.157,-0.633,0.052000000000000005,-7.906820400000001,9.3965112,-11.8602306,96.45174972,-0.9167328000000001,-30.09748374
2.0900000000000003,209,0.154,-0.682,0.044,-13.8082878,4.583664,-10.255948199999999,96.30851022,-0.8193299399999999,-30.04018794000001
2.1,210,0.174,-0.716,0.036000000000000004,-19.308684600000007,-1.7761698,-7.8495246,96.1137045,-0.7448454000000001,-30.051647100000004
2.1100000000000003,211,0.184,-0.743,0.028,-24.7517856,-10.255948199999999,-4.1825934,95.86160298,-0.6875496,-30.14904996
2.12,212,0.17,-0.755,0.03,-22.058883,-17.3606274,-0.4010706,95.64387894,-0.66463128,-30.32093736
2.1300000000000003,213,0.161,-0.792,0.07400000000000001,-20.168121600000006,-22.8037284,3.151269,95.44334364,-0.6302538000000001,-30.56157972
2.14,214,0.133,-0.8079999999999999,0.099,-20.168121600000006,-25.84040580000001,6.016058999999999,95.24853792,-0.6589017,-30.8251404
2.1500000000000004,215,0.102,-0.8170000000000001,0.126,-13.2926256,-27.043617600000005,8.479778399999999,95.11675757999998,-0.7161975,-31.10016024
2.16,216,0.08,-0.845,0.183,-9.1100322,-26.69984280000001,10.255948199999999,95.03081388,-0.7849524600000001,-31.37518008
2.1700000000000004,217,0.059,-0.867,0.244,-5.3285094000000015,-25.78311,11.688343199999998,94.98497724,-0.87089616,-31.63874076
2.18,218,0.021,-0.883,0.28,-0.6875496,-25.3820394,12.891555,95.0537322,-0.96256944,-31.913760600000003
2.1900000000000004,219,0.005,-0.907,0.285,3.380452200000001,-26.642547,13.750992000000002,95.09956884,-1.07143146,-32.18878044
2.2,220,0.026,-0.955,0.312,7.0473834,-30.080295,14.037471,95.17978295999998,-1.1745638999999999,-32.49817776
2.2100000000000004,221,0.066,-1.006,0.34700000000000003,7.161975,-34.60666320000001,14.7250206,95.26572666,-1.27769634,-32.84768214
2.22,222,0.121,-1.052,0.389,5.844171599999999,-39.1330314,15.870936600000002,95.3402112,-1.38655836,-33.24875274
2.2300000000000004,223,0.161,-1.107,0.416,6.1879464,-45.72204840000001,17.8762896,95.4548028,-1.48396122,-33.73003746
2.24,224,0.191,-1.164,0.41,6.016058999999999,-51.4516284,19.9962342,95.53501692,-1.6157415599999996,-34.25142924
2.25,225,0.17800000000000002,-1.189,0.4370000000000001,8.193299399999999,-52.6548402,20.340009,95.64387894,-1.75325148,-34.79000976
2.2600000000000002,226,0.091,-1.185,0.491,9.3965112,-47.7274014,18.2773602,95.76420011999998,-1.87357266,-35.27129448
2.27,227,-0.036000000000000004,-1.152,0.521,8.3651868,-35.2942128,13.349921400000001,95.86160298,-1.9595163600000003,-35.63225802
2.2800000000000002,228,-0.13,-1.1,0.56,12.3758928,-20.912967,7.5630456000000015,96.0850566,-2.02827132,-35.85571164
2.29,229,-0.16899999999999998,-1.038,0.55,22.173474600000002,-12.7769634,4.7555514,96.3142398,-2.05691922,-35.9817624
2.3000000000000003,230,-0.109,-0.975,0.297,30.7105488,-23.5485738,8.7662574,96.63509628,-2.10848544,-36.22240476
2.31,231,-0.13699999999999998,-1.022,0.051,31.6845774,-60.6189564,11.2872726,96.99033024,-2.12567418,-36.82401066
2.3200000000000003,232,-0.275,-1.476,0.305,24.694489800000003,-79.06820400000002,0.1718874,97.28253881999998,-2.01108258,-37.59750396
2.33,233,-0.379,-1.937,-0.092,1.7188740000000002,-77.062851,-22.91832,97.32264588,-1.6673077799999998,-38.31370146
2.3400000000000003,234,-0.528,-1.859,-0.181,12.891555,-74.771019,-41.4248634,97.48307412,-1.1459160000000002,-38.9897919
2.35,235,-0.632,-1.7919999999999998,-0.107,38.5027776,-40.33624320000001,-54.602897399999996,97.88414472,-0.53858052,-39.3049188
2.3600000000000003,236,-0.42,-1.639,-0.276,9.5111028,-3.2658606,-61.9367598,97.98154758,0.06875496,-39.247623
2.37,237,-0.179,-1.3019999999999998,-0.154,-15.183387000000002,21.3140376,-58.0979412,97.82111934,0.6016058999999999,-38.961144
2.3800000000000003,238,0.114,-1.15,-0.122,-24.2361234,38.7319608,-43.544808,97.54036992,0.9912173399999998,-38.5314255
2.39,239,0.251,-1.039,-0.131,-23.9496444,42.97185,-26.642547,97.29972756,1.18602306,-38.07878868
2.4000000000000004,240,0.255,-1.046,-0.068,-15.0687954,40.164355799999996,-13.8655836,97.15075848,1.2605076000000002,-37.66625892
2.41,241,0.274,-1.212,-0.034,-6.417129599999999,35.17962120000001,-4.8701430000000006,97.0877331,1.25477802,-37.31675454
2.4200000000000004,242,0.301,-1.327,0.014,-1.145916,32.7731976,2.5210152000000003,97.07627394,1.18029348,-37.00162764
2.43,243,0.308,-1.3259999999999998,0.044,3.3231564,34.8358464,8.136003599999999,97.09919226,1.07716104,-36.67504158
2.4400000000000004,244,0.258,-1.209,0.061,4.8128472,35.8671708,10.3705398,97.15075848,0.92246238,-36.33699636
2.45,245,0.152,-1.069,0.08,5.7868758000000025,34.66395900000001,10.8289062,97.20805428,0.76203414,-36.01613988
2.4600000000000004,246,0.053,-0.959,0.063,5.9014674000000005,32.830493399999995,11.1153852,97.26535008,0.6016058999999999,-35.70674256
2.47,247,-0.022,-0.861,0.056,6.0733548,28.4760126,12.891555,97.32837546,0.43544808,-35.44318188
2.4800000000000004,248,-0.078,-0.762,0.065,7.6776372,21.485925,16.2147114,97.39713042,0.21772404,-35.24837616
2.49,249,-0.136,-0.6679999999999999,0.079,9.224623800000002,13.8655836,19.595163600000006,97.4888037,0.00572958,-35.133784559999995
2.5000000000000004,250,-0.181,-0.606,0.087,7.7922288,6.6463128000000005,21.199446,97.56901782,-0.21199446,-35.093677500000005
2.5100000000000002,251,-0.215,-0.56,0.08800000000000001,5.042030400000002,2.2345362,20.3973048,97.62058404,-0.41252976,-35.09940708000001
2.5200000000000005,252,-0.242,-0.53,0.078,4.3544808,2.4064236,17.4179232,97.6606911,-0.59014674,-35.09940708000001
2.5300000000000002,253,-0.261,-0.517,0.078,4.4117766,5.958763200000001,13.6364004,97.70652774,-0.7849524600000001,-35.04784086
2.5400000000000005,254,-0.279,-0.515,0.086,2.6929026,12.261301199999998,9.797581800000001,97.72944606,-0.89954406,-34.93897884
2.5500000000000003,255,-0.279,-0.519,0.094,-0.2291832000000001,20.168121600000006,6.6463128000000005,97.72371648,-0.9969469199999998,-34.7499027
2.5600000000000005,256,-0.259,-0.5429999999999999,0.096,-4.5263682,27.215505,4.5263682,97.66642068,-1.0886202,-34.4920716
2.5700000000000003,257,-0.227,-0.584,0.076,-9.3965112,32.486718599999996,2.1772404,97.56328824,-1.16310474,-34.17694470000001
2.58,258,-0.146,-0.604,0.078,-14.32395,37.5860448,1.3178034,97.40286,-1.24904844,-33.81025158
2.5900000000000003,259,-0.094,-0.604,0.071,-16.615782,41.9978214,-1.4896908000000002,97.21951344,-1.30061466,-33.39772182
2.6,260,-0.065,-0.611,0.099,-12.032117999999999,45.6074568,-5.0993262,97.07627394,-1.3178034,-32.945085
2.6100000000000003,261,-0.058,-0.648,0.135,-10.8289062,47.555514,-9.797581800000001,96.95022318,-1.29488508,-32.46952986
2.62,262,-0.045,-0.6729999999999999,0.159,-10.599723,47.7846972,-13.980175199999998,96.82417242,-1.22613012,-31.988245140000004
2.6300000000000003,263,-0.061,-0.711,0.166,-10.0840608,47.4982182,-17.0168526,96.7153104,-1.13445684,-31.506960419999995
2.64,264,-0.065,-0.742,0.16699999999999998,-8.9954406,46.9252602,-19.5378678,96.60644838,-1.00840608,-31.0256757
2.6500000000000004,265,-0.096,-0.7829999999999999,0.174,-6.016058999999999,45.779344200000004,-22.0015872,96.53196384,-0.8594370000000001,-30.55012056
2.66,266,-0.128,-0.818,0.197,-0.4583664000000001,43.544808,-24.2934192,96.5147751,-0.68182002,-30.09748374
2.6700000000000004,267,-0.172,-0.851,0.241,6.130650599999999,42.1697088,-26.1841806,96.56634132,-0.48128472,-29.6505765
2.68,268,-0.189,-0.875,0.273,12.261301199999998,43.6021038,-27.6165756,96.7153104,-0.30366774,-29.192210100000004
2.6900000000000004,269,-0.191,-0.892,0.306,16.902261,47.0971476,-29.1062664,96.87573864,-0.08021412,-28.69373664
2.7,270,-0.157,-0.928,0.329,21.829699800000004,51.7954032,-31.741873200000004,97.09346268,0.14896908,-28.14369696
2.7100000000000004,271,-0.117,-1.003,0.35100000000000003,22.0015872,55.290447,-34.7212548,97.31118672,0.41252976,-27.559279799999995
2.72,272,-0.075,-1.036,0.354,21.3713334,56.0925882,-34.0337052,97.52318118,0.6589017,-26.96340348
2.7300000000000004,273,-0.04,-1.115,0.329,14.7823164,54.029939399999996,-29.8511118,97.689339,0.86516658,-26.39617506
2.74,274,-0.008,-1.157,0.261,10.599723,48.7587258,-20.626488,97.79820102,0.9912173399999998,-25.88624244
2.7500000000000004,275,0.065,-1.19,0.243,14.667724800000002,35.122325399999994,-9.3965112,97.95289968,1.0255948199999998,-25.531008480000004
2.7600000000000002,276,0.152,-1.225,0.318,23.376686399999997,17.761698000000006,0.3437748,98.18781246,0.9969469199999998,-25.3533915
2.7700000000000005,277,0.183,-1.19,0.394,29.1062664,7.3911582,8.136003599999999,98.48575062,0.90527364,-25.29036612
2.7800000000000002,278,0.128,-1.087,0.493,26.69984280000001,6.0733548,13.5791046,98.82952542,0.7792228800000001,-25.2674478
2.7900000000000005,279,-0.017,-0.952,0.58,18.9649098,10.1986524,15.0687954,99.02433114,0.61306506,-25.19296326000001
2.8000000000000003,280,-0.214,-0.889,0.631,16.959556799999998,19.308684600000007,13.0634424,99.19621854,0.4526368200000001,-25.02107586
2.8100000000000005,281,-0.179,-0.994,0.329,12.4331886,63.4264506,9.9121734,99.31653972,0.23491278,-24.41946996
2.8200000000000003,282,0.032,-1.515,0.226,65.94746579999999,78.7244292,21.199446,99.97544142,-0.11459160000000004,-23.68608372000001
2.8300000000000005,283,0.117,-2.9560000000000004,-0.038,69.900876,39.3622146,55.9779966,100.68017976,-0.73338624,-23.39387514
2.8400000000000003,284,0.501,-2.725,-0.048,37.7006364,78.38065440000003,87.31879920000002,101.04114330000002,-1.75325148,-22.8037284
2.8500000000000005,285,0.974,-1.894,-0.133,39.247623,77.75040059999998,81.64651500000002,101.40783642,-2.71582092,-22.20785208
2.8600000000000003,286,0.555,-1.367,-0.48,8.3651868,54.6601932,61.24921020000001,101.46513222,-3.43201842,-21.8010519
2.8700000000000006,287,0.092,-0.853,-0.184,-5.844171599999999,28.934379,35.17962120000001,101.39064768,-3.8388186000000006,-21.59478702
2.8800000000000003,288,-0.181,-0.799,-0.019,7.448453999999999,6.9327918,12.0894138,101.31616314,-4.0966497,-21.47446584
2.8900000000000006,289,-0.244,-0.928,0.015,-10.1413566,0.9167328,-5.2139178,101.2130307,-4.05081306,-21.457277100000002
2.9000000000000004,290,-0.261,-1.109,0.035,-19.194093,-3.380452200000001,-5.6722842,101.01822498,-3.98778768,-21.48019542
2.91,291,-0.183,-1.399,0.14300000000000002,-10.8289062,-5.0993262,6.9327918,100.91509254,-4.04508348,-21.5432208
2.9200000000000004,292,-0.087,-1.517,0.275,-4.6982556,2.4637194,14.5531332,100.86352632,-4.19405256,-21.54895038
2.93,293,-0.006999999999999999,-1.4509999999999998,0.299,-4.5263682,15.0114996,10.3705398,100.80623052,-4.31437374,-21.42289962
2.9400000000000004,294,0.041,-1.247,0.188,-7.2192707999999985,22.058883,1.7188740000000002,100.71455724,-4.37739912,-21.21663474
2.95,295,0.048,-1.053,0.113,-4.6982556,19.0795014,-4.6409598,100.65153186,-4.37739912,-21.02182902
2.9600000000000004,296,0.027000000000000003,-0.934,0.115,1.2032118,12.032117999999999,-8.7089616,100.65153186,-4.31437374,-20.89004868
2.97,297,0.004,-0.857,0.131,5.5576926,7.8495246,-11.516455800000001,100.6973685,-4.21697088,-20.78691624
2.9800000000000004,298,0.002,-0.787,0.172,6.3025379999999975,10.1986524,-13.8655836,100.76039388,-4.08519054,-20.67232464
2.99,299,0.001,-0.723,0.197,4.6409598,15.527161800000002,-14.667724800000002,100.79477136,-3.97632852,-20.488978080000006
3.0000000000000004,300,0.023,-0.6459999999999999,0.193,1.6615782,21.829699800000004,-14.381245800000002,100.78904178,-3.87892566,-20.2540653
3.0100000000000002,301,0.06,-0.5710000000000001,0.198,-1.145916,27.3300966,-13.0634424,100.7546643,-3.810170700000002,-19.96185672
3.0200000000000005,302,0.096,-0.525,0.19,-1.0886202,30.5386614,-10.4851314,100.72028682,-3.77006364,-19.64672982
3.0300000000000002,303,0.123,-0.509,0.175,-1.2605076000000002,30.7105488,-7.7922288,100.69163892000002,-3.7299565800000014,-19.34306208
3.0400000000000005,304,0.156,-0.503,0.135,-1.3750992,28.4760126,-5.7868758000000025,100.65726144,-3.73568616,-19.056583080000006
3.0500000000000003,305,0.191,-0.528,0.103,0.286479,23.777757,-4.4117766,100.6400727,-3.74141574,-18.8216703
3.0600000000000005,306,0.248,-0.5589999999999999,0.08900000000000001,-0.8021411999999999,13.120738199999998,-3.6096354,100.62288396,-3.7299565800000014,-18.68416038
3.0700000000000003,307,0.244,-0.586,0.078,-0.572958,1.3750992,-2.2345362,100.6114248,-3.71276784,-18.66697164
3.0800000000000005,308,0.236,-0.607,0.11,-1.4896908000000002,-8.4224826,0.0,100.59996564,-3.62109456,-18.7643745
3.0900000000000003,309,0.204,-0.604,0.13,-4.4690724,-15.2979786,3.3231564,100.56558816,-3.62109456,-18.91907316
3.1000000000000005,310,0.161,-0.614,0.146,-8.59437,-20.2254174,8.021412000000002,100.49110362000002,-3.65547204,-19.13106762
3.1100000000000003,311,0.11,-0.624,0.168,-7.7349330000000025,-25.496631,11.688343199999998,100.43380782,-3.71849742,-19.40035788
3.1200000000000006,312,0.084,-0.653,0.182,-4.0680017999999984,-31.3980984,15.3552744,100.42234866,-3.80444112,-19.73267352
3.1300000000000003,313,0.058,-0.733,0.221,-0.7448454000000001,-36.955791,19.7097552,100.46245572,-3.896114400000001,-20.13374412
3.1400000000000006,314,0.071,-0.8029999999999999,0.247,0.2291832000000001,-40.6227222,25.0955604,100.4968332,-4.05654264,-20.57492178
3.1500000000000004,315,0.106,-0.857,0.273,4.4690724,-42.62807520000001,28.4187168,100.5827769,-4.24561878,-21.03901776
3.1600000000000006,316,0.124,-0.883,0.324,9.740286,-42.28430039999999,29.7365202,100.7260164,-4.44615408,-21.50311374
3.1700000000000004,317,0.121,-0.913,0.358,16.673077799999998,-39.0757356,29.0489706,100.93228128,-4.64668938,-21.93856182
3.1800000000000006,318,0.044,-0.953,0.35100000000000003,18.5638392,-35.17962120000001,24.1788276,101.19011238,-4.77846972,-22.33963242
3.1900000000000004,319,-0.019,-0.981,0.375,18.334656,-32.2002396,18.6784308,101.40783642,-4.893061319999998,-22.68340722
3.2000000000000006,320,-0.039,-1.023,0.455,12.9488508,-33.002380800000005,15.183387000000002,101.57399424000002,-4.96181628,-23.0329116
3.2100000000000004,321,-0.047,-1.0659999999999998,0.501,11.4018642,-34.7212548,16.615782,101.7286929,-5.04775998,-23.39960472
3.22,322,-0.039,-1.168,0.5529999999999999,9.568398599999998,-33.518043,18.334656,101.86047324,-5.15089242,-23.760568260000003
3.2300000000000004,323,-0.038,-1.2,0.56,12.261301199999998,-25.0955604,22.173474600000002,102.0438198,-5.29413192,-24.05850642
3.24,324,-0.051,-1.256,0.596,18.621135,-12.5477802,25.210152,102.25008468,-5.51185596,-24.23039382
3.2500000000000004,325,-0.08,-1.255,0.649,29.1635622,2.6356068,25.9549974,102.54802284,-5.76968706,-24.25904172
3.2600000000000002,326,-0.106,-1.253,0.7440000000000001,41.023792799999995,17.475219,25.210152,102.95482302,-6.05043648,-24.13872054
3.2700000000000005,327,-0.083,-1.166,0.556,45.550161,23.0902074,23.491278,103.39600068,-6.33691548,-23.96683314
3.2800000000000002,328,0.076,-1.132,0.411,56.66554620000001,7.2192707999999985,24.4653066,103.98041784,-6.54890994,-23.95537398
3.2900000000000005,329,0.07,-1.149,0.32299999999999995,39.3049188,-26.5279554,27.3873924,104.41586592000002,-6.743715660000001,-24.27623046
3.3000000000000003,330,-0.235,-1.431,0.109,-5.1566220000000005,-36.898495200000006,25.9549974,104.4215955,-6.89268474,-24.694489800000003
3.3100000000000005,331,-0.44,-1.877,-0.925,-23.6058696,-13.8655836,-0.572958,104.19814188,-6.8468481,-24.82627014
3.3200000000000003,332,-0.816,-2.2230000000000003,-0.17600000000000002,-3.8388186,17.8189938,-48.414951,104.12365734,-6.428588760000001,-24.53979114
3.3300000000000005,333,-0.94,-2.19,0.15,5.5576926,39.9924684,-65.7755784,104.11219818,-5.90719698,-23.98975146
3.3400000000000003,334,-0.637,-1.6880000000000002,-0.132,-21.3140376,73.96887779999999,-68.0674104,103.79707128,-5.44883058,-23.1188553
3.3500000000000005,335,-0.28300000000000003,-1.055,0.044,-40.5654264,104.6794266,-56.8947294,103.26422034,-5.17381074,-21.98439846
3.3600000000000003,336,-0.054000000000000006,-0.657,0.08199999999999999,-39.47680620000001,111.72681,-34.8358464,102.74855814,-5.11651494,-20.83848246
3.3700000000000006,337,0.13,-0.633,0.051,-10.0840608,108.05987879999999,-16.8449652,102.53083409999999,-5.21964738,-19.76132142
3.3800000000000003,338,0.268,-0.879,0.138,0.8594370000000001,110.9246688,-5.5576926,102.4162425,-5.37434604,-18.68988996
3.3900000000000006,339,0.382,-1.086,0.154,1.145916,122.7848994,-2.86479,102.29592132,-5.63790672,-17.498137319999998
3.4000000000000004,340,0.399,-1.305,0.175,6.8182002000000015,131.78034,-8.193299399999999,102.22143678,-5.86708992,-16.208981819999998
3.4100000000000006,341,0.222,-1.422,0.204,10.313244,131.32197359999998,-18.6784308,102.16987056,-5.99887026,-14.90263758
3.4200000000000004,342,-0.008,-1.317,0.182,10.5424272,125.3059146,-24.350715,102.1297635,-6.05616606,-13.6364004
3.4300000000000006,343,-0.166,-1.135,0.154,12.605076,123.6443364,-24.7517856,102.09538602,-6.1077322800000005,-12.38162238
3.4400000000000004,344,-0.236,-0.973,0.145,13.0061466,127.4258592,-23.204799,102.0724677,-6.18221682,-11.10392604
3.4500000000000006,345,-0.246,-0.807,0.17800000000000002,12.6623718,129.488508,-22.86102420000001,102.0438198,-6.26243094,-9.7975818
3.4600000000000004,346,-0.237,-0.7070000000000001,0.204,10.8289062,126.05076000000001,-22.6891368,101.99798316,-6.3311859,-8.53134462
3.4700000000000006,347,-0.226,-0.65,0.206,9.453807000000001,123.0713784,-21.6005166,101.94068736,-6.40567044,-7.29375534
3.4800000000000004,348,-0.206,-0.627,0.233,8.880849000000003,123.70163219999999,-20.6837838,101.88339156,-6.5030733,-6.05616606
3.4900000000000007,349,-0.173,-0.629,0.269,8.651665800000002,126.3945348,-20.2254174,101.8146366,-6.60047616,-4.78992888
3.5000000000000004,350,-0.139,-0.645,0.278,9.1100322,129.3166206,-20.05353,101.74015206,-6.69787902,-3.4950437999999995
3.5100000000000007,351,-0.116,-0.662,0.253,11.8029348,132.46788959999998,-19.194093,101.68285626,-6.812470620000001,-2.17151082
3.5200000000000005,352,-0.111,-0.6890000000000001,0.221,13.9228794,134.4159468,-18.7357266,101.64847878,-6.9327918,-0.8250595199999999
3.5300000000000002,353,-0.107,-0.688,0.257,17.131444199999994,137.8536948,-19.2513888,101.6427492,-7.05884256,0.53858052
3.5400000000000005,354,-0.09,-0.657,0.253,19.4232762,145.0729656,-21.199446,101.6427492,-7.17916374,1.99389384
3.5500000000000003,355,-0.08800000000000001,-0.602,0.256,21.6578124,150.28688340000005,-23.7204612,101.64847878,-7.288025760000001,3.50077338
3.5600000000000005,356,-0.09,-0.56,0.266,23.6058696,151.7765742,-26.7571386,101.6713971,-7.36823988,5.03630082
3.5700000000000003,357,-0.097,-0.536,0.279,26.069589,150.28688340000005,-30.4813656,101.72296332,-7.41407652,6.560369099999999
3.5800000000000005,358,-0.092,-0.534,0.28,27.444688199999998,148.22423460000005,-34.1482968,101.79744786,-7.4198061,8.067248639999999
3.5900000000000003,359,-0.067,-0.551,0.278,28.304125199999998,145.0729656,-36.955791,101.8719324,-7.3911582,9.55120986
3.6000000000000005,360,-0.036000000000000004,-0.583,0.306,29.0489706,139.9736394,-38.7319608,101.96360568,-7.333862399999999,10.99506402
3.6100000000000003,361,0.001,-0.637,0.327,28.8770832,132.6970728,-39.9924684,102.06673812,-7.25364828,12.370163219999998
3.6200000000000006,362,0.025,-0.698,0.336,28.361421000000004,125.1340272,-41.1383844,102.16987056,-7.144786260000001,13.67077788
3.6300000000000003,363,0.064,-0.765,0.319,24.4080108,122.72760359999998,-41.9405256,102.25581426,-7.01300592,14.94274464
3.6400000000000006,364,0.077,-0.8140000000000001,0.279,24.064235999999998,122.3838288,-42.62807520000001,102.3302988,-6.886955159999999,16.22617056
3.6500000000000004,365,0.065,-0.898,0.253,22.2307704,123.5297448,-44.919907200000004,102.38186502,-6.743715660000001,17.51532606
3.6600000000000006,366,0.062,-0.96,0.252,20.2827132,125.477802,-47.8992888,102.4162425,-6.57755784,18.83885904
3.6700000000000004,367,0.097,-1.008,0.262,19.4232762,123.758928,-48.8733174,102.45061998,-6.39994086,20.139473700000003
3.6800000000000006,368,0.171,-1.018,0.22,19.2513888,114.7634874,-44.117766,102.49645662,-6.2165943,21.34841508
3.6900000000000004,369,0.232,-1.002,0.214,24.637194,98.835255,-33.2888598,102.62250738,-6.130650600000001,22.37973948
3.7000000000000006,370,0.247,-0.965,0.267,29.9084076,78.20876700000002,-21.199446,102.82877226,-6.11919144,23.18188068
3.7100000000000004,371,0.189,-0.914,0.333,33.3461556,66.463128,-12.4904844,103.08660336,-6.1592985,23.85797112
3.7200000000000006,372,0.078,-0.862,0.363,34.60666320000001,63.48374640000001,-6.9327918,103.36162319999998,-6.25097178,24.48822492
3.7300000000000004,373,-0.054000000000000006,-0.816,0.383,35.695283399999994,69.38521379999999,-4.8701430000000006,103.66529094,-6.382752120000001,25.15858578000001
3.7400000000000007,374,-0.177,-0.812,0.441,34.091001,92.6473086,-7.2192707999999985,103.89447414,-6.554639519999999,26.069589
3.7500000000000004,375,-0.205,-0.8290000000000001,0.472,22.5745452,134.7597216,-14.037471,103.95176994,-6.77236356,27.398851560000004
3.7600000000000007,376,-0.118,-0.903,0.398,20.9702628,171.4863294,-20.912967,103.9345812,-7.0244650800000015,29.09480724
3.7700000000000005,377,0.044,-1.258,0.27,26.642547,189.7063938,-25.0382646,103.94604036,-7.282296179999999,30.985568640000004
3.7800000000000007,378,0.16,-1.723,0.119,15.469866,199.7904546,-17.761698000000006,103.81426002,-7.63180056,32.95081458
3.7900000000000005,379,0.276,-2.427,-0.202,0.2291832000000001,199.5612714,2.0053530000000004,103.52778102,-8.17611066,34.864494300000004
3.8000000000000007,380,0.462,-3.353,-0.384,-13.6936962,182.6017146,37.81522800000001,103.11525126,-9.00689976,36.54326124
3.8100000000000005,381,0.879,-3.024,-0.193,-20.1108258,172.0019916,55.92070079999999,102.63396654,-9.9694692,38.07878868
3.8200000000000007,382,0.909,-1.798,-0.181,-10.026765,142.89572520000004,26.2414764,102.27873258,-10.571075099999998,39.41378082
3.8300000000000005,383,0.313,-1.141,-0.076,-19.595163600000006,113.2737966,-1.2605076000000002,101.82609576,-10.78879914,40.5367785
3.8400000000000007,384,-0.087,-0.861,0.08,-22.7464326,100.0957626,-17.18874,101.39064768,-10.84609494,41.55091416
3.8500000000000005,385,-0.419,-0.975,0.301,-32.31483119999999,90.06899759999996,-28.762491600000004,100.87498548,-10.76588082,42.49056528000001
3.8600000000000003,386,-0.506,-1.114,0.443,-48.6441342,86.40206640000002,-38.5027776,100.19889504,-10.571075099999998,43.40729808
3.8700000000000006,387,-0.428,-1.197,0.504,-52.597544400000004,100.8979038,-46.123119,99.45404964,-10.31897358,44.47299996
3.8800000000000003,388,-0.265,-1.235,0.5670000000000001,-45.83664,123.3005616,-50.0192334,98.76077046,-10.0554129,45.75642588
3.8900000000000006,389,-0.069,-1.172,0.602,-29.507337,152.3495322,-49.6754586,98.16489414,-9.83195928,47.33778996
3.9000000000000004,390,0.07400000000000001,-1.057,0.535,-12.7196676,182.3152356,-49.4462754,97.69506857999998,-9.64288314,49.20563304
3.9100000000000006,391,0.142,-0.965,0.397,-3.8961144,202.540653,-50.82137460000001,97.28253881999998,-9.45953658,51.279741
3.9200000000000004,392,0.166,-0.868,0.273,-2.5210152000000003,210.04640279999998,-50.82137460000001,96.88146822,-9.27619002,53.42260391999999
3.9300000000000006,393,0.177,-0.765,0.222,-3.0939732,206.26488,-48.0138804,96.49185678,-9.06992514,55.52535978000001
3.9400000000000004,394,0.175,-0.688,0.24,-5.6149884000000005,193.5452124,-42.91455420000001,96.10224534,-8.909496899999997,57.49060572000001
3.9500000000000006,395,0.197,-0.625,0.252,-10.7143146,180.0234036,-36.6120162,95.68971558,-8.783446139999999,59.31834174
3.9600000000000004,396,0.227,-0.568,0.209,-17.303331600000003,166.1005242,-29.507337,95.23707876,-8.691772859999999,60.991379099999996
3.9700000000000006,397,0.234,-0.522,0.139,-20.168121600000006,150.687954,-23.777757,94.77871236,-8.62874748,62.5097178
3.9800000000000004,398,0.281,-0.5329999999999999,0.116,-19.2513888,134.931609,-18.907614000000002,94.37191218,-8.54853336,63.86762826
3.9900000000000007,399,0.326,-0.58,0.122,-18.2200644,118.1439396,-15.126091199999998,93.9937599,-8.51415588,65.05365132
4.000000000000001,400,0.32,-0.6759999999999999,0.145,-16.4438946,101.413566,-13.349921400000001,93.66144426,-8.479778399999999,66.06778698000001
4.010000000000001,401,0.34,-0.765,0.187,-18.3919518,89.38144799999998,-13.407217200000002,93.32912862,-8.42821218,66.96733104
4.0200000000000005,402,0.348,-0.823,0.212,-17.6471064,78.2660628,-11.6310474,93.02546088,-8.376645960000001,67.75228349999999
4.03,403,0.353,-0.852,0.2,-15.0114996,72.5937786,-8.8235532,92.78481852,-8.250595200000001,68.48566973999999
4.040000000000001,404,0.373,-0.848,0.196,-10.8289062,68.6403684,-4.6982556,92.56709448,-8.25632478,69.17321934
4.050000000000001,405,0.379,-0.843,0.207,-8.136003599999999,65.08802879999999,-0.6302538000000001,92.38374792,-8.29643184,69.82066188
4.0600000000000005,406,0.374,-0.8440000000000001,0.214,-4.8128472,61.07732280000001,2.578311,92.23477884,-8.3651868,70.42799735999998
4.07,407,0.358,-0.862,0.222,-1.7188740000000002,56.9520252,5.2139178,92.12591682,-8.451130500000001,70.99522578
4.080000000000001,408,0.327,-0.903,0.238,1.2605076000000002,53.39968560000001,7.7349330000000025,92.10872808,-8.44540092,71.5338063
4.090000000000001,409,0.269,-0.947,0.246,4.2398892,49.274388,10.1413566,92.06862102,-8.57718126,72.02082060000002
4.1000000000000005,410,0.207,-0.97,0.228,6.0733548,42.5707794,11.6310474,92.06289144000002,-8.72042076,72.43907994
4.11,411,0.14800000000000002,-0.973,0.202,6.8182002000000015,34.60666320000001,12.891555,92.0743506,-8.86938984,72.78285473999998
4.120000000000001,412,0.114,-0.972,0.202,8.3651868,23.0902074,14.8396122,92.12591682,-9.02981808,73.00630836
4.130000000000001,413,0.08900000000000001,-0.981,0.25,12.4904844,7.161975,18.1054728,92.33791128,-9.098573040000002,73.06933374
4.140000000000001,414,0.101,-1.021,0.317,18.1054728,-6.9327918,21.6578124,92.532717,-9.3105675,72.9948492
4.15,415,0.15,-1.077,0.406,24.1215318,-14.2093584,24.350715,92.80773684,-9.5397507,72.84015054
4.160000000000001,416,0.23,-1.159,0.48,28.6479,-15.0687954,25.1528562,93.12859332,-9.77466348,72.67972230000002
4.170000000000001,417,0.285,-1.227,0.519,30.252182399999995,-11.8602306,23.7204612,93.46090896,-9.9981171,72.54794196
4.180000000000001,418,0.28,-1.253,0.53,29.507337,-3.8961144,19.9962342,93.81041334,-10.1413566,72.49637574
4.19,419,0.229,-1.221,0.536,26.642547,5.443101,16.7876694,94.07397402,-10.313244000000001,72.54221238
4.2,420,0.142,-1.167,0.546,27.444688199999998,13.120738199999998,13.8655836,94.32607554,-10.46221308,72.66826314
4.210000000000001,421,0.057,-1.121,0.562,28.762491600000004,19.1367972,12.6623718,94.58390664,-10.60545258,72.85160970000003
4.220000000000001,422,0.028,-1.089,0.5,34.37748,24.1215318,13.5791046,94.88757438,-10.76015124,73.08652248
4.23,423,0.036000000000000004,-1.099,0.396,42.5707794,21.6578124,16.8449652,95.31156330000002,-10.90912032,73.28705778
4.24,424,-0.05,-1.17,0.309,31.6845774,6.1879464,18.9649098,95.6266902,-11.10392604,73.33862400000002
4.250000000000001,425,-0.189,-1.388,0.205,3.4950437999999995,8.136003599999999,9.9121734,95.64387894,-11.21278806,73.40737895999997
4.260000000000001,426,-0.29,-1.793,-0.374,-18.8503182,32.8877892,-13.980175199999998,95.38604784,-11.1153852,73.75115376
4.2700000000000005,427,-0.516,-1.892,-0.361,-28.4187168,53.9153478,-36.1536498,94.97924766,-10.82317662,74.31838218
4.28,428,-0.639,-1.49,-0.252,-19.938938399999998,95.3402112,-43.7166954,94.5667179,-10.50804972,75.30959952
4.290000000000001,429,-0.513,-1.087,-0.189,-6.417129599999999,124.331886,-36.2682414,94.251591,-10.27886652,76.58156627999998
4.300000000000001,430,-0.29,-0.821,-0.024,-11.688343199999998,127.5977466,-22.86102420000001,93.88489788,-10.17573408,77.87072178
4.3100000000000005,431,-0.086,-0.695,-0.08199999999999999,-21.3140376,130.29064920000002,-7.8495246,93.4208019,-10.22157072,79.17706602000001
4.32,432,0.043,-0.639,-0.197,-18.5065434,133.212735,2.7501984,92.97962424,-10.35908064,80.50632858
4.330000000000001,433,0.107,-0.84,-0.116,-4.3544808,136.82237039999998,5.3858052,92.6473086,-10.47940182,81.88715736
4.340000000000001,434,0.14400000000000002,-1.145,-0.081,3.4377480000000005,138.77042759999998,-0.572958,92.41239582,-10.571075099999998,83.27944529999998
4.3500000000000005,435,0.203,-1.461,-0.068,7.161975,145.70321940000005,-10.0840608,92.19467178,-10.571075099999998,84.74621778000002
4.36,436,0.209,-1.5530000000000002,-0.019,2.1199446,151.6619826,-18.3919518,91.91392236,-10.47940182,86.27601564
4.370000000000001,437,0.134,-1.338,-0.015,-2.4064236,150.401475,-20.2827132,91.59879546,-10.36481022,87.79435434000001
4.380000000000001,438,0.004,-1.129,-0.069,5.2139178,148.396122,-15.870936600000002,91.35242352,-10.27313694,89.28977472
4.390000000000001,439,-0.116,-1.044,-0.091,14.266654199999998,152.4641238,-11.745639,91.20345444,-10.23302988,90.82530216
4.4,440,-0.196,-0.965,-0.049,18.3919518,157.0477878,-9.453807000000001,91.08886284,-10.21011156,92.40666624
4.410000000000001,441,-0.234,-0.863,0.004,17.4179232,161.23038119999995,-9.3965112,90.9570825,-10.18719324,94.02813738
4.420000000000001,442,-0.229,-0.779,0.039,14.037471,165.06919979999995,-9.969469199999999,90.77946552,-10.15854534,95.68971558
4.430000000000001,443,-0.201,-0.741,0.07,11.0007936,167.47562340000005,-10.0840608,90.57893022,-10.12989744,97.36848252
4.44,444,-0.174,-0.736,0.095,9.167328,169.309089,-9.3392154,90.34974702,-10.09551996,99.07016778
4.450000000000001,445,-0.163,-0.7609999999999999,0.118,8.880849000000003,170.91337140000005,-7.2765666,90.12056382,-10.07260164,100.78904178
4.460000000000001,446,-0.157,-0.795,0.142,9.224623800000002,172.80413280000005,-4.4117766,89.88565104,-10.07833122,102.52510452
4.470000000000001,447,-0.152,-0.828,0.14,9.568398599999998,173.892753,-1.432395,89.65646783999998,-10.10124954,104.26689684
4.48,448,-0.15,-0.847,0.134,9.797581800000001,173.20520340000004,1.4896908000000002,89.4387438,-10.15281576,106.00868916
4.49,449,-0.149,-0.8440000000000001,0.147,11.688343199999998,171.65821680000005,4.4117766,89.22674934,-10.22157072,107.73329274
4.500000000000001,450,-0.13699999999999998,-0.8220000000000001,0.153,12.7196676,170.1112302,6.4744254,89.03194361999998,-10.30751442,109.44643716
4.510000000000001,451,-0.115,-0.785,0.136,12.032117999999999,166.6161864,7.6776372,88.83140832000002,-10.39345812,111.11947452
4.5200000000000005,452,-0.08199999999999999,-0.741,0.134,11.172681,162.14711400000004,7.7349330000000025,88.62514344,-10.47940182,112.75240482
4.53,453,-0.035,-0.7190000000000001,0.16,12.032117999999999,159.1677324,5.7868758000000025,88.45325604000001,-10.53096804,114.35668722
4.540000000000001,454,-0.003,-0.726,0.18,14.7823164,157.276971,1.7761698,88.2928278,-10.5424272,115.9380513
4.550000000000001,455,0.025,-0.745,0.199,18.3919518,154.412181,-3.2658606,88.17250662000002,-10.50804972,117.49076748
4.5600000000000005,456,0.044,-0.759,0.21600000000000005,20.912967,149.37015060000004,-8.193299399999999,88.0922925,-10.41637644,118.99764702
4.57,457,0.053,-0.754,0.234,22.91832,141.74980920000004,-11.6310474,88.05218544,-10.29032568,120.41858286
4.580000000000001,458,0.061,-0.747,0.26,25.496631,133.499214,-13.464512999999998,88.08656292,-10.12416786,121.75930458
4.590000000000001,459,0.065,-0.742,0.274,25.6685184,128.5144794,-14.32395,88.10375166,-9.9694692,123.04846008
4.6000000000000005,460,0.066,-0.728,0.275,25.3820394,124.8475482,-14.8396122,88.12666998,-9.81477054,124.29750852
4.61,461,0.062,-0.737,0.28300000000000003,26.0122932,122.26923719999999,-15.6417534,88.16677704,-9.6543423,125.52363864000002
4.620000000000001,462,0.054000000000000006,-0.764,0.277,25.210152,119.6909262,-17.0741484,88.21261368,-9.47672532,126.72112086
4.630000000000001,463,0.045,-0.797,0.267,24.5798982,115.9094034,-18.907614000000002,88.28709822,-9.25900128,127.8842256
4.640000000000001,464,0.038,-0.845,0.261,24.350715,112.3570638,-21.0848544,88.33866443999996,-9.04700682,129.00722328
4.65,465,0.039,-0.902,0.248,24.5798982,110.12252759999998,-23.777757,88.40741940000002,-8.80636446,130.10157306000002
4.660000000000001,466,0.03,-0.965,0.22,24.064235999999998,104.851314,-24.2934192,88.47617436,-8.565722099999999,131.1500862
4.670000000000001,467,0.011,-1.001,0.215,23.6058696,95.1683238,-22.459953600000002,88.56211806,-8.34226848,132.0954669
4.680000000000001,468,-0.006999999999999999,-1.034,0.244,23.9496444,85.82910840000002,-19.1367972,88.70535756,-8.136003599999999,132.9549039
4.69,469,-0.006,-1.092,0.278,26.069589,80.2714158,-14.4385416,88.84859706,-7.9927641,133.75704509999997
4.700000000000001,470,0.003,-1.155,0.278,27.043617600000005,77.1201468,-9.568398599999998,89.00329572000004,-7.90109082,134.5305384
4.710000000000001,471,0.024,-1.203,0.29,28.991674800000002,74.65642740000001,-7.3911582,89.18664228,-7.838065440000001,135.2753838
4.720000000000001,472,0.051,-1.254,0.34,29.4500412,73.6823988,-8.880849000000003,89.37571842,-7.75785132,136.01449962
4.73,473,0.09,-1.285,0.394,27.2728008,76.89096359999998,-14.8396122,89.56479456,-7.59742308,136.78226334
4.740000000000001,474,0.14300000000000002,-1.296,0.381,25.8977016,80.7297822,-21.9442914,89.71376364,-7.39688778,137.59013412
4.750000000000001,475,0.161,-1.276,0.3670000000000001,27.215505,76.9482594,-28.991674800000002,89.87992145999998,-7.12186794,138.36362742
4.760000000000001,476,0.134,-1.218,0.424,30.65325300000001,66.11935319999999,-33.2888598,90.10337508,-6.80674104,139.02252912
4.7700000000000005,477,0.069,-1.106,0.516,37.1849742,50.993262,-32.7159018,90.4127724,-6.497343719999999,139.53819131999998
4.780000000000001,478,-0.02,-1.011,0.564,48.3003594,39.9924684,-28.81978740000001,90.91124586,-6.2165943,139.95072108
4.790000000000001,479,-0.112,-1.038,0.48,64.0567044,45.6647526,-24.923673,91.50712218,-5.98168152,140.41481706000002
4.800000000000001,480,-0.017,-1.616,-0.085,79.354683,86.8604328,-19.7097552,92.21186052,-5.83271244,141.2914428
4.8100000000000005,481,0.021,-2.474,0.102,52.19647379999999,62.3378304,-1.2032118,92.67022692,-5.861360339999999,141.91596701999995
4.82,482,0.285,-2.256,0.026,21.772404,70.24465079999999,14.266654199999998,92.80773684,-6.05616606,142.60924619999997
4.830000000000001,483,0.655,-1.682,-0.006,35.0077338,86.7458412,16.673077799999998,93.05983836,-6.26243094,143.4686832
4.840000000000001,484,0.461,-1.338,-0.152,30.366774000000003,83.5945722,6.016058999999999,93.26610324,-6.3884817000000025,144.29374272
4.8500000000000005,485,0.219,-0.951,-0.163,-4.4690724,73.96887779999999,-10.0840608,93.12286374,-6.348374640000001,145.03285853999995
4.86,486,0.08900000000000001,-0.716,-0.12,-12.0894138,59.0719698,-18.1054728,92.92805802,-6.2165943,145.62873486
4.870000000000001,487,-0.116,-0.746,-0.138,-15.2979786,54.8320806,-21.6005166,92.7046044,-6.0447069,146.18450412
4.880000000000001,488,-0.29100000000000004,-0.989,-0.084,-2.8074942000000003,54.8320806,-15.2979786,92.59574238000002,-5.97595194,146.72881422
4.890000000000001,489,-0.355,-1.269,0.042,6.589017,54.4883058,-2.8074942000000003,92.60147196,-5.98168152,147.27312432000005
4.9,490,-0.28600000000000003,-1.368,0.105,6.9327918,65.2599162,2.7501984,92.5900128,-6.05616606,147.92056686
4.910000000000001,491,-0.166,-1.221,0.062,-3.4950437999999995,75.2866812,-4.1825934,92.46969162,-6.0733548000000015,148.66541225999995
4.920000000000001,492,-0.07,-1.033,-0.01,-7.6776372,73.96887779999999,-15.0687954,92.3035338,-5.97022236,149.40452808
4.930000000000001,493,0.006,-0.945,0.0,-2.6356068,67.26526919999999,-24.2934192,92.1889422,-5.75249832,150.08634809999995
4.94,494,0.075,-0.919,0.033,2.8074942000000003,58.2125328,-29.1635622,92.15456472,-5.5003968,150.67649483999998
4.950000000000001,495,0.125,-0.887,0.052000000000000005,4.4117766,52.3110654,-29.793816,92.13737598,-5.23683612,151.20361619999997
4.960000000000001,496,0.147,-0.8220000000000001,0.08900000000000001,4.6409598,47.9565846,-28.304125199999998,92.13737598,-4.9847346,151.6906305
4.970000000000001,497,0.152,-0.7490000000000001,0.106,4.297185,46.00852740000001,-26.1268848,92.1316464,-4.7555514,152.16045606
4.98,498,0.154,-0.6729999999999999,0.114,2.86479,45.9512316,-23.9496444,92.1316464,-4.50917946,152.63028162
4.990000000000001,499,0.153,-0.605,0.109,1.145916,46.352302200000004,-21.829699800000004,92.1029985,-4.320103319999999,153.09437759999997
5.000000000000001,500,0.155,-0.564,0.091,-0.11459160000000004,46.8106686,-20.168121600000006,92.05716186,-4.14821592,153.56993274
5.010000000000001,501,0.161,-0.55,0.073,-0.2291832000000001,46.2377106,-18.9649098,92.0170548,-3.98778768,154.03402871999995
5.0200000000000005,502,0.173,-0.5720000000000001,0.063,0.6302538000000001,44.8626114,-18.7357266,91.9884069,-3.83308902,154.48666554000005
5.030000000000001,503,0.189,-0.622,0.051,0.4583664000000001,43.544808,-18.9649098,91.959759,-3.62109456,154.92784319999996
5.040000000000001,504,0.222,-0.6779999999999999,0.038,-1.7761698,40.90920120000001,-18.8503182,91.90819278,-3.45493674,155.34037296
5.050000000000001,505,0.245,-0.7240000000000001,0.036000000000000004,-4.5263682,35.9817624,-17.589810600000003,91.83943782,-3.3059676599999994,155.7013365
5.0600000000000005,506,0.256,-0.747,0.039,-8.7662574,28.5333084,-15.2979786,91.72484622,-3.16845774,155.9878155
5.070000000000001,507,0.266,-0.755,0.038,-11.745639,19.308684600000007,-11.8029348,91.59306588,-3.0653253000000005,156.17689163999995
5.080000000000001,508,0.262,-0.77,0.038,-15.4125702,10.7143146,-7.1046792000000005,91.43263764,-2.87624916,156.29721282
5.090000000000001,509,0.258,-0.779,0.043,-16.8449652,4.297185,-1.432395,91.25502066,-2.86479,156.33731988000005
5.1000000000000005,510,0.258,-0.812,0.052000000000000005,-15.126091199999998,-0.6302538000000001,3.6096354,91.10605158,-2.89916748,156.33159030000004
5.110000000000001,511,0.256,-0.8640000000000001,0.07,-11.9748222,-4.6409598,6.5317212,90.9857304,-2.96219286,156.28002408
5.120000000000001,512,0.252,-0.939,0.104,-10.255948199999999,-7.448453999999999,7.6203414,90.88259796,-3.0366774000000003,156.20553954000005
5.130000000000001,513,0.236,-0.996,0.147,-10.599723,-11.2872726,7.448453999999999,90.85395006,-2.96219286,156.11386626
5.140000000000001,514,0.209,-1.032,0.198,-11.688343199999998,-17.8762896,7.0473834,90.74508804,-3.02521824,155.9305197
5.15,515,0.183,-1.046,0.238,-11.172681,-26.356068,6.9327918,90.64768518,-3.0825140400000004,155.66695902
5.160000000000001,516,0.173,-1.053,0.268,-6.589017,-34.2055926,7.161975,90.60184854,-3.14553942,155.32891379999995
5.170000000000001,517,0.171,-1.06,0.316,-0.4583664000000001,-39.0757356,7.3911582,90.62476686,-3.20283522,154.93930236
5.180000000000001,518,0.198,-1.0590000000000002,0.385,4.1252976000000015,-43.20103320000001,8.7089616,90.77373594,-3.22002396,154.52677260000004
5.19,519,0.215,-1.11,0.444,12.6623718,-50.5921914,9.6829902,90.93989376,-3.2945085,154.02829914
5.200000000000001,520,0.232,-1.211,0.405,12.2040054,-53.628868800000006,9.224623800000002,91.100322,-3.35753388,153.4954482
5.210000000000001,521,0.23,-1.289,0.395,12.5477802,-49.04520479999999,8.59437,91.26647982,-3.42055926,153.00843390000003
5.220000000000001,522,0.175,-1.319,0.386,11.688343199999998,-40.33624320000001,6.990087599999999,91.4154489,-3.4663959,152.6073633
5.23,523,0.084,-1.32,0.425,12.834259199999998,-33.002380800000005,4.3544808,91.60452504,-3.47785506,152.29223639999995
5.240000000000001,524,-0.026,-1.2919999999999998,0.5379999999999999,12.2040054,-24.8663772,1.6042823999999998,91.74776454000002,-3.47785506,152.04586446
5.250000000000001,525,-0.125,-1.187,0.6679999999999999,7.6203414,-15.0687954,1.5469866,91.83943782,-3.48931422,151.89689538
5.260000000000001,526,-0.18600000000000005,-1.022,0.718,5.443101,-3.380452200000001,5.0993262,91.89673362,-3.5351508600000003,151.8625179
5.2700000000000005,527,-0.146,-0.872,0.601,14.4385416,5.5576926,11.2872726,92.03997312,-3.64974246,151.91408412
5.280000000000001,528,-0.05,-0.8809999999999999,-0.093,46.065823200000004,-14.152062599999999,19.480572,92.45823246,-3.83308902,151.76511504
5.290000000000001,529,-0.223,-1.331,-0.107,51.56622,-66.9787902,14.495837400000001,93.03119046,-3.9190327200000006,151.10048376
5.300000000000001,530,-0.334,-1.912,0.2,-5.958763200000001,-23.835052800000003,-13.0634424,92.99108340000001,-3.77579322,150.87130056
5.3100000000000005,531,-0.246,-1.855,-0.239,-15.0114996,1.8334656000000005,-39.7632852,92.83638474,-3.380452200000001,150.91140762
5.320000000000001,532,-0.436,-1.6230000000000002,0.079,23.032911600000002,-2.1772404,-55.00396800000001,93.06556794,-2.83041252,150.91713719999996
5.330000000000001,533,-0.452,-1.47,-0.08199999999999999,24.5798982,22.0015872,-56.8374336,93.28329198,-2.30329116,151.16923872
5.340000000000001,534,-0.152,-1.162,-0.349,1.4896908000000002,40.737313799999995,-46.9252602,93.27756240000001,-1.86784308,151.59895722
5.3500000000000005,535,0.022,-0.8170000000000001,-0.099,-3.2085648,42.1697088,-28.7051958,93.22599618,-1.62147114,152.02867572
5.360000000000001,536,0.09,-0.7709999999999999,-0.305,-7.5057497999999985,44.34694920000001,-9.969469199999999,93.12859332,-1.55844576,152.46985338
5.370000000000001,537,0.135,-0.883,-0.281,-0.7448454000000001,49.04520479999999,3.2085648,93.09994542,-1.6329303,152.9511381
5.380000000000001,538,0.196,-1.164,-0.14,10.886202,51.9672906,1.432395,93.1629708,-1.6558486199999998,153.4668003
5.390000000000001,539,0.232,-1.422,-0.085,15.3552744,51.4516284,-6.589017,93.30048072,-1.6329303,153.97673292
5.400000000000001,540,0.266,-1.492,-0.026,14.152062599999999,50.0192334,-13.0061466,93.4208019,-1.5412570200000002,154.48093595999995
5.410000000000001,541,0.244,-1.28,-0.012,13.407217200000002,48.529542600000006,-12.7769634,93.5353935,-1.4610428999999998,154.96795026
5.420000000000001,542,0.187,-1.068,-0.031,16.7876694,46.753372799999994,-7.9641161999999985,93.69009216,-1.4209358399999998,155.43777582
5.430000000000001,543,0.127,-0.968,-0.022,20.912967,45.550161,-2.8074942000000003,93.85624998,-1.39801752,155.88468306
5.440000000000001,544,0.056,-0.912,-0.006,23.4339822,44.1750618,0.9167328,94.0797036,-1.44958374,156.32586071999995
5.450000000000001,545,0.008,-0.86,0.005,24.1788276,43.4302164,3.8961144,94.3088868,-1.52979786,156.74984964
5.460000000000001,546,-0.021,-0.7959999999999999,0.01,21.7151082,43.831287,4.6409598,94.5094221,-1.6157415599999996,157.17956814
5.470000000000001,547,-0.054000000000000006,-0.731,0.013,18.162768600000003,42.91455420000001,3.724227,94.67557992,-1.6959556799999995,157.60355706
5.48,548,-0.092,-0.667,0.029,13.407217200000002,40.90920120000001,2.1199446,94.79017152,-1.78189938,158.00462766
5.490000000000001,549,-0.119,-0.624,0.039,9.167328,37.757932200000006,0.6875496,94.86465606,-1.82773602,158.37132078
5.500000000000001,550,-0.14400000000000002,-0.5920000000000001,0.05,5.5576926,33.1742682,0.3437748,94.90476312,-1.86784308,158.69790684
5.510000000000001,551,-0.166,-0.561,0.059,4.010706000000001,27.9603504,1.0886202,94.93341102,-1.91367972,158.97292668
5.5200000000000005,552,-0.187,-0.55,0.055,4.010706000000001,24.0069402,2.6356068,94.96205892,-1.96524594,159.20783946
5.530000000000001,553,-0.196,-0.5539999999999999,0.05,4.1825934,22.2307704,5.1566220000000005,94.9964364,-2.07983754,159.41983392000003
5.540000000000001,554,-0.197,-0.5660000000000001,0.052000000000000005,1.8907613999999997,24.9809688,6.703608600000001,95.00216598,-2.1772404,159.66047627999995
5.550000000000001,555,-0.188,-0.574,0.032,-0.5156622000000001,30.080295,6.9327918,94.97924766,-2.28037284,159.95268486
5.5600000000000005,556,-0.168,-0.5870000000000001,0.025,-0.057295800000000015,35.17962120000001,6.3598338,94.96205892,-2.38350528,160.29073008
5.570000000000001,557,-0.158,-0.6,0.038,0.4010706,39.6486936,4.4690724,94.94487018,-2.46944898,160.67461194
5.580000000000001,558,-0.119,-0.62,0.068,2.1772404,42.112413,0.6302538000000001,94.95059976,-2.54393352,161.0871417
5.590000000000001,559,-0.102,-0.638,0.108,2.4637194,42.7999626,-3.6096354,94.95059976,-2.55539268,161.5168602
5.6000000000000005,560,-0.084,-0.675,0.16399999999999998,6.1879464,41.4248634,-6.9327918,94.98497724,-2.53247436,161.92938996
5.610000000000001,561,-0.08199999999999999,-0.722,0.211,9.6256944,38.8465524,-9.1100322,95.06519136,-2.48663772,162.3190014
5.620000000000001,562,-0.076,-0.768,0.227,13.464512999999998,39.3049188,-10.313244,95.17978295999998,-2.42934192,162.720072
5.630000000000001,563,-0.108,-0.813,0.234,18.621135,42.1697088,-12.5477802,95.37458868,-2.36631654,163.14979050000005
5.640000000000001,564,-0.142,-0.872,0.269,22.8037284,45.8939358,-15.4125702,95.58085356,-2.26891368,163.61961606
5.650000000000001,565,-0.211,-0.9,0.32,24.0069402,49.90464179999999,-18.5065434,95.7985776,-2.1485925000000003,164.12954868
5.660000000000001,566,-0.22,-0.8809999999999999,0.34,23.835052800000003,53.858052,-19.938938399999998,96.01630164,-2.01681216,164.68531793999998
5.670000000000001,567,-0.211,-0.875,0.384,21.829699800000004,56.8947294,-19.595163600000006,96.21110736,-1.90222056,165.26400552
5.680000000000001,568,-0.174,-0.882,0.406,19.194093,58.78549079999999,-18.7930224,96.4288314,-1.81627686,165.871341
5.690000000000001,569,-0.103,-0.954,0.416,20.2254174,60.2751816,-18.3919518,96.60644838,-1.7188740000000002,166.49013564
5.700000000000001,570,-0.046,-1.034,0.44,24.064235999999998,59.64492779999999,-18.9649098,96.82417242,-1.6157415599999996,167.09747112
5.710000000000001,571,0.037000000000000005,-1.122,0.4270000000000001,23.4339822,53.9153478,-17.7044022,97.04189646,-1.5183387000000002,167.64751080000005
5.720000000000001,572,0.097,-1.137,0.35700000000000004,23.6058696,41.0810886,-13.2353298,97.26535008,-1.44958374,168.07149972
5.730000000000001,573,0.145,-1.139,0.322,26.41336380000001,24.0069402,-7.2192707999999985,97.55755866,-1.36364004,168.32360124
5.740000000000001,574,0.202,-1.105,0.37,34.0337052,9.3392154,-1.4896908000000002,97.90133346,-1.36364004,168.4210041
5.750000000000001,575,0.203,-1.041,0.462,43.258329,1.2032118,1.3750992,98.33678154,-1.3750992,168.43819284
5.760000000000001,576,0.06,-0.995,0.5529999999999999,46.4668938,-5.5003968,-0.3437748,98.81233668,-1.3579104599999998,168.3923562
5.770000000000001,577,-0.147,-1.027,0.408,44.6334282,6.016058999999999,-5.443101,99.2649735,-1.3178034,168.46111116
5.780000000000001,578,-0.18,-1.382,0.058,46.2377106,70.76031300000002,-5.5576926,99.70042158,-1.39801752,169.16584949999995
5.790000000000001,579,-0.211,-2.066,0.055,10.9434978,78.7244292,2.3491278,99.7806357,-1.5756344999999998,169.92788364
5.800000000000001,580,0.028,-2.3680000000000003,-0.023,-8.651665800000002,68.6976642,33.116972399999995,99.6660441,-2.0340008999999997,170.53521912
5.8100000000000005,581,0.478,-2.251,-0.091,26.0122932,74.48454,62.3378304,99.89522729999999,-2.78457588,171.15401376
5.820000000000001,582,0.728,-1.956,-0.371,40.164355799999996,68.8122558,65.3745078,100.26765,-3.5580691799999995,171.70978302
5.830000000000001,583,0.464,-1.338,-0.308,10.026765,36.955791,55.5196302,100.26192042,-4.10810886,171.96188454
5.840000000000001,584,0.019,-0.8270000000000001,-0.13,3.0366774,1.6615782,37.24227,100.29629789999998,-4.4748019800000005,171.91031832000004
5.8500000000000005,585,-0.159,-0.907,0.042,-0.572958,-12.1467096,13.178034,100.30202748,-4.57793442,171.76707882
5.860000000000001,586,-0.215,-1.17,0.077,-7.0473834,-14.8396122,2.2345362,100.24473168,-4.56647526,171.61810974
5.870000000000001,587,-0.253,-1.486,0.136,-4.1252976000000015,-14.037471,-3.380452200000001,100.21608378,-4.50917946,171.4863294
5.880000000000001,588,-0.257,-1.6,0.259,3.6096354,-9.453807000000001,-6.760904399999999,100.25619084000002,-4.42896534,171.40611528
5.890000000000001,589,-0.221,-1.4380000000000002,0.282,5.443101,-0.8594370000000001,-9.740286,100.31348664,-4.3315624800000005,171.41757444
5.900000000000001,590,-0.162,-1.227,0.19,5.2712136,1.0313244,-8.9954406,100.36505286,-4.24561878,171.44622234
5.910000000000001,591,-0.086,-1.109,0.122,7.448453999999999,-3.8388186,-6.3025379999999975,100.44526698,-4.17113424,171.41757444
5.920000000000001,592,0.013,-1.013,0.126,10.026765,-8.136003599999999,-6.3025379999999975,100.54839942,-4.0966497,171.35454906
5.930000000000001,593,0.098,-0.927,0.134,12.3758928,-9.3965112,-8.5370742,100.65726144,-3.89038482,171.28006452
5.940000000000001,594,0.138,-0.838,0.15,11.6310474,-9.453807000000001,-10.4851314,100.77758262,-3.77006364,171.20557997999995
5.950000000000001,595,0.156,-0.745,0.16699999999999998,10.026765,-9.3965112,-12.032117999999999,100.88644464,-3.63255372,171.14255459999995
5.960000000000001,596,0.17,-0.665,0.182,8.021412000000002,-8.9954406,-13.6364004,100.97238834,-3.47785506,171.07952922
5.970000000000001,597,0.183,-0.622,0.18,6.2452422,-9.2819196,-14.4385416,101.04114330000002,-3.31742682,171.01650383999996
5.980000000000001,598,0.2,-0.59,0.165,4.010706000000001,-10.255948199999999,-14.7250206,101.09270952,-3.0825140400000004,170.95347846
5.990000000000001,599,0.218,-0.584,0.142,2.1199446,-12.6623718,-15.0687954,101.12135742,-2.91062664,170.86180518
6.000000000000001,600,0.217,-0.604,0.133,0.0,-17.0168526,-14.7250206,101.13281658,-2.72728008,170.72429526000005
6.010000000000001,601,0.201,-0.622,0.127,-4.6982556,-24.7517856,-13.8082878,101.0984391,-2.54393352,170.51230080000005
6.020000000000001,602,0.183,-0.621,0.108,-8.7662574,-33.403451399999994,-11.917526400000002,101.02395456,-2.35485738,170.20863306
6.030000000000001,603,0.14800000000000002,-0.634,0.123,-12.9488508,-41.1383844,-8.880849000000003,100.90936295999998,-2.14286292,169.83048078
6.040000000000001,604,0.134,-0.63,0.133,-22.91832,-46.6387812,-5.042030400000002,100.70309808,-1.99962342,169.38357354
6.050000000000001,605,0.105,-0.598,0.105,-26.4706596,-51.4516284,-0.8021411999999999,100.45672614,-1.88503182,168.88510007999997
6.060000000000001,606,0.104,-0.617,0.14,-24.923673,-56.0352924,3.380452200000001,100.22754294,-1.8048176999999999,168.3350604
6.070000000000001,607,0.094,-0.643,0.162,-26.298772200000002,-59.1292656,8.307891,99.98690058,-1.77044022,167.74491366
6.080000000000001,608,0.087,-0.688,0.14300000000000002,-26.8717302,-60.9627312,11.745639,99.74052864,-1.74179232,167.12611902
6.090000000000001,609,0.1,-0.753,0.147,-24.5798982,-62.96808420000001,15.3552744,99.5228046,-1.7761698,166.49013564
6.1000000000000005,610,0.121,-0.7959999999999999,0.153,-24.694489800000003,-62.9107884,18.334656,99.29935098,-1.83919518,165.8426931
6.110000000000001,611,0.13,-0.8109999999999999,0.182,-23.491278,-62.738901,19.595163600000006,99.0930861,-1.91367972,165.20098014
6.120000000000001,612,0.095,-0.805,0.22,-21.0848544,-63.88481700000001,20.511896399999998,98.90973954,-1.99962342,164.54207844
6.130000000000001,613,0.054000000000000006,-0.8079999999999999,0.272,-15.3552744,-68.2965936,21.0848544,98.81233668,-2.07410796,163.84879926000005
6.140000000000001,614,-0.016,-0.8340000000000001,0.353,-10.6570188,-72.76566600000002,22.2307704,98.74358172,-2.1657812400000003,163.10395386
6.150000000000001,615,-0.124,-0.833,0.398,-6.3598338,-74.1407652,23.376686399999997,98.7206634,-2.2631841,162.3476493
6.160000000000001,616,-0.18600000000000005,-0.905,0.434,2.9793816000000004,-72.30729960000002,22.8037284,98.78941836,-2.36058696,161.60853348
6.170000000000001,617,-0.215,-0.99,0.445,9.453807000000001,-67.43715660000001,18.449247600000003,98.9211987,-2.41788276,160.92671346
6.180000000000001,618,-0.231,-1.0759999999999998,0.477,15.469866,-53.456981400000004,11.4018642,99.1503819,-2.45798982,160.39386252
6.190000000000001,619,-0.235,-1.169,0.495,19.194093,-32.544014399999995,4.0680017999999984,99.36237636,-2.4350715000000003,160.07300604
6.200000000000001,620,-0.248,-1.195,0.481,20.912967,-10.1413566,-1.2032118,99.5801004,-2.4064236,159.98133276000004
6.210000000000001,621,-0.278,-1.159,0.522,26.41336380000001,7.6203414,-2.86479,99.84366108,-2.38923486,160.06154687999995
6.220000000000001,622,-0.259,-1.073,0.569,29.8511118,14.7823164,0.286479,100.14159924,-2.41788276,160.21051596
6.230000000000001,623,-0.125,-0.962,0.502,23.8923486,12.7196676,7.1046792000000005,100.45099656,-2.51528562,160.33656672
6.240000000000001,624,0.07,-0.946,0.07,30.252182399999995,-11.6310474,13.464512999999998,100.76612346,-2.62414764,160.20478638
6.250000000000001,625,0.045,-1.266,-0.015,50.1911208,-80.1568242,13.407217200000002,101.32189272,-2.5783110000000002,159.40837476
6.260000000000001,626,-0.106,-1.79,0.424,21.6578124,-79.92764100000002,-1.6615782,101.59118298,-2.3777757,158.64634062
6.270000000000001,627,-0.14800000000000002,-1.98,-0.07,-0.572958,-56.8374336,-36.38283300000001,101.60837172,-1.89649098,158.17078548
6.280000000000001,628,-0.438,-1.906,-0.085,37.52874900000001,-49.7900502,-63.1972674,101.99798316,-1.1745638999999999,157.82701068
6.290000000000001,629,-0.4970000000000001,-1.807,-0.092,41.4248634,-22.1161788,-68.8122558,102.42197208,-0.4526368200000001,157.7639853
6.300000000000001,630,-0.232,-1.3430000000000002,-0.264,-1.4896908000000002,0.057295800000000015,-61.5356892,102.40478334000002,0.13750992,157.90149522000004
6.310000000000001,631,0.014,-0.985,-0.033,-12.6623718,15.4125702,-44.690724,102.273003,0.53285094,158.14213758
6.320000000000001,632,0.211,-0.94,-0.046,-14.5531332,25.2674478,-21.7151082,102.12403392000002,0.68182002,158.42861657999995
6.330000000000001,633,0.188,-0.95,-0.024,-17.3606274,26.356068,-9.5111028,101.8719324,0.76776372,158.68644768
6.340000000000001,634,0.087,-1.0759999999999998,0.036000000000000004,-12.4904844,30.080295,-8.250595200000001,101.74588164,0.7792228800000001,158.99011542
6.350000000000001,635,0.039,-1.3130000000000002,0.07,-7.5057497999999985,35.0077338,-13.120738199999998,101.66566752,0.8250595199999999,159.35107896
6.360000000000001,636,0.043,-1.483,0.136,-1.2032118,34.2055926,-15.527161800000002,101.65420836,0.89954406,159.7120425
6.370000000000001,637,0.041,-1.496,0.18,6.3025379999999975,29.5646328,-10.886202,101.72296332,0.93965112,160.02143982
6.380000000000001,638,0.014,-1.369,0.15,4.8128472,28.5906042,-4.4117766,101.74588164,0.9167328000000001,160.29645966
6.3900000000000015,639,-0.038,-1.182,0.125,2.8074942000000003,32.945085,-0.8594370000000001,101.77452954000002,0.8479778399999999,160.61731614
6.400000000000001,640,-0.099,-1.022,0.124,3.6669312000000014,37.3568616,0.4583664000000001,101.80890702,0.75630456,160.97827968
6.410000000000001,641,-0.125,-0.923,0.14300000000000002,5.72958,37.9871154,1.5469866,101.86620282,0.65317212,161.33924322
6.420000000000001,642,-0.14,-0.86,0.166,7.5057497999999985,33.5753388,1.145916,101.94068736,0.56722842,161.6600997
6.430000000000001,643,-0.161,-0.823,0.173,6.1879464,29.1062664,-0.9740286,101.99225357999998,0.43544808,161.93511954000004
6.440000000000001,644,-0.188,-0.789,0.145,2.9220857999999996,28.2468294,-3.724227,102.02090148,0.40680018,162.21586896000005
6.450000000000001,645,-0.219,-0.758,0.125,1.7188740000000002,30.9970278,-6.130650599999999,102.03809022,0.38961144,162.53099586000005
6.460000000000001,646,-0.254,-0.733,0.133,1.2032118,36.096354,-8.136003599999999,102.04954938,0.38961144,162.8919594
6.470000000000001,647,-0.285,-0.713,0.146,0.6302538000000001,42.685371,-9.453807000000001,102.04954938,0.37815228,163.3216779
6.480000000000001,648,-0.305,-0.7020000000000001,0.162,-0.286479,49.274388,-9.1100322,102.0438198,0.27501984,163.81442178
6.490000000000001,649,-0.301,-0.705,0.16899999999999998,-2.1199446,57.58227899999999,-7.5057497999999985,102.0151719,0.21199446,164.38165020000002
6.500000000000001,650,-0.266,-0.716,0.17,-2.5210152000000003,64.5723666,-6.0733548,101.986524,0.12032118,165.01190400000004
6.510000000000001,651,-0.202,-0.7190000000000001,0.171,-4.7555514,71.2759752,-5.6149884000000005,101.9292282,0.01145916,165.71091276
6.520000000000001,652,-0.125,-0.6920000000000001,0.165,-5.7868758000000025,76.2607098,-6.9327918,101.86047324,-0.09167328,166.45575816000004
6.530000000000001,653,-0.073,-0.662,0.153,-8.136003599999999,78.7244292,-9.5111028,101.76307038,-0.18907614,167.23498104
6.540000000000001,654,-0.054000000000000006,-0.611,0.155,-4.1825934,77.46392159999998,-11.5737516,101.70577458,-0.25210152,168.00274475999996
6.550000000000001,655,-0.064,-0.591,0.185,-3.6096354,74.3699484,-13.980175199999998,101.65420836,-0.28647900000000004,168.74186058
6.560000000000001,656,-0.075,-0.599,0.197,-2.9220857999999996,71.8489332,-16.272007199999994,101.60837172,-0.29220857999999994,169.46951724000004
6.570000000000001,657,-0.08199999999999999,-0.616,0.209,-2.1772404,69.2706222,-19.308684600000007,101.57399424000002,-0.25783110000000004,170.17425558
6.580000000000001,658,-0.101,-0.66,0.21600000000000005,-3.0939732,65.89017,-23.7204612,101.53961676000002,-0.19480572,170.8560756
6.590000000000001,659,-0.123,-0.71,0.219,-3.151269,63.59833800000001,-28.991674800000002,101.4995097,-0.057295800000000015,171.52643646
6.600000000000001,660,-0.159,-0.758,0.224,-3.8961144,63.7129296,-34.4920716,101.44794348,0.13178034,172.20825648
6.610000000000001,661,-0.183,-0.795,0.237,-3.9534102,68.182002,-39.19032720000001,101.40210684,0.36096354,172.94737229999996
6.620000000000001,662,-0.2,-0.82,0.25,-5.6722842,77.23473840000003,-43.4302164,101.33908146000002,0.61306506,173.77243182
6.630000000000001,663,-0.219,-0.851,0.27,-9.224623800000002,88.8657858,-47.2117392,101.25886734,0.8422482600000001,174.72354209999997
6.6400000000000015,664,-0.21600000000000005,-0.872,0.297,-11.172681,98.3768886,-47.269034999999995,101.15000532,1.0886202,175.76632566
6.650000000000001,665,-0.182,-0.882,0.311,-9.8548776,104.9659056,-43.3729206,101.05833204,1.28342592,176.86067544
6.660000000000001,666,-0.14,-0.944,0.319,-6.130650599999999,102.5021862,-37.9298196,101.00676582,1.432395,177.92064774
6.670000000000001,667,-0.036000000000000004,-1.04,0.28300000000000003,2.9793816000000004,92.4754212,-29.8511118,101.04687288,1.52406828,178.87175802000004
6.6800000000000015,668,0.114,-1.162,0.231,14.667724800000002,72.5364828,-19.480572,101.20157154,1.56990492,179.61087384
6.690000000000001,669,0.199,-1.274,0.247,21.5432208,51.4516284,-8.193299399999999,101.43075474,1.53552744,-179.86870494
6.700000000000001,670,0.235,-1.255,0.267,16.272007199999994,42.398892,1.0886202,101.59691256,1.432395,-179.45617518
6.710000000000001,671,0.181,-1.127,0.318,6.3025379999999975,43.1437374,6.2452422,101.66566752,1.27196676,-179.05510458
6.7200000000000015,672,0.006,-0.999,0.388,0.7448454000000001,47.1544434,7.2192707999999985,101.67712668,1.09434978,-178.61392691999995
6.730000000000001,673,-0.213,-0.927,0.485,0.2291832000000001,54.43101,3.2658606,101.76879996,0.8594370000000001,-178.07534640000003
6.740000000000001,674,-0.377,-0.895,0.5870000000000001,3.380452200000001,64.97343719999999,-2.578311,101.80317744,0.7391158200000001,-177.4450926
6.750000000000001,675,-0.368,-0.98,0.56,-8.078707799999998,105.19508880000001,-9.8548776,101.71723374,0.59014674,-176.4137682
6.760000000000001,676,-0.075,-1.185,0.362,-26.7571386,158.36559119999995,-13.464512999999998,101.43648432,0.36669312,-174.8667816
6.770000000000001,677,0.272,-1.733,0.213,-0.8594370000000001,170.97066719999995,-0.6875496,101.413566,0.0,-173.21666255999997
6.780000000000001,678,0.487,-2.724,0.097,52.54024860000001,96.3142398,47.2117392,101.9292282,-0.67609044,-172.38014388
6.790000000000001,679,0.583,-2.817,-0.004,38.10170700000001,35.2942128,99.4655088,102.30738048,-1.7188740000000002,-172.24836354
6.800000000000001,680,0.621,-1.475,-0.69,-16.558486199999994,64.8015498,90.527364,102.11830434,-2.7501984,-171.81864504
6.810000000000001,681,0.244,-0.8640000000000001,-0.015,9.797581800000001,78.1514712,63.02538000000001,102.17560014,-3.54661002,-171.1998504
6.820000000000001,682,0.006999999999999999,-0.841,0.174,22.173474600000002,78.89631659999998,31.971056400000002,102.34175796,-4.0393539,-170.50657122
6.830000000000001,683,-0.062,-0.863,0.209,1.3750992,93.0483792,-4.1252976000000015,102.27873258,-4.22270046,-169.60129758
6.840000000000001,684,-0.058,-0.77,0.229,-31.79916900000001,105.7680468,-29.2781538,101.86620282,-4.1883229800000015,-168.52413654
6.850000000000001,685,-0.161,-0.77,0.174,-38.38818600000001,103.13244,-39.534102,101.3849181,-4.0393539,-167.45270508
6.860000000000001,686,-0.246,-0.951,0.094,-35.9817624,91.4440968,-34.950438,100.93801086,-3.896114400000001,-166.50732438
6.870000000000001,687,-0.318,-1.193,0.115,-33.4607472,74.3699484,-16.558486199999994,100.53694026,-3.896114400000001,-165.76247898000003
6.880000000000001,688,-0.267,-1.33,0.2,-30.3094782,65.7755784,4.6982556,100.17597672,-4.08519054,-165.13222518
6.8900000000000015,689,-0.068,-1.273,0.255,-22.631841,69.72898860000001,6.589017,99.88949772,-4.29145542,-164.47332348
6.900000000000001,690,0.07400000000000001,-1.162,0.218,-18.6784308,76.31800559999998,-3.6669312000000014,99.63166662,-4.40604702,-163.72847808
6.910000000000001,691,0.122,-1.028,0.2,-16.673077799999998,81.64651500000002,-15.6990492,99.39102426,-4.40604702,-162.90914814
6.920000000000001,692,0.15,-0.888,0.218,-14.381245800000002,88.23553199999998,-25.55392680000001,99.16184106,-4.320103319999999,-162.00960408
6.9300000000000015,693,0.194,-0.757,0.219,-14.266654199999998,96.7153104,-31.79916900000001,98.94411702,-4.14821592,-161.01838674
6.940000000000001,694,0.245,-0.642,0.198,-14.9542038,105.4815678,-33.0596766,98.69774508,-4.01643558,-159.9412257
6.950000000000001,695,0.272,-0.5670000000000001,0.17,-14.0947668,111.0965562,-31.22621100000001,98.4628323,-3.90184398,-158.81249843999996
6.960000000000001,696,0.27,-0.551,0.141,-10.6570188,112.3570638,-27.8457588,98.262297,-3.82162986,-157.6780416
6.9700000000000015,697,0.246,-0.598,0.138,-6.8182002000000015,110.0652318,-24.8090814,98.10186876,-3.76433406,-156.56650308000005
6.980000000000001,698,0.233,-0.664,0.151,-6.9327918,106.5128922,-21.9442914,97.95289968,-3.68411994,-155.50080119999996
6.990000000000001,699,0.2,-0.731,0.15,-3.6669312000000014,101.3562702,-19.938938399999998,97.8325785,-3.65547204,-154.48093595999995
7.000000000000001,700,0.182,-0.825,0.166,-3.3231564,94.824549,-17.9335854,97.72371648,-3.63255372,-153.52982568
7.010000000000002,701,0.17,-0.867,0.146,-6.589017,85.25615040000002,-15.9282324,97.59193614,-3.6096353999999997,-152.67611826
7.020000000000001,702,0.16699999999999998,-0.87,0.142,-7.906820400000001,73.79699040000001,-13.980175199999998,97.45442622,-3.58671708,-151.93700244
7.030000000000001,703,0.16699999999999998,-0.866,0.157,-9.8548776,63.7129296,-13.178034,97.31691629999999,-3.50077338,-151.30101906
7.040000000000001,704,0.184,-0.855,0.183,-6.589017,55.3477428,-10.599723,97.20805428,-3.48358464,-150.74524979999995
7.050000000000001,705,0.201,-0.8590000000000001,0.205,-4.7555514,49.274388,-7.8495246,97.12211058,-3.47785506,-150.25250592
7.060000000000001,706,0.198,-0.8440000000000001,0.21600000000000005,-1.8907613999999997,45.6647526,-5.2712136,97.07054436,-3.4950437999999995,-149.7998691
7.070000000000001,707,0.2,-0.8290000000000001,0.214,3.151269,42.112413,-3.151269,97.07054436,-3.52942128,-149.38160976
7.080000000000001,708,0.183,-0.8220000000000001,0.217,5.72958,38.27359439999999,-0.9740286,97.13356974,-3.48358464,-149.01491664
7.090000000000001,709,0.173,-0.812,0.22,7.2765666,36.096354,2.4637194,97.18513596,-3.5580691799999995,-148.65968268
7.100000000000001,710,0.18,-0.82,0.23,8.880849000000003,36.2109456,7.6203414,97.24816134,-3.68984952,-148.31590788
7.110000000000001,711,0.17800000000000002,-0.847,0.208,10.8289062,37.81522800000001,13.9228794,97.32837546,-3.88465524,-147.96067392
7.120000000000001,712,0.153,-0.901,0.146,14.896907999999998,40.5081306,21.772404,97.44869664,-4.15967508,-147.59398080000003
7.130000000000001,713,0.11,-0.956,0.078,17.3606274,39.534102,28.074942,97.5747474,-4.45761324,-147.24447642
7.1400000000000015,714,0.043,-1.015,0.066,21.3713334,32.7159018,34.2055926,97.76382354,-4.84722468,-146.96945658
7.150000000000001,715,-0.059,-1.078,0.124,24.694489800000003,18.5065434,41.023792799999995,98.0044659,-5.27694318,-146.84340582
7.160000000000001,716,-0.189,-1.109,0.16,24.9809688,1.2032118,47.4982182,98.262297,-5.746768739999999,-146.89497204000003
7.170000000000001,717,-0.316,-1.112,0.165,24.8663772,-15.0687954,50.47759979999999,98.54304642,-6.2165943,-147.11842566
7.1800000000000015,718,-0.373,-1.152,0.259,29.2781538,-24.350715,46.8679644,98.88682122,-6.65204238,-147.41636382
7.190000000000001,719,-0.263,-1.288,0.337,30.1375908,-17.8189938,35.0650296,99.22486644,-6.9614397000000015,-147.64554701999995
7.200000000000001,720,-0.042,-1.375,0.265,23.032911600000002,-0.6302538000000001,16.7303736,99.4655088,-7.12186794,-147.6799245
7.210000000000001,721,0.173,-1.36,0.168,18.2200644,17.7044022,0.6302538000000001,99.62593704,-7.161975,-147.50230752
7.2200000000000015,722,0.29,-1.288,0.064,17.9908812,26.41336380000001,-10.8289062,99.76917654,-7.1046792000000005,-147.22155809999995
7.230000000000001,723,0.282,-1.197,0.035,10.255948199999999,35.236917,-20.8556712,99.7806357,-6.898414319999999,-146.85486498
7.240000000000001,724,0.118,-1.162,-0.026,1.6042823999999998,40.33624320000001,-26.356068,99.74052864,-6.72079734,-146.41368731999995
7.250000000000001,725,-0.142,-1.219,-0.032,2.4637194,37.1849742,-24.923673,99.71188074,-6.54890994,-146.00688714
7.260000000000002,726,-0.376,-1.259,-0.001,1.2032118,32.830493399999995,-20.912967,99.68323284,-6.40567044,-145.65165317999995
7.270000000000001,727,-0.53,-1.124,-0.003,-7.161975,34.7212548,-19.5378678,99.56291166,-6.2796196800000015,-145.27923048
7.280000000000001,728,-0.591,-0.96,0.002,-13.464512999999998,44.2323576,-21.772404,99.33945804,-6.2452422000000025,-144.80367533999996
7.290000000000001,729,-0.5820000000000001,-0.8809999999999999,0.006,-14.381245800000002,64.51507079999999,-25.4393352,99.11027484,-6.11919144,-144.13331448
7.300000000000002,730,-0.511,-0.937,0.029,-9.6829902,85.9437,-26.8717302,98.90400996,-6.01032942,-143.25095916
7.310000000000001,731,-0.395,-1.04,0.115,-6.417129599999999,104.1637644,-24.694489800000003,98.71493382,-5.953033619999999,-142.19671644
7.320000000000001,732,-0.281,-1.127,0.171,-4.8701430000000006,117.5136858,-20.6837838,98.52585768000002,-5.958763200000001,-141.01642296
7.330000000000001,733,-0.18,-1.143,0.192,-5.042030400000002,126.5091264,-17.589810600000003,98.33105196,-6.00459984,-139.75018577999998
7.340000000000002,734,-0.123,-1.09,0.202,-4.2398892,131.5511568,-16.902261,98.13051665999998,-6.06189564,-138.43811196
7.350000000000001,735,-0.116,-1.032,0.206,-0.6875496,133.90028460000002,-18.5638392,97.96435884,-6.1020027,-137.09739024
7.360000000000001,736,-0.14,-1.004,0.211,2.291832,134.931609,-21.7151082,97.82111934,-6.1077322800000005,-135.74520936
7.370000000000001,737,-0.181,-1.013,0.232,3.380452200000001,137.3953284,-24.9809688,97.69506857999998,-6.079084379999999,-134.36438058000002
7.380000000000001,738,-0.227,-1.017,0.231,2.9793816000000004,140.89037219999997,-26.7571386,97.56328824,-6.05616606,-132.93771516
7.3900000000000015,739,-0.261,-1.028,0.235,3.5523396000000003,145.93240260000005,-28.6479,97.42577832,-5.99887026,-131.47094268
7.400000000000001,740,-0.273,-1.023,0.237,3.4377480000000005,152.8651944,-29.9657034,97.27680924,-5.93584488,-129.92968566
7.410000000000001,741,-0.25,-1.004,0.254,3.5523396000000003,160.65742319999995,-31.741873200000004,97.12211058,-5.86708992,-128.30821452
7.420000000000001,742,-0.227,-0.945,0.239,0.1718874,168.9080184,-34.950438,96.93303444,-5.77541664,-126.60652926
7.4300000000000015,743,-0.16699999999999998,-0.922,0.258,4.9274388,176.12728919999995,-37.7006364,96.78979494,-5.66082504,-124.83035946
7.440000000000001,744,-0.122,-0.906,0.257,2.9793816000000004,182.8308978,-41.252976,96.61790754,-5.51758554,-122.97970512
7.450000000000001,745,-0.095,-0.8809999999999999,0.257,2.4064236,186.84160380000003,-44.1750618,96.43456098,-5.339968560000001,-121.0946733
7.460000000000001,746,-0.085,-0.863,0.267,2.4637194,187.8156324,-45.6647526,96.26267357999998,-5.14516284,-119.19245274
7.4700000000000015,747,-0.081,-0.851,0.278,2.7501984,187.4145618,-45.779344200000004,96.09651576,-4.94462754,-117.30169134
7.480000000000001,748,-0.084,-0.846,0.28600000000000003,3.6096354,185.9821668,-44.6334282,95.970465,-4.749821819999998,-115.42238909999999
7.490000000000001,749,-0.097,-0.846,0.28800000000000003,4.1252976000000015,185.351913,-43.544808,95.83295508,-4.5550161000000005,-113.55454602
7.500000000000001,750,-0.101,-0.835,0.272,4.1825934,186.497829,-43.20103320000001,95.70117474,-4.36593996,-111.67524378
7.510000000000002,751,-0.113,-0.83,0.259,5.2712136,188.96154840000003,-44.2896534,95.58658314,-4.15967508,-109.77302322
7.520000000000001,752,-0.115,-0.818,0.253,6.016058999999999,192.4565922,-47.1544434,95.48918028,-3.93049188,-107.83069559999998
7.530000000000001,753,-0.093,-0.805,0.266,7.3911582,196.811073,-50.706783,95.42042532,-3.67266078,-105.84826092
7.540000000000001,754,-0.062,-0.795,0.268,8.7089616,200.5925958,-54.14453099999999,95.35167036,-3.37472262,-103.8199896
7.550000000000002,755,-0.031,-0.8009999999999999,0.262,10.026765,202.6552446,-56.8947294,95.31156330000002,-3.05386614,-101.77452954000002
7.560000000000001,756,-0.001,-0.82,0.25,10.0840608,202.7698362,-58.67089920000001,95.2829154,-2.71009134,-99.72333990000001
7.570000000000001,757,0.026,-0.8440000000000001,0.231,10.9434978,202.0249908,-59.1292656,95.27718582,-2.36631654,-97.68360942
7.580000000000001,758,0.035,-0.8859999999999999,0.21600000000000005,12.032117999999999,197.72780580000003,-58.38442020000001,95.30583372,-2.01681216,-95.683986
7.590000000000002,759,0.016,-0.934,0.181,11.6310474,189.0188442,-56.3790672,95.33448162,-1.6844965200000002,-93.77603586
7.600000000000001,760,-0.001,-0.982,0.18600000000000005,9.3965112,180.8828406,-53.68616460000001,95.35739994,-1.36936962,-91.94829984
7.610000000000001,761,0.006,-1.048,0.201,4.7555514,176.64295140000004,-50.9359662,95.3402112,-1.07716104,-90.16640046
7.620000000000001,762,0.022,-1.112,0.215,0.8021411999999999,175.7262186,-49.04520479999999,95.29437456,-0.79641162,-88.39023066
7.630000000000002,763,0.062,-1.16,0.224,-1.3750992,180.0806994,-47.7274014,95.24280834,-0.53285094,-86.57968338
7.6400000000000015,764,0.111,-1.186,0.242,-2.6929026,184.0341096,-46.2377106,95.17405338,-0.29220857999999994,-84.73475862000002
7.650000000000001,765,0.125,-1.202,0.269,-4.297185,179.7369246,-43.65939960000001,95.09956884,-0.06875496,-82.92994092
7.660000000000001,766,0.127,-1.194,0.26,-8.307891,175.32514799999996,-39.247623,94.9964364,0.11459160000000004,-81.17095986
7.670000000000002,767,0.14800000000000002,-1.137,0.209,-11.0007936,178.53371280000005,-34.091001,94.86465606,0.25210152,-79.38906048
7.6800000000000015,768,0.146,-1.088,0.188,-10.255948199999999,181.1120238,-30.194886600000004,94.75006446,0.36096354,-77.58997236
7.690000000000001,769,0.141,-1.062,0.17600000000000002,-11.172681,178.76289599999996,-28.762491600000004,94.6240137,0.4526368200000001,-75.80807297999998
7.700000000000001,770,0.155,-1.043,0.16699999999999998,-12.605076,174.2365278,-28.5333084,94.48650378,0.55003968,-74.07201024000003
7.710000000000001,771,0.17600000000000002,-1.022,0.142,-13.0634424,168.3350604,-28.0176462,94.34899386,0.64744254,-72.39897288
7.7200000000000015,772,0.196,-1.012,0.108,-13.407217200000002,159.9125778,-26.1268848,94.21148394,0.7448454000000001,-70.80614964
7.730000000000001,773,0.225,-1.0,0.094,-13.2353298,151.547391,-22.631841,94.07397402,0.8422482600000001,-69.30499968000001
7.740000000000001,774,0.279,-0.995,0.102,-12.6623718,144.7291908,-19.4232762,93.94792326,0.89954406,-67.86687509999999
7.750000000000001,775,0.344,-0.982,0.117,-12.0894138,137.3380326,-17.589810600000003,93.82760208,0.93965112,-66.50896464
7.760000000000002,776,0.3720000000000001,-0.961,0.116,-10.4851314,127.2539718,-17.475219,93.72446964,0.9969469199999998,-65.24272746
7.770000000000001,777,0.359,-0.931,0.113,-7.2765666,117.22720679999999,-17.9908812,93.65571468,1.06570188,-64.07962272
7.780000000000001,778,0.314,-0.905,0.125,-3.4950437999999995,109.434978,-18.162768600000003,93.63852594,1.19175264,-62.9967321
7.790000000000001,779,0.259,-0.883,0.147,-0.5156622000000001,103.418919,-18.3919518,93.63852594,1.28342592,-61.96540769999999
7.800000000000002,780,0.217,-0.873,0.16399999999999998,1.0886202,99.2936214,-19.194093,93.66144426,1.38655836,-60.97419036
7.810000000000001,781,0.184,-0.873,0.168,1.3750992,96.1423524,-20.454600600000006,93.68436258,1.50114996,-60.0173505
7.820000000000001,782,0.155,-0.8809999999999999,0.159,1.432395,94.0224078,-21.027558600000006,93.71301048,1.62147114,-59.07769938
7.830000000000001,783,0.151,-0.897,0.16699999999999998,1.9480572,95.397507,-20.7410796,93.7645767,1.76471064,-58.126589100000004
7.840000000000002,784,0.174,-0.914,0.188,3.5523396000000003,99.3509172,-19.308684600000007,93.8218725,1.86784308,-57.13537176
7.850000000000001,785,0.196,-0.935,0.194,4.1252976000000015,102.1584114,-17.246035799999998,93.88489788,1.94232762,-56.11550652000001
7.860000000000001,786,0.222,-0.95,0.18600000000000005,4.010706000000001,103.2470316,-14.9542038,93.94219368,1.99389384,-55.08991170000001
7.870000000000001,787,0.25,-0.969,0.173,4.6409598,102.7313694,-12.891555,94.01667822,2.02254174,-54.07004645999999
7.880000000000002,788,0.279,-0.994,0.152,4.6409598,101.0124954,-11.3445684,94.09116276,2.07983754,-53.07309954
7.8900000000000015,789,0.298,-1.018,0.135,4.6982556,97.5174516,-10.4278356,94.15991772,2.08556712,-52.10480051999999
7.900000000000001,790,0.314,-1.039,0.129,4.4690724,92.246238,-10.4851314,94.22867268000002,2.09702628,-51.18806772
7.910000000000001,791,0.315,-1.0490000000000002,0.128,4.0680017999999984,86.2874748,-10.9434978,94.29169806,2.1199446,-50.32863072
7.920000000000002,792,0.294,-1.0590000000000002,0.125,3.6669312000000014,77.52121740000003,-12.032117999999999,94.34326428,2.16005166,-49.55513742
7.9300000000000015,793,0.256,-1.065,0.114,2.9793816000000004,71.8489332,-13.0061466,94.39483050000001,2.25745452,-48.8446695
7.940000000000001,794,0.222,-1.057,0.119,3.0366774,69.38521379999999,-13.6364004,94.44639672,2.3204799,-48.15139032
7.950000000000001,795,0.187,-1.037,0.13,3.5523396000000003,68.182002,-13.8655836,94.49796294,2.38923486,-47.4695703
7.960000000000002,796,0.161,-1.007,0.14,4.010706000000001,67.9528188,-13.464512999999998,94.56098832,2.45226024,-46.78775028
7.9700000000000015,797,0.145,-0.972,0.145,4.4117766,67.9528188,-12.4904844,94.6240137,2.50382646,-46.11165984
7.980000000000001,798,0.13699999999999998,-0.942,0.14300000000000002,5.2712136,68.2965936,-11.1153852,94.70995740000001,2.56685184,-45.42983982
7.990000000000001,799,0.147,-0.912,0.14400000000000002,6.0733548,68.2965936,-9.167328,94.7959011,2.58404058,-44.75374938
8.000000000000002,800,0.173,-0.905,0.157,7.6203414,65.603691,-6.3598338,94.89330396,2.57258142,-44.10057726
8.010000000000002,801,0.2,-0.908,0.159,7.906820400000001,61.6502808,-4.0680017999999984,94.99070682,2.54393352,-43.48751220000001
8.020000000000001,802,0.227,-0.91,0.15,7.6776372,58.613603399999995,-2.2345362,95.08810968,2.50382646,-42.90882462
8.030000000000001,803,0.25,-0.919,0.141,7.6203414,56.149884,-0.6875496,95.19124212,2.51528562,-42.3702441
8.040000000000001,804,0.264,-0.931,0.126,7.2192707999999985,53.571573,0.5156622000000001,95.2829154,2.44653066,-41.84312274
8.05,805,0.275,-0.94,0.114,6.990087599999999,51.10785360000001,1.8334656000000005,95.3688591,2.36631654,-41.33891970000001
8.06,806,0.277,-0.945,0.112,7.2192707999999985,48.1857678,3.4377480000000005,95.4548028,2.2746432600000004,-40.86909414
8.070000000000002,807,0.269,-0.949,0.114,8.250595200000001,44.8053156,5.72958,95.54647608,2.1657812400000003,-40.43364606
8.080000000000002,808,0.254,-0.957,0.117,9.224623800000002,40.737313799999995,8.078707799999998,95.64960852,2.10848544,-40.04976420000001
8.090000000000002,809,0.237,-0.975,0.117,9.453807000000001,37.0130868,9.568398599999998,95.75847054,1.97097552,-39.69453024
8.100000000000001,810,0.21,-1.001,0.109,9.1100322,31.971056400000002,10.9434978,95.85587340000001,1.82200644,-39.3908625
8.110000000000001,811,0.175,-1.037,0.098,8.880849000000003,27.501984000000004,11.917526400000002,95.94754668,1.6673077799999998,-39.1330314
8.120000000000001,812,0.129,-1.087,0.086,8.479778399999999,23.032911600000002,12.834259199999998,96.03921996,1.51260912,-38.92103694
8.13,813,0.065,-1.148,0.069,7.7349330000000025,18.621135,13.349921400000001,96.09078618,1.36364004,-38.74914954000001
8.14,814,-0.002,-1.207,0.065,7.5057497999999985,14.9542038,12.318597,96.1710003,1.22040054,-38.61736920000001
8.150000000000002,815,-0.057,-1.257,0.109,8.021412000000002,13.0634424,8.7662574,96.25121442,1.1172681,-38.49704802
8.160000000000002,816,-0.053,-1.234,0.168,8.651665800000002,15.126091199999998,3.2658606,96.3428877,1.06570188,-38.34807894
8.170000000000002,817,-0.003,-1.134,0.204,8.880849000000003,17.9335854,0.0,96.43456098,1.03705398,-38.17046196
8.180000000000001,818,0.057,-1.005,0.21,9.167328,19.8816426,-0.9740286,96.57780048,1.06570188,-37.9871154
8.190000000000001,819,0.119,-0.909,0.195,10.4851314,20.626488,-0.8594370000000001,96.6866625,1.04851314,-37.78085052
8.200000000000001,820,0.171,-0.848,0.177,12.834259199999998,20.1108258,0.11459160000000004,96.81271325999998,1.01986524,-37.586044799999996
8.21,821,0.211,-0.815,0.16399999999999998,15.0687954,18.5065434,2.4064236,96.96741192,0.96829902,-37.40269823999999
8.22,822,0.239,-0.81,0.159,16.501190400000002,16.2147114,5.042030400000002,97.13929932,0.89381448,-37.24799958000001
8.230000000000002,823,0.241,-0.835,0.157,16.7303736,14.152062599999999,7.333862400000001,97.32264588,0.91100322,-37.13340798
8.240000000000002,824,0.215,-0.882,0.14400000000000002,15.4125702,11.917526400000002,8.307891,97.47734454000002,0.8136003599999999,-37.02454596
8.250000000000002,825,0.16899999999999998,-0.937,0.122,14.2093584,10.3705398,7.2765666,97.62631362,0.72192708,-36.93287268
8.260000000000002,826,0.111,-0.993,0.107,13.2926256,9.1100322,4.6982556,97.75809396,0.66463128,-36.84692898
8.270000000000001,827,0.052000000000000005,-1.041,0.098,12.0894138,8.136003599999999,1.6042823999999998,97.88414472,0.63598338,-36.76671485999999
8.280000000000001,828,-0.002,-1.069,0.099,10.886202,7.3911582,-0.6302538000000001,97.93571094,0.6073354799999999,-36.68650074
8.290000000000001,829,-0.044,-1.0659999999999998,0.108,9.740286,6.760904399999999,-1.3178034,98.0331138,0.6073354799999999,-36.61774578
8.3,830,-0.066,-1.042,0.124,9.1100322,6.417129599999999,-0.6302538000000001,98.12478708,0.6073354799999999,-36.54899082
8.310000000000002,831,-0.058,-1.01,0.145,9.167328,6.9327918,0.8021411999999999,98.21646036,0.5844171599999999,-36.48023586
8.320000000000002,832,-0.032,-0.999,0.156,10.255948199999999,8.021412000000002,2.578311,98.3195928,0.55003968,-36.40575132
8.330000000000002,833,-0.001,-1.004,0.166,11.4018642,8.5370742,3.724227,98.4341844,0.5042030399999999,-36.33126678
8.340000000000002,834,0.028,-1.012,0.175,11.8602306,9.167328,4.4117766,98.55450558,0.44690724,-36.24532308
8.350000000000001,835,0.053,-1.013,0.183,11.745639,9.6829902,4.6409598,98.67482676,0.38388186,-36.1536498
8.360000000000001,836,0.068,-1.005,0.183,11.172681,9.8548776,4.5263682,98.78941836,0.32085648,-36.06197652
8.370000000000001,837,0.073,-0.998,0.179,10.599723,9.969469199999999,4.010706000000001,98.89828038,0.26356068,-35.97030324
8.38,838,0.064,-0.997,0.172,9.6256944,9.5111028,3.2085648,98.98422408,0.26929026,-35.89008912
8.39,839,0.041,-1.0,0.161,8.193299399999999,8.7089616,2.6356068,99.07016778,0.2291832000000001,-35.809875
8.400000000000002,840,0.01,-1.0,0.152,6.6463128000000005,7.2192707999999985,2.578311,99.13319316,0.18907614,-35.74112004000001
8.410000000000002,841,-0.017,-0.998,0.145,5.042030400000002,6.2452422,2.8074942000000003,99.18475938,0.14896908,-35.68382424
8.420000000000002,842,-0.038,-0.993,0.142,3.7815227999999994,5.6722842,3.4377480000000005,99.22486644,0.10886202,-35.63225802
8.430000000000001,843,-0.05,-0.993,0.142,2.6356068,5.5003968,3.9534102,99.18475938,-0.01718874,-35.56923264
8.440000000000001,844,-0.051,-0.992,0.14300000000000002,1.6042823999999998,6.016058999999999,4.1825934,99.20194812,-0.06875496,-35.51766642
8.450000000000001,845,-0.046,-0.999,0.14400000000000002,0.572958,6.703608600000001,3.9534102,99.2076777,-0.12032118,-35.46037062
8.46,846,-0.04,-1.009,0.15,-0.572958,7.1046792000000005,3.5523396000000003,99.20194812,-0.16615782,-35.39734524
8.47,847,-0.039,-1.009,0.15,-1.0313244,7.2192707999999985,2.86479,99.19048896,-0.20626488,-35.32859028
8.480000000000002,848,-0.036000000000000004,-1.012,0.154,-0.6302538000000001,6.6463128000000005,2.2345362,99.121734,-0.29220857999999994,-35.25410574
8.490000000000002,849,-0.03,-1.009,0.156,-0.7448454000000001,4.9847345999999995,2.0626488000000003,99.11027484,-0.32085648,-35.20826909999999
8.500000000000002,850,-0.032,-1.0,0.17,-0.9167328,2.3491278,1.9480572,99.09881568,-0.3437748,-35.19108036
8.510000000000002,851,-0.032,-0.993,0.18,-1.8907613999999997,0.0,1.7761698,99.08162694,-0.36669312,-35.19108036
8.520000000000001,852,-0.029,-0.988,0.17800000000000002,-2.9220857999999996,-2.6929026,1.7761698,99.05297904,-0.37815228,-35.22545784
8.530000000000001,853,-0.031,-0.986,0.16899999999999998,-3.0366774,-6.589017,1.8334656000000005,99.01287198,-0.41252976,-35.28848322
8.540000000000001,854,-0.034,-0.985,0.174,-3.151269,-10.599723,1.8907613999999997,98.98422408,-0.41252976,-35.39161566
8.55,855,-0.038,-0.982,0.19,-3.380452200000001,-13.0634424,1.8907613999999997,98.9498466,-0.40680018,-35.52339600000001
8.560000000000002,856,-0.041,-0.979,0.198,-3.0366774,-13.8082878,1.145916,98.9211987,-0.39534102,-35.66090592
8.570000000000002,857,-0.047,-0.98,0.211,-2.578311,-12.4904844,0.0,98.89828038,-0.3724227000000001,-35.7812271
8.580000000000002,858,-0.053,-0.984,0.221,-1.7188740000000002,-10.1413566,-1.145916,98.95557618,-0.41252976,-35.88435954
8.590000000000002,859,-0.061,-0.991,0.229,-0.286479,-8.021412000000002,-1.8334656000000005,98.95557618,-0.37815228,-35.95884408
8.600000000000001,860,-0.076,-1.002,0.237,1.7188740000000002,-6.2452422,-1.7188740000000002,98.97276492,-0.34950438,-36.01613988
8.610000000000001,861,-0.096,-1.011,0.246,3.6096354,-4.5263682,-0.6875496,99.01287198,-0.33231564,-36.05624694
8.620000000000001,862,-0.117,-1.009,0.252,5.042030400000002,-2.7501984,0.8594370000000001,99.0644382,-0.33804522,-36.08489484
8.63,863,-0.135,-1.0,0.26,6.3025379999999975,-0.4010706,2.4637194,99.24778476,-0.55576926,-36.08489484
8.640000000000002,864,-0.146,-0.985,0.267,7.5057497999999985,2.1772404,3.6096354,99.3222693,-0.59014674,-36.07343568
8.650000000000002,865,-0.147,-0.963,0.27,8.193299399999999,4.9274388,3.4950437999999995,99.40248342,-0.63598338,-36.02759904
8.660000000000002,866,-0.147,-0.943,0.267,9.5111028,7.0473834,2.6929026,99.49988628,-0.67609044,-35.96457366
8.670000000000002,867,-0.14400000000000002,-0.932,0.268,10.1413566,9.0527364,1.2032118,99.60301872,-0.70473834,-35.87290038
8.680000000000001,868,-0.132,-0.93,0.259,9.8548776,12.261301199999998,-0.9167328,99.7519878,-0.79641162,-35.7525792
8.690000000000001,869,-0.116,-0.935,0.246,10.0840608,16.1001198,-3.0366774,99.84939066,-0.79641162,-35.58642138000001
8.700000000000001,870,-0.095,-0.949,0.243,10.6570188,19.595163600000006,-4.9274388,99.9525231,-0.7906820400000001,-35.39161566
8.71,871,-0.064,-0.965,0.245,11.0580894,21.7151082,-6.3598338,100.06138511999998,-0.76776372,-35.16816204
8.72,872,-0.037000000000000005,-0.97,0.247,11.5737516,23.3193906,-7.161975,100.17024714,-0.7448454000000001,-34.92751968
8.730000000000002,873,-0.012,-0.971,0.245,11.1153852,24.7517856,-7.906820400000001,100.29629789999998,-0.7104679199999999,-34.67541816
8.740000000000002,874,0.009000000000000001,-0.971,0.226,10.1413566,26.2414764,-8.479778399999999,100.38797118,-0.68182002,-34.4061279
8.750000000000002,875,0.019,-0.984,0.212,10.0840608,25.9549974,-8.479778399999999,100.48537404,-0.65317212,-34.13683764
8.760000000000002,876,0.023,-1.01,0.208,10.1986524,24.694489800000003,-8.021412000000002,100.5827769,-0.62452422,-33.87900654
8.770000000000001,877,0.029,-1.031,0.21,10.4851314,23.376686399999997,-6.990087599999999,100.68590934,-0.6016058999999999,-33.63836418
8.780000000000001,878,0.031,-1.036,0.21,11.172681,21.485925,-5.844171599999999,100.78904178,-0.56722842,-33.42064014
8.790000000000001,879,0.022,-1.027,0.208,11.688343199999998,19.0795014,-4.6409598,100.90363338,-0.56149884,-33.22583442
8.8,880,0.012,-1.005,0.205,11.4018642,15.3552744,-3.4377480000000005,101.01822498,-0.56149884,-33.07113576
8.810000000000002,881,0.006999999999999999,-0.985,0.197,10.599723,12.5477802,-2.4064236,101.12135742,-0.56722842,-32.945085
8.820000000000002,882,0.005,-0.971,0.193,9.797581800000001,9.568398599999998,-1.5469866,101.21876028,-0.56722842,-32.84768214
8.830000000000002,883,0.004,-0.967,0.194,8.9954406,6.9327918,-0.9740286,101.28751524,-0.55576926,-32.7731976
8.840000000000002,884,0.003,-0.972,0.2,8.078707799999998,4.7555514,-0.6302538000000001,101.36772936,-0.55576926,-32.72736096
8.850000000000001,885,-0.002,-0.976,0.206,7.161975,3.0939732,-0.572958,101.43648432,-0.55576926,-32.69298348
8.860000000000001,886,-0.011,-0.98,0.212,6.3025379999999975,2.291832,-0.9167328,101.4995097,-0.55576926,-32.67006516
8.870000000000001,887,-0.023,-0.979,0.21600000000000005,5.443101,2.291832,-1.6042823999999998,101.55680550000001,-0.5443101,-32.641417260000004
8.88,888,-0.025,-0.978,0.214,4.8128472,3.4950437999999995,-2.6356068,101.59118298,-0.53858052,-32.59558062
8.890000000000002,889,-0.021,-0.981,0.211,4.8128472,5.2139178,-3.6669312000000014,101.6427492,-0.5156622000000001,-32.53828482
8.900000000000002,890,-0.015,-0.991,0.205,4.8701430000000006,6.990087599999999,-4.2398892,101.68858584,-0.4870143000000001,-32.46380028
8.910000000000002,891,-0.012,-1.0,0.2,5.042030400000002,7.906820400000001,-4.1252976000000015,101.74015206,-0.46409598,-32.37785658
8.920000000000002,892,-0.01,-1.006,0.196,5.0993262,8.307891,-3.5523396000000003,101.7859887,-0.44690724,-32.29191288
8.930000000000001,893,-0.008,-1.005,0.195,4.8701430000000006,8.7089616,-2.6356068,101.79744786,-0.43544808,-32.19451002
8.940000000000001,894,-0.008,-1.0,0.197,4.6409598,9.0527364,-1.9480572,101.8432845,-0.44117766,-32.10283674
8.950000000000001,895,-0.009000000000000001,-0.993,0.202,4.1252976000000015,9.1100322,-1.6042823999999998,101.88339156,-0.44117766,-32.01116346
8.96,896,-0.008,-0.989,0.207,3.5523396000000003,8.8235532,-1.7188740000000002,101.91776904,-0.44690724,-31.91949018
8.97,897,-0.006,-0.99,0.212,3.2085648,8.479778399999999,-2.0053530000000004,101.94641694,-0.44690724,-31.83354648000001
8.980000000000002,898,-0.003,-0.994,0.211,2.8074942000000003,7.9641161999999985,-2.4064236,101.94641694,-0.42398892,-31.74760278
8.990000000000002,899,0.0,-1.001,0.209,2.4064236,7.7922288,-2.6356068,101.96933526,-0.41825934,-31.66738866
9.000000000000002,900,0.001,-1.005,0.205,1.8334656000000005,7.3911582,-2.7501984,101.986524,-0.40680018,-31.592904120000004
9.010000000000002,901,0.004,-1.009,0.201,1.0886202,7.2192707999999985,-2.6356068,101.99798316,-0.39534102,-31.51269000000001
9.020000000000001,902,0.006999999999999999,-1.006,0.198,0.2291832000000001,7.1046792000000005,-2.3491278,101.99798316,-0.38961144,-31.443935040000003
9.030000000000001,903,0.013,-0.998,0.197,-0.286479,6.8182002000000015,-1.7188740000000002,101.9292282,-0.33231564,-31.3694505
9.040000000000001,904,0.014,-0.992,0.202,-0.9167328,6.3598338,-1.3178034,101.91776904,-0.33231564,-31.30069554
9.05,905,0.013,-0.985,0.205,-1.2032118,6.3598338,-1.0886202,101.9005803,-0.33804522,-31.23767016
9.060000000000002,906,0.006999999999999999,-0.978,0.208,-1.0313244,6.417129599999999,-0.9167328,101.88912114,-0.3437748,-31.17464478
9.070000000000002,907,0.0,-0.975,0.211,-0.7448454000000001,6.417129599999999,-0.6875496,101.88339156,-0.34950438,-31.111619399999995
9.080000000000002,908,-0.005,-0.973,0.215,-0.4010706,6.3025379999999975,-0.6302538000000001,101.86047324,-0.35523396,-31.04859402
9.090000000000002,909,-0.011,-0.977,0.221,-0.11459160000000004,6.417129599999999,-0.4583664000000001,101.85474366,-0.36669312,-30.985568640000004
9.100000000000001,910,-0.015,-0.977,0.224,0.0,6.8182002000000015,-0.4010706,101.85474366,-0.37815228,-30.91681368
9.110000000000001,911,-0.018000000000000002,-0.98,0.23,0.2291832000000001,7.3911582,-0.4010706,101.85474366,-0.38961144,-30.84805872
9.120000000000001,912,-0.019,-0.983,0.229,0.1718874,8.136003599999999,-0.572958,101.85474366,-0.4010706000000001,-30.7678446
9.13,913,-0.019,-0.986,0.229,0.1718874,8.3651868,-0.6875496,101.86047324,-0.4297185000000001,-30.68190090000001
9.140000000000002,914,-0.019,-0.992,0.228,0.2291832000000001,8.3651868,-0.572958,101.86047324,-0.44117766,-30.60168678
9.150000000000002,915,-0.016,-0.993,0.229,0.4010706,8.479778399999999,-0.4010706,101.86047324,-0.4583664000000001,-30.52147266
9.160000000000002,916,-0.013,-0.993,0.228,0.7448454000000001,8.250595200000001,-0.1718874,101.86620282,-0.47555514,-30.44125854
9.170000000000002,917,-0.01,-0.993,0.228,1.0313244,8.078707799999998,-0.11459160000000004,101.87766198,-0.49274388,-30.36104442
9.180000000000001,918,-0.004,-0.992,0.229,1.0886202,8.250595200000001,-0.11459160000000004,101.88912114,-0.4870143000000001,-30.2808303
9.190000000000001,919,0.0,-0.989,0.231,1.0313244,8.250595200000001,-0.11459160000000004,101.89485072,-0.5042030399999999,-30.20061618
9.200000000000001,920,0.001,-0.988,0.232,0.7448454000000001,8.078707799999998,-0.2291832000000001,101.9005803,-0.52139178,-30.12613164
9.21,921,0.001,-0.991,0.226,0.4583664000000001,7.906820400000001,-0.286479,101.90630988,-0.53285094,-30.04591752
9.220000000000002,922,0.002,-0.992,0.22,0.1718874,7.6776372,-0.3437748,101.90630988,-0.55003968,-29.97143298
9.230000000000002,923,0.001,-0.992,0.21600000000000005,0.11459160000000004,7.2192707999999985,-0.2291832000000001,101.8719324,-0.52712136,-29.89694844
9.240000000000002,924,0.001,-0.989,0.214,0.286479,6.760904399999999,-0.057295800000000015,101.8719324,-0.53858052,-29.83392306
9.250000000000002,925,0.0,-0.988,0.213,0.572958,6.3598338,0.0,101.87766198,-0.55576926,-29.77089768
9.260000000000002,926,-0.001,-0.987,0.214,0.7448454000000001,6.130650599999999,0.11459160000000004,101.88339156,-0.5729580000000001,-29.71360188
9.270000000000001,927,-0.003,-0.987,0.217,0.572958,5.958763200000001,0.11459160000000004,101.88912114,-0.5844171599999999,-29.65630608
9.280000000000001,928,-0.009000000000000001,-0.985,0.219,0.2291832000000001,5.844171599999999,0.057295800000000015,101.86620282,-0.5844171599999999,-29.599010280000005
9.290000000000001,929,-0.011,-0.983,0.219,0.2291832000000001,5.72958,-0.057295800000000015,101.86620282,-0.59587632,-29.54171448
9.3,930,-0.014,-0.985,0.217,0.4010706,5.9014674000000005,-0.2291832000000001,101.8719324,-0.6073354799999999,-29.48441868
9.310000000000002,931,-0.011,-0.988,0.214,0.5156622000000001,6.1879464,-0.4583664000000001,101.8719324,-0.61879464,-29.4213933
9.320000000000002,932,-0.01,-0.989,0.21,0.7448454000000001,6.2452422,-0.6875496,101.88339156,-0.62452422,-29.364097500000003
9.330000000000002,933,-0.01,-0.99,0.208,0.572958,6.130650599999999,-0.6302538000000001,101.83755492,-0.61306506,-29.29534254
9.340000000000002,934,-0.008,-0.986,0.21,0.5156622000000001,6.016058999999999,-0.6302538000000001,101.8432845,-0.62452422,-29.23804674
9.350000000000001,935,-0.006999999999999999,-0.981,0.212,0.572958,6.1879464,-0.4583664000000001,101.84901408,-0.6302538000000001,-29.17502136
9.360000000000001,936,-0.004,-0.981,0.212,0.6302538000000001,6.417129599999999,-0.286479,101.85474366,-0.64171296,-29.11199598
9.370000000000001,937,-0.004,-0.981,0.212,0.4583664000000001,6.703608600000001,-0.286479,101.85474366,-0.6589017,-29.0489706
9.38,938,-0.003,-0.982,0.21,0.572958,6.703608600000001,-0.286479,101.82036618,-0.63598338,-28.98021564
9.390000000000002,939,-0.003,-0.984,0.209,0.6302538000000001,6.589017,-0.4583664000000001,101.82609576,-0.64744254,-28.91146068
9.400000000000002,940,0.0,-0.985,0.209,0.8021411999999999,6.589017,-0.4583664000000001,101.83182534,-0.6589017,-28.8484353
9.410000000000002,941,0.002,-0.984,0.211,0.9167328,6.417129599999999,-0.5156622000000001,101.8432845,-0.6703608600000001,-28.78540992
9.420000000000002,942,0.005,-0.985,0.213,0.9740286,6.0733548,-0.4583664000000001,101.84901408,-0.67609044,-28.728114120000004
9.430000000000001,943,0.006,-0.986,0.214,1.0313244,5.5576926,-0.4010706,101.83182534,-0.62452422,-28.670818319999995
9.440000000000001,944,0.006999999999999999,-0.988,0.215,0.8594370000000001,5.2712136,-0.2291832000000001,101.83755492,-0.63598338,-28.6192521
9.450000000000001,945,0.008,-0.989,0.217,0.6302538000000001,5.042030400000002,0.0,101.8432845,-0.64744254,-28.56768588
9.46,946,0.006,-0.989,0.219,0.3437748,4.5263682,0.11459160000000004,101.8432845,-0.6589017,-28.52757882
