TimeStamp(s),FrameCounter,AccX,AccY,AccZ,GyrX,GyrY,GyrZ,EulerX,EulerY,EulerZ
0.01,1,0.037000000000000005,-0.956,0.33399999999999996,-0.286479,0.572958,1.145916,106.35246396,4.2398892,-19.5665157
0.02,2,0.028999999999999998,-0.9570000000000001,0.335,-0.1718874,0.5156622000000001,1.0313244000000001,106.34673438,4.22843004,-19.56078612
0.03,3,0.03,-0.955,0.335,-0.572958,0.5156622000000001,1.0886202,106.3410048,4.211241299999998,-19.56078612
0.04,4,0.028999999999999998,-0.951,0.335,-0.6875496,0.572958,1.0313244000000001,106.33527522,4.19978214,-19.56078612
0.05,5,0.027999999999999997,-0.95,0.336,-0.5156622000000001,0.40107059999999994,1.0886202,106.42121892,4.05081306,-19.50349032
0.060000000000000005,6,0.03,-0.953,0.336,-0.572958,0.2291832000000001,1.2032118,106.41548934,4.0393539,-19.50349032
0.06999999999999999,7,0.03,-0.955,0.33399999999999996,-0.8021411999999999,0.057295800000000015,1.3750992,106.40403018000002,4.02789474,-19.50349032
0.08,8,0.027999999999999997,-0.956,0.33399999999999996,-0.9740286,-0.11459160000000004,1.4896908000000002,106.39257102,4.010706,-19.5092199
0.09,9,0.026000000000000002,-0.9540000000000001,0.335,-1.0886202,-0.057295800000000015,1.5469866,106.38111186,3.99924684,-19.51494948
0.09999999999999999,10,0.025,-0.9540000000000001,0.335,-1.0886202,0.2291832000000001,1.5469866,106.4269485,3.87892566,-19.480572
0.11,11,0.022000000000000002,-0.9540000000000001,0.335,-1.0886202,0.572958,1.5469866,106.41548934,3.8674665,-19.480572
0.12,12,0.021,-0.9540000000000001,0.337,-1.0313244000000001,0.7448454000000001,1.5469866,106.40975976,3.85027776,-19.47484242
0.13,13,0.022000000000000002,-0.9520000000000001,0.336,-0.9740286,0.8021411999999999,1.4896908000000002,106.3983006,3.83308902,-19.47484242
0.14,14,0.022000000000000002,-0.9520000000000001,0.33799999999999997,-0.8021411999999999,0.8021411999999999,1.432395,106.38684144,3.81590028,-19.46911284
0.15000000000000002,15,0.023,-0.951,0.33799999999999997,-0.6875496,0.4583664000000001,1.432395,106.45559640000002,3.6955791,-19.42900578
0.16,16,0.023,-0.95,0.34,-0.6302538000000001,0.3437748,1.432395,106.44986682,3.68411994,-19.42900578
0.17,17,0.022000000000000002,-0.9490000000000001,0.33899999999999997,-0.572958,0.40107059999999994,1.432395,106.44413724,3.666931200000001,-19.42900578
0.18000000000000002,18,0.021,-0.948,0.33899999999999997,-0.5156622000000001,0.5156622000000001,1.4896908000000002,106.43840766,3.64974246,-19.42900578
0.19,19,0.021,-0.9470000000000001,0.33899999999999997,-0.572958,0.6302538000000001,1.3750992,106.43267808,3.63255372,-19.4232762
0.2,20,0.021,-0.948,0.33799999999999997,-0.5156622000000001,0.5156622000000001,1.432395,106.49570346,3.51796212,-19.38316914
0.21000000000000002,21,0.021,-0.948,0.33799999999999997,-0.4583664000000001,0.286479,1.3750992,106.49570346,3.50650296,-19.38889872
0.22,22,0.018000000000000002,-0.948,0.33799999999999997,-0.40107059999999994,0.1718874,1.3178034,106.48997388,3.4950437999999995,-19.38889872
0.23,23,0.017,-0.951,0.33799999999999997,-0.4583664000000001,0.057295800000000015,1.3750992,106.4842443,3.47785506,-19.3946283
0.24000000000000002,24,0.017,-0.9520000000000001,0.33799999999999997,-0.5156622000000001,0.057295800000000015,1.3178034,106.47851472,3.4663959,-19.3946283
0.25,25,0.017,-0.9520000000000001,0.337,-0.5156622000000001,0.0,1.3178034,106.55299926,3.3231564,-19.34879166
0.26,26,0.018000000000000002,-0.953,0.335,-0.40107059999999994,0.0,1.3750992,106.54726968,3.3116972399999995,-19.35452124
0.27,27,0.018000000000000002,-0.955,0.33399999999999996,-0.4583664000000001,0.1718874,1.3750992,106.54154009999998,3.2945085,-19.35452124
0.28,28,0.018000000000000002,-0.958,0.332,-0.5156622000000001,0.1718874,1.3178034,106.53581052,3.28304934,-19.36025082
0.29000000000000004,29,0.019,-0.9590000000000001,0.335,-0.572958,0.2291832000000001,1.432395,106.53008094,3.2658606,-19.36025082
0.3,30,0.016,-0.9590000000000001,0.33399999999999996,-0.6302538000000001,0.3437748,1.432395,106.57591757999998,3.15699858,-19.32587334
0.31,31,0.012,-0.9590000000000001,0.337,-0.6875496,0.6302538000000001,1.2032118,106.57018799999999,3.14553942,-19.32014376
0.32,32,0.012,-0.958,0.337,-0.8021411999999999,0.6302538000000001,1.0886202,106.56445842,3.12835068,-19.32014376
0.33,33,0.011000000000000001,-0.958,0.33799999999999997,-0.9167328000000001,0.572958,1.0313244000000001,106.55299926,3.11689152,-19.31441418
0.34,34,0.011000000000000001,-0.958,0.33399999999999996,-1.2032118,0.6302538000000001,1.145916,106.54154009999998,3.1054323600000004,-19.31441418
0.35000000000000003,35,0.013000000000000001,-0.956,0.33299999999999996,-1.432395,0.9740286,1.145916,106.55872884,3.0366774000000003,-19.28576628
0.36000000000000004,36,0.015,-0.955,0.33799999999999997,-1.8334656000000005,1.6042823999999998,1.0313244000000001,106.54154009999998,3.01948866,-19.27430712
0.37,37,0.016,-0.953,0.335,-1.9480572,1.6615782,0.8594370000000001,106.52435136,3.0080294999999997,-19.26284796
0.38,38,0.016,-0.953,0.33299999999999996,-1.6042823999999998,0.8594370000000001,0.9167328000000001,106.50716262,2.9965703400000003,-19.25711838
0.39,39,0.016,-0.9520000000000001,0.33799999999999997,-1.6042823999999998,0.2291832000000001,1.145916,106.48997388,2.98511118,-19.25711838
0.4,40,0.016,-0.9520000000000001,0.33799999999999997,-1.4896908000000002,0.2291832000000001,1.0886202,106.53581052,2.89916748,-19.22847048
0.41000000000000003,41,0.016,-0.9520000000000001,0.337,-1.6042823999999998,0.4583664000000001,1.145916,106.51862178000002,2.88770832,-19.22847048
0.42000000000000004,42,0.015,-0.95,0.337,-1.3750992,0.4583664000000001,1.2032118,106.50716262,2.87051958,-19.22847048
0.43,43,0.011000000000000001,-0.951,0.337,-1.0886202,0.3437748,1.2032118,106.49570346,2.85906042,-19.22847048
0.44,44,0.01,-0.951,0.337,-1.145916,0.2291832000000001,1.2032118,106.4842443,2.84760126,-19.22847048
0.45,45,0.01,-0.9520000000000001,0.336,-1.2032118,0.5156622000000001,1.2032118,106.52435136,2.75592798,-19.19982258
0.46,46,0.01,-0.953,0.335,-1.0313244000000001,0.6875496,1.0886202,106.5128922,2.74446882,-19.19982258
0.47000000000000003,47,0.01,-0.953,0.336,-0.9167328000000001,0.7448454000000001,0.9740286,106.50716262,2.73300966,-19.194093
0.48000000000000004,48,0.009000000000000001,-0.9520000000000001,0.335,-0.9167328000000001,1.0313244000000001,0.9167328000000001,106.49570346,2.7215505,-19.18836342
0.49,49,0.009000000000000001,-0.953,0.33399999999999996,-0.9167328000000001,1.3178034,0.7448454000000001,106.4842443,2.71009134,-19.17690426
0.5,50,0.009000000000000001,-0.955,0.335,-0.9167328000000001,1.4896908000000002,0.6875496,106.51862178000002,2.6356068,-19.14252678
0.51,51,0.009000000000000001,-0.9570000000000001,0.33399999999999996,-0.9167328000000001,1.6042823999999998,0.8594370000000001,106.50716262,2.62414764,-19.13106762
0.52,52,0.01,-0.961,0.33299999999999996,-1.0313244000000001,1.6042823999999998,0.9167328000000001,106.49570346,2.6069589,-19.11387888
0.53,53,0.012,-0.9620000000000001,0.332,-1.2032118,1.5469866,0.9167328000000001,106.4842443,2.59549974,-19.10241972
0.54,54,0.013000000000000001,-0.9620000000000001,0.335,-1.2605076000000002,1.145916,0.9740286,106.47278514,2.578311,-19.09669014
0.55,55,0.013999999999999999,-0.9620000000000001,0.337,-1.3178034,0.9167328000000001,0.9740286,106.50716262,2.51528562,-19.07377182
0.56,56,0.013999999999999999,-0.961,0.33799999999999997,-1.432395,1.0313244000000001,0.9167328000000001,106.48997388,2.50382646,-19.06804224
0.5700000000000001,57,0.011000000000000001,-0.9590000000000001,0.33899999999999997,-1.4896908000000002,1.145916,0.8021411999999999,106.47851472,2.4923672999999997,-19.056583080000006
0.5800000000000001,58,0.009000000000000001,-0.9590000000000001,0.337,-1.6042823999999998,1.432395,0.6875496,106.46132598,2.48090814,-19.04512392
0.59,59,0.008,-0.96,0.335,-1.8334656000000005,1.5469866,0.572958,106.43840766,2.46944898,-19.03366476
0.6,60,0.006999999999999999,-0.9590000000000001,0.336,-2.0626488000000003,1.7188740000000002,0.6302538000000001,106.45559640000002,2.41788276,-19.00501686
0.61,61,0.009000000000000001,-0.9590000000000001,0.336,-2.291832,1.8334656000000005,0.6302538000000001,106.43267808,2.4064236,-18.98782812
0.62,62,0.011000000000000001,-0.9570000000000001,0.335,-2.291832,1.6615782,0.8021411999999999,106.40975976,2.38923486,-18.97636896
0.63,63,0.011000000000000001,-0.955,0.33399999999999996,-2.291832,1.432395,0.9167328000000001,106.38684144,2.3777757,-18.9649098
0.64,64,0.012,-0.953,0.336,-2.291832,1.2605076000000002,0.9740286,106.36392312,2.36631654,-18.95345064
0.65,65,0.012,-0.951,0.335,-2.4064236,1.0313244000000001,1.0313244000000001,106.38111186,2.3147503200000004,-18.9362619
0.66,66,0.012,-0.9520000000000001,0.33299999999999996,-2.4064236,0.9167328000000001,1.0313244000000001,106.35246396,2.30329116,-18.93053232
0.67,67,0.011000000000000001,-0.9540000000000001,0.33399999999999996,-2.2345362,0.8594370000000001,0.8594370000000001,106.32954564,2.2918320000000003,-18.92480274
0.68,68,0.009000000000000001,-0.9540000000000001,0.337,-2.2345362,0.8594370000000001,0.7448454000000001,106.30662732,2.28037284,-18.91907316
0.6900000000000001,69,0.009000000000000001,-0.956,0.335,-2.0626488000000003,0.8021411999999999,0.572958,106.28943858,2.2746432600000004,-18.91334358
0.7000000000000001,70,0.009000000000000001,-0.955,0.335,-1.8907614,0.8021411999999999,0.572958,106.32381605999998,2.21734746,-18.89042526
0.7100000000000001,71,0.009000000000000001,-0.9540000000000001,0.335,-1.8907614,0.6302538000000001,0.5156622000000001,106.30089774,2.2058883,-18.88469568
0.72,72,0.01,-0.953,0.335,-1.8334656000000005,0.572958,0.6875496,106.283709,2.20015872,-18.88469568
0.73,73,0.011000000000000001,-0.9540000000000001,0.335,-1.8334656000000005,0.4583664000000001,0.7448454000000001,106.26652026,2.18869956,-18.878966100000003
0.74,74,0.011000000000000001,-0.955,0.33399999999999996,-1.7761698000000001,0.3437748,0.9167328000000001,106.24933152,2.1772404,-18.878966100000003
0.75,75,0.012,-0.955,0.33399999999999996,-1.7761698000000001,0.1718874,0.8594370000000001,106.28943858,2.1199446,-18.86177736
0.76,76,0.01,-0.956,0.33299999999999996,-1.7761698000000001,0.1718874,0.8021411999999999,106.27224984,2.11421502,-18.86750694
0.77,77,0.008,-0.9570000000000001,0.33399999999999996,-1.6615782,0.1718874,0.8021411999999999,106.2550611,2.10275586,-18.86750694
0.78,78,0.006,-0.956,0.33299999999999996,-1.7188740000000002,0.1718874,0.7448454000000001,106.23787236,2.09702628,-18.86750694
0.79,79,0.006,-0.956,0.332,-1.7188740000000002,0.1718874,0.6302538000000001,106.22068362,2.0912967,-18.86750694
0.8,80,0.006,-0.956,0.332,-1.7761698000000001,0.11459160000000004,0.5156622000000001,106.26079068,2.02827132,-18.8503182
0.81,81,0.008,-0.955,0.332,-1.7761698000000001,0.057295800000000015,0.6302538000000001,106.24360194,2.02254174,-18.8503182
0.8200000000000001,82,0.008,-0.9540000000000001,0.33299999999999996,-1.7761698000000001,0.057295800000000015,0.572958,106.2264132,2.01681216,-18.8503182
0.8300000000000001,83,0.006999999999999999,-0.9540000000000001,0.33299999999999996,-1.8334656000000005,0.11459160000000004,0.5156622000000001,106.20922446,2.01108258,-18.8503182
0.8400000000000001,84,0.006,-0.955,0.332,-1.8334656000000005,0.11459160000000004,0.4583664000000001,106.18630614,2.005353,-18.8503182
0.85,85,0.005,-0.9570000000000001,0.32899999999999996,-2.0626488000000003,0.286479,0.2291832000000001,106.2264132,1.9480572000000005,-18.83312946
0.86,86,0.005,-0.956,0.32799999999999996,-2.291832,0.4583664000000001,0.0,106.1977653,1.9480572000000005,-18.82739988
0.87,87,0.005,-0.9540000000000001,0.32899999999999996,-2.5210152000000003,0.572958,-0.2291832000000001,106.17484697999998,1.9480572000000005,-18.8216703
0.88,88,0.003,-0.953,0.327,-2.6356068,0.8021411999999999,-0.6302538000000001,106.14619908,1.9480572000000005,-18.81594072
0.89,89,0.002,-0.953,0.32799999999999996,-2.6356068,0.9167328000000001,-0.9167328000000001,106.12328076,1.9595163600000003,-18.80448156
0.9,90,0.002,-0.955,0.32799999999999996,-2.5783110000000002,0.7448454000000001,-1.0313244000000001,106.12901034,1.92513888,-18.78156324
0.91,91,0.003,-0.9540000000000001,0.32899999999999996,-2.4064236,0.4583664000000001,-1.0313244000000001,106.10609201999998,1.93659804,-18.77583366
0.92,92,0.004,-0.955,0.33,-2.4637194,0.0,-1.0313244000000001,106.0831737,1.9480572000000005,-18.77010408
0.93,93,0.005,-0.9570000000000001,0.331,-2.4637194,-0.5156622000000001,-1.0886202,106.0545258,1.9595163600000003,-18.77010408
0.9400000000000001,94,0.004,-0.9570000000000001,0.332,-2.291832,-0.7448454000000001,-1.2032118,106.03160748,1.97097552,-18.77583366
0.9500000000000001,95,0.008,-0.9590000000000001,0.33,-2.291832,-0.6302538000000001,-1.145916,106.04306663999998,1.9595163600000003,-18.77010408
0.9600000000000001,96,0.011000000000000001,-0.956,0.33,-2.3491277999999998,-0.4583664000000001,-1.0313244000000001,106.02014832,1.97097552,-18.77583366
0.97,97,0.011000000000000001,-0.955,0.331,-2.4637194,-0.3437748,-0.9740286,105.99723,1.98243468,-18.77583366
0.98,98,0.01,-0.958,0.327,-2.3491277999999998,-0.6875496,-0.7448454000000001,105.97431168,1.98816426,-18.78156324
0.99,99,0.009000000000000001,-0.96,0.327,-2.0053530000000004,-1.432395,-0.6302538000000001,105.95139336,1.99962342,-18.7930224
1.0,100,0.006,-0.963,0.32799999999999996,-1.9480572,-1.7761698000000001,-0.572958,105.9685821,1.9767051,-18.79875198
1.01,101,0.005,-0.9640000000000001,0.327,-2.1199446,-1.7188740000000002,-0.4583664000000001,105.94566378,1.98816426,-18.81021114
1.02,102,0.004,-0.9620000000000001,0.324,-2.0053530000000004,-1.4896908000000002,-0.5156622000000001,105.92274546,1.99962342,-18.82739988
1.03,103,0.001,-0.9620000000000001,0.325,-1.7188740000000002,-1.145916,-0.572958,105.90555672,2.005353,-18.83312946
1.04,104,0.002,-0.9620000000000001,0.326,-1.7188740000000002,-0.8021411999999999,-0.572958,105.88836798,2.01681216,-18.83885904
1.05,105,0.003,-0.958,0.325,-1.9480572,-0.3437748,-0.572958,105.92274546,1.96524594,-18.82739988
1.06,106,0.005,-0.9570000000000001,0.324,-2.0626488000000003,0.057295800000000015,-0.6302538000000001,105.90555672,1.97097552,-18.8216703
1.07,107,0.008,-0.9570000000000001,0.322,-1.9480572,0.1718874,-0.5156622000000001,105.8826384,1.9767051,-18.8216703
1.08,108,0.01,-0.9570000000000001,0.322,-1.7188740000000002,-0.057295800000000015,-0.4583664000000001,105.86544966,1.98243468,-18.8216703
1.09,109,0.011000000000000001,-0.956,0.322,-1.6615782,-0.286479,-0.40107059999999994,105.84826092,1.98816426,-18.8216703
1.1,110,0.011000000000000001,-0.956,0.322,-1.7761698000000001,-0.4583664000000001,-0.40107059999999994,105.8826384,1.95378678,-18.81594072
1.11,111,0.012,-0.9570000000000001,0.321,-1.8334656000000005,-0.572958,-0.40107059999999994,105.86544966,1.9595163600000003,-18.8216703
1.12,112,0.013999999999999999,-0.956,0.321,-1.8907614,-0.5156622000000001,-0.40107059999999994,105.84253134,1.96524594,-18.8216703
1.1300000000000001,113,0.015,-0.956,0.319,-1.7188740000000002,-0.572958,-0.4583664000000001,105.8253426,1.97097552,-18.82739988
1.1400000000000001,114,0.016,-0.955,0.32,-1.6042823999999998,-0.7448454000000001,-0.5156622000000001,105.80815386,1.98243468,-18.83312946
1.1500000000000001,115,0.015,-0.955,0.322,-1.4896908000000002,-0.6875496,-0.6875496,105.84253134,1.96524594,-18.83312946
1.1600000000000001,116,0.013999999999999999,-0.956,0.32,-1.3750992,-0.572958,-0.8021411999999999,105.83107218,1.97097552,-18.83312946
1.17,117,0.016,-0.9590000000000001,0.321,-1.3750992,-0.40107059999999994,-0.8594370000000001,105.81388344,1.98243468,-18.83885904
1.18,118,0.016,-0.96,0.322,-1.4896908000000002,-0.1718874,-0.9167328000000001,105.80242428,1.99389384,-18.83312946
1.19,119,0.018000000000000002,-0.96,0.321,-1.6042823999999998,-0.1718874,-0.8594370000000001,105.78523554,1.99962342,-18.83312946
1.2,120,0.019,-0.961,0.321,-1.6042823999999998,-0.5156622000000001,-0.8021411999999999,105.80815386,1.99389384,-18.83312946
1.21,121,0.02,-0.9620000000000001,0.321,-1.4896908000000002,-1.2032118,-0.572958,105.7966947,1.99962342,-18.844588620000003
1.22,122,0.019,-0.96,0.32299999999999995,-1.6615782,-1.6615782,-0.4583664000000001,105.77950596,2.01108258,-18.85604778
1.23,123,0.018000000000000002,-0.961,0.32299999999999995,-1.6042823999999998,-2.0626488000000003,-0.4583664000000001,105.76231722,2.02254174,-18.87323652
1.24,124,0.015,-0.96,0.325,-1.6615782,-2.0626488000000003,-0.40107059999999994,105.74512848,2.0340009,-18.89615484
1.25,125,0.016,-0.96,0.325,-1.6615782,-1.8907614,-0.5156622000000001,105.7680468,2.02254174,-18.907614000000002
1.26,126,0.015,-0.9590000000000001,0.327,-1.6042823999999998,-1.5469866,-0.572958,105.75085806,2.0340009,-18.91907316
1.27,127,0.015,-0.96,0.326,-1.6042823999999998,-1.432395,-0.6302538000000001,105.73366932000002,2.04546006,-18.93053232
1.28,128,0.017,-0.958,0.327,-1.432395,-1.3750992,-0.572958,105.71648058,2.05691922,-18.94199148
1.29,129,0.018000000000000002,-0.958,0.325,-1.432395,-1.3750992,-0.5156622000000001,105.69929184,2.0626488000000003,-18.95345064
1.3,130,0.018000000000000002,-0.96,0.325,-1.4896908000000002,-1.3750992,-0.4583664000000001,105.73366932000002,2.05691922,-18.95918022
1.31,131,0.019,-0.958,0.32299999999999995,-1.432395,-1.6042823999999998,-0.286479,105.71648058,2.0626488000000003,-18.97636896
1.32,132,0.018000000000000002,-0.9570000000000001,0.324,-1.432395,-1.7188740000000002,-0.286479,105.70502142,2.06837838,-18.9935577
1.33,133,0.018000000000000002,-0.9570000000000001,0.324,-1.4896908000000002,-1.8907614,-0.3437748,105.68783268,2.07983754,-19.01074644
1.34,134,0.018000000000000002,-0.9570000000000001,0.324,-1.432395,-2.0626488000000003,-0.3437748,105.67064394000002,2.0912967,-19.02793518
1.35,135,0.017,-0.9570000000000001,0.32299999999999995,-1.432395,-2.0626488000000003,-0.3437748,105.69929184,2.07410796,-19.03939434
1.36,136,0.016,-0.958,0.324,-1.3178034,-1.9480572,-0.3437748,105.68783268,2.08556712,-19.056583080000006
1.37,137,0.013000000000000001,-0.9570000000000001,0.326,-1.432395,-1.8334656000000005,-0.3437748,105.67064394000002,2.0912967,-19.07377182
1.3800000000000001,138,0.013000000000000001,-0.955,0.32799999999999996,-1.4896908000000002,-1.4896908000000002,-0.3437748,105.6534552,2.10275586,-19.09096056
1.3900000000000001,139,0.013999999999999999,-0.955,0.326,-1.432395,-1.0313244000000001,-0.40107059999999994,105.64199604,2.10848544,-19.09669014
1.4000000000000001,140,0.015,-0.956,0.324,-1.432395,-0.7448454000000001,-0.40107059999999994,105.68783268,2.08556712,-19.09669014
1.4100000000000001,141,0.017,-0.958,0.32299999999999995,-1.432395,-0.6302538000000001,-0.3437748,105.67064394000002,2.0912967,-19.09669014
1.42,142,0.018000000000000002,-0.958,0.322,-1.432395,-0.5156622000000001,-0.3437748,105.65918478,2.0912967,-19.10241972
1.43,143,0.018000000000000002,-0.96,0.321,-1.6042823999999998,-0.5156622000000001,-0.40107059999999994,105.64199604,2.09702628,-19.1081493
1.44,144,0.018000000000000002,-0.9590000000000001,0.32,-1.6615782,-0.4583664000000001,-0.40107059999999994,105.62480729999999,2.10275586,-19.11387888
1.45,145,0.018000000000000002,-0.9590000000000001,0.321,-1.6042823999999998,-0.572958,-0.3437748,105.66491436,2.08556712,-19.1081493
1.46,146,0.018000000000000002,-0.958,0.321,-1.5469866,-0.6875496,-0.3437748,105.64772562,2.0912967,-19.11387888
1.47,147,0.018000000000000002,-0.9590000000000001,0.321,-1.6042823999999998,-0.7448454000000001,-0.40107059999999994,105.63053688,2.09702628,-19.11960846
1.48,148,0.016,-0.96,0.32,-1.5469866,-0.572958,-0.40107059999999994,105.61907772,2.10275586,-19.12533804
1.49,149,0.016,-0.96,0.32,-1.6615782,-0.3437748,-0.4583664000000001,105.60188898,2.10848544,-19.12533804
1.5,150,0.017,-0.961,0.321,-1.4896908000000002,-0.5156622000000001,-0.3437748,105.64199604,2.07983754,-19.12533804
1.51,151,0.016,-0.963,0.319,-1.3178034,-0.6302538000000001,-0.286479,105.63053688,2.08556712,-19.13106762
1.52,152,0.017,-0.9620000000000001,0.321,-1.2605076000000002,-0.572958,-0.3437748,105.61907772,2.0912967,-19.13106762
1.53,153,0.016,-0.9620000000000001,0.321,-1.3178034,-0.40107059999999994,-0.3437748,105.60188898,2.09702628,-19.1367972
1.54,154,0.017,-0.96,0.32299999999999995,-1.432395,-0.2291832000000001,-0.4583664000000001,105.59042981999998,2.10275586,-19.1367972
1.55,155,0.016,-0.963,0.319,-1.3750992,0.0,-0.5156622000000001,105.64772562,2.06837838,-19.12533804
1.56,156,0.019,-0.9620000000000001,0.321,-1.3750992,0.40107059999999994,-0.6302538000000001,105.63626646,2.07410796,-19.11960846
1.57,157,0.021,-0.961,0.321,-1.6042823999999998,0.9740286,-0.6302538000000001,105.61907772,2.07410796,-19.1081493
1.58,158,0.024,-0.96,0.321,-2.0053530000000004,1.2032118,-0.572958,105.5961594,2.07983754,-19.09669014
1.59,159,0.024,-0.958,0.317,-1.6615782,0.9740286,-0.40107059999999994,105.57897066,2.07983754,-19.08523098
1.6,160,0.023,-0.958,0.32,-1.0886202,0.286479,-0.3437748,105.6821031,2.05691922,-19.07377182
1.61,161,0.019,-0.96,0.32299999999999995,-1.145916,-0.057295800000000015,-0.057295800000000015,105.67064394000002,2.05691922,-19.07377182
1.62,162,0.018000000000000002,-0.958,0.32299999999999995,-1.2032118,-0.2291832000000001,-0.057295800000000015,105.65918478,2.05691922,-19.079501399999998
1.6300000000000001,163,0.015,-0.9570000000000001,0.322,-0.7448454000000001,-0.11459160000000004,-0.11459160000000004,105.6534552,2.05691922,-19.079501399999998
1.6400000000000001,164,0.013999999999999999,-0.9570000000000001,0.325,-0.3437748,0.1718874,-0.057295800000000015,105.64772562,2.0626488000000003,-19.07377182
1.6500000000000001,165,0.015,-0.9590000000000001,0.326,-0.40107059999999994,0.572958,-0.057295800000000015,105.76231722,2.01108258,-19.056583080000006
1.6600000000000001,166,0.018000000000000002,-0.958,0.324,-0.40107059999999994,1.0313244000000001,-0.057295800000000015,105.75658764,2.01108258,-19.04512392
1.6700000000000002,167,0.021,-0.956,0.324,-0.286479,1.3750992,-0.057295800000000015,105.75658764,2.005353,-19.03366476
1.68,168,0.024,-0.956,0.322,-0.11459160000000004,1.4896908000000002,-0.057295800000000015,105.75658764,1.99962342,-19.01647602
1.69,169,0.023,-0.955,0.321,-0.11459160000000004,1.5469866,0.0,105.75085806,1.99962342,-19.00501686
1.7,170,0.022000000000000002,-0.9570000000000001,0.318,-0.057295800000000015,1.6042823999999998,0.0,105.81961302,1.9767051,-18.982098540000006
1.71,171,0.021,-0.956,0.316,-0.057295800000000015,1.432395,-0.057295800000000015,105.81388344,1.97097552,-18.97063938
1.72,172,0.02,-0.955,0.315,0.0,1.4896908000000002,-0.057295800000000015,105.81388344,1.97097552,-18.95345064
1.73,173,0.024,-0.9540000000000001,0.314,0.0,1.3750992,-0.057295800000000015,105.81961302,1.96524594,-18.94199148
1.74,174,0.023,-0.958,0.312,0.057295800000000015,0.9167328000000001,0.0,105.81961302,1.9595163600000003,-18.93053232
1.75,175,0.023,-0.958,0.315,0.0,0.4583664000000001,0.11459160000000004,106.01441874,1.89649098,-18.907614000000002
1.76,176,0.02,-0.9570000000000001,0.315,0.11459160000000004,0.1718874,0.057295800000000015,106.02014832,1.89649098,-18.907614000000002
1.77,177,0.017,-0.9590000000000001,0.318,0.1718874,0.286479,0.0,106.02014832,1.89649098,-18.90188442
1.78,178,0.016,-0.9570000000000001,0.32,0.2291832000000001,0.6302538000000001,-0.057295800000000015,106.02587790000001,1.89649098,-18.89615484
1.79,179,0.016,-0.9570000000000001,0.321,0.286479,1.0313244000000001,-0.1718874,106.02587790000001,1.8907614,-18.88469568
1.8,180,0.017,-0.9590000000000001,0.319,0.286479,1.2032118,-0.1718874,106.09463286,1.85638392,-18.86750694
1.81,181,0.02,-0.961,0.32,0.286479,1.0313244000000001,0.0,106.10036244,1.85638392,-18.85604778
1.82,182,0.022000000000000002,-0.961,0.32,0.286479,0.7448454000000001,0.2291832000000001,106.10036244,1.85065434,-18.8503182
1.83,183,0.023,-0.961,0.32,0.11459160000000004,0.5156622000000001,0.40107059999999994,106.10609201999998,1.84492476,-18.844588620000003
1.84,184,0.022000000000000002,-0.9620000000000001,0.322,0.057295800000000015,0.2291832000000001,0.5156622000000001,106.10609201999998,1.83919518,-18.844588620000003
1.85,185,0.021,-0.963,0.32299999999999995,0.057295800000000015,0.057295800000000015,0.40107059999999994,106.29516816,1.78189938,-18.83312946
1.86,186,0.018000000000000002,-0.9620000000000001,0.324,-0.11459160000000004,0.1718874,0.286479,106.28943858,1.7761698000000001,-18.83312946
1.87,187,0.018000000000000002,-0.961,0.325,-0.11459160000000004,0.3437748,0.2291832000000001,106.28943858,1.7761698000000001,-18.82739988
1.8800000000000001,188,0.018000000000000002,-0.96,0.324,-0.1718874,0.572958,0.11459160000000004,106.28943858,1.77044022,-18.8216703
1.8900000000000001,189,0.017,-0.961,0.322,-0.1718874,0.6302538000000001,0.11459160000000004,106.283709,1.77044022,-18.81594072
1.9000000000000001,190,0.015,-0.96,0.321,-0.2291832000000001,0.572958,0.1718874,106.34673438,1.73033316,-18.80448156
1.9100000000000001,191,0.015,-0.9590000000000001,0.321,-0.2291832000000001,0.572958,0.286479,106.34673438,1.7246035799999997,-18.79875198
1.9200000000000002,192,0.017,-0.961,0.324,-0.1718874,0.5156622000000001,0.286479,106.34673438,1.7188740000000002,-18.7930224
1.93,193,0.019,-0.9590000000000001,0.32899999999999996,-0.1718874,0.572958,0.286479,106.3410048,1.71314442,-18.78729282
1.94,194,0.021,-0.956,0.33299999999999996,0.0,1.0313244000000001,0.2291832000000001,106.3410048,1.7074148399999998,-18.78156324
1.95,195,0.022000000000000002,-0.9570000000000001,0.33299999999999996,-0.11459160000000004,1.7761698000000001,0.0,106.38684144,1.70168526,-18.7643745
1.96,196,0.02,-0.958,0.325,-0.9167328000000001,2.1199446,-0.286479,106.38111186,1.70168526,-18.74145618
1.97,197,0.018000000000000002,-0.958,0.318,-1.3178034,1.6042823999999998,-0.3437748,106.36392312,1.6959556799999995,-18.72426744
1.98,198,0.015,-0.961,0.321,-1.2032118,0.9167328000000001,-0.286479,106.35246396,1.6959556799999995,-18.71853786
1.99,199,0.012,-0.963,0.322,-1.2605076000000002,0.4583664000000001,-0.057295800000000015,106.3410048,1.6959556799999995,-18.71280828
2.0,200,0.011000000000000001,-0.96,0.322,-1.145916,0.0,0.0,106.39257102,1.6615782,-18.70134912
2.01,201,0.013000000000000001,-0.9590000000000001,0.325,-0.9167328000000001,-0.2291832000000001,0.11459160000000004,106.38111186,1.6615782,-18.707078699999997
2.02,202,0.017,-0.9590000000000001,0.327,-1.0313244000000001,0.0,0.11459160000000004,106.3696527,1.6558486199999998,-18.707078699999997
2.03,203,0.02,-0.958,0.325,-1.145916,0.2291832000000001,0.057295800000000015,106.35819354,1.6558486199999998,-18.70134912
2.04,204,0.021,-0.956,0.32799999999999996,-1.0313244000000001,0.286479,0.0,106.34673438,1.6558486199999998,-18.70134912
2.05,205,0.021,-0.9570000000000001,0.32899999999999996,-0.9740286,0.286479,-0.11459160000000004,106.40403018000002,1.64438946,-18.69561954
2.0599999999999996,206,0.018000000000000002,-0.9570000000000001,0.325,-1.0886202,0.5156622000000001,-0.286479,106.39257102,1.65011904,-18.68988996
2.07,207,0.013999999999999999,-0.961,0.324,-1.3750992,0.40107059999999994,-0.40107059999999994,106.38111186,1.65011904,-18.68416038
2.0799999999999996,208,0.012,-0.963,0.326,-1.7761698000000001,0.11459160000000004,-0.3437748,106.36392312,1.6558486199999998,-18.68416038
2.09,209,0.01,-0.9640000000000001,0.325,-1.9480572,-0.11459160000000004,-0.2291832000000001,106.3410048,1.6558486199999998,-18.68416038
2.0999999999999996,210,0.011000000000000001,-0.966,0.33,-2.1772404,-0.11459160000000004,-0.057295800000000015,106.36392312,1.6386598799999998,-18.6784308
2.11,211,0.013999999999999999,-0.9620000000000001,0.336,-2.3491277999999998,-0.2291832000000001,0.1718874,106.33527522,1.6386598799999998,-18.68416038
2.1199999999999997,212,0.015,-0.9570000000000001,0.33899999999999997,-2.291832,-0.8594370000000001,0.4583664000000001,106.3123569,1.6386598799999998,-18.69561954
2.13,213,0.013000000000000001,-0.956,0.345,-2.291832,-1.5469866,0.6875496,106.28943858,1.6386598799999998,-18.71280828
2.1399999999999997,214,0.013000000000000001,-0.958,0.341,-3.0366774,-1.4896908000000002,0.572958,106.26079068,1.6329303,-18.729997020000006
2.15,215,0.016,-0.968,0.332,-4.8701430000000006,-0.4583664000000001,0.1718874,106.2264132,1.6329303,-18.7357266
2.1599999999999997,216,0.021,-0.978,0.321,-6.4744254,0.8594370000000001,-0.3437748,106.15765824,1.6329303,-18.72426744
2.17,217,0.022000000000000002,-0.983,0.317,-6.6463128000000005,2.0626488000000003,-0.9167328000000001,106.08890328,1.6329303,-18.707078699999997
2.1799999999999997,218,0.023,-0.985,0.322,-6.0733548,2.291832,-1.0886202,106.03160748,1.6386598799999998,-18.6784308
2.19,219,0.024,-0.978,0.32899999999999996,-6.2452422,2.0053530000000004,-1.0886202,105.9685821,1.64438946,-18.66124206
2.1999999999999997,220,0.023,-0.97,0.325,-6.2452422,0.8594370000000001,-0.9740286,105.91701588,1.65011904,-18.6497829
2.21,221,0.022000000000000002,-0.9670000000000001,0.32299999999999995,-6.2452422,-0.572958,-0.6302538000000001,105.8539905,1.6558486199999998,-18.6497829
2.2199999999999998,222,0.02,-0.966,0.331,-6.3598338,-1.2032118,-0.3437748,105.79096511999998,1.6615782,-18.66124206
2.23,223,0.018000000000000002,-0.9620000000000001,0.336,-6.589017,-0.8594370000000001,-0.3437748,105.72221016,1.67303736,-18.67270122
2.2399999999999998,224,0.018000000000000002,-0.953,0.341,-6.3025379999999975,-0.1718874,-0.4583664000000001,105.65918478,1.67303736,-18.67270122
2.25,225,0.018000000000000002,-0.948,0.341,-5.72958,0.4583664000000001,-0.8021411999999999,105.63053688,1.6787669399999998,-18.66697164
2.26,226,0.021,-0.9470000000000001,0.337,-5.9014674000000005,0.8021411999999999,-1.2032118,105.5675115,1.6902260999999998,-18.65551248
2.27,227,0.024,-0.9470000000000001,0.327,-6.3598338,1.0313244000000001,-1.5469866,105.50448612,1.70168526,-18.64405332
2.28,228,0.025,-0.95,0.321,-6.4744254,1.2032118,-2.0053530000000004,105.43573116,1.71314442,-18.62686458
2.29,229,0.023,-0.9520000000000001,0.32,-6.4744254,1.2032118,-2.2345362,105.37270577999998,1.73606274,-18.60967584
2.3,230,0.02,-0.9540000000000001,0.322,-6.3598338,1.0313244000000001,-2.3491277999999998,105.32686914,1.75325148,-18.5924871
2.31,231,0.018000000000000002,-0.9540000000000001,0.326,-6.2452422,0.8021411999999999,-2.2345362,105.26384376,1.77044022,-18.58102794
2.32,232,0.017,-0.956,0.331,-6.3025379999999975,0.6302538000000001,-1.9480572,105.1950888,1.78762896,-18.56956878
2.3299999999999996,233,0.022000000000000002,-0.96,0.32299999999999995,-6.417129599999999,0.40107059999999994,-1.6615782,105.13206342,1.79908812,-18.5638392
2.34,234,0.027000000000000003,-0.966,0.32,-7.161975,-0.057295800000000015,-1.432395,105.05757887999998,1.81627686,-18.55810962
2.3499999999999996,235,0.031,-0.97,0.321,-7.906820400000001,-0.8594370000000001,-1.2032118,104.9945535,1.8334656000000005,-18.56956878
2.36,236,0.03,-0.971,0.32,-8.307891,-1.0886202,-1.2605076000000002,104.9086098,1.84492476,-18.57529836
2.3699999999999997,237,0.03,-0.9740000000000001,0.321,-8.880849000000003,-1.0886202,-1.2605076000000002,104.81693652,1.8621134999999998,-18.58675752
2.38,238,0.028999999999999998,-0.978,0.316,-9.453807,-1.0313244000000001,-1.3750992,104.72526323999998,1.87930224,-18.5924871
2.3899999999999997,239,0.025,-0.978,0.314,-9.9121734,-0.8021411999999999,-1.5469866,104.6221308,1.89649098,-18.59821668
2.4,240,0.022000000000000002,-0.981,0.311,-10.4278356,-0.5156622000000001,-1.7761698000000001,104.52472794,1.91367972,-18.59821668
2.4099999999999997,241,0.022000000000000002,-0.982,0.311,-10.657018800000001,-0.572958,-1.8907614,104.41586592000002,1.93086846,-18.60394626
2.42,242,0.022000000000000002,-0.985,0.313,-11.0007936,-0.9740286,-1.9480572,104.30700390000001,1.95378678,-18.60967584
2.4299999999999997,243,0.022000000000000002,-0.985,0.316,-11.45916,-1.3750992,-1.8334656000000005,104.18668272,1.97097552,-18.61540542
2.44,244,0.023,-0.9840000000000001,0.315,-11.8602306,-1.7188740000000002,-1.8334656000000005,104.06636154,1.99389384,-18.63259416
2.4499999999999997,245,0.022000000000000002,-0.982,0.311,-12.032118,-1.7761698000000001,-1.7188740000000002,103.95749951999998,2.01681216,-18.64405332
2.46,246,0.024,-0.981,0.309,-12.3758928,-2.0626488000000003,-1.4896908000000002,103.83144876,2.0340009,-18.66124206
2.4699999999999998,247,0.023,-0.9790000000000001,0.305,-12.7196676,-2.6356068,-1.432395,103.69966842,2.05691922,-18.68988996
2.48,248,0.02,-0.977,0.301,-13.0061466,-2.86479,-1.6042823999999998,103.56788808000002,2.07410796,-18.71280828
2.4899999999999998,249,0.021,-0.972,0.297,-13.0634424,-2.86479,-1.7761698000000001,103.43610774,2.10275586,-18.7357266
2.5,250,0.02,-0.971,0.297,-13.120738199999998,-2.6356068,-2.0626488000000003,103.31005697999998,2.12567418,-18.75864492
2.51,251,0.024,-0.971,0.299,-13.464512999999998,-3.1512689999999997,-2.1772404,103.17254706,2.15432208,-18.78729282
2.52,252,0.025,-0.971,0.295,-13.750992000000002,-4.2398892,-2.1772404,103.03503714,2.18296998,-18.8216703
2.53,253,0.025,-0.9690000000000001,0.287,-13.9228794,-4.6409598,-2.2345362,102.89179763999998,2.21734746,-18.86750694
2.54,254,0.025,-0.97,0.282,-13.9228794,-4.1252976000000015,-2.291832,102.74855814,2.25172494,-18.90188442
2.55,255,0.027000000000000003,-0.971,0.282,-14.209358400000001,-3.5523396000000003,-2.3491277999999998,102.61104822,2.28037284,-18.93053232
2.56,256,0.03,-0.971,0.282,-14.4958374,-3.4950437999999995,-2.3491277999999998,102.46207914,2.30902074,-18.9649098
2.57,257,0.031,-0.976,0.27899999999999997,-14.8396122,-3.5523396000000003,-2.3491277999999998,102.31311006,2.34339822,-18.9935577
2.5799999999999996,258,0.031,-0.9790000000000001,0.273,-15.297978599999999,-3.7815228,-2.4064236,102.1584114,2.37204612,-19.02793518
2.59,259,0.03,-0.98,0.273,-15.928232399999999,-4.297185,-2.5210152000000003,101.99225357999998,2.4064236,-19.06804224
2.5999999999999996,260,0.03,-0.982,0.276,-16.329303,-5.3285094000000015,-2.5210152000000003,101.83182534,2.44080108,-19.11387888
2.61,261,0.027999999999999997,-0.9840000000000001,0.272,-16.386598799999998,-6.1879464,-2.5783110000000002,101.66566752,2.48090814,-19.17117468
2.6199999999999997,262,0.024,-0.985,0.264,-16.4438946,-5.7868758000000025,-2.6356068,101.4995097,2.5210152000000003,-19.2227409
2.63,263,0.026000000000000002,-0.985,0.264,-17.0168526,-4.8128472,-2.86479,101.32189272,2.55539268,-19.26284796
2.6399999999999997,264,0.03,-0.986,0.265,-17.761698000000006,-4.5263682,-3.0939732,101.14427573999998,2.59549974,-19.30295502
2.65,265,0.031,-0.9890000000000001,0.262,-18.449247600000003,-4.297185,-3.2085647999999996,100.96092918,2.6356068,-19.34306208
2.6599999999999997,266,0.034,-0.991,0.261,-19.194093,-4.583664,-3.2658606,100.76612346,2.67571386,-19.38316914
2.67,267,0.036000000000000004,-0.993,0.258,-19.9962342,-5.2139178,-3.0366774,100.55985858,2.71582092,-19.42900578
2.6799999999999997,268,0.036000000000000004,-0.995,0.25,-20.5118964,-5.042030400000002,-3.0939732,100.34786412,2.75592798,-19.47484242
2.69,269,0.038,-0.998,0.249,-20.912967000000002,-4.583664,-3.1512689999999997,100.13586966,2.79030546,-19.52067906
2.6999999999999997,270,0.04,-0.996,0.247,-21.4286292,-4.2398892,-3.1512689999999997,99.9238752,2.83041252,-19.55505654
2.71,271,0.040999999999999995,-0.996,0.243,-21.886995600000002,-3.7242269999999995,-3.380452200000001,99.70042158,2.87051958,-19.58943402
2.7199999999999998,272,0.042,-0.997,0.23800000000000002,-22.4599536,-3.4377480000000005,-3.4377480000000005,99.47123838,2.91062664,-19.6238115
2.73,273,0.043,-0.998,0.23600000000000002,-23.0329116,-3.2658606,-3.6669312000000014,99.23632559999999,2.9507337000000002,-19.652459399999998
2.7399999999999998,274,0.043,-1.001,0.24,-23.605869600000002,-3.8961144,-3.7242269999999995,98.99568324,2.99084076,-19.68683688
2.75,275,0.045,-1.0,0.244,-24.1788276,-6.130650599999999,-3.5523396000000003,98.75504088,3.0366774000000003,-19.74413268
2.76,276,0.040999999999999995,-0.9990000000000001,0.239,-24.4080108,-7.1046792000000005,-3.4377480000000005,98.50293936,3.0825140400000004,-19.80715806
2.77,277,0.043,-1.0,0.22899999999999998,-25.0955604,-6.2452422,-3.5523396000000003,98.24510826,3.12835068,-19.87018344
2.78,278,0.05,-1.0,0.22899999999999998,-26.241476399999996,-5.0993262,-3.4950437999999995,97.98154758,3.16845774,-19.91602008
2.79,279,0.052000000000000005,-0.998,0.22699999999999998,-27.3873924,-4.1825934,-3.4950437999999995,97.70079816,3.2085648000000004,-19.95612714
2.8,280,0.05,-1.0,0.21600000000000005,-27.788463,-3.1512689999999997,-3.380452200000001,97.42577832,3.24294228,-19.98477504
2.81,281,0.05,-1.004,0.21100000000000002,-28.1895336,-1.9480572,-3.4377480000000005,97.13929932,3.27731976,-20.00196378
2.82,282,0.049,-1.005,0.20800000000000002,-29.1062664,-0.4583664000000001,-3.5523396000000003,96.84136116,3.3116972399999995,-20.00769336
2.8299999999999996,283,0.051,-1.0090000000000001,0.204,-30.137590799999998,0.6875496,-3.7815228,96.53769342,3.34607472,-20.00196378
2.84,284,0.052000000000000005,-1.008,0.204,-30.7678446,0.572958,-3.8388186,96.22256652,3.380452200000001,-19.9962342
2.8499999999999996,285,0.05,-1.0070000000000001,0.204,-31.3980984,-0.572958,-3.7815228,95.9131692,3.42055926,-19.9962342
2.86,286,0.046,-1.002,0.19899999999999998,-32.7159018,-1.3750992,-3.6669312000000014,95.58085356,3.45493674,-20.01342294
2.8699999999999997,287,0.046,-1.001,0.19399999999999998,-34.2055926,-1.5469866,-3.7242269999999995,95.23134918,3.48931422,-20.03061168
2.88,288,0.046,-0.9990000000000001,0.183,-35.809875,-0.9167328000000001,-3.8961144,94.87038564,3.52942128,-20.03634126
2.8899999999999997,289,0.045,-1.0,0.172,-37.3568616,0.40107059999999994,-4.4690724,94.48650378,3.56952834,-20.03634126
2.9,290,0.045,-0.997,0.162,-38.5600734,1.6615782,-5.042030400000002,94.10262192,3.61536498,-20.01915252
2.9099999999999997,291,0.05,-0.996,0.146,-39.304918799999996,2.9793816000000004,-5.5576926,93.7072809,3.666931200000001,-19.99050462
2.92,292,0.052000000000000005,-1.0,0.138,-39.6486936,3.380452200000001,-5.72958,93.3062103,3.71276784,-19.95612714
2.9299999999999997,293,0.057999999999999996,-1.002,0.13,-39.9351726,3.6669312000000014,-5.7868758000000025,92.89941012,3.76433406,-19.92174966
2.94,294,0.063,-1.0070000000000001,0.13,-40.5654264,3.5523396000000003,-5.72958,92.49260994,3.81590028,-19.88737218
2.9499999999999997,295,0.068,-1.012,0.135,-41.76863820000001,2.5210152000000003,-5.5003968,92.07435059999999,3.8674665,-19.86445386
2.96,296,0.069,-1.013,0.136,-43.1437374,1.3750992,-5.0993262,91.63890252,3.91330314,-19.85872428
2.9699999999999998,297,0.067,-1.014,0.125,-44.4615408,1.145916,-4.8701430000000006,91.1862657,3.95913978,-19.84726512
2.98,298,0.065,-1.014,0.11,-45.4928652,1.8334656000000005,-4.6409598,90.7278993,4.00497642,-19.83580596
2.9899999999999998,299,0.064,-1.004,0.095,-46.00852740000001,2.4637194,-4.4117766,90.25807374,4.0393539,-19.812887640000003
3.0,300,0.061,-0.993,0.1,-45.3782736,2.2345362,-4.297185,89.8111665,4.0794609600000005,-19.7956989
3.01,301,0.055,-0.986,0.099,-44.4615408,1.9480572,-4.1825934,89.35852968,4.11956802,-19.78423974
3.02,302,0.054000000000000006,-0.985,0.095,-44.06047020000001,2.1772404,-3.9534102,88.91162244,4.1539455,-19.767051
3.03,303,0.055999999999999994,-0.9990000000000001,0.09300000000000001,-43.77399120000001,2.1199446,-3.8388186,88.47044478000002,4.1883229800000015,-19.74986226
3.04,304,0.057,-1.015,0.085,-44.690723999999996,2.9220858,-3.6096353999999997,88.01780796,4.22270046,-19.72694394
3.05,305,0.062,-1.011,0.071,-46.29500640000001,3.9534102,-3.2658606,87.55371198,4.25134836,-19.69256646
3.06,306,0.068,-0.996,0.08199999999999999,-45.893935799999994,3.7242269999999995,-2.5783110000000002,87.089616,4.27426668,-19.66391856
3.07,307,0.07,-0.983,0.083,-44.9199072,3.1512689999999997,-1.6615782,86.63697918,4.28572584,-19.63527066
3.08,308,0.069,-0.968,0.066,-44.9199072,2.6356068,-0.9167328000000001,86.18434235999996,4.29145542,-19.61808192
3.09,309,0.068,-0.9590000000000001,0.062,-44.175061799999995,2.0626488000000003,-0.5156622000000001,85.73170554,4.297185000000002,-19.60089318
3.0999999999999996,310,0.067,-0.951,0.057,-43.20103320000001,1.7761698000000001,-0.4583664000000001,85.30771662,4.297185000000002,-19.58370444
3.11,311,0.062,-0.945,0.044000000000000004,-42.742666799999995,1.432395,-0.5156622000000001,84.87799812,4.297185000000002,-19.57797486
3.1199999999999997,312,0.062,-0.946,0.04,-41.825934000000004,1.2032118,-0.572958,84.44827962000002,4.30291458,-19.57224528
3.13,313,0.057999999999999996,-0.958,0.039,-41.0810886,1.2605076000000002,-0.6302538000000001,84.03574986,4.30291458,-19.56078612
3.1399999999999997,314,0.055999999999999994,-0.972,0.04,-41.0237928,1.6615782,-0.8594370000000001,83.61749052,4.31437374,-19.54932696
3.15,315,0.061,-0.981,0.039,-41.0810886,2.4637194,-0.9740286,83.21641991999998,4.3201033199999985,-19.53213822
3.1599999999999997,316,0.073,-0.9890000000000001,0.027999999999999997,-41.3675676,3.4950437999999995,-0.9740286,82.79816058,4.3315624800000005,-19.50349032
3.17,317,0.084,-0.9890000000000001,0.013999999999999999,-41.7113424,4.1825934,-0.6875496,82.37990124000002,4.33729206,-19.46338326
3.1799999999999997,318,0.086,-0.986,0.005,-41.539455,4.0680017999999984,-0.40107059999999994,81.95591232000002,4.34302164,-19.42900578
3.19,319,0.079,-0.9890000000000001,0.003,-40.8519054,3.9534102,-0.286479,81.54338256,4.34302164,-19.3946283
3.1999999999999997,320,0.07200000000000001,-0.996,0.01,-40.90920120000001,3.6096353999999997,-0.1718874,81.14804154,4.34875122,-19.36025082
3.21,321,0.065,-1.0,0.002,-41.3102718,3.2658606,-0.1718874,80.7297822,4.34875122,-19.337332500000002
3.2199999999999998,322,0.057,-1.0090000000000001,-0.006999999999999999,-41.3102718,2.1199446,-0.3437748,80.31152286,4.3544808,-19.32014376
3.23,323,0.043,-1.018,-0.011000000000000001,-42.112413000000004,0.8021411999999999,-1.0313244000000001,79.88753394,4.36021038,-19.31441418
3.2399999999999998,324,0.042,-1.018,-0.018000000000000002,-42.5707794,0.1718874,-1.8334656000000005,79.45208586,4.37166954,-19.32014376
3.25,325,0.047,-1.022,-0.025,-42.28430039999999,-0.286479,-2.5783110000000002,79.0395561,4.38885828,-19.33160292
3.26,326,0.055999999999999994,-1.021,-0.03,-42.398892,0.2291832000000001,-2.9220858,78.60983759999998,4.41750618,-19.337332500000002
3.27,327,0.067,-1.013,-0.039,-42.1697088,1.145916,-3.4377480000000005,78.1801191,4.44615408,-19.337332500000002
3.28,328,0.073,-1.0090000000000001,-0.05,-41.7113424,2.1772404,-3.9534102,77.75613018,4.48626114,-19.33160292
3.29,329,0.076,-1.002,-0.066,-41.1383844,2.86479,-4.1252976000000015,77.33787084,4.5263682,-19.31441418
3.3,330,0.071,-0.9990000000000001,-0.079,-39.9351726,3.2085647999999996,-4.010706000000001,76.9482594,4.56647526,-19.29722544
3.31,331,0.064,-0.996,-0.079,-38.731960799999996,3.380452200000001,-3.6096353999999997,76.55864796,4.60658232,-19.27430712
3.32,332,0.057,-0.9990000000000001,-0.086,-37.6433406,2.9220858,-3.1512689999999997,76.1747661,4.6409598,-19.25711838
3.33,333,0.045,-1.005,-0.095,-36.7839036,2.9793816000000004,-2.5783110000000002,75.80234340000001,4.66387812,-19.23420006
3.34,334,0.038,-1.001,-0.094,-35.9817624,4.297185,-2.4637194,75.44137986,4.6982556,-19.20555216
3.3499999999999996,335,0.038,-0.995,-0.1,-35.3515086,5.3858052,-2.6929026,75.09760506,4.7269035000000015,-19.15971552
3.36,336,0.040999999999999995,-0.983,-0.107,-34.8358464,5.72958,-2.8074942000000003,74.74810068,4.76128098,-19.11387888
3.3699999999999997,337,0.049,-0.976,-0.11,-33.6899304,6.4744254,-2.9220858,74.41005546,4.80138804,-19.06231266
3.38,338,0.054000000000000006,-0.976,-0.11800000000000001,-33.116972399999995,7.161975,-2.9220858,74.07773982,4.8414951,-19.00501686
3.3899999999999997,339,0.057999999999999996,-0.975,-0.127,-32.544014399999995,8.193299399999999,-2.8074942000000003,73.75115376,4.88733174,-18.9362619
3.4,340,0.064,-0.9840000000000001,-0.139,-31.9710564,9.0527364,-2.5783110000000002,73.44748602000001,4.9274388,-18.85604778
3.4099999999999997,341,0.066,-0.9940000000000001,-0.142,-31.9710564,9.740286,-2.2345362,73.12662954,4.97327544,-18.77010408
3.42,342,0.063,-1.002,-0.146,-32.257535399999995,10.313244000000001,-2.0626488000000003,72.80577306,5.01911208,-18.68416038
3.4299999999999997,343,0.06,-1.01,-0.154,-33.1742682,10.7716104,-1.7761698000000001,72.479187,5.05921914,-18.58675752
3.44,344,0.057999999999999996,-1.011,-0.16399999999999998,-33.9764094,11.2299768,-1.3750992,72.14114178,5.0993262,-18.48935466
3.4499999999999997,345,0.057999999999999996,-1.0,-0.163,-34.091001,11.2872726,-0.9167328000000001,71.8202853,5.13370368,-18.38622222
3.46,346,0.057999999999999996,-0.987,-0.156,-34.3201842,10.4278356,-0.4583664000000001,71.47651049999997,5.16235158,-18.28881936
3.4699999999999998,347,0.057,-0.9670000000000001,-0.152,-35.0077338,9.740286,-0.1718874,71.12700612,5.19099948,-18.197146080000003
3.48,348,0.055,-0.951,-0.162,-36.2109456,10.2559482,-0.2291832000000001,70.76604258,5.21964738,-18.1054728
3.4899999999999998,349,0.055999999999999994,-0.94,-0.177,-36.6120162,10.657018800000001,-0.5156622000000001,70.40507904,5.24829528,-18.00806994
3.5,350,0.057999999999999996,-0.9440000000000001,-0.174,-36.955791,11.2299768,-0.7448454000000001,70.04984508,5.2826727600000005,-17.91066708
3.51,351,0.055999999999999994,-0.9540000000000001,-0.184,-37.7006364,11.8602306,-0.6875496,69.67742238,5.32277982,-17.80180506
3.52,352,0.06,-0.9640000000000001,-0.192,-38.0444112,11.8602306,-0.6302538000000001,69.29927009999999,5.3628868800000005,-17.69294304
3.53,353,0.064,-0.977,-0.16899999999999998,-38.5027776,11.401864199999999,-0.5156622000000001,68.91538824,5.40299394,-17.59554018
3.54,354,0.065,-0.9940000000000001,-0.17300000000000001,-39.7059894,10.1986524,-0.286479,68.52004722,5.4316418399999975,-17.5038669
3.55,355,0.073,-1.01,-0.17600000000000002,-41.252976000000004,9.8548776,-0.3437748,68.13043578,5.466019319999999,-17.412193620000004
3.56,356,0.081,-1.021,-0.174,-43.315624799999995,9.396511199999999,-0.572958,67.6949877,5.5003968,-17.331979500000006
3.57,357,0.09,-1.034,-0.198,-44.8626114,9.0527364,-0.8594370000000001,67.24808046000001,5.53477428,-17.251765380000002
3.58,358,0.09,-1.048,-0.201,-45.607456799999994,7.8495246,-1.145916,66.78971406,5.56915176,-17.188740000000006
3.59,359,0.078,-1.0590000000000002,-0.161,-47.1544434,7.5057497999999985,-1.6042823999999998,66.31415892,5.6035292399999985,-17.12571462
3.5999999999999996,360,0.08,-1.064,-0.163,-49.1597964,9.2819196,-2.5210152000000003,65.84433336000001,5.65509546,-17.056959659999997
3.61,361,0.091,-1.061,-0.17,-50.420303999999994,9.396511199999999,-3.5523396000000003,65.33440074,5.71812084,-16.9882047
3.6199999999999997,362,0.098,-1.033,-0.145,-52.6548402,8.136003599999999,-3.8961144,64.8015498,5.77541664,-16.9309089
3.63,363,0.106,-1.0,-0.142,-54.20182679999999,9.453807,-4.4117766,64.2572397,5.849901179999999,-16.86788352
3.6399999999999997,364,0.115,-0.9740000000000001,-0.139,-53.5142772,9.9121734,-5.1566220000000005,63.71865918,5.930115299999999,-16.80485814
3.65,365,0.121,-0.9690000000000001,-0.157,-54.4883058,9.1100322,-5.5576926,63.19153781999999,6.016058999999999,-16.747562339999998
3.6599999999999997,366,0.113,-0.9620000000000001,-0.168,-56.0352924,7.6776372,-5.7868758000000025,62.63003898,6.09054354,-16.707455279999998
3.67,367,0.1,-0.9620000000000001,-0.146,-55.977996600000004,6.6463128000000005,-5.958763200000001,62.06281056,6.165028080000001,-16.68453696
3.6799999999999997,368,0.096,-0.977,-0.134,-56.72284200000001,5.72958,-6.5317212,61.48985256,6.23951262,-16.66734822
3.69,369,0.099,-0.995,-0.125,-57.52498320000001,6.130650599999999,-7.3911582,60.905435399999995,6.3254563200000025,-16.650159480000006
3.6999999999999997,370,0.10400000000000001,-1.006,-0.12300000000000001,-58.842786600000004,5.6149884000000005,-8.021412000000002,60.33820698000001,6.417129600000001,-16.638700319999998
3.71,371,0.113,-1.004,-0.121,-60.5616606,4.4690724,-8.3651868,59.71941234,6.5030733,-16.6444299
3.7199999999999998,372,0.124,-0.985,-0.10800000000000001,-62.22323879999999,3.8961144,-8.7662574,59.08342895999999,6.589017,-16.66161864
3.73,373,0.134,-0.961,-0.10400000000000001,-61.994055599999996,3.8388186,-9.0527364,58.45317516,6.6749607000000015,-16.678807380000002
3.7399999999999998,374,0.138,-0.948,-0.102,-61.7075766,3.8961144,-9.1100322,57.82292136,6.7609043999999985,-16.69599612
3.75,375,0.138,-0.9309999999999999,-0.098,-61.7075766,2.0626488000000003,-9.3392154,57.22704503999999,6.8468481,-16.7303736
3.76,376,0.131,-0.9129999999999999,-0.069,-60.9054354,0.9740286,-10.313244000000001,56.60252082,6.9327918,-16.781939819999998
3.77,377,0.134,-0.904,-0.057,-60.7908438,-0.9167328000000001,-11.0580894,55.977996600000004,7.01300592,-16.850694779999998
3.78,378,0.133,-0.894,-0.038,-62.22323879999999,-3.9534102,-11.1153852,55.33055406,7.0703017200000025,-16.94809764
3.79,379,0.133,-0.871,-0.027000000000000003,-63.82752120000001,-6.3025379999999975,-11.5737516,54.67165236,7.12759752,-17.0741484
3.8,380,0.133,-0.85,-0.038,-64.6869582,-7.8495246,-12.4904844,54.029939399999996,7.17916374,-17.21165832
3.81,381,0.133,-0.8270000000000001,-0.035,-63.6556338,-10.084060800000001,-12.9488508,53.36530812,7.213541219999999,-17.37208656
3.82,382,0.135,-0.8140000000000001,-0.035,-63.59833800000001,-12.2040054,-12.834259199999998,52.69494725999999,7.242189120000001,-17.549703540000007
3.83,383,0.138,-0.795,-0.006999999999999999,-64.17129600000001,-15.4125702,-12.3758928,52.01885682000001,7.23645954,-17.755968420000006
3.84,384,0.136,-0.785,0.012,-63.311859,-18.907614,-11.745639,51.35422554,7.20781164,-17.97942204
3.8499999999999996,385,0.128,-0.779,0.003,-64.11400019999999,-21.772404,-10.7143146,50.70105342,7.15624542,-18.2200644
3.86,386,0.11900000000000001,-0.7659999999999999,-0.003,-64.9161414,-21.485925,-10.1413566,50.01923340000001,7.09322004,-18.45497718
3.8699999999999997,387,0.11800000000000001,-0.7509999999999999,-0.006999999999999999,-66.4058322,-19.8243468,-9.7975818,49.320224640000006,7.03592424,-18.6784308
3.88,388,0.11900000000000001,-0.732,0.003,-65.7182826,-20.8556712,-8.7662574,48.62694546,6.96716928,-18.89615484
3.8899999999999997,389,0.12300000000000001,-0.698,0.048,-63.59833800000001,-23.663165399999997,-7.3911582,47.9565846,6.858307260000001,-19.13106762
3.9,390,0.124,-0.664,0.10400000000000001,-62.2805346,-30.080295,-5.5003968,47.326330799999994,6.7036086,-19.3946283
3.9099999999999997,391,0.10300000000000001,-0.619,0.125,-61.24921020000001,-36.096354,-3.1512689999999997,46.67315868000001,6.48015498,-19.68683688
3.92,392,0.071,-0.5720000000000001,0.12,-60.50436480000001,-37.9871154,-0.9740286,46.03144572000001,6.22805346,-19.97331588
3.9299999999999997,393,0.027999999999999997,-0.52,0.109,-60.8481396,-36.096354,0.9167328000000001,45.39546234,5.97022236,-20.23114698
3.94,394,0.012,-0.469,0.111,-61.8221682,-30.080295,2.6929026,44.7480198,5.74103916,-20.43168228
3.9499999999999997,395,0.028999999999999998,-0.425,0.07400000000000001,-65.030733,-24.809081399999997,3.8388186,44.09484768,5.53477428,-20.58065136
3.96,396,0.055999999999999994,-0.366,0.0,-67.7236356,-23.0902074,3.8961144,43.39583892,5.33423898,-20.71816128
3.9699999999999998,397,0.07,-0.287,-0.055999999999999994,-65.4318036,-26.5852512,2.9793816000000004,42.71974848000001,5.1222445200000015,-20.884319100000006
3.98,398,0.08900000000000001,-0.215,-0.06,-59.58763199999999,-34.7785506,2.0053530000000004,42.10095384,4.85295426,-21.1135023
3.9899999999999998,399,0.079,-0.121,-0.07400000000000001,-49.9619376,-45.1490904,1.5469866,41.57383248,4.50917946,-21.40571088
4.0,400,0.09300000000000001,-0.09300000000000001,-0.141,-33.1742682,-57.123912600000004,3.0366774,41.21286894,4.07373138,-21.772404
4.01,401,0.079,-0.138,-0.168,-20.2827132,-66.86419860000001,5.5576926,40.98941532,3.5523396000000003,-22.17920418
4.02,402,0.055,-0.183,-0.153,-19.194093,-70.7030172,8.9381448,40.78315044,2.9736520200000003,-22.58600436
4.03,403,0.039,-0.265,-0.125,-22.4026578,-68.6976642,12.6623718,40.54823766,2.38350528,-22.9469679
4.04,404,0.025,-0.418,-0.013000000000000001,-35.9817624,-63.25456320000001,14.209358400000001,40.18154454,1.82200644,-23.2620948
4.05,405,0.018000000000000002,-0.534,-0.026000000000000002,-66.4058322,-45.2063862,16.558486199999994,39.52264284,1.3750992,-23.4339822
4.06,406,-0.036000000000000004,-0.534,-0.11,-91.5013926,-25.8977016,17.4179232,38.59445088,1.05424272,-23.46835968
4.07,407,-0.096,-0.561,-0.282,-106.2264132,-10.828906199999999,13.8655836,37.52301942,0.87089616,-23.42825262
4.08,408,-0.151,-0.596,-0.337,-116.1958824,-3.6096353999999997,7.8495246,36.34272594,0.7792228800000001,-23.38814556
4.09,409,-0.18,-0.634,-0.452,-128.8009584,2.2345362,0.286479,35.03638170000001,0.7792228800000001,-23.37095682
4.1,410,-0.187,-0.642,-0.579,-142.26547140000002,6.2452422,-6.0733548,33.59825712,0.83651868,-23.38241598
4.109999999999999,411,-0.122,-0.614,-0.527,-155.0997306,7.734933000000002,-10.657018800000001,32.02262262000001,0.93392154,-23.42825262
4.12,412,-0.08800000000000001,-0.5,-0.456,-171.1998504,17.131444199999994,-12.7196676,30.2808303,1.1172681,-23.44544136
4.13,413,0.01,-0.469,-0.672,-196.6964814,27.960350399999996,-12.0894138,28.28120688000001,1.39228794,-23.4053343
4.14,414,0.121,-0.488,-1.146,-229.0686084,18.793022399999998,-5.2712136,25.954997400000003,1.5469866,-23.35376808
4.1499999999999995,415,0.41700000000000004,-0.473,-1.933,-258.51864959999995,17.7044022,4.1252976000000015,23.33084976,1.65011904,-23.2334469
4.16,416,-0.036000000000000004,-0.21,-2.48,-274.733361,11.0580894,8.193299399999999,20.54627388,1.6844965200000002,-23.10739614
4.17,417,0.364,0.18,-3.3960000000000004,-260.92507320000004,-21.657812399999997,15.3552744,17.9049375,1.39801752,-23.02718202
4.18,418,0.126,0.975,-3.9330000000000003,-232.620948,-34.4920716,36.4974246,15.555809699999998,0.93392154,-22.775080499999998
4.1899999999999995,419,-0.067,1.321,-3.9960000000000004,-246.1427568,-29.163562199999998,42.2270046,13.0634424,0.52139178,-22.43703528
4.2,420,-0.324,1.0979999999999999,-3.9960000000000004,-268.08704819999997,-13.9228794,37.7006364,10.34762148,0.27501984,-22.0875309
4.21,421,-0.271,1.107,-3.957,-227.5789176,7.7922288,29.9084076,8.03860074,0.27501984,-21.76667442
4.22,422,-0.245,0.965,-3.3960000000000004,-190.4512392,20.2254174,15.756345,6.1077322800000005,0.4297185000000001,-21.56613912
4.2299999999999995,423,-0.289,0.785,-3.012,-172.173879,45.3209778,-4.4690724,4.3544808,0.8537074199999999,-21.54895038
4.24,424,-0.341,0.55,-2.758,-141.1768512,51.852699,-16.2147114,2.91062664,1.3579104599999998,-21.65208282
4.25,425,-0.37799999999999995,0.188,-2.0580000000000003,-106.1691174,52.7694318,-18.6784308,1.82200644,1.87357266,-21.79532232
4.26,426,-0.29100000000000004,-0.19699999999999998,-1.642,-79.0109082,48.128472,-23.204798999999998,1.0026765,2.34339822,-21.99585762
4.27,427,-0.20600000000000002,-0.519,-1.32,-55.2331512,26.0122932,-34.37748,0.42398892,2.6012293200000003,-22.32244368
4.28,428,-0.044000000000000004,-0.725,-0.946,-43.315624799999995,16.272007199999994,-40.7946096,-0.028647900000000007,2.76165756,-22.7177847
4.29,429,0.151,-0.7090000000000001,-0.762,-65.2026204,23.0902074,-31.627281600000003,-0.7104679199999999,2.9793816000000004,-23.02145244
4.3,430,0.285,-0.425,-0.725,-88.2928278,24.350715,-22.1734746,-1.61001198,3.22002396,-23.2334469
4.31,431,0.23800000000000002,0.027999999999999997,-0.6859999999999999,-106.1118216,16.272007199999994,-13.464512999999998,-2.6929026,3.36326346,-23.35949766
4.32,432,0.24100000000000002,0.401,-0.654,-114.878079,7.7922288,-7.5630456000000015,-3.8674665,3.42628884,-23.42825262
4.33,433,0.13699999999999998,0.6829999999999999,-0.629,-110.6954856,8.59437,-3.2085647999999996,-4.99046418,3.4950437999999995,-23.45690052
4.34,434,0.045,0.8290000000000001,-0.665,-94.8818448,11.0580894,-0.4583664000000001,-5.958763200000001,3.59817624,-23.45690052
4.35,435,-0.083,0.898,-0.7,-71.44786260000002,8.250595200000001,2.0053530000000004,-6.7379860800000015,3.65547204,-23.439711780000003
4.36,436,-0.128,0.843,-0.706,-49.1025006,5.042030400000002,0.2291832000000001,-7.23645954,3.70130868,-23.439711780000003
4.37,437,-0.091,0.731,-0.647,-38.38818600000001,2.4064236,-2.9220858,-7.63180056,3.71849742,-23.462630100000002
4.38,438,-0.134,0.634,-0.598,-43.20103320000001,-1.0313244000000001,-6.0160589999999985,-8.07297822,3.6955791,-23.5199259
4.39,439,-0.128,0.523,-0.6509999999999999,-46.5814854,-1.0313244000000001,-8.021412000000002,-8.54853336,3.666931200000001,-23.59441044
4.3999999999999995,440,-0.086,0.4370000000000001,-0.738,-42.5134836,4.1252976000000015,-8.9954406,-9.0240885,3.67266078,-23.68035414
4.41,441,0.001,0.40399999999999997,-0.8240000000000001,-33.6326346,12.605075999999999,-8.307891,-9.37359288,3.7815228,-23.777757
4.42,442,0.094,0.435,-0.8370000000000001,-22.517249399999997,17.5325148,-6.0160589999999985,-9.60850566,3.94195104,-23.85797112
4.43,443,0.147,0.512,-0.809,-9.7975818,13.3499214,-1.3178034,-9.71736768,4.0680017999999984,-23.892348600000002
4.4399999999999995,444,0.15,0.61,-0.732,3.9534102,7.1046792000000005,4.583664,-9.67153104,4.14821592,-23.85224154
4.45,445,0.11800000000000001,0.7090000000000001,-0.636,16.1001198,4.583664,11.401864199999999,-9.61423524,4.22270046,-23.760568260000003
4.46,446,0.096,0.7959999999999999,-0.5820000000000001,26.1841806,7.333862400000001,17.9335854,-9.3392154,4.325832900000001,-23.59441044
4.47,447,0.037000000000000005,0.862,-0.532,37.586044799999996,8.250595200000001,22.86102420000001,-8.9381448,4.44615408,-23.38814556
4.4799999999999995,448,0.003,0.885,-0.461,55.290447,8.3651868,23.491278,-8.3651868,4.56647526,-23.17042152
4.49,449,0.009000000000000001,0.7829999999999999,-0.486,73.3959198,11.5737516,20.168121600000006,-7.603152659999999,4.71544434,-22.98707496
4.5,450,0.044000000000000004,0.618,-0.578,86.7458412,15.6417534,15.3552744,-6.743715660000001,4.898790900000002,-22.8610242
4.51,451,0.11900000000000001,0.368,-0.6890000000000001,94.251591,17.475219,11.45916,-5.781146219999999,5.0935966200000005,-22.775080499999998
4.52,452,0.203,0.098,-0.7709999999999999,93.392154,17.589810600000003,9.1100322,-4.83003594,5.28840234,-22.70059596
4.53,453,0.3,-0.17,-0.9259999999999999,82.90702259999998,18.334656,6.990087599999999,-3.9820581,5.48320806,-22.64902974
4.54,454,0.376,-0.379,-1.115,63.3691548,14.1520626,4.7555514,-3.34034514,5.63217714,-22.60892268
4.55,455,0.38299999999999995,-0.479,-1.219,39.534102000000004,5.7868758000000025,2.86479,-2.91062664,5.70666168,-22.58600436
4.56,456,0.325,-0.455,-1.2429999999999999,16.673077799999998,-0.40107059999999994,2.291832,-2.73873924,5.70666168,-22.56308604
4.57,457,0.262,-0.28300000000000003,-1.2819999999999998,-2.4637194,-1.2032118,1.3750992,-2.76738714,5.6952025200000005,-22.55162688
4.58,458,0.21899999999999997,-0.107,-1.278,-14.5531332,0.3437748,-0.5156622000000001,-2.91635622,5.6952025200000005,-22.55735646
4.59,459,0.191,0.066,-1.248,-20.5691922,2.2345362,-3.0366774,-3.12835068,5.71239126,-22.58600436
4.6,460,0.18100000000000002,0.191,-1.216,-21.2567418,2.4064236,-3.6096353999999997,-3.36326346,5.735309579999999,-22.62038184
4.61,461,0.162,0.251,-1.179,-16.8449652,1.6615782,-2.5783110000000002,-3.5351508600000003,5.75249832,-22.64902974
4.62,462,0.152,0.249,-1.1340000000000001,-9.9694692,1.4896908000000002,-0.9167328000000001,-3.6382833,5.76395748,-22.654759320000004
4.63,463,0.136,0.20800000000000002,-1.08,-4.8701430000000006,1.145916,1.6042823999999998,-3.68984952,5.77541664,-22.63757058
4.64,464,0.124,0.149,-1.024,-3.8388186,0.6302538000000001,4.4117766,-3.7242269999999995,5.7868758,-22.59746352
4.6499999999999995,465,0.111,0.09,-0.9690000000000001,-4.297185,0.1718874,6.3025379999999975,-3.7815228,5.79260538,-22.53443814
4.66,466,0.109,0.046,-0.922,-3.4377480000000005,0.3437748,6.6463128000000005,-3.810170700000002,5.79833496,-22.46568318
4.67,467,0.098,0.013999999999999999,-0.877,-1.0313244000000001,0.286479,4.4690724,-3.81590028,5.80406454,-22.41984654
4.68,468,0.094,-0.02,-0.856,1.7188740000000002,0.572958,1.0313244000000001,-3.79871154,5.80979412,-22.41411696
4.6899999999999995,469,0.087,-0.06,-0.8590000000000001,4.010706000000001,0.9167328000000001,-2.9793816000000004,-3.75860448,5.82125328,-22.44276486
4.7,470,0.092,-0.099,-0.867,5.3285094000000015,1.432395,-7.2765666,-3.66120162,5.8269828599999975,-22.51151982
4.71,471,0.08900000000000001,-0.134,-0.875,6.0733548,2.4637194,-11.3445684,-3.61536498,5.849901179999999,-22.62611142
4.72,472,0.085,-0.17,-0.889,7.2765666,4.297185,-14.32395,-3.5523396000000003,5.88427866,-22.76935092
4.7299999999999995,473,0.087,-0.20199999999999999,-0.9009999999999999,9.224623800000002,5.6722842,-16.157415599999997,-3.47785506,5.930115299999999,-22.93550874
4.74,474,0.1,-0.21899999999999997,-0.914,10.886202,6.6463128000000005,-16.329303,-3.38618178,5.9874111,-23.10166656
4.75,475,0.11900000000000001,-0.221,-0.9329999999999999,10.828906199999999,7.1046792000000005,-14.9542038,-3.2372127,6.05616606,-23.25063564
4.76,476,0.129,-0.214,-0.9570000000000001,9.396511199999999,6.7609043999999985,-12.4904844,-3.15699858,6.11919144,-23.376686399999997
4.77,477,0.131,-0.185,-0.9940000000000001,7.7922288,6.0733548,-9.7975818,-3.08824362,6.17648724,-23.474089260000003
4.78,478,0.11800000000000001,-0.152,-1.023,7.1046792000000005,4.8128472,-6.9327918,-3.02521824,6.22232388,-23.548573800000003
4.79,479,0.109,-0.121,-1.0390000000000001,6.9327918,2.9793816000000004,-4.5263682,-2.9564632800000004,6.2452422000000025,-23.59441044
4.8,480,0.111,-0.096,-1.043,7.2192707999999985,0.8021411999999999,-2.6929026,-2.81895336,6.25097178,-23.61732876
4.81,481,0.12,-0.078,-1.0390000000000001,7.734933000000002,-1.7188740000000002,-1.7761698000000001,-2.74446882,6.2337830400000005,-23.634517499999998
4.82,482,0.125,-0.07200000000000001,-1.03,8.3651868,-6.130650599999999,-1.0886202,-2.65852512,6.17075766,-23.64597666
4.83,483,0.131,-0.077,-1.02,8.3651868,-10.2559482,-0.9167328000000001,-2.57258142,6.0733548000000015,-23.65170624000001
4.84,484,0.135,-0.091,-1.014,8.021412000000002,-12.9488508,-0.572958,-2.48663772,5.9473040400000015,-23.65743582
4.85,485,0.131,-0.10400000000000001,-1.01,6.4744254,-14.209358400000001,-0.286479,-2.3777757,5.80979412,-23.65743582
4.86,486,0.113,-0.10300000000000001,-1.0070000000000001,4.3544808,-14.7250206,0.0,-2.33193906,5.66655462,-23.65170624000001
4.87,487,0.08800000000000001,-0.096,-0.998,2.5783110000000002,-13.980175199999998,0.057295800000000015,-2.30329116,5.5290447,-23.65170624000001
4.88,488,0.063,-0.086,-0.99,1.2605076000000002,-12.318597,0.1718874,-2.2918320000000003,5.40299394,-23.64597666
4.89,489,0.044000000000000004,-0.069,-0.98,0.40107059999999994,-10.1413566,0.3437748,-2.28037284,5.30559108,-23.64024708
4.8999999999999995,490,0.033,-0.051,-0.976,-0.572958,-6.8182002000000015,0.7448454000000001,-2.22880662,5.16808116,-23.61732876
4.91,491,0.028999999999999998,-0.025,-0.971,-1.7188740000000002,-3.8961144,1.2605076000000002,-2.24026578,5.13370368,-23.605869600000002
4.92,492,0.03,0.002,-0.965,-2.5210152000000003,-0.9740286,1.6615782,-2.26891368,5.1222445200000015,-23.58868086
4.93,493,0.033,0.032,-0.963,-2.7501984,1.8334656000000005,2.0626488000000003,-2.2918320000000003,5.13943326,-23.56576254
4.9399999999999995,494,0.040999999999999995,0.057,-0.963,-2.1199446,4.3544808,2.1772404,-2.3147503200000004,5.1852699,-23.548573800000003
4.95,495,0.053,0.07,-0.968,-1.3750992,6.6463128000000005,2.291832,-2.36058696,5.22537696,-23.5199259
4.96,496,0.069,0.078,-0.9740000000000001,-0.8594370000000001,8.193299399999999,2.5783110000000002,-2.37204612,5.30559108,-23.49700758
4.97,497,0.09,0.08,-0.9790000000000001,-0.40107059999999994,8.651665800000002,3.0366774,-2.37204612,5.39153478,-23.46835968
4.9799999999999995,498,0.10800000000000001,0.07400000000000001,-0.9790000000000001,0.286479,7.6776372,3.8388186,-2.36631654,5.4717489000000015,-23.42825262
4.99,499,0.11599999999999999,0.063,-0.977,0.8594370000000001,6.3025379999999975,4.4117766,-2.35485738,5.53477428,-23.38814556
5.0,500,0.125,0.05,-0.9740000000000001,0.9167328000000001,5.042030400000002,4.6982555999999995,-2.36058696,5.6035292399999985,-23.34230892
5.01,501,0.122,0.035,-0.9740000000000001,0.5156622000000001,4.1252976000000015,4.583664,-2.3491278,5.6436363,-23.29647228
5.02,502,0.11599999999999999,0.023,-0.977,-0.286479,3.7815228,4.2398892,-2.3491278,5.6837433599999985,-23.25636522
5.03,503,0.113,0.012,-0.9790000000000001,-1.0313244000000001,3.2658606,3.8961144,-2.35485738,5.71812084,-23.21625816
5.04,504,0.11599999999999999,-0.001,-0.973,-2.1772404,2.6356068,3.4377480000000005,-2.3777757,5.7467687399999985,-23.18188068
5.05,505,0.122,-0.013000000000000001,-0.982,-3.8388186,1.2605076000000002,3.1512689999999997,-2.3777757,5.77541664,-23.153232780000003
5.06,506,0.12300000000000001,-0.02,-0.992,-3.6669312000000014,0.0,3.0366774,-2.41215318,5.77541664,-23.1188553
5.07,507,0.12,-0.022000000000000002,-0.9840000000000001,-3.7242269999999995,0.8021411999999999,3.1512689999999997,-2.44653066,5.781146219999999,-23.090207400000004
5.08,508,0.109,-0.018000000000000002,-0.982,-4.2398892,2.0626488000000003,3.2658606,-2.48663772,5.80406454,-23.05582992
5.09,509,0.102,-0.021,-0.991,-3.8961144,2.8074942000000003,3.0939732,-2.52674478,5.83271244,-23.02718202
5.1,510,0.107,-0.026000000000000002,-0.995,-3.2658606,3.0939732,2.6356068,-2.51528562,5.86708992,-22.99280454
5.11,511,0.115,-0.031,-0.9940000000000001,-2.7501984,3.2085647999999996,1.9480572,-2.54393352,5.895737819999999,-22.9756158
5.12,512,0.124,-0.042,-0.998,-2.291832,3.0939732,1.145916,-2.56685184,5.930115299999999,-22.96415664
5.13,513,0.135,-0.055999999999999994,-1.004,-2.1199446,2.9220858,0.4583664000000001,-2.58977016,5.958763200000001,-22.95842706
5.14,514,0.14300000000000002,-0.065,-1.004,-2.0053530000000004,2.4064236,-0.057295800000000015,-2.6069589,5.98168152,-22.95842706
5.1499999999999995,515,0.14800000000000002,-0.067,-1.0,-1.9480572,1.8334656000000005,-0.3437748,-2.46944898,6.067625219999999,-22.95842706
5.16,516,0.15,-0.063,-0.9940000000000001,-1.7761698000000001,1.0886202,-0.40107059999999994,-2.48663772,6.0790843799999985,-22.96415664
5.17,517,0.147,-0.054000000000000006,-0.9890000000000001,-1.4896908000000002,0.40107059999999994,-0.5156622000000001,-2.50382646,6.0790843799999985,-22.96988622
5.18,518,0.141,-0.045,-0.982,-1.2605076000000002,0.0,-0.8594370000000001,-2.51528562,6.0790843799999985,-22.9756158
5.1899999999999995,519,0.135,-0.037000000000000005,-0.975,-0.9740286,-0.40107059999999994,-1.2605076000000002,-2.53247436,6.0790843799999985,-22.98707496
5.2,520,0.13,-0.033,-0.972,-0.8021411999999999,-0.8594370000000001,-1.7188740000000002,-2.44080108,6.1020027,-22.99853412
5.21,521,0.128,-0.033,-0.9670000000000001,-0.6302538000000001,-1.145916,-2.0053530000000004,-2.44653066,6.08481396,-23.02145244
5.22,522,0.132,-0.035,-0.97,-0.3437748,-1.145916,-2.0626488000000003,-2.45226024,6.0733548000000015,-23.03864118
5.2299999999999995,523,0.135,-0.037000000000000005,-0.975,-0.1718874,-1.432395,-2.0626488000000003,-2.45798982,6.06189564,-23.0615595
5.24,524,0.133,-0.038,-0.978,0.057295800000000015,-1.7761698000000001,-1.8334656000000005,-2.45798982,6.03897732,-23.07874824
5.25,525,0.128,-0.037000000000000005,-0.978,0.1718874,-1.8907614,-1.8907614,-2.35485738,6.05043648,-23.090207400000004
5.26,526,0.121,-0.037000000000000005,-0.98,0.11459160000000004,-1.7188740000000002,-1.8334656000000005,-2.35485738,6.0275181600000005,-23.10739614
5.27,527,0.115,-0.034,-0.985,0.0,-1.6615782,-1.7188740000000002,-2.35485738,6.01032942,-23.13031446
5.28,528,0.114,-0.03,-0.988,-0.1718874,-1.9480572,-1.6615782,-2.36058696,5.9931406800000016,-23.14177362
5.29,529,0.11,-0.019,-0.9890000000000001,-0.3437748,-2.291832,-1.6042823999999998,-2.36058696,5.97022236,-23.15896236
5.3,530,0.105,-0.013999999999999999,-0.991,-0.3437748,-2.4064236,-1.432395,-2.3147503200000004,5.930115299999999,-23.16469194
5.31,531,0.102,-0.011000000000000001,-0.9890000000000001,-0.5156622000000001,-2.6356068,-1.0886202,-2.3204799,5.9014674000000005,-23.176151100000002
5.32,532,0.098,-0.012,-0.988,-0.7448454000000001,-2.5783110000000002,-0.7448454000000001,-2.33193906,5.87854908,-23.18761026
5.33,533,0.096,-0.013999999999999999,-0.988,-0.9740286,-2.0626488000000003,-0.5156622000000001,-2.34339822,5.85563076,-23.19333984
5.34,534,0.092,-0.017,-0.9890000000000001,-1.0886202,-1.6615782,-0.4583664000000001,-2.35485738,5.83844202,-23.19333984
5.35,535,0.087,-0.016,-0.99,-1.2605076000000002,-1.432395,-0.40107059999999994,-2.28610242,5.76968706,-23.18188068
5.36,536,0.08199999999999999,-0.012,-0.991,-1.145916,-1.3750992,-0.1718874,-2.29756158,5.75249832,-23.18761026
5.37,537,0.078,-0.011000000000000001,-0.9890000000000001,-0.9167328000000001,-1.3750992,0.0,-2.30329116,5.74103916,-23.18761026
5.38,538,0.077,-0.009000000000000001,-0.986,-0.8021411999999999,-0.8021411999999999,0.1718874,-2.3147503200000004,5.72958,-23.18188068
5.39,539,0.079,-0.008,-0.983,-0.8021411999999999,-0.286479,0.11459160000000004,-2.3204799,5.72958,-23.18188068
5.3999999999999995,540,0.08199999999999999,-0.009000000000000001,-0.983,-0.8594370000000001,0.4583664000000001,0.0,-2.21734746,5.6436363,-23.15896236
5.41,541,0.086,-0.012,-0.983,-0.8021411999999999,1.0886202,0.11459160000000004,-2.22880662,5.65509546,-23.15896236
5.42,542,0.08900000000000001,-0.016,-0.9840000000000001,-0.9740286,1.145916,0.2291832000000001,-2.24026578,5.66655462,-23.153232780000003
5.43,543,0.09300000000000001,-0.017,-0.983,-1.2032118,0.9740286,0.572958,-2.25172494,5.67801378,-23.1475032
5.4399999999999995,544,0.099,-0.019,-0.982,-1.2605076000000002,0.9167328000000001,0.8021411999999999,-2.2631841,5.6837433599999985,-23.14177362
5.45,545,0.10300000000000001,-0.021,-0.981,-1.2032118,1.2032118,0.8594370000000001,-2.19442914,5.6952025200000005,-23.12458488
5.46,546,0.107,-0.027000000000000003,-0.9840000000000001,-1.0886202,1.432395,0.8021411999999999,-2.2058883,5.70666168,-23.11312572
5.47,547,0.106,-0.032,-0.985,-0.9740286,1.3750992,0.6302538000000001,-2.21161788,5.72385042,-23.10739614
5.4799999999999995,548,0.106,-0.034,-0.983,-0.9167328000000001,1.2605076000000002,0.572958,-2.22307704,5.735309579999999,-23.10166656
5.49,549,0.107,-0.035,-0.982,-1.145916,1.2605076000000002,0.572958,-2.2345362,5.7467687399999985,-23.09593698
5.5,550,0.11,-0.034,-0.9840000000000001,-1.3178034,1.2032118,0.7448454000000001,-2.1485925000000003,5.76968706,-23.07874824
5.51,551,0.114,-0.031,-0.9840000000000001,-1.4896908000000002,1.2032118,0.7448454000000001,-2.1657812400000003,5.781146219999999,-23.07301866
5.52,552,0.11900000000000001,-0.028999999999999998,-0.983,-1.5469866,1.0886202,0.7448454000000001,-2.1772404,5.79260538,-23.06728908
5.53,553,0.121,-0.027999999999999997,-0.985,-1.3178034,1.145916,0.7448454000000001,-2.19442914,5.80406454,-23.05582992
5.54,554,0.12,-0.031,-0.983,-1.2032118,1.0313244000000001,0.5156622000000001,-2.2058883,5.815523699999999,-23.05010034
5.55,555,0.121,-0.033,-0.982,-1.2032118,0.9740286,0.3437748,-2.0912967,5.849901179999999,-23.03864118
5.56,556,0.12300000000000001,-0.033,-0.986,-1.4896908000000002,1.2032118,0.1718874,-2.10848544,5.861360339999999,-23.03864118
5.57,557,0.125,-0.03,-0.99,-1.432395,0.9167328000000001,0.057295800000000015,-2.12567418,5.8728194999999985,-23.03864118
5.58,558,0.124,-0.025,-0.9890000000000001,-1.2605076000000002,0.5156622000000001,-0.057295800000000015,-2.13713334,5.87854908,-23.03864118
5.59,559,0.121,-0.023,-0.986,-0.9740286,-0.11459160000000004,-0.1718874,-2.1485925000000003,5.87854908,-23.03864118
5.6,560,0.122,-0.025,-0.978,-0.7448454000000001,-0.8594370000000001,-0.11459160000000004,-2.01108258,5.91865614,-23.032911600000002
5.61,561,0.12300000000000001,-0.03,-0.972,-1.0313244000000001,-0.7448454000000001,0.057295800000000015,-2.02254174,5.90719698,-23.032911600000002
5.62,562,0.122,-0.027999999999999997,-0.977,-1.6615782,-0.5156622000000001,0.11459160000000004,-2.0340009,5.9014674000000005,-23.032911600000002
5.63,563,0.11900000000000001,-0.024,-0.971,-1.7188740000000002,-0.40107059999999994,0.11459160000000004,-2.05691922,5.9014674000000005,-23.032911600000002
5.64,564,0.115,-0.02,-0.965,-2.0626488000000003,-0.2291832000000001,0.0,-2.07410796,5.895737819999999,-23.032911600000002
5.6499999999999995,565,0.10800000000000001,-0.021,-0.97,-2.0626488000000003,-0.286479,-0.1718874,-2.02254174,5.89000824,-23.02718202
5.66,566,0.10800000000000001,-0.02,-0.9740000000000001,-2.1772404,-0.2291832000000001,-0.2291832000000001,-2.04546006,5.88427866,-23.02718202
5.67,567,0.11,-0.018000000000000002,-0.9790000000000001,-2.1199446,-0.057295800000000015,-0.286479,-2.0626488000000003,5.88427866,-23.032911600000002
5.68,568,0.11199999999999999,-0.017,-0.985,-1.6615782,0.1718874,-0.286479,-2.08556712,5.88427866,-23.032911600000002
5.6899999999999995,569,0.113,-0.018000000000000002,-0.993,-1.0886202,0.11459160000000004,-0.5156622000000001,-2.09702628,5.88427866,-23.03864118
5.7,570,0.111,-0.019,-0.997,-0.7448454000000001,-0.3437748,-0.4583664000000001,-1.9767051,5.87854908,-23.032911600000002
5.71,571,0.111,-0.019,-0.996,-0.572958,-0.8021411999999999,-0.4583664000000001,-1.98243468,5.8728194999999985,-23.032911600000002
5.72,572,0.11,-0.02,-0.993,-0.572958,-1.0313244000000001,-0.2291832000000001,-1.98816426,5.861360339999999,-23.03864118
5.7299999999999995,573,0.111,-0.019,-0.99,-0.7448454000000001,-1.0313244000000001,0.0,-1.99389384,5.849901179999999,-23.03864118
5.74,574,0.109,-0.019,-0.986,-0.6875496,-1.2032118,0.057295800000000015,-2.005353,5.83844202,-23.03864118
5.75,575,0.107,-0.021,-0.9840000000000001,-0.572958,-1.3178034,0.1718874,-1.90222056,5.815523699999999,-23.02145244
5.76,576,0.10400000000000001,-0.022000000000000002,-0.986,-0.572958,-1.3178034,0.057295800000000015,-1.90795014,5.80406454,-23.02145244
5.77,577,0.10300000000000001,-0.023,-0.987,-0.8021411999999999,-1.2605076000000002,0.0,-1.9194093000000003,5.79260538,-23.02145244
5.78,578,0.1,-0.019,-0.988,-0.9740286,-0.8594370000000001,0.057295800000000015,-1.92513888,5.781146219999999,-23.02145244
5.79,579,0.098,-0.019,-0.991,-1.2032118,-0.572958,0.057295800000000015,-1.93659804,5.77541664,-23.02145244
5.8,580,0.099,-0.019,-0.993,-1.2605076000000002,-0.572958,0.286479,-1.87357266,5.7467687399999985,-23.0042637
5.81,581,0.1,-0.019,-0.995,-1.2032118,-0.6875496,0.4583664000000001,-1.88503182,5.735309579999999,-23.0042637
5.82,582,0.10300000000000001,-0.02,-0.9940000000000001,-1.2605076000000002,-0.6875496,0.572958,-1.89649098,5.72958,-22.99280454
5.83,583,0.102,-0.02,-0.993,-1.2032118,-0.5156622000000001,0.8021411999999999,-1.90795014,5.72385042,-22.98707496
5.84,584,0.10300000000000001,-0.02,-0.992,-0.9740286,-0.4583664000000001,0.9167328000000001,-1.9194093000000003,5.71812084,-22.9756158
5.85,585,0.10300000000000001,-0.019,-0.986,-0.8021411999999999,-0.40107059999999994,0.9167328000000001,-1.83919518,5.7009320999999975,-22.95842706
5.86,586,0.10400000000000001,-0.021,-0.98,-0.7448454000000001,-0.5156622000000001,0.9167328000000001,-1.84492476,5.6952025200000005,-22.9469679
5.87,587,0.10400000000000001,-0.023,-0.9790000000000001,-0.7448454000000001,-0.1718874,0.6875496,-1.85638392,5.6952025200000005,-22.94123832
5.88,588,0.107,-0.026000000000000002,-0.98,-0.9740286,0.0,0.572958,-1.8621134999999998,5.6952025200000005,-22.93550874
5.89,589,0.10800000000000001,-0.027999999999999997,-0.981,-1.432395,-0.2291832000000001,0.6875496,-1.87930224,5.6952025200000005,-22.92977916
5.8999999999999995,590,0.109,-0.026000000000000002,-0.982,-1.7761698000000001,-0.6302538000000001,0.8021411999999999,-1.8334656000000005,5.68947294,-22.91259042
5.91,591,0.10800000000000001,-0.024,-0.983,-1.6042823999999998,-0.8594370000000001,0.8021411999999999,-1.85065434,5.6837433599999985,-22.90686084
5.92,592,0.109,-0.022000000000000002,-0.982,-1.2605076000000002,-0.8594370000000001,0.8021411999999999,-1.8621134999999998,5.6722842,-22.89540168
5.93,593,0.11,-0.023,-0.983,-1.0313244000000001,-0.7448454000000001,0.7448454000000001,-1.87357266,5.66655462,-22.8896721
5.9399999999999995,594,0.11,-0.024,-0.9840000000000001,-0.9167328000000001,-0.8021411999999999,0.572958,-1.87930224,5.66082504,-22.88394252
5.95,595,0.109,-0.025,-0.983,-0.6302538000000001,-0.9740286,0.5156622000000001,-1.78762896,5.65509546,-22.866753780000003
5.96,596,0.109,-0.027000000000000003,-0.976,-0.572958,-1.145916,0.572958,-1.7933585399999998,5.6436363,-22.8610242
5.97,597,0.10800000000000001,-0.027999999999999997,-0.972,-0.9167328000000001,-1.145916,0.5156622000000001,-1.8048177,5.63217714,-22.85529462
5.9799999999999995,598,0.10800000000000001,-0.03,-0.973,-1.432395,-0.6302538000000001,0.572958,-1.81627686,5.62644756,-22.84956504
5.99,599,0.10800000000000001,-0.028999999999999998,-0.977,-1.7188740000000002,-0.1718874,0.5156622000000001,-1.8334656000000005,5.62644756,-22.84383546
6.0,600,0.109,-0.03,-0.983,-1.7188740000000002,-0.057295800000000015,0.5156622000000001,-1.7475218999999995,5.63217714,-22.8323763
6.01,601,0.109,-0.031,-0.986,-1.432395,-0.1718874,0.572958,-1.75898106,5.63217714,-22.82664672
6.02,602,0.11199999999999999,-0.03,-0.985,-1.0886202,-0.572958,0.6302538000000001,-1.77044022,5.62644756,-22.82091714
6.03,603,0.111,-0.028999999999999998,-0.983,-1.3178034,-0.572958,0.572958,-1.78189938,5.62071798,-22.81518756
6.04,604,0.11199999999999999,-0.026000000000000002,-0.983,-1.7188740000000002,-0.572958,0.4583664000000001,-1.79908812,5.6149884000000005,-22.80945798
6.05,605,0.113,-0.023,-0.981,-1.8334656000000005,-0.6302538000000001,0.4583664000000001,-1.75898106,5.62644756,-22.803728399999997
6.06,606,0.114,-0.02,-0.983,-2.0053530000000004,-0.8021411999999999,0.3437748,-1.78189938,5.6149884000000005,-22.79799882
6.07,607,0.114,-0.016,-0.987,-2.1199446,-0.6875496,0.1718874,-1.79908812,5.60925882,-22.792269240000003
6.08,608,0.11199999999999999,-0.013000000000000001,-0.988,-2.0053530000000004,-0.6302538000000001,0.0,-1.82200644,5.6035292399999985,-22.79799882
6.09,609,0.10800000000000001,-0.01,-0.988,-1.8907614,-0.6302538000000001,-0.057295800000000015,-1.83919518,5.59779966,-22.79799882
6.1,610,0.106,-0.01,-0.9890000000000001,-1.0313244000000001,-0.286479,-0.40107059999999994,-1.7475218999999995,5.59779966,-22.792269240000003
6.11,611,0.106,-0.01,-0.987,0.0,-0.40107059999999994,-0.572958,-1.7475218999999995,5.59779966,-22.79799882
6.12,612,0.105,-0.012,-0.985,0.11459160000000004,-0.7448454000000001,-0.6302538000000001,-1.74179232,5.5863404999999995,-22.803728399999997
6.13,613,0.105,-0.013000000000000001,-0.985,0.057295800000000015,-1.0313244000000001,-0.572958,-1.74179232,5.574881339999999,-22.80945798
6.14,614,0.102,-0.013000000000000001,-0.9840000000000001,0.057295800000000015,-1.0886202,-0.5156622000000001,-1.74179232,5.56342218,-22.81518756
6.15,615,0.098,-0.013000000000000001,-0.983,-0.057295800000000015,-0.572958,-0.572958,-1.6272007199999998,5.51758554,-22.803728399999997
6.16,616,0.09300000000000001,-0.01,-0.988,-0.1718874,0.0,-0.7448454000000001,-1.6329303,5.51758554,-22.81518756
6.17,617,0.09300000000000001,-0.012,-0.9890000000000001,0.0,0.0,-0.8594370000000001,-1.6329303,5.51758554,-22.82091714
6.18,618,0.09699999999999999,-0.019,-0.9840000000000001,0.2291832000000001,-0.3437748,-0.6875496,-1.6329303,5.51185596,-22.82664672
6.1899999999999995,619,0.099,-0.024,-0.982,0.057295800000000015,-0.4583664000000001,-0.3437748,-1.6329303,5.50612638,-22.8323763
6.2,620,0.098,-0.028999999999999998,-0.985,0.11459160000000004,-0.3437748,-0.1718874,-0.93392154,5.4316418399999975,-22.76362134
6.21,621,0.099,-0.028999999999999998,-0.981,-0.1718874,0.11459160000000004,-0.11459160000000004,-0.93392154,5.4316418399999975,-22.76362134
6.22,622,0.096,-0.027999999999999997,-0.98,-0.8594370000000001,0.3437748,-0.286479,-0.9453807,5.43737142,-22.76935092
6.2299999999999995,623,0.092,-0.026000000000000002,-0.98,-1.2032118,0.286479,-0.5156622000000001,-0.95683986,5.43737142,-22.775080499999998
6.24,624,0.09300000000000001,-0.023,-0.98,-1.2032118,0.0,-0.4583664000000001,-0.96829902,5.43737142,-22.775080499999998
6.25,625,0.09699999999999999,-0.022000000000000002,-0.981,-0.6875496,-0.057295800000000015,-0.4583664000000001,-0.91100322,5.42018268,-22.775080499999998
6.26,626,0.1,-0.022000000000000002,-0.9890000000000001,-0.1718874,-0.057295800000000015,-0.4583664000000001,-0.9167328,5.42018268,-22.78081008
6.27,627,0.10300000000000001,-0.025,-0.996,-0.057295800000000015,-0.2291832000000001,-0.40107059999999994,-0.9167328,5.4144530999999985,-22.78081008
6.28,628,0.10300000000000001,-0.024,-1.003,0.286479,-0.6875496,-0.286479,-0.91100322,5.40872352,-22.78653966
6.29,629,0.10400000000000001,-0.024,-1.002,0.9740286,-1.5469866,-0.11459160000000004,-0.90527364,5.3972643599999985,-22.78653966
6.3,630,0.106,-0.026000000000000002,-0.9940000000000001,1.2605076000000002,-2.1199446,0.057295800000000015,-0.8594370000000001,5.38007562,-22.78653966
6.31,631,0.106,-0.027999999999999997,-0.99,0.8594370000000001,-2.6929026,0.2291832000000001,-0.8537074199999999,5.35142772,-22.78081008
6.32,632,0.105,-0.025,-0.987,0.4583664000000001,-2.9793816000000004,0.286479,-0.8479778399999999,5.32277982,-22.78081008
6.33,633,0.10099999999999999,-0.022000000000000002,-0.983,0.2291832000000001,-3.0939732,0.1718874,-0.8422482600000001,5.29413192,-22.78081008
6.34,634,0.098,-0.018000000000000002,-0.981,0.0,-2.7501984,0.0,-0.8422482600000001,5.2654840200000015,-22.78081008
6.35,635,0.094,-0.013000000000000001,-0.9790000000000001,0.0,-2.1772404,-0.1718874,-0.8307891,5.23683612,-22.78081008
6.36,636,0.094,-0.01,-0.9790000000000001,0.11459160000000004,-1.3750992,-0.40107059999999994,-0.8307891,5.21964738,-22.78653966
6.37,637,0.094,-0.009000000000000001,-0.98,0.40107059999999994,-0.6875496,-0.572958,-0.8250595199999999,5.2139178,-22.792269240000003
6.38,638,0.09300000000000001,-0.008,-0.978,0.572958,-0.057295800000000015,-0.6875496,-0.8193299399999999,5.2139178,-22.79799882
6.39,639,0.095,-0.009000000000000001,-0.9790000000000001,0.40107059999999994,0.2291832000000001,-0.6875496,-0.8193299399999999,5.2139178,-22.803728399999997
6.4,640,0.098,-0.01,-0.98,0.40107059999999994,0.3437748,-0.6302538000000001,-0.8021412000000001,5.21964738,-22.80945798
6.41,641,0.09699999999999999,-0.01,-0.982,0.4583664000000001,0.286479,-0.5156622000000001,-0.79641162,5.22537696,-22.81518756
6.42,642,0.096,-0.013000000000000001,-0.982,0.40107059999999994,0.6302538000000001,-0.4583664000000001,-0.79641162,5.231106540000001,-22.82091714
6.43,643,0.096,-0.013000000000000001,-0.986,0.286479,1.0313244000000001,-0.40107059999999994,-0.7906820400000001,5.2425657,-22.82664672
6.4399999999999995,644,0.1,-0.016,-0.987,0.2291832000000001,1.0313244000000001,-0.3437748,-0.7906820400000001,5.25402486,-22.82664672
6.45,645,0.10099999999999999,-0.018000000000000002,-0.99,0.2291832000000001,0.8021411999999999,-0.286479,-0.75630456,5.2654840200000015,-22.8323763
6.46,646,0.1,-0.021,-0.987,0.3437748,0.5156622000000001,-0.2291832000000001,-0.75057498,5.2712136,-22.8323763
6.47,647,0.10099999999999999,-0.022000000000000002,-0.986,0.3437748,0.40107059999999994,-0.1718874,-0.7448454000000001,5.27694318,-22.8323763
6.4799999999999995,648,0.10099999999999999,-0.024,-0.9840000000000001,0.0,0.2291832000000001,-0.2291832000000001,-0.7448454000000001,5.2826727600000005,-22.83810588
6.49,649,0.10099999999999999,-0.021,-0.983,-0.286479,0.4583664000000001,-0.286479,-0.75057498,5.2826727600000005,-22.83810588
6.5,650,0.1,-0.019,-0.983,-0.572958,0.6302538000000001,-0.1718874,-0.72765666,5.28840234,-22.83810588
6.51,651,0.099,-0.017,-0.985,-0.4583664000000001,0.8594370000000001,-0.2291832000000001,-0.73338624,5.2998615,-22.83810588
6.52,652,0.09699999999999999,-0.018000000000000002,-0.9890000000000001,-0.40107059999999994,0.8594370000000001,-0.2291832000000001,-0.7391158200000001,5.311320660000002,-22.84383546
6.53,653,0.096,-0.018000000000000002,-0.9890000000000001,-0.1718874,0.6302538000000001,-0.286479,-0.7391158200000001,5.31705024,-22.84383546
6.54,654,0.094,-0.02,-0.991,-0.057295800000000015,0.5156622000000001,-0.286479,-0.7391158200000001,5.32277982,-22.84956504
6.55,655,0.09,-0.021,-0.993,-0.11459160000000004,0.4583664000000001,-0.1718874,-0.66463128,5.2712136,-22.83810588
6.56,656,0.08800000000000001,-0.022000000000000002,-0.992,0.0,0.3437748,-0.057295800000000015,-0.66463128,5.2712136,-22.83810588
6.57,657,0.09,-0.023,-0.988,0.0,0.11459160000000004,0.0,-0.66463128,5.27694318,-22.83810588
6.58,658,0.09,-0.022000000000000002,-0.983,0.1718874,-0.1718874,0.057295800000000015,-0.66463128,5.2712136,-22.83810588
6.59,659,0.091,-0.021,-0.9790000000000001,0.2291832000000001,-0.1718874,0.0,-0.66463128,5.2712136,-22.83810588
6.6,660,0.08900000000000001,-0.02,-0.9790000000000001,0.286479,0.0,-0.057295800000000015,-0.59587632,5.2024586400000015,-22.82091714
6.61,661,0.087,-0.017,-0.9790000000000001,0.2291832000000001,0.2291832000000001,-0.2291832000000001,-0.59587632,5.2024586400000015,-22.82664672
6.62,662,0.086,-0.013999999999999999,-0.978,0.11459160000000004,0.5156622000000001,-0.4583664000000001,-0.59587632,5.20818822,-22.8323763
6.63,663,0.086,-0.012,-0.9790000000000001,0.11459160000000004,0.6875496,-0.572958,-0.59587632,5.21964738,-22.83810588
6.64,664,0.087,-0.012,-0.9790000000000001,0.3437748,0.9167328000000001,-0.6302538000000001,-0.59014674,5.22537696,-22.84383546
6.65,665,0.09,-0.011000000000000001,-0.9790000000000001,0.572958,1.145916,-0.6302538000000001,-0.5844171599999999,5.22537696,-22.84956504
6.66,666,0.09300000000000001,-0.013000000000000001,-0.98,0.6302538000000001,1.3750992,-0.572958,-0.5786875800000001,5.23683612,-22.85529462
6.67,667,0.096,-0.013999999999999999,-0.983,0.5156622000000001,1.6042823999999998,-0.572958,-0.5729580000000001,5.25402486,-22.8610242
6.68,668,0.098,-0.016,-0.987,0.572958,1.5469866,-0.5156622000000001,-0.56722842,5.2712136,-22.8610242
6.6899999999999995,669,0.1,-0.017,-0.987,0.6875496,1.2032118,-0.572958,-0.56149884,5.2826727600000005,-22.866753780000003
6.7,670,0.1,-0.019,-0.985,0.8594370000000001,0.9740286,-0.6302538000000001,-0.5443101,5.29413192,-22.87821294
6.71,671,0.102,-0.016,-0.985,0.8594370000000001,0.7448454000000001,-0.572958,-0.53858052,5.30559108,-22.88394252
6.72,672,0.102,-0.016,-0.9840000000000001,0.7448454000000001,0.8021411999999999,-0.5156622000000001,-0.52712136,5.311320660000002,-22.8896721
6.7299999999999995,673,0.1,-0.016,-0.985,0.6302538000000001,0.7448454000000001,-0.40107059999999994,-0.52139178,5.32277982,-22.8896721
6.74,674,0.096,-0.016,-0.9890000000000001,0.572958,0.6302538000000001,-0.2291832000000001,-0.5156622000000001,5.3285094000000015,-22.89540168
6.75,675,0.092,-0.013999999999999999,-0.988,0.572958,0.8021411999999999,-0.286479,-0.5042030399999999,5.31705024,-22.89540168
6.76,676,0.08800000000000001,-0.013999999999999999,-0.987,0.5156622000000001,0.9167328000000001,-0.286479,-0.5042030399999999,5.32277982,-22.89540168
6.77,677,0.08900000000000001,-0.013999999999999999,-0.986,0.5156622000000001,0.9740286,-0.40107059999999994,-0.4984734599999999,5.33423898,-22.90113126
6.78,678,0.09300000000000001,-0.015,-0.982,0.7448454000000001,0.9740286,-0.4583664000000001,-0.4870143000000001,5.3456981400000005,-22.90686084
6.79,679,0.094,-0.016,-0.982,0.9167328000000001,0.9740286,-0.572958,-0.48128472,5.3571573,-22.91259042
6.8,680,0.099,-0.018000000000000002,-0.982,1.2605076000000002,1.2032118,-0.572958,-0.4583664000000001,5.36861646,-22.91832
6.81,681,0.099,-0.02,-0.975,0.9740286,1.6042823999999998,-0.6302538000000001,-0.4526368200000001,5.385805199999999,-22.92404958
6.82,682,0.096,-0.023,-0.9790000000000001,0.4583664000000001,1.6042823999999998,-0.6302538000000001,-0.44690724,5.3972643599999985,-22.92977916
6.83,683,0.09699999999999999,-0.022000000000000002,-0.982,0.4583664000000001,1.0886202,-0.572958,-0.44117766,5.40872352,-22.93550874
6.84,684,0.096,-0.019,-0.982,0.6302538000000001,0.8594370000000001,-0.4583664000000001,-0.43544808,5.42018268,-22.94123832
6.85,685,0.096,-0.017,-0.987,0.8021411999999999,1.145916,-0.40107059999999994,-0.41825934,5.42018268,-22.94123832
6.86,686,0.098,-0.019,-0.9940000000000001,0.9740286,1.7761698000000001,-0.4583664000000001,-0.41252976,5.43737142,-22.9469679
6.87,687,0.098,-0.019,-1.0,1.0313244000000001,1.9480572,-0.572958,-0.4010706000000001,5.46028974,-22.95269748
6.88,688,0.096,-0.017,-1.003,1.3178034,1.8907614,-0.6875496,-0.38961144,5.47747848,-22.95842706
6.89,689,0.096,-0.018000000000000002,-1.002,2.0053530000000004,1.7188740000000002,-0.6302538000000001,-0.36669312,5.4946672199999975,-22.96415664
6.9,690,0.095,-0.017,-0.997,2.2345362,1.145916,-0.6302538000000001,-0.3437748,5.4946672199999975,-22.96988622
6.91,691,0.094,-0.018000000000000002,-0.9940000000000001,1.9480572,0.9167328000000001,-0.4583664000000001,-0.32658606,5.50612638,-22.9756158
6.92,692,0.092,-0.015,-0.9940000000000001,1.6042823999999998,0.6302538000000001,-0.3437748,-0.30939732,5.51185596,-22.98134538
6.93,693,0.09,-0.011000000000000001,-0.992,1.3178034,0.572958,-0.40107059999999994,-0.29793816,5.51758554,-22.98134538
6.9399999999999995,694,0.087,-0.006999999999999999,-0.99,1.145916,0.8021411999999999,-0.3437748,-0.28647900000000004,5.5290447,-22.98707496
6.95,695,0.087,-0.005,-0.987,1.145916,1.2032118,-0.3437748,-0.28647900000000004,5.51758554,-22.98707496
6.96,696,0.08900000000000001,-0.006999999999999999,-0.985,1.2605076000000002,1.5469866,-0.2291832000000001,-0.27501984,5.5290447,-22.99280454
6.97,697,0.092,-0.011000000000000001,-0.9840000000000001,1.4896908000000002,1.9480572,-0.2291832000000001,-0.26356068,5.5519630200000005,-22.99280454
6.9799999999999995,698,0.09300000000000001,-0.016,-0.986,1.4896908000000002,2.1772404,-0.286479,-0.24637194,5.574881339999999,-22.99853412
6.99,699,0.096,-0.02,-0.988,1.7188740000000002,2.0626488000000003,-0.2291832000000001,-0.22918320000000006,5.59207008,-22.99853412
7.0,700,0.099,-0.022000000000000002,-0.986,1.6615782,2.0053530000000004,-0.2291832000000001,-0.20626488,5.60925882,-22.99853412
7.01,701,0.10099999999999999,-0.023,-0.986,1.5469866,2.1772404,-0.2291832000000001,-0.18907614,5.63217714,-22.99853412
7.02,702,0.102,-0.024,-0.9890000000000001,1.6042823999999998,2.1772404,-0.11459160000000004,-0.17761697999999998,5.64936588,-23.0042637
7.03,703,0.102,-0.027000000000000003,-0.9890000000000001,1.6615782,1.8334656000000005,-0.057295800000000015,-0.16042824,5.6722842,-23.0042637
7.04,704,0.1,-0.027000000000000003,-0.987,1.7188740000000002,1.5469866,0.0,-0.14323950000000002,5.6837433599999985,-23.0042637
7.05,705,0.102,-0.027000000000000003,-0.985,1.6615782,1.2605076000000002,0.0,-0.10886202,5.6952025200000005,-22.99853412
7.06,706,0.10099999999999999,-0.027000000000000003,-0.983,1.3750992,1.145916,0.0,-0.09740286,5.70666168,-22.99853412
7.07,707,0.10300000000000001,-0.025,-0.985,1.145916,1.145916,0.057295800000000015,-0.0859437,5.71812084,-22.99853412
7.08,708,0.10300000000000001,-0.024,-0.986,1.0886202,1.145916,0.057295800000000015,-0.07448454,5.72958,-22.99853412
7.09,709,0.10099999999999999,-0.024,-0.987,1.145916,1.0886202,0.057295800000000015,-0.06302537999999999,5.74103916,-22.99853412
7.1,710,0.1,-0.025,-0.986,1.2605076000000002,1.0886202,0.057295800000000015,-0.04010706,5.735309579999999,-22.99280454
7.11,711,0.098,-0.026000000000000002,-0.987,1.3178034,1.2032118,0.0,-0.028647900000000007,5.75249832,-22.99280454
7.12,712,0.09699999999999999,-0.027999999999999997,-0.986,1.3750992,1.2032118,-0.057295800000000015,-0.01145916,5.76395748,-22.99280454
7.13,713,0.098,-0.028999999999999998,-0.987,1.432395,1.2605076000000002,-0.1718874,0.0,5.77541664,-22.99280454
7.14,714,0.098,-0.03,-0.985,1.3750992,1.3178034,-0.286479,0.01145916,5.7868758,-22.99853412
7.15,715,0.098,-0.027999999999999997,-0.986,1.2605076000000002,1.3750992,-0.3437748,0.028647900000000007,5.7868758,-22.99853412
7.16,716,0.099,-0.025,-0.987,1.2605076000000002,1.3178034,-0.3437748,0.04583664,5.79833496,-23.0042637
7.17,717,0.098,-0.022000000000000002,-0.987,1.3750992,1.2032118,-0.40107059999999994,0.057295800000000015,5.815523699999999,-23.0042637
7.18,718,0.099,-0.021,-0.985,1.2032118,1.2032118,-0.2291832000000001,0.06875496,5.8269828599999975,-23.00999328
7.1899999999999995,719,0.1,-0.02,-0.986,1.145916,1.0886202,-0.057295800000000015,0.08021412,5.83844202,-23.00999328
7.2,720,0.1,-0.019,-0.9840000000000001,1.2032118,0.9167328000000001,0.0,0.0859437,5.8269828599999975,-23.00999328
7.21,721,0.098,-0.019,-0.983,1.2032118,0.7448454000000001,0.0,0.09740286,5.83844202,-23.00999328
7.22,722,0.096,-0.023,-0.981,1.0313244000000001,0.4583664000000001,0.1718874,0.10886202,5.844171599999999,-23.0042637
7.23,723,0.09300000000000001,-0.028999999999999998,-0.983,0.3437748,-0.11459160000000004,0.572958,0.11459160000000003,5.83844202,-22.99853412
