TimeStamp(s),FrameCounter,AccX,AccY,AccZ,GyrX,GyrY,GyrZ,EulerX,EulerY,EulerZ
0.01,1,0.002,-1.012,0.035,-0.572958,-1.5469866,0.4010706,89.93148768,-0.09740286,-56.07539946000001
0.02,2,0.002,-1.012,0.027000000000000003,-0.572958,-1.6615782,0.4583664000000001,89.9257581,-0.10313244,-56.0925882
0.03,3,0.003,-1.008,0.021,-0.4010706,-1.4896908000000002,0.572958,89.92002852,-0.10886202,-56.10977694
0.04,4,0.003,-1.004,0.025,0.1718874,-1.2032118,0.6875496,89.94867642,-0.07448454,-56.1212361
0.05,5,0.003,-1.006,0.027000000000000003,0.6302538000000001,-1.0313244,0.8021411999999999,89.95440599999998,-0.08021412,-56.12696568
0.060000000000000005,6,0.003,-1.008,0.03,0.5156622000000001,-0.7448454000000001,0.8021411999999999,89.96013558000001,-0.09167328,-56.138424840000006
0.06999999999999999,7,0.004,-1.011,0.032,0.4010706,-0.6302538000000001,0.7448454000000001,89.96586515999998,-0.09740286,-56.14415441999999
0.08,8,0.004,-1.014,0.027000000000000003,0.1718874,-0.2291832000000001,0.4010706,89.96586515999998,-0.10313244,-56.14415441999999
0.09,9,0.006,-1.012,0.025,0.2291832000000001,0.8594370000000001,0.1718874,89.98878348,-0.01718874,-56.13269526000001
0.09999999999999999,10,0.009000000000000001,-1.008,0.024,0.11459160000000004,1.2605076000000002,0.057295800000000015,89.98878348,-0.02291832,-56.1212361
0.11,11,0.011,-1.005,0.024,0.11459160000000004,1.2605076000000002,0.057295800000000015,89.98878348,-0.02291832,-56.10977694
0.12,12,0.013,-1.004,0.025,0.1718874,1.2605076000000002,0.11459160000000004,89.99451306,-0.02291832,-56.0925882
0.13,13,0.015,-1.006,0.023,0.286479,1.432395,0.286479,89.99451306,-0.028647900000000007,-56.08112903999999
0.14,14,0.014,-1.008,0.023,0.3437748,1.6042823999999998,0.5156622000000001,90.00597222,0.028647900000000007,-56.06394029999999
0.15000000000000002,15,0.01,-1.01,0.027000000000000003,0.2291832000000001,1.3750992,0.6875496,90.0117018,0.02291832,-56.04675156
0.16,16,0.004,-1.012,0.025,0.0,0.5156622000000001,0.8594370000000001,90.0117018,0.01718874,-56.04102198
0.17,17,-0.003,-1.018,0.022,-0.6302538000000001,0.11459160000000004,1.0313244,90.00597222,0.00572958,-56.04102198
0.18000000000000002,18,-0.014,-1.027,0.013,-1.7188740000000002,-0.286479,1.3750992,89.98305390000002,-0.00572958,-56.04675156
0.19,19,-0.019,-1.037,0.015,-2.1199446,0.11459160000000004,1.7188740000000002,89.95440599999998,-0.04583664,-56.04675156
0.2,20,-0.025,-1.037,0.015,-1.3750992,2.0626488000000003,2.0053530000000004,89.93721726,-0.06875496,-56.02383324
0.21000000000000002,21,-0.027000000000000003,-1.032,0.011,-0.572958,4.010706000000001,1.8907613999999997,89.93148768,-0.09167328,-55.98372618000001
0.22,22,-0.022,-1.03,0.009000000000000001,0.1718874,5.3858052,1.5469866,89.93148768,-0.10886202,-55.93215996
0.23,23,-0.013,-1.026,0.008,0.4583664000000001,5.6722842,1.145916,89.93721726,-0.12032118,-55.87486416
0.24000000000000002,24,-0.006,-1.014,0.013,0.057295800000000015,5.9014674000000005,0.6875496,89.9257581,-0.12605075999999998,-55.81756836000001
0.25,25,-0.006,-1.0,0.012,-0.7448454000000001,6.6463128000000005,0.1718874,89.92002852,-0.13178034,-55.75454298
0.26,26,-0.008,-0.986,0.009000000000000001,-1.145916,7.3911582,0.11459160000000004,89.90283978,-0.13750992,-55.68005844
0.27,27,-0.012,-0.978,0.006999999999999999,-0.6875496,7.6776372,0.2291832000000001,89.8971102,-0.13750992,-55.6055739
0.28,28,-0.015,-0.979,0.016,0.1718874,7.5630456000000015,0.4010706,89.8971102,-0.14323950000000002,-55.53108936
0.29000000000000004,29,-0.018000000000000002,-0.993,0.019,0.4583664000000001,7.2765666,0.286479,89.8971102,-0.16615782,-55.45660482000001
0.3,30,-0.021,-1.002,0.019,0.4010706,7.333862400000001,-0.057295800000000015,89.90283978,-0.16615782,-55.38784986
0.31,31,-0.026,-1.006,0.016,0.572958,7.906820400000001,-0.4010706,89.90283978,-0.16615782,-55.30763574
0.32,32,-0.031,-1.005,0.012,0.6875496,8.651665800000002,-0.6302538000000001,89.91429894,-0.16042824,-55.22169204000001
0.33,33,-0.03,-0.993,0.014,1.2032118,10.1413566,-0.6875496,89.92002852,-0.15469866,-55.11855959999999
0.34,34,-0.026,-0.985,0.016,1.7761698,11.2872726,-0.572958,89.93721726,-0.16615782,-55.00969758
0.35000000000000003,35,-0.015,-0.983,0.016,2.1772404,12.3758928,-0.286479,89.95440599999998,-0.16615782,-54.8893764
0.36000000000000004,36,-0.003,-0.99,0.01,1.6615782,13.0061466,0.0,89.97159474,-0.16615782,-54.75759606
0.37,37,0.004,-0.995,0.006999999999999999,0.6302538000000001,13.120738199999998,0.2291832000000001,89.97732432000002,-0.1718874,-54.62581572000001
0.38,38,0.006999999999999999,-0.999,0.008,-0.3437748,12.891555,0.3437748,89.97159474,-0.18334656,-54.49976496000001
0.39,39,0.008,-1.005,0.003,-0.6875496,12.6623718,0.3437748,89.94867642,-0.17761697999999998,-54.37944378
0.4,40,0.002,-1.013,-0.002,-0.286479,12.032117999999999,0.2291832000000001,89.94294684,-0.18334656,-54.25912260000001
0.41000000000000003,41,-0.003,-1.019,0.008,0.057295800000000015,11.4018642,-0.2291832000000001,89.93721726,-0.18334656,-54.14453099999999
0.42000000000000004,42,-0.01,-1.029,0.012,-0.1718874,11.8602306,-0.8021411999999999,89.93721726,-0.17761697999999998,-54.0299394
0.43,43,-0.013,-1.035,0.009000000000000001,-1.0313244,12.6623718,-1.3750992,89.92002852,-0.16615782,-53.90388864000001
0.44,44,-0.012,-1.042,0.01,-1.7761698,13.464512999999998,-1.8907613999999997,89.8971102,-0.15469866,-53.7721083
0.45,45,-0.009000000000000001,-1.047,0.013,-2.5210152000000003,14.4385416,-2.4064236,89.8684623,-0.13750992,-53.6288688
0.46,46,-0.006,-1.056,0.01,-3.724227,15.0687954,-2.86479,89.82835524000002,-0.10886202,-53.47989972000001
0.47000000000000003,47,-0.005,-1.063,0.0,-6.016058999999999,15.9282324,-3.2085648,89.76532986,-0.08021412,-53.32520106000001
0.48000000000000004,48,-0.005,-1.068,-0.006,-7.6776372,17.0168526,-3.8388186,89.68511574,-0.04583664,-53.15331366
0.49,49,-0.008,-1.078,-0.015,-10.026765,17.8189938,-4.8701430000000006,89.57052414,-0.00572958,-52.98142626
0.5,50,-0.005,-1.075,-0.027000000000000003,-11.5737516,18.621135,-6.3025379999999975,89.45020296,0.04583664,-52.7980797
0.51,51,0.0,-1.079,-0.03,-12.318597,19.8243468,-7.9641161999999985,89.3241522,0.12032118,-52.60327398
0.52,52,0.005,-1.09,-0.038,-14.610429000000002,20.9702628,-9.453807000000001,89.16945354,0.21199446,-52.40273868000001
0.53,53,0.01,-1.102,-0.045,-17.9335854,21.772404,-10.8289062,88.98610698,0.31512690000000004,-52.19074422
0.54,54,0.015,-1.115,-0.057,-22.345362,21.772404,-12.2040054,88.7511942,0.43544808,-51.97874975999999
0.55,55,0.017,-1.127,-0.076,-28.2468294,20.2827132,-13.464512999999998,88.4647152,0.56722842,-51.78394404000001
0.56,56,0.027000000000000003,-1.126,-0.1,-34.7212548,18.8503182,-14.9542038,88.10948124000002,0.7104679199999999,-51.60632706
0.5700000000000001,57,0.049,-1.115,-0.116,-40.5081306,17.7044022,-16.1001198,87.69695148,0.87089616,-51.44016924
0.5800000000000001,58,0.075,-1.095,-0.149,-44.1750618,17.8762896,-16.386598799999998,87.25004424,1.0313244,-51.27401142
0.59,59,0.102,-1.0590000000000002,-0.18600000000000005,-46.9252602,18.6784308,-15.756345000000001,86.75730036,1.19748222,-51.10785360000001
0.6,60,0.131,-1.013,-0.21,-48.0138804,19.0222056,-14.32395,86.27028606,1.3464512999999998,-50.93023662
0.61,61,0.158,-0.957,-0.209,-46.2377106,18.7357266,-13.0061466,85.8004605,1.4782316400000002,-50.75834922
0.62,62,0.179,-0.918,-0.199,-42.5707794,16.2147114,-11.6310474,85.370742,1.59855282,-50.61510972
0.63,63,0.191,-0.901,-0.194,-39.47680620000001,11.2872726,-9.969469199999999,84.96967140000002,1.6959556799999995,-50.51197728
0.64,64,0.2,-0.908,-0.191,-39.4195104,3.8961144,-8.250595200000001,84.54568248000002,1.81627686,-50.48905896
0.65,65,0.211,-0.919,-0.183,-45.1490904,-6.760904399999999,-6.4744254,84.08731608000002,1.86784308,-50.56927308
0.66,66,0.222,-0.909,-0.175,-50.9359662,-17.0168526,-5.7868758000000025,83.5659243,1.90795014,-50.74689006
0.67,67,0.236,-0.897,-0.149,-53.11320660000001,-27.3873924,-5.5576926,83.0216142,1.93659804,-51.03336906
0.68,68,0.269,-0.8909999999999999,-0.141,-52.48295279999999,-36.7266078,-5.5576926,82.4773041,1.9480572000000005,-51.40579176
0.6900000000000001,69,0.307,-0.89,-0.128,-50.3630082,-45.6647526,-5.6149884000000005,81.95591232000002,1.9767051,-51.86988774
0.7000000000000001,70,0.329,-0.89,-0.119,-49.560867,-54.3164184,-6.1879464,81.44025012,1.97097552,-52.41419784
0.7100000000000001,71,0.327,-0.855,-0.111,-48.8733174,-61.5356892,-7.8495246,80.9303175,1.97097552,-53.03872206
0.72,72,0.319,-0.812,-0.095,-47.0398518,-63.88481700000001,-10.9434978,80.44330319999997,1.98816426,-53.68616460000001
0.73,73,0.274,-0.769,-0.07,-44.2323576,-66.9787902,-15.6417534,79.97347764,2.03973048,-54.36798462
0.74,74,0.207,-0.742,-0.049,-41.4821592,-70.24465079999999,-19.480572,79.54375913999998,2.13713334,-55.09564128
0.75,75,0.14,-0.7390000000000001,-0.055,-40.7946096,-70.473834,-23.14750320000001,79.10831106,2.24599536,-55.82902752
0.76,76,0.083,-0.75,-0.075,-41.9978214,-69.2706222,-25.8977016,78.66140382,2.38350528,-56.55668418000001
0.77,77,0.027000000000000003,-0.7879999999999999,-0.1,-42.91455420000001,-66.5204238,-28.361421000000004,78.20303742,2.53820394,-57.2671521
0.78,78,0.029,-0.802,-0.114,-44.8626114,-63.1399716,-29.9657034,77.72748228,2.71582092,-57.94897212000001
0.79,79,0.041,-0.8140000000000001,-0.094,-47.3263308,-59.7595194,-29.0489706,77.22900881999998,2.88197874,-58.59068508
0.8,80,0.06,-0.841,-0.096,-51.1651494,-56.3790672,-26.7571386,76.68469872,3.02521824,-59.20375014
0.81,81,0.073,-0.85,-0.142,-54.7747848,-52.6548402,-24.5226024,76.10601113999998,3.14553942,-59.77670814
0.8200000000000001,82,0.079,-0.841,-0.202,-55.4623344,-47.67010560000001,-22.91832,75.51586440000001,3.26013102,-60.29809991999999
0.8300000000000001,83,0.071,-0.828,-0.262,-56.149884,-40.966497,-21.8869956,74.92571766,3.3689930400000003,-60.75646632
0.8400000000000001,84,0.06,-0.815,-0.28600000000000003,-57.2958,-34.950438,-21.027558600000006,74.31838218,3.48358464,-61.15180734000001
0.85,85,0.048,-0.8220000000000001,-0.307,-60.0459984,-30.8824362,-19.8816426,73.68812838,3.59244666,-61.50704129999999
0.86,86,0.036000000000000004,-0.856,-0.318,-64.457775,-29.621928600000004,-18.2200644,73.01776751999998,3.68411994,-61.850816099999996
0.87,87,0.021,-0.903,-0.337,-70.18735500000001,-30.4813656,-15.985528200000001,72.28438128,3.74714532,-62.1945909
0.88,88,0.015,-0.928,-0.348,-74.82831479999999,-31.79916900000001,-12.4904844,71.5051584,3.76433406,-62.5383657
0.89,89,0.019,-0.914,-0.348,-75.2866812,-32.2002396,-9.9121734,70.72020594,3.752874900000001,-62.88214050000001
0.9,90,0.02,-0.875,-0.35100000000000003,-72.0208206,-29.507337,-9.167328,69.96963095999999,3.74141574,-63.1972674
0.91,91,0.018000000000000002,-0.818,-0.35,-69.38521379999999,-25.7258142,-9.9121734,69.25343346,3.74141574,-63.47801682000001
0.92,92,0.02,-0.763,-0.375,-69.61439700000001,-22.1161788,-11.1153852,68.53150638,3.76433406,-63.73011834
0.93,93,0.016,-0.7070000000000001,-0.342,-69.32791800000001,-19.308684600000007,-11.745639,67.81530888,3.79871154,-63.95930154
0.9400000000000001,94,0.019,-0.695,-0.33,-68.9268474,-14.5531332,-12.1467096,67.09911138,3.85027776,-64.14837768
0.9500000000000001,95,0.028,-0.6920000000000001,-0.354,-72.9948492,-11.1153852,-11.5737516,66.3485364,3.90184398,-64.30307634
0.9600000000000001,96,0.056,-0.6920000000000001,-0.359,-75.4012728,-6.589017,-10.1413566,65.5750431,3.9648693599999993,-64.40620878
0.97,97,0.092,-0.715,-0.406,-77.92228800000002,-2.9220857999999996,-7.9641161999999985,64.77863147999999,4.01643558,-64.47496373999999
0.98,98,0.134,-0.725,-0.413,-79.641162,-4.2398892,-4.583664,63.97076069999999,4.02789474,-64.53798911999999
0.99,99,0.152,-0.696,-0.317,-76.77637200000002,-9.740286,-1.3178034,63.19153781999999,3.99924684,-64.63539198000001
1.0,100,0.139,-0.616,-0.185,-70.5311298,-11.172681,1.8907613999999997,62.46961074000001,3.9247623,-64.73279484
1.01,101,0.133,-0.5579999999999999,-0.236,-66.5777196,-8.880849000000003,3.2658606,61.78779072,3.85027776,-64.8015498
1.02,102,0.125,-0.528,-0.297,-66.2912406,-9.8548776,2.9220857999999996,61.11170028,3.77006364,-64.87603434
1.03,103,0.1,-0.545,-0.27,-61.30650600000001,-10.5424272,1.7188740000000002,60.48717606,3.70130868,-64.96770762
1.04,104,0.07,-0.618,-0.35100000000000003,-59.4157446,-9.6256944,0.057295800000000015,59.87411099999999,3.64974246,-65.05365132
1.05,105,0.047,-0.68,-0.388,-60.16059,-10.4851314,-0.8021411999999999,59.26104594,3.59817624,-65.15105418
1.06,106,0.044,-0.7190000000000001,-0.442,-61.6502808,-9.740286,-0.286479,58.63079214,3.54661002,-65.24272746
1.07,107,0.063,-0.746,-0.479,-63.311859,-8.9954406,1.2605076000000002,57.9833496,3.48358464,-65.31721200000001
1.08,108,0.066,-0.735,-0.415,-61.5356892,-10.1986524,3.2085648,57.35882538,3.39764094,-65.38596696
1.09,109,0.029,-0.6579999999999999,-0.285,-56.149884,-6.5317212,5.6149884000000005,56.79732654000001,3.3059676599999994,-65.41461486
1.1,110,0.002,-0.603,-0.343,-54.54560160000001,-1.145916,6.875496000000001,56.24155728000001,3.2314831199999987,-65.39169654
1.11,111,0.001,-0.611,-0.452,-55.4623344,3.6096354,7.6203414,55.68578802,3.18564648,-65.31721200000001
1.12,112,0.004,-0.6579999999999999,-0.478,-53.571573,7.161975,9.167328,55.14720749999999,3.1398098400000003,-65.20834998000001
1.1300000000000001,113,0.005,-0.731,-0.5529999999999999,-54.54560160000001,11.688343199999998,11.745639,54.59716782,3.0997027800000003,-65.04792174
1.1400000000000001,114,0.019,-0.7759999999999999,-0.5870000000000001,-56.8947294,13.6364004,14.7250206,54.02420982,3.04813656,-64.85884560000001
1.1500000000000001,115,0.02,-0.7979999999999999,-0.557,-55.748813399999996,13.6364004,17.131444199999994,53.46844056,2.9793816000000004,-64.64685114
1.1600000000000001,116,0.014,-0.7979999999999999,-0.502,-49.04520479999999,13.2926256,19.194093,52.98142626,2.8934379,-64.42912709999999
1.17,117,-0.022,-0.78,-0.353,-43.9458786,7.9641161999999985,19.194093,52.54024860000001,2.78457588,-64.25151012
1.18,118,-0.041,-0.737,-0.407,-40.7946096,6.0733548,17.131444199999994,52.13344842,2.67571386,-64.09681146
1.19,119,-0.022,-0.7709999999999999,-0.602,-39.6486936,7.7922288,14.7250206,51.73237782,2.59549974,-63.94784238
1.2,120,0.024,-0.7979999999999999,-0.64,-39.4195104,6.4744254,12.605076,51.33703680000001,2.52674478,-63.82179162
1.21,121,0.09,-0.826,-0.6659999999999999,-35.17962120000001,6.3025379999999975,10.0840608,50.98753242,2.48090814,-63.712929599999995
1.22,122,0.149,-0.841,-0.6729999999999999,-30.0229992,7.7922288,8.880849000000003,50.68386468,2.45798982,-63.59260842
1.23,123,0.188,-0.8270000000000001,-0.6709999999999999,-23.9496444,9.797581800000001,8.479778399999999,50.44322232,2.44653066,-63.46655766
1.24,124,0.177,-0.782,-0.498,-17.761698000000006,12.891555,7.6203414,50.3057124,2.49809688,-63.30612942000001
1.25,125,0.14300000000000002,-0.727,-0.392,-11.5737516,17.6471064,7.5057497999999985,50.1911208,2.54393352,-63.12278286
1.26,126,0.136,-0.725,-0.5670000000000001,-11.6310474,16.501190400000002,6.9327918,50.0765292,2.58977016,-62.95089546000001
1.27,127,0.138,-0.73,-0.7120000000000001,-10.8289062,14.495837400000001,6.2452422,49.97339676,2.62987722,-62.80192638
1.28,128,0.127,-0.732,-0.7340000000000001,-7.333862400000001,9.8548776,5.1566220000000005,49.90464180000001,2.65279554,-62.68733478
1.29,129,0.108,-0.779,-0.725,-0.6302538000000001,8.021412000000002,3.6669312000000014,49.86453474,2.70436176,-62.61285024
1.3,130,0.094,-0.823,-0.722,2.291832,8.307891,2.8074942000000003,49.88745306,2.73300966,-62.52690654000001
1.31,131,0.081,-0.8290000000000001,-0.6609999999999999,2.9220857999999996,6.2452422,2.0626488000000003,49.92183054,2.75592798,-62.46961074000001
1.32,132,0.08199999999999999,-0.812,-0.489,5.6149884000000005,2.3491278,1.145916,49.97912634000001,2.76165756,-62.44096284
1.33,133,0.083,-0.787,-0.385,6.1879464,5.5003968,0.7448454000000001,50.04215172,2.79030546,-62.39512620000001
1.34,134,0.112,-0.8320000000000001,-0.603,7.9641161999999985,10.0840608,1.145916,50.12809542000001,2.87624916,-62.30345292000001
1.35,135,0.117,-0.843,-0.7070000000000001,6.875496000000001,11.229976800000001,0.6302538000000001,50.20257996,2.94500412,-62.21177964
1.36,136,0.08,-0.879,-0.745,10.255948199999999,11.229976800000001,-0.057295800000000015,50.31144198,3.0137590800000003,-62.12583594
1.37,137,0.05,-0.935,-0.757,13.120738199999998,9.969469199999999,0.3437748,50.4489519,3.07105488,-62.04562182000001
1.3800000000000001,138,0.033,-0.928,-0.764,14.0947668,7.6776372,2.0626488000000003,50.5921914,3.1054323600000004,-61.97113728000001
1.3900000000000001,139,0.027000000000000003,-0.902,-0.7490000000000001,13.6936962,4.9274388,3.3231564,50.72970132,3.1054323600000004,-61.91384148
1.4000000000000001,140,0.042,-0.888,-0.7090000000000001,14.5531332,1.8334656000000005,3.2658606,50.8786704,3.08824362,-61.87946400000001
1.4100000000000001,141,0.07400000000000001,-0.8370000000000001,-0.68,14.037471,0.9167328,1.7188740000000002,51.0219099,3.0825140400000004,-61.85654568
1.42,142,0.127,-0.8270000000000001,-0.649,15.0114996,1.0313244,1.2605076000000002,51.17660856,3.0825140400000004,-61.83935694
1.43,143,0.162,-0.888,-0.629,15.0114996,-0.9167328,1.432395,51.32557764000001,3.07105488,-61.83935694
1.44,144,0.14800000000000002,-0.941,-0.578,15.126091199999998,-2.9793816000000004,1.6042823999999998,51.52038336,3.0653253000000005,-61.84508652000001
1.45,145,0.113,-0.994,-0.5870000000000001,14.5531332,-3.8961144,1.7761698,51.66935244,3.03094782,-61.86227526
1.46,146,0.063,-1.008,-0.629,12.6623718,-6.1879464,1.5469866,51.7954032,2.9793816000000004,-61.90238232
1.47,147,0.031,-1.013,-0.639,12.261301199999998,-7.1046792000000005,1.145916,51.92145396,2.93354496,-61.94821896
1.48,148,0.044,-1.031,-0.669,11.917526400000002,-6.875496000000001,1.0313244,52.04177514000001,2.88770832,-61.99978518
1.49,149,0.086,-1.04,-0.731,11.172681,-6.9327918,1.6042823999999998,52.15636674,2.8361421,-62.04562182000001
1.5,150,0.119,-1.0590000000000002,-0.7190000000000001,12.032117999999999,-7.2765666,1.7188740000000002,52.27668792000001,2.78457588,-62.09145846
1.51,151,0.15,-1.102,-0.7040000000000001,13.5791046,-6.4744254,1.9480572,52.41419784,2.73300966,-62.13156552
1.52,152,0.158,-1.126,-0.711,13.8655836,-9.224623800000002,2.9220857999999996,52.55170776,2.65852512,-62.18313174
1.53,153,0.155,-1.153,-0.725,14.32395,-12.2040054,3.7815227999999994,52.69494725999999,2.5611222600000003,-62.25761628
1.54,154,0.152,-1.18,-0.746,15.0687954,-15.2406828,4.5263682,52.8553755,2.44080108,-62.35501913999999
1.55,155,0.125,-1.203,-0.765,15.527161800000002,-18.3919518,5.443101,53.01007416,2.2918320000000003,-62.46961074000001
1.56,156,0.085,-1.229,-0.7879999999999999,15.126091199999998,-19.9962342,5.6722842,53.15904324,2.13713334,-62.59566150000001
1.57,157,0.048,-1.254,-0.775,14.7823164,-21.829699800000004,4.9847345999999995,53.30801232,1.9767051,-62.74463058
1.58,158,0.023,-1.269,-0.755,13.750992000000002,-23.204799,4.010706000000001,53.44552223999999,1.81054728,-62.90505882
1.59,159,0.015,-1.27,-0.733,12.261301199999998,-22.86102420000001,2.6356068,53.57730258,1.6615782,-63.07694622
1.6,160,0.02,-1.246,-0.7290000000000001,11.172681,-22.0015872,-0.3437748,53.68616460000001,1.5412570200000002,-63.25456319999999
1.61,161,0.036000000000000004,-1.239,-0.7190000000000001,10.886202,-21.3140376,-2.4064236,53.79502662,1.44385416,-63.44363934
1.62,162,0.051,-1.231,-0.698,10.7716104,-20.2827132,-3.724227,53.90388864000001,1.36364004,-63.6269859
1.6300000000000001,163,0.052000000000000005,-1.214,-0.672,9.969469199999999,-20.511896399999998,-4.583664,54.0012915,1.28342592,-63.82179162
1.6400000000000001,164,0.046,-1.192,-0.665,8.307891,-21.3140376,-4.9274388,54.09296478,1.20894138,-64.02232692
1.6500000000000001,165,0.033,-1.163,-0.6509999999999999,5.9014674000000005,-21.3713334,-4.9274388,54.15599016,1.12872726,-64.22859179999999
1.6600000000000001,166,0.021,-1.13,-0.636,3.7815227999999994,-21.2567418,-5.2712136,54.19036764,1.05424272,-64.42912709999999
1.6700000000000002,167,0.016,-1.085,-0.607,2.1772404,-21.0848544,-5.5576926,54.21328595999999,0.98548776,-64.63539198000001
1.68,168,0.019,-1.038,-0.609,-0.6302538000000001,-20.2254174,-5.7868758000000025,54.20755638000001,0.9167328000000001,-64.83592727999999
1.69,169,0.025,-0.994,-0.596,-2.7501984,-19.0222056,-6.1879464,54.19036764,0.86516658,-65.02500341999999
1.7,170,0.031,-0.949,-0.596,-4.6409598,-17.18874,-6.5317212,54.14453099999999,0.8193299399999999,-65.2026204
1.71,171,0.036000000000000004,-0.907,-0.584,-5.443101,-16.272007199999994,-6.703608600000001,54.08723520000001,0.7849524600000001,-65.3745078
1.72,172,0.029,-0.871,-0.5579999999999999,-5.72958,-16.2147114,-6.589017,54.0299394,0.7448454000000001,-65.54639519999999
1.73,173,0.014,-0.8420000000000001,-0.534,-5.9014674000000005,-16.386598799999998,-6.3598338,53.96691402,0.70473834,-65.71828260000001
1.74,174,0.006,-0.815,-0.527,-6.417129599999999,-15.870936600000002,-6.130650599999999,53.91534779999999,0.6589017,-65.88444042
1.75,175,-0.001,-0.784,-0.512,-6.417129599999999,-14.7250206,-5.9014674000000005,53.84659283999999,0.62452422,-66.03913908
1.76,176,-0.004,-0.7509999999999999,-0.505,-6.1879464,-12.9488508,-5.7868758000000025,53.78356746000001,0.59587632,-66.17664900000001
1.77,177,0.0,-0.723,-0.501,-5.6149884000000005,-11.9748222,-5.3858052,53.72627166000001,0.5729580000000001,-66.30842934
1.78,178,0.006,-0.696,-0.514,-4.7555514,-11.516455800000001,-4.7555514,53.68043501999999,0.5443101,-66.42875052
1.79,179,0.013,-0.6779999999999999,-0.511,-3.2085648,-11.3445684,-4.2398892,53.63459838,0.52139178,-66.54907170000001
1.8,180,0.018000000000000002,-0.6679999999999999,-0.4970000000000001,-1.9480572,-11.516455800000001,-3.4950437999999995,53.61740964000001,0.48128472,-66.6636633
1.81,181,0.019,-0.6629999999999999,-0.506,-0.9740286,-10.9434978,-2.9220857999999996,53.60595048,0.44117766,-66.77252532
1.82,182,0.013,-0.66,-0.508,0.4583664000000001,-10.255948199999999,-2.5210152000000003,53.61168005999999,0.40680018,-66.86992818
1.83,183,0.003,-0.6579999999999999,-0.505,1.9480572,-9.3965112,-2.4637194,53.63459838,0.3724227000000001,-66.96160146
1.84,184,0.0,-0.6609999999999999,-0.511,3.3231564,-8.136003599999999,-2.2345362,53.64605754,0.3437748,-67.04181558
1.85,185,0.004,-0.675,-0.514,4.8701430000000006,-7.5630456000000015,-1.7761698,53.69762376,0.31512690000000004,-67.11630012
1.86,186,0.005,-0.6970000000000001,-0.53,5.72958,-6.130650599999999,-1.432395,53.75491956,0.29220857999999994,-67.17359592
1.87,187,-0.004,-0.7240000000000001,-0.544,5.7868758000000025,-5.3858052,-1.0313244,53.81794494,0.27501984,-67.22516214
1.8800000000000001,188,-0.013,-0.7440000000000001,-0.561,5.443101,-3.5523396000000003,-0.7448454000000001,53.87524074,0.25783110000000004,-67.25381003999999
1.8900000000000001,189,-0.021,-0.752,-0.556,5.9014674000000005,-1.3750992,-0.4010706,53.90388864000001,0.2291832000000001,-67.27672836
1.9000000000000001,190,-0.02,-0.7559999999999999,-0.5489999999999999,6.703608600000001,1.0313244,-0.11459160000000004,53.96691402,0.23491278,-67.2652692
1.9100000000000001,191,-0.01,-0.765,-0.547,7.161975,1.8907613999999997,0.2291832000000001,54.04139856000001,0.24637194,-67.24808046000001
1.9200000000000002,192,0.0,-0.778,-0.556,7.161975,1.0886202,0.7448454000000001,54.1158831,0.24637194,-67.2366213
1.93,193,0.008,-0.797,-0.569,6.760904399999999,-0.2291832000000001,1.0886202,54.18463806000001,0.23491278,-67.23089172
1.94,194,0.02,-0.826,-0.59,6.0733548,-0.8594370000000001,1.0886202,54.21901554,0.25210152,-67.2366213
1.95,195,0.031,-0.856,-0.596,5.3858052,-1.3178034,0.8594370000000001,54.27631134000001,0.23491278,-67.24235088
1.96,196,0.037000000000000005,-0.878,-0.599,4.6409598,-1.9480572,0.4583664000000001,54.32214798,0.22345362,-67.25381003999999
1.97,197,0.039,-0.887,-0.612,3.8388186,-2.0626488000000003,0.11459160000000004,54.36225504,0.21199446,-67.27099878
1.98,198,0.037000000000000005,-0.897,-0.613,3.2658606,-2.0626488000000003,0.0,54.39663252,0.20053530000000008,-67.28818752
1.99,199,0.041,-0.912,-0.61,2.578311,-1.5469866,-0.286479,54.43101,0.23491278,-67.29964668
2.0,200,0.044,-0.924,-0.615,0.8594370000000001,-1.4896908000000002,-0.6875496,54.44246916000001,0.2291832000000001,-67.31683542
2.01,201,0.038,-0.925,-0.606,-0.1718874,-2.0053530000000004,-0.8021411999999999,54.43673958,0.2291832000000001,-67.33402416
2.02,202,0.024,-0.914,-0.599,-1.2032118,-2.2345362,-0.7448454000000001,54.42528042,0.21772404,-67.36267206
2.03,203,0.012,-0.8959999999999999,-0.601,-1.9480572,-2.1199446,-0.6875496,54.40809168000001,0.21199446,-67.37986079999999
2.04,204,0.006999999999999999,-0.879,-0.604,-2.578311,-1.9480572,-0.9740286,54.36798462,0.21772404,-67.40277911999999
2.05,205,0.013,-0.866,-0.608,-2.7501984,-1.432395,-1.2032118,54.33933671999999,0.21772404,-67.42569744
2.0599999999999996,206,0.026,-0.86,-0.606,-2.9220857999999996,-0.9740286,-1.6615782,54.31068882,0.22345362,-67.44288618
2.07,207,0.04,-0.86,-0.607,-3.3231564,-1.0313244,-2.2345362,54.27631134000001,0.23491278,-67.4658045
2.0799999999999996,208,0.043,-0.856,-0.605,-3.724227,-1.2605076000000002,-2.8074942000000003,54.23620428,0.25210152,-67.48872281999999
2.09,209,0.035,-0.846,-0.595,-3.9534102,-1.3750992,-3.3231564,54.17890848,0.30366774,-67.5231003
2.0999999999999996,210,0.03,-0.833,-0.589,-3.7815227999999994,-1.0886202,-3.4377480000000005,54.13880142000001,0.32658606,-67.55174819999999
2.11,211,0.028,-0.818,-0.588,-3.6096354,-0.9167328,-3.380452200000001,54.10442393999999,0.3437748,-67.58039609999999
2.1199999999999997,212,0.027000000000000003,-0.805,-0.583,-3.0939732,-1.2032118,-3.0939732,54.07004645999999,0.36096354,-67.60904400000001
2.13,213,0.03,-0.7959999999999999,-0.57,-2.6356068,-1.6615782,-2.7501984,54.04712814,0.37815228,-67.63769190000001
2.1399999999999997,214,0.036000000000000004,-0.789,-0.57,-2.291832,-1.8907613999999997,-2.291832,53.984102760000006,0.43544808,-67.67206938000001
2.15,215,0.043,-0.7859999999999999,-0.568,-2.0053530000000004,-1.7761698,-1.9480572,53.96118444,0.44117766,-67.70071728
2.1599999999999997,216,0.047,-0.784,-0.562,-1.432395,-1.0313244,-1.7188740000000002,53.94972528000001,0.44690724,-67.71790602000002
2.17,217,0.045,-0.78,-0.57,-0.8594370000000001,-0.572958,-1.6042823999999998,53.93826612,0.4583664000000001,-67.73509476
2.1799999999999997,218,0.04,-0.778,-0.5660000000000001,0.0,-0.572958,-1.145916,53.93826612,0.46409598,-67.74655392
2.19,219,0.04,-0.7809999999999999,-0.562,0.6875496,-0.4010706,-0.572958,53.86951115999999,0.6016058999999999,-67.75801308
2.1999999999999997,220,0.039,-0.785,-0.562,0.9740286,-0.2291832000000001,-0.3437748,53.88097032,0.6016058999999999,-67.76374266
2.21,221,0.035,-0.787,-0.555,1.432395,0.0,-0.4010706,53.89242948,0.6073354799999999,-67.76374266
2.2199999999999998,222,0.031,-0.7859999999999999,-0.55,1.7761698,0.572958,-0.7448454000000001,53.91534779999999,0.61306506,-67.76374266
2.23,223,0.028,-0.784,-0.5539999999999999,2.1199446,1.3750992,-1.0313244,53.93253654,0.6302538000000001,-67.75801308
2.2399999999999998,224,0.026,-0.7829999999999999,-0.56,2.7501984,2.6356068,-1.2032118,53.93826612,0.68182002,-67.74655392
2.25,225,0.032,-0.7859999999999999,-0.565,3.2658606,3.151269,-1.0313244,53.97264360000001,0.70473834,-67.72936518
2.26,226,0.044,-0.7879999999999999,-0.5589999999999999,3.7815227999999994,2.9793816000000004,-0.7448454000000001,54.00702108,0.72765666,-67.70644686
2.27,227,0.057,-0.794,-0.5539999999999999,4.297185,2.4637194,-0.1718874,54.05285772,0.7448454000000001,-67.68925812
2.28,228,0.066,-0.7979999999999999,-0.552,4.4690724,1.8907613999999997,0.2291832000000001,54.09869436,0.75630456,-67.67206938000001
2.29,229,0.07,-0.802,-0.56,4.4117766,1.0886202,0.3437748,54.12161268,0.8594370000000001,-67.66061022
2.3,230,0.069,-0.8079999999999999,-0.563,4.3544808,0.286479,0.1718874,54.16744932,0.8594370000000001,-67.65488064
2.31,231,0.065,-0.816,-0.5670000000000001,4.4117766,-0.11459160000000004,-0.286479,54.21328595999999,0.8594370000000001,-67.65488064
2.32,232,0.06,-0.821,-0.569,4.4117766,0.0,-0.7448454000000001,54.25912260000001,0.86516658,-67.66061022
2.3299999999999996,233,0.057,-0.825,-0.568,4.297185,0.5156622000000001,-1.0886202,54.29922966,0.8823553199999999,-67.66061022
2.34,234,0.053,-0.828,-0.57,4.4117766,0.8021411999999999,-1.3178034,54.33933671999999,0.95111028,-67.66061022
2.3499999999999996,235,0.052000000000000005,-0.83,-0.56,4.5263682,1.145916,-1.4896908000000002,54.38517336000001,0.96829902,-67.66061022
2.36,236,0.052000000000000005,-0.828,-0.561,4.5263682,1.3178034,-1.6042823999999998,54.43101,0.9912173399999998,-67.66061022
2.3699999999999997,237,0.051,-0.825,-0.561,4.583664,1.7188740000000002,-1.6615782,54.48257622,1.01413566,-67.65488064
2.38,238,0.051,-0.8320000000000001,-0.562,4.9274388,2.6356068,-1.6042823999999998,54.52841285999999,1.04278356,-67.63769190000001
2.3899999999999997,239,0.049,-0.8420000000000001,-0.57,5.042030400000002,3.0939732,-1.3178034,54.57997908,1.10007936,-67.62050316
2.4,240,0.052000000000000005,-0.85,-0.5660000000000001,5.1566220000000005,2.6356068,-1.0313244,54.631545300000006,1.12872726,-67.60331441999999
2.4099999999999997,241,0.058,-0.853,-0.555,5.1566220000000005,2.0626488000000003,-0.6875496,54.68884110000001,1.1459160000000002,-67.59185526
2.42,242,0.062,-0.851,-0.564,4.8128472,2.1199446,-0.6302538000000001,54.73467774000001,1.16310474,-67.57466652000001
2.4299999999999997,243,0.056,-0.8440000000000001,-0.564,4.6409598,1.9480572,-0.8594370000000001,54.78051438,1.18029348,-67.56320736
2.44,244,0.049,-0.8440000000000001,-0.5489999999999999,4.583664,2.9793816000000004,-1.432395,54.84353976,1.23758928,-67.54601862
2.4499999999999997,245,0.046,-0.846,-0.551,4.7555514,5.1566220000000005,-2.1199446,54.89510598,1.28342592,-67.51164114
2.46,246,0.048,-0.852,-0.551,4.297185,6.3598338,-2.6356068,54.93521304,1.34072172,-67.47726365999999
2.4699999999999998,247,0.056,-0.861,-0.5379999999999999,4.4690724,7.9641161999999985,-3.0366774,54.98104968,1.40947668,-67.42569744
2.48,248,0.064,-0.865,-0.5479999999999999,4.297185,8.651665800000002,-3.0366774,55.02688632,1.48396122,-67.37413122000001
2.4899999999999998,249,0.07,-0.8640000000000001,-0.562,3.724227,7.5057497999999985,-2.6356068,55.06126379999999,1.5756344999999998,-67.322565
2.5,250,0.07200000000000001,-0.856,-0.573,3.380452200000001,6.760904399999999,-2.2345362,55.10137086000001,1.6329303,-67.28245794
2.51,251,0.069,-0.847,-0.563,3.5523396000000003,5.7868758000000025,-2.1772404,55.13574834,1.6844965200000002,-67.24808046000001
2.52,252,0.065,-0.84,-0.568,3.3231564,4.583664,-2.1772404,55.17012582,1.7246035799999997,-67.21943256
2.53,253,0.059,-0.836,-0.57,2.9220857999999996,3.6669312000000014,-2.4064236,55.19877372,1.76471064,-67.20224381999999
2.54,254,0.053,-0.8340000000000001,-0.561,3.0366774,2.578311,-2.86479,55.22169204000001,1.82773602,-67.19651424
2.55,255,0.055,-0.8370000000000001,-0.555,3.0939732,2.1772404,-3.380452200000001,55.25033994,1.86784308,-67.19651424
2.56,256,0.058,-0.84,-0.552,3.0939732,2.1199446,-4.010706000000001,55.28471741999999,1.91367972,-67.20224381999999
2.57,257,0.051,-0.838,-0.5429999999999999,2.9220857999999996,2.4637194,-4.4690724,55.31336532,1.96524594,-67.2079734
2.5799999999999996,258,0.042,-0.836,-0.539,2.86479,3.151269,-4.8128472,55.34201322,2.02254174,-67.2079734
2.59,259,0.037000000000000005,-0.838,-0.546,2.8074942000000003,3.0366774,-4.9274388,55.37066112,2.07983754,-67.21370298
2.5999999999999996,260,0.04,-0.84,-0.547,2.6356068,2.86479,-4.9274388,55.39357944,2.13713334,-67.21370298
2.61,261,0.047,-0.8440000000000001,-0.532,2.86479,2.6356068,-4.583664,55.42222733999999,2.18869956,-67.21943256
2.6199999999999997,262,0.054000000000000006,-0.843,-0.53,3.0366774,2.2345362,-4.1825934,55.45660482000001,2.24026578,-67.22516214
2.63,263,0.055,-0.8340000000000001,-0.526,2.9793816000000004,1.8907613999999997,-3.380452200000001,55.48525271999999,2.2746432600000004,-67.22516214
2.6399999999999997,264,0.054000000000000006,-0.8270000000000001,-0.515,3.0939732,1.8334656000000005,-2.5210152000000003,55.54254852,2.32620948,-67.21943256
2.65,265,0.054000000000000006,-0.8190000000000001,-0.511,3.0939732,1.7188740000000002,-1.4896908000000002,55.57692599999999,2.3491277999999998,-67.21370298
2.6599999999999997,266,0.048,-0.8140000000000001,-0.5,3.6669312000000014,1.7188740000000002,-0.6302538000000001,55.61703306,2.36631654,-67.20224381999999
2.67,267,0.042,-0.818,-0.495,3.3231564,0.9740286,0.2291832000000001,55.64568095999999,2.37204612,-67.19078465999999
2.6799999999999997,268,0.033,-0.8240000000000001,-0.53,3.0366774,0.8594370000000001,0.8021411999999999,55.68005844,2.36631654,-67.17932549999999
2.69,269,0.022,-0.848,-0.537,3.9534102,1.0313244,1.145916,55.73735424,2.3376686399999995,-67.16213676
2.6999999999999997,270,0.021,-0.8909999999999999,-0.556,4.9847345999999995,1.145916,1.0886202,55.78892046,2.33193906,-67.14494801999999
2.71,271,0.02,-0.94,-0.5670000000000001,6.1879464,1.7761698,0.9167328,55.85194584,2.3376686399999995,-67.1220297
2.7199999999999998,272,0.02,-0.988,-0.602,7.5057497999999985,1.0886202,0.7448454000000001,55.92643038,2.3376686399999995,-67.11057054
2.73,273,0.024,-1.041,-0.645,8.078707799999998,-0.4010706,0.4010706,56.01237408,2.33193906,-67.11057054
2.7399999999999998,274,0.036000000000000004,-1.099,-0.684,8.5370742,-2.9220857999999996,0.6302538000000001,56.09831778,2.30902074,-67.13348886
2.75,275,0.05,-1.175,-0.6759999999999999,9.969469199999999,-7.2192707999999985,1.2605076000000002,56.20145021999999,2.2631841,-67.18505508000001
2.76,276,0.061,-1.255,-0.703,8.9954406,-10.7716104,2.0053530000000004,56.29312349999999,2.18869956,-67.2652692
2.77,277,0.063,-1.3130000000000002,-0.713,7.2765666,-12.9488508,2.4064236,56.36187846,2.10275586,-67.35694248
2.78,278,0.068,-1.354,-0.7170000000000001,4.9847345999999995,-13.178034,2.4637194,56.41344468,2.01681216,-67.45434534
2.79,279,0.085,-1.382,-0.726,2.4064236,-10.4851314,1.8907613999999997,56.44209258000001,1.94232762,-67.52882988
2.8,280,0.087,-1.394,-0.737,-0.3437748,-6.990087599999999,0.9740286,56.43636299999999,1.90222056,-67.58612568
2.81,281,0.061,-1.386,-0.743,-2.6356068,-3.2658606,-0.4010706,56.407715100000004,1.88503182,-67.61477357999999
2.82,282,0.021,-1.359,-0.723,-3.9534102,0.6875496,-1.7188740000000002,56.36760803999999,1.90222056,-67.62050316
2.8299999999999996,283,-0.002,-1.3259999999999998,-0.713,-5.443101,4.2398892,-2.6356068,56.31031224,1.9480572000000005,-67.59758484
2.84,284,0.001,-1.295,-0.698,-6.8182002000000015,7.5630456000000015,-3.0939732,56.24728686,2.01108258,-67.55174819999999
2.8499999999999996,285,0.018000000000000002,-1.267,-0.685,-8.7089616,9.0527364,-3.0366774,56.16134316,2.07983754,-67.48872281999999
2.86,286,0.036000000000000004,-1.23,-0.6659999999999999,-10.8289062,9.969469199999999,-2.5210152000000003,56.05248114,2.15432208,-67.41996786
2.8699999999999997,287,0.054000000000000006,-1.178,-0.657,-13.2926256,11.0007936,-1.7188740000000002,55.92070079999999,2.22307704,-67.33975374
2.88,288,0.071,-1.109,-0.672,-14.4385416,13.407217200000002,-1.7761698,55.77173172000001,2.30902074,-67.24235088
2.8899999999999997,289,0.081,-1.043,-0.6459999999999999,-13.9228794,15.0687954,-2.2345362,55.6342218,2.41215318,-67.12775927999999
2.9,290,0.092,-0.981,-0.6459999999999999,-12.1467096,17.9335854,-3.4377480000000005,55.51390062,2.53820394,-66.99597894
2.9099999999999997,291,0.08800000000000001,-0.93,-0.628,-9.6829902,19.8816426,-4.9274388,55.42222733999999,2.68144344,-66.85846902
2.92,292,0.077,-0.893,-0.594,-6.875496000000001,22.2880662,-6.0733548,55.35347237999999,2.85333084,-66.70949994
2.9299999999999997,293,0.058,-0.863,-0.5760000000000001,-4.4117766,24.1788276,-6.4744254,55.31336532,3.0366774000000003,-66.54334212
2.94,294,0.058,-0.841,-0.5539999999999999,-2.5210152000000003,25.3820394,-5.844171599999999,55.29044700000001,3.22002396,-66.36572514000001
2.9499999999999997,295,0.069,-0.821,-0.5589999999999999,-0.8594370000000001,25.0382646,-3.9534102,55.29044700000001,3.38618178,-66.18237858
2.96,296,0.094,-0.795,-0.5589999999999999,0.6302538000000001,23.2620948,-2.0626488000000003,55.30763574,3.52942128,-65.99903202
2.9699999999999998,297,0.117,-0.774,-0.5379999999999999,2.578311,22.1161788,-0.8021411999999999,55.34201322,3.65547204,-65.82141504
2.98,298,0.138,-0.7559999999999999,-0.532,4.583664,21.829699800000004,-0.4010706,55.39357944,3.7815227999999994,-65.64379806000001
2.9899999999999998,299,0.156,-0.747,-0.537,6.875496000000001,21.5432208,-0.5156622000000001,55.45660482000001,3.93622146,-65.47191066
3.0,300,0.177,-0.748,-0.546,10.886202,21.6005166,-0.7448454000000001,55.57692599999999,4.05654264,-65.29429368000001
3.01,301,0.184,-0.758,-0.53,14.8396122,22.058883,-0.9167328,55.73735424,4.1883229800000015,-65.11094712
3.02,302,0.174,-0.764,-0.524,18.7357266,22.345362,-0.8594370000000001,55.93788954,4.31437374,-64.93333014
3.03,303,0.168,-0.7829999999999999,-0.526,22.6891368,21.199446,-0.9167328,56.1785319,4.4404245000000016,-64.75571316
3.04,304,0.149,-0.802,-0.479,25.55392680000001,17.246035799999998,-1.0886202,56.45928131999999,4.5550161000000005,-64.61247366
3.05,305,0.135,-0.8190000000000001,-0.477,27.3873924,14.381245800000002,-1.0313244,56.74576032,4.64668938,-64.49788206
3.06,306,0.13699999999999998,-0.8320000000000001,-0.478,27.9603504,13.0061466,-1.145916,57.03223932000001,4.7269035000000015,-64.38902004
3.07,307,0.145,-0.831,-0.451,28.4187168,11.745639,-0.8594370000000001,57.33017748,4.79565846,-64.29734676
3.08,308,0.159,-0.843,-0.489,28.4187168,11.6310474,-0.5156622000000001,57.62238606,4.86441342,-64.19994390000001
3.09,309,0.181,-0.848,-0.529,29.2781538,11.229976800000001,-0.11459160000000004,57.92605379999999,4.95035712,-64.10254104
3.0999999999999996,310,0.184,-0.856,-0.447,32.2002396,10.3705398,0.4583664000000001,58.25836943999999,5.001923339999999,-64.00513817999999
3.11,311,0.172,-0.8759999999999999,-0.444,34.262888399999994,8.7089616,1.0886202,58.6136034,5.042030400000002,-63.92492406
3.1199999999999997,312,0.153,-0.8909999999999999,-0.451,35.3515086,5.7868758000000025,1.7188740000000002,58.97456694,5.05921914,-63.86189868
3.13,313,0.133,-0.915,-0.442,35.9244666,3.6669312000000014,2.291832,59.34126005999999,5.05921914,-63.81606204
3.1399999999999997,314,0.117,-0.933,-0.454,35.4088044,2.86479,2.7501984,59.71941234,5.05921914,-63.7702254
3.15,315,0.101,-0.94,-0.425,34.66395900000001,2.0053530000000004,2.86479,60.0746463,5.05348956,-63.73584792000001
3.1599999999999997,316,0.084,-0.931,-0.419,33.6899304,2.0053530000000004,2.7501984,60.4184211,5.042030400000002,-63.70720002
3.17,317,0.08,-0.92,-0.459,33.3461556,4.1825934,2.1199446,60.76219590000001,5.04775998,-63.6556338
3.1799999999999997,318,0.083,-0.926,-0.463,34.1482968,6.1879464,1.3750992,61.11170028,5.06494872,-63.59260842
3.19,319,0.083,-0.933,-0.439,34.950438,6.417129599999999,0.286479,61.48412298,5.0935966200000005,-63.52958304
3.1999999999999997,320,0.077,-0.951,-0.398,35.7525792,5.5003968,-0.1718874,61.850816099999996,5.1279740999999985,-63.47801682000001
3.21,321,0.062,-0.952,-0.364,35.5806918,4.297185,0.0,62.21750922,5.15089242,-63.43790975999999
3.2199999999999998,322,0.056,-0.965,-0.35,36.7839036,4.6982556,0.057295800000000015,62.59566150000001,5.17381074,-63.39207312
3.23,323,0.06,-0.966,-0.374,36.096354,4.8128472,0.057295800000000015,62.962354620000006,5.19672906,-63.34623648
3.2399999999999998,324,0.08199999999999999,-0.966,-0.374,37.0703826,5.6149884000000005,0.0,63.36342522,5.22537696,-63.28894068
3.25,325,0.092,-0.955,-0.35200000000000004,38.67466500000001,4.8701430000000006,-0.4583664000000001,63.75876624,5.25402486,-63.24310404000001
3.26,326,0.099,-0.925,-0.339,40.6227222,4.9847345999999995,-1.4896908000000002,64.171296,5.29413192,-63.20299698
3.27,327,0.096,-0.888,-0.298,42.398892,4.6982556,-2.4064236,64.60674408,5.339968560000001,-63.1686195
3.28,328,0.08900000000000001,-0.866,-0.252,44.8626114,3.0939732,-4.3544808,65.06511048,5.397264359999999,-63.15143076
3.29,329,0.09,-0.862,-0.261,46.409598,2.1772404,-6.2452422,65.54639519999999,5.4717489000000015,-63.15143076
3.3,330,0.098,-0.861,-0.29600000000000004,48.70143,3.0366774,-7.906820400000001,66.04486865999999,5.5576926,-63.15143076
3.31,331,0.104,-0.862,-0.289,50.0765292,3.7815227999999994,-8.651665800000002,66.54907170000001,5.66082504,-63.14570118
3.32,332,0.102,-0.8540000000000001,-0.28,50.1911208,4.3544808,-8.8235532,67.05900432000001,5.76395748,-63.1399716
3.33,333,0.094,-0.843,-0.301,49.1597964,7.7922288,-9.167328,67.56320736,5.87854908,-63.09986454
3.34,334,0.086,-0.8370000000000001,-0.3,48.529542600000006,14.495837400000001,-9.8548776,68.0674104,6.0275181600000005,-62.9967321
3.3499999999999996,335,0.077,-0.826,-0.304,48.3576552,20.454600600000006,-10.026765,68.57161344,6.19367598,-62.83630386
3.36,336,0.068,-0.8220000000000001,-0.34,49.2170922,26.5279554,-9.969469199999999,69.08727564,6.382752120000001,-62.61857982
3.3699999999999997,337,0.047,-0.818,-0.325,49.9619376,31.111619399999995,-9.568398599999998,69.62012658,6.57755784,-62.35501913999999
3.38,338,0.022,-0.81,-0.3,49.5035712,33.1742682,-8.59437,70.15297752000001,6.76663398,-62.06854014
3.3899999999999997,339,-0.008,-0.7909999999999999,-0.276,47.8992888,33.804522,-7.2192707999999985,70.66863972,6.9270622200000025,-61.77060198
3.4,340,-0.032,-0.757,-0.257,46.065823200000004,35.17962120000001,-5.72958,71.17284276000002,7.09322004,-61.44974549999999
3.4099999999999997,341,-0.016,-0.726,-0.236,45.3209778,37.0130868,-3.8388186,71.67131622000002,7.242189120000001,-61.10597070000001
3.42,342,0.018000000000000002,-0.6779999999999999,-0.215,42.5134836,39.0757356,-0.1718874,72.14114178,7.3567807200000015,-60.72781842000001
3.4299999999999997,343,0.049,-0.6559999999999999,-0.207,40.680018,40.90920120000001,3.7815227999999994,72.60523776,7.43699484,-60.32101824
3.44,344,0.099,-0.647,-0.211,39.3049188,44.7480198,7.2192707999999985,73.052145,7.49429064,-59.86838142000001
3.4499999999999997,345,0.13,-0.637,-0.231,37.1849742,48.3003594,10.0840608,73.48759308,7.5286681200000025,-59.36990796
3.46,346,0.16899999999999998,-0.639,-0.252,36.4974246,51.0505578,11.3445684,73.92304116,7.551586439999999,-58.8427866
3.4699999999999998,347,0.191,-0.6659999999999999,-0.235,35.695283399999994,49.4462754,12.0894138,74.34703008,7.55731602,-58.3271244
3.48,348,0.18,-0.7,-0.249,35.5806918,45.6074568,12.3758928,74.76528942,7.551586439999999,-57.85156926
3.4899999999999998,349,0.15,-0.728,-0.266,35.4088044,43.65939960000001,12.891555,75.16636002,7.534397699999999,-57.39320286
3.5,350,0.115,-0.754,-0.234,35.695283399999994,42.112413,13.0061466,75.58461936,7.51147938,-56.94629562
3.51,351,0.101,-0.775,-0.187,36.1536498,39.6486936,13.0061466,76.00287870000002,7.47137232,-56.52803628
3.52,352,0.086,-0.779,-0.152,36.8411994,37.9298196,13.178034,76.42113803999997,7.431265259999999,-56.1212361
3.53,353,0.085,-0.779,-0.156,36.955791,37.9298196,13.2926256,76.84512696,7.37969904,-55.72016549999999
3.54,354,0.08900000000000001,-0.774,-0.158,36.8411994,37.7006364,13.2926256,77.26338630000002,7.328132819999999,-55.3190949
3.55,355,0.109,-0.757,-0.187,37.1849742,38.4454818,13.0061466,77.6931048,7.2765666,-54.91229472
3.56,356,0.136,-0.728,-0.165,40.33624320000001,37.8725238,12.605076,78.14574162,7.225000379999999,-54.50549454
3.57,357,0.16399999999999998,-0.693,-0.154,44.919907200000004,37.5860448,11.9748222,78.64421508000002,7.17916374,-54.11015352
3.58,358,0.214,-0.66,-0.102,49.1025006,38.38818600000001,11.8029348,79.18852518,7.1333271000000025,-53.70335334
3.59,359,0.263,-0.62,-0.098,52.998615,38.2162986,11.2872726,79.77294234,7.1046792000000005,-53.30801232
3.5999999999999996,360,0.301,-0.614,-0.131,55.9779966,37.757932200000006,11.5737516,80.3860074,7.05311298,-52.90694172
3.61,361,0.337,-0.612,-0.126,57.92605379999999,34.4347758,13.5791046,81.01053162,6.96716928,-52.54024860000001
3.6199999999999997,362,0.369,-0.609,-0.122,60.44706899999999,29.2781538,16.272007199999994,81.65797416000002,6.85257768,-52.21939212000001
3.63,363,0.392,-0.631,-0.12,60.67625219999999,24.2934192,19.1367972,82.3054167,6.69787902,-51.94437228
3.6399999999999997,364,0.387,-0.6679999999999999,-0.12,58.2698286,17.589810600000003,22.6891368,82.91275218,6.525991620000001,-51.7381074
3.65,365,0.359,-0.716,-0.126,55.2331512,11.4018642,25.78311,83.49143975999998,6.29107884,-51.58913832
3.6599999999999997,366,0.31,-0.7829999999999999,-0.131,51.56622,6.8182002000000015,28.2468294,84.0242907,6.02178858,-51.48600588000001
3.67,367,0.256,-0.818,-0.134,43.77399120000001,0.0,28.8770832,84.47119794,5.735309579999999,-51.45735798
3.6799999999999997,368,0.214,-0.84,-0.165,35.9244666,-4.4690724,28.0176462,84.83789106,5.46028974,-51.46881714
3.69,369,0.159,-0.873,-0.192,29.9084076,-5.958763200000001,26.7571386,85.1129109,5.20818822,-51.5089242
3.6999999999999997,370,0.118,-0.908,-0.184,26.5852512,-6.3025379999999975,24.9809688,85.38220116,4.9560867,-51.54903126000001
3.71,371,0.091,-0.939,-0.16,24.5798982,-6.417129599999999,23.2620948,85.62857310000003,4.7269035000000015,-51.59486790000001
3.7199999999999998,372,0.087,-0.955,-0.159,22.6891368,-6.016058999999999,23.4339822,85.85775629999998,4.49199072,-51.63497496
3.73,373,0.102,-0.982,-0.162,20.8556712,-6.3025379999999975,25.3820394,86.06402118000004,4.2398892,-51.68081159999999
3.7399999999999998,374,0.14300000000000002,-0.983,-0.152,19.595163600000006,-6.760904399999999,29.793816,86.24163816000002,3.95913978,-51.73237782
3.75,375,0.18600000000000005,-0.983,-0.108,20.340009,-10.5424272,35.0077338,86.44790304,3.61536498,-51.81259193999999
3.76,376,0.22,-1.005,-0.083,23.14750320000001,-15.0687954,38.5027776,86.67708624000002,3.2257535399999995,-51.9386427
3.77,377,0.23,-1.042,-0.077,26.356068,-18.621135,40.33624320000001,86.94064691999998,2.82468294,-52.09907094
3.78,378,0.22,-1.068,-0.069,28.991674800000002,-21.3713334,40.393539,87.22712592,2.42361234,-52.28814708
3.79,379,0.179,-1.067,-0.061,32.830493399999995,-22.2307704,38.8465524,87.55371198,2.05118964,-52.48868238
3.8,380,0.123,-1.091,-0.052000000000000005,36.2682414,-23.491278,35.7525792,87.92040510000002,1.6959556799999995,-52.70067684000001
3.81,381,0.067,-1.12,-0.046,38.1590028,-24.2361234,31.741873200000004,88.30428696,1.38082878,-52.92986004
3.82,382,0.008,-1.145,-0.037000000000000005,39.591397799999996,-24.4653066,27.2728008,88.70535756,1.11153852,-53.15904324
3.83,383,-0.04,-1.165,-0.001,41.252976,-23.3193906,22.86102420000001,89.12361690000002,0.89381448,-53.38249686
3.84,384,-0.068,-1.1909999999999998,0.03,41.3675676,-20.340009,20.2254174,89.54760582,0.6875496,-53.57730258
3.8499999999999996,385,-0.07200000000000001,-1.193,0.059,39.7632852,-16.386598799999998,18.5065434,89.94867642,0.5099326200000001,-53.73200124
3.86,386,-0.058,-1.178,0.083,35.6379876,-10.7143146,16.272007199999994,90.31536954,0.35523396,-53.83513368
3.8699999999999997,387,-0.03,-1.163,0.096,30.8824362,-3.9534102,13.8082878,90.63049644,0.22345362,-53.87524074
3.88,388,0.004,-1.128,0.076,26.5852512,2.291832,11.229976800000001,90.8997867,0.11459160000000004,-53.84659283999999
3.8899999999999997,389,0.04,-1.094,0.052000000000000005,24.0069402,6.6463128000000005,9.0527364,91.14042906,0.03437748,-53.78356746000001
3.9,390,0.078,-1.063,0.039,22.459953600000002,8.479778399999999,7.333862400000001,91.36961226,-0.03437748,-53.69762376
3.9099999999999997,391,0.103,-1.021,0.042,21.485925,9.9121734,6.130650599999999,91.5873363,-0.09740286,-53.6002209
3.92,392,0.121,-0.994,0.041,20.626488,10.1413566,5.3285094000000015,91.79360118,-0.15469866,-53.49708846
3.9299999999999997,393,0.129,-0.991,0.03,19.8243468,8.8235532,4.7555514,91.99413648,-0.20626488,-53.41114475999999
3.94,394,0.14300000000000002,-0.982,0.024,17.5325148,6.2452422,4.1252976000000015,92.15456472,-0.18907614,-53.34811938
3.9499999999999997,395,0.151,-0.989,0.019,16.042824000000003,3.380452200000001,3.9534102,92.31499296,-0.2291832000000001,-53.3137419
3.96,396,0.149,-0.995,0.011,14.9542038,0.6302538000000001,4.2398892,92.46969162,-0.26929026,-53.30801232
3.9699999999999998,397,0.132,-1.007,0.006999999999999999,14.7823164,-3.2085648,4.4117766,92.6186607,-0.30939732,-53.34238979999999
3.98,398,0.105,-1.02,0.012,15.183387000000002,-8.3651868,4.297185,92.77908894,-0.3437748,-53.428333499999994
3.9899999999999998,399,0.08,-1.028,0.028,14.4385416,-13.349921400000001,3.2658606,92.91086928,-0.33804522,-53.56011384000001
4.0,400,0.06,-1.04,0.044,12.7196676,-16.501190400000002,1.7188740000000002,93.04264962,-0.33804522,-53.72054208
4.01,401,0.045,-1.055,0.052000000000000005,10.0840608,-18.621135,0.4583664000000001,93.15151164,-0.33231564,-53.90388864000001
4.02,402,0.034,-1.058,0.055,7.448453999999999,-19.6524594,-0.7448454000000001,93.23172576,-0.30366774,-54.09869436
4.03,403,0.032,-1.056,0.057,5.958763200000001,-19.3659804,-1.2032118,93.29475114,-0.27501984,-54.28777049999999
4.04,404,0.033,-1.058,0.06,6.1879464,-19.0222056,-0.572958,93.35204694,-0.23491278,-54.47684664
4.05,405,0.034,-1.064,0.067,6.589017,-19.8243468,0.4010706,93.4208019,-0.22345362,-54.67165236
4.06,406,0.031,-1.061,0.08,6.3598338,-19.5378678,1.2032118,93.48955686,-0.21772404,-54.86072849999999
4.07,407,0.021,-1.042,0.08800000000000001,5.3285094000000015,-17.246035799999998,1.4896908000000002,93.54685266,-0.21772404,-55.03261590000001
4.08,408,0.011,-1.022,0.093,5.2139178,-13.464512999999998,1.2605076000000002,93.60414846,-0.21772404,-55.16439624
4.09,409,0.0,-1.007,0.093,4.9847345999999995,-8.9954406,0.6302538000000001,93.66144426,-0.21199446,-55.25606952
4.1,410,-0.006,-1.009,0.093,3.9534102,-4.8701430000000006,-0.286479,93.70155132,-0.20626488,-55.30190616
4.109999999999999,411,-0.008,-1.017,0.093,1.7188740000000002,-0.8594370000000001,-1.2032118,93.72446964,-0.18907614,-55.30763574
4.12,412,-0.002,-1.027,0.09,-0.8594370000000001,1.8334656000000005,-1.6615782,93.71301048,-0.17761697999999998,-55.29044700000001
4.13,413,0.008,-1.033,0.09,-2.9220857999999996,3.4377480000000005,-1.7761698,93.68436258,-0.16042824,-55.25606952
4.14,414,0.026,-1.037,0.086,-4.4690724,4.0680017999999984,-1.7188740000000002,93.63852594,-0.10886202,-55.21596246
4.1499999999999995,415,0.042,-1.041,0.086,-6.4744254,4.2398892,-1.4896908000000002,93.56977098,-0.09740286,-55.17012582
4.16,416,0.049,-1.036,0.071,-7.8495246,4.297185,-0.9740286,93.48955686,-0.09167328,-55.13001876
4.17,417,0.049,-1.016,0.064,-8.021412000000002,4.7555514,-0.3437748,93.40934274,-0.09740286,-55.08418212
4.18,418,0.046,-0.993,0.065,-7.1046792000000005,5.2139178,0.2291832000000001,93.3348582,-0.10313244,-55.03261590000001
4.1899999999999995,419,0.039,-0.976,0.077,-5.9014674000000005,4.9847345999999995,0.4010706,93.27756240000001,-0.06875496,-54.98104968
4.2,420,0.034,-0.978,0.091,-5.6149884000000005,4.3544808,0.0,93.2202666,-0.07448454,-54.94094262
4.21,421,0.029,-0.987,0.092,-6.4744254,3.724227,-0.6875496,93.15724122,-0.06875496,-54.90083556
4.22,422,0.031,-0.996,0.087,-7.2765666,4.0680017999999984,-1.3750992,93.08275668,-0.057295800000000015,-54.86072849999999
4.2299999999999995,423,0.033,-1.006,0.08800000000000001,-8.078707799999998,5.042030400000002,-1.3750992,92.99681298,-0.05156622,-54.81489186
4.24,424,0.038,-1.018,0.08900000000000001,-8.9381448,5.1566220000000005,-0.7448454000000001,92.91659886,-0.01145916,-54.75759606
4.25,425,0.044,-1.028,0.091,-10.1413566,5.5003968,0.057295800000000015,92.81346642,-0.01718874,-54.70602984
4.26,426,0.05,-1.033,0.092,-10.8289062,5.7868758000000025,0.9167328,92.7046044,-0.03437748,-54.64873404
4.27,427,0.051,-1.034,0.091,-10.4851314,5.1566220000000005,1.432395,92.59574238000002,-0.05156622,-54.602897399999996
4.28,428,0.046,-1.026,0.078,-9.3965112,4.9847345999999995,1.5469866,92.49833952,-0.07448454,-54.55133118
4.29,429,0.04,-1.015,0.073,-7.7922288,4.7555514,1.3750992,92.42385498,-0.057295800000000015,-54.50549454
4.3,430,0.032,-1.006,0.07200000000000001,-7.1046792000000005,4.2398892,0.9167328,92.34937044,-0.06875496,-54.46538748
4.31,431,0.028,-1.002,0.08199999999999999,-7.2765666,3.4950437999999995,0.5156622000000001,92.2748859,-0.07448454,-54.43101
4.32,432,0.029,-1.003,0.08,-8.136003599999999,3.6669312000000014,0.4583664000000001,92.1889422,-0.0859437,-54.39663252
4.33,433,0.034,-0.995,0.075,-8.7662574,3.6669312000000014,0.286479,92.1029985,-0.09167328,-54.36225504
4.34,434,0.038,-0.985,0.066,-8.078707799999998,3.2658606,0.0,92.02278438,-0.04583664,-54.32787755999999
4.35,435,0.037000000000000005,-0.981,0.048,-6.990087599999999,2.0626488000000003,-0.286479,91.94829984,-0.04583664,-54.31068882
4.36,436,0.033,-0.984,0.04,-5.72958,-0.4010706,-0.5156622000000001,91.89100404,-0.04010706,-54.3164184
4.37,437,0.029,-0.993,0.041,-5.3285094000000015,-2.4637194,-0.7448454000000001,91.83943782,-0.03437748,-54.33933671999999
4.38,438,0.026,-1.004,0.042,-6.130650599999999,-3.6096354,-1.2032118,91.77641244,-0.01718874,-54.37371420000001
4.39,439,0.026,-1.011,0.049,-6.990087599999999,-3.9534102,-1.4896908000000002,91.70192790000002,0.01718874,-54.41955084
4.3999999999999995,440,0.026,-1.015,0.049,-6.990087599999999,-3.8961144,-1.432395,91.62744336,0.03437748,-54.45392832
4.41,441,0.022,-1.01,0.047,-6.417129599999999,-3.724227,-1.2605076000000002,91.56441798,0.04583664,-54.49403537999999
4.42,442,0.02,-1.004,0.048,-5.5003968,-3.8961144,-0.9167328,91.50712218,0.057295800000000015,-54.53414244
4.43,443,0.02,-0.997,0.042,-4.5263682,-3.8961144,-0.6302538000000001,91.46128554,0.06875496,-54.57424949999999
4.4399999999999995,444,0.023,-0.991,0.04,-3.8961144,-4.0680017999999984,0.0,91.42117848,0.10313244,-54.61435656
4.45,445,0.024,-0.985,0.044,-4.1825934,-4.1252976000000015,0.3437748,91.37534184,0.10313244,-54.65446362
4.46,446,0.024,-0.984,0.046,-4.7555514,-4.583664,0.5156622000000001,91.3295052,0.09740286,-54.70030026000001
4.47,447,0.017,-0.989,0.043,-4.8128472,-6.1879464,0.6875496,91.28366856,0.09740286,-54.76332563999999
4.4799999999999995,448,0.008,-0.992,0.036000000000000004,-4.4117766,-7.161975,0.8594370000000001,91.23783192,0.09167328,-54.83781018
4.49,449,-0.001,-0.991,0.041,-3.2085648,-7.8495246,1.0313244,91.20345444,0.08021412,-54.91229472
4.5,450,-0.008,-0.995,0.047,-2.291832,-8.078707799999998,1.2605076000000002,91.1862657,0.07448454,-54.992508840000006
4.51,451,-0.008,-0.999,0.05,-1.8907613999999997,-7.7349330000000025,1.432395,91.16334738,0.06302537999999999,-55.07272296
4.52,452,-0.004,-1.006,0.056,-1.9480572,-7.448453999999999,1.3750992,91.14615864,0.05156622,-55.14720749999999
4.53,453,0.003,-1.011,0.054000000000000006,-2.0053530000000004,-7.1046792000000005,1.4896908000000002,91.1289699,0.04010706,-55.21596246
4.54,454,0.014,-1.007,0.055,-1.432395,-6.3598338,1.6615782,91.1289699,0.05156622,-55.27898784
4.55,455,0.019,-1.002,0.059,-0.8021411999999999,-6.0733548,1.8334656000000005,91.12324032,0.03437748,-55.33628364
4.56,456,0.022,-0.995,0.058,-0.572958,-5.844171599999999,1.9480572,91.11751074,0.01718874,-55.39357944
4.57,457,0.022,-0.992,0.05,-0.4010706,-6.016058999999999,2.1199446,91.11751074,0.0,-55.45660482000001
4.58,458,0.021,-0.995,0.048,-0.3437748,-6.4744254,2.3491278,91.11178116,-0.01145916,-55.5196302
4.59,459,0.017,-1.004,0.05,-0.4010706,-7.2765666,2.4637194,91.12324032,-0.01145916,-55.58838516
4.6,460,0.013,-1.01,0.051,-0.572958,-8.078707799999998,2.578311,91.11751074,-0.03437748,-55.67432886
4.61,461,0.009000000000000001,-1.015,0.046,-0.8021411999999999,-8.307891,2.7501984,91.10605158,-0.057295800000000015,-55.75454298
4.62,462,0.006,-1.017,0.044,-1.0313244,-8.5370742,2.6929026,91.100322,-0.08021412,-55.84048668000001
4.63,463,0.0,-1.018,0.039,-1.432395,-8.4224826,2.578311,91.08313326,-0.10313244,-55.92643038
4.64,464,-0.004,-1.014,0.036000000000000004,-1.7188740000000002,-8.021412000000002,2.2345362,91.06594452,-0.12032118,-56.00664450000001
4.6499999999999995,465,-0.006999999999999999,-1.01,0.038,-1.6042823999999998,-7.2192707999999985,1.8907613999999997,91.04875578,-0.13750992,-56.07539946000001
4.66,466,-0.008,-1.009,0.042,-1.432395,-6.417129599999999,1.5469866,91.03729662,-0.14896908,-56.138424840000006
4.67,467,-0.008,-1.009,0.044,-1.5469866,-5.5576926,1.3178034,91.02010788,-0.16042824,-56.19572064000001
4.68,468,-0.006999999999999999,-1.012,0.04,-1.7761698,-4.9274388,1.2032118,91.00291914,-0.1718874,-56.24728686
4.6899999999999995,469,-0.006,-1.012,0.041,-2.2345362,-4.1825934,1.0886202,90.98000082,-0.17761697999999998,-56.28739392
4.7,470,-0.003,-1.013,0.041,-2.6929026,-3.4377480000000005,1.145916,90.95135292,-0.18907614,-56.3217714
4.71,471,-0.001,-1.013,0.036000000000000004,-2.86479,-2.6929026,1.6042823999999998,90.92270502,-0.20626488,-56.35041930000001
4.72,472,0.0,-1.011,0.034,-2.6356068,-1.9480572,1.9480572,90.89405712,-0.22345362,-56.37333762000001
4.7299999999999995,473,0.0,-1.006,0.035,-2.0053530000000004,-1.0313244,2.2345362,90.87686838,-0.24637194,-56.38479678
4.74,474,0.001,-1.003,0.041,-1.5469866,0.0,2.1199446,90.8711388,-0.24064236,-56.3790672
4.75,475,0.0,-1.008,0.044,-1.6615782,0.572958,1.8907613999999997,90.85395006,-0.25783110000000004,-56.37333762000001
4.76,476,-0.002,-1.012,0.042,-2.3491278,0.9167328,1.3750992,90.83103174,-0.27501984,-56.36760803999999
4.77,477,-0.004,-1.014,0.038,-2.6356068,1.2605076000000002,1.0313244,90.80238384,-0.28647900000000004,-56.35614888
4.78,478,-0.005,-1.013,0.035,-2.6929026,1.3750992,0.9167328,90.77946552,-0.29220857999999994,-56.33896014000001
4.79,479,-0.002,-1.01,0.028,-2.6929026,1.6615782,1.145916,90.73362888,-0.28647900000000004,-56.32750098
4.8,480,0.005,-1.01,0.025,-2.5210152000000003,2.1199446,1.432395,90.71071056,-0.30366774,-56.30458266
4.81,481,0.009000000000000001,-1.007,0.025,-2.5210152000000003,2.578311,1.6042823999999998,90.68206266,-0.32085648,-56.28166434
4.82,482,0.011,-1.005,0.033,-2.4064236,2.6929026,1.6615782,90.65341476,-0.33804522,-56.25301644
4.83,483,0.011,-1.003,0.036000000000000004,-1.8334656000000005,2.6356068,1.6615782,90.63622602,-0.35523396,-56.23009812
4.84,484,0.014,-1.003,0.037000000000000005,-1.3178034,2.4064236,1.6615782,90.63049644,-0.32085648,-56.20145021999999
4.85,485,0.015,-1.003,0.039,-1.432395,2.2345362,1.432395,90.61903728,-0.33804522,-56.18426148
4.86,486,0.015,-1.004,0.039,-2.0626488000000003,2.1772404,1.2605076000000002,90.59611896,-0.34950438,-56.16134316
4.87,487,0.012,-1.008,0.038,-3.0366774,2.2345362,1.0886202,90.56174148,-0.36096354,-56.138424840000006
4.88,488,0.009000000000000001,-1.008,0.034,-3.3231564,2.4064236,1.0313244,90.527364,-0.3724227000000001,-56.11550652000001
4.89,489,0.006,-1.005,0.035,-2.578311,2.4637194,0.8594370000000001,90.51017526,-0.34950438,-56.08685862
4.8999999999999995,490,0.008,-1.002,0.034,-1.6615782,2.8074942000000003,0.7448454000000001,90.49298652,-0.36096354,-56.06394029999999
4.91,491,0.01,-1.004,0.035,-1.0886202,2.9220857999999996,0.6302538000000001,90.48152736,-0.36669312,-56.03529239999999
4.92,492,0.013,-1.008,0.032,-1.145916,2.86479,0.6302538000000001,90.4700682,-0.37815228,-56.00664450000001
4.93,493,0.016,-1.012,0.034,-1.2605076000000002,2.86479,0.6875496,90.45860904,-0.38388186,-55.9779966
4.9399999999999995,494,0.017,-1.014,0.037000000000000005,-0.9740286,2.4064236,0.8021411999999999,90.4700682,-0.32085648,-55.94934870000001
4.95,495,0.016,-1.014,0.041,-0.8021411999999999,1.8334656000000005,0.8594370000000001,90.45860904,-0.32658606,-55.93215996
4.96,496,0.016,-1.01,0.044,-0.8021411999999999,1.5469866,0.8594370000000001,90.45287946,-0.33804522,-55.91497122000001
4.97,497,0.015,-1.007,0.042,-0.9740286,1.6042823999999998,0.9167328,90.4414203,-0.34950438,-55.89778248
4.9799999999999995,498,0.013,-1.006,0.038,-1.2605076000000002,1.432395,0.8594370000000001,90.42996114,-0.36096354,-55.88632332
4.99,499,0.006,-1.005,0.031,-1.6615782,1.2032118,0.572958,90.4127724,-0.32658606,-55.86913458
5.0,500,0.002,-1.006,0.03,-1.7188740000000002,1.6042823999999998,0.286479,90.39558366,-0.32658606,-55.85767542
5.01,501,0.0,-1.01,0.03,-1.4896908000000002,2.291832,0.057295800000000015,90.37839492,-0.33231564,-55.83475709999999
5.02,502,0.0,-1.012,0.031,-1.0886202,2.86479,-0.1718874,90.36693576,-0.32658606,-55.80610920000001
5.03,503,0.001,-1.013,0.035,-0.8021411999999999,2.86479,-0.4583664000000001,90.3554766,-0.32658606,-55.77746129999999
5.04,504,0.003,-1.015,0.034,-0.3437748,2.578311,-0.6875496,90.36120618,-0.28074942,-55.7488134
5.05,505,0.005,-1.014,0.033,-0.4583664000000001,2.6356068,-0.7448454000000001,90.3554766,-0.27501984,-55.72016549999999
5.06,506,0.006999999999999999,-1.009,0.032,-0.8021411999999999,2.9220857999999996,-0.572958,90.34974702,-0.26929026,-55.69151760000001
5.07,507,0.01,-1.005,0.026,-1.2605076000000002,3.151269,-0.3437748,90.33255828,-0.26929026,-55.6628697
5.08,508,0.011,-0.998,0.019,-1.6615782,3.2658606,-0.11459160000000004,90.31536954,-0.26929026,-55.62849222
5.09,509,0.011,-0.995,0.021,-1.6042823999999998,2.9220857999999996,0.11459160000000004,90.29245122,-0.2291832000000001,-55.59984432
5.1,510,0.006,-0.998,0.024,-1.3178034,1.8334656000000005,0.2291832000000001,90.28099206,-0.23491278,-55.58265558000001
5.11,511,0.0,-1.004,0.021,-1.0886202,1.3750992,0.0,90.2695329,-0.23491278,-55.57119642
5.12,512,-0.003,-1.005,0.019,-0.5156622000000001,1.7761698,-0.286479,90.26380332,-0.23491278,-55.55400768
5.13,513,-0.003,-1.008,0.018000000000000002,-0.4583664000000001,2.4637194,-0.572958,90.25807374,-0.2291832000000001,-55.52535978000001
5.14,514,-0.002,-1.011,0.018000000000000002,-0.8594370000000001,2.9793816000000004,-0.7448454000000001,90.22942584,-0.20626488,-55.50244146
5.1499999999999995,515,0.001,-1.009,0.013,-0.9740286,2.9220857999999996,-0.8021411999999999,90.21796668,-0.20053530000000008,-55.47379356
5.16,516,0.008,-1.004,0.012,-0.4010706,2.6929026,-0.7448454000000001,90.2122371,-0.18907614,-55.44514566
5.17,517,0.015,-1.0,0.018000000000000002,0.1718874,2.0626488000000003,-0.4583664000000001,90.2122371,-0.18907614,-55.42795692
5.18,518,0.019,-1.0,0.024,0.11459160000000004,1.432395,-0.286479,90.21796668,-0.18334656,-55.41076817999999
5.1899999999999995,519,0.02,-1.003,0.025,-0.2291832000000001,0.9167328,0.0,90.20650752,0.01145916,-55.40503860000001
5.2,520,0.017,-1.007,0.021,-0.572958,0.2291832000000001,0.2291832000000001,90.20077794,0.01145916,-55.39930902
5.21,521,0.014,-1.012,0.021,-0.9740286,-0.286479,0.3437748,90.18931878,0.00572958,-55.40503860000001
5.22,522,0.006999999999999999,-1.018,0.018000000000000002,-1.2032118,-0.1718874,0.286479,90.17785962,0.0,-55.40503860000001
5.2299999999999995,523,0.003,-1.022,0.013,-1.3178034,0.0,0.057295800000000015,90.16067088,0.0,-55.40503860000001
5.24,524,0.001,-1.023,0.01,-1.145916,0.3437748,-0.2291832000000001,90.08618634,0.01718874,-55.41649776000001
5.25,525,-0.004,-1.022,0.008,-0.9167328,0.4583664000000001,-0.5156622000000001,90.07472718,0.02291832,-55.41076817999999
5.26,526,-0.006999999999999999,-1.024,0.009000000000000001,-0.5156622000000001,0.5156622000000001,-0.5156622000000001,90.07472718,0.028647900000000007,-55.40503860000001
5.27,527,-0.006,-1.021,0.008,-0.7448454000000001,0.9740286,-0.4583664000000001,90.06326802,0.03437748,-55.39930902
5.28,528,-0.001,-1.02,0.013,-1.145916,1.6615782,-0.6875496,90.05180886000002,0.04010706,-55.38212028
5.29,529,0.003,-1.024,0.009000000000000001,-2.291832,2.9793816000000004,-1.0886202,90.0117018,0.057295800000000015,-55.35347237999999
5.3,530,0.006,-1.031,0.004,-3.9534102,4.010706000000001,-1.3750992,89.96586515999998,0.07448454,-55.31336532
5.31,531,0.006999999999999999,-1.038,0.009000000000000001,-6.0733548,5.3285094000000015,-1.6615782,89.90856936,0.0859437,-55.26179910000001
5.32,532,0.01,-1.044,0.006999999999999999,-8.4224826,7.6776372,-2.2345362,89.81689608,0.10886202,-55.18731455999999
5.33,533,0.015,-1.054,-0.004,-10.1986524,9.0527364,-3.0366774,89.71376364,0.13178034,-55.10137086000001
5.34,534,0.019,-1.056,-0.015,-11.4018642,7.6776372,-3.724227,89.58771288,0.17761697999999998,-55.02688632
5.35,535,0.02,-1.0590000000000002,-0.006,-11.45916,3.8961144,-4.4117766,89.46739170000002,0.21772404,-54.992508840000006
5.36,536,0.013,-1.07,-0.013,-11.6310474,-0.8594370000000001,-5.2712136,89.3528001,0.26929026,-54.99823841999999
5.37,537,0.004,-1.063,-0.027000000000000003,-11.9748222,-3.151269,-5.9014674000000005,89.22674934,0.33231564,-55.03261590000001
5.38,538,0.005,-1.031,-0.028,-11.0580894,-2.9220857999999996,-6.1879464,89.11788732,0.38961144,-55.06699338000001
