TimeStamp(s),FrameCounter,AccX,AccY,AccZ,GyrX,GyrY,GyrZ,EulerX,EulerY,EulerZ
0.01,1,-0.018000000000000002,-1.006,0.006999999999999999,-3.6669312000000014,7.2192707999999985,-1.8334656000000005,93.09994542,-0.5729580000000001,-33.02529912
0.020000000000000004,2,-0.017,-1.002,-0.009000000000000001,-8.651665800000002,1.0886202,-2.1199446,93.01400172,-0.55576926,-33.01383996
0.030000000000000006,3,-0.024,-1.0,-0.004,-8.59437,1.3750992,-1.8907614,92.92805802,-0.53858052,-32.996651220000004
0.04000000000000001,4,-0.03,-0.9990000000000001,-0.002,-8.193299399999999,2.0626488000000003,-1.7188740000000002,92.84211432,-0.52139178,-32.97946248
0.05000000000000001,5,-0.035,-0.995,0.0,-7.6776372,3.2658606,-1.7188740000000002,92.70460440000001,-0.53285094,-32.93935542
0.06000000000000001,6,-0.039,-0.991,0.002,-7.448453999999999,4.9847346,-1.7761698000000001,92.62439028,-0.52139178,-32.89351878
0.07,7,-0.040999999999999995,-0.988,0.0,-7.8495246,6.8182002000000015,-2.0626488000000003,92.54417616,-0.5042030399999999,-32.82476382
0.08,8,-0.04,-0.9890000000000001,-0.005,-8.7089616,8.3651868,-2.291832,92.45250288,-0.4870143000000001,-32.73882012
0.09000000000000001,9,-0.036000000000000004,-0.993,-0.013999999999999999,-9.9694692,10.084060800000001,-2.291832,92.34937044,-0.46982556,-32.641417260000004
0.10000000000000002,10,-0.028999999999999998,-1.001,-0.017,-10.657018800000001,11.5737516,-2.2345362,92.20040136,-0.46409598,-32.52682566
0.11000000000000001,11,-0.019,-1.014,-0.026000000000000002,-11.3445684,12.776963400000001,-2.1199446,92.08580976,-0.4526368200000001,-32.4007749
0.12000000000000001,12,-0.01,-1.025,-0.038,-12.318597,13.750992000000002,-2.2345362,91.95402942,-0.44117766,-32.26899456
0.13000000000000003,13,-0.004,-1.034,-0.05,-13.178034,14.438541599999999,-2.4064236,91.8165195,-0.42398892,-32.12575506
0.14000000000000004,14,0.0,-1.036,-0.057,-14.209358400000001,15.068795399999999,-2.4637194,91.67328,-0.41252976,-31.97678598
0.15000000000000002,15,0.0,-1.033,-0.054000000000000006,-15.870936600000002,16.157415599999997,-2.4637194,91.4727447,-0.38961144,-31.81635774
0.16000000000000003,16,0.0,-1.02,-0.054000000000000006,-17.7044022,17.5325148,-2.2345362,91.28939814,-0.37815228,-31.64447034
0.17000000000000004,17,0.003,-0.9990000000000001,-0.059000000000000004,-19.7097552,19.9389384,-1.5469866,91.08886284,-0.3724227000000001,-31.44966462
0.18000000000000005,18,0.011000000000000001,-0.9640000000000001,-0.067,-19.9962342,22.345361999999998,-0.2291832000000001,90.87686838,-0.38388186,-31.23194058
0.19000000000000006,19,0.024,-0.9229999999999999,-0.069,-18.6784308,24.809081399999997,1.8334656000000005,90.68206266,-0.41252976,-30.99129822
0.20000000000000004,20,0.048,-0.883,-0.069,-17.589810600000003,28.0176462,4.5263682,90.48152736,-0.4526368200000001,-30.71627838
0.21000000000000005,21,0.081,-0.8370000000000001,-0.07200000000000001,-17.475219,30.7678446,8.078707799999998,90.29245122,-0.5443101,-30.41834022
0.22000000000000006,22,0.12,-0.795,-0.075,-18.5638392,31.455394199999997,12.261301199999998,90.0976455,-0.67609044,-30.1089429
0.23000000000000004,23,0.151,-0.775,-0.078,-21.027558600000006,28.3041252,16.902261,89.87992145999998,-0.8537074199999999,-29.83392306
0.24000000000000005,24,0.174,-0.785,-0.061,-25.4393352,21.829699800000004,21.4286292,89.6106312,-1.07143146,-29.61619902
0.25000000000000006,25,0.16899999999999998,-0.8270000000000001,-0.051,-33.1742682,11.172680999999999,26.69984280000001,89.26112682,-1.30061466,-29.51306658
0.26000000000000006,26,0.142,-0.895,-0.057,-37.872523799999996,0.11459160000000004,30.8251404,88.87724496000001,-1.61001198,-29.51306658
0.2700000000000001,27,0.10300000000000001,-0.99,-0.055999999999999994,-37.4714532,-9.3392154,33.5753388,88.50482226,-1.9480572000000005,-29.60473986
0.2800000000000001,28,0.065,-1.092,-0.019,-31.913760600000003,-14.9542038,33.231564,88.18396578000002,-2.28037284,-29.74797936
0.29000000000000004,29,0.02,-1.151,0.04,-24.637194,-18.6784308,29.736520199999998,87.94905299999998,-2.578311,-29.92559634
0.30000000000000004,30,-0.034,-1.19,0.10400000000000001,-17.246035799999998,-21.142150199999996,23.892348600000002,87.80008391999998,-2.81895336,-30.13186122
0.31000000000000005,31,-0.08199999999999999,-1.213,0.154,-13.0061466,-21.600516600000002,16.4438946,87.68549232000002,-2.98511118,-30.3381261
0.32000000000000006,32,-0.113,-1.217,0.17,-11.8602306,-18.6784308,8.193299399999999,87.57663029999998,-3.07105488,-30.52147266
0.33000000000000007,33,-0.11699999999999999,-1.204,0.17300000000000001,-7.7922288,-11.917526400000002,-0.3437748,87.50214575999998,-3.07105488,-30.64179384
0.3400000000000001,34,-0.1,-1.205,0.188,-3.380452200000001,-5.72958,-6.0733548,87.47349786,-3.0080294999999997,-30.69908964
0.3500000000000001,35,-0.07200000000000001,-1.1909999999999998,0.193,-3.7242269999999995,0.572958,-10.4278356,87.49068659999998,-2.90489706,-30.70481922
0.3600000000000001,36,-0.039,-1.166,0.187,-6.0160589999999985,6.8182002000000015,-13.8082878,87.42766122,-2.76738714,-30.64179384
0.3700000000000001,37,-0.023,-1.136,0.17300000000000001,-9.6256944,11.401864199999999,-16.501190400000002,87.32452878000002,-2.6012293200000003,-30.5386614
0.38000000000000006,38,-0.02,-1.101,0.147,-11.172680999999999,13.8082878,-18.3919518,87.19847802,-2.41788276,-30.40688106
0.39000000000000007,39,-0.032,-1.067,0.10400000000000001,-12.1467096,16.329303,-19.767051000000002,87.06669767999998,-2.21734746,-30.25791198
0.4000000000000001,40,-0.046,-1.031,0.061,-13.407217200000002,19.7097552,-20.8556712,86.94064691999998,-2.01108258,-30.07456542
0.4100000000000001,41,-0.055999999999999994,-0.9940000000000001,0.028999999999999998,-13.8655836,23.835052800000003,-21.657812399999997,86.78594826,-1.7933585399999998,-29.8511118
0.4200000000000001,42,-0.069,-0.968,0.013999999999999999,-13.980175199999998,28.418716800000002,-22.2307704,86.63124959999998,-1.56417534,-29.58182154
0.4300000000000001,43,-0.085,-0.943,-0.001,-14.037471,32.2002396,-22.4026578,86.47655094000002,-1.32926256,-29.2781538
0.4400000000000001,44,-0.087,-0.917,-0.006,-14.5531332,35.9244666,-22.1161788,86.31612270000002,-1.10007936,-28.940108580000004
0.45000000000000007,45,-0.077,-0.902,-0.013999999999999999,-15.756345,40.04976420000001,-21.142150199999996,86.1442353,-0.8880849000000001,-28.55622672
0.4600000000000001,46,-0.037000000000000005,-0.897,-0.013000000000000001,-17.8762896,42.62807520000001,-19.652459399999998,85.95515916000002,-0.67609044,-28.14942654
0.4700000000000001,47,-0.006999999999999999,-0.905,0.004,-20.626488000000002,41.9405256,-17.589810600000003,85.73170554,-0.4870143000000001,-27.74835594
0.4800000000000001,48,0.042,-0.9390000000000001,0.027999999999999997,-23.204798999999998,39.4195104,-13.636400400000001,85.49106318,-0.33231564,-27.375933239999995
0.4900000000000001,49,0.09300000000000001,-0.9740000000000001,0.045,-26.1268848,33.74722620000001,-9.682990199999999,85.21604334,-0.22345362,-27.04934718
0.5000000000000001,50,0.122,-1.0290000000000001,0.053,-28.877083199999998,29.1062664,-6.4744254,84.9410235,-0.10886202,-26.77432734000001
0.5100000000000001,51,0.182,-1.089,0.061,-30.022999199999997,27.043617600000005,-3.7815228,84.63162618,-0.057295800000000015,-26.51649624
0.5200000000000001,52,0.233,-1.13,0.076,-29.507337,27.100913399999996,-1.8334656000000005,84.32795844,-0.02291832,-26.25293556
0.5300000000000001,53,0.27899999999999997,-1.16,0.07400000000000001,-26.9863218,29.507337,-0.572958,84.05293859999998,0.0,-25.96645656
0.5400000000000001,54,0.31,-1.173,0.045,-23.5485738,30.882436199999997,0.0,83.80656666,0.01718874,-25.66278882000001
0.5500000000000002,55,0.301,-1.161,0.028999999999999998,-19.7097552,31.054323600000004,0.11459160000000004,83.62322009999998,0.09740286,-25.36485066
0.5600000000000002,56,0.261,-1.13,0.032,-15.297978599999999,29.0489706,0.6875496,83.46279186000002,0.11459160000000003,-25.07837166
0.5700000000000001,57,0.21,-1.0979999999999999,0.039,-7.6776372,24.522602399999997,1.8334656000000005,83.38257774,0.11459160000000003,-24.8377293
0.5800000000000001,58,0.175,-1.061,0.04,-0.2291832000000001,21.371333399999997,3.8961144,83.37684816,0.09740286,-24.62000526
0.5900000000000001,59,0.16399999999999998,-1.016,0.032,6.4744254,17.589810600000003,6.4744254,83.44560312,0.04583664,-24.44238828
0.6000000000000001,60,0.159,-0.963,0.019,13.0061466,15.4125702,8.7662574,83.60030178,0.04010706,-24.28196004
0.6100000000000001,61,0.159,-0.907,-0.027000000000000003,18.793022399999998,14.4958374,10.886202,83.78937792,-0.05156622,-24.12726138
0.6200000000000001,62,0.17,-0.841,-0.08800000000000001,22.517249399999997,12.318597,12.3758928,84.01856111999999,-0.16042824,-23.98975146
0.6300000000000001,63,0.179,-0.741,-0.129,28.5906042,7.6776372,13.2353298,84.30504012,-0.28647900000000004,-23.89807818
0.6400000000000001,64,0.17300000000000001,-0.629,-0.111,39.304918799999996,-4.1252976000000015,13.521808800000002,84.70611072,-0.41825934,-23.9209965
0.6500000000000001,65,0.152,-0.547,-0.057999999999999996,47.1544434,-22.517249399999997,12.4331886,85.18739544,-0.52712136,-24.13299096
0.6600000000000001,66,0.115,-0.519,-0.196,40.7373138,-38.445481799999996,9.1100322,85.61138436,-0.63598338,-24.49968408
0.6700000000000002,67,0.11,-0.496,-0.475,22.4599536,-31.054323600000004,3.4377480000000005,85.84629714,-0.68182002,-24.80335182
0.6800000000000002,68,0.091,-0.426,-0.39299999999999996,8.078707799999998,-23.14750320000001,-0.6302538000000001,85.93224083999998,-0.6875496,-25.03253502
0.6900000000000002,69,0.0,-0.446,-0.222,-2.5210152000000003,-20.3973048,-8.136003599999999,85.9150521,-0.61306506,-25.238799899999997
0.7000000000000002,70,-0.146,-0.598,-0.171,-15.126091199999998,0.0,-21.2567418,85.73170554,-0.4583664000000001,-25.25025906
0.7100000000000002,71,-0.45299999999999996,-0.929,-0.17,-16.501190400000002,15.928232399999999,-38.731960799999996,85.56554772,-0.06875496,-25.11847872
0.7200000000000002,72,-0.6459999999999999,-1.2209999999999999,-0.08,-9.0527364,5.6149884000000005,-50.706783,85.46814486,0.4297185000000001,-25.10701956
0.7300000000000002,73,-0.45299999999999996,-1.248,0.034,-13.2353298,-10.026765,-39.8778768,85.33636451999998,0.8193299399999999,-25.23307032
0.7400000000000001,74,-0.255,-1.419,0.066,-30.595957199999997,-4.9274388,-17.5325148,85.02123762,0.98548776,-25.30182528000001
0.7500000000000001,75,-0.068,-1.53,-0.14,-43.9458786,5.3285094000000015,6.4744254,84.57433037999998,0.92246238,-25.25025906
0.7600000000000001,76,0.161,-1.713,-0.14400000000000002,-30.7678446,10.1986524,27.043617600000005,84.26493306,0.6589017,-25.12420830000001
0.7700000000000001,77,0.33299999999999996,-1.734,-0.064,-12.318597,19.2513888,39.9351726,84.13888229999998,0.28074942,-24.8950251
0.7800000000000001,78,0.429,-1.682,0.03,3.6669312000000014,26.929026,41.76863820000001,84.17325978,-0.10886202,-24.59135736
0.7900000000000001,79,0.43,-1.611,0.033,11.2299768,24.8663772,35.17962120000001,84.2821218,-0.43544808,-24.310607940000004
0.8000000000000002,80,0.33,-1.5919999999999999,-0.012,12.605075999999999,7.8495246,24.637194,84.41390214,-0.66463128,-24.2074755
0.8100000000000002,81,0.17800000000000002,-1.5759999999999998,-0.064,7.6776372,-18.277360199999997,17.761698000000006,84.49411626,-0.8479778399999999,-24.37363332
0.8200000000000002,82,0.055999999999999994,-1.5959999999999999,-0.08900000000000001,-0.6875496,-40.04976420000001,13.9228794,84.49984584,-1.01413566,-24.7517856
0.8300000000000002,83,0.006,-1.645,-0.102,-10.1413566,-53.858052,10.657018800000001,84.41390214,-1.1573751600000002,-25.27317738
0.8400000000000002,84,0.016,-1.666,-0.105,-15.068795399999999,-59.24385720000001,6.3025379999999975,84.2821218,-1.26623718,-25.85759454
0.8500000000000002,85,0.044000000000000004,-1.6369999999999998,-0.07,-13.407217200000002,-60.16059,1.9480572,84.1675302,-1.32353298,-26.447741279999995
0.8600000000000002,86,0.039,-1.56,-0.02,-7.448453999999999,-59.014674,-1.3750992,84.11596397999998,-1.35218088,-27.03215844
0.8700000000000002,87,0.006999999999999999,-1.4340000000000002,0.008,0.11459160000000004,-56.0925882,-3.7242269999999995,84.13888229999998,-1.3579104599999998,-27.5879277
0.8800000000000002,88,-0.045,-1.291,0.026000000000000002,7.6776372,-53.0559108,-3.9534102,84.23628516,-1.3579104599999998,-28.11504906
0.8900000000000001,89,-0.113,-1.1909999999999998,0.001,10.7716104,-48.70143,-1.8907614,84.36233591999998,-1.36936962,-28.59633378
0.9000000000000001,90,-0.165,-1.1340000000000001,-0.008,11.3445684,-44.9199072,-0.9167328000000001,84.50557542,-1.42666542,-29.03751144
0.9100000000000001,91,-0.191,-1.094,-0.002,14.1520626,-41.5967508,-3.0939732,84.66600365999999,-1.4209358399999998,-29.4500412
0.9200000000000002,92,-0.21899999999999997,-1.062,0.02,19.365980399999998,-37.1276784,-8.021412000000002,84.87799812,-1.36364004,-29.822463899999995
0.9300000000000002,93,-0.24100000000000002,-1.005,0.063,22.517249399999997,-29.163562199999998,-13.750992000000002,85.11864048,-1.24331886,-30.12040206
0.9400000000000002,94,-0.235,-0.9209999999999999,0.096,25.7258142,-19.7097552,-19.194093,85.38220116,-1.0599723,-30.32666694000001
0.9500000000000002,95,-0.233,-0.784,0.087,26.5852512,-12.834259199999998,-22.7464326,85.67440974,-0.8823553199999999,-30.46417686
0.9600000000000002,96,-0.21899999999999997,-0.609,0.032,31.913760600000003,-9.7975818,-23.5485738,86.0009958,-0.65317212,-30.57303888
0.9700000000000002,97,-0.212,-0.44799999999999995,-0.064,39.7059894,-7.6776372,-24.5798982,86.40779597999996,-0.40680018,-30.65898258
0.9800000000000002,98,-0.20199999999999999,-0.321,-0.114,47.9565846,-5.6149884000000005,-26.1268848,86.89481028,-0.14323950000000002,-30.72200796000001
0.9900000000000002,99,-0.192,-0.21,-0.113,52.2537696,-6.0160589999999985,-27.3300966,87.42766122,0.12605075999999998,-30.79076292
1.0000000000000002,100,-0.198,-0.13,-0.136,48.185767799999994,-4.6409598,-27.960350399999996,87.89748678,0.3724227000000001,-30.83659956
1.0100000000000002,101,-0.191,-0.042,-0.18100000000000002,39.018439799999996,2.7501984,-28.5906042,88.2928278,0.66463128,-30.81368124
1.0200000000000002,102,-0.182,0.09300000000000001,-0.151,35.4088044,10.599723,-28.934378999999996,88.64806175999998,0.95111028,-30.710548800000005
1.0300000000000002,103,-0.145,0.16699999999999998,-0.012,34.60666320000001,15.9855282,-30.194886600000004,89.00329572000004,1.25477802,-30.55585014
1.0400000000000003,104,-0.1,0.203,0.019,29.220858000000003,23.0329116,-31.856464799999998,89.30123388000001,1.56990492,-30.32666694000001
1.0500000000000003,105,-0.042,0.23600000000000002,0.084,27.6738714,32.7159018,-32.945085,89.59917204,1.8907614,-30.000080879999995
1.0600000000000003,106,0.022000000000000002,0.23199999999999998,0.16399999999999998,27.043617600000005,41.539455,-33.6899304,89.88565104,2.21734746,-29.58755112
1.0700000000000003,107,0.098,0.092,0.218,16.157415599999997,62.10864720000001,-32.830493399999995,90.06326802,2.52674478,-28.968756480000003
1.0800000000000003,108,0.22399999999999998,-0.179,-0.136,-19.136797199999997,105.424272,-24.809081399999997,89.90283978,2.74446882,-27.92597292
1.0900000000000003,109,0.127,-0.47100000000000003,-0.799,-47.3836266,80.5578948,-4.010706000000001,89.45020296,2.76165756,-27.13529088
1.1000000000000003,110,-0.10800000000000001,-0.816,-1.123,-69.7862844,11.5164558,24.809081399999997,88.71681672,2.50382646,-27.02642886
1.1100000000000003,111,0.601,-2.468,-1.453,-135.33267959999998,-55.4623344,76.7190762,87.33598794000002,1.7246035799999997,-27.56500938
1.1200000000000003,112,1.328,-3.074,-0.33799999999999997,-63.4264506,-25.3247436,134.7597216,86.68854540000002,0.37815228,-27.75408552
1.1300000000000001,113,1.033,-2.325,0.27,50.0765292,17.303331600000003,79.0109082,87.19847802,-0.38961144,-27.53636148
1.1400000000000001,114,0.08199999999999999,-1.6580000000000001,-0.035,-73.3959198,-48.8733174,52.19647379999999,86.46509178,-0.92819196,-28.00618704
1.1500000000000001,115,-0.684,-1.216,-0.46799999999999997,-106.45559640000002,-42.7999626,22.517249399999997,85.38220116,-1.22040054,-28.418716800000002
1.1600000000000001,116,-0.983,-0.927,-0.397,-14.209358400000001,-19.595163600000006,-13.464512999999998,85.24469124,-1.10007936,-28.62498168
1.1700000000000002,117,-0.983,-1.256,-0.22,50.9359662,-10.886202,-46.8106686,85.76035343999997,-0.63598338,-28.762491600000004
1.1800000000000002,118,-0.633,-1.6680000000000001,-0.175,34.091001,-14.610429000000002,-56.3790672,86.10985782,-0.08021412,-28.940108580000004
1.1900000000000002,119,-0.086,-1.923,-0.07400000000000001,-1.4896908000000002,-16.7303736,-41.6540466,86.09839866,0.32085648,-29.1349143
1.2000000000000002,120,0.131,-1.982,0.05,-15.4125702,1.2605076000000002,-11.5737516,85.9437,0.44117766,-29.129184719999994
1.2100000000000002,121,0.273,-1.9380000000000002,0.037000000000000005,-29.9084076,28.533308399999996,14.7250206,85.63430267999998,0.30366774,-28.84270572
1.2200000000000002,122,0.27399999999999997,-1.8,-0.11599999999999999,-33.6899304,40.90920120000001,18.8503182,85.29052787999998,0.13178034,-28.42444638
1.2300000000000002,123,0.159,-1.6569999999999998,-0.215,-25.55392680000001,40.7373138,11.688343199999998,85.0269672,0.04010706,-28.017646199999994
1.2400000000000002,124,0.034,-1.597,-0.212,-8.479778399999999,34.4920716,3.1512689999999997,84.93529392,0.028647900000000007,-27.673871400000003
1.2500000000000002,125,-0.08,-1.5419999999999998,-0.134,7.2765666,28.074942,-3.0366774,85.00404888,0.06875496,-27.398851560000004
1.2600000000000002,126,-0.138,-1.405,-0.021,12.7196676,22.4599536,-3.8961144,85.13009964,0.12032118,-27.17539794
1.2700000000000002,127,-0.127,-1.258,0.069,12.318597,17.5325148,-2.0626488000000003,85.25615040000002,0.15469866,-27.00351054
1.2800000000000002,128,-0.10300000000000001,-1.1640000000000001,0.134,12.5477802,15.2406828,2.8074942000000003,85.38220116,0.13178034,-26.84881188
1.2900000000000003,129,-0.028999999999999998,-1.043,0.124,12.891555,17.8189938,8.7089616,85.5139815,0.057295800000000015,-26.66546532
1.3000000000000003,130,0.009000000000000001,-0.956,0.077,16.272007199999994,21.7151082,10.1413566,85.69732806,-0.01145916,-26.4420117
1.3100000000000003,131,0.08199999999999999,-0.81,0.042,19.8816426,26.1841806,8.7089616,85.89786336,-0.0859437,-26.17845102
1.3200000000000003,132,0.11800000000000001,-0.6859999999999999,0.046,22.9756158,29.392745399999995,7.0473834,86.12704656,-0.14323950000000002,-25.880512860000003
1.3300000000000003,133,0.139,-0.569,0.036000000000000004,30.137590799999998,29.1062664,5.5576926,86.42498472,-0.18334656,-25.5825747
1.3400000000000003,134,0.145,-0.48,0.051,37.24227,26.814434400000003,6.4744254,86.80313699999998,-0.24064236,-25.31328444
1.3500000000000003,135,0.168,-0.38,0.013999999999999999,44.748019799999994,23.663165399999997,9.5111028,87.25004424,-0.29793816,-25.07264208
1.3600000000000003,136,0.21100000000000002,-0.301,-0.049,50.47759979999999,19.767051000000002,14.32395,87.75997686000002,-0.4297185000000001,-24.8663772
1.3700000000000003,137,0.226,-0.201,-0.040999999999999995,55.5196302,14.266654199999998,18.277360199999997,88.3214757,-0.6073354799999999,-24.71167854
1.3800000000000003,138,0.258,-0.134,-0.019,57.58227899999999,10.4851314,20.7410796,88.90016328,-0.8078707799999998,-24.59708694
1.3900000000000003,139,0.27899999999999997,-0.066,0.026000000000000002,56.66554620000001,4.010706000000001,23.14750320000001,89.47312128,-1.03705398,-24.54552072
1.4000000000000004,140,0.267,-0.005,0.08800000000000001,51.9672906,-2.9220858,24.637194,90.01743138,-1.23758928,-24.57416862
1.4100000000000004,141,0.247,0.031,0.068,41.9405256,-7.5630456000000015,25.210151999999997,90.4414203,-1.4782316400000002,-24.64865316
1.4200000000000004,142,0.22699999999999998,0.08900000000000001,0.021,29.736520199999998,-7.0473834,24.637194,90.75081762,-1.7188740000000002,-24.71740812
1.4300000000000004,143,0.205,0.138,-0.008,22.517249399999997,-6.589017,22.7464326,90.98000082,-1.94232762,-24.7804335
1.4400000000000004,144,0.19399999999999998,0.133,-0.01,19.9389384,-10.1413566,20.340009,91.19199528,-2.13713334,-24.88356594
1.4500000000000004,145,0.192,0.086,-0.002,20.5691922,-19.480572,17.7044022,91.40971932,-2.26891368,-25.08410124000001
1.4600000000000002,146,0.203,0.038,0.006999999999999999,23.835052800000003,-28.0176462,16.1001198,91.66755042,-2.41215318,-25.35912108
1.4700000000000002,147,0.201,-0.025,0.032,29.0489706,-36.2109456,16.329303,91.98267732,-2.5496631,-25.72008462
1.4800000000000002,148,0.14300000000000002,-0.142,-0.184,32.142943800000005,-54.7747848,18.048177,92.34364086,-2.68717302,-26.264394719999995
1.4900000000000002,149,-0.085,-0.314,-0.9420000000000001,30.4813656,-135.16079219999997,15.928232399999999,92.7332523,-2.7501984,-27.60511644
1.5000000000000002,150,-0.107,-0.636,-0.114,11.6310474,-99.981171,-2.9793816000000004,92.91086928,-2.6642547000000003,-28.58487462
1.5100000000000002,151,-0.275,-1.5419999999999998,-1.194,-73.45321560000002,94.1369994,-61.87946400000001,92.11445766,-2.1199446,-27.63949392
1.5200000000000002,152,-1.3840000000000001,-3.3289999999999997,-1.5830000000000002,-28.762491600000004,147.6512766,-198.7018344,91.7592237,-0.23491278,-26.11542564
1.5300000000000002,153,-1.5630000000000002,-3.486,0.563,60.275181599999996,-10.2559482,-176.35647240000003,92.37228876,1.5183387000000002,-26.14407354
1.5400000000000003,154,-0.057999999999999996,-2.374,0.4320000000000001,-51.56622,32.945085,-79.0109082,91.85089698,2.28037284,-25.78883958
1.5500000000000003,155,0.9079999999999999,-1.464,-0.48200000000000004,-106.1691174,13.464512999999998,-21.485925,90.76227678,2.50382646,-25.668518400000004
1.5600000000000003,156,1.1179999999999999,-1.011,-0.368,-37.52874900000001,-7.6776372,28.762491600000004,90.37839492,2.21734746,-25.74873252
1.5700000000000003,157,1.114,-0.9359999999999999,-0.27,10.5424272,-4.8701430000000006,75.00020219999998,90.48725694,1.4782316400000002,-25.80602832
1.5800000000000003,158,0.838,-1.041,-0.061,-6.703608600000001,-14.8396122,97.4601558,90.41850198,0.5156622000000001,-25.96645656
1.5900000000000003,159,0.381,-1.04,-0.122,-43.029145799999995,-27.903054600000004,72.5937786,89.98878348,-0.19480572,-26.25293556
1.6000000000000003,160,0.086,-1.446,-0.257,-35.46610020000001,-27.903054600000004,7.1046792000000005,89.62781994000002,-0.26356068,-26.533684980000004
1.6100000000000003,161,-0.042,-1.964,-0.145,-2.3491277999999998,-26.4706596,-50.47759979999999,89.60490161999998,0.24064236,-26.79724566
1.6200000000000003,162,-0.069,-2.035,0.047,-6.6463128000000005,-42.5134836,-70.7030172,89.53614666000001,0.95111028,-27.221234580000004
1.6300000000000003,163,-0.076,-1.864,0.008,-35.122325399999994,-57.8114622,-60.38977320000001,89.17518312,1.5527161800000002,-27.79992216
1.6400000000000003,164,-0.053,-1.641,-0.073,-38.67466500000001,-70.30194660000001,-35.7525792,88.76838294000002,1.91367972,-28.504660499999996
1.6500000000000004,165,0.005,-1.52,-0.054000000000000006,-31.9710564,-74.65642740000001,-10.2559482,88.42460814,2.01681216,-29.24950590000001
1.6600000000000004,166,0.08,-1.475,-0.063,-36.669312,-68.35388940000001,8.651665800000002,88.04072628,1.92513888,-29.92559634
1.6700000000000004,167,0.12300000000000001,-1.345,-0.045,-44.2323576,-61.36380179999999,19.079501399999998,87.58235988,1.7246035799999997,-30.53293182
1.6800000000000004,168,0.13,-1.235,0.039,-37.757932200000006,-56.149884,17.8189938,87.18701886,1.53552744,-31.082971500000006
1.6900000000000004,169,0.096,-1.2670000000000001,0.13699999999999998,-26.41336380000001,-51.10785360000001,8.8235532,86.91772859999998,1.432395,-31.58717454
1.7000000000000004,170,0.036000000000000004,-1.369,0.201,-25.496631,-46.925260200000004,3.380452200000001,86.66562708000002,1.38082878,-32.05127052
1.7100000000000004,171,-0.045,-1.446,0.125,-34.7785506,-42.97185,5.3285094000000015,86.30466354,1.31207382,-32.48098902
1.7200000000000004,172,-0.134,-1.392,-0.035,-44.0031744,-39.247623,13.521808800000002,85.85775629999998,1.1573751600000002,-32.86487088
1.7300000000000004,173,-0.192,-1.255,-0.12,-42.5707794,-34.7212548,23.0329116,85.42230822,0.91100322,-33.197186519999995
1.7400000000000004,174,-0.203,-1.117,-0.152,-33.5753388,-31.22621100000001,29.507337,85.08426299999998,0.59587632,-33.48366552
1.7500000000000004,175,-0.21,-0.978,-0.14400000000000002,-22.4599536,-28.9916748,29.9084076,84.84935021999998,0.23491278,-33.74149662000001
1.7600000000000005,176,-0.217,-0.868,-0.085,-9.740286,-25.210151999999997,24.5798982,84.75194736,-0.02291832,-33.97067982
1.7700000000000002,177,-0.257,-0.777,-0.001,0.5156622000000001,-22.1734746,16.902261,84.76340652,-0.20053530000000008,-34.17121512000001
1.7800000000000002,178,-0.289,-0.708,0.045,3.7815228,-20.7410796,10.1986524,84.80351358,-0.31512690000000004,-34.37175042
1.7900000000000003,179,-0.266,-0.645,0.047,5.958763200000001,-16.2147114,2.9793816000000004,84.86653895999999,-0.35523396,-34.52644908
1.8000000000000003,180,-0.264,-0.604,0.044000000000000004,10.7143146,-5.5003968,-6.5317212,84.99258972,-0.36096354,-34.5780153
1.8100000000000003,181,-0.23399999999999999,-0.605,0.027000000000000003,13.6936962,11.917526400000002,-17.0741484,85.13009964,-0.18334656,-34.47488286
1.8200000000000003,182,-0.21100000000000002,-0.568,0.06,12.0894138,28.074942,-26.929026,85.24469124,0.09740286,-34.217051760000004
1.8300000000000003,183,-0.155,-0.53,0.132,10.657018800000001,37.299565799999996,-31.913760600000003,85.35355326,0.43544808,-33.87327696
1.8400000000000003,184,-0.132,-0.431,0.2,7.7922288,41.6540466,-34.66395900000001,85.4280378,0.8021412000000001,-33.48366552
1.8500000000000003,185,-0.084,-0.35700000000000004,0.257,9.2819196,43.77399120000001,-36.38283300000001,85.55408856,1.1688343199999998,-33.07686534
1.8600000000000003,186,-0.10400000000000001,-0.282,0.335,8.7089616,42.742666799999995,-35.5806918,85.64576184,1.5412570200000002,-32.68152432
1.8700000000000003,187,-0.159,-0.237,0.469,6.3025379999999975,42.5707794,-33.9191136,85.72024638,1.89649098,-32.280453720000004
1.8800000000000003,188,-0.192,-0.242,0.507,-0.8594370000000001,45.1490904,-30.4240698,85.7145168,2.22307704,-31.8564648
1.8900000000000003,189,-0.222,-0.239,0.4320000000000001,-4.1252976000000015,43.7166954,-23.5485738,85.6858689,2.47517856,-31.443935040000003
1.9000000000000004,190,-0.272,-0.27,0.32299999999999995,-2.1772404,36.7839036,-13.8655836,85.7145168,2.578311,-31.082971500000006
1.9100000000000004,191,-0.264,-0.331,0.244,2.1772404,29.67922440000001,-4.3544808,85.74889427999999,2.6356068,-30.79076292
1.9200000000000004,192,-0.23399999999999999,-0.466,0.22,5.7868758000000025,23.777757,6.0733548,85.81764924000002,2.58404058,-30.55012056
1.9300000000000004,193,-0.153,-0.6759999999999999,0.149,1.0886202,17.9335854,17.3606274,85.83483798,2.41788276,-30.36104442
1.9400000000000004,194,-0.055,-0.875,0.01,-12.776963400000001,16.959556799999998,26.9863218,85.70878722,2.16005166,-30.17769786
1.9500000000000004,195,0.051,-1.001,-0.147,-27.788463,29.392745399999995,32.372127,85.41657864,1.8621134999999998,-29.86830054
1.9600000000000004,196,0.17300000000000001,-1.055,-0.28300000000000003,-37.757932200000006,47.8992888,29.163562199999998,85.03842636,1.59282324,-29.37555666
1.9700000000000004,197,0.266,-1.101,-0.342,-48.3003594,67.1506776,17.4179232,84.55714164,1.4610428999999998,-28.69946622
1.9800000000000004,198,0.327,-1.088,-0.47700000000000004,-69.6716928,86.11558740000002,4.6409598,83.86386246,1.46677248,-27.857217960000003
1.9900000000000004,199,0.401,-1.045,-0.769,-93.4494498,91.6159842,-2.5210152000000003,82.92421134,1.56417534,-26.96340348
2.0000000000000004,200,0.461,-0.878,-0.965,-115.04996640000002,88.12094040000002,-5.6149884000000005,81.73818828,1.7188740000000002,-26.12115522
2.0100000000000002,201,0.529,-0.655,-1.055,-113.50297979999999,83.9956428,-5.958763200000001,80.59800186,1.87357266,-25.31328444
2.02,202,0.5589999999999999,-0.522,-1.1420000000000001,-93.85052040000001,83.5945722,-9.3392154,79.66408032,2.07410796,-24.522602400000004
2.0300000000000002,203,0.446,-0.45,-1.18,-70.473834,74.59913159999998,-17.9908812,78.96507156,2.36058696,-23.835052800000003
2.04,204,0.316,-0.44299999999999995,-1.126,-47.4409224,70.07276340000001,-30.137590799999998,78.50097558,2.76738714,-23.21052858
2.0500000000000003,205,0.184,-0.48200000000000004,-1.03,-30.022999199999997,68.8695516,-43.0864416,78.14001204,3.3059676599999994,-22.631841
2.06,206,-0.047,-0.532,-0.873,-10.828906199999999,57.123912600000004,-53.628868800000006,78.04833876000002,3.9247623,-22.18493376
2.0700000000000003,207,-0.28800000000000003,-0.7070000000000001,-0.597,-10.7143146,32.945085,-57.2958,77.94520632,4.53782736,-21.98439846
2.08,208,-0.449,-0.83,-0.311,-30.252182399999995,5.6149884000000005,-54.94667220000001,77.63007941999999,5.08213746,-22.04169426
2.0900000000000003,209,-0.508,-0.828,0.026000000000000002,-51.5089242,-6.990087599999999,-46.8679644,77.0914989,5.51758554,-22.219311240000003
2.1,210,-0.345,-0.768,0.308,-53.39968560000001,-0.6302538000000001,-34.1482968,76.6331325,5.77541664,-22.29379578
2.1100000000000003,211,-0.138,-0.762,0.40299999999999997,-56.0352924,22.4026578,-7.906820400000001,76.07736324,5.89000824,-22.09899006
2.12,212,-0.024,-0.684,0.33299999999999996,-67.2079734,44.9199072,16.042824000000003,75.44137986,5.8269828599999975,-21.6291645
2.1300000000000003,213,0.015,-0.557,0.24100000000000002,-78.8390208,55.576926,26.7571386,74.69080488,5.68947294,-21.027558600000006
2.14,214,0.039,-0.48700000000000004,0.228,-89.8971102,57.8114622,28.074942,73.83136787999999,5.5519630200000005,-20.40303438
2.1500000000000004,215,0.055,-0.39799999999999996,0.245,-88.4074194,50.0192334,23.7204612,73.01776751999998,5.44883058,-19.86445386
2.16,216,0.10099999999999999,-0.35200000000000004,0.3670000000000001,-77.75040059999998,48.2430636,15.183387000000002,72.26719254,5.42591226,-19.3659804
2.1700000000000004,217,0.267,-0.265,0.396,-72.5937786,49.1025006,8.5370742,71.57391336,5.4717489000000015,-18.87323652
2.18,218,0.469,-0.20199999999999999,0.29600000000000004,-66.23394479999999,39.3622146,3.7815228,70.93220040000001,5.54623344,-18.49508424
2.1900000000000004,219,0.56,-0.107,0.29100000000000004,-69.6716928,28.877083199999998,-2.6356068,70.24465079999999,5.64936588,-18.23725314
2.2,220,0.608,-0.017,0.381,-70.87490460000002,25.152856200000002,-11.6310474,69.58574909999999,5.930115299999999,-18.048177
2.2100000000000004,221,0.6940000000000001,-0.040999999999999995,0.17800000000000002,-66.3485364,13.2353298,-19.4232762,68.91538824,6.147839339999999,-18.002340359999994
2.22,222,0.787,-0.131,-0.10300000000000001,-56.78013780000001,-23.491278,-23.3766864,68.30805276,6.2796196800000015,-18.31173768
2.2300000000000004,223,0.833,-0.33399999999999996,0.009000000000000001,-52.19647379999999,-74.48454,-26.9863218,67.70071728,6.26243094,-19.1081493
2.24,224,0.853,-0.574,-0.087,-62.5670136,-115.451037,-27.6165756,66.95014230000001,6.1020027,-20.28844278
2.25,225,0.94,-0.937,-0.418,-76.8336678,-146.10429,-22.6891368,66.03913908,5.781146219999999,-21.73229694
2.2600000000000002,226,0.9570000000000001,-1.51,-0.669,-102.1011156,-181.39850280000002,-13.8655836,64.86457518,5.19099948,-23.45690052
2.27,227,1.318,-2.434,-0.858,-148.85448839999995,-216.52082819999995,-5.042030400000002,63.21445614,4.33729206,-25.44506478
2.2800000000000002,228,1.778,-3.864,-0.889,-169.7101596,-207.2389086,10.313244000000001,61.39817928,3.3231564,-27.25561206
2.29,229,1.402,-3.9989999999999997,-0.695,-219.6148014,-209.4734448,-9.453807,59.10634728,2.40069402,-29.14064388
2.3000000000000003,230,1.053,-3.87,-1.3519999999999999,-293.7555666,-225.9746352,-59.874111,56.07539946000001,1.7246035799999997,-31.3980984
2.31,231,0.546,-3.424,-1.652,-283.6715058000001,-239.0380776,-83.0216142,53.16477282,1.04278356,-33.85035864
2.3200000000000003,232,-0.268,-3.658,-1.432,-255.252789,-181.57039019999996,-137.2807368,50.55781392,1.01986524,-36.14792022
2.33,233,-1.4040000000000001,-3.9989999999999997,-1.037,-240.75695159999998,-59.874111,-208.4994162,48.0711762,2.18869956,-37.96419708000001
2.3400000000000003,234,-2.14,-3.179,0.085,-270.9518382,-52.82672760000001,-184.83625080000002,45.24649326,3.1398098400000003,-39.61431612
2.35,235,-1.446,-1.04,0.9009999999999999,-335.00854260000006,-111.78410579999999,-61.9367598,41.80874526,2.7215505,-40.84044624
2.3600000000000003,236,-1.052,0.011000000000000001,0.68,-346.52499839999996,-121.180617,37.4714532,38.29078314,1.5412570200000002,-41.35610844
2.37,237,-0.9159999999999999,0.364,0.578,-297.365202,-110.6381898,117.1126152,35.28848322,-0.04583664,-41.10400692
2.3800000000000003,238,-0.765,0.28300000000000003,0.797,-248.950251,-90.8711388,163.6941006,32.76746802,-1.7246035799999997,-40.27894740000001
2.39,239,-0.462,0.239,0.851,-251.4139704,-73.28132819999998,185.5238004,30.17769786,-3.33461556,-39.104383500000004
2.4000000000000004,240,-0.359,0.247,0.726,-278.34299639999995,-38.27359439999999,172.63224540000004,27.272800800000002,-4.549286520000001,-37.7865801
2.41,241,-0.409,0.6679999999999999,0.7290000000000001,-295.359849,-10.4851314,141.4633302,24.17309802,-5.29413192,-36.56044998
2.4200000000000004,242,-0.243,1.3519999999999999,0.642,-308.251404,1.6042823999999998,105.7680468,20.94734448,-5.72958,-35.57496222
2.43,243,-0.012,1.652,0.517,-271.1810214,28.5906042,46.7533728,18.13985028,-5.66082504,-35.02492254
2.4400000000000004,244,-0.047,1.591,0.40299999999999997,-183.69033480000002,57.35309579999999,-8.9381448,16.254818460000006,-5.1222445200000015,-34.91606052
2.45,245,0.052000000000000005,1.07,0.052000000000000005,-106.85666699999999,53.8007562,-46.2377106,15.126091199999998,-4.50344988,-35.19108036
2.4600000000000004,246,-0.047,0.6559999999999999,-0.053,-128.9728458,50.8786704,-62.16594300000001,13.84266528,-3.87892566,-35.64371718
2.47,247,-0.073,0.762,-0.319,-163.006551,65.3745078,-74.3699484,12.20973498,-3.1054323600000004,-36.19375686
2.4800000000000004,248,0.122,1.143,-0.885,-115.22185379999999,74.5418358,-76.8336678,11.0580894,-2.25172494,-36.76671485999999
2.49,249,0.39,1.3159999999999998,-0.807,-63.9994086,90.5846598,-49.6754586,10.40491728,-1.2891555,-37.05892344
2.5000000000000004,250,0.284,1.954,-0.919,-71.67704579999999,137.6245116,-9.2819196,9.64288314,0.04583664,-36.8698473
2.5100000000000002,251,0.276,2.3209999999999997,-1.236,-74.65642740000001,134.70242580000001,49.1025006,8.880849000000003,1.26623718,-36.13073148
2.5200000000000005,252,0.003,2.202,-1.449,-63.59833800000001,39.247623,91.1576178,8.25632478,1.50114996,-35.16243246
2.5300000000000002,253,-0.292,1.972,-1.518,-13.0061466,-21.0848544,70.8176088,8.14173318,1.19175264,-34.503530760000004
2.5400000000000005,254,0.013000000000000001,1.485,-1.6269999999999998,-0.2291832000000001,-15.469866,22.345361999999998,8.14746276,1.00840608,-34.30872504
2.5500000000000003,255,0.467,0.95,-1.588,4.6982555999999995,-14.381245800000002,-13.407217200000002,8.17611066,0.89954406,-34.46915328
2.5600000000000005,256,0.47700000000000004,0.5770000000000001,-1.472,6.1879464,-11.802934800000001,-30.137590799999998,8.233406460000001,0.8307891,-34.78428018
2.5700000000000003,257,0.706,0.389,-1.4369999999999998,17.0168526,-21.657812399999997,-31.913760600000003,8.40529386,0.6703608600000001,-35.133784559999995
2.58,258,0.523,0.212,-1.232,37.3568616,-39.7059894,-31.2835068,8.78917572,0.33231564,-35.51193684000001
2.5900000000000003,259,0.389,0.055,-1.381,58.5563076,-31.6845774,-23.605869600000002,9.38505204,0.06875496,-35.80414542
2.6,260,0.6759999999999999,0.141,-1.91,84.62589659999998,-2.0053530000000004,-11.9748222,10.23875946,0.0859437,-35.93019618
2.6100000000000003,261,0.523,0.42100000000000004,-2.707,95.56939440000001,38.159002799999996,-2.5210152000000003,11.2013289,0.47555514,-35.88435954
2.62,262,-0.03,0.804,-3.302,89.03767320000001,50.24841660000001,-1.4896908000000002,12.10087296,0.9740286,-35.78695668
2.6300000000000003,263,-0.509,0.9540000000000001,-3.647,54.20182679999999,31.340802600000004,-2.9793816000000004,12.65091264,1.28342592,-35.74684962
2.64,264,-1.956,0.934,-3.721,8.3651868,-7.5057497999999985,21.944291399999997,12.74258592,1.16310474,-35.5520439
2.6500000000000004,265,-1.64,0.76,-2.9189999999999996,-21.772404,-13.9228794,25.152856200000002,12.52486188,0.96829902,-35.34004944
2.66,266,-0.69,0.242,-2.3819999999999997,-67.0933818,-30.366774000000003,14.0947668,11.84877144,0.64171296,-35.27129448
2.6700000000000004,267,0.021,0.156,-2.602,-90.240885,-38.5600734,9.3392154,10.93776822,0.24064236,-35.25983532
2.68,268,0.292,0.306,-2.401,-74.771019,-22.1734746,15.068795399999999,10.18146366,-0.00572958,-35.15670288
2.6900000000000004,269,0.102,0.659,-1.905,-65.4318036,-7.2765666,10.886202,9.51683238,-0.10313244,-35.05930002
2.7,270,0.055,0.857,-1.508,-72.30729960000002,-20.5118964,-5.844171599999999,8.76052782,-0.30366774,-35.1509733
2.7100000000000004,271,0.059000000000000004,0.818,-1.159,-78.4379502,-20.7410796,-14.8396122,7.96984578,-0.49274388,-35.32859028
2.72,272,0.095,0.815,-0.9670000000000001,-77.75040059999998,-10.7143146,-16.042824000000003,7.17916374,-0.5844171599999999,-35.4947481
2.7300000000000004,273,0.08900000000000001,0.784,-0.848,-72.479187,-5.1566220000000005,-15.2406828,6.4457775,-0.62452422,-35.64944676000001
2.74,274,0.11900000000000001,0.6559999999999999,-0.674,-70.5884256,-12.2040054,-9.682990199999999,5.735309579999999,-0.7448454000000001,-35.75830878
2.7500000000000004,275,0.129,0.505,-0.57,-76.2607098,-25.0382646,-5.3858052,4.898790900000002,-0.9740286,-35.8385229
2.7600000000000002,276,0.03,0.35700000000000004,-0.584,-75.17208959999998,-33.518043,-4.0680017999999984,4.14248634,-1.31207382,-35.90727786
2.7700000000000005,277,-0.062,0.228,-0.626,-61.07732280000001,-31.51269000000001,-3.3231564,3.5236917,-1.6272007199999998,-35.96457366
2.7800000000000002,278,-0.096,0.11800000000000001,-0.642,-38.961144,-24.7517856,-3.6096353999999997,3.13408026,-1.87357266,-36.01613988
2.7900000000000005,279,-0.106,0.036000000000000004,-0.667,-20.7410796,-19.136797199999997,-3.1512689999999997,2.92781538,-2.0626488000000003,-36.06197652
2.8000000000000003,280,-0.125,0.036000000000000004,-0.7090000000000001,-7.5057497999999985,-16.8449652,0.572958,2.82468294,-2.26891368,-36.0677061
2.8100000000000005,281,-0.131,0.11,-0.715,-4.8128472,-17.8762896,4.9847346,2.77311672,-2.45226024,-36.02759904
2.8200000000000003,282,-0.121,0.25,-0.674,-2.5783110000000002,-18.506543399999998,8.3651868,2.7501984,-2.6413363800000003,-35.95884408
2.8300000000000005,283,-0.102,0.41,-0.627,1.432395,-16.959556799999998,9.7975818,2.76165756,-2.81322378,-35.87290038
2.8400000000000003,284,-0.084,0.5429999999999999,-0.597,6.0160589999999985,-13.464512999999998,9.5111028,2.81895336,-2.9507337000000002,-35.79268626
2.8500000000000005,285,-0.059000000000000004,0.622,-0.588,10.886202,-8.3651868,7.448453999999999,2.58404058,-3.04240698,-35.70674256
2.8600000000000003,286,-0.044000000000000004,0.6509999999999999,-0.61,16.4438946,-4.1252976000000015,3.380452200000001,2.7501984,-3.0825140400000004,-35.67809466
2.8700000000000006,287,-0.057999999999999996,0.62,-0.643,23.0902074,-0.1718874,-2.4637194,2.99084076,-3.07678446,-35.70101298
2.8800000000000003,288,-0.08800000000000001,0.53,-0.6709999999999999,30.252182399999995,5.6149884000000005,-8.880849000000003,3.30023808,-3.0137590800000003,-35.78695668
2.8900000000000006,289,-0.091,0.428,-0.708,33.9764094,10.2559482,-13.521808800000002,3.64974246,-2.89916748,-35.91873702
2.9000000000000004,290,-0.086,0.316,-0.757,36.898495200000006,15.2406828,-17.131444199999994,3.9648693599999993,-2.74446882,-36.07343568
2.91,291,-0.085,0.204,-0.8140000000000001,40.04976420000001,20.2254174,-20.05353,4.37739912,-2.52674478,-36.25678224
2.9200000000000004,292,-0.11800000000000001,0.099,-0.875,44.748019799999994,25.210151999999997,-22.6891368,4.83576552,-2.25172494,-36.45731754000001
2.93,293,-0.151,0.004,-0.953,47.841993,28.9916748,-23.835052800000003,5.32277982,-1.94232762,-36.66358242
2.9400000000000004,294,-0.15,-0.07,-1.0270000000000001,47.326330799999994,30.7678446,-22.2307704,5.80406454,-1.61001198,-36.84692898
2.95,295,-0.11199999999999999,-0.11800000000000001,-1.107,42.97185,30.7105488,-17.0168526,6.23951262,-1.30061466,-36.97870931999999
2.9600000000000004,296,-0.06,-0.12,-1.166,33.231564,28.0176462,-8.136003599999999,6.5718282599999975,-1.01413566,-37.01881638
2.97,297,-0.008,-0.113,-1.205,25.668518399999996,24.7517856,-0.3437748,6.829659359999999,-0.76776372,-36.99016848
2.9800000000000004,298,0.016,-0.11599999999999999,-1.219,19.079501399999998,21.371333399999997,5.844171599999999,7.018735500000001,-0.56149884,-36.90422478
2.99,299,0.045,-0.11900000000000001,-1.22,13.6936962,19.194093,10.1986524,7.15624542,-0.38388186,-36.77244444
3.0000000000000004,300,0.049,-0.133,-1.226,9.0527364,18.2200644,11.5164558,7.23645954,-0.21199446,-36.63493452
3.0100000000000002,301,0.042,-0.13699999999999998,-1.2109999999999999,4.4117766,18.1054728,9.740286,7.2765666,-0.04583664,-36.50888376
3.0200000000000005,302,0.033,-0.13699999999999998,-1.182,0.2291832000000001,17.761698000000006,5.5576926,7.282296179999999,0.11459160000000003,-36.42866964
3.0300000000000002,303,0.016,-0.128,-1.13,-3.2658606,16.615782,0.8594370000000001,7.242189120000001,0.27501984,-36.394292160000006
3.0400000000000005,304,0.006,-0.122,-1.079,-7.448453999999999,14.266654199999998,-3.0939732,7.167704579999999,0.41825934,-36.40575132
3.0500000000000003,305,0.001,-0.126,-1.0270000000000001,-9.7975818,11.401864199999999,-4.7555514,7.05311298,0.52139178,-36.42866964
3.0600000000000005,306,0.001,-0.132,-0.9740000000000001,-11.5164558,8.59437,-4.8128472,6.9327918,0.61306506,-36.46304712
3.0700000000000003,307,-0.003,-0.13699999999999998,-0.937,-12.776963400000001,7.2765666,-3.7242269999999995,6.8010114600000025,0.6875496,-36.49169502
3.0800000000000005,308,-0.003,-0.128,-0.912,-13.2353298,6.4744254,-1.8334656000000005,6.669231119999999,0.75057498,-36.4974246
3.0900000000000003,309,-0.004,-0.10300000000000001,-0.894,-13.120738199999998,5.3858052,0.057295800000000015,6.5317212,0.8021412000000001,-36.49169502
3.1000000000000005,310,-0.01,-0.067,-0.882,-12.2040054,4.583664,1.7188740000000002,6.37129296,0.8250595199999999,-36.46304712
3.1100000000000003,311,-0.006999999999999999,-0.03,-0.873,-10.026765,4.6982555999999995,2.8074942000000003,6.26816052,0.86516658,-36.42866964
3.1200000000000006,312,-0.001,-0.003,-0.8690000000000001,-5.042030400000002,6.3598338,3.3231564,6.2165943,0.92246238,-36.38856258
3.1300000000000003,313,0.006,0.006999999999999999,-0.879,-0.3437748,7.5057497999999985,3.1512689999999997,6.210864720000001,0.9912173399999998,-36.34845552
3.1400000000000006,314,0.016,0.013000000000000001,-0.9,3.4950437999999995,9.2819196,2.6356068,6.2452422000000025,1.08289062,-36.30834846
3.1500000000000004,315,0.028999999999999998,0.021,-0.922,6.0733548,11.3445684,1.8334656000000005,6.2051351399999986,1.2032117999999998,-36.27970056
3.1600000000000006,316,0.043,0.028999999999999998,-0.9470000000000001,7.734933000000002,12.776963400000001,0.9167328000000001,6.2853492599999985,1.32926256,-36.25105266
3.1700000000000004,317,0.061,0.033,-0.9670000000000001,8.59437,13.464512999999998,-0.1718874,6.37129296,1.4610428999999998,-36.23386392
3.1800000000000006,318,0.079,0.026000000000000002,-0.981,8.651665800000002,13.5791046,-1.3178034,6.45723666,1.59282324,-36.23386392
3.1900000000000004,319,0.098,0.018000000000000002,-1.001,7.906820400000001,13.3499214,-2.291832,6.53745078,1.73033316,-36.23386392
3.2000000000000006,320,0.12,0.008,-1.0170000000000001,7.2765666,12.3758928,-2.8074942000000003,6.51453246,1.92513888,-36.25678224
3.2100000000000004,321,0.13699999999999998,0.0,-1.023,6.589017,11.2872726,-2.6929026,6.57755784,2.03973048,-36.2682414
3.22,322,0.147,-0.003,-1.03,5.72958,9.167328,-2.0053530000000004,6.63485364,2.13140376,-36.27970056
3.2300000000000004,323,0.153,0.0,-1.0390000000000001,5.443101,6.130650599999999,-0.8021411999999999,6.69214944,2.19442914,-36.27970056
3.24,324,0.151,0.004,-1.038,4.9274388,3.1512689999999997,0.9167328000000001,6.743715660000001,2.22307704,-36.26251182
3.2500000000000004,325,0.138,0.013000000000000001,-1.033,4.1825934,0.3437748,2.5210152000000003,6.525991620000001,2.39496444,-36.2682414
3.2600000000000002,326,0.11900000000000001,0.021,-1.031,3.4377480000000005,-1.9480572,3.9534102,6.566098679999999,2.37204612,-36.23386392
3.2700000000000005,327,0.09699999999999999,0.031,-1.028,3.1512689999999997,-3.4950437999999995,4.8128472,6.60047616,2.33193906,-36.18802728
3.2800000000000002,328,0.078,0.040999999999999995,-1.0190000000000001,2.1772404,-4.4690724,5.3858052,6.623394479999999,2.28037284,-36.14219064
3.2900000000000005,329,0.067,0.054000000000000006,-1.008,0.5156622000000001,-4.4690724,5.5003968,6.63485364,2.22880662,-36.096354
3.3000000000000003,330,0.06,0.07200000000000001,-0.997,-1.2605076000000002,-3.8388186,5.2139178,6.31972674,2.21734746,-36.0677061
3.3100000000000005,331,0.055,0.087,-0.988,-2.1772404,-2.9220858,4.6982555999999995,6.29680842,2.18296998,-36.02186946
3.3200000000000003,332,0.05,0.09699999999999999,-0.976,-2.1772404,-2.0626488000000003,3.6669312000000014,6.2796196800000015,2.15432208,-35.98749198
3.3300000000000005,333,0.044000000000000004,0.099,-0.965,-1.4896908000000002,-1.4896908000000002,2.7501984,6.26243094,2.13713334,-35.96457366
3.3400000000000003,334,0.038,0.099,-0.955,-0.057295800000000015,-1.145916,1.8907614,6.26243094,2.12567418,-35.94738492000001
3.3500000000000005,335,0.034,0.091,-0.953,1.5469866,-0.7448454000000001,1.432395,5.62071798,2.09702628,-35.96457366
3.3600000000000003,336,0.035,0.08,-0.956,2.7501984,-0.3437748,1.5469866,5.64936588,2.0912967,-35.94738492000001
3.3700000000000006,337,0.040999999999999995,0.069,-0.9620000000000001,2.9220858,-0.11459160000000004,1.8907614,5.6837433599999985,2.0912967,-35.93019618
3.3800000000000003,338,0.045,0.06,-0.97,2.7501984,0.1718874,2.0626488000000003,5.71239126,2.0912967,-35.90727786
3.3900000000000006,339,0.048,0.048,-0.98,2.6356068,0.572958,1.8907614,5.735309579999999,2.09702628,-35.89008912
3.4000000000000004,340,0.046,0.035,-0.987,2.7501984,0.8594370000000001,1.4896908000000002,5.35142772,2.11421502,-35.89581869999999
3.4100000000000006,341,0.042,0.025,-0.995,2.86479,0.8594370000000001,0.8594370000000001,5.38007562,2.1199446,-35.88435954
3.4200000000000004,342,0.04,0.018000000000000002,-0.9990000000000001,3.3231564,0.40107059999999994,0.3437748,5.4144530999999985,2.12567418,-35.88435954
3.4300000000000006,343,0.042,0.016,-1.001,3.2658606,0.11459160000000004,0.0,5.44883058,2.12567418,-35.88435954
3.4400000000000004,344,0.048,0.016,-1.0,2.8074942000000003,-0.4583664000000001,-0.2291832000000001,5.47747848,2.1199446,-35.88435954
3.4500000000000006,345,0.046,0.013999999999999999,-0.9990000000000001,2.5783110000000002,-1.145916,-0.572958,5.13943326,2.13713334,-35.91300744
3.4600000000000004,346,0.047,0.008,-0.9940000000000001,2.1772404,-1.8907614,-0.9740286,5.16235158,2.1199446,-35.9244666
3.4700000000000006,347,0.043,0.001,-0.992,1.8334656000000005,-2.3491277999999998,-1.5469866,5.17954032,2.09702628,-35.94165534
3.4800000000000004,348,0.04,-0.003,-0.99,1.7188740000000002,-2.6356068,-2.0053530000000004,5.19672906,2.07410796,-35.96457366
3.4900000000000007,349,0.038,-0.008,-0.9890000000000001,1.8334656000000005,-2.9220858,-2.3491277999999998,5.2139178,2.04546006,-35.99322156
3.5000000000000004,350,0.033,-0.011000000000000001,-0.99,1.7761698000000001,-3.2085647999999996,-2.5210152000000003,5.05921914,1.99962342,-36.02759904
3.5100000000000007,351,0.027000000000000003,-0.012,-0.996,1.432395,-3.2658606,-2.5210152000000003,5.07640788,1.97097552,-36.05624694
3.5200000000000005,352,0.025,-0.015,-0.9990000000000001,0.7448454000000001,-3.0366774,-2.291832,5.08213746,1.94232762,-36.08489484
3.5300000000000002,353,0.022000000000000002,-0.013000000000000001,-1.0,0.057295800000000015,-2.7501984,-2.0626488000000003,5.08213746,1.9194093000000003,-36.10781315999999
3.5400000000000005,354,0.018000000000000002,-0.012,-0.997,-0.2291832000000001,-2.7501984,-1.9480572,5.08213746,1.8907614,-36.13073148
3.5500000000000003,355,0.018000000000000002,-0.006999999999999999,-0.992,-0.40107059999999994,-2.6356068,-1.7761698000000001,4.79565846,1.8048177,-36.15937938
3.5600000000000005,356,0.021,-0.002,-0.988,-0.11459160000000004,-2.3491277999999998,-1.6042823999999998,4.79565846,1.78762896,-36.17656812
3.5700000000000003,357,0.028999999999999998,0.003,-0.986,0.3437748,-2.0626488000000003,-1.0886202,4.79565846,1.76471064,-36.19375686
3.5800000000000005,358,0.034,0.011000000000000001,-0.9840000000000001,0.4583664000000001,-1.8334656000000005,-0.6302538000000001,4.80138804,1.7475218999999995,-36.19948644
3.5900000000000003,359,0.037000000000000005,0.02,-0.983,0.4583664000000001,-1.6615782,-0.572958,4.80711762,1.73033316,-36.2109456
3.6000000000000005,360,0.039,0.027000000000000003,-0.98,0.6302538000000001,-1.3178034,-0.5156622000000001,4.211241299999998,1.74179232,-36.24532308
3.6100000000000003,361,0.038,0.028999999999999998,-0.977,1.0313244000000001,-0.9167328000000001,-0.5156622000000001,4.22270046,1.73606274,-36.25105266
3.6200000000000006,362,0.035,0.026000000000000002,-0.976,1.6615782,-0.6302538000000001,-0.572958,4.2398892,1.73033316,-36.25678224
3.6300000000000003,363,0.031,0.023,-0.9790000000000001,2.1772404,-0.4583664000000001,-0.5156622000000001,4.26280752,1.7246035799999997,-36.26251182
3.6400000000000006,364,0.027000000000000003,0.019,-0.985,2.2345362,-0.11459160000000004,-0.4583664000000001,4.28572584,1.7246035799999997,-36.2682414
3.6500000000000004,365,0.024,0.018000000000000002,-0.988,2.0053530000000004,0.1718874,-0.286479,3.71276784,1.6615782,-36.29115972
3.6600000000000006,366,0.023,0.022000000000000002,-0.9890000000000001,1.6042823999999998,0.057295800000000015,-0.057295800000000015,3.7299565800000014,1.6673077799999998,-36.29115972
3.6700000000000004,367,0.027000000000000003,0.027999999999999997,-0.99,1.2032118,0.0,0.1718874,3.74141574,1.6673077799999998,-36.29115972
3.6800000000000006,368,0.031,0.032,-0.993,0.9167328000000001,0.0,0.5156622000000001,3.752874900000001,1.6673077799999998,-36.28543014
3.6900000000000004,369,0.035,0.032,-0.9940000000000001,0.572958,0.40107059999999994,0.8021411999999999,3.75860448,1.6673077799999998,-36.27397098
3.7000000000000006,370,0.034,0.032,-0.9990000000000001,0.1718874,0.572958,0.8594370000000001,2.86479,1.6787669399999998,-36.30261888
3.7100000000000004,371,0.033,0.03,-1.001,0.11459160000000004,0.4583664000000001,0.6302538000000001,2.86479,1.6787669399999998,-36.2968893
3.7200000000000006,372,0.033,0.025,-0.997,0.286479,0.2291832000000001,0.4583664000000001,2.87051958,1.6844965200000002,-36.29115972
3.7300000000000004,373,0.036000000000000004,0.021,-0.993,0.3437748,0.40107059999999994,0.3437748,2.87051958,1.6844965200000002,-36.29115972
3.7400000000000007,374,0.035,0.017,-0.99,0.286479,0.9740286,0.2291832000000001,2.87624916,1.6959556799999995,-36.28543014
3.7500000000000004,375,0.033,0.02,-0.986,0.11459160000000004,1.4896908000000002,0.2291832000000001,2.42361234,1.6902260999999998,-36.30261888
3.7600000000000007,376,0.033,0.018000000000000002,-0.978,-0.2291832000000001,1.6615782,0.2291832000000001,2.41788276,1.7074148399999998,-36.2968893
3.7700000000000005,377,0.033,0.018000000000000002,-0.976,-0.4583664000000001,1.2605076000000002,0.286479,2.41788276,1.7188740000000002,-36.29115972
3.7800000000000007,378,0.032,0.017,-0.975,0.0,0.7448454000000001,0.4583664000000001,2.41788276,1.73033316,-36.28543014
3.7900000000000005,379,0.032,0.016,-0.973,0.057295800000000015,0.572958,0.572958,2.41788276,1.73606274,-36.27970056
3.8000000000000007,380,0.034,0.013999999999999999,-0.978,-0.11459160000000004,0.6875496,0.6302538000000001,1.93659804,1.73033316,-36.29115972
3.8100000000000005,381,0.036000000000000004,0.013000000000000001,-0.987,-0.1718874,0.9740286,0.6875496,1.93659804,1.74179232,-36.28543014
3.8200000000000007,382,0.038,0.013999999999999999,-0.995,-0.11459160000000004,1.4896908000000002,0.6302538000000001,1.93659804,1.75325148,-36.27970056
3.8300000000000005,383,0.04,0.015,-0.9990000000000001,0.057295800000000015,1.7188740000000002,0.4583664000000001,1.93659804,1.77044022,-36.27397098
3.8400000000000007,384,0.042,0.013999999999999999,-0.997,0.8594370000000001,1.5469866,0.286479,1.94232762,1.78762896,-36.2682414
3.8500000000000005,385,0.045,0.012,-0.991,1.3750992,1.3750992,0.286479,1.7475218999999995,1.8334656000000005,-36.27397098
3.8600000000000003,386,0.047,0.011000000000000001,-0.99,1.3750992,1.2032118,0.2291832000000001,1.75898106,1.84492476,-36.27397098
3.8700000000000006,387,0.048,0.012,-0.992,1.145916,0.8594370000000001,0.2291832000000001,1.77044022,1.85638392,-36.2682414
3.8800000000000003,388,0.046,0.015,-0.992,0.7448454000000001,0.4583664000000001,0.286479,1.78189938,1.8621134999999998,-36.2682414
3.8900000000000006,389,0.046,0.017,-0.992,0.572958,0.1718874,0.3437748,1.78762896,1.8621134999999998,-36.26251182
3.9000000000000004,390,0.046,0.018000000000000002,-0.991,0.3437748,0.0,0.4583664000000001,1.10580894,1.94232762,-36.2968893
3.9100000000000006,391,0.044000000000000004,0.018000000000000002,-0.992,0.3437748,0.057295800000000015,0.572958,1.10580894,1.94232762,-36.29115972
3.9200000000000004,392,0.044000000000000004,0.016,-0.99,0.4583664000000001,0.11459160000000004,0.5156622000000001,1.11153852,1.94232762,-36.28543014
3.9300000000000006,393,0.045,0.013999999999999999,-0.993,0.5156622000000001,0.2291832000000001,0.286479,1.1172681,1.94232762,-36.27970056
3.9400000000000004,394,0.044000000000000004,0.013999999999999999,-0.995,0.6302538000000001,0.40107059999999994,0.0,1.12299768,1.9480572000000005,-36.27970056
3.9500000000000006,395,0.044000000000000004,0.018000000000000002,-0.995,0.6875496,0.6875496,-0.1718874,0.8136003599999999,1.9767051,-36.2968893
3.9600000000000004,396,0.045,0.021,-0.99,0.5156622000000001,0.6875496,-0.3437748,0.8193299399999999,1.98243468,-36.30261888
3.9700000000000006,397,0.047,0.025,-0.986,0.3437748,0.40107059999999994,-0.3437748,0.8250595199999999,1.98816426,-36.30834846
3.9800000000000004,398,0.049,0.027000000000000003,-0.9840000000000001,0.286479,0.1718874,-0.057295800000000015,0.8250595199999999,1.98816426,-36.30834846
3.9900000000000007,399,0.05,0.027000000000000003,-0.983,0.3437748,0.0,0.057295800000000015,0.8307891,1.98816426,-36.30834846
4.000000000000001,400,0.048,0.024,-0.985,0.40107059999999994,0.11459160000000004,0.0,0.32658606,2.05118964,-36.33699636
4.010000000000001,401,0.046,0.02,-0.988,0.572958,0.1718874,-0.057295800000000015,0.33231564,2.05118964,-36.33699636
4.0200000000000005,402,0.045,0.016,-0.987,0.6302538000000001,0.286479,-0.286479,0.33804522,2.05691922,-36.33699636
4.03,403,0.046,0.013000000000000001,-0.986,0.5156622000000001,0.286479,-0.40107059999999994,0.3437748,2.05691922,-36.34272594
4.040000000000001,404,0.047,0.01,-0.9840000000000001,0.286479,0.11459160000000004,-0.3437748,0.3437748,2.0626488000000003,-36.34845552
4.050000000000001,405,0.046,0.011000000000000001,-0.9840000000000001,0.057295800000000015,-0.11459160000000004,-0.3437748,-0.028647900000000007,2.09702628,-36.37137384
4.0600000000000005,406,0.045,0.015,-0.988,-0.057295800000000015,-0.3437748,-0.3437748,-0.028647900000000007,2.09702628,-36.37710342000001
4.07,407,0.045,0.019,-0.993,-0.057295800000000015,-0.3437748,-0.3437748,-0.028647900000000007,2.0912967,-36.37710342000001
4.080000000000001,408,0.043,0.02,-0.995,0.11459160000000004,-0.1718874,-0.286479,-0.028647900000000007,2.0912967,-36.38283300000001
4.090000000000001,409,0.040999999999999995,0.019,-0.997,0.3437748,-0.1718874,-0.286479,-0.02291832,2.08556712,-36.38283300000001
4.1000000000000005,410,0.040999999999999995,0.018000000000000002,-0.9990000000000001,0.5156622000000001,0.0,-0.1718874,-0.29220857999999994,2.06837838,-36.40002174
4.11,411,0.042,0.015,-0.9990000000000001,0.6302538000000001,0.286479,-0.057295800000000015,-0.28647900000000004,2.07410796,-36.40002174
4.120000000000001,412,0.045,0.011000000000000001,-0.996,0.3437748,0.5156622000000001,0.057295800000000015,-0.28074942,2.07410796,-36.40002174
4.130000000000001,413,0.045,0.008,-0.993,-0.2291832000000001,0.4583664000000001,0.11459160000000004,-0.28647900000000004,2.07983754,-36.40002174
4.140000000000001,414,0.040999999999999995,0.005,-0.988,-0.9740286,0.1718874,0.1718874,-0.29793816,2.08556712,-36.40002174
4.15,415,0.035,0.006,-0.981,-1.6042823999999998,0.11459160000000004,0.1718874,-0.3724227000000001,2.05691922,-36.40002174
4.160000000000001,416,0.028999999999999998,0.011000000000000001,-0.978,-2.1199446,0.3437748,0.057295800000000015,-0.39534102,2.05691922,-36.394292160000006
4.170000000000001,417,0.027999999999999997,0.017,-0.978,-2.3491277999999998,0.6875496,-0.057295800000000015,-0.42398892,2.0626488000000003,-36.394292160000006
4.180000000000001,418,0.03,0.021,-0.976,-2.4064236,0.9740286,-0.057295800000000015,-0.44690724,2.07410796,-36.40002174
4.19,419,0.032,0.026000000000000002,-0.975,-2.4064236,0.8594370000000001,0.0,-0.46982556,2.07983754,-36.394292160000006
4.2,420,0.036000000000000004,0.03,-0.9740000000000001,-2.4064236,1.0886202,0.0,-0.5729580000000001,2.07983754,-36.40002174
4.210000000000001,421,0.039,0.032,-0.976,-2.1199446,1.6042823999999998,0.11459160000000004,-0.59587632,2.09702628,-36.40002174
4.220000000000001,422,0.043,0.033,-0.981,-1.8907614,2.291832,0.2291832000000001,-0.61306506,2.1199446,-36.394292160000006
4.23,423,0.047,0.032,-0.99,-1.7188740000000002,2.7501984,0.3437748,-0.6302538000000001,2.1485925000000003,-36.38856258
4.24,424,0.046,0.03,-0.9940000000000001,-1.3178034,3.2085647999999996,0.40107059999999994,-0.64744254,2.1772404,-36.38283300000001
4.250000000000001,425,0.043,0.031,-0.997,-0.9167328000000001,3.2085647999999996,0.2291832000000001,-0.72192708,2.20015872,-36.38283300000001
4.260000000000001,426,0.040999999999999995,0.031,-0.996,-0.5156622000000001,3.0366774,0.057295800000000015,-0.72765666,2.2345362,-36.38283300000001
4.2700000000000005,427,0.042,0.028999999999999998,-0.995,0.0,2.3491277999999998,-0.057295800000000015,-0.72765666,2.25745452,-36.38283300000001
4.28,428,0.047,0.027000000000000003,-0.992,0.6302538000000001,1.432395,-0.057295800000000015,-0.72192708,2.26891368,-36.38283300000001
4.290000000000001,429,0.052000000000000005,0.025,-0.99,0.7448454000000001,0.572958,0.0,-0.7104679199999999,2.28037284,-36.38283300000001
4.300000000000001,430,0.053,0.025,-0.991,0.8594370000000001,0.0,0.1718874,-0.8537074199999999,2.30902074,-36.394292160000006
4.3100000000000005,431,0.053,0.024,-0.9790000000000001,0.7448454000000001,-0.057295800000000015,0.3437748,-0.8479778399999999,2.30902074,-36.38856258
4.32,432,0.047,0.021,-0.976,0.40107059999999994,0.11459160000000004,0.286479,-0.8422482600000001,2.30902074,-36.38283300000001
4.330000000000001,433,0.043,0.021,-0.982,0.9740286,-0.057295800000000015,0.2291832000000001,-0.8307891,2.30902074,-36.38283300000001
4.340000000000001,434,0.043,0.02,-0.985,1.7188740000000002,-0.1718874,0.0,-0.8136003599999999,2.30902074,-36.38283300000001
4.3500000000000005,435,0.045,0.02,-0.988,2.1199446,0.0,0.0,-0.87089616,2.29756158,-36.38856258
4.36,436,0.046,0.019,-0.9940000000000001,2.1772404,0.3437748,-0.057295800000000015,-0.8479778399999999,2.30329116,-36.38856258
4.370000000000001,437,0.046,0.016,-0.9990000000000001,2.1772404,0.9167328000000001,-0.1718874,-0.8250595199999999,2.3147503200000004,-36.38856258
4.380000000000001,438,0.046,0.016,-1.0,2.0626488000000003,1.6042823999999998,-0.40107059999999994,-0.8078707799999998,2.33193906,-36.394292160000006
4.390000000000001,439,0.047,0.015,-0.9990000000000001,2.1772404,2.0053530000000004,-0.6875496,-0.7849524600000001,2.3491278,-36.40002174
4.4,440,0.051,0.016,-0.997,1.9480572,2.3491277999999998,-0.8594370000000001,-0.79641162,2.3777757,-36.4114809
4.410000000000001,441,0.053,0.019,-0.993,1.432395,2.4064236,-0.9740286,-0.7849524600000001,2.40069402,-36.42294006
4.420000000000001,442,0.055999999999999994,0.025,-0.992,0.9740286,2.291832,-0.9740286,-0.7734933,2.42361234,-36.42866964
4.430000000000001,443,0.059000000000000004,0.031,-0.99,0.7448454000000001,1.8907614,-0.9740286,-0.76776372,2.44080108,-36.4401288
4.44,444,0.06,0.037000000000000005,-0.986,0.8594370000000001,1.2032118,-0.8594370000000001,-0.76203414,2.45226024,-36.45158796
4.450000000000001,445,0.059000000000000004,0.039,-0.985,1.0886202,0.5156622000000001,-0.6302538000000001,-0.8880849000000001,2.48663772,-36.46304712
4.460000000000001,446,0.057999999999999996,0.036000000000000004,-0.986,1.3750992,0.2291832000000001,-0.40107059999999994,-0.87089616,2.48663772,-36.46877670000001
4.470000000000001,447,0.054000000000000006,0.028999999999999998,-0.99,1.6042823999999998,0.0,-0.11459160000000004,-0.8537074199999999,2.48663772,-36.46877670000001
4.48,448,0.052000000000000005,0.022000000000000002,-0.993,1.6615782,-0.11459160000000004,0.0,-0.83651868,2.48663772,-36.46877670000001
4.49,449,0.049,0.018000000000000002,-0.993,1.6615782,-0.40107059999999994,0.057295800000000015,-0.8193299399999999,2.48090814,-36.46877670000001
4.500000000000001,450,0.05,0.017,-0.993,1.5469866,-0.6875496,0.2291832000000001,-0.87662574,2.47517856,-36.47450628
4.510000000000001,451,0.052000000000000005,0.018000000000000002,-0.991,1.3750992,-0.9167328000000001,0.40107059999999994,-0.8594370000000001,2.4637194,-36.46877670000001
4.5200000000000005,452,0.052000000000000005,0.019,-0.99,1.145916,-1.0313244000000001,0.5156622000000001,-0.8479778399999999,2.45798982,-36.46304712
4.53,453,0.053,0.019,-0.993,0.8594370000000001,-1.0313244000000001,0.5156622000000001,-0.83651868,2.44653066,-36.45731754000001
4.540000000000001,454,0.052000000000000005,0.018000000000000002,-0.9940000000000001,0.7448454000000001,-1.2605076000000002,0.5156622000000001,-0.8307891,2.4350715000000003,-36.45158796
4.550000000000001,455,0.052000000000000005,0.016,-0.992,0.6875496,-1.4896908000000002,0.4583664000000001,-0.8823553199999999,2.42361234,-36.45158796
4.5600000000000005,456,0.05,0.016,-0.988,0.5156622000000001,-1.6042823999999998,0.4583664000000001,-0.87089616,2.4064236,-36.44585838
4.57,457,0.048,0.013000000000000001,-0.9840000000000001,0.5156622000000001,-1.6615782,0.2291832000000001,-0.86516658,2.38923486,-36.44585838
4.580000000000001,458,0.047,0.011000000000000001,-0.981,0.40107059999999994,-1.7761698000000001,0.11459160000000004,-0.86516658,2.37204612,-36.44585838
4.590000000000001,459,0.048,0.009000000000000001,-0.9790000000000001,0.11459160000000004,-1.9480572,0.057295800000000015,-0.8594370000000001,2.35485738,-36.4401288
4.6000000000000005,460,0.047,0.01,-0.978,-0.057295800000000015,-2.1772404,0.11459160000000004,-0.89954406,2.33193906,-36.44585838
4.61,461,0.046,0.013000000000000001,-0.9790000000000001,-0.2291832000000001,-2.1772404,0.2291832000000001,-0.90527364,2.30902074,-36.4401288
4.620000000000001,462,0.044000000000000004,0.013999999999999999,-0.98,-0.286479,-1.8334656000000005,0.2291832000000001,-0.90527364,2.2918320000000003,-36.4401288
4.630000000000001,463,0.043,0.017,-0.981,-0.1718874,-1.5469866,0.2291832000000001,-0.90527364,2.2746432600000004,-36.43439922
4.640000000000001,464,0.042,0.02,-0.982,0.0,-1.2032118,0.2291832000000001,-0.90527364,2.2631841,-36.43439922
4.65,465,0.040999999999999995,0.021,-0.9840000000000001,0.1718874,-0.9167328000000001,0.11459160000000004,-1.05424272,2.22880662,-36.4401288
4.660000000000001,466,0.043,0.024,-0.986,0.286479,-0.6875496,0.0,-1.05424272,2.22307704,-36.4401288
4.670000000000001,467,0.044000000000000004,0.026000000000000002,-0.986,0.3437748,-0.4583664000000001,-0.057295800000000015,-1.04851314,2.21734746,-36.4401288
4.680000000000001,468,0.044000000000000004,0.027999999999999997,-0.986,0.4583664000000001,-0.5156622000000001,-0.1718874,-1.04278356,2.21161788,-36.44585838
4.69,469,0.044000000000000004,0.03,-0.983,0.6302538000000001,-0.8021411999999999,-0.286479,-1.03705398,2.2058883,-36.44585838
4.700000000000001,470,0.042,0.031,-0.983,0.6875496,-1.0313244000000001,-0.40107059999999994,-1.11153852,2.18296998,-36.45731754000001
4.710000000000001,471,0.040999999999999995,0.03,-0.983,0.7448454000000001,-1.2032118,-0.4583664000000001,-1.10580894,2.17151082,-36.46304712
4.720000000000001,472,0.04,0.027999999999999997,-0.983,0.9167328000000001,-1.3178034,-0.2291832000000001,-1.09434978,2.16005166,-36.46304712
4.73,473,0.040999999999999995,0.024,-0.983,1.0313244000000001,-1.3178034,-0.1718874,-1.08289062,2.1485925000000003,-36.46304712
4.740000000000001,474,0.040999999999999995,0.019,-0.9840000000000001,1.2032118,-1.0886202,0.0,-1.07143146,2.13713334,-36.46877670000001
4.750000000000001,475,0.040999999999999995,0.012,-0.988,1.2605076000000002,-0.7448454000000001,-0.057295800000000015,-1.10007936,2.1199446,-36.46877670000001
4.760000000000001,476,0.043,0.009000000000000001,-0.99,1.3178034,-0.3437748,0.0,-1.08289062,2.11421502,-36.46877670000001
4.7700000000000005,477,0.044000000000000004,0.006999999999999999,-0.991,1.145916,-0.057295800000000015,-0.11459160000000004,-1.07143146,2.11421502,-36.46877670000001
4.780000000000001,478,0.045,0.006999999999999999,-0.9940000000000001,0.7448454000000001,0.286479,-0.1718874,-1.06570188,2.1199446,-36.47450628
4.790000000000001,479,0.045,0.008,-0.996,0.4583664000000001,0.5156622000000001,-0.11459160000000004,-1.0599723,2.1199446,-36.47450628
4.800000000000001,480,0.047,0.013000000000000001,-0.9990000000000001,0.1718874,0.7448454000000001,0.0,-1.13445684,2.14286292,-36.48023586
4.8100000000000005,481,0.047,0.016,-0.9990000000000001,0.0,0.8021411999999999,0.1718874,-1.13445684,2.1485925000000003,-36.47450628
4.82,482,0.047,0.019,-0.993,-0.3437748,0.8021411999999999,0.1718874,-1.14018642,2.16005166,-36.47450628
4.830000000000001,483,0.048,0.02,-0.9940000000000001,-0.40107059999999994,0.572958,0.1718874,-1.1459160000000002,2.1657812400000003,-36.47450628
4.840000000000001,484,0.052000000000000005,0.02,-0.9890000000000001,-0.2291832000000001,0.11459160000000004,0.1718874,-1.1459160000000002,2.1657812400000003,-36.46877670000001
4.8500000000000005,485,0.055,0.02,-0.982,-0.057295800000000015,-0.286479,0.057295800000000015,-1.29488508,2.24026578,-36.48023586
4.86,486,0.055,0.023,-0.9790000000000001,-0.1718874,-0.6875496,0.0,-1.30061466,2.2345362,-36.48023586
4.870000000000001,487,0.052000000000000005,0.025,-0.978,-0.286479,-0.6302538000000001,-0.286479,-1.30061466,2.22880662,-36.48023586
4.880000000000001,488,0.048,0.027000000000000003,-0.97,-0.5156622000000001,-0.5156622000000001,-0.5156622000000001,-1.30634424,2.22307704,-36.48596544
4.890000000000001,489,0.040999999999999995,0.027000000000000003,-0.972,-0.572958,-1.0886202,-0.7448454000000001,-1.31207382,2.21161788,-36.4974246
4.9,490,0.038,0.031,-0.977,0.057295800000000015,-1.8334656000000005,-0.7448454000000001,-1.36364004,2.18296998,-36.50315418
4.910000000000001,491,0.037000000000000005,0.032,-0.98,0.4583664000000001,-2.0626488000000003,-0.6302538000000001,-1.3579104599999998,2.16005166,-36.51461334
4.920000000000001,492,0.037000000000000005,0.03,-0.986,0.4583664000000001,-1.7188740000000002,-0.5156622000000001,-1.35218088,2.14286292,-36.51461334
4.930000000000001,493,0.037000000000000005,0.026000000000000002,-0.992,0.7448454000000001,-1.3750992,-0.3437748,-1.3464512999999998,2.12567418,-36.52034292
4.94,494,0.038,0.02,-0.998,0.7448454000000001,-0.8594370000000001,-0.4583664000000001,-1.3349921400000002,2.1199446,-36.5260725
4.950000000000001,495,0.038,0.015,-1.0,0.6302538000000001,-0.5156622000000001,-0.4583664000000001,-1.3750992,2.09702628,-36.53180208
4.960000000000001,496,0.044000000000000004,0.011000000000000001,-0.9990000000000001,0.4583664000000001,-0.5156622000000001,-0.572958,-1.36936962,2.0912967,-36.53753166
4.970000000000001,497,0.048,0.01,-0.997,0.2291832000000001,-0.8021411999999999,-0.40107059999999994,-1.36936962,2.07983754,-36.54326124
4.98,498,0.051,0.013000000000000001,-0.993,-0.057295800000000015,-0.9167328000000001,-0.2291832000000001,-1.36936962,2.06837838,-36.54899082
4.990000000000001,499,0.052000000000000005,0.018000000000000002,-0.99,-0.11459160000000004,-1.0886202,0.0,-1.36936962,2.0626488000000003,-36.54899082
5.000000000000001,500,0.052000000000000005,0.024,-0.986,-0.11459160000000004,-1.145916,0.0,-1.4610428999999998,2.07983754,-36.54899082
5.010000000000001,501,0.052000000000000005,0.027999999999999997,-0.9840000000000001,0.057295800000000015,-1.0313244000000001,0.057295800000000015,-1.4610428999999998,2.07410796,-36.54899082
5.0200000000000005,502,0.051,0.028999999999999998,-0.986,0.1718874,-0.9740286,0.2291832000000001,-1.4610428999999998,2.0626488000000003,-36.54899082
5.030000000000001,503,0.047,0.027999999999999997,-0.987,0.2291832000000001,-0.8594370000000001,0.3437748,-1.45531332,2.05118964,-36.54326124
5.040000000000001,504,0.045,0.027000000000000003,-0.988,0.2291832000000001,-0.6302538000000001,0.3437748,-1.45531332,2.04546006,-36.54326124
5.050000000000001,505,0.043,0.023,-0.9890000000000001,0.2291832000000001,-0.286479,0.40107059999999994,-1.52979786,2.04546006,-36.54326124
5.0600000000000005,506,0.044000000000000004,0.018000000000000002,-0.991,0.11459160000000004,-0.057295800000000015,0.40107059999999994,-1.52979786,2.03973048,-36.53753166
5.070000000000001,507,0.045,0.016,-0.99,-0.11459160000000004,-0.1718874,0.40107059999999994,-1.52979786,2.03973048,-36.53180208
5.080000000000001,508,0.046,0.016,-0.99,-0.5156622000000001,-0.286479,0.286479,-1.53552744,2.03973048,-36.5260725
5.090000000000001,509,0.045,0.018000000000000002,-0.993,-0.8021411999999999,-0.2291832000000001,0.1718874,-1.5469866,2.0340009,-36.5260725
5.1000000000000005,510,0.045,0.02,-0.993,-0.8594370000000001,-0.3437748,0.0,-1.6042824000000002,2.0340009,-36.53180208
5.110000000000001,511,0.046,0.024,-0.991,-0.9740286,-0.6875496,-0.057295800000000015,-1.6157415599999996,2.02827132,-36.53180208
5.120000000000001,512,0.045,0.027000000000000003,-0.9890000000000001,-0.9740286,-0.9167328000000001,-0.2291832000000001,-1.6272007199999998,2.02254174,-36.53180208
5.130000000000001,513,0.043,0.027999999999999997,-0.985,-0.9167328000000001,-0.9167328000000001,-0.572958,-1.6386598799999998,2.01108258,-36.53753166
5.140000000000001,514,0.040999999999999995,0.027999999999999997,-0.983,-0.8594370000000001,-0.8594370000000001,-0.9167328000000001,-1.64438946,1.99962342,-36.54899082
5.15,515,0.039,0.026000000000000002,-0.983,-0.8594370000000001,-0.8594370000000001,-1.2032118,-1.6787669399999998,1.98816426,-36.56044998
5.160000000000001,516,0.036000000000000004,0.024,-0.985,-0.8594370000000001,-0.572958,-1.5469866,-1.6902260999999998,1.98243468,-36.57763872
5.170000000000001,517,0.033,0.022000000000000002,-0.987,-0.9167328000000001,-0.40107059999999994,-1.8334656000000005,-1.70168526,1.9767051,-36.59482746
5.180000000000001,518,0.03,0.019,-0.988,-1.0313244000000001,-0.40107059999999994,-2.0626488000000003,-1.71314442,1.97097552,-36.61774578
5.19,519,0.03,0.016,-0.986,-1.7761698000000001,-0.5156622000000001,-2.2345362,-1.73033316,1.96524594,-36.6406641
