TimeStamp(s),FrameCounter,AccX,AccY,AccZ,GyrX,GyrY,GyrZ,EulerX,EulerY,EulerZ
0.01,1,0.0,-1.006,0.134,1.432395,-8.9954406,-1.3750992,92.57282406,-3.27731976,-14.47864866
0.02,2,0.001,-1.004,0.157,-1.145916,-6.990087599999999,0.5156622000000001,92.56709448,-3.27731976,-14.5531332
0.03,3,-0.002,-1.003,0.162,-1.5469866,-7.448453999999999,0.6875496,92.55563532,-3.27731976,-14.62761774
0.04,4,-0.005,-1.001,0.16399999999999998,-1.8907614,-7.5057497999999985,0.6875496,92.54417616,-3.28304934,-14.70210228
0.05,5,-0.008,-0.996,0.163,-2.0053530000000004,-6.990087599999999,0.6875496,92.60147196,-3.19710564,-14.82815304
0.060000000000000005,6,-0.005,-0.993,0.163,-2.1199446,-6.3598338,0.5156622000000001,92.58428322,-3.19710564,-14.89117842
0.06999999999999999,7,-0.002,-0.995,0.165,-2.4064236,-6.0160589999999985,0.5156622000000001,92.56709448,-3.20283522,-14.954203799999998
0.08,8,-0.003,-0.997,0.16,-2.6929026,-6.2452422,0.6302538000000001,92.54417616,-3.20283522,-15.01722918
0.09,9,0.0,-0.9990000000000001,0.156,-2.4064236,-6.8182002000000015,0.9167328000000001,92.52125784,-3.2085648000000004,-15.08598414
0.09999999999999999,10,0.002,-0.998,0.158,-2.0053530000000004,-7.2192707999999985,1.3178034,92.56709448,-3.13408026,-15.21776448
0.11,11,0.006,-0.996,0.156,-2.0053530000000004,-7.8495246,1.7761698000000001,92.55563532,-3.14553942,-15.29224902
0.12,12,0.004,-0.992,0.156,-1.8907614,-8.3651868,2.2345362,92.53844658,-3.1627281600000003,-15.37819272
0.13,13,0.002,-0.991,0.156,-1.6615782,-8.307891,2.4064236,92.52698742,-3.1799169000000003,-15.46413642
0.14,14,-0.003,-0.996,0.156,-1.7188740000000002,-8.7089616,2.3491277999999998,92.51552826,-3.19710564,-15.55008012
0.15000000000000002,15,-0.011000000000000001,-1.001,0.154,-1.7761698000000001,-9.1100322,2.0053530000000004,92.55563532,-3.15699858,-15.676130880000002
0.16,16,-0.015,-1.001,0.153,-1.7188740000000002,-9.453807,1.6042823999999998,92.54417616,-3.16845774,-15.77353374
0.17,17,-0.017,-0.9990000000000001,0.151,-1.6042823999999998,-9.8548776,1.3750992,92.532717,-3.1741873200000006,-15.8709366
0.18000000000000002,18,-0.016,-0.993,0.153,-1.5469866,-9.9121734,1.2605076000000002,92.52698742,-3.1799169000000003,-15.96833946
0.19,19,-0.013999999999999999,-0.991,0.156,-1.3750992,-9.682990199999999,1.3750992,92.52125784,-3.18564648,-16.06574232
0.2,20,-0.01,-0.992,0.16,-1.0313244000000001,-9.568398599999998,1.4896908000000002,92.57282406,-3.12835068,-16.208981819999998
0.21000000000000002,21,-0.005,-0.991,0.159,-0.9167328000000001,-9.1100322,1.5469866,92.57282406,-3.1398098400000003,-16.29492552
0.22,22,-0.001,-0.993,0.157,-0.8021411999999999,-8.59437,1.4896908000000002,92.56709448,-3.14553942,-16.38086922
0.23,23,0.001,-0.997,0.155,-1.0313244000000001,-8.5370742,1.3750992,92.56136490000002,-3.15699858,-16.466812920000002
0.24000000000000002,24,0.001,-1.002,0.154,-1.432395,-9.0527364,1.432395,92.55563532,-3.1627281600000003,-16.5584862
0.25,25,-0.002,-1.008,0.15,-1.7761698000000001,-9.9121734,1.432395,92.5900128,-3.11689152,-16.69599612
0.26,26,-0.005,-1.01,0.147,-1.6615782,-10.313244000000001,1.4896908000000002,92.57855364,-3.1226211000000004,-16.79912856
0.27,27,-0.006999999999999999,-1.008,0.147,-1.432395,-10.5424272,1.5469866,92.57282406,-3.12835068,-16.902261000000006
0.28,28,-0.008,-1.002,0.149,-1.6042823999999998,-10.4278356,1.6042823999999998,92.56136490000002,-3.1398098400000003,-17.01112302
0.29000000000000004,29,-0.006999999999999999,-0.9940000000000001,0.15,-1.7761698000000001,-10.1986524,1.6615782,92.54990574,-3.1512689999999997,-17.108525880000002
0.3,30,-0.01,-0.992,0.15,-1.9480572,-10.1413566,1.4896908000000002,92.58428322,-3.1054323600000004,-17.246035799999998
0.31,31,-0.01,-0.991,0.151,-2.0626488000000003,-9.8548776,1.2605076000000002,92.56709448,-3.11116194,-17.34343866
0.32,32,-0.011000000000000001,-0.995,0.149,-2.2345362,-9.568398599999998,1.145916,92.54990574,-3.11689152,-17.44084152
0.33,33,-0.011000000000000001,-0.9990000000000001,0.145,-2.291832,-9.453807,1.0313244000000001,92.532717,-3.1226211000000004,-17.5325148
0.34,34,-0.01,-1.002,0.14400000000000002,-2.2345362,-9.2819196,1.0313244000000001,92.51552826,-3.1226211000000004,-17.62991766
0.35000000000000003,35,-0.009000000000000001,-1.004,0.146,-1.7761698000000001,-9.1100322,1.145916,92.55563532,-3.07105488,-17.755968420000006
0.36000000000000004,36,-0.006999999999999999,-1.005,0.146,-1.6042823999999998,-9.0527364,1.3178034,92.54417616,-3.07678446,-17.847641699999997
0.37,37,-0.005,-1.006,0.147,-2.0053530000000004,-8.880849000000003,1.5469866,92.532717,-3.08824362,-17.93931498
0.38,38,-0.004,-1.006,0.14800000000000002,-2.5783110000000002,-8.7662574,1.6615782,92.50979868,-3.0997027800000003,-18.02525868
0.39,39,-0.002,-1.003,0.149,-2.9220858,-8.9381448,1.7188740000000002,92.48688036,-3.11116194,-18.11693196
0.4,40,-0.002,-0.998,0.145,-3.1512689999999997,-8.5370742,1.5469866,92.5040691,-3.05959572,-18.23725314
0.41000000000000003,41,-0.002,-0.998,0.14400000000000002,-3.0939732,-7.9641161999999985,1.3178034,92.4754212,-3.07105488,-18.31746726
0.42000000000000004,42,-0.002,-1.0,0.141,-3.0366774,-7.161975,1.2032118,92.45250288,-3.07678446,-18.38622222
0.43,43,-0.003,-1.0,0.13699999999999998,-2.7501984,-6.8182002000000015,1.145916,92.42958456,-3.0825140400000004,-18.45497718
0.44,44,-0.005,-0.9990000000000001,0.136,-2.5210152000000003,-6.8182002000000015,1.2032118,92.40666624,-3.0939732,-18.52373214
0.45,45,-0.006999999999999999,-0.992,0.134,-2.1772404,-6.8182002000000015,1.2032118,92.44104372,-3.03094782,-18.63832374
0.46,46,-0.008,-0.988,0.136,-1.7761698000000001,-6.703608600000001,1.2032118,92.42385498,-3.04240698,-18.70134912
0.47000000000000003,47,-0.011000000000000001,-0.986,0.139,-1.4896908000000002,-6.4744254,1.2032118,92.41812540000001,-3.04813656,-18.77010408
0.48000000000000004,48,-0.01,-0.986,0.14400000000000002,-1.2032118,-6.417129599999999,1.2032118,92.40666624,-3.05386614,-18.83312946
0.49,49,-0.013000000000000001,-0.9940000000000001,0.149,-1.6042823999999998,-6.1879464,1.145916,92.39520708,-3.0653253000000005,-18.89615484
0.5,50,-0.015,-1.004,0.147,-2.2345362,-5.958763200000001,0.8594370000000001,92.43531414,-3.0080294999999997,-18.9935577
0.51,51,-0.016,-1.01,0.142,-2.4637194,-5.443101,0.6302538000000001,92.41812540000001,-3.0080294999999997,-19.0508535
0.52,52,-0.013999999999999999,-1.011,0.13699999999999998,-2.1772404,-4.6409598,0.5156622000000001,92.39520708,-3.0137590800000003,-19.09669014
0.53,53,-0.013000000000000001,-1.006,0.13699999999999998,-1.6042823999999998,-3.8388186,0.6302538000000001,92.38374792,-3.0137590800000003,-19.1367972
0.54,54,-0.013000000000000001,-1.003,0.136,-1.3750992,-3.0939732,0.7448454000000001,92.37228876,-3.01948866,-19.165445100000003
0.55,55,-0.013000000000000001,-0.997,0.134,-1.6615782,-2.4637194,0.9167328000000001,92.45250288,-2.9220857999999996,-19.26284796
0.56,56,-0.013000000000000001,-0.992,0.135,-2.0053530000000004,-2.0626488000000003,1.0886202,92.43531414,-2.92781538,-19.280036700000004
0.5700000000000001,57,-0.015,-0.992,0.133,-2.1199446,-1.8334656000000005,1.145916,92.41239582,-2.93927454,-19.30295502
0.5800000000000001,58,-0.016,-0.991,0.134,-2.4064236,-1.6042823999999998,1.0886202,92.3894775,-2.9507337000000002,-19.32014376
0.59,59,-0.017,-0.99,0.135,-2.3491277999999998,-1.145916,0.9167328000000001,92.36655918,-2.96219286,-19.33160292
0.6,60,-0.017,-0.9940000000000001,0.136,-2.0053530000000004,-0.6302538000000001,0.8021411999999999,92.51552826,-2.8074942000000003,-19.44046494
0.61,61,-0.015,-0.9990000000000001,0.138,-1.7761698000000001,0.0,0.8021411999999999,92.49833952,-2.81895336,-19.44046494
0.62,62,-0.012,-1.005,0.139,-2.0053530000000004,0.6302538000000001,0.7448454000000001,92.4754212,-2.82468294,-19.43473536
0.63,63,-0.011000000000000001,-1.0090000000000001,0.138,-2.1772404,0.7448454000000001,0.5156622000000001,92.45250288,-2.83041252,-19.42900578
0.64,64,-0.011000000000000001,-1.008,0.134,-1.8334656000000005,0.572958,0.5156622000000001,92.43531414,-2.84187168,-19.4232762
0.65,65,-0.01,-1.0070000000000001,0.131,-1.7188740000000002,0.1718874,0.4583664000000001,92.59574238000002,-2.6356068,-19.54932696
0.66,66,-0.012,-1.004,0.128,-2.0626488000000003,-0.2291832000000001,0.40107059999999994,92.57282406,-2.6413363800000003,-19.55505654
0.67,67,-0.015,-0.995,0.131,-2.2345362,-0.572958,0.5156622000000001,92.54990574,-2.64706596,-19.56078612
0.68,68,-0.015,-0.993,0.131,-1.7761698000000001,-0.5156622000000001,0.572958,92.532717,-2.65279554,-19.5665157
0.6900000000000001,69,-0.013999999999999999,-0.99,0.131,-1.0886202,0.0,0.6875496,92.52125784,-2.65852512,-19.5665157
0.7000000000000001,70,-0.012,-0.991,0.132,-0.6302538000000001,0.7448454000000001,0.6302538000000001,92.69314524,-2.48663772,-19.66964814
0.7100000000000001,71,-0.01,-0.996,0.132,-0.6302538000000001,1.432395,0.572958,92.68741566,-2.4923672999999997,-19.65818898
0.72,72,-0.008,-0.998,0.131,-0.9167328000000001,1.8334656000000005,0.5156622000000001,92.6759565,-2.49809688,-19.64100024
0.73,73,-0.008,-1.002,0.126,-1.432395,2.0053530000000004,0.40107059999999994,92.65876776,-2.50382646,-19.61808192
0.74,74,-0.006,-1.0070000000000001,0.124,-1.7761698000000001,2.0053530000000004,0.3437748,92.64157902,-2.50955604,-19.60089318
0.75,75,-0.006999999999999999,-1.0090000000000001,0.12300000000000001,-1.8334656000000005,1.8334656000000005,0.5156622000000001,92.69887482,-2.41788276,-19.64100024
0.76,76,-0.011000000000000001,-1.0070000000000001,0.124,-1.5469866,1.432395,0.6302538000000001,92.68168608,-2.42361234,-19.629541080000006
0.77,77,-0.016,-1.002,0.126,-1.0313244000000001,1.0313244000000001,0.6302538000000001,92.67022692,-2.42934192,-19.61808192
0.78,78,-0.019,-0.996,0.127,-0.8021411999999999,1.145916,0.5156622000000001,92.66449734,-2.44080108,-19.60662276
0.79,79,-0.02,-0.99,0.129,-0.9167328000000001,1.5469866,0.40107059999999994,92.65303818,-2.44080108,-19.595163600000006
0.8,80,-0.02,-0.987,0.132,-0.9167328000000001,2.3491277999999998,0.2291832000000001,92.75044104,-2.36631654,-19.6238115
0.81,81,-0.018000000000000002,-0.9890000000000001,0.131,-0.7448454000000001,3.0366774,0.1718874,92.73898188,-2.37204612,-19.595163600000006
0.8200000000000001,82,-0.013999999999999999,-0.996,0.127,-0.5156622000000001,3.6096353999999997,0.057295800000000015,92.7332523,-2.3777757,-19.55505654
0.8300000000000001,83,-0.011000000000000001,-1.0070000000000001,0.124,-0.2291832000000001,4.0680017999999984,0.11459160000000004,92.72752272,-2.3777757,-19.51494948
0.8400000000000001,84,-0.006999999999999999,-1.011,0.12300000000000001,-0.057295800000000015,3.9534102,0.1718874,92.72752272,-2.38350528,-19.47484242
0.85,85,-0.003,-1.011,0.12300000000000001,0.1718874,3.4950437999999995,0.3437748,92.80773684,-2.28037284,-19.5092199
0.86,86,-0.002,-1.0070000000000001,0.12300000000000001,0.4583664000000001,2.9220858,0.40107059999999994,92.81346642,-2.28610242,-19.480572
0.87,87,-0.003,-0.9990000000000001,0.124,0.5156622000000001,2.4064236,0.4583664000000001,92.81346642,-2.2918320000000003,-19.45765368
0.88,88,-0.005,-0.992,0.13,0.8021411999999999,1.8907614,0.572958,92.81919599999999,-2.29756158,-19.43473536
0.89,89,-0.009000000000000001,-0.99,0.139,0.6875496,1.4896908000000002,0.5156622000000001,92.83065516000002,-2.30329116,-19.4232762
0.9,90,-0.011000000000000001,-0.993,0.141,0.2291832000000001,1.4896908000000002,0.40107059999999994,93.05410878,-2.13713334,-19.51494948
0.91,91,-0.012,-0.998,0.14,-0.11459160000000004,1.7761698000000001,0.286479,93.0483792,-2.14286292,-19.49776074
0.92,92,-0.011000000000000001,-1.003,0.135,-0.4583664000000001,2.2345362,0.286479,93.04264962,-2.14286292,-19.480572
0.93,93,-0.01,-1.006,0.131,-0.4583664000000001,2.4064236,0.1718874,93.03692004,-2.1485925000000003,-19.4519241
0.9400000000000001,94,-0.009000000000000001,-1.0070000000000001,0.126,-0.40107059999999994,2.5210152000000003,0.3437748,93.03119046,-2.15432208,-19.42900578
0.9500000000000001,95,-0.006999999999999999,-1.008,0.126,-0.2291832000000001,2.5210152000000003,0.572958,93.12859332,-2.05691922,-19.46911284
0.9600000000000001,96,-0.004,-1.0070000000000001,0.127,0.0,2.0053530000000004,0.8021411999999999,93.12859332,-2.0626488000000003,-19.44619452
0.97,97,-0.002,-1.004,0.131,0.2291832000000001,1.6615782,1.0313244000000001,93.12859332,-2.07410796,-19.43473536
0.98,98,0.0,-0.9990000000000001,0.132,0.40107059999999994,1.3178034,1.145916,93.1343229,-2.08556712,-19.41754662
0.99,99,-0.001,-0.996,0.131,0.286479,0.9167328000000001,1.0886202,93.1343229,-2.10275586,-19.41181704
1.0,100,-0.002,-0.993,0.129,0.057295800000000015,0.6302538000000001,0.8594370000000001,93.37496526,-1.8334656000000005,-19.5665157
1.01,101,-0.005,-0.993,0.129,0.0,0.3437748,0.572958,93.37496526,-1.83919518,-19.56078612
1.02,102,-0.008,-0.992,0.131,0.286479,0.572958,0.4583664000000001,93.38069484,-1.84492476,-19.55505654
1.03,103,-0.011000000000000001,-0.998,0.133,0.8021411999999999,0.6875496,0.5156622000000001,93.38642442,-1.85065434,-19.54932696
1.04,104,-0.013000000000000001,-1.006,0.13699999999999998,1.0313244000000001,0.8021411999999999,0.6302538000000001,93.39788358,-1.8621134999999998,-19.5378678
1.05,105,-0.013999999999999999,-1.0090000000000001,0.139,0.8021411999999999,0.8021411999999999,0.7448454000000001,93.54685266,-1.77044022,-19.58943402
1.06,106,-0.015,-1.0090000000000001,0.14,0.3437748,0.7448454000000001,0.6875496,93.55258224,-1.78189938,-19.58370444
1.07,107,-0.013999999999999999,-1.0070000000000001,0.14,-0.11459160000000004,0.8594370000000001,0.572958,93.55258224,-1.78762896,-19.57797486
1.08,108,-0.011000000000000001,-1.005,0.135,-0.6302538000000001,0.572958,0.4583664000000001,93.54112308,-1.7933585399999998,-19.57224528
1.09,109,-0.006999999999999999,-1.004,0.131,-1.0313244000000001,0.057295800000000015,0.4583664000000001,93.53539350000001,-1.79908812,-19.57224528
1.1,110,-0.003,-1.001,0.13,-0.9740286,-0.286479,0.4583664000000001,93.66717384,-1.6329303,-19.66964814
1.11,111,-0.001,-0.998,0.128,-0.4583664000000001,-0.4583664000000001,0.5156622000000001,93.66144426,-1.6386598799999998,-19.67537772
1.12,112,-0.001,-0.996,0.129,-0.1718874,-0.2291832000000001,0.6302538000000001,93.66144426,-1.64438946,-19.67537772
1.1300000000000001,113,-0.001,-0.995,0.129,-0.057295800000000015,-0.2291832000000001,0.7448454000000001,93.66144426,-1.65011904,-19.6811073
1.1400000000000001,114,-0.003,-0.9940000000000001,0.131,0.0,-0.2291832000000001,0.6875496,93.66144426,-1.6558486199999998,-19.6811073
1.1500000000000001,115,-0.009000000000000001,-0.998,0.131,-0.2291832000000001,-0.4583664000000001,0.6302538000000001,93.79895417999998,-1.5527161800000002,-19.75559184
1.1600000000000001,116,-0.013000000000000001,-1.0,0.132,-0.9740286,-0.7448454000000001,0.4583664000000001,93.79322459999999,-1.55844576,-19.76132142
1.17,117,-0.016,-1.003,0.134,-1.3750992,-1.0313244000000001,0.40107059999999994,93.77603586,-1.56417534,-19.77278058
1.18,118,-0.019,-1.003,0.135,-1.2605076000000002,-0.8594370000000001,0.3437748,93.7645767,-1.56417534,-19.78423974
1.19,119,-0.018000000000000002,-1.001,0.132,-0.9167328000000001,-0.11459160000000004,0.2291832000000001,93.75311754,-1.56990492,-19.78423974
1.2,120,-0.016,-0.998,0.13,-0.6302538000000001,0.572958,0.1718874,93.90208662,-1.4782316400000002,-19.83580596
1.21,121,-0.015,-0.997,0.13,-0.3437748,0.8021411999999999,0.0,93.89635704,-1.4782316400000002,-19.8243468
1.22,122,-0.016,-0.995,0.131,0.057295800000000015,0.8594370000000001,-0.1718874,93.89635704,-1.4782316400000002,-19.81861722
1.23,123,-0.015,-0.997,0.132,0.11459160000000004,0.9167328000000001,-0.2291832000000001,93.89635704,-1.4782316400000002,-19.80715806
1.24,124,-0.011000000000000001,-0.9990000000000001,0.132,-0.572958,1.0313244000000001,-0.11459160000000004,93.89062746,-1.4782316400000002,-19.7956989
1.25,125,-0.006,-1.0,0.129,-1.0886202,0.9740286,0.057295800000000015,93.965112,-1.39801752,-19.83007638
1.26,126,-0.005,-1.005,0.12300000000000001,-1.0313244000000001,1.0886202,0.286479,93.95365284,-1.4037471000000001,-19.81861722
1.27,127,-0.004,-1.003,0.11800000000000001,-0.5156622000000001,1.7188740000000002,0.40107059999999994,93.94219368,-1.40947668,-19.80142848
1.28,128,-0.005,-1.0,0.11699999999999999,0.286479,2.2345362,0.3437748,93.94792326,-1.41520626,-19.77851016
1.29,129,-0.005,-0.9990000000000001,0.11699999999999999,0.9167328000000001,2.6356068,0.11459160000000004,93.95365284,-1.4209358399999998,-19.75559184
1.3,130,-0.006,-0.996,0.11699999999999999,1.0313244000000001,2.4064236,-0.057295800000000015,94.01094864,-1.36936962,-19.75559184
1.31,131,-0.008,-0.995,0.11900000000000001,0.8594370000000001,2.0053530000000004,-0.40107059999999994,94.01667822,-1.36936962,-19.738403100000006
1.32,132,-0.011000000000000001,-0.9940000000000001,0.12,0.8021411999999999,1.8334656000000005,-0.6875496,94.02813738,-1.36364004,-19.71548478
1.33,133,-0.013000000000000001,-0.991,0.125,1.3178034,1.9480572,-0.8594370000000001,94.03959654,-1.3579104599999998,-19.69829604
1.34,134,-0.013000000000000001,-0.993,0.126,1.8907614,2.2345362,-1.0313244000000001,94.05678528,-1.3464512999999998,-19.67537772
1.35,135,-0.011000000000000001,-0.9940000000000001,0.128,2.1199446,2.5783110000000002,-1.0886202,94.11408108,-1.31207382,-19.66391856
1.36,136,-0.008,-0.995,0.133,2.0053530000000004,2.6356068,-1.0886202,94.1369994,-1.30634424,-19.63527066
1.37,137,-0.005,-0.996,0.133,1.7761698000000001,2.8074942000000003,-1.0313244000000001,94.15418814,-1.29488508,-19.60662276
1.3800000000000001,138,-0.001,-0.997,0.13,1.6042823999999998,2.8074942000000003,-0.9167328000000001,94.1656473,-1.2891555,-19.57797486
1.3900000000000001,139,0.002,-1.0,0.128,1.4896908000000002,2.86479,-0.7448454000000001,94.18283604,-1.28342592,-19.54932696
1.4000000000000001,140,0.005,-0.9990000000000001,0.126,1.6042823999999998,2.4064236,-0.4583664000000001,94.24013184,-1.22040054,-19.55505654
1.4100000000000001,141,0.003,-1.0,0.125,1.6615782,1.6042823999999998,-0.2291832000000001,94.25732058,-1.22040054,-19.5378678
1.42,142,0.0,-1.001,0.125,1.8907614,0.8594370000000001,-0.2291832000000001,94.27450932,-1.21467096,-19.53213822
1.43,143,-0.005,-1.005,0.126,1.8334656000000005,0.0,-0.40107059999999994,94.29169806,-1.20894138,-19.53213822
1.44,144,-0.006999999999999999,-1.0070000000000001,0.124,1.5469866,-0.4583664000000001,-0.5156622000000001,94.3088868,-1.2032117999999998,-19.53213822
1.45,145,-0.011000000000000001,-1.008,0.121,1.3178034,-0.6302538000000001,-0.6875496,94.3661826,-1.1573751600000002,-19.56078612
1.46,146,-0.011000000000000001,-1.0070000000000001,0.121,1.2032118,-0.5156622000000001,-0.8021411999999999,94.37764176,-1.15164558,-19.5665157
1.47,147,-0.012,-1.005,0.125,1.145916,0.0,-0.7448454000000001,94.3948305,-1.14018642,-19.5665157
1.48,148,-0.011000000000000001,-1.006,0.126,1.0313244000000001,0.286479,-0.6875496,94.40056008,-1.13445684,-19.56078612
1.49,149,-0.012,-1.006,0.124,0.7448454000000001,0.5156622000000001,-0.5156622000000001,94.41201924,-1.12872726,-19.55505654
1.5,150,-0.011000000000000001,-1.004,0.125,0.6302538000000001,0.4583664000000001,-0.40107059999999994,94.49223336,-1.07143146,-19.57797486
1.51,151,-0.013999999999999999,-1.002,0.122,0.6875496,0.40107059999999994,-0.3437748,94.50369252,-1.06570188,-19.57797486
1.52,152,-0.016,-0.996,0.12300000000000001,0.7448454000000001,0.3437748,-0.2291832000000001,94.5094221,-1.06570188,-19.57224528
1.53,153,-0.015,-0.99,0.126,0.7448454000000001,0.40107059999999994,-0.2291832000000001,94.51515168,-1.06570188,-19.5665157
1.54,154,-0.013000000000000001,-0.988,0.128,0.6302538000000001,0.572958,-0.2291832000000001,94.52088126,-1.0599723,-19.56078612
1.55,155,-0.011000000000000001,-0.991,0.131,0.5156622000000001,0.5156622000000001,-0.40107059999999994,94.63547286,-0.9969469199999998,-19.58943402
1.56,156,-0.01,-0.996,0.132,0.4583664000000001,0.40107059999999994,-0.4583664000000001,94.63547286,-0.9912173399999998,-19.58370444
1.57,157,-0.009000000000000001,-1.001,0.125,0.3437748,0.5156622000000001,-0.5156622000000001,94.64120244,-0.9912173399999998,-19.57797486
1.58,158,-0.011000000000000001,-1.001,0.125,0.4583664000000001,0.3437748,-0.5156622000000001,94.64693201999998,-0.98548776,-19.57224528
1.59,159,-0.013999999999999999,-1.001,0.127,0.572958,0.1718874,-0.3437748,94.65266159999999,-0.97975818,-19.57224528
1.6,160,-0.015,-0.998,0.13,0.4583664000000001,0.286479,-0.2291832000000001,94.78444194,-0.92819196,-19.595163600000006
1.61,161,-0.016,-0.997,0.134,0.572958,0.4583664000000001,0.0,94.79017152,-0.92819196,-19.595163600000006
1.62,162,-0.016,-0.997,0.138,0.4583664000000001,0.5156622000000001,0.057295800000000015,94.7959011,-0.92819196,-19.58943402
1.6300000000000001,163,-0.016,-0.998,0.135,0.3437748,0.572958,-0.057295800000000015,94.7959011,-0.92819196,-19.58370444
1.6400000000000001,164,-0.013000000000000001,-0.997,0.135,0.286479,0.286479,-0.2291832000000001,94.80163068,-0.92819196,-19.57797486
1.6500000000000001,165,-0.012,-0.997,0.135,0.286479,-0.057295800000000015,-0.3437748,94.96205892,-0.8594370000000001,-19.61808192
1.6600000000000001,166,-0.011000000000000001,-0.995,0.135,0.3437748,-0.4583664000000001,-0.40107059999999994,94.96205892,-0.8537074199999999,-19.6238115
1.6700000000000002,167,-0.011000000000000001,-0.993,0.13699999999999998,0.572958,-0.572958,-0.286479,94.9677885,-0.8479778399999999,-19.629541080000006
1.68,168,-0.01,-0.992,0.139,0.8594370000000001,-0.6302538000000001,-0.11459160000000004,94.97924766,-0.8479778399999999,-19.63527066
1.69,169,-0.01,-0.9940000000000001,0.14300000000000002,1.0886202,-0.7448454000000001,0.11459160000000004,94.99070682,-0.8479778399999999,-19.64100024
1.7,170,-0.01,-0.998,0.14800000000000002,1.145916,-0.7448454000000001,0.1718874,95.09383926,-0.8193299399999999,-19.66391856
1.71,171,-0.01,-1.002,0.14300000000000002,0.9167328000000001,-0.572958,0.1718874,95.10529842,-0.8193299399999999,-19.66964814
1.72,172,-0.012,-1.002,0.136,0.8021411999999999,-0.572958,0.11459160000000004,95.11675757999998,-0.8193299399999999,-19.67537772
1.73,173,-0.012,-1.0,0.133,1.0313244000000001,-0.6302538000000001,0.0,95.12248716,-0.8193299399999999,-19.6811073
1.74,174,-0.015,-1.001,0.135,0.9167328000000001,-0.8594370000000001,0.0,95.13394632,-0.8193299399999999,-19.69256646
1.75,175,-0.015,-1.001,0.14,0.9167328000000001,-1.3178034,-0.057295800000000015,95.20270128,-0.8078707799999998,-19.7097552
1.76,176,-0.016,-1.006,0.142,0.8021411999999999,-1.2605076000000002,0.0,95.21416044,-0.8078707799999998,-19.72694394
1.77,177,-0.017,-1.006,0.141,0.572958,-0.572958,0.11459160000000004,95.21989002,-0.8078707799999998,-19.73267352
1.78,178,-0.013999999999999999,-1.005,0.139,0.3437748,-0.11459160000000004,0.057295800000000015,95.2256196,-0.8078707799999998,-19.73267352
1.79,179,-0.015,-1.008,0.14,-0.057295800000000015,0.0,0.11459160000000004,95.21989002,-0.8078707799999998,-19.73267352
1.8,180,-0.016,-1.008,0.13699999999999998,-0.057295800000000015,-0.2291832000000001,0.11459160000000004,95.47199154,-0.76776372,-19.76132142
1.81,181,-0.013999999999999999,-1.005,0.13699999999999998,0.057295800000000015,-0.3437748,0.286479,95.47772112,-0.7734933,-19.767051
1.82,182,-0.013000000000000001,-1.005,0.138,-0.11459160000000004,-0.572958,0.4583664000000001,95.47199154,-0.7734933,-19.77278058
1.83,183,-0.012,-1.001,0.13699999999999998,-0.572958,-0.8594370000000001,0.572958,95.46626196,-0.7792228800000001,-19.78423974
1.84,184,-0.011000000000000001,-1.0,0.133,-0.6875496,-0.9740286,0.6875496,95.46053238,-0.7849524600000001,-19.7956989
1.85,185,-0.008,-0.9990000000000001,0.13,-0.4583664000000001,-0.8021411999999999,0.6875496,95.48918028,-0.76203414,-19.81861722
1.86,186,-0.009000000000000001,-1.001,0.129,-0.286479,-0.7448454000000001,0.5156622000000001,95.48918028,-0.76776372,-19.8243468
1.87,187,-0.01,-1.002,0.126,-0.286479,-0.4583664000000001,0.1718874,95.4834507,-0.76776372,-19.83007638
1.8800000000000001,188,-0.011000000000000001,-1.001,0.122,-0.11459160000000004,-0.5156622000000001,0.057295800000000015,95.4834507,-0.76776372,-19.83580596
1.8900000000000001,189,-0.013000000000000001,-1.001,0.12,-0.11459160000000004,-0.6302538000000001,0.0,95.4834507,-0.76776372,-19.84153554
1.9000000000000001,190,-0.015,-1.004,0.11900000000000001,-0.40107059999999994,-0.9167328000000001,0.0,95.47772112,-0.75630456,-19.8529947
1.9100000000000001,191,-0.016,-1.01,0.121,-0.8594370000000001,-1.0886202,0.0,95.47199154,-0.75630456,-19.86445386
1.9200000000000002,192,-0.018000000000000002,-1.015,0.12300000000000001,-1.0886202,-1.2605076000000002,0.1718874,95.46053238,-0.75630456,-19.87591302
1.93,193,-0.018000000000000002,-1.016,0.122,-1.0886202,-1.0886202,0.1718874,95.44907322,-0.75630456,-19.88737218
1.94,194,-0.017,-1.011,0.12,-0.9740286,-0.572958,0.3437748,95.43761406,-0.76203414,-19.89310176
1.95,195,-0.015,-1.003,0.12,-0.5156622000000001,0.0,0.4583664000000001,95.44334364,-0.7448454000000001,-19.90456092
1.96,196,-0.011000000000000001,-1.0,0.121,-0.4583664000000001,0.40107059999999994,0.5156622000000001,95.43761406,-0.75057498,-19.90456092
1.97,197,-0.009000000000000001,-0.998,0.12,-0.8594370000000001,0.3437748,0.572958,95.42615490000001,-0.76203414,-19.89883134
1.98,198,-0.01,-1.002,0.11199999999999999,-1.3750992,0.0,0.6875496,95.41469573999998,-0.76776372,-19.89883134
1.99,199,-0.009000000000000001,-1.0070000000000001,0.109,-1.432395,0.0,0.572958,95.397507,-0.7734933,-19.89883134
2.0,200,-0.008,-1.0170000000000001,0.10800000000000001,-1.6042823999999998,0.11459160000000004,0.6302538000000001,95.3688591,-0.75630456,-19.9102905
2.01,201,-0.006,-1.023,0.10800000000000001,-1.6615782,0.11459160000000004,0.8594370000000001,95.35167036,-0.76776372,-19.9102905
2.02,202,-0.006999999999999999,-1.022,0.107,-1.8907614,0.11459160000000004,1.0886202,95.33448162,-0.7792228800000001,-19.9102905
2.03,203,-0.006,-1.014,0.10800000000000001,-2.1199446,0.2291832000000001,1.2032118,95.31156330000002,-0.7906820400000001,-19.9102905
2.04,204,-0.005,-1.0090000000000001,0.105,-2.5210152000000003,0.11459160000000004,1.2032118,95.28291540000001,-0.8021412000000001,-19.9102905
2.05,205,-0.005,-1.005,0.10400000000000001,-2.86479,0.0,1.0886202,95.24280834,-0.79641162,-19.91602008
2.0599999999999996,206,-0.004,-1.003,0.098,-3.4950437999999995,-0.5156622000000001,1.0313244000000001,95.20843086,-0.8078707799999998,-19.92174966
2.07,207,-0.001,-1.006,0.09699999999999999,-3.8961144,-1.0886202,1.145916,95.1683238,-0.8193299399999999,-19.93320882
2.0799999999999996,208,0.0,-1.01,0.09300000000000001,-4.5263682,-1.7188740000000002,1.3178034,95.12248716,-0.8307891,-19.95612714
2.09,209,0.001,-1.016,0.08900000000000001,-4.9274388,-2.4637194,1.5469866,95.07665052000002,-0.8422482600000001,-19.97904546
2.0999999999999996,210,0.003,-1.0170000000000001,0.09,-5.1566220000000005,-2.9220858,1.7761698000000001,95.01362514,-0.8479778399999999,-20.01342294
2.11,211,0.002,-1.016,0.084,-5.3285094000000015,-3.4377480000000005,1.9480572,94.96205892,-0.86516658,-20.05353
2.1199999999999997,212,-0.002,-1.012,0.087,-6.130650599999999,-3.9534102,1.9480572,94.89903354,-0.87662574,-20.09363706
2.13,213,-0.005,-1.011,0.08900000000000001,-6.990087599999999,-3.7242269999999995,1.6615782,94.83027858,-0.89381448,-20.13374412
2.1399999999999997,214,-0.009000000000000001,-1.013,0.08900000000000001,-7.906820400000001,-3.2658606,1.3750992,94.75006446,-0.90527364,-20.168121600000006
2.15,215,-0.01,-1.016,0.083,-8.880849000000003,-2.7501984,1.2032118,94.65266159999999,-0.91100322,-20.196769500000002
2.1599999999999997,216,-0.011000000000000001,-1.025,0.077,-9.7975818,-2.4637194,1.2032118,94.55525874,-0.9167328,-20.2254174
2.17,217,-0.012,-1.031,0.07,-10.7716104,-2.2345362,1.2605076000000002,94.44639672,-0.92819196,-20.24833572
2.1799999999999997,218,-0.012,-1.034,0.065,-11.6310474,-2.1199446,1.3750992,94.32607554,-0.93965112,-20.27125404
2.19,219,-0.013999999999999999,-1.033,0.055999999999999994,-12.6623718,-2.1199446,1.6615782,94.20002478,-0.95683986,-20.29990194
2.1999999999999997,220,-0.016,-1.034,0.048,-14.5531332,-2.5210152000000003,2.0626488000000003,94.03959654,-0.9740286,-20.32854984
2.21,221,-0.017,-1.036,0.040999999999999995,-16.7876694,-2.86479,2.2345362,93.87343872,-0.9969469199999998,-20.35719774
2.2199999999999998,222,-0.019,-1.041,0.034,-19.0222056,-3.0366774,2.3491277999999998,93.67863300000002,-1.01986524,-20.39157522
2.23,223,-0.019,-1.047,0.025,-21.2567418,-2.5210152000000003,2.291832,93.46090896,-1.04278356,-20.42022312
2.2399999999999998,224,-0.02,-1.055,0.021,-23.319390600000002,-2.1772404,2.291832,93.22599618,-1.06570188,-20.44887102
2.25,225,-0.02,-1.064,0.013999999999999999,-25.78311,-2.0053530000000004,2.3491277999999998,92.95670592,-1.0886202,-20.47178934
2.26,226,-0.021,-1.07,0.013000000000000001,-29.507337,-2.2345362,2.4064236,92.65876776,-1.11153852,-20.50043724
2.27,227,-0.026000000000000002,-1.067,0.013999999999999999,-33.116972399999995,-2.6356068,2.4064236,92.32072254,-1.13445684,-20.52908514
2.28,228,-0.028999999999999998,-1.06,0.008,-36.6120162,-2.3491277999999998,2.4637194,91.95402942,-1.16310474,-20.55773304
2.29,229,-0.028999999999999998,-1.048,-0.006,-38.159002799999996,-0.9740286,2.6929026,91.56441798,-1.19175264,-20.57492178
2.3,230,-0.027000000000000003,-1.04,-0.015,-38.90384820000001,0.0,2.9220858,91.16334738,-1.22613012,-20.58065136
2.31,231,-0.025,-1.034,-0.009000000000000001,-40.2216516,-0.4583664000000001,3.0939732,90.7565472,-1.2605076000000002,-20.59211052
2.32,232,-0.026000000000000002,-1.0290000000000001,-0.009000000000000001,-42.62807520000001,-2.4064236,2.9793816000000004,90.32682870000001,-1.2891555,-20.62075842
2.3299999999999996,233,-0.027000000000000003,-1.025,-0.01,-45.4928652,-4.1825934,2.6356068,89.86273272,-1.3178034,-20.66659506
2.34,234,-0.028999999999999998,-1.026,-0.015,-47.9565846,-5.6149884000000005,2.291832,89.38144799999998,-1.3464512999999998,-20.72962044
2.3499999999999996,235,-0.028999999999999998,-1.0390000000000001,-0.009000000000000001,-50.0765292,-6.7609043999999985,1.7188740000000002,88.87151537999998,-1.36364004,-20.798375399999998
2.36,236,-0.03,-1.043,-0.006999999999999999,-53.22779820000001,-8.193299399999999,1.0886202,88.33293486,-1.38082878,-20.89004868
2.3699999999999997,237,-0.027999999999999997,-1.042,-0.02,-55.7488134,-9.0527364,0.40107059999999994,87.77143602000002,-1.39228794,-20.98172196
2.38,238,-0.027000000000000003,-1.0390000000000001,-0.044000000000000004,-58.2698286,-8.9381448,-0.4583664000000001,87.18701886,-1.39228794,-21.07912482
2.3899999999999997,239,-0.025,-1.023,-0.059000000000000004,-60.50436480000001,-8.3651868,-1.3178034,86.5739538,-1.38655836,-21.170798100000006
2.4,240,-0.023,-0.99,-0.07,-61.87946400000001,-8.021412000000002,-1.8907614,85.94942957999999,-1.3750992,-21.2567418
2.4099999999999997,241,-0.025,-0.9620000000000001,-0.075,-63.25456320000001,-8.193299399999999,-2.0053530000000004,85.30771662,-1.36364004,-21.34841508
2.42,242,-0.031,-0.9440000000000001,-0.071,-66.23394479999999,-7.5630456000000015,-2.0053530000000004,84.63735576,-1.35218088,-21.4286292
2.4299999999999997,243,-0.039,-0.915,-0.081,-71.1040878,-5.443101,-1.7188740000000002,83.92115826,-1.3464512999999998,-21.49165458
2.44,244,-0.035,-0.8759999999999999,-0.10099999999999999,-76.20341400000002,-2.4637194,-1.145916,83.14766496,-1.3464512999999998,-21.52603206
2.4499999999999997,245,-0.024,-0.841,-0.102,-77.9795838,-1.7761698000000001,-0.6875496,82.35698292000002,-1.3464512999999998,-21.55467996
2.46,246,-0.004,-0.8079999999999999,-0.09300000000000001,-80.1568242,-2.0626488000000003,-0.057295800000000015,81.54338256,-1.3579104599999998,-21.58332786
2.4699999999999998,247,0.001,-0.7709999999999999,-0.098,-83.36538900000002,-2.7501984,0.9167328000000001,80.69540472,-1.3750992,-21.61770534
2.48,248,0.009000000000000001,-0.7340000000000001,-0.10099999999999999,-85.37074199999998,-4.1252976000000015,1.7761698000000001,79.83023813999998,-1.40947668,-21.66354198
2.4899999999999998,249,0.015,-0.706,-0.092,-86.7458412,-6.9327918,2.1772404,78.95361240000003,-1.44958374,-21.73229694
2.5,250,0.016,-0.684,-0.087,-88.23553199999998,-9.682990199999999,2.291832,78.0655275,-1.49542038,-21.83542938
2.51,251,0.005,-0.6679999999999999,-0.075,-90.1835892,-11.802934800000001,1.9480572,77.15452428,-1.5469866,-21.95575056
2.52,252,-0.027999999999999997,-0.647,-0.059000000000000004,-93.67863299999999,-12.5477802,-0.40107059999999994,76.20914358,-1.5756344999999998,-22.08180132
2.53,253,-0.028999999999999998,-0.647,-0.067,-96.3142398,-11.0007936,-3.4950437999999995,75.23511498,-1.5813640800000002,-22.20785208
2.54,254,-0.027999999999999997,-0.647,-0.071,-98.2050012,-9.5111028,-5.72958,74.24389764,-1.55844576,-22.32244368
2.55,255,-0.034,-0.657,-0.106,-99.5228046,-6.8182002000000015,-7.734933000000002,73.24122114,-1.51260912,-22.41984654
2.56,256,-0.039,-0.6709999999999999,-0.12300000000000001,-100.7260164,-3.1512689999999997,-8.880849000000003,72.21562631999998,-1.44385416,-22.48287192
2.57,257,-0.043,-0.6940000000000001,-0.14400000000000002,-102.21570720000001,0.9740286,-9.5111028,71.17857234,-1.36364004,-22.51151982
2.5799999999999996,258,-0.052000000000000005,-0.7340000000000001,-0.18899999999999997,-103.4762148,3.8961144,-9.6256944,70.1300592,-1.27196676,-22.517249399999997
2.59,259,-0.055999999999999994,-0.7879999999999999,-0.207,-104.1637644,7.161975,-9.396511199999999,69.0700869,-1.1745639,-22.4886015
2.5999999999999996,260,-0.06,-0.8440000000000001,-0.218,-104.22106020000001,10.2559482,-8.4224826,68.01584418,-1.07716104,-22.43130570000001
2.61,261,-0.055999999999999994,-0.894,-0.21899999999999997,-104.5075392,12.3758928,-7.2765666,66.95014230000001,-0.97975818,-22.35109158
2.6199999999999997,262,-0.051,-0.922,-0.22699999999999998,-104.7367224,13.521808800000002,-6.3025379999999975,65.88444042,-0.8823553199999999,-22.259418300000004
2.63,263,-0.040999999999999995,-0.9309999999999999,-0.209,-102.6167778,13.521808800000002,-5.1566220000000005,64.84165686,-0.79641162,-22.16774502
2.6399999999999997,264,-0.028999999999999998,-0.9179999999999999,-0.196,-99.7519878,12.9488508,-3.6669312000000014,63.82179162,-0.72192708,-22.07034216
2.65,265,-0.023,-0.887,-0.23600000000000002,-95.34021120000001,11.6310474,-1.9480572,62.85922218,-0.6703608600000001,-21.98439846
2.6599999999999997,266,-0.016,-0.862,-0.299,-91.21491359999999,11.3445684,-1.3178034,61.93103021999999,-0.61879464,-21.89272518000001
2.67,267,-0.015,-0.845,-0.34299999999999997,-88.69389840000002,12.0894138,-2.1199446,61.03148616,-0.55576926,-21.801051899999997
2.6799999999999997,268,-0.021,-0.852,-0.38,-86.5739538,12.3758928,-3.2658606,60.14913084,-0.48128472,-21.7151082
2.69,269,-0.016,-0.868,-0.408,-86.45936219999999,10.084060800000001,-3.4950437999999995,59.26677552,-0.41825934,-21.65208282
2.6999999999999997,270,0.006,-0.884,-0.41200000000000003,-86.80313699999998,9.0527364,-3.2085647999999996,58.39014978,-0.35523396,-21.59478702
2.71,271,0.027999999999999997,-0.905,-0.434,-87.0323202,8.021412000000002,-2.5783110000000002,57.50779446,-0.30366774,-21.5432208
2.7199999999999998,272,0.038,-0.9229999999999999,-0.455,-85.48533359999998,5.3285094000000015,-2.1199446,56.6368983,-0.26929026,-21.5145729
2.73,273,0.053,-0.9390000000000001,-0.445,-80.04223259999998,5.3858052,-2.291832,55.82329794,-0.22918320000000006,-21.485925
2.7399999999999998,274,0.05,-0.9640000000000001,-0.505,-76.4325972,6.990087599999999,-3.2085647999999996,55.04980464000001,-0.17761697999999998,-21.45154752
2.75,275,0.045,-0.971,-0.514,-74.59913159999998,8.651665800000002,-4.4117766,54.29350008,-0.09740286,-21.40571088
2.76,276,0.039,-0.975,-0.521,-73.052145,9.3392154,-5.72958,53.55438425999999,-0.01145916,-21.371333399999997
2.77,277,0.028999999999999998,-0.986,-0.573,-71.44786260000002,10.5424272,-6.875496000000001,52.82672760000001,0.09167328,-21.32549676
2.78,278,0.013000000000000001,-1.001,-0.584,-70.30194660000001,9.6256944,-7.906820400000001,52.11053010000001,0.20053530000000008,-21.30257844
2.79,279,0.003,-1.011,-0.608,-69.041439,8.651665800000002,-8.250595200000001,51.41152134,0.30366774,-21.2853897
2.8,280,-0.001,-1.022,-0.657,-67.26526919999999,8.021412000000002,-7.5057497999999985,50.72970132,0.4010706000000001,-21.27393054
2.81,281,0.006999999999999999,-1.023,-0.65,-63.712929599999995,7.2765666,-6.3025379999999975,50.08225878,0.4870143000000001,-21.2567418
2.82,282,0.032,-1.02,-0.6629999999999999,-60.10329419999999,7.2192707999999985,-5.0993262,49.46919372000001,0.56149884,-21.23382348
2.8299999999999996,283,0.057,-1.024,-0.6970000000000001,-58.0406454,8.7662574,-4.297185,48.87904698000001,0.64171296,-21.199446
2.84,284,0.068,-1.04,-0.7290000000000001,-56.3217714,9.453807,-3.6669312000000014,48.30608897999999,0.72192708,-21.15360936
2.8499999999999996,285,0.067,-1.057,-0.7609999999999999,-55.576926,8.078707799999998,-3.2085647999999996,47.74459014,0.7906820400000001,-21.1135023
2.86,286,0.057999999999999996,-1.067,-0.775,-54.4883058,6.4744254,-3.1512689999999997,47.19455046,0.8479778399999999,-21.09058398
2.8699999999999997,287,0.048,-1.067,-0.77,-52.5975444,3.8961144,-2.9793816000000004,46.65596994000001,0.8880849000000001,-21.0848544
2.88,288,0.042,-1.055,-0.77,-49.7327544,1.8334656000000005,-2.4064236,46.1517669,0.91100322,-21.0848544
2.8899999999999997,289,0.038,-1.043,-0.779,-46.7533728,0.6302538000000001,-1.2605076000000002,45.67621176,0.92246238,-21.09058398
2.9,290,0.04,-1.023,-0.778,-44.117765999999996,0.2291832000000001,-0.1718874,45.23503409999999,0.9167328,-21.09631356
2.9099999999999997,291,0.052000000000000005,-1.011,-0.7659999999999999,-42.62807520000001,1.2032118,0.5156622000000001,44.8053156,0.9167328,-21.07912482
2.92,292,0.051,-0.998,-0.777,-41.4821592,3.380452200000001,0.8021411999999999,44.38132668,0.92819196,-21.05047692
2.9299999999999997,293,0.047,-0.988,-0.799,-40.04976420000001,4.2398892,0.11459160000000004,43.9745265,0.95111028,-21.02182902
2.94,294,0.040999999999999995,-0.981,-0.8,-37.872523799999996,3.9534102,-0.9740286,43.59064464,0.97975818,-21.00464028
2.9499999999999997,295,0.023,-0.977,-0.773,-35.2942128,2.6356068,-1.7761698000000001,43.24114026,1.00840608,-20.9989107
2.96,296,0.008,-0.961,-0.7659999999999999,-33.1742682,2.1772404,-1.9480572,42.90309504,1.0313244000000001,-20.9989107
2.9699999999999998,297,0.0,-0.9359999999999999,-0.75,-31.913760600000003,1.7761698000000001,-1.3750992,42.58223856,1.04851314,-20.99318112
2.98,298,-0.006,-0.907,-0.7390000000000001,-30.194886600000004,2.1772404,-0.3437748,42.27284124000001,1.06570188,-20.98172196
2.9899999999999998,299,0.003,-0.878,-0.745,-28.418716800000002,3.7242269999999995,0.6875496,41.98636224,1.08289062,-20.95307406
3.0,300,0.015,-0.858,-0.7340000000000001,-27.272800800000002,4.8701430000000006,1.432395,41.72280156,1.10580894,-20.90723742
3.01,301,0.034,-0.84,-0.746,-27.1582092,6.0733548,1.7761698000000001,41.44778172,1.13445684,-20.8556712
3.02,302,0.04,-0.8340000000000001,-0.736,-25.8977016,5.958763200000001,1.7188740000000002,41.18422104,1.1573751600000002,-20.80410498
3.03,303,0.042,-0.846,-0.723,-24.2934192,5.2712136,2.1772404,40.9378491,1.18029348,-20.75253876
3.04,304,0.045,-0.85,-0.721,-22.91832,4.7555514,2.8074942000000003,40.70293632,1.19175264,-20.69524296
3.05,305,0.040999999999999995,-0.848,-0.711,-21.485925,4.6409598,3.0939732,40.5081306,1.20894138,-20.64367674
3.06,306,0.038,-0.835,-0.6990000000000001,-20.2827132,4.8128472,3.0366774,40.30186572,1.22040054,-20.59211052
3.07,307,0.032,-0.8079999999999999,-0.677,-18.9649098,4.9274388,3.0939732,40.11278958000001,1.23758928,-20.53481472
3.08,308,0.024,-0.79,-0.68,-16.558486199999994,5.958763200000001,2.7501984,39.94663176,1.2605076000000002,-20.47178934
3.09,309,0.022000000000000002,-0.778,-0.6940000000000001,-15.527161800000002,7.0473834,2.8074942000000003,39.78620352,1.2891555,-20.40303438
3.0999999999999996,310,0.023,-0.7709999999999999,-0.685,-14.32395,7.6776372,2.9220858,39.67161192,1.32926256,-20.33427942
3.11,311,0.025,-0.767,-0.669,-13.3499214,8.021412000000002,3.0366774,39.534102,1.36364004,-20.25979488
3.1199999999999997,312,0.027000000000000003,-0.769,-0.677,-12.7196676,8.8235532,3.3231564,39.408051240000006,1.40947668,-20.17385118
3.13,313,0.027000000000000003,-0.768,-0.664,-12.0894138,8.59437,3.8388186,39.28773006,1.44958374,-20.08790748
3.1399999999999997,314,0.03,-0.765,-0.645,-10.886202,8.307891,4.297185,39.17886804,1.4782316400000002,-20.00196378
3.15,315,0.039,-0.765,-0.648,-10.1413566,8.651665800000002,4.8701430000000006,39.11011308,1.5183387000000002,-19.9102905
3.1599999999999997,316,0.045,-0.7659999999999999,-0.659,-8.651665800000002,8.59437,5.2712136,39.02416938,1.5469866,-19.812887640000003
3.17,317,0.047,-0.769,-0.649,-7.5057497999999985,8.9381448,5.5576926,38.94968484,1.5813640800000002,-19.71548478
3.1799999999999997,318,0.045,-0.7659999999999999,-0.634,-7.0473834,8.3651868,5.9014674000000005,38.88092988,1.6042824000000002,-19.61235234
3.19,319,0.037000000000000005,-0.7609999999999999,-0.644,-6.4744254,8.193299399999999,6.3598338,38.8179045,1.6272007199999998,-19.5092199
3.1999999999999997,320,0.033,-0.7559999999999999,-0.6409999999999999,-5.3285094000000015,8.193299399999999,6.3598338,38.81217492,1.65011904,-19.41181704
3.21,321,0.031,-0.754,-0.626,-4.2398892,8.5370742,6.3025379999999975,38.77206786000001,1.67303736,-19.30295502
3.2199999999999998,322,0.039,-0.7509999999999999,-0.611,-3.1512689999999997,8.3651868,6.6463128000000005,38.74341996,1.6959556799999995,-19.19982258
3.23,323,0.040999999999999995,-0.745,-0.61,-2.1772404,8.4224826,7.161975,38.72050164,1.71314442,-19.09096056
3.2399999999999998,324,0.042,-0.741,-0.584,-0.7448454000000001,8.5370742,7.3911582,38.71477206,1.73033316,-18.97636896
3.25,325,0.040999999999999995,-0.736,-0.569,0.6875496,8.307891,7.5630456000000015,38.78352702,1.75325148,-18.86750694
3.26,326,0.043,-0.7290000000000001,-0.5710000000000001,1.6042823999999998,8.5370742,7.9641161999999985,38.80644534,1.76471064,-18.75291534
3.27,327,0.046,-0.723,-0.574,2.5783110000000002,9.0527364,8.136003599999999,38.83509324,1.78189938,-18.63259416
3.28,328,0.042,-0.715,-0.565,3.0366774,8.7089616,8.250595200000001,38.86947072,1.79908812,-18.51227298
3.29,329,0.035,-0.711,-0.56,3.4950437999999995,8.5370742,8.3651868,38.9038482,1.81054728,-18.3919518
3.3,330,0.027000000000000003,-0.706,-0.546,4.0680017999999984,8.9381448,8.3651868,38.9897919,1.82773602,-18.26590104
3.31,331,0.017,-0.705,-0.524,4.5263682,9.1100322,8.3651868,39.04135812,1.84492476,-18.14557986
3.32,332,0.013999999999999999,-0.698,-0.521,5.443101,10.3705398,8.7089616,39.09865392,1.86784308,-18.00806994
3.33,333,0.008,-0.687,-0.519,6.3598338,11.0580894,9.167328,39.16740888,1.8907614,-17.86483044
3.34,334,0.006,-0.677,-0.513,7.2192707999999985,11.8602306,9.453807,39.247623,1.92513888,-17.715861359999995
3.3499999999999996,335,0.0,-0.6659999999999999,-0.495,7.734933000000002,12.834259199999998,9.682990199999999,39.35648502,1.95378678,-17.561162699999993
3.36,336,0.003,-0.655,-0.498,7.7922288,14.7250206,9.6256944,39.43669914,2.005353,-17.3892753
3.3699999999999997,337,0.011000000000000001,-0.64,-0.47,8.3651868,16.4438946,9.5111028,39.52837242,2.06837838,-17.21165832
3.38,338,0.017,-0.631,-0.44799999999999995,8.7089616,18.334656,9.453807,39.62004570000001,2.14286292,-17.0168526
3.3899999999999997,339,0.018000000000000002,-0.62,-0.49,8.8235532,19.595163600000006,9.2819196,39.71744856,2.2345362,-16.8163173
3.4,340,0.026000000000000002,-0.6,-0.49,10.1986524,20.6837838,8.7089616,39.83776974,2.33193906,-16.615782
3.4099999999999997,341,0.028999999999999998,-0.5870000000000001,-0.46299999999999997,11.3445684,21.0848544,8.3651868,39.95809092,2.4350715000000003,-16.4152467
3.42,342,0.032,-0.5710000000000001,-0.46,11.1153852,20.7410796,8.4224826,40.0784121,2.53820394,-16.214711400000002
3.4299999999999997,343,0.04,-0.557,-0.467,11.917526400000002,20.6837838,8.3651868,40.20446286,2.6413363800000003,-16.0141761
3.44,344,0.047,-0.55,-0.45299999999999996,13.178034,20.454600600000006,7.6776372,40.34770236,2.74446882,-15.81937038
3.4499999999999997,345,0.053,-0.551,-0.456,13.980175199999998,21.4286292,6.875496000000001,40.50240102,2.85906042,-15.62456466
3.46,346,0.066,-0.5539999999999999,-0.488,15.126091199999998,23.835052800000003,5.5576926,40.66282926,3.00229992,-15.42402936
3.4699999999999998,347,0.07,-0.557,-0.46799999999999997,16.4438946,24.8663772,3.8961144,40.84044624,3.15699858,-15.22922364
3.48,348,0.055999999999999994,-0.562,-0.428,18.162768600000003,25.210151999999997,1.9480572,41.02952238,3.32888598,-15.04587708
3.4899999999999998,349,0.042,-0.5720000000000001,-0.425,17.9908812,24.8663772,0.7448454000000001,41.21859852,3.5122325400000003,-14.87398968
3.5,350,0.03,-0.586,-0.409,18.907614,24.809081399999997,0.286479,41.43632256,3.68984952,-14.70210228
3.51,351,0.021,-0.612,-0.381,20.3973048,24.809081399999997,0.5156622000000001,41.64831702,3.8674665,-14.53021488
3.52,352,0.016,-0.652,-0.389,22.1161788,24.7517856,1.5469866,41.8832298,4.0393539,-14.34686832
3.53,353,0.015,-0.691,-0.375,24.4080108,24.5798982,2.9793816000000004,42.1410609,4.19978214,-14.15779218
3.54,354,0.009000000000000001,-0.733,-0.358,27.043617600000005,22.9756158,4.1825934,42.4275399,4.33729206,-13.96871604
3.55,355,0.008,-0.77,-0.33899999999999997,29.5646328,20.8556712,5.2712136,42.77131470000001,4.44615408,-13.779639899999998
3.56,356,0.009000000000000001,-0.804,-0.32299999999999995,34.0337052,17.5325148,5.72958,43.13227824,4.53782736,-13.61348208
3.57,357,0.013000000000000001,-0.8340000000000001,-0.31,37.3568616,14.896907999999998,6.130650599999999,43.52188968,4.60658232,-13.464513
3.58,358,0.026000000000000002,-0.8590000000000001,-0.309,39.7059894,14.381245800000002,6.2452422,43.93441944,4.6696076999999985,-13.321273499999998
3.59,359,0.039,-0.882,-0.309,41.9405256,13.750992000000002,6.0160589999999985,44.36986752,4.7269035000000015,-13.178034
3.5999999999999996,360,0.051,-0.904,-0.29600000000000004,44.34694920000001,13.6936962,5.3858052,44.868340980000006,4.78992888,-13.04052408
3.61,361,0.053,-0.924,-0.264,47.498218200000004,13.3499214,4.9847346,45.36108486,4.85295426,-12.903014159999998
3.6199999999999997,362,0.039,-0.9309999999999999,-0.217,50.420303999999994,10.2559482,5.1566220000000005,45.88247663999999,4.88733174,-12.79415214
3.63,363,0.024,-0.927,-0.205,53.1705024,6.875496000000001,5.72958,46.42678674,4.90452048,-12.70247886
3.6399999999999997,364,0.015,-0.9179999999999999,-0.196,58.38442020000001,3.8388186,5.958763200000001,47.02839264,4.893061319999998,-12.62799432
3.65,365,0.031,-0.899,-0.16399999999999998,62.7961968,3.7815228,5.958763200000001,47.71021266,4.88160216,-12.55923936
3.6599999999999997,366,0.048,-0.889,-0.13,66.80690279999999,2.6356068,6.1879464,48.39203268,4.8586838399999985,-12.49621398
3.67,367,0.057999999999999996,-0.879,-0.107,69.8435802,0.572958,6.130650599999999,49.10823018,4.83003594,-12.45037734
3.6799999999999997,368,0.049,-0.867,-0.1,73.3959198,-0.7448454000000001,5.6722842,49.85307558,4.78992888,-12.41599986
3.69,369,0.039,-0.843,-0.106,77.1201468,-1.2605076000000002,4.6982555999999995,50.63802804,4.7555514,-12.39308154
3.6999999999999997,370,0.044000000000000004,-0.8109999999999999,-0.08900000000000001,81.81840240000002,-2.5783110000000002,3.6096353999999997,51.50319462,4.7269035000000015,-12.38735196
3.71,371,0.062,-0.7859999999999999,-0.094,86.0009958,-3.8388186,2.4064236,52.37409078,4.69252602,-12.39881112
3.7199999999999998,372,0.071,-0.7390000000000001,-0.14400000000000002,89.20956059999996,-7.3911582,2.1199446,53.27363484,4.64668938,-12.438918179999998
3.73,373,0.069,-0.677,-0.134,93.105675,-10.7716104,2.6356068,54.21901554,4.57793442,-12.507673139999998
3.7399999999999998,374,0.078,-0.604,-0.124,98.262297,-13.521808800000002,3.5523396000000003,55.21023288,4.48626114,-12.59361684
3.75,375,0.073,-0.551,-0.159,104.39294759999999,-21.600516600000002,4.8128472,56.2644756,4.34875122,-12.74258592
3.76,376,0.08,-0.495,-0.184,104.22106020000001,-28.81978740000001,6.0733548,57.31298874,4.15967508,-12.9488508
3.77,377,0.102,-0.414,-0.136,102.50218620000001,-30.595957199999997,7.161975,58.34431314,3.95913978,-13.16657484
3.78,378,0.09,-0.326,-0.073,101.700045,-31.340802600000004,8.078707799999998,59.36417838,3.74714532,-13.390028460000002
3.79,379,0.081,-0.245,-0.03,96.19964820000001,-29.4500412,7.9641161999999985,60.3324774,3.5523396000000003,-13.60202292
3.8,380,0.11,-0.136,0.005,87.49068659999998,-24.350715,6.9327918,61.21483271999999,3.40337052,-13.779639899999998
3.81,381,0.127,-0.09699999999999999,0.023,81.7611066,-23.319390600000002,4.4117766,62.03989223999999,3.27159018,-13.95725688
3.82,382,0.158,-0.102,-0.015,73.6823988,-21.886995600000002,3.6096353999999997,62.77900806,3.1512689999999997,-14.13487386
3.83,383,0.152,-0.14300000000000002,-0.034,63.6556338,-21.199446,5.844171599999999,63.42072102000001,3.01948866,-14.2953021
3.84,384,0.094,-0.191,-0.08900000000000001,51.68081160000001,-20.2827132,9.453807,63.942112800000004,2.85906042,-14.43281202
3.8499999999999996,385,-0.02,-0.256,-0.08800000000000001,41.883229799999995,-24.1215318,11.802934800000001,64.36610171999999,2.65279554,-14.593240260000002
3.86,386,-0.042,-0.37,-0.063,36.4401288,-31.054323600000004,13.2353298,64.72706526,2.41788276,-14.81669388
3.8699999999999997,387,0.01,-0.552,-0.05,27.272800800000002,-33.0596766,14.1520626,65.0020851,2.16005166,-15.05733624
3.88,388,0.079,-0.72,-0.04,8.9381448,-29.220858000000003,14.266654199999998,65.08802879999999,1.9194093000000003,-15.25787154
3.8899999999999997,389,0.134,-0.909,-0.16699999999999998,-12.834259199999998,-26.0122932,15.4125702,64.95624846,1.67303736,-15.435488519999998
3.9,390,0.19399999999999998,-1.0659999999999998,-0.267,-40.04976420000001,-26.929026,16.501190400000002,64.56090744000001,1.42666542,-15.6131055
3.9099999999999997,391,0.24,-1.1909999999999998,-0.289,-70.6457214,-35.122325399999994,17.475219,63.84470994000001,1.1172681,-15.859477439999996
3.92,392,0.282,-1.261,-0.322,-96.14235240000001,-43.1437374,18.449247600000003,62.87068134,0.76203414,-16.16887476
3.9299999999999997,393,0.33899999999999997,-1.315,-0.32,-119.97740520000002,-45.034498799999994,19.767051000000002,61.65601038,0.37815228,-16.48973124
3.94,394,0.336,-1.285,-0.33,-138.9996108,-40.5081306,19.767051000000002,60.24653370000001,0.0,-16.7590215
3.9499999999999997,395,0.19899999999999998,-1.122,-0.23399999999999999,-152.5214196,-31.913760600000003,16.329303,58.71673584,-0.29793816,-16.96528638
3.96,396,0.063,-0.812,-0.095,-182.54441880000002,-18.9649098,8.4224826,56.86608150000001,-0.4870143000000001,-17.09133714
3.9699999999999998,397,-0.013000000000000001,-0.502,0.0,-219.9585762,-10.4851314,5.2139178,54.63727487999999,-0.61879464,-17.1600921
3.98,398,-0.11699999999999999,-0.153,-0.09,-258.0029874,-1.432395,5.3858052,52.01885682000001,-0.69900876,-17.14863294
3.9899999999999998,399,-0.17300000000000001,0.11599999999999999,-0.046,-286.3644084,6.990087599999999,5.3285094000000015,49.10823018,-0.7391158200000001,-17.0741484
4.0,400,-0.207,0.259,-0.24100000000000002,-311.4599688,21.485925,3.2658606,45.93404286,-0.67609044,-16.89653142
4.01,401,-0.20199999999999999,0.168,-0.619,-337.1284872,41.0237928,-0.11459160000000004,42.50202444,-0.43544808,-16.615782
4.02,402,-0.188,-0.01,-0.9990000000000001,-358.72900380000016,57.4103916,-4.010706000000001,38.85228198,-0.04010706,-16.272007199999994
4.03,403,-0.344,-0.23199999999999998,-1.565,-370.93300919999996,68.2392978,-7.448453999999999,35.082218340000004,0.47555514,-15.91104366
4.04,404,-0.254,-0.4,-2.041,-374.428053,85.084263,-12.9488508,31.27777722,1.18602306,-15.53862096
4.05,405,0.19899999999999998,-0.677,-2.818,-362.45323080000003,53.628868800000006,-24.2934192,27.593657279999995,1.7074148399999998,-15.46413642
4.06,406,-0.009000000000000001,-0.875,-2.6910000000000003,-351.9680994,30.882436199999997,-19.079501399999998,24.01266978,2.01108258,-15.48705474
4.07,407,0.26,-0.547,-2.824,-330.1956954,37.586044799999996,-2.4637194,20.66086548,2.3147503200000004,-15.34954482
4.08,408,-0.11800000000000001,0.147,-3.55,-322.6899456000001,30.93973200000001,11.2872726,17.39500488,2.5210152000000003,-15.12036162
4.09,409,-0.27399999999999997,0.883,-3.9960000000000004,-306.8763048,13.0061466,1.7761698000000001,14.28384294,2.6012293200000003,-15.05160666
4.1,410,-0.151,1.317,-3.9960000000000004,-250.4399418,-3.5523396000000003,-11.745639,11.73417984,2.5611222600000003,-15.16046868
4.109999999999999,411,0.049,1.54,-3.9960000000000004,-162.6054804,-0.4583664000000001,-24.1788276,10.07260164,2.578311,-15.38965188
4.12,412,0.201,1.5290000000000001,-3.9960000000000004,-67.49445240000001,20.05353,-38.10170700000001,9.3678633,2.83041252,-15.721967520000002
4.13,413,0.345,0.8390000000000001,-3.469,-46.638781200000004,37.52874900000001,-53.4569814,8.86938984,3.27159018,-16.17460434
4.14,414,0.261,0.171,-2.539,-53.8007562,44.690723999999996,-47.67010560000001,8.29070226,3.77579322,-16.5584862
4.1499999999999995,415,0.114,0.037000000000000005,-1.88,-56.5509546,40.2216516,-35.695283399999994,7.6890963600000015,4.211241299999998,-16.844965199999994
4.16,416,-0.019,-0.066,-1.383,-48.3003594,28.6479,-25.55392680000001,7.17916374,4.51490904,-17.0455005
4.17,417,-0.145,-0.121,-1.074,-39.820581,23.0329116,-21.142150199999996,6.7551748200000015,4.76128098,-17.2173879
4.18,418,-0.162,-0.18,-0.899,-21.371333399999997,28.361421000000004,-23.204798999999998,6.52026204,5.06494872,-17.40646404
4.1899999999999995,419,-0.084,-0.319,-0.8540000000000001,-2.6929026,36.03905820000001,-25.382039399999996,6.4686958200000015,5.44883058,-17.606999339999994
4.2,420,0.042,-0.395,-0.8009999999999999,1.0886202,26.7571386,-23.835052800000003,6.497343719999999,5.72958,-17.80180506
4.21,421,0.07,-0.375,-0.72,-11.6310474,16.7876694,-16.501190400000002,6.3655633799999976,5.9129265600000025,-17.94504456
4.22,422,0.012,-0.23800000000000002,-0.638,-24.637194,17.131444199999994,-8.880849000000003,6.1020027,6.09054354,-18.00806994
4.2299999999999995,423,0.047,-0.079,-0.537,-41.0237928,22.6891368,-5.2712136,5.6837433599999985,6.31399716,-18.02525868
4.24,424,0.057,0.08199999999999999,-0.516,-55.3477428,27.960350399999996,-2.9793816000000004,5.11651494,6.58328742,-18.019529100000003
4.25,425,0.094,0.21100000000000002,-0.615,-63.712929599999995,26.5852512,-2.9793816000000004,4.44615408,6.83538894,-18.01379952
4.26,426,0.08,0.368,-0.7070000000000001,-55.06126379999999,12.318597,-5.9014674000000005,3.87892566,6.955710119999999,-18.05963616
4.27,427,0.073,0.52,-0.715,-37.757932200000006,-8.3651868,-11.0007936,3.48358464,6.875496000000001,-18.17422776
4.28,428,0.15,0.595,-0.609,-17.589810600000003,-7.0473834,-20.454600600000006,3.27731976,6.8182002000000015,-18.38049264
4.29,429,0.231,0.631,-0.359,-8.7662574,7.448453999999999,-24.923673,3.15699858,6.9041438999999984,-18.62686458
4.3,430,0.3,0.591,-0.289,-2.2345362,19.365980399999998,-21.027558600000006,3.04240698,7.13905668,-18.83312946
4.31,431,0.292,0.485,-0.341,7.333862400000001,24.522602399999997,-12.2040054,3.0997027800000003,7.385428619999999,-18.9362619
4.32,432,0.23600000000000002,0.376,-0.42100000000000004,11.1153852,18.5638392,-2.5210152000000003,3.2085648000000004,7.574504760000001,-18.94772106
4.33,433,0.152,0.293,-0.625,10.084060800000001,19.4232762,3.1512689999999997,3.31742682,7.763580899999999,-18.90188442
4.34,434,0.154,0.25,-0.802,9.3392154,23.663165399999997,6.875496000000001,3.42055926,7.9927641000000005,-18.81021114
4.35,435,0.185,0.248,-0.94,9.0527364,23.892348600000002,9.568398599999998,3.47212548,8.233406460000001,-18.70134912
4.36,436,0.222,0.242,-1.0859999999999999,12.776963400000001,23.892348600000002,12.2040054,3.62109456,8.46258966,-18.55810962
4.37,437,0.298,0.218,-1.151,16.4438946,13.3499214,15.813640800000002,3.810170700000002,8.58291084,-18.3919518
4.38,438,0.319,0.16399999999999998,-1.162,15.5844576,2.0053530000000004,20.912967000000002,3.99924684,8.594370000000001,-18.17995734
4.39,439,0.321,0.067,-1.159,12.4331886,-5.3285094000000015,25.78311,4.16540466,8.519885460000001,-17.927855819999994
4.3999999999999995,440,0.354,-0.07200000000000001,-1.162,10.3705398,-13.521808800000002,28.4760126,4.31437374,8.382375540000002,-17.65856556
4.41,441,0.449,-0.147,-1.2670000000000001,-0.6875496,-17.0168526,27.7311672,4.34875122,8.193299399999999,-17.40073446
4.42,442,0.516,-0.091,-1.275,-13.9228794,-23.14750320000001,23.4339822,4.2398892,7.94692746,-17.188740000000006
4.43,443,0.5,0.026000000000000002,-1.2229999999999999,-25.210151999999997,-25.3247436,15.756345,4.00497642,7.68336678,-17.056959659999997
4.4399999999999995,444,0.48,0.13,-1.156,-29.621928600000004,-21.314037600000002,5.844171599999999,3.71276784,7.46564274,-17.0168526
4.45,445,0.45399999999999996,0.154,-1.103,-26.1841806,-18.5638392,-2.3491277999999998,3.42055926,7.31094408,-17.06268924
4.46,446,0.423,0.096,-1.061,-22.2880662,-11.0007936,-7.906820400000001,3.18564648,7.20208206,-17.14863294
4.47,447,0.39399999999999996,-0.006999999999999999,-1.015,-19.767051000000002,-4.583664,-9.3392154,2.9736520200000003,7.161975,-17.246035799999998
4.4799999999999995,448,0.364,-0.121,-1.0190000000000001,-22.517249399999997,-0.11459160000000004,-8.021412000000002,2.73300966,7.161975,-17.326249920000002
4.49,449,0.312,-0.185,-0.987,-27.559279800000002,0.6302538000000001,-6.0733548,2.44653066,7.167704579999999,-17.383545719999994
4.5,450,0.239,-0.198,-0.9520000000000001,-31.5699858,-2.1199446,-4.8701430000000006,2.14286292,7.161975,-17.435111940000002
4.51,451,0.171,-0.195,-0.882,-33.002380800000005,-7.6203414,-3.5523396000000003,1.8048177,7.08176088,-17.46948942
4.52,452,0.11,-0.166,-0.782,-34.4920716,-11.172680999999999,-0.572958,1.45531332,6.96716928,-17.48094858
4.53,453,0.075,-0.11,-0.752,-36.4974246,-9.396511199999999,2.0626488000000003,1.0886202,6.86976642,-17.45803026
4.54,454,0.051,-0.057,-0.804,-35.46610020000001,-5.3285094000000015,3.2658606,0.73338624,6.812470620000001,-17.429382359999998
4.55,455,0.066,-0.012,-0.887,-31.22621100000001,-0.1718874,2.9220858,0.41252976,6.8010114600000025,-17.39500488
4.56,456,0.1,0.031,-0.948,-24.9809688,3.0366774,1.4896908000000002,0.16042824,6.82392978,-17.37781614
4.57,457,0.127,0.064,-0.976,-17.8762896,3.8961144,-0.7448454000000001,-0.01718874,6.86403684,-17.383545719999994
4.58,458,0.138,0.08,-0.988,-11.5737516,2.0626488000000003,-3.7815228,-0.13750992,6.8812255800000015,-17.4179232
4.59,459,0.142,0.064,-0.993,-6.9327918,-0.11459160000000004,-6.8182002000000015,-0.21772404,6.8812255800000015,-17.48667816
4.6,460,0.13,0.027999999999999997,-0.9890000000000001,-2.0626488000000003,-4.1825934,-8.7662574,-0.26356068,6.8411185199999975,-17.57835144
4.61,461,0.124,-0.016,-0.971,2.3491277999999998,-7.2765666,-9.0527364,-0.25210152,6.76663398,-17.67002472
4.62,462,0.10099999999999999,-0.067,-0.955,7.0473834,-8.250595200000001,-8.479778399999999,-0.18907614,6.686419860000001,-17.755968420000006
4.63,463,0.08,-0.11199999999999999,-0.953,10.4851314,-9.7975818,-7.161975,-0.09167328,6.589017,-17.83045296
4.64,464,0.067,-0.147,-0.958,12.834259199999998,-12.6623718,-5.1566220000000005,0.028647900000000007,6.4686958200000015,-17.88774876
4.6499999999999995,465,0.053,-0.172,-0.965,14.32395,-14.381245800000002,-2.9793816000000004,0.21199446,6.30826758,-17.916396659999997
4.66,466,0.027999999999999997,-0.19399999999999998,-0.971,14.896907999999998,-14.667724800000002,-0.8594370000000001,0.36096354,6.165028080000001,-17.927855819999994
4.67,467,0.022000000000000002,-0.22,-0.963,14.1520626,-14.667724800000002,1.145916,0.5099326200000001,6.02178858,-17.92212624
4.68,468,0.004,-0.245,-0.965,11.3445684,-15.3552744,2.3491277999999998,0.6302538000000001,5.8728194999999985,-17.9049375
4.6899999999999995,469,-0.016,-0.26,-0.97,10.3705398,-14.209358400000001,2.2345362,0.7391158200000001,5.72958,-17.89347834
4.7,470,-0.025,-0.265,-0.986,8.7089616,-11.8602306,1.145916,0.9167328,5.56342218,-17.86483044
4.71,471,-0.024,-0.24600000000000002,-1.011,5.2712136,-9.396511199999999,-0.9740286,0.96829902,5.4717489000000015,-17.88201918
4.72,472,-0.021,-0.203,-1.0290000000000001,2.4064236,-7.333862400000001,-3.7815228,0.9912173399999998,5.3972643599999985,-17.92212624
4.7299999999999995,473,-0.018000000000000002,-0.154,-1.026,1.432395,-6.0160589999999985,-6.589017,0.9969469199999998,5.339968560000001,-17.9908812
4.74,474,-0.013999999999999999,-0.106,-1.006,0.0,-5.3858052,-8.307891,0.9912173399999998,5.28840234,-18.0768249
4.75,475,-0.011000000000000001,-0.061,-0.993,-1.5469866,-5.9014674000000005,-8.59437,0.9740286,5.17381074,-18.15130944
4.76,476,-0.015,-0.03,-0.986,-3.2658606,-6.0160589999999985,-7.9641161999999985,0.93392154,5.11651494,-18.23152356
4.77,477,-0.019,-0.009000000000000001,-0.977,-3.9534102,-4.7555514,-6.875496000000001,0.8880849000000001,5.0706783,-18.30027852
4.78,478,-0.015,0.01,-0.972,-4.4117766,-3.3231564,-5.2712136,0.83651868,5.03630082,-18.35757432
4.79,479,-0.006,0.027000000000000003,-0.9670000000000001,-4.7555514,-1.7761698000000001,-3.380452200000001,0.7849524600000001,5.01911208,-18.3919518
4.8,480,0.0,0.046,-0.9590000000000001,-4.6982555999999995,-0.286479,-1.7188740000000002,0.64171296,4.90452048,-18.38622222
4.81,481,0.012,0.055,-0.956,-4.010706000000001,1.8907614,-0.5156622000000001,0.6016058999999999,4.9217092199999986,-18.38622222
4.82,482,0.025,0.057999999999999996,-0.956,-2.9220858,4.297185,0.11459160000000004,0.56722842,4.96754586,-18.38622222
4.83,483,0.039,0.05,-0.9590000000000001,-2.0053530000000004,6.4744254,0.6875496,0.55003968,5.03057124,-18.37476306
4.84,484,0.057999999999999996,0.048,-0.9620000000000001,-1.7761698000000001,8.5370742,1.2032118,0.53285094,5.11651494,-18.35757432
4.85,485,0.078,0.05,-0.9740000000000001,-1.9480572,9.0527364,1.7761698000000001,0.46409598,5.19672906,-18.34038558
4.86,486,0.096,0.059000000000000004,-0.991,-1.0313244000000001,8.5370742,2.4064236,0.4526368200000001,5.27694318,-18.31173768
4.87,487,0.113,0.063,-1.0,0.4583664000000001,7.906820400000001,2.9793816000000004,0.46409598,5.3571573,-18.2773602
4.88,488,0.128,0.064,-1.003,1.2605076000000002,7.6776372,3.5523396000000003,0.47555514,5.4316418399999975,-18.24298272
4.89,489,0.138,0.063,-0.9990000000000001,1.5469866,7.1046792000000005,4.1252976000000015,0.4984734599999999,5.50612638,-18.197146080000003
4.8999999999999995,490,0.142,0.057999999999999996,-0.9940000000000001,1.5469866,6.589017,4.583664,0.46409598,5.59207008,-18.15703902
4.91,491,0.14400000000000002,0.044000000000000004,-0.992,1.8334656000000005,6.2452422,5.042030400000002,0.4870143000000001,5.65509546,-18.1054728
4.92,492,0.149,0.027000000000000003,-0.991,1.2032118,5.6722842,5.5576926,0.5099326200000001,5.70666168,-18.048177
4.93,493,0.154,0.017,-0.992,0.1718874,4.9847346,5.9014674000000005,0.5156622000000001,5.7582279000000005,-17.98515162
4.9399999999999995,494,0.153,0.012,-0.9940000000000001,-0.4583664000000001,4.3544808,6.130650599999999,0.5156622000000001,5.79833496,-17.92212624
4.95,495,0.149,0.006999999999999999,-0.988,-0.6875496,4.2398892,6.0733548,0.49274388,5.86708992,-17.870560020000006
4.96,496,0.141,0.0,-0.982,-0.7448454000000001,4.4690724,6.130650599999999,0.4870143000000001,5.9129265600000025,-17.80753464
4.97,497,0.133,-0.008,-0.978,-0.4583664000000001,4.9847346,6.0160589999999985,0.4870143000000001,5.958763200000001,-17.74450926
4.9799999999999995,498,0.131,-0.021,-0.975,0.0,5.72958,6.130650599999999,0.49274388,6.016058999999999,-17.68148388
4.99,499,0.142,-0.035,-0.9790000000000001,0.1718874,6.417129599999999,6.3025379999999975,0.5042030399999999,6.0790843799999985,-17.6184585
5.0,500,0.161,-0.05,-0.972,0.057295800000000015,6.8182002000000015,6.8182002000000015,0.52712136,6.17648724,-17.549703540000007
5.01,501,0.171,-0.059000000000000004,-0.973,-0.9740286,6.875496000000001,7.2192707999999985,0.52139178,6.2452422000000025,-17.475219
5.02,502,0.179,-0.059000000000000004,-0.975,-1.6042823999999998,7.0473834,6.9327918,0.5099326200000001,6.31399716,-17.40646404
5.03,503,0.18600000000000005,-0.062,-0.9670000000000001,-1.3178034,7.1046792000000005,6.130650599999999,0.5042030399999999,6.382752120000001,-17.34343866
5.04,504,0.188,-0.061,-0.965,-1.0313244000000001,7.1046792000000005,5.042030400000002,0.4984734599999999,6.45723666,-17.286142859999998
5.05,505,0.195,-0.059000000000000004,-0.966,-1.0313244000000001,6.990087599999999,3.8961144,0.5099326200000001,6.57755784,-17.25749496
5.06,506,0.19899999999999998,-0.052000000000000005,-0.9670000000000001,-1.7188740000000002,6.703608600000001,3.0939732,0.49274388,6.6463128,-17.22311748
5.07,507,0.20199999999999999,-0.043,-0.982,-2.0053530000000004,6.417129599999999,2.5210152000000003,0.47555514,6.7093381800000005,-17.19446958
5.08,508,0.19699999999999998,-0.045,-0.9940000000000001,-1.3178034,4.583664,1.8907614,0.46409598,6.7551748200000015,-17.17728084
5.09,509,0.188,-0.048,-0.9990000000000001,-0.6302538000000001,3.2085647999999996,1.4896908000000002,0.4583664000000001,6.783822719999999,-17.1600921
5.1,510,0.177,-0.053,-0.996,0.5156622000000001,2.1772404,0.8021411999999999,0.52139178,6.9156030600000005,-17.171551259999998
5.11,511,0.16899999999999998,-0.06,-0.985,1.6042823999999998,1.0886202,0.286479,0.53858052,6.9270622200000025,-17.16582168
5.12,512,0.162,-0.064,-0.976,1.7188740000000002,0.057295800000000015,-0.057295800000000015,0.55576926,6.9270622200000025,-17.16582168
5.13,513,0.159,-0.062,-0.976,1.0886202,-0.8021411999999999,-0.286479,0.56722842,6.92133264,-17.171551259999998
5.14,514,0.158,-0.054000000000000006,-0.976,0.6302538000000001,-1.9480572,-0.572958,0.5729580000000001,6.898414319999999,-17.17728084
5.1499999999999995,515,0.155,-0.049,-0.9670000000000001,0.0,-2.86479,-0.8021411999999999,0.6073354799999999,6.9327918,-17.20019916
5.16,516,0.151,-0.042,-0.9670000000000001,-0.5156622000000001,-3.9534102,-1.2032118,0.59587632,6.89268474,-17.21165832
5.17,517,0.14400000000000002,-0.035,-0.971,-0.6302538000000001,-4.2398892,-1.8907614,0.59014674,6.85257768,-17.23457664
5.18,518,0.139,-0.027000000000000003,-0.9790000000000001,-0.3437748,-3.8961144,-2.4637194,0.5844171599999999,6.812470620000001,-17.25749496
5.1899999999999995,519,0.136,-0.017,-0.986,0.11459160000000004,-3.4377480000000005,-2.9220858,0.5786875800000001,6.77809314,-17.29187244
5.2,520,0.138,-0.006999999999999999,-0.9940000000000001,0.8021411999999999,-3.3231564,-3.2085647999999996,0.56149884,6.7609043999999985,-17.331979500000006
5.21,521,0.14,-0.001,-0.996,1.2032118,-3.6669312000000014,-3.2085647999999996,0.56722842,6.72079734,-17.36635698
5.22,522,0.139,0.002,-0.998,0.8594370000000001,-3.9534102,-3.2658606,0.5729580000000001,6.686419860000001,-17.40073446
5.2299999999999995,523,0.134,0.002,-0.997,0.8594370000000001,-4.4117766,-3.1512689999999997,0.5786875800000001,6.640583220000001,-17.429382359999998
5.24,524,0.124,-0.002,-0.99,1.432395,-4.6409598,-2.9220858,0.59014674,6.5947465800000025,-17.46375984
5.25,525,0.11800000000000001,-0.008,-0.983,1.7188740000000002,-4.1825934,-2.6929026,0.5844171599999999,6.54890994,-17.492407739999994
5.26,526,0.113,-0.009000000000000001,-0.977,1.4896908000000002,-3.5523396000000003,-2.3491277999999998,0.6016058999999999,6.51453246,-17.52105564
5.27,527,0.109,-0.009000000000000001,-0.9790000000000001,1.2605076000000002,-2.86479,-1.9480572,0.61306506,6.48588456,-17.538244380000002
5.28,528,0.106,-0.006,-0.982,1.0886202,-2.6356068,-1.432395,0.61879464,6.45723666,-17.55543312
5.29,529,0.10400000000000001,-0.004,-0.986,1.0313244000000001,-2.5210152000000003,-1.0886202,0.6302538000000001,6.43431834,-17.566892279999998
5.3,530,0.102,-0.005,-0.988,1.5469866,-2.6356068,-0.7448454000000001,0.6073354799999999,6.382752120000001,-17.57262186
5.31,531,0.10300000000000001,-0.011000000000000001,-0.9840000000000001,2.0626488000000003,-2.6356068,-0.4583664000000001,0.6302538000000001,6.3598338000000005,-17.57835144
5.32,532,0.105,-0.019,-0.978,2.1772404,-2.4064236,-0.1718874,0.65317212,6.33691548,-17.58408102
5.33,533,0.105,-0.023,-0.9790000000000001,2.2345362,-2.4064236,0.057295800000000015,0.67609044,6.30826758,-17.58408102
5.34,534,0.10400000000000001,-0.026000000000000002,-0.976,2.2345362,-2.2345362,0.2291832000000001,0.69900876,6.29107884,-17.58408102
5.35,535,0.102,-0.027999999999999997,-0.98,2.1772404,-1.9480572,0.3437748,0.7104679199999999,6.2452422000000025,-17.57262186
5.36,536,0.10400000000000001,-0.03,-0.98,1.8907614,-1.8907614,0.3437748,0.73338624,6.22805346,-17.57262186
5.37,537,0.10400000000000001,-0.031,-0.981,1.4896908000000002,-1.8334656000000005,0.4583664000000001,0.7448454000000001,6.210864720000001,-17.566892279999998
5.38,538,0.10400000000000001,-0.034,-0.981,1.3178034,-1.4896908000000002,0.5156622000000001,0.76203414,6.19367598,-17.561162699999993
5.39,539,0.10099999999999999,-0.036000000000000004,-0.982,1.3178034,-1.0313244000000001,0.5156622000000001,0.7792228800000001,6.18221682,-17.55543312
5.3999999999999995,540,0.1,-0.039,-0.98,1.0886202,-0.4583664000000001,0.572958,0.8078707799999998,6.12492102,-17.538244380000002
5.41,541,0.099,-0.040999999999999995,-0.982,0.7448454000000001,-0.572958,0.7448454000000001,0.8136003599999999,6.11919144,-17.5325148
5.42,542,0.099,-0.04,-0.985,0.5156622000000001,-0.8021411999999999,1.0313244000000001,0.8193299399999999,6.113461859999999,-17.52105564
5.43,543,0.1,-0.039,-0.985,0.40107059999999994,-0.9740286,1.2032118,0.8250595199999999,6.1020027,-17.50959648
5.4399999999999995,544,0.10300000000000001,-0.039,-0.986,0.40107059999999994,-1.0886202,1.3178034,0.8307891,6.09054354,-17.498137319999998
5.45,545,0.109,-0.039,-0.987,0.4583664000000001,-0.8594370000000001,1.3750992,0.8479778399999999,6.0733548000000015,-17.48094858
5.46,546,0.114,-0.038,-0.985,0.4583664000000001,-0.6302538000000001,1.3750992,0.8537074199999999,6.067625219999999,-17.46375984
5.47,547,0.12,-0.036000000000000004,-0.985,0.286479,-0.4583664000000001,1.2605076000000002,0.8594370000000001,6.06189564,-17.45230068
5.4799999999999995,548,0.122,-0.035,-0.983,0.0,-0.4583664000000001,1.145916,0.8594370000000001,6.05616606,-17.44084152
5.49,549,0.122,-0.033,-0.981,-0.2291832000000001,-0.40107059999999994,0.9167328000000001,0.8594370000000001,6.05043648,-17.435111940000002
5.5,550,0.121,-0.03,-0.98,-0.6302538000000001,-0.4583664000000001,0.8021411999999999,0.8250595199999999,6.08481396,-17.435111940000002
5.51,551,0.121,-0.031,-0.98,-0.5156622000000001,-0.6302538000000001,0.6302538000000001,0.8250595199999999,6.0790843799999985,-17.429382359999998
5.52,552,0.12,-0.032,-0.9790000000000001,-0.3437748,-0.286479,0.40107059999999994,0.8193299399999999,6.0733548000000015,-17.42365278
5.53,553,0.122,-0.031,-0.983,-0.286479,0.7448454000000001,0.286479,0.8193299399999999,6.08481396,-17.4179232
5.54,554,0.125,-0.028999999999999998,-0.978,-0.5156622000000001,1.8334656000000005,0.11459160000000004,0.8136003599999999,6.1020027,-17.4179232
5.55,555,0.128,-0.026000000000000002,-0.9690000000000001,-1.145916,2.4637194,0.11459160000000004,0.7849524600000001,6.15356892,-17.42365278
5.56,556,0.132,-0.024,-0.972,-1.432395,2.5210152000000003,0.3437748,0.76776372,6.17648724,-17.4179232
5.57,557,0.138,-0.022000000000000002,-0.9740000000000001,-1.0886202,1.7188740000000002,0.6302538000000001,0.76203414,6.19367598,-17.412193620000004
5.58,558,0.141,-0.022000000000000002,-0.973,-0.6875496,0.9740286,0.8594370000000001,0.75630456,6.2051351399999986,-17.40073446
5.59,559,0.14,-0.025,-0.978,-0.572958,1.0313244000000001,0.9167328000000001,0.75057498,6.2165943,-17.3892753
5.6,560,0.138,-0.027999999999999997,-0.986,-0.572958,1.3178034,0.9167328000000001,0.72765666,6.2796196800000015,-17.39500488
5.61,561,0.134,-0.027999999999999997,-0.995,-0.4583664000000001,1.3750992,0.8594370000000001,0.72192708,6.29107884,-17.383545719999994
5.62,562,0.132,-0.027000000000000003,-0.9940000000000001,0.0,0.7448454000000001,0.7448454000000001,0.72192708,6.29680842,-17.37781614
5.63,563,0.131,-0.032,-0.987,0.057295800000000015,-0.1718874,0.6875496,0.72765666,6.29680842,-17.37208656
5.64,564,0.126,-0.034,-0.983,-0.8021411999999999,-1.3178034,0.7448454000000001,0.7161975,6.2853492599999985,-17.3606274
5.6499999999999995,565,0.124,-0.034,-0.983,-1.2032118,-1.8334656000000005,0.8021411999999999,0.7104679199999999,6.2738901,-17.354897819999998
5.66,566,0.11699999999999999,-0.033,-0.983,-0.7448454000000001,-1.7761698000000001,0.8594370000000001,0.70473834,6.25670136,-17.34916824
5.67,567,0.11699999999999999,-0.027000000000000003,-0.9790000000000001,-0.4583664000000001,-1.0886202,0.5156622000000001,0.69900876,6.2452422000000025,-17.34343866
5.68,568,0.11900000000000001,-0.023,-0.982,-0.4583664000000001,-0.11459160000000004,0.11459160000000004,0.69900876,6.2452422000000025,-17.34343866
5.6899999999999995,569,0.122,-0.018000000000000002,-0.985,-0.3437748,0.1718874,-0.11459160000000004,0.69327918,6.2452422000000025,-17.34343866
5.7,570,0.126,-0.015,-0.986,-0.2291832000000001,0.057295800000000015,-0.2291832000000001,0.53285094,6.348374640000001,-17.383545719999994
5.71,571,0.128,-0.016,-0.987,0.0,-0.6302538000000001,-0.2291832000000001,0.53285094,6.34264506,-17.383545719999994
5.72,572,0.127,-0.019,-0.985,0.286479,-1.145916,-0.2291832000000001,0.53858052,6.3311859,-17.3892753
5.7299999999999995,573,0.124,-0.024,-0.983,0.40107059999999994,-1.2032118,-0.2291832000000001,0.53858052,6.31972674,-17.3892753
5.74,574,0.125,-0.028999999999999998,-0.982,0.286479,-0.7448454000000001,-0.286479,0.5443101,6.30826758,-17.39500488
5.75,575,0.127,-0.031,-0.9840000000000001,0.1718874,-0.286479,-0.2291832000000001,0.55003968,6.40567044,-17.4179232
5.76,576,0.129,-0.03,-0.98,-0.057295800000000015,-0.40107059999999994,-0.2291832000000001,0.5443101,6.39994086,-17.4179232
5.77,577,0.129,-0.032,-0.975,-0.6875496,-1.0886202,-0.057295800000000015,0.53858052,6.3884817000000025,-17.42365278
5.78,578,0.126,-0.033,-0.9670000000000001,-1.3750992,-2.1199446,0.0,0.52139178,6.37129296,-17.42365278
5.79,579,0.12,-0.035,-0.966,-1.8334656000000005,-3.1512689999999997,-0.057295800000000015,0.5042030399999999,6.33691548,-17.42365278
5.8,580,0.11699999999999999,-0.035,-0.973,-2.0626488000000003,-3.0939732,-0.286479,0.49274388,6.30826758,-17.429382359999998
5.81,581,0.11800000000000001,-0.033,-0.978,-2.0626488000000003,-2.5783110000000002,-0.4583664000000001,0.46982556,6.2796196800000015,-17.435111940000002
5.82,582,0.11800000000000001,-0.03,-0.981,-2.1772404,-2.291832,-0.40107059999999994,0.44690724,6.25670136,-17.44084152
5.83,583,0.12,-0.025,-0.982,-2.2345362,-1.6615782,-0.40107059999999994,0.42398892,6.23951262,-17.4465711
5.84,584,0.12,-0.019,-0.9840000000000001,-2.3491277999999998,-1.432395,-0.3437748,0.39534102,6.22805346,-17.4465711
5.85,585,0.122,-0.018000000000000002,-0.985,-2.1772404,-1.4896908000000002,-0.2291832000000001,0.36096354,6.22232388,-17.45230068
5.86,586,0.121,-0.018000000000000002,-0.985,-2.1772404,-1.8334656000000005,-0.2291832000000001,0.33804522,6.2051351399999986,-17.45803026
5.87,587,0.11599999999999999,-0.021,-0.986,-2.0626488000000003,-2.2345362,-0.1718874,0.31512690000000004,6.18221682,-17.45803026
5.88,588,0.11199999999999999,-0.024,-0.986,-1.7761698000000001,-2.2345362,-0.3437748,0.29793816,6.1592985,-17.46375984
5.89,589,0.111,-0.026000000000000002,-0.986,-1.6042823999999998,-1.8907614,-0.286479,0.28074942,6.14210976,-17.46948942
5.8999999999999995,590,0.111,-0.025,-0.988,-1.4896908000000002,-1.432395,-0.40107059999999994,0.26356068,6.113461859999999,-17.46948942
5.91,591,0.111,-0.022000000000000002,-0.9890000000000001,-1.2032118,-1.2032118,-0.2291832000000001,0.24637194,6.1020027,-17.475219
5.92,592,0.109,-0.02,-0.9890000000000001,-0.8594370000000001,-1.4896908000000002,-0.11459160000000004,0.24064236,6.09054354,-17.475219
5.93,593,0.10800000000000001,-0.018000000000000002,-0.991,-0.3437748,-1.6615782,0.0,0.23491278,6.0733548000000015,-17.475219
5.9399999999999995,594,0.107,-0.018000000000000002,-0.992,0.057295800000000015,-1.3750992,0.0,0.23491278,6.05616606,-17.475219
5.95,595,0.109,-0.019,-0.993,0.286479,-1.0313244000000001,0.057295800000000015,0.21772404,6.0275181600000005,-17.475219
5.96,596,0.11199999999999999,-0.021,-0.991,0.2291832000000001,-0.4583664000000001,0.2291832000000001,0.21772404,6.02178858,-17.475219
5.97,597,0.114,-0.022000000000000002,-0.988,0.0,-0.4583664000000001,0.40107059999999994,0.21772404,6.016058999999999,-17.46948942
5.9799999999999995,598,0.11599999999999999,-0.023,-0.988,-0.5156622000000001,-0.5156622000000001,0.5156622000000001,0.21199446,6.01032942,-17.46375984
5.99,599,0.11800000000000001,-0.021,-0.988,-0.8594370000000001,-0.8021411999999999,0.6302538000000001,0.20626488,6.00459984,-17.45803026
6.0,600,0.115,-0.02,-0.988,-0.8021411999999999,-1.0313244000000001,0.5156622000000001,0.18334656,5.99887026,-17.45230068
6.01,601,0.111,-0.018000000000000002,-0.986,-0.6302538000000001,-0.6302538000000001,0.2291832000000001,0.17761697999999998,5.9874111,-17.45230068
6.02,602,0.10800000000000001,-0.016,-0.986,-0.40107059999999994,-0.057295800000000015,0.0,0.17761697999999998,5.9874111,-17.45230068
6.03,603,0.109,-0.017,-0.991,-0.11459160000000004,0.1718874,-0.057295800000000015,0.1718874,5.9931406800000016,-17.45230068
6.04,604,0.113,-0.019,-0.9890000000000001,0.0,0.3437748,0.057295800000000015,0.1718874,5.9931406800000016,-17.45230068
6.05,605,0.11699999999999999,-0.02,-0.988,-0.2291832000000001,0.40107059999999994,0.286479,0.14323950000000002,6.0447069,-17.45803026
6.06,606,0.122,-0.02,-0.981,-0.6875496,0.4583664000000001,0.5156622000000001,0.13178034,6.0447069,-17.45230068
6.07,607,0.12,-0.023,-0.97,-1.145916,0.40107059999999994,0.5156622000000001,0.12605075999999998,6.05043648,-17.4465711
6.08,608,0.11699999999999999,-0.023,-0.972,-1.3178034,0.5156622000000001,0.5156622000000001,0.10886202,6.05616606,-17.44084152
6.09,609,0.11699999999999999,-0.021,-0.9790000000000001,-0.9167328000000001,0.3437748,0.4583664000000001,0.10313244,6.06189564,-17.435111940000002
6.1,610,0.11599999999999999,-0.02,-0.977,-0.40107059999999994,0.2291832000000001,0.3437748,0.0859437,6.0733548000000015,-17.435111940000002
6.11,611,0.11599999999999999,-0.02,-0.978,-0.2291832000000001,0.40107059999999994,0.1718874,0.0859437,6.0790843799999985,-17.435111940000002
6.12,612,0.11900000000000001,-0.022000000000000002,-0.983,-0.40107059999999994,1.2032118,0.286479,0.08021412,6.09054354,-17.429382359999998
6.13,613,0.12,-0.022000000000000002,-0.988,-0.5156622000000001,0.9740286,0.286479,0.07448454,6.1020027,-17.429382359999998
6.14,614,0.11900000000000001,-0.023,-0.991,-0.1718874,0.40107059999999994,0.3437748,0.07448454,6.1077322800000005,-17.42365278
6.15,615,0.11699999999999999,-0.024,-0.992,0.286479,-0.11459160000000004,0.11459160000000004,0.09167328,6.12492102,-17.42365278
6.16,616,0.11699999999999999,-0.026000000000000002,-0.987,0.40107059999999994,-0.5156622000000001,-0.057295800000000015,0.09740286,6.11919144,-17.42365278
6.17,617,0.11599999999999999,-0.025,-0.985,0.2291832000000001,-0.7448454000000001,-0.057295800000000015,0.10313244,6.113461859999999,-17.42365278
6.18,618,0.114,-0.022000000000000002,-0.981,0.11459160000000004,-0.572958,0.0,0.10313244,6.1077322800000005,-17.42365278
6.1899999999999995,619,0.113,-0.019,-0.981,0.0,-0.3437748,-0.057295800000000015,0.10313244,6.1020027,-17.429382359999998
6.2,620,0.113,-0.017,-0.98,-0.4583664000000001,0.0,-0.11459160000000004,0.06302537999999999,6.1077322800000005,-17.435111940000002
6.21,621,0.11599999999999999,-0.015,-0.978,-1.0886202,-0.2291832000000001,-0.1718874,0.05156622,6.1020027,-17.435111940000002
6.22,622,0.114,-0.012,-0.982,-1.145916,-0.40107059999999994,-0.2291832000000001,0.04010706,6.1020027,-17.435111940000002
6.2299999999999995,623,0.113,-0.013000000000000001,-0.983,-0.6302538000000001,-0.057295800000000015,-0.3437748,0.03437748,6.09627312,-17.44084152
6.24,624,0.11199999999999999,-0.013000000000000001,-0.985,-0.11459160000000004,0.2291832000000001,-0.3437748,0.03437748,6.1020027,-17.4465711
6.25,625,0.114,-0.013000000000000001,-0.985,0.057295800000000015,0.7448454000000001,-0.286479,0.0,6.113461859999999,-17.45230068
6.26,626,0.11699999999999999,-0.013999999999999999,-0.985,0.057295800000000015,1.2032118,-0.2291832000000001,0.0,6.12492102,-17.45230068
6.27,627,0.11900000000000001,-0.013999999999999999,-0.988,-0.11459160000000004,1.4896908000000002,-0.1718874,0.0,6.14210976,-17.45803026
6.28,628,0.121,-0.015,-0.993,0.0,1.432395,-0.057295800000000015,0.0,6.15356892,-17.45803026
6.29,629,0.12,-0.017,-0.992,0.286479,1.2032118,-0.057295800000000015,0.0,6.165028080000001,-17.45803026
6.3,630,0.12,-0.022000000000000002,-0.987,0.40107059999999994,1.0886202,-0.1718874,0.01145916,6.19367598,-17.45803026
6.31,631,0.12,-0.025,-0.9840000000000001,0.4583664000000001,1.145916,-0.286479,0.01145916,6.2051351399999986,-17.46375984
6.32,632,0.121,-0.027000000000000003,-0.9840000000000001,0.5156622000000001,1.2032118,-0.2291832000000001,0.01718874,6.2165943,-17.46375984
6.33,633,0.12300000000000001,-0.026000000000000002,-0.985,0.4583664000000001,1.2605076000000002,-0.2291832000000001,0.02291832,6.22805346,-17.46948942
6.34,634,0.125,-0.022000000000000002,-0.986,0.3437748,1.2032118,-0.1718874,0.028647900000000007,6.23951262,-17.46948942
6.35,635,0.126,-0.016,-0.991,0.40107059999999994,1.0886202,-0.057295800000000015,0.01145916,6.2738901,-17.475219
6.36,636,0.124,-0.013000000000000001,-0.99,0.7448454000000001,0.7448454000000001,-0.11459160000000004,0.01718874,6.2796196800000015,-17.475219
6.37,637,0.121,-0.016,-0.99,0.9167328000000001,0.572958,-0.11459160000000004,0.028647900000000007,6.29107884,-17.48094858
6.38,638,0.11800000000000001,-0.018000000000000002,-0.99,1.0886202,0.5156622000000001,-0.11459160000000004,0.04010706,6.29680842,-17.48094858
6.39,639,0.115,-0.02,-0.9890000000000001,1.2605076000000002,0.40107059999999994,-0.057295800000000015,0.05156622,6.29680842,-17.48094858
6.4,640,0.11199999999999999,-0.021,-0.986,1.3178034,0.3437748,0.11459160000000004,0.06302537999999999,6.2853492599999985,-17.475219
6.41,641,0.111,-0.022000000000000002,-0.986,1.2032118,0.3437748,0.1718874,0.07448454,6.29107884,-17.475219
6.42,642,0.111,-0.022000000000000002,-0.986,0.9740286,0.2291832000000001,0.286479,0.0859437,6.29680842,-17.46948942
6.43,643,0.111,-0.021,-0.9840000000000001,0.9167328000000001,0.2291832000000001,0.286479,0.09740286,6.29680842,-17.46948942
6.4399999999999995,644,0.11199999999999999,-0.022000000000000002,-0.9840000000000001,1.0886202,0.11459160000000004,0.1718874,0.10886202,6.29680842,-17.46375984
6.45,645,0.11199999999999999,-0.021,-0.983,1.432395,0.0,0.0,0.11459160000000003,6.2853492599999985,-17.46375984
6.46,646,0.114,-0.022000000000000002,-0.982,1.6615782,0.1718874,-0.057295800000000015,0.13178034,6.2853492599999985,-17.46375984
6.47,647,0.11699999999999999,-0.021,-0.981,1.6615782,0.5156622000000001,-0.11459160000000004,0.14896908,6.29107884,-17.46948942
6.4799999999999995,648,0.11900000000000001,-0.02,-0.981,1.6042823999999998,0.7448454000000001,-0.2291832000000001,0.16615782,6.3025379999999975,-17.46948942
6.49,649,0.121,-0.018000000000000002,-0.982,1.5469866,0.6875496,-0.1718874,0.18334656,6.30826758,-17.46948942
6.5,650,0.12300000000000001,-0.016,-0.986,1.5469866,0.6875496,-0.1718874,0.18334656,6.3311859,-17.475219
6.51,651,0.124,-0.018000000000000002,-0.988,1.4896908000000002,0.572958,-0.11459160000000004,0.19480572,6.33691548,-17.475219
6.52,652,0.124,-0.021,-0.985,1.3178034,0.3437748,0.0,0.21199446,6.33691548,-17.475219
6.53,653,0.124,-0.023,-0.987,1.2605076000000002,0.2291832000000001,0.0,0.22345362,6.34264506,-17.475219
6.54,654,0.121,-0.026000000000000002,-0.9840000000000001,1.3750992,0.057295800000000015,0.11459160000000004,0.24064236,6.34264506,-17.475219
6.55,655,0.11800000000000001,-0.028999999999999998,-0.981,1.3178034,-0.057295800000000015,0.0,0.26356068,6.34264506,-17.475219
6.56,656,0.11699999999999999,-0.03,-0.981,1.2032118,-0.057295800000000015,-0.057295800000000015,0.27501984,6.34264506,-17.475219
6.57,657,0.11900000000000001,-0.028999999999999998,-0.985,1.0886202,-0.11459160000000004,-0.057295800000000015,0.28647900000000004,6.34264506,-17.475219
6.58,658,0.122,-0.03,-0.9890000000000001,0.9167328000000001,-0.11459160000000004,-0.1718874,0.29793816,6.33691548,-17.48094858
6.59,659,0.125,-0.027000000000000003,-0.993,0.8594370000000001,-0.1718874,-0.057295800000000015,0.30939732,6.33691548,-17.48094858
6.6,660,0.126,-0.025,-0.9840000000000001,0.8021411999999999,-0.2291832000000001,0.0,0.30939732,6.3770225400000005,-17.48667816
6.61,661,0.121,-0.026000000000000002,-0.97,0.3437748,-0.40107059999999994,0.0,0.31512690000000004,6.37129296,-17.48667816
6.62,662,0.11599999999999999,-0.023,-0.972,0.40107059999999994,-0.3437748,0.11459160000000004,0.32085648,6.3655633799999976,-17.48667816
6.63,663,0.11800000000000001,-0.022000000000000002,-0.978,0.572958,-0.286479,0.3437748,0.32658606,6.3655633799999976,-17.48667816
6.64,664,0.121,-0.021,-0.976,0.6875496,-0.3437748,0.5156622000000001,0.33231564,6.3598338000000005,-17.48094858
6.65,665,0.121,-0.024,-0.978,0.4583664000000001,-0.1718874,0.6302538000000001,0.33231564,6.37129296,-17.475219
6.66,666,0.11900000000000001,-0.026000000000000002,-0.987,0.2291832000000001,0.572958,0.6302538000000001,0.33804522,6.3770225400000005,-17.46948942
6.67,667,0.11699999999999999,-0.03,-0.9940000000000001,0.4583664000000001,0.6875496,0.4583664000000001,0.3437748,6.382752120000001,-17.46375984
6.68,668,0.11599999999999999,-0.03,-0.997,1.0886202,0.286479,0.057295800000000015,0.35523396,6.3884817000000025,-17.46375984
6.6899999999999995,669,0.11699999999999999,-0.031,-0.995,1.6042823999999998,0.11459160000000004,-0.2291832000000001,0.36669312,6.3884817000000025,-17.46375984
6.7,670,0.11800000000000001,-0.031,-0.99,1.432395,0.0,-0.2291832000000001,0.39534102,6.3884817000000025,-17.46948942
6.71,671,0.11800000000000001,-0.03,-0.986,0.8594370000000001,-0.3437748,-0.2291832000000001,0.4010706000000001,6.382752120000001,-17.46948942
6.72,672,0.11800000000000001,-0.027999999999999997,-0.982,0.5156622000000001,-0.6875496,-0.11459160000000004,0.40680018,6.3770225400000005,-17.46948942
6.7299999999999995,673,0.11800000000000001,-0.024,-0.978,0.4583664000000001,-1.0313244000000001,-0.11459160000000004,0.41252976,6.3655633799999976,-17.475219
6.74,674,0.115,-0.02,-0.98,0.4583664000000001,-1.0886202,-0.2291832000000001,0.41825934,6.35410422,-17.475219
6.75,675,0.11699999999999999,-0.017,-0.983,0.5156622000000001,-0.6875496,-0.3437748,0.38388186,6.34264506,-17.48094858
6.76,676,0.11800000000000001,-0.015,-0.986,0.6875496,-0.286479,-0.3437748,0.39534102,6.33691548,-17.48667816
6.77,677,0.122,-0.013999999999999999,-0.987,0.8594370000000001,0.0,-0.286479,0.4010706000000001,6.33691548,-17.492407739999994
6.78,678,0.124,-0.016,-0.987,0.9740286,-0.057295800000000015,-0.057295800000000015,0.41252976,6.33691548,-17.492407739999994
6.79,679,0.126,-0.018000000000000002,-0.987,0.9740286,-0.1718874,0.0,0.42398892,6.33691548,-17.492407739999994
6.8,680,0.127,-0.021,-0.983,1.0313244000000001,-0.2291832000000001,0.2291832000000001,0.41825934,6.3655633799999976,-17.492407739999994
6.81,681,0.128,-0.027000000000000003,-0.982,0.9167328000000001,0.11459160000000004,0.40107059999999994,0.4297185000000001,6.3655633799999976,-17.492407739999994
6.82,682,0.128,-0.03,-0.983,0.6302538000000001,0.2291832000000001,0.5156622000000001,0.44117766,6.3655633799999976,-17.48667816
6.83,683,0.127,-0.032,-0.981,0.5156622000000001,0.0,0.5156622000000001,0.44690724,6.3655633799999976,-17.48094858
6.84,684,0.125,-0.032,-0.98,0.572958,0.0,0.3437748,0.4526368200000001,6.3655633799999976,-17.475219
6.85,685,0.122,-0.034,-0.981,0.572958,0.2291832000000001,0.2291832000000001,0.46982556,6.3884817000000025,-17.475219
6.86,686,0.121,-0.032,-0.981,0.572958,0.40107059999999994,0.2291832000000001,0.47555514,6.3884817000000025,-17.46948942
6.87,687,0.121,-0.031,-0.981,0.3437748,0.5156622000000001,0.2291832000000001,0.48128472,6.39421128,-17.46948942
6.88,688,0.11900000000000001,-0.028999999999999998,-0.9790000000000001,0.2291832000000001,0.3437748,0.1718874,0.48128472,6.39994086,-17.46375984
6.89,689,0.11699999999999999,-0.027999999999999997,-0.9790000000000001,0.286479,0.5156622000000001,0.2291832000000001,0.4870143000000001,6.40567044,-17.46375984
6.9,690,0.11599999999999999,-0.028999999999999998,-0.981,0.3437748,0.8594370000000001,0.2291832000000001,0.49274388,6.40567044,-17.45803026
6.91,691,0.113,-0.028999999999999998,-0.98,0.40107059999999994,1.0313244000000001,0.286479,0.49274388,6.417129600000001,-17.45803026
6.92,692,0.115,-0.031,-0.981,0.4583664000000001,0.7448454000000001,0.286479,0.4984734599999999,6.4228591800000014,-17.45230068
6.93,693,0.115,-0.033,-0.98,0.40107059999999994,0.7448454000000001,0.3437748,0.5042030399999999,6.428588760000001,-17.4465711
6.9399999999999995,694,0.11599999999999999,-0.032,-0.981,0.2291832000000001,0.8021411999999999,0.3437748,0.5099326200000001,6.4400479200000005,-17.4465711
6.95,695,0.11599999999999999,-0.03,-0.9840000000000001,0.1718874,0.9740286,0.1718874,0.5099326200000001,6.4400479200000005,-17.44084152
6.96,696,0.11599999999999999,-0.03,-0.987,0.2291832000000001,1.0313244000000001,0.1718874,0.5156622000000001,6.4457775,-17.44084152
6.97,697,0.11599999999999999,-0.031,-0.988,0.11459160000000004,0.9740286,0.1718874,0.5156622000000001,6.45723666,-17.435111940000002
6.9799999999999995,698,0.11599999999999999,-0.028999999999999998,-0.987,0.11459160000000004,0.7448454000000001,0.057295800000000015,0.5156622000000001,6.4686958200000015,-17.435111940000002
6.99,699,0.11800000000000001,-0.028999999999999998,-0.986,0.2291832000000001,0.4583664000000001,0.0,0.5156622000000001,6.4686958200000015,-17.435111940000002
7.0,700,0.12,-0.028999999999999998,-0.985,0.40107059999999994,0.1718874,0.0,0.5156622000000001,6.4744253999999986,-17.435111940000002
