TimeStamp(s),FrameCounter,AccX,AccY,AccZ,GyrX,GyrY,GyrZ,EulerX,EulerY,EulerZ
0.01,1,-0.087,-1.02,0.005,-1.0886202,-4.6982555999999995,-0.9740286,90.61903728,-4.612311900000001,-38.89238904
0.02,2,-0.081,-1.0170000000000001,0.006999999999999999,-0.8594370000000001,-3.9534102,-0.6875496,90.61330770000001,-4.60658232,-38.9324961
0.03,3,-0.07400000000000001,-1.011,0.012,-1.0313244000000001,-2.8074942000000003,-0.2291832000000001,90.60757812,-4.6008527400000006,-38.961144
0.04,4,-0.07400000000000001,-1.002,0.011000000000000001,-1.2032118,-2.0053530000000004,0.1718874,90.53309358,-4.57793442,-38.96687358000001
0.05,5,-0.077,-0.998,0.015,-1.4896908000000002,-1.3750992,0.3437748,90.52163442,-4.5836640000000015,-38.98406232000001
0.060000000000000005,6,-0.07400000000000001,-0.998,0.013999999999999999,-1.9480572,-0.9740286,0.40107059999999994,90.50444568,-4.5836640000000015,-38.99552148
0.06999999999999999,7,-0.07,-1.005,0.01,-1.8907614,-0.8021411999999999,0.40107059999999994,90.48152736,-4.58939358,-39.00125106
0.08,8,-0.068,-1.014,0.008,-2.0053530000000004,-0.8021411999999999,0.40107059999999994,90.46433862,-4.59512316,-39.01271022
0.09,9,-0.068,-1.015,0.004,-2.4064236,-1.2605076000000002,0.1718874,90.37839492,-4.5550161000000005,-39.00698064
0.09999999999999999,10,-0.068,-1.011,0.003,-2.6356068,-1.4896908000000002,0.057295800000000015,90.34974702,-4.5550161000000005,-39.0184398
0.11,11,-0.069,-1.0070000000000001,0.002,-2.6929026,-1.8334656000000005,0.057295800000000015,90.32682870000001,-4.5550161000000005,-39.04135812
0.12,12,-0.075,-1.0070000000000001,0.002,-2.5783110000000002,-1.6615782,0.2291832000000001,90.30391038,-4.5550161000000005,-39.05854686
0.13,13,-0.07400000000000001,-1.011,0.001,-2.0626488000000003,-1.0886202,0.5156622000000001,90.28099206,-4.56074568,-39.06427644
0.14,14,-0.071,-1.016,0.0,-1.6615782,-0.6302538000000001,0.7448454000000001,90.17785962,-4.5206386200000015,-39.05281728
0.15000000000000002,15,-0.07,-1.014,-0.001,-1.8907614,-0.3437748,0.8021411999999999,90.1549413,-4.5263682,-39.05281728
0.16,16,-0.07,-1.005,0.0,-2.291832,-0.057295800000000015,0.6875496,90.13202298,-4.53209778,-39.05854686
0.17,17,-0.067,-0.991,-0.002,-2.291832,0.4583664000000001,0.2291832000000001,90.10910466,-4.53782736,-39.05281728
0.18000000000000002,18,-0.065,-0.988,0.002,-2.291832,0.4583664000000001,0.0,90.08618634,-4.53782736,-39.04708770000001
0.19,19,-0.065,-0.99,0.016,-2.5210152000000003,0.2291832000000001,0.0,90.05180886000002,-4.48626114,-39.0184398
0.2,20,-0.071,-0.998,0.02,-2.6356068,0.1718874,0.057295800000000015,90.02316096,-4.48626114,-39.0184398
0.21000000000000002,21,-0.073,-1.0070000000000001,0.017,-3.0939732,0.5156622000000001,0.11459160000000004,89.99451306,-4.49199072,-39.01271022
0.22,22,-0.073,-1.01,0.011000000000000001,-3.6096353999999997,0.9167328000000001,0.11459160000000004,89.95440599999998,-4.49199072,-39.00698064
0.23,23,-0.07,-1.006,0.005,-3.8961144,0.8594370000000001,-0.057295800000000015,89.91429894,-4.49199072,-38.99552148
0.24000000000000002,24,-0.069,-1.004,0.004,-3.3231564,0.6302538000000001,-0.6302538000000001,89.84554397999999,-4.45761324,-38.97833274
0.25,25,-0.071,-1.0090000000000001,0.009000000000000001,-3.2085647999999996,0.5156622000000001,-1.0886202,89.8111665,-4.44615408,-38.97260316
0.26,26,-0.073,-1.01,0.008,-3.4377480000000005,0.3437748,-1.2605076000000002,89.77678902,-4.43469492,-38.97260316
0.27,27,-0.07400000000000001,-1.008,0.004,-3.6669312000000014,-0.11459160000000004,-1.2032118,89.74241154,-4.42323576,-38.97260316
0.28,28,-0.073,-1.004,0.002,-3.7815228,-0.6875496,-1.0886202,89.70230448,-4.4117766000000005,-38.97833274
0.29000000000000004,29,-0.075,-1.001,0.004,-3.9534102,-0.9167328000000001,-0.9167328000000001,89.64500868,-4.39458786,-38.98406232000001
0.3,30,-0.078,-0.995,0.006999999999999999,-4.4117766,-0.6302538000000001,-0.5156622000000001,89.59917204,-4.38885828,-38.99552148
0.31,31,-0.083,-0.992,0.011000000000000001,-5.042030400000002,0.0,-0.286479,89.54760582,-4.38885828,-38.99552148
0.32,32,-0.086,-1.003,0.004,-5.6722842,1.0313244000000001,-0.572958,89.49031002000002,-4.3831287,-38.98406232000001
0.33,33,-0.087,-1.0090000000000001,-0.012,-6.2452422,1.2032118,-0.9740286,89.42728464000002,-4.37166954,-38.97260316
0.34,34,-0.087,-1.0070000000000001,-0.013999999999999999,-6.130650599999999,0.9167328000000001,-1.2605076000000002,89.32988178,-4.36593996,-38.96687358000001
0.35000000000000003,35,-0.08800000000000001,-1.006,-0.012,-5.72958,0.9167328000000001,-1.3750992,89.27258598,-4.3544808,-38.961144
0.36000000000000004,36,-0.087,-1.008,-0.009000000000000001,-5.6149884000000005,0.8021411999999999,-1.2605076000000002,89.20956059999996,-4.34302164,-38.94968484
0.37,37,-0.085,-1.008,-0.013999999999999999,-5.844171599999999,0.8021411999999999,-1.2032118,89.1522648,-4.3315624800000005,-38.94395526
0.38,38,-0.078,-1.001,-0.022000000000000002,-6.130650599999999,0.8594370000000001,-1.2032118,89.08923942,-4.3201033199999985,-38.93822568
0.39,39,-0.075,-0.995,-0.026000000000000002,-6.130650599999999,0.6302538000000001,-1.2032118,88.98610698,-4.30291458,-38.92676652
0.4,40,-0.073,-0.993,-0.024,-5.7868758000000025,-0.1718874,-1.0886202,88.92881118,-4.29145542,-38.9324961
0.41000000000000003,41,-0.073,-0.991,-0.02,-5.5003968,-1.3178034,-0.7448454000000001,88.87151537999998,-4.28572584,-38.94395526
0.42000000000000004,42,-0.079,-0.993,-0.012,-5.6149884000000005,-2.3491277999999998,-0.11459160000000004,88.81994916,-4.27999626,-38.97260316
0.43,43,-0.083,-0.995,-0.009000000000000001,-5.9014674000000005,-2.9793816000000004,0.40107059999999994,88.76265336,-4.28572584,-39.00125106
0.44,44,-0.087,-0.996,-0.009000000000000001,-5.958763200000001,-3.5523396000000003,0.572958,88.69389840000002,-4.30291458,-39.04135812
0.45,45,-0.09300000000000001,-0.993,-0.004,-5.958763200000001,-3.7815228,0.3437748,88.63660259999996,-4.30864416,-39.08146518
0.46,46,-0.09699999999999999,-0.996,0.001,-5.9014674000000005,-3.4377480000000005,0.1718874,88.57930680000004,-4.30864416,-39.11584266
0.47000000000000003,47,-0.099,-1.003,0.005,-5.844171599999999,-3.1512689999999997,0.1718874,88.52201099999998,-4.30864416,-39.15022014
0.48000000000000004,48,-0.106,-1.0090000000000001,0.004,-6.417129599999999,-2.0626488000000003,0.286479,88.45898561999998,-4.31437374,-39.16740888
0.49,49,-0.11,-1.0070000000000001,0.0,-7.333862400000001,-0.7448454000000001,0.5156622000000001,88.39023066,-4.3544808,-39.19032720000001
0.5,50,-0.107,-1.0070000000000001,-0.011000000000000001,-7.7922288,-0.8021411999999999,0.6302538000000001,88.31001654,-4.36021038,-39.20178636
0.51,51,-0.107,-1.0090000000000001,-0.011000000000000001,-7.9641161999999985,-1.5469866,0.572958,88.22980242,-4.36593996,-39.21324552
0.52,52,-0.10400000000000001,-1.011,-0.006999999999999999,-8.078707799999998,-2.0626488000000003,0.4583664000000001,88.14958829999998,-4.37166954,-39.23616384
0.53,53,-0.1,-1.02,-0.002,-8.59437,-2.291832,0.6875496,88.0636446,-4.37739912,-39.25908216000001
0.54,54,-0.10099999999999999,-1.033,0.0,-9.2819196,-2.3491277999999998,1.0313244000000001,87.9777009,-4.40604702,-39.29345964
0.55,55,-0.105,-1.041,-0.003,-10.943497800000001,-2.5783110000000002,1.8907614,87.86883888,-4.42323576,-39.31637796
0.56,56,-0.105,-1.0270000000000001,-0.013000000000000001,-12.4904844,-3.380452200000001,2.5210152000000003,87.74851770000002,-4.45188366,-39.35075544
0.5700000000000001,57,-0.10300000000000001,-1.0090000000000001,-0.018000000000000002,-13.0061466,-4.297185,2.5210152000000003,87.61673736,-4.4748019800000005,-39.39659208
0.5800000000000001,58,-0.1,-1.008,-0.021,-13.464512999999998,-4.8128472,2.1772404,87.48495702,-4.50344988,-39.44242872
0.59,59,-0.10099999999999999,-1.005,-0.022000000000000002,-14.381245800000002,-5.443101,1.6615782,87.3474471,-4.5263682,-39.49972452
0.6,60,-0.1,-1.0090000000000001,-0.022000000000000002,-15.527161800000002,-6.2452422,1.0313244000000001,87.19274844,-4.53782736,-39.5627499
0.61,61,-0.099,-1.01,-0.028999999999999998,-16.558486199999994,-7.734933000000002,0.6875496,87.03232019999999,-4.549286520000001,-39.64296402
0.62,62,-0.09699999999999999,-1.008,-0.031,-17.3606274,-9.396511199999999,0.572958,86.86616238,-4.56074568,-39.74036688
0.63,63,-0.098,-1.008,-0.034,-17.7044022,-11.401864199999999,0.8021411999999999,86.69427498,-4.57220484,-39.85495848000001
0.64,64,-0.099,-1.006,-0.040999999999999995,-18.6784308,-12.834259199999998,1.3178034,86.51665799999998,-4.59512316,-39.98673882
0.65,65,-0.106,-1.0,-0.057999999999999996,-20.168121600000006,-14.610429000000002,1.8334656000000005,86.32758186,-4.62377106,-40.12997832
0.66,66,-0.113,-0.9840000000000001,-0.071,-20.1108258,-16.386598799999998,1.5469866,86.13850572,-4.64668938,-40.29613614
0.67,67,-0.11900000000000001,-0.97,-0.066,-19.365980399999998,-17.761698000000006,0.4583664000000001,85.95515916000002,-4.65814854,-40.47375312
0.68,68,-0.134,-0.9620000000000001,-0.046,-19.5378678,-17.761698000000006,-0.9740286,85.77754218,-4.65814854,-40.6513701
0.6900000000000001,69,-0.14300000000000002,-0.9620000000000001,-0.027000000000000003,-19.9962342,-16.7303736,-2.4637194,85.59419562000002,-4.65814854,-40.82898708000001
0.7000000000000001,70,-0.145,-0.975,-0.013000000000000001,-19.8816426,-14.5531332,-3.4950437999999995,85.41084906,-4.63523022,-40.97795616000001
0.7100000000000001,71,-0.145,-0.983,-0.022000000000000002,-22.1161788,-14.5531332,-3.9534102,85.19885459999998,-4.60658232,-41.12692524
0.72,72,-0.136,-0.9840000000000001,-0.026000000000000002,-22.345361999999998,-16.7876694,-3.7242269999999995,84.98686014,-4.57793442,-41.29881264
0.73,73,-0.131,-0.9940000000000001,-0.028999999999999998,-20.5691922,-18.162768600000003,-3.380452200000001,84.79778400000002,-4.56074568,-41.4821592
0.74,74,-0.134,-0.986,-0.024,-20.2254174,-18.9649098,-3.4950437999999995,84.62016702,-4.549286520000001,-41.6826945
0.75,75,-0.139,-0.966,-0.017,-19.4232762,-18.621135,-4.010706000000001,84.43682046,-4.5263682,-41.87177064
0.76,76,-0.142,-0.9540000000000001,-0.025,-18.2200644,-17.4179232,-4.6982555999999995,84.27066264,-4.49199072,-42.05511720000001
0.77,77,-0.14400000000000002,-0.956,-0.03,-16.386598799999998,-16.501190400000002,-5.1566220000000005,84.12169356000003,-4.45188366,-42.22127501999999
0.78,78,-0.139,-0.97,-0.027999999999999997,-14.037471,-16.501190400000002,-5.3285094000000015,83.98991322,-4.4117766000000005,-42.39316242
0.79,79,-0.136,-0.9940000000000001,-0.018000000000000002,-12.032118,-16.8449652,-4.9274388,83.90396952,-4.39458786,-42.57650898
0.8,80,-0.13699999999999998,-1.01,-0.004,-11.1153852,-17.5325148,-3.8961144,83.80656666,-4.37166954,-42.75412596
0.81,81,-0.127,-1.0090000000000001,-0.002,-11.401864199999999,-18.8503182,-3.0939732,83.7091638,-4.3544808,-42.9432021
0.8200000000000001,82,-0.11599999999999999,-0.993,0.0,-11.802934800000001,-20.340009,-2.8074942000000003,83.60603136,-4.34875122,-43.14946698
0.8300000000000001,83,-0.114,-0.977,-0.009000000000000001,-11.9748222,-21.886995600000002,-3.0939732,83.5086285,-4.33729206,-43.3729206
0.8400000000000001,84,-0.113,-0.971,-0.02,-11.45916,-22.631841,-3.4377480000000005,83.42841438,-4.3315624800000005,-43.602103799999995
0.85,85,-0.109,-0.9690000000000001,-0.024,-11.172680999999999,-23.0329116,-3.9534102,83.33101152,-4.31437374,-43.83701658
0.86,86,-0.109,-0.976,-0.027000000000000003,-11.3445684,-23.0902074,-4.3544808,83.23933824000002,-4.29145542,-44.07192936
0.87,87,-0.114,-0.9740000000000001,-0.043,-12.318597,-21.4286292,-4.4690724,83.13047622,-4.2685371,-44.28965340000001
0.88,88,-0.11199999999999999,-0.9520000000000001,-0.063,-13.5791046,-17.9335854,-4.4690724,83.01015504,-4.2398892,-44.47299996
0.89,89,-0.091,-0.9209999999999999,-0.08800000000000001,-14.381245800000002,-12.261301199999998,-4.0680017999999984,82.87264512,-4.21697088,-44.604780299999994
0.9,90,-0.063,-0.8959999999999999,-0.115,-14.9542038,-6.8182002000000015,-2.1772404,82.72367604,-4.19978214,-44.67353526
0.91,91,-0.038,-0.8640000000000001,-0.135,-15.6990492,-2.4637194,1.6042823999999998,82.56897738,-4.22270046,-44.69645358
0.92,92,-0.013000000000000001,-0.8190000000000001,-0.138,-17.5325148,0.286479,7.0473834,82.39136040000002,-4.29145542,-44.690723999999996
0.93,93,0.004,-0.765,-0.126,-19.652459399999998,1.7188740000000002,13.3499214,82.19082510000001,-4.42323576,-44.65634652
0.9400000000000001,94,-0.002,-0.741,-0.1,-21.199446,2.9220858,19.079501399999998,81.96737148,-4.6008527400000006,-44.59905072
0.9500000000000001,95,-0.031,-0.79,-0.066,-23.892348600000002,1.2605076000000002,23.491278,81.72099954000002,-4.83576552,-44.55894366
0.9600000000000001,96,-0.064,-0.885,-0.048,-27.1582092,-0.572958,25.84040580000001,81.4459797,-5.0935966200000005,-44.53029576
0.97,97,-0.10099999999999999,-1.04,-0.044000000000000004,-30.194886600000004,-0.286479,25.0955604,81.13658238,-5.339968560000001,-44.49591828
0.98,98,-0.134,-1.173,-0.053,-31.5699858,1.3750992,20.8556712,80.80999632,-5.54623344,-44.45581122
0.99,99,-0.16699999999999998,-1.274,-0.07200000000000001,-28.934378999999996,2.1199446,15.2406828,80.52351732,-5.7009320999999975,-44.41570416
1.0,100,-0.179,-1.273,-0.057999999999999996,-25.2674478,2.7501984,9.6256944,80.25995664,-5.79260538,-44.3755971
1.01,101,-0.156,-1.204,-0.045,-22.345361999999998,2.5783110000000002,3.6096353999999997,80.03077343999998,-5.8269828599999975,-44.34694920000001
1.02,102,-0.11599999999999999,-1.135,-0.027999999999999997,-19.480572,1.432395,-1.6042823999999998,79.83023813999998,-5.815523699999999,-44.33549004
1.03,103,-0.068,-1.1,-0.017,-17.8189938,0.8021411999999999,-6.0733548,79.65262116,-5.75249832,-44.34121962
1.04,104,-0.032,-1.107,-0.022000000000000002,-17.6471064,0.40107059999999994,-11.1153852,79.50938166,-5.62071798,-44.34694920000001
1.05,105,-0.003,-1.129,-0.018000000000000002,-16.7303736,-0.8021411999999999,-16.386598799999998,79.34322384000002,-5.466019319999999,-44.38705626
1.06,106,-0.013000000000000001,-1.162,-0.015,-15.813640800000002,-1.7761698000000001,-19.9962342,79.18852518,-5.2712136,-44.44435206
1.07,107,-0.03,-1.202,-0.034,-15.527161800000002,-0.11459160000000004,-23.14750320000001,79.03382652,-5.04775998,-44.490188700000004
1.08,108,-0.05,-1.246,-0.05,-14.667724800000002,2.86479,-25.668518399999996,78.88485744,-4.79565846,-44.51310702
1.09,109,-0.052000000000000005,-1.284,-0.045,-13.636400400000001,5.042030400000002,-26.7571386,78.76453626,-4.5206386200000015,-44.51310702
1.1,110,-0.036000000000000004,-1.305,-0.032,-14.610429000000002,4.1252976000000015,-26.4706596,78.61556718,-4.25707794,-44.52456618
1.11,111,-0.017,-1.2919999999999998,-0.046,-16.558486199999994,1.8907614,-25.668518399999996,78.44940936,-4.00497642,-44.55894366
1.12,112,-0.008,-1.271,-0.057999999999999996,-17.303331600000003,0.286479,-24.4080108,78.27179238,-3.77006364,-44.604780299999994
1.1300000000000001,113,-0.01,-1.264,-0.078,-17.589810600000003,-0.9167328000000001,-22.86102420000001,78.09990497999998,-3.5523396000000003,-44.6620761
1.1400000000000001,114,-0.006999999999999999,-1.255,-0.083,-16.615782,-0.6875496,-21.4286292,77.9509359,-3.34034514,-44.71364232000001
1.1500000000000001,115,-0.008,-1.2329999999999999,-0.078,-15.126091199999998,0.0,-20.5691922,77.80196682,-3.1398098400000003,-44.75947896
1.1600000000000001,116,-0.013000000000000001,-1.199,-0.079,-12.9488508,2.2345362,-19.652459399999998,77.67018648,-2.94500412,-44.7766677
1.17,117,-0.017,-1.163,-0.07400000000000001,-10.886202,4.4690724,-18.277360199999997,77.55559488,-2.76165756,-44.77093812
1.18,118,-0.033,-1.131,-0.069,-8.59437,6.7609043999999985,-16.4438946,77.46392159999998,-2.58977016,-44.74229022
1.19,119,-0.054000000000000006,-1.071,-0.07200000000000001,-6.417129599999999,9.5111028,-13.6936962,77.44100327999998,-2.44653066,-44.67926484
1.2,120,-0.07200000000000001,-1.002,-0.066,-3.0366774,12.7196676,-9.8548776,77.40662579999999,-2.32620948,-44.58186198
1.21,121,-0.083,-0.9209999999999999,-0.048,1.3750992,15.928232399999999,-5.3858052,77.41235538,-2.24026578,-44.43862248000001
1.22,122,-0.09300000000000001,-0.858,-0.034,4.7555514,17.761698000000006,-1.6615782,77.45246244,-2.18869956,-44.26673508
1.23,123,-0.098,-0.8079999999999999,-0.017,7.6203414,18.048177,2.1199446,77.52121740000003,-2.1772404,-44.08338852
1.24,124,-0.09699999999999999,-0.7659999999999999,-0.008,9.5111028,17.589810600000003,5.3858052,77.63007941999999,-2.2058883,-43.90577154
1.25,125,-0.084,-0.727,-0.011000000000000001,10.7143146,16.7303736,8.3651868,77.73321186000003,-2.25745452,-43.72242498
1.26,126,-0.052000000000000005,-0.688,-0.008,11.917526400000002,15.9855282,11.0580894,77.84207388,-2.3376686399999995,-43.544808
1.27,127,-0.001,-0.6509999999999999,-0.006999999999999999,12.318597,15.126091199999998,12.9488508,77.96239505999998,-2.4350715000000003,-43.36719102
1.28,128,0.048,-0.627,-0.01,11.8602306,13.750992000000002,14.209358400000001,78.07125708,-2.54393352,-43.20676278000001
1.29,129,0.094,-0.61,-0.013999999999999999,10.1986524,10.4851314,15.183387000000002,78.1801191,-2.65279554,-43.06352328
1.3,130,0.11800000000000001,-0.606,-0.021,7.9641161999999985,5.3858052,16.2147114,78.25460364,-2.80176462,-42.97757958
1.31,131,0.11699999999999999,-0.607,-0.043,4.6409598,-1.4896908000000002,17.3606274,78.30616986,-2.9736520200000003,-42.96039084
1.32,132,0.1,-0.604,-0.07200000000000001,2.1772404,-10.084060800000001,19.365980399999998,78.32908818,-3.1799169000000003,-43.01768664
1.33,133,0.075,-0.595,-0.068,0.6302538000000001,-19.079501399999998,22.058882999999998,78.34627692000002,-3.42628884,-43.16092614
1.34,134,0.040999999999999995,-0.546,-0.067,-2.0053530000000004,-28.418716800000002,24.0069402,78.34627692000002,-3.70130868,-43.39010934
1.35,135,0.015,-0.451,-0.071,-0.6875496,-37.1276784,23.3766864,78.36919524,-3.99351726,-43.70523624
1.36,136,0.008,-0.38,-0.154,-2.5783110000000002,-48.70143,18.5638392,78.38065440000003,-4.26280752,-44.14068432
1.37,137,-0.035,-0.408,-0.337,-6.7609043999999985,-63.59833800000001,6.9327918,78.36346566,-4.4404245000000016,-44.7480198
1.3800000000000001,138,-0.163,-0.632,-0.332,-11.6310474,-55.7488134,-16.4438946,78.30044028,-4.37739912,-45.32670738
1.3900000000000001,139,-0.44299999999999995,-0.973,-0.424,-30.8251404,3.0939732,-49.6754586,77.97385421999998,-3.91330314,-45.4069215
1.4000000000000001,140,-0.5589999999999999,-0.976,-0.503,-10.657018800000001,37.1276784,-78.8390208,77.84780346,-3.0825140400000004,-45.21211578
1.4100000000000001,141,-0.244,-0.935,-0.145,13.9228794,41.76863820000001,-76.7190762,77.97385421999998,-2.25745452,-44.96001426
1.42,142,0.105,-0.773,-0.067,2.6929026,24.2934192,-49.388979600000006,77.99104296,-1.73606274,-44.82250434
1.43,143,0.205,-0.9440000000000001,-0.1,-11.9748222,2.86479,-28.361421000000004,77.87072178,-1.45531332,-44.85688182
1.44,144,0.22699999999999998,-1.171,-0.132,-16.157415599999997,-1.5469866,-15.813640800000002,77.7217527,-1.27769634,-44.8912593
1.45,145,0.19399999999999998,-1.443,-0.078,-12.5477802,-0.6875496,-7.2192707999999985,77.59570194,-1.20894138,-44.91417762
1.46,146,0.142,-1.729,-0.08800000000000001,-13.464512999999998,2.0053530000000004,-5.5576926,77.45819202,-1.15164558,-44.90844804
1.47,147,0.059000000000000004,-1.8319999999999999,-0.13699999999999998,-15.527161800000002,1.0886202,-5.9014674000000005,77.29776378,-1.09434978,-44.91417762
1.48,148,-0.024,-1.8159999999999998,-0.105,-13.8655836,-4.2398892,-5.6722842,77.16025386,-1.04851314,-44.97147342
1.49,149,-0.015,-1.8630000000000002,-0.11800000000000001,-18.048177,-9.6256944,-5.72958,76.98263688,-1.01413566,-45.07460586000001
1.5,150,0.07200000000000001,-1.915,-0.171,-24.2361234,-15.6417534,-3.5523396000000003,76.74199452,-1.01413566,-45.24076368
1.51,151,0.131,-1.905,-0.18899999999999997,-27.043617600000005,-20.5118964,0.8594370000000001,76.47270426,-1.06570188,-45.4355694
1.52,152,0.11,-1.889,-0.18,-28.877083199999998,-21.4286292,8.307891,76.18622526,-1.19175264,-45.63037512
1.53,153,0.025,-1.834,-0.20600000000000002,-30.595957199999997,-25.210151999999997,17.5325148,75.88255752,-1.4209358399999998,-45.83091042
1.54,154,-0.061,-1.72,-0.182,-29.5646328,-27.3300966,26.69984280000001,75.59607852,-1.74179232,-46.037175299999994
1.55,155,-0.122,-1.5830000000000002,-0.196,-27.8457588,-26.5279554,35.236917,75.32105868,-2.14286292,-46.209062700000004
1.56,156,-0.151,-1.4580000000000002,-0.22,-22.4599536,-26.069589,40.6227222,75.10333464,-2.59549974,-46.35803177999999
1.57,157,-0.174,-1.357,-0.18899999999999997,-16.1001198,-26.5279554,42.7999626,74.95436556000001,-3.0653253000000005,-46.50700086000001
1.58,158,-0.21100000000000002,-1.291,-0.151,-13.120738199999998,-24.2934192,41.825934000000004,74.82831479999999,-3.5236917,-46.63305162
1.59,159,-0.267,-1.2309999999999999,-0.16899999999999998,-14.1520626,-19.5378678,38.90384820000001,74.70799362,-3.9648693599999993,-46.73045448000001
1.6,160,-0.292,-1.169,-0.17600000000000002,-13.464512999999998,-13.9228794,34.2055926,74.57621328,-4.325832900000001,-46.77629112
1.61,161,-0.263,-1.089,-0.163,-10.4851314,-8.5370742,28.9916748,74.47308084,-4.62377106,-46.78202069999999
1.62,162,-0.21,-0.991,-0.14400000000000002,-6.875496000000001,-5.2712136,24.2934192,74.3985963,-4.8701430000000006,-46.77056154
1.6300000000000001,163,-0.131,-0.867,-0.141,-1.8334656000000005,-2.9793816000000004,20.340009,74.38140755999999,-5.07640788,-46.74764322
1.6400000000000001,164,-0.047,-0.71,-0.132,4.3544808,-3.0366774,17.5325148,74.43297378,-5.2425657,-46.7247249
1.6500000000000001,165,0.021,-0.537,-0.10099999999999999,12.9488508,-3.6096353999999997,15.813640800000002,74.56475412,-5.40299394,-46.71899532
1.6600000000000001,166,0.049,-0.376,-0.11,19.767051000000002,-6.130650599999999,15.011499599999999,74.76528942,-5.5576926,-46.73618406
1.6700000000000002,167,0.067,-0.209,-0.113,26.642546999999997,-8.078707799999998,14.037471,75.04030925999999,-5.70666168,-46.77629112
1.68,168,0.09,-0.081,-0.095,37.1276784,-7.906820400000001,11.1153852,75.42419112,-5.8269828599999975,-46.82212776
1.69,169,0.08800000000000001,-0.003,-0.092,47.1544434,-7.734933000000002,6.417129599999999,75.89401668000002,-5.89000824,-46.8679644
1.7,170,0.032,0.036000000000000004,-0.055999999999999994,51.9672906,-10.4851314,1.0313244000000001,76.4325972,-5.91865614,-46.96536726
1.71,171,-0.051,0.045,-0.034,52.2537696,-14.037471,-3.5523396000000003,76.97690730000002,-5.90719698,-47.10287718
1.72,172,-0.113,0.011000000000000001,-0.047,48.987909,-14.381245800000002,-5.844171599999999,77.4925695,-5.8728194999999985,-47.25184625999999
1.73,173,-0.124,-0.028999999999999998,-0.042,44.117765999999996,-10.657018800000001,-6.2452422,77.95666548,-5.8269828599999975,-47.36643786
1.74,174,-0.084,-0.048,-0.043,39.19032720000001,-6.3025379999999975,-5.844171599999999,78.35200649999999,-5.7868758,-47.43519282
1.75,175,-0.034,-0.054000000000000006,-0.027000000000000003,37.757932200000006,-4.9274388,-4.8701430000000006,78.74161794,-5.7467687399999985,-47.49248862
1.76,176,0.031,-0.095,-0.016,33.2888598,-0.9740286,-2.1772404,79.07966316,-5.72385042,-47.50394778
1.77,177,0.11699999999999999,-0.263,-0.133,14.7250206,8.5370742,2.5210152000000003,79.21717308,-5.735309579999999,-47.4122745
1.78,178,0.22699999999999998,-0.6509999999999999,-0.498,-13.2926256,9.396511199999999,14.896907999999998,79.06820400000002,-5.86708992,-47.29195332
1.79,179,0.349,-1.43,-0.968,-30.252182399999995,-45.3782736,45.607456799999994,78.80464332,-6.382752120000001,-47.65291686
1.8,180,0.479,-2.031,-0.682,-12.261301199999998,-75.9742308,81.64651500000002,78.75880667999998,-7.305214500000001,-48.2430636
1.81,181,-0.006999999999999999,-1.515,-0.023,13.9228794,-56.0352924,68.182002,78.96507156,-8.06151906,-48.66132294000001
1.82,182,-0.6559999999999999,-1.021,-0.018000000000000002,-3.1512689999999997,-32.945085,16.4438946,78.98226030000002,-8.27351352,-48.959261100000006
1.83,183,-1.031,-0.9690000000000001,-0.11800000000000001,-1.9480572,-5.7868758000000025,-17.303331600000003,78.97653072,-8.11308528,-49.04520480000001
1.84,184,-1.167,-1.3,-0.147,-6.8182002000000015,19.9962342,-27.3300966,78.88485744,-7.82660628,-48.90769488
1.85,185,-0.943,-1.7369999999999999,-0.265,-10.2559482,33.3461556,-27.8457588,78.73588836,-7.500020219999999,-48.63267504
1.86,186,-0.44299999999999995,-1.9040000000000001,-0.242,-9.6256944,38.90384820000001,-22.517249399999997,78.59264886000003,-7.2192707999999985,-48.29462982
1.87,187,-0.031,-1.86,-0.19699999999999998,-11.401864199999999,44.4615408,-13.5791046,78.41503188,-7.01300592,-47.88782964
1.8800000000000001,188,0.22399999999999998,-1.925,-0.163,-11.8602306,48.4722468,-5.6722842,78.2374149,-6.875496000000001,-47.42373366
1.8900000000000001,189,0.14800000000000002,-1.9969999999999999,-0.134,-13.521808800000002,47.555514,-1.145916,78.03687959999998,-6.77809314,-46.95963768
1.9000000000000001,190,-0.165,-1.954,-0.182,-15.6417534,48.0138804,0.0,77.81915556,-6.69214944,-46.48981212
1.9100000000000001,191,-0.418,-1.913,-0.215,-13.2926256,54.20182679999999,-4.6409598,77.61289067999998,-6.54890994,-45.97414992
1.9200000000000002,192,-0.414,-1.821,-0.228,-8.9381448,63.08267579999999,-12.0894138,77.44673286,-6.31399716,-45.38400318
1.93,193,-0.222,-1.6780000000000002,-0.19699999999999998,-3.2658606,69.041439,-17.0168526,77.33787084,-6.02178858,-44.7480198
1.94,194,0.006,-1.5490000000000002,-0.18899999999999997,-0.9167328000000001,70.35924240000001,-18.8503182,77.25765672,-5.6952025200000005,-44.10057726
1.95,195,0.184,-1.455,-0.17,0.8594370000000001,69.4998054,-16.902261,77.19463134,-5.3972643599999985,-43.458864299999995
1.96,196,0.252,-1.368,-0.151,1.6042823999999998,63.712929599999995,-12.032118,77.14879470000002,-5.1566220000000005,-42.86298798
1.97,197,0.244,-1.2570000000000001,-0.126,4.6982555999999995,55.40503860000001,-5.844171599999999,77.14306512,-4.99619376,-42.33586662
1.98,198,0.20199999999999999,-1.1179999999999999,-0.09,8.3651868,45.3782736,0.6875496,77.18317218,-4.91025006,-41.89468896
1.99,199,0.106,-0.9159999999999999,-0.092,14.8396122,36.38283300000001,5.2712136,77.30922294000001,-4.8701430000000006,-41.51653668
2.0,200,0.036000000000000004,-0.7120000000000001,-0.1,22.1161788,31.741873200000004,7.6203414,77.49829908000002,-4.88160216,-41.18995062000001
2.01,201,-0.033,-0.499,-0.084,31.22621100000001,28.81978740000001,8.193299399999999,77.79050766,-4.90452048,-40.88628288
2.02,202,-0.096,-0.326,-0.040999999999999995,39.7059894,28.3041252,7.734933000000002,78.16293035999998,-4.9217092199999986,-40.58834472
2.03,203,-0.11699999999999999,-0.182,0.0,41.9978214,28.3041252,7.333862400000001,78.55827138,-4.94462754,-40.29613614
2.04,204,-0.08,-0.086,0.006,44.34694920000001,27.960350399999996,6.875496000000001,78.98226030000002,-4.97327544,-40.00965714
2.05,205,-0.022000000000000002,-0.055999999999999994,-0.006,44.4615408,27.1582092,6.2452422,79.40624921999998,-4.9847345999999995,-39.72890772
2.0599999999999996,206,0.002,-0.065,-0.071,40.7946096,25.668518399999996,5.2712136,79.79586065999997,-4.99619376,-39.45961746
2.07,207,-0.005,-0.061,-0.12300000000000001,35.9817624,22.803728399999997,5.1566220000000005,80.13390588000001,-5.00765292,-39.22470468
2.0799999999999996,208,-0.003,-0.024,-0.155,27.960350399999996,18.621135,6.0733548,80.40319614,-5.03630082,-39.02989896
2.09,209,-0.003,0.025,-0.16699999999999998,23.204798999999998,16.959556799999998,6.1879464,80.59227228,-5.07640788,-38.8465524
2.0999999999999996,210,-0.006999999999999999,0.036000000000000004,-0.132,17.8762896,16.7303736,3.9534102,80.7584301,-5.0935966200000005,-38.67466500000001
2.11,211,0.008,0.055999999999999994,-0.08,12.7196676,18.048177,-0.9167328000000001,80.86729212,-5.05921914,-38.49704802
2.1199999999999997,212,0.043,0.064,-0.028999999999999998,14.8396122,19.4232762,-7.6776372,80.99907246000002,-4.9560867,-38.31370146
2.13,213,0.08,0.032,-0.027000000000000003,19.308684600000007,13.2353298,-13.6936962,81.18814859999998,-4.80138804,-38.20483944
2.1399999999999997,214,0.115,-0.006999999999999999,0.036000000000000004,24.9809688,1.145916,-17.0741484,81.45170928,-4.60658232,-38.20483944
2.15,215,0.075,-0.22899999999999998,-0.125,19.4232762,-21.4286292,-18.048177,81.66943332,-4.45188366,-38.43975222
2.1599999999999997,216,-0.069,-0.74,-0.12300000000000001,-3.9534102,-30.882436199999997,-41.6540466,81.65797416000002,-4.0794609600000005,-38.80071576
2.17,217,-0.371,-1.568,-0.5710000000000001,-52.2537696,64.9161414,-81.4173318,81.08501616,-3.2085648000000004,-38.29078314
2.1799999999999997,218,-0.564,-2.1430000000000002,-0.573,13.0061466,82.62054359999998,-114.70619159999998,81.17668943999998,-1.9767051,-37.64907018
2.19,219,0.022000000000000002,-2.274,0.14800000000000002,2.4637194,74.198061,-75.8596392,81.17668943999998,-1.13445684,-37.03600512000001
2.1999999999999997,220,0.516,-1.69,-0.182,-27.3300966,35.9244666,-23.4339822,80.89021044,-0.86516658,-36.72087822
2.21,221,0.49,-1.639,-0.37799999999999995,-26.2987722,10.313244000000001,-5.042030400000002,80.62092018,-0.8021412000000001,-36.62920494
2.2199999999999998,222,0.3,-2.032,-0.235,-16.272007199999994,1.9480572,2.3491277999999998,80.45476235999998,-0.8250595199999999,-36.60628662000001
2.23,223,0.162,-2.231,-0.172,-23.14750320000001,1.0886202,1.4896908000000002,80.21412000000002,-0.8422482600000001,-36.59482746
2.2399999999999998,224,0.012,-2.21,-0.1,-18.6784308,-6.875496000000001,0.286479,80.03077343999998,-0.8537074199999999,-36.66358242
2.25,225,-0.1,-2.246,-0.054000000000000006,-21.2567418,-11.0007936,2.6356068,79.81877897999998,-0.89954406,-36.77244444
2.26,226,-0.08199999999999999,-2.237,-0.094,-23.491278,-11.5164558,5.1566220000000005,79.5838662,-0.96829902,-36.87557688
2.27,227,-0.023,-2.145,-0.154,-23.0902074,-13.5791046,8.250595200000001,79.354683,-1.07143146,-36.99589806
2.28,228,0.002,-1.975,-0.184,-19.2513888,-19.480572,10.886202,79.16560686,-1.21467096,-37.16778546
2.29,229,-0.006999999999999999,-1.837,-0.17,-18.334656,-27.7311672,14.381245800000002,78.98798988,-1.39801752,-37.41415739999999
2.3,230,-0.068,-1.72,-0.17600000000000002,-18.3919518,-35.122325399999994,18.8503182,78.81610248000001,-1.64438946,-37.72355472
2.31,231,-0.165,-1.561,-0.223,-16.558486199999994,-39.5913978,21.7151082,78.66140382,-1.9194093000000003,-38.0730591
2.32,232,-0.275,-1.382,-0.222,-10.5424272,-42.34159620000001,19.9962342,78.57546012,-2.18869956,-38.4454818
2.3299999999999996,233,-0.321,-1.204,-0.191,-3.6669312000000014,-41.0810886,13.8082878,78.55827138,-2.39496444,-38.8179045
2.34,234,-0.28300000000000003,-1.038,-0.154,1.8334656000000005,-38.67466500000001,5.958763200000001,78.60983759999998,-2.57258142,-39.20178636
2.3499999999999996,235,-0.185,-0.8759999999999999,-0.106,7.6203414,-36.32553720000001,-1.0313244000000001,78.70724046000002,-2.61841806,-39.55702032
2.36,236,-0.08,-0.713,-0.099,13.0061466,-36.38283300000001,-6.417129599999999,78.86193912,-2.61841806,-39.92371344
2.3699999999999997,237,0.015,-0.55,-0.08900000000000001,19.5378678,-36.7839036,-9.3392154,79.07966316,-2.58404058,-40.29613614
2.38,238,0.073,-0.402,-0.095,24.923673,-38.5027776,-9.1100322,79.354683,-2.5496631,-40.69147716
2.3899999999999997,239,0.111,-0.23800000000000002,-0.079,29.392745399999995,-40.680018,-6.3025379999999975,79.67553948,-2.53247436,-41.09254776
2.4,240,0.105,-0.08800000000000001,-0.09699999999999999,34.3201842,-44.06047020000001,-2.4637194,80.04796218,-2.57258142,-41.52226626
2.4099999999999997,241,0.063,0.018000000000000002,-0.136,35.7525792,-43.65939960000001,-0.7448454000000001,80.43757362,-2.62414764,-41.94625518
2.42,242,0.025,0.094,-0.13,34.5493674,-40.2789474,-2.2345362,80.80999632,-2.65279554,-42.34159620000001
2.4299999999999997,243,-0.025,0.146,-0.127,32.8877892,-37.3568616,-7.0473834,81.16523028,-2.62414764,-42.71974848000001
2.44,244,-0.081,0.175,-0.11900000000000001,28.3041252,-31.340802600000004,-12.6623718,81.45170928,-2.5496631,-43.04060496
2.4499999999999997,245,-0.114,0.17600000000000002,-0.121,22.4026578,-23.319390600000002,-14.667724800000002,81.69808122,-2.42934192,-43.2869769
2.46,246,-0.106,0.133,-0.124,20.5691922,-15.297978599999999,-11.1153852,81.91580526,-2.3376686399999995,-43.45313472
2.4699999999999998,247,-0.073,0.048,-0.091,18.277360199999997,-13.521808800000002,-3.380452200000001,82.1048814,-2.3147503200000004,-43.58491506
2.48,248,-0.040999999999999995,0.0,-0.109,13.2926256,-13.750992000000002,7.9641161999999985,82.2481209,-2.4064236,-43.71096582
2.4899999999999998,249,-0.062,-0.03,-0.105,12.261301199999998,-17.3606274,17.761698000000006,82.3627125,-2.61268848,-43.8599349
2.5,250,-0.064,-0.073,-0.08900000000000001,9.1100322,-17.246035799999998,23.835052800000003,82.46584494,-2.86479,-43.99744482000001
2.51,251,-0.01,-0.205,-0.06,4.2398892,-8.4224826,24.809081399999997,82.51168158,-3.11689152,-44.04901104
2.52,252,0.20800000000000002,-0.669,-0.327,-29.335449600000004,11.0580894,29.621928600000004,82.20801384,-3.40337052,-43.90577154
2.53,253,0.40399999999999997,-1.59,-1.011,-67.2079734,-50.6494872,58.78549079999999,81.56057129999998,-4.04508348,-44.32976046
2.54,254,0.537,-2.219,-1.043,-60.275181599999996,-94.99643640000001,96.0850566,81.02199078,-5.10505578,-45.12617208
2.55,255,-0.006,-1.2309999999999999,0.255,28.5906042,-64.17129600000001,69.9581718,81.37722474,-5.86708992,-45.64756386
2.56,256,-0.784,-1.0070000000000001,0.061,-3.7815228,-38.90384820000001,2.0053530000000004,81.38295432,-5.93584488,-46.03144572000001
2.57,257,-1.199,-1.405,-0.081,-9.2819196,-14.266654199999998,-18.907614,81.30274019999997,-5.76968706,-46.19760354
2.5799999999999996,258,-1.3319999999999999,-1.8430000000000002,-0.105,-15.527161800000002,-4.8128472,-16.272007199999994,81.15377112,-5.6149884000000005,-46.27208808
2.59,259,-0.884,-2.349,-0.165,-13.6936962,0.5156622000000001,-8.7089616,81.0162612,-5.5290447,-46.28354724
2.5999999999999996,260,-0.25,-2.437,-0.091,-12.7196676,8.078707799999998,3.8961144,80.87875127999997,-5.5576926,-46.19760354
2.61,261,0.009000000000000001,-2.2840000000000003,-0.085,-7.1046792000000005,17.0741484,9.9694692,80.78707800000002,-5.63790672,-46.014256980000006
2.6199999999999997,262,0.005,-2.187,-0.124,-4.583664,20.168121600000006,10.026765,80.71832304,-5.70666168,-45.80226252
2.63,263,-0.141,-2.144,-0.155,-0.8594370000000001,20.8556712,8.7662574,80.68394556000001,-5.76968706,-45.5788089
2.6399999999999997,264,-0.244,-2.12,-0.122,5.844171599999999,25.152856200000002,3.2085647999999996,80.71259346,-5.76395748,-45.32670738
2.65,265,-0.244,-2.011,-0.156,9.8548776,32.4294228,-2.8074942000000003,80.78134842,-5.6952025200000005,-45.01158048
2.6599999999999997,266,-0.17300000000000001,-1.858,-0.157,16.386598799999998,40.1643558,-5.2139178,80.90166959999998,-5.5863404999999995,-44.62196904
2.67,267,-0.04,-1.681,-0.127,19.652459399999998,45.9512316,-3.7815228,81.05063868,-5.48893764,-44.1750618
2.6799999999999997,268,0.061,-1.484,-0.078,21.600516600000002,50.3630082,-2.0626488000000003,81.21679650000002,-5.40299394,-43.67658834
2.69,269,0.1,-1.298,-0.038,21.600516600000002,53.22779820000001,-1.6615782,81.39441348,-5.2998615,-43.14946698
2.6999999999999997,270,0.1,-1.125,-0.028999999999999998,21.142150199999996,54.14453099999999,-2.4637194,81.54911214,-5.20818822,-42.61661604
2.71,271,0.044000000000000004,-0.9590000000000001,-0.057999999999999996,22.058882999999998,54.0299394,-2.8074942000000003,81.72099954000002,-5.11651494,-42.0837651
2.7199999999999998,272,-0.006,-0.772,-0.068,26.9863218,53.11320660000001,-2.8074942000000003,81.93872358,-5.02484166,-41.56237331999999
2.73,273,-0.027999999999999997,-0.594,-0.077,32.372127,51.33703679999999,-3.0366774,82.219473,-4.93316838,-41.05817028
2.7399999999999998,274,-0.034,-0.41200000000000003,-0.066,35.52339600000001,49.1025006,-2.6356068,82.52887032,-4.85295426,-40.57115598
2.75,275,-0.025,-0.249,-0.075,35.3515086,46.8679644,-1.4896908000000002,82.84399721999998,-4.78992888,-40.10706
2.76,276,-0.02,-0.11199999999999999,-0.09,33.002380800000005,44.2896534,1.3750992,83.1362058,-4.76128098,-39.66588234
2.77,277,0.01,-0.009000000000000001,-0.096,32.257535399999995,42.34159620000001,5.3285094000000015,83.4226848,-4.77274014,-39.23616384
2.78,278,0.047,0.053,-0.183,30.8251404,35.9817624,8.5370742,83.69770464000001,-4.82430636,-38.86947072
2.79,279,0.131,0.10099999999999999,-0.20800000000000002,31.627281600000003,28.7051958,9.5111028,83.9669949,-4.87587258,-38.56007340000001
2.8,280,0.226,0.075,-0.168,28.2468294,22.517249399999997,8.880849000000003,84.23055558,-4.94462754,-38.32516062000001
2.81,281,0.24,0.057,-0.17800000000000002,22.6891368,13.0061466,9.1100322,84.44827962000002,-5.02484166,-38.18192112
2.82,282,0.17300000000000001,0.024,-0.102,18.449247600000003,2.5210152000000003,10.2559482,84.63162618,-5.1222445200000015,-38.14754364
2.8299999999999996,283,0.08800000000000001,-0.004,-0.018000000000000002,8.193299399999999,-3.380452200000001,10.026765,84.71756988,-5.22537696,-38.17046196
2.84,284,0.049,-0.019,-0.003,-1.5469866,1.3178034,6.3598338,84.69465156,-5.2654840200000015,-38.14181406
2.8499999999999996,285,0.078,-0.039,-0.024,-7.0473834,14.4958374,0.286479,84.60870786,-5.25975444,-37.99857456
2.86,286,0.083,-0.062,-0.037000000000000005,-8.9954406,26.0122932,-6.2452422,84.48838668,-5.17954032,-37.75220262000001
2.8699999999999997,287,0.052000000000000005,-0.155,-0.013999999999999999,-10.4278356,27.559279800000002,-13.0634424,84.35660634000001,-5.03057124,-37.48864194
2.88,288,-0.067,-0.447,-0.285,-30.7105488,15.6990492,-25.4393352,84.03002028,-4.77274014,-37.36259118
2.8899999999999997,289,-0.131,-0.97,-0.406,-46.1804148,50.133825,-50.76407879999999,83.50289891999998,-4.2398892,-36.9271431
2.9,290,-0.657,-1.567,-0.914,-57.00932099999999,110.81007720000001,-90.92843459999999,82.84399721999998,-3.2486718599999995,-35.94738492000001
2.9099999999999997,291,-0.653,-2.008,-0.319,4.8128472,76.54718879999999,-104.5075392,82.85545637999998,-2.14286292,-35.31713112
2.92,292,0.21600000000000005,-1.714,0.273,-21.199446,24.0069402,-51.1651494,82.62627318,-1.6157415599999996,-35.14524372
2.9299999999999997,293,0.7659999999999999,-1.464,-0.355,-37.013086799999996,-5.5003968,-9.3392154,82.25385048,-1.53552744,-35.21399868
2.94,294,0.9440000000000001,-1.557,-0.408,-14.9542038,-23.5485738,7.5057497999999985,82.11061098,-1.62147114,-35.4374523
2.9499999999999997,295,0.4970000000000001,-1.883,-0.289,-9.740286,-30.252182399999995,7.9641161999999985,82.02466728,-1.73606274,-35.72393130000001
2.96,296,-0.121,-2.2119999999999997,-0.294,-0.6302538000000001,-42.05511720000001,-0.057295800000000015,82.03612644,-1.78189938,-36.13646106
2.9699999999999998,297,-0.415,-2.431,0.011000000000000001,8.250595200000001,-43.831286999999996,-5.9014674000000005,82.13925888,-1.77044022,-36.57763872
2.98,298,-0.414,-2.4090000000000003,0.059000000000000004,-3.2658606,-35.695283399999994,-8.3651868,82.12207014,-1.7246035799999997,-36.93860226
2.9899999999999998,299,-0.28,-2.282,-0.075,-8.7089616,-28.81978740000001,-10.2559482,82.04758559999998,-1.6558486199999998,-37.23654042
3.0,300,-0.125,-2.175,-0.066,-8.078707799999998,-25.382039399999996,-11.2872726,81.97310106,-1.5756344999999998,-37.5001011
3.01,301,-0.075,-2.076,-0.055999999999999994,-12.776963400000001,-29.335449600000004,-4.9847346,81.85850946000002,-1.55844576,-37.79803926
3.02,302,-0.096,-1.9880000000000002,-0.055,-16.615782,-33.804522,7.906820400000001,81.7038108,-1.6787669399999998,-38.11889574
3.03,303,-0.136,-1.7690000000000001,-0.141,-19.308684600000007,-37.81522800000001,21.0848544,81.52046424,-1.93086846,-38.46267054
3.04,304,-0.243,-1.548,-0.209,-17.303331600000003,-38.38818600000001,29.67922440000001,81.360036,-2.28037284,-38.80071576
3.05,305,-0.35700000000000004,-1.381,-0.233,-14.266654199999998,-33.6326346,30.997027799999998,81.23398524000002,-2.62414764,-39.08719476
3.06,306,-0.429,-1.23,-0.214,-12.891555,-24.8663772,27.1582092,81.11939364,-2.9220857999999996,-39.29345964
3.07,307,-0.4,-1.034,-0.223,-13.0061466,-16.8449652,19.8816426,80.99334288,-3.1398098400000003,-39.43096956
3.08,308,-0.28300000000000003,-0.8079999999999999,-0.251,-3.4377480000000005,-13.3499214,10.5424272,80.97042456,-3.2658606,-39.54556116
3.09,309,-0.11,-0.6409999999999999,-0.256,10.657018800000001,-10.313244000000001,3.8388186,81.05063868,-3.31742682,-39.64296402
3.0999999999999996,310,0.057999999999999996,-0.508,-0.153,30.022999199999997,-12.7196676,2.4064236,81.36576558,-3.3518043,-39.75755562
3.11,311,0.188,-0.402,0.024,37.41415739999999,-16.272007199999994,5.6149884000000005,81.75537702,-3.42055926,-39.90652470000001
3.1199999999999997,312,0.22899999999999998,-0.245,-0.013000000000000001,33.231564,-24.1788276,9.568398599999998,82.11061098,-3.54088044,-40.12997832
3.13,313,0.24600000000000002,-0.098,-0.025,39.534102000000004,-29.793815999999996,11.917526400000002,82.5345999,-3.68984952,-40.40499816
3.1399999999999997,314,0.214,-0.011000000000000001,0.032,40.393539000000004,-33.2888598,12.9488508,82.97004798,-3.81590028,-40.69720674
3.15,315,0.15,0.069,-0.032,32.085648000000006,-37.0703826,10.2559482,83.32528194,-3.94768062,-41.0524407
3.1599999999999997,316,0.061,0.11800000000000001,-0.135,26.2987722,-38.27359439999999,4.2398892,83.62322009999998,-4.022165159999999,-41.41913382
3.17,317,-0.026000000000000002,0.091,-0.18100000000000002,21.199446,-36.096354,-2.86479,83.86959204,-4.01643558,-41.78009736
3.1799999999999997,318,-0.111,0.049,-0.252,12.9488508,-30.022999199999997,-8.250595200000001,84.0242907,-3.95913978,-42.0837651
3.19,319,-0.124,0.055,-0.264,8.9381448,-21.7151082,-8.078707799999998,84.10450482,-3.91330314,-42.30721872
3.1999999999999997,320,-0.11599999999999999,0.071,-0.19399999999999998,6.8182002000000015,-21.944291399999997,-0.8594370000000001,84.19044852,-3.9190327200000006,-42.52494276
3.21,321,-0.071,0.105,-0.168,5.72958,-21.314037600000002,8.880849000000003,84.26493306,-4.022165159999999,-42.72547806
3.2199999999999998,322,-0.022000000000000002,0.10300000000000001,-0.114,8.078707799999998,-16.2147114,16.7876694,84.36233591999998,-4.19978214,-42.86871756
3.23,323,0.01,0.024,-0.063,8.5370742,-11.2872726,19.9962342,84.4540092,-4.40604702,-42.96039084
3.2399999999999998,324,0.052000000000000005,-0.239,-0.036000000000000004,0.572958,-1.0313244000000001,19.8816426,84.4540092,-4.5836640000000015,-42.9432021
3.25,325,0.22899999999999998,-0.83,-0.434,-41.883229799999995,16.673077799999998,29.8511118,84.01283154000002,-4.8701430000000006,-42.75412596
3.26,326,0.311,-2.074,-1.242,-77.1201468,-40.7946096,64.9161414,83.26798613999998,-5.5519630200000005,-43.09790076
3.27,327,0.371,-2.031,-0.655,-49.04520479999999,-66.5777196,97.975818,82.83826764,-6.58328742,-43.64221086
3.28,328,-0.335,-0.997,-0.006,39.247623,-23.319390600000002,47.7274014,83.26225656,-7.076031300000001,-43.81409826
3.29,329,-1.072,-1.25,0.006,-5.9014674000000005,2.0626488000000003,2.6929026,83.19923118,-7.11040878,-43.79690952
3.3,330,-1.376,-1.729,-0.363,-19.2513888,29.5646328,-13.750992000000002,82.9643184,-6.94998054,-43.51616009999999
3.31,331,-1.158,-1.7180000000000002,-0.26,4.3544808,45.83664,-11.6310474,82.94712966,-6.7895523,-43.08071202
3.32,332,-0.574,-1.9280000000000002,-0.29,9.8548776,55.92070079999999,-0.8594370000000001,82.97577756,-6.7322565,-42.52494276
3.33,333,-0.013000000000000001,-2.184,-0.237,8.880849000000003,62.0513514,11.0007936,82.98723672,-6.77809314,-41.89468896
3.34,334,0.19899999999999998,-2.113,-0.21100000000000002,5.0993262,59.24385720000001,15.870936600000002,82.95858882,-6.875496000000001,-41.28735348
3.3499999999999996,335,0.127,-1.9509999999999998,-0.212,6.7609043999999985,54.25912260000001,13.8655836,82.95285924,-6.9614397000000015,-40.73158422
3.36,336,-0.034,-1.989,-0.145,11.3445684,50.47759979999999,7.9641161999999985,82.99869588,-6.990087599999999,-40.2216516
3.3699999999999997,337,-0.17,-1.994,-0.095,13.8082878,49.6754586,1.0313244000000001,83.07318042,-6.955710119999999,-39.72317814
3.38,338,-0.223,-1.919,-0.071,17.18874,53.34238979999999,-4.4117766,83.17631286,-6.858307260000001,-39.196056780000006
3.3899999999999997,339,-0.217,-1.83,-0.052000000000000005,18.506543399999998,57.86875799999999,-5.6722842,83.29090446000002,-6.74944524,-38.62882836
3.4,340,-0.15,-1.71,-0.045,22.058882999999998,62.5097178,-1.3750992,83.43414396,-6.680690279999999,-38.01003372
3.4099999999999997,341,-0.079,-1.584,-0.01,24.1788276,65.94746579999999,5.7868758000000025,83.5945722,-6.680690279999999,-37.34540244
3.42,342,-0.022000000000000002,-1.403,0.047,24.522602399999997,70.0154676,14.0947668,83.74927086,-6.7609043999999985,-36.62920494
3.4299999999999997,343,0.032,-1.186,0.032,22.2307704,74.5418358,19.7097552,83.87532162,-6.89268474,-35.8671708
3.44,344,0.055999999999999994,-0.998,-0.013000000000000001,20.340009,77.34933000000002,23.14750320000001,83.98418364,-7.0416538200000005,-35.07075918
3.4499999999999997,345,0.062,-0.804,-0.044000000000000004,25.382039399999996,75.4012728,24.923673,84.13315272,-7.2307299600000015,-34.291536300000004
3.46,346,0.07,-0.64,-0.064,33.8618178,72.5937786,25.0382646,84.37379508000002,-7.4198061,-33.54096132
3.4699999999999998,347,0.055999999999999994,-0.46799999999999997,-0.09699999999999999,39.5913978,71.04679200000002,23.9496444,84.67173324000002,-7.60888224,-32.80757508
3.48,348,0.015,-0.315,-0.153,43.602103799999995,70.5884256,21.944291399999997,85.00404888,-7.7750400599999985,-32.07991842
3.4899999999999998,349,-0.021,-0.18600000000000005,-0.204,46.696077,68.75496,20.3973048,85.34782368,-7.94119788,-31.37518008
3.5,350,-0.042,-0.078,-0.182,50.82137460000001,66.23394479999999,20.05353,85.76035343999997,-8.10162612,-30.693360060000003
3.51,351,-0.028999999999999998,0.040999999999999995,-0.125,56.5509546,62.96808420000001,21.027558600000006,86.23590858,-8.2792431,-30.04018794000001
3.52,352,0.06,0.092,-0.094,63.02538000000001,55.576926,20.626488000000002,86.78594826,-8.45686008,-29.46722994
3.53,353,0.135,0.096,-0.024,60.8481396,48.529542600000006,16.7303736,87.32452878000002,-8.60582916,-28.968756480000003
3.54,354,0.157,0.062,0.006999999999999999,51.56622,47.4409224,11.401864199999999,87.76570644,-8.68604328,-28.47028302
3.55,355,0.16399999999999998,0.026000000000000002,-0.018000000000000002,40.5081306,51.1651494,8.307891,88.0922925,-8.76052782,-27.954620819999995
3.56,356,0.16,-0.023,-0.11,32.4294228,52.9413192,9.167328,88.33293486,-8.852201099999998,-27.4160403
3.57,357,0.11900000000000001,-0.052000000000000005,-0.187,29.9657034,50.47759979999999,13.464512999999998,88.5506589,-8.98398144,-26.90610768
3.58,358,0.077,-0.040999999999999995,-0.079,32.945085,46.8679644,18.334656,88.80276042,-9.16159842,-26.43055254
3.59,359,0.066,-0.02,-0.006999999999999999,29.8511118,42.685371,20.912967000000002,89.02048446,-9.350674559999998,-25.9836453
3.5999999999999996,360,0.07400000000000001,-0.053,-0.011000000000000001,26.69984280000001,33.6899304,18.277360199999997,89.23247891999998,-9.53402112,-25.639870499999997
3.61,361,0.115,-0.301,-0.031,19.136797199999997,33.518043,8.5370742,89.36425926,-9.6256944,-25.30182528000001
3.6199999999999997,362,0.077,-0.591,-0.162,-3.9534102,37.1276784,-4.0680017999999984,89.25539724,-9.59131692,-24.92940258
3.63,363,-0.006,-0.789,-0.16699999999999998,-15.813640800000002,32.2002396,-14.7823164,89.03767320000001,-9.44807742,-24.61427568
3.6399999999999997,364,-0.064,-1.111,-0.28,-32.830493399999995,24.0069402,-25.4393352,88.64233218000004,-9.19024632,-24.37363332
3.65,365,-0.142,-1.61,-0.368,-47.784697200000004,45.6647526,-49.847346,88.08083334,-8.69750244,-23.93818524
3.6599999999999997,366,-0.503,-2.342,-0.662,-47.326330799999994,82.39136040000002,-90.240885,87.47922744,-7.79795838,-23.153232780000003
3.67,367,-0.522,-2.318,-0.312,-24.1788276,86.5739538,-89.20956059999996,87.11253432000002,-6.898414319999999,-22.33390284
3.6799999999999997,368,-0.14,-1.882,-0.017,-9.9121734,67.83822719999999,-51.3943326,86.92918776,-6.37129296,-21.68073072
3.69,369,-0.013999999999999999,-1.626,-0.131,-14.9542038,56.9520252,-26.929026,86.70573413999998,-6.08481396,-21.13069104
3.6999999999999997,370,0.10400000000000001,-1.821,-0.049,-10.4278356,66.2912406,-16.042824000000003,86.52238758000001,-5.90719698,-20.4832485
3.71,371,0.28600000000000003,-1.959,-0.075,-12.318597,72.0208206,-8.59437,86.31612270000002,-5.79833496,-19.77278058
3.7199999999999998,372,0.281,-1.999,-0.047,-8.651665800000002,65.317212,-4.4117766,86.15569446,-5.72958,-19.12533804
3.73,373,0.152,-2.094,0.046,-10.657018800000001,59.0719698,-1.9480572,85.97807748,-5.68947294,-18.54092088
3.7399999999999998,374,0.006,-2.165,0.065,-15.469866,56.3217714,0.8594370000000001,85.76035343999997,-5.6722842,-17.98515162
3.75,375,-0.152,-2.1790000000000003,0.042,-15.2406828,58.38442020000001,4.6982555999999995,85.54262940000002,-5.6952025200000005,-17.40646404
3.76,376,-0.226,-2.092,0.04,-10.084060800000001,62.738901,10.943497800000001,85.36501242,-5.76968706,-16.77621024
3.77,377,-0.22899999999999998,-1.906,0.028999999999999998,-8.136003599999999,67.66633979999999,19.194093,85.20458418000003,-5.92438572,-16.088660639999997
3.78,378,-0.262,-1.722,0.005,-5.443101,74.198061,26.8717302,85.06134468,-6.147839339999999,-15.33235608
3.79,379,-0.32,-1.568,-0.004,-2.1772404,84.22482600000002,31.22621100000001,84.93529392,-6.417129600000001,-14.467189499999998
3.8,380,-0.385,-1.396,-0.035,-2.1772404,98.3768886,33.002380800000005,84.78632483999998,-6.680690279999999,-13.464513
3.81,381,-0.389,-1.197,-0.1,-1.8907614,114.4770084,32.945085,84.61443744,-6.9327918,-12.295678679999998
3.82,382,-0.325,-0.992,-0.13699999999999998,3.8388186,128.39988780000002,31.5699858,84.47692752,-7.161975,-10.98933444
3.83,383,-0.196,-0.797,-0.09699999999999999,14.037471,136.1348208,29.163562199999998,84.42536129999998,-7.3567807200000015,-9.60850566
3.84,384,-0.07400000000000001,-0.629,-0.10800000000000001,27.215505,137.3953284,27.788463,84.49984584,-7.528668120000002,-8.210488139999999
3.8499999999999996,385,0.012,-0.478,-0.094,40.2216516,134.7597216,27.100913399999996,84.70611072,-7.7062851,-6.8411185199999975
3.86,386,0.068,-0.35100000000000003,-0.055999999999999994,53.22779820000001,128.8009584,26.9863218,85.04988552,-7.889631660000001,-5.5290447
3.8699999999999997,387,0.098,-0.257,0.013999999999999999,63.08267579999999,120.26388419999999,27.272800800000002,85.50825191999998,-8.09016696,-4.30291458
3.88,388,0.133,-0.20600000000000002,0.076,66.5777196,112.4143596,27.788463,86.0009958,-8.307891,-3.1512689999999997
3.8899999999999997,389,0.153,-0.188,0.111,64.4004792,104.5075392,27.215505,86.49946926,-8.51415588,-2.07983754
3.9,390,0.168,-0.187,0.11699999999999999,60.10329419999999,101.52815759999999,26.5852512,86.94064691999998,-8.74333908,-1.04278356
3.9099999999999997,391,0.171,-0.207,0.031,51.6235158,96.7726062,24.637194,87.30161045999998,-8.96106312,-0.057295800000000015
3.92,392,0.131,-0.23800000000000002,-0.049,37.52874900000001,86.0009958,20.912967000000002,87.53652324,-9.15013926,0.8136003599999999
3.9299999999999997,393,0.073,-0.244,-0.092,26.1841806,78.49524600000002,18.162768600000003,87.66257399999998,-9.31629708,1.61001198
3.94,394,0.022000000000000002,-0.22399999999999998,-0.17800000000000002,16.902261,74.771019,17.4179232,87.67403316,-9.47672532,2.36631654
3.9499999999999997,395,-0.005,-0.149,-0.24,12.0894138,72.25000379999999,18.621135,87.66830358,-9.654342300000001,3.0997027800000003
3.96,396,-0.015,-0.061,-0.22,11.2299768,70.9894962,20.912967000000002,87.65111484,-9.84914802,3.82162986
3.9699999999999998,397,-0.031,0.001,-0.179,5.6722842,74.88561059999998,23.605869600000002,87.56517113999998,-10.07260164,4.57793442
3.98,398,0.061,-0.06,-0.207,-6.9327918,85.1415588,28.934378999999996,87.33025836,-10.34762148,5.44883058
3.9899999999999998,399,0.08800000000000001,-0.205,-0.203,-9.568398599999998,69.55710119999999,35.122325399999994,87.06669767999998,-10.66847796,6.165028080000001
4.0,400,0.107,-0.466,-0.218,-18.2200644,69.8435802,38.27359439999999,86.74011162,-11.03517108,6.8812255800000015
4.01,401,0.282,-0.9390000000000001,-0.278,-34.37748,93.9078162,41.9978214,86.19007194,-11.41905294,7.8495246
4.02,402,0.503,-1.896,-0.8270000000000001,-69.0987348,60.3324774,54.25912260000001,85.35355326,-11.94044472,8.49123756
4.03,403,0.789,-2.903,-1.1179999999999999,-65.14532460000001,13.750992000000002,76.4325972,84.64881491999998,-12.691019699999998,8.691772859999999
4.04,404,0.055999999999999994,-1.871,-0.14,23.892348600000002,42.34159620000001,57.58227899999999,84.77486567999998,-13.22960022,9.17305758
4.05,405,-0.7829999999999999,-1.176,-0.305,19.9962342,60.275181599999996,23.663165399999997,84.8264319,-13.42440594,9.80904096
4.06,406,-1.052,-1.2009999999999998,-0.152,29.621928600000004,77.6931048,2.4064236,84.92956434,-13.40148762,10.599723
4.07,407,-0.848,-1.52,0.10099999999999999,25.0955604,101.64274920000001,-5.2712136,84.93529392,-13.28689602,11.631047399999998
4.08,408,-0.552,-1.857,0.027000000000000003,15.6417534,141.9789924,-2.0626488000000003,84.74621778000002,-13.178034,13.069171980000002
4.09,409,-0.27699999999999997,-2.035,0.013000000000000001,4.9274388,156.8759004,7.906820400000001,84.41390214,-13.1493861,14.667724799999998
4.1,410,-0.099,-2.0,0.040999999999999995,7.161975,163.6941006,18.3919518,84.0815865,-13.21241148,16.34649174
4.109999999999999,411,0.006,-1.901,0.052000000000000005,9.5111028,166.8453696,23.9496444,83.76073002,-13.321273499999998,18.05963616
4.12,412,0.033,-1.858,-0.02,7.8495246,164.43894600000004,26.069589,83.42841438,-13.44159468,19.75559184
4.13,413,0.016,-1.893,-0.042,11.2299768,161.34497280000005,25.382039399999996,83.1362058,-13.54472712,21.41717004
4.14,414,-0.037000000000000005,-1.905,-0.003,17.4179232,161.860635,23.892348600000002,82.90129302,-13.624941240000002,23.090207400000004
4.1499999999999995,415,-0.1,-1.7830000000000001,0.039,19.9962342,165.871341,22.058882999999998,82.67783940000002,-13.68223704,24.79762224000001
4.16,416,-0.086,-1.617,0.061,22.4026578,173.1479076,20.05353,82.46011536,-13.70515536,26.57952162
4.17,417,-0.03,-1.4809999999999999,0.071,24.694489800000003,178.41912119999995,19.767051000000002,82.25385048,-13.71088494,28.41298722
4.18,418,0.031,-1.365,0.08800000000000001,27.1582092,182.02875659999998,22.2880662,82.05904475999998,-13.72807368,30.29228946
4.1899999999999995,419,0.055,-1.238,0.098,29.1062664,183.57574319999998,25.84040580000001,81.89288694,-13.76245116,32.18878044
4.2,420,0.055,-1.117,0.13,32.2002396,183.8622222,28.2468294,81.74391786,-13.83120612,34.091001
4.21,421,0.063,-1.005,0.188,33.116972399999995,183.57574319999998,29.507337,81.60067836,-13.90569066,35.99322156
4.22,422,0.095,-0.8740000000000001,0.155,30.93973200000001,182.773602,30.252182399999995,81.42879096,-13.980175199999998,37.88971254000001
4.2299999999999995,423,0.146,-0.723,0.077,35.3515086,178.24723380000003,30.5386614,81.31992894,-14.060389320000002,39.74036688
4.24,424,0.184,-0.597,0.042,45.550160999999996,170.91337140000005,29.9657034,81.3313881,-14.123414699999998,41.52226626
4.25,425,0.162,-0.508,0.069,49.61816279999999,164.152467,29.5646328,81.39441348,-14.209358400000001,43.2296811
4.26,426,0.133,-0.4,0.055999999999999994,50.6494872,156.01646340000005,29.9084076,81.48608676,-14.31249084,44.86261140000001
4.27,427,0.166,-0.264,0.098,56.4936588,148.3388262,31.054323600000004,81.65797416000002,-14.43281202,46.41532758000001
4.28,428,0.225,-0.147,0.203,62.6243094,145.1875572,31.741873200000004,81.89288694,-14.576051520000002,47.93939586000001
4.29,429,0.281,-0.061,0.23199999999999998,62.7961968,143.81245800000005,30.5386614,82.14498846000002,-14.684913540000002,49.45200498000001
4.3,430,0.348,-0.022000000000000002,0.17600000000000002,60.275181599999996,141.6352176,27.903054600000004,82.3627125,-14.80523472,50.9359662
4.31,431,0.387,-0.028999999999999998,0.135,58.72819499999999,138.42665280000003,26.241476399999996,82.56897738,-14.919826320000002,52.38554994
4.32,432,0.353,-0.111,0.068,58.327124399999995,127.3685634,26.7571386,82.79816058,-15.05160666,53.72627166000001
4.33,433,0.28800000000000003,-0.154,0.012,55.86340500000001,117.742869,30.137590799999998,83.02734378,-15.22922364,54.96959052
4.34,434,0.195,-0.157,0.003,57.00932099999999,108.6328368,35.236917,83.28517488,-15.452677260000002,56.12696568
4.35,435,0.106,-0.174,0.032,57.9833496,101.64274920000001,38.5600734,83.57165388,-15.739156259999998,57.215585880000006
4.36,436,0.040999999999999995,-0.225,-0.006999999999999999,53.1705024,96.14235240000001,37.9871154,83.81229624,-16.031364840000002,58.24691028
4.37,437,-0.057999999999999996,-0.306,-0.07200000000000001,45.3209778,94.3088868,32.085648000000006,83.97845406,-16.272007199999994,59.25531636000001
4.38,438,-0.18600000000000005,-0.498,-0.16399999999999998,34.60666320000001,99.1790298,22.517249399999997,84.0242907,-16.4152467,60.303829500000006
4.39,439,-0.295,-0.7120000000000001,-0.243,20.626488000000002,103.41891899999999,11.688343199999998,83.89251035999997,-16.461083340000002,61.38099053999999
4.3999999999999995,440,-0.35700000000000004,-0.988,-0.32799999999999996,5.0993262,112.586247,-1.2032118,83.60030178,-16.3579509,62.5383657
4.41,441,-0.299,-1.271,-0.45,4.6409598,125.1340272,-14.32395,83.27944529999998,-16.105849380000002,63.80460287999999
4.42,442,-0.16699999999999998,-1.571,-0.45799999999999996,15.9855282,139.5725688,-31.856464799999998,83.03880294000002,-15.66467172,65.19689082
4.43,443,-0.005,-1.736,-0.36200000000000004,21.4286292,144.32812019999997,-42.685371,82.86118596,-15.10890246,66.61782666
4.4399999999999995,444,0.192,-1.723,-0.27399999999999997,18.1054728,135.2753838,-39.6486936,82.68356897999998,-14.57032194,67.94708922
4.45,445,0.38799999999999996,-1.6340000000000001,-0.249,9.682990199999999,114.24782520000001,-29.335449600000004,82.48876326,-14.16925134,69.0700869
4.46,446,0.46399999999999997,-1.6280000000000001,-0.213,4.4690724,97.7466348,-16.558486199999994,82.28249838,-13.89996108,70.03838592
4.47,447,0.354,-1.662,-0.2,-0.5156622000000001,89.55333540000002,-3.2085647999999996,82.04758559999998,-13.77391032,70.93792998
4.4799999999999995,448,0.069,-1.7480000000000002,-0.166,-0.286479,83.4799806,8.9954406,81.82986156,-13.76818074,71.79736698
4.49,449,-0.162,-1.881,-0.153,0.286479,84.4540092,11.45916,81.6178671,-13.779639899999998,72.66826314
4.5,450,-0.341,-2.055,-0.132,2.8074942000000003,84.22482600000002,8.136003599999999,81.42879096,-13.76245116,73.53342971999999
4.51,451,-0.36200000000000004,-2.095,-0.08199999999999999,5.1566220000000005,86.63124959999998,5.2139178,81.26263314,-13.70515536,74.41578503999997
4.52,452,-0.26899999999999996,-2.061,-0.013999999999999999,5.0993262,91.4440968,4.583664,81.07928658,-13.636400400000001,75.34397700000002
4.53,453,-0.17,-2.0340000000000003,0.005,-0.4583664000000001,93.965112,5.72958,80.83864422,-13.57337502,76.30081686
4.54,454,-0.11699999999999999,-1.97,0.043,-6.5317212,96.4861272,8.250595200000001,80.53497648,-13.521808800000002,77.28630462
4.55,455,-0.145,-1.8659999999999999,0.037000000000000005,-12.605075999999999,103.8199896,11.0580894,80.14536504,-13.487431320000002,78.34627692000002
4.56,456,-0.214,-1.704,-0.023,-16.157415599999997,114.305121,13.9228794,79.69272822,-13.45878342,79.52084082
4.57,457,-0.249,-1.524,-0.05,-14.266654199999998,120.6649548,17.4179232,79.24009140000003,-13.447324259999998,80.76415968
4.58,458,-0.266,-1.327,-0.021,-8.021412000000002,127.13938020000002,21.944291399999997,78.8390208,-13.45878342,82.08196308000002
4.59,459,-0.249,-1.175,0.026000000000000002,-1.8907614,132.353298,26.814434400000003,78.495246,-13.4931609,83.45706228
4.6,460,-0.19399999999999998,-1.044,0.062,0.8021411999999999,134.072172,30.8251404,78.15720078000003,-13.56191586,84.86080938
4.61,461,-0.124,-0.9179999999999999,0.027999999999999997,2.291832,132.75436860000002,32.945085,77.83634430000002,-13.64785956,86.2588269
4.62,462,-0.039,-0.7759999999999999,-0.049,6.130650599999999,131.6657484,34.0337052,77.5498653,-13.733803259999998,87.65111484
4.63,463,0.042,-0.62,-0.136,13.980175199999998,126.96749280000002,33.74722620000001,77.36078916,-13.81974696,88.99756613999998
4.64,464,0.10800000000000001,-0.46799999999999997,-0.153,25.210151999999997,121.5816876,31.340802600000004,77.28630462,-13.871313179999998,90.27526248
4.6499999999999995,465,0.146,-0.335,-0.07400000000000001,33.518043,120.034701,28.074942,77.30349336,-13.911420239999998,91.54149966
4.66,466,0.156,-0.23,-0.026000000000000002,33.116972399999995,120.034701,24.4653066,77.32641168,-13.91714982,92.80200726
4.67,467,0.121,-0.145,-0.064,30.65325300000001,116.0812908,20.3973048,77.33214126,-13.88850192,94.01094864
4.68,468,0.049,-0.115,-0.1,30.137590799999998,110.867373,16.615782,77.34360042,-13.836935700000002,95.15686464
4.6899999999999995,469,-0.008,-0.111,-0.085,29.9657034,111.4976268,14.0947668,77.34933000000002,-13.76245116,96.30278064
4.7,470,-0.02,-0.095,-0.026000000000000002,32.7731976,116.0812908,12.5477802,77.38943706,-13.659318719999998,97.49453327999998
4.71,471,-0.001,-0.081,0.055,36.7266078,119.5190388,13.0634424,77.45819202,-13.55618628,98.7206634
4.72,472,0.016,-0.063,0.128,35.809875,120.60765900000001,14.381245800000002,77.51548782,-13.464513,99.95825268000002
4.7299999999999995,473,0.017,-0.066,0.14,32.372127,120.1492926,14.9542038,77.53840613999998,-13.38429888,101.19584196
4.74,474,0.002,-0.131,0.10400000000000001,27.100913399999996,121.467096,14.7250206,77.52694698,-13.2926256,102.43916082
4.75,475,-0.021,-0.233,0.131,23.0902074,121.753575,15.011499599999999,77.45819202,-13.21241148,103.68820926
4.76,476,-0.019,-0.377,0.038,12.1467096,120.8368422,15.527161800000002,77.28630462,-13.132197359999996,104.93152812
4.77,477,0.034,-0.406,0.037000000000000005,9.167328,124.904844,14.667724800000002,77.07431016000002,-13.0347945,106.20922446
4.78,478,0.064,-0.494,-0.059000000000000004,2.9793816000000004,129.7176912,12.4904844,76.78783116,-12.89728458,107.52702786
4.79,479,0.036000000000000004,-0.659,-0.213,-3.7242269999999995,132.8116644,12.318597,76.42686762000002,-12.73112676,108.86774958
4.8,480,0.05,-1.0,-0.341,-10.3705398,125.1340272,22.6891368,76.02006744,-12.68529012,110.16263466
4.81,481,0.174,-1.578,-0.551,-22.4599536,96.37153559999999,45.6647526,75.54451230000002,-12.920202899999998,111.22260695999998
4.82,482,0.371,-2.303,-0.623,-37.7006364,49.2170922,77.17744259999998,75.0002022,-13.55618628,111.90442698
4.83,483,0.264,-2.141,-0.359,-36.554720399999994,24.9809688,79.0109082,74.51891748,-14.26092462,112.36279338
4.84,484,-0.083,-1.2409999999999999,-0.23600000000000002,-17.3606274,35.8671708,40.5081306,74.2267089,-14.5531332,112.82115978
4.85,485,-0.386,-1.006,-0.21600000000000005,6.3598338,62.3378304,7.161975,74.11784688,-14.47291908,113.45714316
4.86,486,-0.593,-1.5030000000000001,-0.044000000000000004,4.5263682,72.5364828,-14.1520626,73.99179612,-14.15779218,114.13896318
4.87,487,-0.556,-2.002,-0.006,-11.9748222,71.1040878,-24.064236,73.70531712,-13.750992000000002,114.76921697999998
4.88,488,-0.4270000000000001,-2.224,-0.067,-19.9962342,79.92764100000002,-19.365980399999998,73.32143526,-13.36711014,115.49687364000002
4.89,489,-0.32299999999999995,-2.293,0.003,-17.18874,84.1675302,-11.802934800000001,72.96047172,-13.0347945,116.28755568
4.8999999999999995,490,-0.294,-2.211,0.053,-10.4278356,85.1988546,-8.021412000000002,72.66253356,-12.73112676,117.09542646
4.91,491,-0.289,-2.0909999999999997,0.111,-4.297185,85.1988546,-11.401864199999999,72.43335035999998,-12.39308154,117.88610849999999
4.92,492,-0.298,-1.976,0.084,-4.1252976000000015,87.66257399999998,-19.652459399999998,72.20989674,-11.96909262,118.67679054
4.93,493,-0.22899999999999998,-1.893,0.07400000000000001,-1.5469866,91.95975899999999,-28.7051958,72.02082060000002,-11.44197126,119.47893174
4.9399999999999995,494,-0.098,-1.791,0.046,0.6302538000000001,95.8558734,-33.2888598,71.86612194,-10.85182452,120.30399126
4.95,495,0.034,-1.633,-0.021,-0.286479,100.1530584,-30.4813656,71.68850496,-10.2845961,121.16915784
4.96,496,0.16699999999999998,-1.465,-0.09,-5.3285094000000015,103.4762148,-22.2880662,71.45932176,-9.77466348,122.0973498
4.97,497,0.278,-1.318,-0.166,-12.2040054,102.6167778,-12.4904844,71.1613836,-9.36213372,123.03700092
4.9799999999999995,498,0.342,-1.17,-0.21,-14.209358400000001,94.9391406,-3.3231564,70.86344543999998,-9.0527364,123.9308154
4.99,499,0.324,-1.014,-0.195,-10.886202,81.3027402,4.010706000000001,70.63426224,-8.77771656,124.69857912
5.0,500,0.249,-0.86,-0.17800000000000002,-5.5003968,67.5517482,8.7089616,70.46810442,-8.651665800000002,125.36893998
5.01,501,0.15,-0.687,-0.187,-0.4583664000000001,57.92605379999999,9.9121734,70.37070156,-8.57145168,125.95335714
5.02,502,0.053,-0.516,-0.18,6.3598338,52.425657,8.4224826,70.34778324,-8.48550798,126.48047849999999
5.03,503,-0.042,-0.358,-0.124,13.6936962,50.6494872,5.5576926,70.41080862,-8.382375540000002,126.98468154
5.04,504,-0.085,-0.248,-0.03,19.079501399999998,49.90464179999999,4.6409598,70.5311298,-8.2792431,127.47742542
5.05,505,-0.045,-0.16899999999999998,0.047,18.048177,48.70143,4.8128472,70.63999182,-8.17611066,127.95871014
5.06,506,0.055999999999999994,-0.08,0.07400000000000001,14.209358400000001,43.831286999999996,4.7555514,70.72020594,-8.09016696,128.39415821999998
5.07,507,0.159,0.027000000000000003,0.043,16.501190400000002,36.7839036,4.2398892,70.82906796,-8.015682420000001,128.75512176
5.08,508,0.23800000000000002,0.067,0.052000000000000005,23.7204612,29.220858000000003,4.9847346,71.02960326,-7.975575359999999,129.05305992
5.09,509,0.26,0.057,0.083,26.356068,21.944291399999997,6.417129599999999,71.27024562,-7.929738719999999,129.27651354
5.1,510,0.253,0.0,0.12,23.3766864,20.912967000000002,8.078707799999998,71.47651049999997,-7.94119788,129.50569674000002
5.11,511,0.2,0.006,0.08199999999999999,16.329303,20.3973048,8.5370742,71.60829084,-7.9641161999999985,129.72915036
5.12,512,0.121,0.04,0.063,18.162768600000003,18.162768600000003,6.0733548,71.7629895,-7.9641161999999985,129.92395607999998
5.13,513,0.068,0.048,0.076,19.308684600000007,15.2406828,1.7761698000000001,71.93487689999998,-7.935468299999997,130.07865474
5.14,514,0.022000000000000002,-0.003,0.015,19.652459399999998,11.401864199999999,-5.3285094000000015,72.11249388,-7.84379502,130.17032802
5.1499999999999995,515,0.02,-0.19399999999999998,-0.09300000000000001,14.381245800000002,19.0222056,-15.126091199999998,72.23854464,-7.648989299999997,130.30783793999998
5.16,516,-0.057,-0.42200000000000004,-0.294,0.40107059999999994,24.0069402,-27.559279800000002,72.2213559,-7.316673659999997,130.45680702
5.17,517,-0.172,-0.718,-0.419,-6.990087599999999,33.0596766,-42.28430039999999,72.11822346,-6.829659359999999,130.64015358
5.18,518,-0.36200000000000004,-1.139,-0.494,-14.4958374,47.555514,-54.14453099999999,71.93487689999998,-6.1879464,130.93236216
5.1899999999999995,519,-0.47,-1.621,-0.5660000000000001,-22.631841,59.874111,-53.571573,71.65412748,-5.51758554,131.33343276
5.2,520,-0.42,-1.952,-0.586,-34.8931422,62.738901,-32.6013102,71.24732730000002,-5.03057124,131.82617664
5.21,521,-0.13699999999999998,-1.7919999999999998,-0.5379999999999999,-31.51269000000001,54.4883058,-1.432395,70.8749046,-4.8586838399999985,132.33610926
5.22,522,0.14,-1.432,-0.409,-13.407217200000002,46.1804148,21.199446,70.69155803999998,-4.9217092199999986,132.8403123
5.2299999999999995,523,0.35100000000000003,-1.4580000000000002,-0.249,-4.4690724,38.7892566,31.6845774,70.59988476,-5.10505578,133.31013786
5.24,524,0.3670000000000001,-1.75,-0.18899999999999997,-4.4117766,29.793815999999996,32.945085,70.51967064,-5.31705024,133.69401972
5.25,525,0.16399999999999998,-2.105,-0.13699999999999998,-5.2712136,19.308684600000007,24.809081399999997,70.43945652,-5.48893764,133.96330998000002
5.26,526,-0.038,-2.377,-0.10099999999999999,-8.651665800000002,11.9748222,13.0061466,70.33632408,-5.574881339999999,134.11800864000003
5.27,527,-0.10300000000000001,-2.464,-0.177,-16.042824000000003,8.3651868,3.0939732,70.16443668000001,-5.58061092,134.20395234
5.28,528,-0.079,-2.376,-0.252,-18.2200644,1.7188740000000002,0.0,69.97536054,-5.58061092,134.22114108
5.29,529,-0.102,-2.296,-0.228,-17.246035799999998,-3.8388186,5.9014674000000005,69.80920272,-5.64936588,134.20395234
5.3,530,-0.11900000000000001,-2.1630000000000003,-0.23399999999999999,-17.0168526,-10.943497800000001,16.329303,69.64304489999999,-5.83844202,134.15238612000002
5.31,531,-0.157,-1.953,-0.248,-15.068795399999999,-19.308684600000007,25.2674478,69.4998054,-6.13638018,134.06071284
5.32,532,-0.235,-1.7519999999999998,-0.275,-13.120738199999998,-22.345361999999998,29.392745399999995,69.38521379999999,-6.48015498,133.95185082
5.33,533,-0.331,-1.558,-0.319,-11.3445684,-18.621135,27.100913399999996,69.28208136,-6.79528188,133.86590712
5.34,534,-0.389,-1.348,-0.344,-8.250595200000001,-11.0580894,19.8243468,69.21332640000001,-7.0416538200000005,133.83725922000002
5.35,535,-0.374,-1.173,-0.34700000000000003,-2.7501984,-3.9534102,9.9694692,69.18467849999999,-7.15051584,133.83725922000002
5.36,536,-0.27,-0.97,-0.324,3.380452200000001,2.9220858,0.572958,69.21332640000001,-7.144786260000001,133.86590712
5.37,537,-0.146,-0.787,-0.295,10.1986524,7.2192707999999985,-4.2398892,69.31072925999999,-7.08176088,133.92320292
5.38,538,-0.006999999999999999,-0.608,-0.284,19.5378678,8.651665800000002,-4.4117766,69.4998054,-7.00727634,133.98622830000002
5.39,539,0.11,-0.447,-0.28800000000000003,28.533308399999996,7.0473834,-1.0313244000000001,69.7576365,-6.93852138,134.04925368000002
5.3999999999999995,540,0.195,-0.285,-0.2,36.03905820000001,2.4637194,5.3285094000000015,70.11860004,-6.97862844,134.09509032
5.41,541,0.218,-0.156,-0.13,41.539455,-4.2398892,11.688343199999998,70.54258896,-7.09322004,134.09509032
5.42,542,0.205,-0.021,-0.105,42.742666799999995,-6.5317212,16.272007199999994,70.97803704,-7.259377859999999,134.08936074
5.43,543,0.158,0.079,-0.09,41.4248634,-3.380452200000001,15.5844576,71.39629638,-7.41407652,134.11227906
5.4399999999999995,544,0.065,0.177,-0.032,39.9351726,2.7501984,8.250595200000001,71.77444865999998,-7.48283148,134.17530444
5.45,545,-0.044000000000000004,0.22,-0.025,37.0703826,7.906820400000001,-1.9480572,72.14114178,-7.43699484,134.24978898
5.46,546,-0.073,0.226,-0.045,32.7159018,14.7823164,-10.4851314,72.45626868000002,-7.29375534,134.35865099999998
5.47,547,-0.043,0.17300000000000001,-0.023,32.4294228,17.5325148,-13.636400400000001,72.76566600000002,-7.11040878,134.49043134
5.4799999999999995,548,0.026000000000000002,0.062,0.027999999999999997,32.830493399999995,15.297978599999999,-9.9694692,73.08652248,-6.972898860000001,134.61075252
5.49,549,0.073,-0.028999999999999998,0.046,30.4240698,6.703608600000001,-2.0053530000000004,73.40164938000002,-6.9041438999999984,134.66804832
5.5,550,0.084,-0.078,0.038,26.642546999999997,-3.5523396000000003,6.1879464,73.67666922,-6.972898860000001,134.65085958
5.51,551,0.055999999999999994,-0.124,0.022000000000000002,24.694489800000003,-13.750992000000002,12.776963400000001,73.94022989999998,-7.12759752,134.55345672
5.52,552,0.024,-0.209,0.037000000000000005,20.6837838,-16.615782,14.8396122,74.1694131,-7.305214500000001,134.43886512
5.53,553,0.057,-0.389,-0.132,3.6669312000000014,-6.1879464,14.32395,74.20952016,-7.459913160000001,134.4159468
5.54,554,0.18600000000000005,-0.738,-0.655,-20.05353,-0.4583664000000001,22.6891368,73.94022989999998,-7.64325972,134.46751302
5.55,555,0.289,-1.474,-1.099,-27.501984000000004,-60.67625219999999,52.0245864,73.72823544,-8.29070226,134.02633536000002
5.56,556,0.198,-1.548,-0.478,0.5156622000000001,-65.030733,75.45856859999998,73.80844956,-9.17305758,133.60807602
5.57,557,-0.28600000000000003,-1.159,0.024,13.521808800000002,-42.5134836,50.47759979999999,73.9975257,-9.76320432,133.33305618
5.58,558,-0.7859999999999999,-0.966,-0.187,-12.4331886,-8.9381448,4.6409598,73.88866368000002,-9.83195928,133.25857164
5.59,559,-0.99,-1.271,-0.292,-4.9274388,18.907614,-19.4232762,73.81417914,-9.61423524,133.39035198
5.6,560,-1.021,-1.754,-0.278,-7.8495246,33.2888598,-23.7204612,73.68812838,-9.30483792,133.64818308000002
5.61,561,-0.785,-2.254,-0.305,-10.084060800000001,35.122325399999994,-14.7250206,73.53342971999999,-9.07565472,133.94612124
5.62,562,-0.316,-2.46,-0.207,-5.0993262,39.018439799999996,1.145916,73.41310854000002,-8.98971102,134.3300031
5.63,563,-0.09300000000000001,-2.434,-0.109,-2.5783110000000002,42.685371,10.4278356,73.3099761,-8.97825186,134.77118076
5.64,564,-0.125,-2.346,-0.16399999999999998,-4.4690724,41.6540466,10.828906199999999,73.1953845,-8.97252228,135.20089926
5.6499999999999995,565,-0.20800000000000002,-2.358,-0.166,-3.4377480000000005,38.159002799999996,6.4744254,73.09798164,-8.93241522,135.59051069999998
5.66,566,-0.29,-2.2969999999999997,-0.172,-3.0366774,37.872523799999996,-2.5783110000000002,73.00630836,-8.81209404,135.94574466
5.67,567,-0.287,-2.181,-0.147,-0.286479,43.9458786,-11.9748222,72.93755340000001,-8.58291084,136.3353561
5.68,568,-0.21100000000000002,-2.051,-0.151,0.5156622000000001,52.8840234,-16.558486199999994,72.86879844,-8.28497268,136.79945208
5.6899999999999995,569,-0.09,-1.895,-0.19399999999999998,0.40107059999999994,60.16059,-15.183387000000002,72.79431389999998,-7.975575359999999,137.33230302
5.7,570,0.023,-1.693,-0.228,1.6042823999999998,63.5410422,-11.3445684,72.71982936,-7.70055552,137.90526101999998
5.71,571,0.09,-1.476,-0.24100000000000002,7.2192707999999985,62.3378304,-6.990087599999999,72.7083702,-7.46564274,138.48394860000002
5.72,572,0.114,-1.246,-0.22399999999999998,14.4958374,57.2958,-3.8388186,72.78285473999998,-7.270837019999999,139.02825869999998
5.7299999999999995,573,0.10800000000000001,-1.006,-0.179,20.626488000000002,50.5921914,-1.7761698000000001,72.92609424,-7.116138359999999,139.50954342
5.74,574,0.085,-0.757,-0.19699999999999998,25.8977016,41.7113424,-0.8021411999999999,73.12662954,-6.96716928,139.89915486
5.75,575,0.064,-0.537,-0.184,33.6899304,32.7159018,-0.4583664000000001,73.43029728,-6.875496000000001,140.22001134
5.76,576,0.052000000000000005,-0.301,-0.152,43.48751220000001,27.272800800000002,-0.572958,73.83709746000002,-6.79528188,140.48357202
5.77,577,0.06,-0.11900000000000001,-0.081,50.47759979999999,26.69984280000001,0.8021411999999999,74.31265259999998,-6.7322565,140.74713269999995
5.78,578,0.078,0.035,-0.063,50.1911208,26.241476399999996,4.583664,74.78820774,-6.7093381800000005,141.01642296
5.79,579,0.091,0.156,-0.10099999999999999,51.2224452,25.4393352,9.2819196,75.24657413999998,-6.72652692,141.29717238
5.8,580,0.122,0.19,-0.08800000000000001,52.998615,23.0902074,13.980175199999998,75.75077718,-6.8010114600000025,141.56073306000005
5.81,581,0.17800000000000002,0.161,-0.047,50.9359662,17.9335854,16.7303736,76.23779148,-6.92133264,141.78418668
5.82,582,0.20800000000000002,0.139,-0.022000000000000002,48.0138804,10.7716104,17.303331600000003,76.70761704,-7.05884256,141.93315576
5.83,583,0.171,0.161,0.011000000000000001,44.9199072,3.8961144,17.3606274,77.15452428,-7.213541219999999,142.01336988
5.84,584,0.086,0.192,0.017,44.0031744,2.2345362,17.5325148,77.58997236,-7.37396946,142.08212483999995
5.85,585,0.024,0.156,0.07400000000000001,44.404245,7.5630456000000015,15.2406828,78.02542044,-7.500020219999999,142.19098686
5.86,586,0.019,0.075,0.105,38.2162986,15.5844576,9.9121734,78.38638397999998,-7.56877518,142.36860384
5.87,587,0.036000000000000004,-0.009000000000000001,0.067,30.4813656,22.4026578,2.8074942000000003,78.66140382,-7.55731602,142.59778704
5.88,588,0.043,-0.107,0.052000000000000005,23.892348600000002,27.788463,-4.4690724,78.86766870000002,-7.459913160000001,142.86707729999995
5.89,589,0.036000000000000004,-0.19,0.016,14.610429000000002,28.1895336,-10.4278356,78.98226030000002,-7.305214500000001,143.11917882
5.8999999999999995,590,0.052000000000000005,-0.23399999999999999,-0.054000000000000006,10.828906199999999,24.2361234,-13.8655836,79.06247442,-7.12759752,143.33690285999995
5.91,591,-0.079,-0.431,-0.359,-1.3178034,0.3437748,-19.767051000000002,79.05101526000001,-6.9327918,143.30252538
5.92,592,-0.261,-0.893,-0.46299999999999997,-29.163562199999998,31.1689152,-44.117765999999996,78.7244292,-6.45723666,143.52024942
5.93,593,-0.732,-1.429,-0.973,-62.68160520000001,111.3257394,-79.18279559999998,77.97385421999998,-5.4946672199999975,144.44844138
5.9399999999999995,594,-0.695,-1.834,-0.183,13.178034,86.0009958,-88.52201099999998,78.04260918,-4.48626114,145.10734308000005
5.95,595,0.006,-1.926,0.23199999999999998,0.057295800000000015,34.1482968,-55.1758554,78.02542044,-3.88465524,145.32506712
5.96,596,0.519,-1.5730000000000002,-0.446,-16.7303736,15.068795399999999,-20.2827132,77.84207388,-3.66120162,145.42819956
5.97,597,0.698,-1.85,-0.263,-5.2712136,8.59437,-12.1467096,77.78477808,-3.52942128,145.49122494
5.9799999999999995,598,0.29600000000000004,-2.577,-0.149,-10.3705398,4.6982555999999995,-13.6936962,77.67591605999998,-3.3919113599999995,145.50841368000005
5.99,599,-0.05,-2.733,-0.14400000000000002,-12.7196676,3.7815228,-13.9228794,77.5498653,-3.2486718599999995,145.51414326
6.0,600,-0.13699999999999998,-2.544,-0.04,-10.2559482,1.6615782,-9.2819196,77.44100327999998,-3.15699858,145.50841368000005
6.01,601,-0.076,-2.438,-0.023,-16.615782,1.3178034,-2.9793816000000004,77.27484546000002,-3.12835068,145.51414326
6.02,602,-0.026000000000000002,-2.334,-0.055,-21.7151082,-1.0313244000000001,1.432395,77.05139184,-3.14553942,145.50268409999995
6.03,603,-0.037000000000000005,-2.222,-0.021,-25.382039399999996,-4.3544808,4.7555514,76.79929032,-3.20283522,145.46830662
6.04,604,-0.071,-2.069,-0.079,-29.1062664,-9.6256944,11.2299768,76.51281132,-3.33461556,145.39955166
6.05,605,-0.132,-1.909,-0.15,-28.074942,-18.449247600000003,19.767051000000002,76.23779148,-3.56379876,145.26204174000003
6.06,606,-0.225,-1.716,-0.188,-23.9496444,-25.152856200000002,28.762491600000004,76.00860828,-3.896114400000001,145.08442476
6.07,607,-0.316,-1.5290000000000001,-0.196,-16.7876694,-27.7311672,32.544014399999995,75.8596392,-4.27426668,144.88961904
6.08,608,-0.384,-1.3319999999999999,-0.19,-9.167328,-25.496631,28.418716800000002,75.77942508000002,-4.6008527400000006,144.71200206
6.09,609,-0.349,-1.126,-0.168,-0.4583664000000001,-19.5378678,19.652459399999998,75.81953214,-4.91597964,144.59168088
6.1,610,-0.24100000000000002,-0.902,-0.177,6.5317212,-12.9488508,10.1986524,75.89401668000002,-5.042030400000002,144.48854844
6.11,611,-0.113,-0.6890000000000001,-0.166,14.7250206,-8.7662574,2.5210152000000003,76.05444492,-5.08213746,144.4140639
6.12,612,0.022000000000000002,-0.516,-0.121,21.7151082,-6.8182002000000015,-1.7188740000000002,76.27789854,-5.07640788,144.34530894000005
6.13,613,0.11599999999999999,-0.34,-0.105,26.5852512,-9.3392154,-2.4064236,76.55864796,-5.0706783,144.24790607999995
6.14,614,0.153,-0.16,-0.085,31.913760600000003,-13.178034,-0.8594370000000001,76.87950443999998,-5.05348956,144.11612573999997
6.15,615,0.134,-0.012,-0.107,31.9710564,-18.793022399999998,2.5783110000000002,77.22327924,-5.11078536,143.94423834000003
6.16,616,0.086,0.106,-0.128,30.137590799999998,-21.4286292,2.9793816000000004,77.5498653,-5.17954032,143.74370304
6.17,617,0.046,0.174,-0.157,30.7678446,-18.793022399999998,-2.1199446,77.88218094,-5.19099948,143.56035648
6.18,618,-0.025,0.17,-0.157,29.9657034,-12.891555,-11.2299768,78.20303742,-5.0993262,143.41138740000005
6.1899999999999995,619,-0.09699999999999999,0.14400000000000002,-0.17300000000000001,22.5745452,-4.1825934,-19.5378678,78.39784313999998,-4.93889796,143.34836202
6.2,620,-0.114,0.11199999999999999,-0.192,17.0741484,1.5469866,-22.631841,78.57546012,-4.71544434,143.31971412
6.21,621,-0.057999999999999996,0.07400000000000001,-0.182,14.9542038,1.4896908000000002,-17.7044022,78.7244292,-4.53782736,143.30252538
6.22,622,0.047,0.044000000000000004,-0.127,14.438541599999999,-2.9220858,-5.844171599999999,78.87912786,-4.48053156,143.26814789999997
6.2299999999999995,623,0.08800000000000001,0.018000000000000002,-0.10099999999999999,13.0634424,-15.126091199999998,8.078707799999998,79.02236736,-4.5836640000000015,143.13636756
6.24,624,0.087,-0.013999999999999999,-0.106,9.2819196,-24.1215318,17.9335854,79.11404064,-4.77846972,142.93010268
6.25,625,0.05,-0.051,-0.046,8.9954406,-22.5745452,21.600516600000002,79.22290266,-5.02484166,142.7524857
6.26,626,-0.006,-0.153,-0.040999999999999995,4.8128472,-12.834259199999998,20.05353,79.28019846,-5.23683612,142.66081242
6.27,627,0.06,-0.488,-0.276,-22.6891368,14.8396122,19.8816426,79.03382652,-5.4144530999999985,142.84415898
6.28,628,0.171,-1.0390000000000001,-0.7240000000000001,-51.6235158,1.8334656000000005,37.1849742,78.50097558,-5.77541664,142.93010268
6.29,629,0.251,-1.755,-1.138,-52.2537696,-63.08267579999999,72.76566600000002,78.02542044,-6.5947465800000025,142.44881796
6.3,630,0.055999999999999994,-1.6119999999999999,0.061,13.3499214,-48.9306132,75.74504759999998,78.20876700000002,-7.4198061,142.12796148
6.31,631,-0.669,-1.3219999999999998,0.115,-0.8594370000000001,-16.157415599999997,19.767051000000002,78.22022616,-7.63753014,142.00764030000005
6.32,632,-1.222,-1.455,-0.12,-10.2559482,17.8762896,-19.480572,78.09417540000003,-7.4198061,142.14515022
6.33,633,-1.3259999999999998,-1.7309999999999999,-0.11800000000000001,-10.657018800000001,36.096354,-21.314037600000002,77.93947674,-7.144786260000001,142.45454754
6.34,634,-0.898,-2.0540000000000003,-0.161,-7.6776372,43.20103320000001,-7.333862400000001,77.8076964,-7.001546759999999,142.86134772
6.35,635,-0.193,-2.426,-0.145,-7.0473834,46.8106686,8.4224826,77.67591605999998,-6.99581718,143.33690285999995
6.36,636,0.153,-2.456,-0.078,-5.443101,46.1804148,17.761698000000006,77.5498653,-7.0874904600000015,143.82391716
6.37,637,0.175,-2.2840000000000003,-0.11900000000000001,-4.0680017999999984,38.38818600000001,18.621135,77.45246244,-7.19635248,144.2421765
6.38,638,0.049,-2.14,-0.14,-3.3231564,27.6738714,14.1520626,77.3779779,-7.282296179999999,144.54011466
6.39,639,-0.114,-2.119,-0.102,-1.2032118,21.657812399999997,5.844171599999999,77.33787084,-7.29375534,144.76356828
6.4,640,-0.19899999999999998,-2.059,-0.076,3.4377480000000005,24.4080108,-4.1825934,77.34360042,-7.20781164,144.99848106
6.41,641,-0.23199999999999998,-1.942,-0.095,7.906820400000001,30.65325300000001,-11.45916,77.38370748,-7.03592424,145.27350090000004
6.42,642,-0.209,-1.765,-0.121,11.5737516,35.6379876,-12.5477802,77.45819202,-6.8468481,145.59435738
6.43,643,-0.07400000000000001,-1.545,-0.126,15.3552744,38.445481799999996,-9.224623800000002,77.56705404,-6.680690279999999,145.94959133999996
6.4399999999999995,644,0.032,-1.35,-0.122,18.506543399999998,39.018439799999996,-4.9847346,77.7217527,-6.5317212,146.31628446
6.45,645,0.081,-1.169,-0.133,20.7410796,38.445481799999996,-1.3750992,77.88218094,-6.4457775,146.68870716
6.46,646,0.076,-0.955,-0.133,22.7464326,35.5806918,1.4896908000000002,78.07125708,-6.39994086,147.04394112
6.47,647,0.065,-0.7490000000000001,-0.10400000000000001,25.668518399999996,29.5646328,3.6096353999999997,78.29471070000002,-6.3770225400000005,147.34187928
6.4799999999999995,648,0.043,-0.542,-0.071,29.5646328,25.84040580000001,3.2658606,78.56400096,-6.3598338000000005,147.60543996
6.49,649,0.027000000000000003,-0.363,-0.026000000000000002,32.6013102,24.350715,1.8907614,78.86766870000002,-6.3311859,147.8518119
6.5,650,0.012,-0.212,0.006,36.03905820000001,23.663165399999997,-0.286479,79.20571392,-6.2853492599999985,148.08672468
6.51,651,-0.003,-0.111,0.013000000000000001,37.6433406,20.2827132,-1.8334656000000005,79.56094787999999,-6.2337830400000005,148.28725998
6.52,652,0.001,-0.023,-0.032,36.6120162,15.3552744,-0.9740286,79.91618184000002,-6.19367598,148.43622906000004
6.53,653,0.023,0.015,-0.065,35.46610020000001,11.401864199999999,1.6615782,80.25995664,-6.19367598,148.55655024
6.54,654,0.08199999999999999,0.05,-0.055,31.6845774,6.3598338,3.8388186,80.55789480000001,-6.19367598,148.63103478
6.55,655,0.142,0.062,-0.02,26.642546999999997,1.7761698000000001,3.2658606,80.82145548,-6.22232388,148.65395310000005
6.56,656,0.166,0.07,-0.079,17.475219,4.1825934,0.7448454000000001,80.99334288,-6.22232388,148.69978974
6.57,657,0.157,0.10300000000000001,-0.11599999999999999,11.5164558,8.3651868,-0.9167328000000001,81.10220489999998,-6.1994055600000015,148.78573344
6.58,658,0.142,0.11,-0.099,10.3705398,14.0947668,-1.6042823999999998,81.19387818,-6.165028080000001,148.92324336
6.59,659,0.12,0.08900000000000001,-0.096,9.568398599999998,15.813640800000002,-1.8334656000000005,81.23971482,-6.1077322800000005,149.07794202
6.6,660,0.09,0.073,-0.08800000000000001,6.875496000000001,11.8602306,-1.7761698000000001,81.29701062000002,-6.0733548000000015,149.19253362
6.61,661,0.07,0.05,-0.048,9.682990199999999,5.9014674000000005,-3.0939732,81.3886839,-6.0332477399999975,149.24982942
6.62,662,0.079,-0.034,-0.063,14.266654199999998,-1.5469866,-6.1879464,81.53765297999998,-5.97022236,149.2269111
6.63,663,0.13,-0.225,-0.146,10.7716104,-20.626488000000002,-11.6310474,81.6751629,-5.87854908,149.00918706
6.64,664,0.042,-0.6940000000000001,-0.188,-7.1046792000000005,-33.6899304,-25.668518399999996,81.65797416000002,-5.62071798,148.62530519999999
6.65,665,-0.305,-1.557,-0.648,-57.123912600000004,55.06126379999999,-63.02538000000001,81.02772036,-4.94462754,149.06648286
6.66,666,-1.115,-2.2359999999999998,-1.227,-24.8663772,88.5793068,-114.13323359999998,80.70686388,-3.70703826,149.75976204
6.67,667,-0.353,-2.392,0.359,16.902261,43.888582799999995,-79.92764100000002,80.85583296,-2.86479,150.06342978
6.68,668,0.696,-1.932,-0.11599999999999999,-29.1062664,5.0993262,-23.777757,80.55789480000001,-2.62987722,150.07488894
6.6899999999999995,669,0.883,-2.0780000000000003,-0.48,-21.371333399999997,-21.772404,-2.5783110000000002,80.35162992,-2.62987722,149.85143532
6.7,670,0.375,-2.187,-0.294,-7.2192707999999985,-23.204798999999998,-4.5263682,80.29433412,-2.61841806,149.61652254
6.71,671,-0.226,-2.3819999999999997,-0.309,-8.8235532,-26.241476399999996,-11.172680999999999,80.21984957999999,-2.54393352,149.34150269999995
6.72,672,-0.359,-2.261,-0.27899999999999997,-5.0993262,-24.694489800000003,-10.026765,80.17974252,-2.48090814,149.07794202
6.7299999999999995,673,-0.20600000000000002,-2.204,-0.159,-7.2765666,-23.663165399999997,-3.7242269999999995,80.12244672,-2.48090814,148.84302924000005
6.74,674,-0.175,-2.25,-0.15,-13.0061466,-24.4653066,-0.572958,80.00212554,-2.50955604,148.5966573
6.75,675,-0.187,-2.149,-0.125,-14.438541599999999,-19.767051000000002,0.8021411999999999,79.86461562,-2.5496631,148.40758116
6.76,676,-0.20800000000000002,-1.956,-0.13,-11.917526400000002,-19.7097552,4.7555514,79.75575359999998,-2.62414764,148.21850502
6.77,677,-0.221,-1.7930000000000001,-0.14400000000000002,-8.307891,-23.605869600000002,9.6256944,79.68699864,-2.75592798,148.00651056
6.78,678,-0.212,-1.6469999999999998,-0.135,-5.9014674000000005,-27.100913399999996,13.6936962,79.641162,-2.92781538,147.76013862
6.79,679,-0.252,-1.485,-0.121,-3.8961144,-28.5906042,15.813640800000002,79.62970284,-3.14553942,147.51376667999997
6.8,680,-0.303,-1.286,-0.12300000000000001,-0.9740286,-23.204798999999998,15.297978599999999,79.62970284,-3.32888598,147.31323138
6.81,681,-0.305,-1.067,-0.10099999999999999,3.0366774,-12.2040054,12.7196676,79.66980989999998,-3.47212548,147.21582852
6.82,682,-0.264,-0.8690000000000001,-0.11900000000000001,4.4117766,-3.8961144,8.7089616,79.71564654,-3.56379876,147.1929102
6.83,683,-0.214,-0.653,-0.125,6.703608600000001,0.0,4.297185,79.7844015,-3.60390582,147.20436936000004
6.84,684,-0.124,-0.46299999999999997,-0.09300000000000001,13.8655836,6.0733548,1.5469866,79.91618184000002,-3.62109456,147.26739474
6.85,685,-0.032,-0.293,-0.109,20.8556712,8.9381448,0.8021411999999999,80.12244672,-3.61536498,147.35906802
6.86,686,0.048,-0.11699999999999999,-0.065,28.3041252,7.734933000000002,2.6929026,80.40319614,-3.62682414,147.44501172
6.87,687,0.10099999999999999,-0.013999999999999999,0.008,33.231564,4.9274388,6.0733548,80.73551178,-3.67839036,147.5080371
6.88,688,0.136,0.036000000000000004,-0.025,30.4813656,3.8961144,8.250595200000001,81.03917952,-3.752874900000001,147.55960332
6.89,689,0.11900000000000001,0.068,-0.08900000000000001,27.6738714,4.4117766,6.6463128000000005,81.29128104,-3.78725238,147.61689912
6.9,690,0.039,0.065,-0.07200000000000001,27.6738714,7.161975,1.9480572,81.56630088,-3.79298196,147.69711324
6.91,691,-0.039,0.021,-0.07200000000000001,22.6891368,15.928232399999999,-1.2605076000000002,81.78402492,-3.75860448,147.8518119
6.92,692,-0.084,0.0,-0.12300000000000001,11.2299768,24.637194,-0.6875496,81.8756982,-3.7242269999999995,148.09818384
6.93,693,-0.071,0.027000000000000003,-0.12,5.6149884000000005,30.5386614,3.8961144,81.91007568,-3.7299565800000014,148.40185158
6.9399999999999995,694,-0.026000000000000002,0.043,-0.149,4.297185,29.507337,10.943497800000001,81.89288694,-3.810170700000002,148.71697848
6.95,695,0.001,0.033,-0.168,4.2398892,20.168121600000006,18.1054728,81.92153484,-3.9648693599999993,148.9404321
6.96,696,0.027999999999999997,0.011000000000000001,-0.13699999999999998,4.8128472,17.5325148,21.886995600000002,81.95018274,-4.15967508,149.14669698
6.97,697,0.042,-0.059000000000000004,-0.084,5.0993262,20.912967000000002,22.1734746,81.98456021999998,-4.3544808,149.38160976
6.9799999999999995,698,0.066,-0.24600000000000002,-0.066,-5.2139178,31.627281600000003,20.6837838,81.89861652,-4.5206386200000015,149.71965498
6.99,699,0.32299999999999995,-0.708,-0.503,-48.128472,56.3217714,29.392745399999995,81.30274019999997,-4.70971476,150.3155313
7.0,700,0.373,-1.6340000000000001,-1.3259999999999998,-72.88025760000002,-8.9381448,59.53033620000001,80.56362438,-5.31705024,150.30980172000002
7.01,701,0.7390000000000001,-2.9330000000000003,-1.3940000000000001,-79.0109082,-83.3080932,114.9353748,79.84169729999998,-6.566098679999999,149.67954791999995
7.02,702,-0.019,-1.281,0.076,38.961144,-22.058882999999998,84.05293859999998,80.24849748,-7.4198061,149.61079295999997
7.03,703,-1.179,-1.055,0.184,6.875496000000001,8.9954406,15.469866,80.30579328,-7.55731602,149.72538456
7.04,704,-1.5659999999999998,-1.3969999999999998,-0.204,-9.3392154,44.51883660000001,-25.8977016,80.15109462000002,-7.25364828,150.12072558
7.05,705,-1.3159999999999998,-1.609,0.039,8.136003599999999,66.69231119999999,-28.4760126,80.15109462000002,-6.875496000000001,150.73379064
7.06,706,-0.6779999999999999,-1.925,-0.183,-9.0527364,79.75575359999998,-11.688343199999998,79.9562889,-6.65204238,151.49582478
7.07,707,-0.067,-2.2640000000000002,-0.16399999999999998,-2.1199446,83.5945722,2.0626488000000003,79.83023813999998,-6.54890994,152.32088430000005
7.08,708,0.226,-2.2769999999999997,-0.05,5.443101,83.25079740000002,8.021412000000002,79.77867192,-6.5030733,153.15740298
7.09,709,0.26899999999999996,-2.12,-0.021,11.9748222,75.916935,9.9121734,79.80731982,-6.48015498,153.91943712
7.1,710,0.153,-1.939,-0.040999999999999995,14.9542038,67.9528188,11.1153852,79.87607478,-6.48588456,154.61271630000005
7.11,711,-0.01,-1.8330000000000002,-0.036000000000000004,17.761698000000006,62.738901,9.0527364,79.97347764,-6.48588456,155.24297009999995
7.12,712,-0.168,-1.7990000000000002,-0.006999999999999999,19.0222056,65.317212,5.6722842,80.08233966,-6.4457775,155.9018718
7.13,713,-0.262,-1.705,-0.006,19.365980399999998,70.4165382,5.0993262,80.19120168,-6.39421128,156.60088056
7.14,714,-0.24600000000000002,-1.6030000000000002,-0.013999999999999999,19.7097552,74.9429064,7.7922288,80.31152286,-6.3598338000000005,157.35718512
7.15,715,-0.136,-1.4909999999999999,-0.019,18.449247600000003,80.3860074,12.4904844,80.39746656,-6.37129296,158.17078548
7.16,716,-0.01,-1.329,-0.032,19.308684600000007,84.56860079999998,18.048177,80.48341026,-6.428588760000001,159.03595206
7.17,717,0.08900000000000001,-1.097,-0.018000000000000002,24.1215318,85.42803780000001,22.1734746,80.62092018,-6.5317212,159.9125778
7.18,718,0.13699999999999998,-0.866,-0.012,30.7678446,82.62054359999998,22.803728399999997,80.82145548,-6.640583220000001,160.76628522
7.1899999999999995,719,0.131,-0.718,-0.049,35.4088044,79.24009140000003,21.7151082,81.07928658,-6.72079734,161.57988558
7.2,720,0.098,-0.56,-0.085,41.4248634,76.20341400000002,20.5118964,81.40014306,-6.82392978,162.37056762
7.21,721,0.04,-0.40399999999999997,-0.045,52.48295279999999,71.7343416,19.194093,81.82986156,-6.9270622200000025,163.11541302
7.22,722,-0.006999999999999999,-0.276,0.017,58.49901179999999,68.2392978,17.761698000000006,82.33406459999998,-7.018735500000001,163.82015136
7.2299999999999995,723,-0.023,-0.172,-0.008,59.0719698,67.2079734,16.329303,82.83826764,-7.11040878,164.51343054
7.24,724,0.025,-0.09300000000000001,-0.027999999999999997,59.1292656,64.457775,14.610429000000002,83.3367411,-7.1734341599999984,165.17233224
7.25,725,0.12300000000000001,-0.033,-0.043,59.4157446,58.49901179999999,11.8602306,83.85813288,-7.23645954,165.77393813999996
7.26,726,0.266,0.006999999999999999,-0.11,58.38442020000001,53.22779820000001,7.2192707999999985,84.37379508000002,-7.259377859999999,166.31824824
7.27,727,0.38799999999999996,0.048,-0.156,53.11320660000001,50.47759979999999,0.2291832000000001,84.84362064,-7.225000379999999,166.82818086
7.28,728,0.44,0.071,-0.107,49.2170922,47.1544434,-4.583664,85.27333913999998,-7.144786260000001,167.29800642
7.29,729,0.41200000000000003,0.068,-0.08900000000000001,44.748019799999994,40.5654264,-5.5576926,85.65722099999998,-7.01300592,167.69907701999998
7.3,730,0.315,0.015,-0.105,40.2789474,33.231564,-2.291832,86.02391412,-6.972898860000001,168.03139266
7.31,731,0.16699999999999998,-0.043,-0.105,34.4920716,29.9657034,3.7815228,86.33331144,-6.99581718,168.3350604
7.32,732,0.024,-0.128,-0.07400000000000001,28.934378999999996,30.4813656,8.7089616,86.58541296,-7.0703017200000025,168.65018730000003
7.33,733,-0.111,-0.237,-0.049,19.308684600000007,37.299565799999996,8.250595200000001,86.72865246,-7.13905668,169.02833958000005
7.34,734,-0.21899999999999997,-0.47700000000000004,-0.17800000000000002,3.9534102,51.9672906,2.0053530000000004,86.6598975,-7.17916374,169.56119052000003
7.35,735,-0.377,-0.74,-0.35100000000000003,-15.469866,64.4004792,-7.2765666,86.41352556000002,-7.0874904600000015,170.1971739
7.36,736,-0.502,-1.044,-0.39399999999999996,-22.7464326,70.35924240000001,-15.870936600000002,86.0869395,-6.9041438999999984,170.8847235
7.37,737,-0.502,-1.5719999999999998,-0.32899999999999996,-17.0741484,83.7091638,-32.142943800000005,85.81191966,-6.54890994,171.69832386
7.38,738,-0.496,-2.1830000000000003,-0.389,-10.026765,98.4914802,-57.35309579999999,85.58846604,-5.93584488,172.63224540000004
7.39,739,-0.308,-2.22,-0.23399999999999999,4.3544808,100.61142480000001,-66.23394479999999,85.53117024000002,-5.231106540000001,173.58335568
7.4,740,0.099,-1.796,-0.063,16.329303,86.91772859999998,-46.5814854,85.61138436,-4.7269035000000015,174.40841519999995
7.41,741,0.369,-1.705,-0.066,18.621135,75.4012728,-26.4706596,85.73170554,-4.42896534,175.14180144000005
7.42,742,0.26899999999999996,-2.09,-0.012,16.329303,69.7862844,-20.340009,85.83483798,-4.19405256,175.81789188
7.43,743,-0.015,-2.185,-0.06,6.990087599999999,75.00020219999998,-22.0015872,85.84629714,-3.94195104,176.54554853999997
7.4399999999999995,744,-0.20800000000000002,-2.125,-0.045,4.9847346,79.4119788,-22.1734746,85.83483798,-3.68411994,177.31904184
7.45,745,-0.233,-2.12,0.069,4.583664,83.76645959999998,-15.527161800000002,85.81764924000002,-3.4950437999999995,178.13837178
7.46,746,-0.138,-2.138,0.141,3.0939732,88.06364459999998,-3.8961144,85.78900134,-3.4148296799999995,179.00926794
7.47,747,-0.078,-2.106,0.125,-0.572958,88.52201099999998,6.589017,85.7145168,-3.4377480000000005,179.88589368
7.4799999999999995,748,-0.109,-2.016,0.096,1.432395,87.66257399999998,13.0634424,85.66295058,-3.52942128,-179.23272156000004
7.49,749,-0.152,-1.8559999999999999,0.06,5.5576926,88.98037740000002,15.6417534,85.65722099999998,-3.644012880000001,-178.33890708
7.5,750,-0.183,-1.624,0.022000000000000002,10.1413566,91.386801,15.6417534,85.69159848,-3.752874900000001,-177.42217428
7.51,751,-0.225,-1.41,0.028999999999999998,12.6623718,96.9444936,14.266654199999998,85.7431647,-3.85027776,-176.44814567999995
7.52,752,-0.22699999999999998,-1.227,0.027999999999999997,12.9488508,103.3043274,12.318597,85.78900134,-3.9190327200000006,-175.41682128
7.53,753,-0.20800000000000002,-1.04,0.0,10.3705398,109.2057948,9.9121734,85.80619008000002,-3.97059894,-174.32820108
7.54,754,-0.17,-0.8740000000000001,-0.027000000000000003,9.7975818,115.1072622,7.8495246,85.81191966,-4.010706,-173.18228508
7.55,755,-0.109,-0.726,-0.055999999999999994,10.2559482,119.9201094,6.3025379999999975,85.81764924000002,-4.01643558,-171.99053243999995
7.56,756,-0.039,-0.552,-0.11800000000000001,12.7196676,121.180617,4.9847346,85.84629714,-4.010706,-170.78159105999995
7.57,757,0.015,-0.386,-0.145,18.334656,118.60230599999998,4.1825934,85.93224083999998,-3.99924684,-169.60129758
7.58,758,0.053,-0.213,-0.10800000000000001,27.100913399999996,114.9926706,4.8128472,86.11558740000002,-3.99924684,-168.46111116
7.59,759,0.05,-0.165,-0.075,34.3201842,108.69013259999998,7.6776372,86.35622975999998,-4.022165159999999,-167.37249096
7.6,760,0.013999999999999999,-0.14800000000000002,-0.039,32.31483119999999,104.6221308,11.9748222,86.59687212,-4.102379279999999,-166.32397782
7.61,761,-0.01,-0.161,0.018000000000000002,25.382039399999996,107.08585020000001,14.5531332,86.76302994,-4.211241299999998,-165.25254636
7.62,762,-0.013000000000000001,-0.185,-0.02,15.4125702,109.6068654,14.5531332,86.82605532,-4.325832900000001,-164.15819658
7.63,763,-0.013000000000000001,-0.172,-0.154,4.4690724,109.8360486,12.261301199999998,86.7744891,-4.41750618,-163.06384680000005
7.64,764,-0.012,-0.10300000000000001,-0.195,1.5469866,114.0759378,9.224623800000002,86.65416791999998,-4.48053156,-161.91220122
7.65,765,-0.039,-0.06,-0.095,3.5523396000000003,119.9201094,8.7089616,86.57968338,-4.5263682,-160.72044857999995
7.66,766,-0.05,-0.062,-0.027999999999999997,2.8074942000000003,128.8009584,12.6623718,86.48801010000004,-4.612311900000001,-159.43702266
7.67,767,-0.022000000000000002,-0.129,-0.01,-1.5469866,138.2547654,20.454600600000006,86.34477059999998,-4.76701056,-158.05619388
7.68,768,-0.027000000000000003,-0.248,-0.028999999999999998,-10.313244000000001,137.6818074,26.5852512,86.10412824,-4.97900502,-156.6753651
7.6899999999999995,769,-0.068,-0.382,-0.11699999999999999,-17.9335854,134.7597216,29.67922440000001,85.76608302,-5.21964738,-155.31745464
7.7,770,-0.023,-0.52,-0.149,-22.1734746,139.3433856,30.65325300000001,85.39366032000002,-5.46028974,-153.91370754
7.71,771,0.027000000000000003,-0.7120000000000001,-0.12300000000000001,-20.05353,141.6925134,30.194886600000004,85.03269678,-5.67801378,-152.48704212
7.72,772,0.062,-1.044,-0.138,-23.204798999999998,145.817811,30.022999199999997,84.63162618,-5.89000824,-151.01454006
7.7299999999999995,773,0.107,-1.607,-0.33899999999999997,-37.872523799999996,138.369357,35.9817624,84.0815865,-6.15356892,-149.61079295999997
7.74,774,0.301,-2.505,-0.557,-46.29500640000001,122.6703078,46.982556,83.45706228,-6.52026204,-148.35028536
7.75,775,0.20800000000000002,-2.3040000000000003,-0.461,-24.637194,119.5190388,41.0810886,83.04453251999998,-6.82392978,-147.12415524
7.76,776,-0.218,-1.535,-0.376,8.9381448,122.899491,20.626488000000002,82.97004798,-6.90987348,-145.88083637999995
7.77,777,-0.428,-1.3519999999999999,-0.214,25.152856200000002,126.96749280000002,7.5630456000000015,83.05599168,-6.86403684,-144.60886962
7.78,778,-0.40399999999999997,-1.537,-0.044000000000000004,28.7051958,137.22344099999998,-3.4377480000000005,83.17058328,-6.7036086,-143.25095916
7.79,779,-0.293,-1.7109999999999999,0.036000000000000004,21.2567418,156.47482979999995,-11.172680999999999,83.19350159999998,-6.451507079999999,-141.70970214000005
7.8,780,-0.244,-1.8159999999999998,0.015,16.386598799999998,173.83545719999995,-13.464512999999998,83.14766496,-6.1592985,-140.00228729999998
7.81,781,-0.139,-1.89,0.046,18.506543399999998,182.2579398,-10.4278356,83.12474663999998,-5.89000824,-138.20892876
7.82,782,0.025,-1.8630000000000002,0.084,19.652459399999998,184.3778844,-1.8907614,83.11328748,-5.7009320999999975,-136.38692232
7.83,783,0.152,-1.8030000000000002,0.09699999999999999,20.5118964,186.6697164,7.7922288,83.11328748,-5.6035292399999985,-134.52480882
7.84,784,0.177,-1.7380000000000002,0.091,22.4026578,189.935577,11.9748222,83.14193537999998,-5.5405038599999985,-132.63404742
7.85,785,0.192,-1.598,0.071,24.2361234,190.79501399999998,14.8396122,83.17631286,-5.51185596,-130.72609728
7.86,786,0.18600000000000005,-1.4769999999999999,0.06,27.501984000000004,189.1334358,15.011499599999999,83.25079740000002,-5.48893764,-128.83533588
7.87,787,0.193,-1.319,0.07200000000000001,29.0489706,185.29461719999998,14.438541599999999,83.34247067999998,-5.466019319999999,-126.98468154
7.88,788,0.2,-1.151,0.084,30.5386614,182.9454894,14.5531332,83.45706228,-5.44883058,-125.15121594
7.89,789,0.19399999999999998,-1.005,0.092,31.913760600000003,183.5184474,14.610429000000002,83.5945722,-5.4144530999999985,-123.32347992
7.9,790,0.16899999999999998,-0.89,0.12300000000000001,32.4867186,183.8622222,14.7250206,83.72635254,-5.40299394,-121.48428474
7.91,791,0.134,-0.7979999999999999,0.109,29.220858000000003,185.12272980000003,14.8396122,83.82375540000002,-5.40299394,-119.6336304
7.92,792,0.154,-0.682,0.042,28.877083199999998,186.6124206,14.209358400000001,83.92115826,-5.39153478,-117.76578732
7.93,793,0.187,-0.578,-0.012,33.9191136,184.492476,13.6936962,84.06439776,-5.385805199999999,-115.92659214
7.94,794,0.185,-0.511,-0.018000000000000002,40.6227222,178.9347834,13.750992000000002,84.28785138,-5.3628868800000005,-114.13323359999998
7.95,795,0.163,-0.474,0.019,43.9458786,172.91872439999997,15.068795399999999,84.55141205999998,-5.39153478,-112.40290043999998
7.96,796,0.152,-0.456,0.024,43.258328999999996,168.3923562,17.589810600000003,84.80924316,-5.45456016,-110.71267434
7.97,797,0.177,-0.429,-0.02,40.6227222,163.92328380000004,19.7097552,85.03842636,-5.54623344,-109.06828488
7.9799999999999995,798,0.23800000000000002,-0.386,-0.07400000000000001,38.61736920000001,156.93319619999997,20.7410796,85.25615040000002,-5.66082504,-107.4869208
7.99,799,0.287,-0.32799999999999996,-0.084,36.898495200000006,146.963727,20.5691922,85.45668570000002,-5.7467687399999985,-106.00295958
8.0,800,0.303,-0.276,-0.084,35.17962120000001,137.5672158,20.1108258,85.65722099999998,-5.8728194999999985,-104.61640122
8.01,801,0.29,-0.23800000000000002,-0.078,29.621928600000004,126.6810138,20.3973048,85.80619008000002,-6.016058999999999,-103.34443446
8.02,802,0.218,-0.21899999999999997,-0.024,26.5279554,118.8314892,20.2254174,85.93797042,-6.165028080000001,-102.14695224
8.03,803,0.10300000000000001,-0.349,-0.057999999999999996,20.340009,117.5136858,19.7097552,86.0009958,-6.30826758,-100.96092918
8.04,804,-0.032,-0.396,-0.153,8.078707799999998,123.0713784,18.048177,85.90359294,-6.4400479200000005,-99.7233399
8.05,805,-0.152,-0.433,-0.19399999999999998,7.448453999999999,126.7956054,15.870936600000002,85.82337881999999,-6.53745078,-98.45137314
8.06,806,-0.293,-0.474,-0.21600000000000005,5.958763200000001,130.4052408,15.928232399999999,85.7145168,-6.640583220000001,-97.13929932
8.07,807,-0.382,-0.4920000000000001,-0.182,8.59437,134.358651,15.6990492,85.62857310000003,-6.7322565,-95.79284802
8.08,808,-0.42200000000000004,-0.619,-0.11599999999999999,8.880849000000003,141.0622596,10.2559482,85.53117024000002,-6.7609043999999985,-94.38337134
8.09,809,-0.42100000000000004,-0.851,-0.057,4.010706000000001,149.19826319999999,-1.0886202,85.38220116,-6.7093381800000005,-92.9051397
8.1,810,-0.40299999999999997,-1.181,-0.047,0.8594370000000001,160.3136484,-17.5325148,85.18739544,-6.4457775,-91.32377562
8.11,811,-0.439,-1.6440000000000001,-0.08800000000000001,-2.0626488000000003,177.903459,-38.38818600000001,84.95248266,-5.96449278,-89.58771288
8.12,812,-0.46799999999999997,-1.985,-0.158,-2.8074942000000003,193.373325,-54.54560160000001,84.71184029999998,-5.30559108,-87.7198698
8.13,813,-0.21600000000000005,-1.8619999999999999,-0.114,3.8388186,189.8782812,-47.326330799999994,84.56860079999998,-4.71544434,-85.88067462000002
8.14,814,0.302,-1.617,-0.1,14.1520626,170.2258218,-18.1054728,84.55714164,-4.40604702,-84.21336684
8.15,815,0.45899999999999996,-1.6909999999999998,-0.06,19.5378678,139.6298646,7.448453999999999,84.63162618,-4.38885828,-82.82107890000002
8.16,816,0.4,-1.724,-0.035,20.8556712,116.88343200000001,21.199446,84.73475862000002,-4.5206386200000015,-81.64078542
8.17,817,0.244,-1.705,-0.055999999999999994,19.8816426,99.80928359999999,23.5485738,84.84362064,-4.69252602,-80.63237934
8.18,818,0.106,-1.682,-0.053,18.2200644,87.20420759999998,19.079501399999998,84.94675308000002,-4.82430636,-79.75002402
8.19,819,-0.027999999999999997,-1.6230000000000002,-0.01,15.6417534,79.1254998,13.9228794,85.0269672,-4.91025006,-78.95361240000003
8.2,820,-0.156,-1.5419999999999998,-0.005,13.0634424,76.0888224,10.2559482,85.08426299999998,-4.96754586,-78.19157826
8.209999999999999,821,-0.256,-1.4580000000000002,-0.037000000000000005,12.2040054,76.7190762,7.906820400000001,85.13582922,-5.0019233399999985,-77.42381454
8.22,822,-0.332,-1.3530000000000002,-0.061,13.407217200000002,81.53192340000003,7.5630456000000015,85.18739544,-5.03057124,-76.60448459999998
8.23,823,-0.37799999999999995,-1.237,-0.062,15.813640800000002,89.55333540000002,9.224623800000002,85.25615040000002,-5.0706783,-75.71067012
8.24,824,-0.392,-1.1059999999999999,-0.046,17.9908812,97.5174516,10.4278356,85.3420941,-5.1566220000000005,-74.73664152
8.25,825,-0.3720000000000001,-0.966,-0.048,17.5325148,108.0598788,10.7716104,85.41084906,-5.2024586400000015,-73.65948048
8.26,826,-0.331,-0.8220000000000001,-0.09300000000000001,14.667724800000002,117.1126152,9.8548776,85.43949696000001,-5.2425657,-72.48491658
8.27,827,-0.278,-0.7070000000000001,-0.122,13.120738199999998,125.5923936,7.161975,85.43949696000001,-5.24829528,-71.23586814000002
8.28,828,-0.22399999999999998,-0.622,-0.115,11.917526400000002,133.212735,3.7815228,85.42230822,-5.2139178,-69.91233516
8.29,829,-0.157,-0.544,-0.115,10.1986524,139.85904779999998,1.6042823999999998,85.370742,-5.16808116,-68.52004722
8.3,830,-0.076,-0.46399999999999997,-0.098,9.3392154,143.98434540000005,0.9740286,85.31917578,-5.0993262,-67.0933818
8.31,831,-0.01,-0.445,-0.07400000000000001,7.448453999999999,147.8804598,2.291832,85.24469124,-5.042030400000002,-65.62660932
8.32,832,0.002,-0.479,-0.092,3.2085647999999996,149.19826319999999,4.583664,85.13009964,-5.00765292,-64.1426481
8.33,833,-0.01,-0.5529999999999999,-0.107,0.286479,150.8025456,5.3858052,84.98113056000003,-4.97327544,-62.64149814
8.34,834,-0.053,-0.635,-0.135,-2.6356068,154.18299779999995,3.4377480000000005,84.78632483999998,-4.91597964,-61.11170028
8.35,835,-0.105,-0.6729999999999999,-0.152,-3.8388186,160.02716940000005,-0.2291832000000001,84.59151912,-4.812847199999998,-59.53033620000001
8.36,836,-0.13699999999999998,-0.665,-0.142,-4.2398892,170.168526,-3.9534102,84.38525424,-4.65814854,-57.84583968000001
8.37,837,-0.124,-0.627,-0.146,-4.5263682,184.2632928,-6.875496000000001,84.17325978,-4.45761324,-56.03529239999999
8.38,838,-0.042,-0.606,-0.16899999999999998,-4.2398892,196.9829604,-8.021412000000002,83.95553574,-4.23415962,-54.09296478
8.39,839,0.054000000000000006,-0.7020000000000001,-0.146,-3.1512689999999997,200.9363706,-6.3025379999999975,83.74354128,-3.99924684,-52.11053010000001
8.4,840,0.149,-0.938,-0.22399999999999998,-11.2872726,187.70104080000002,1.432395,83.4799806,-3.85600734,-50.25987576
8.41,841,0.32899999999999996,-1.2009999999999998,-0.27899999999999997,-21.371333399999997,167.590215,18.5638392,83.12474663999998,-3.896114400000001,-48.58683840000001
8.42,842,0.557,-1.598,-0.302,-27.272800800000002,130.9781988,42.62807520000001,82.74086478000002,-4.19405256,-47.24611668
8.43,843,0.63,-1.699,-0.235,-24.2934192,99.7519878,61.6502808,82.39708998,-4.703985179999999,-46.18614438
8.44,844,0.449,-1.375,-0.092,0.9740286,80.61519059999998,58.49901179999999,82.32833502,-5.16235158,-45.30378906
8.45,845,0.133,-1.107,0.05,16.673077799999998,71.21867940000001,42.97185,82.42000829999998,-5.50612638,-44.547484499999996
8.459999999999999,846,-0.14,-1.16,0.132,17.8762896,63.25456320000001,19.767051000000002,82.52887032,-5.63790672,-43.89431238
8.47,847,-0.245,-1.335,0.12300000000000001,15.469866,57.06661679999999,0.11459160000000004,82.62627318,-5.58061092,-43.32708396
8.48,848,-0.25,-1.443,0.11,13.8655836,55.290447,-7.7922288,82.7064873,-5.443101,-42.78850344
8.49,849,-0.201,-1.442,0.085,14.209358400000001,54.6601932,-6.9327918,82.80961973999997,-5.32277982,-42.2556525
8.5,850,-0.151,-1.364,0.064,17.4179232,55.11855960000001,-3.4950437999999995,82.92994092,-5.23683612,-41.71707198
8.51,851,-0.10300000000000001,-1.2770000000000001,0.063,21.2567418,57.00932099999999,-1.5469866,83.09036916,-5.16235158,-41.14984356
8.52,852,-0.064,-1.2009999999999998,0.061,23.5485738,59.0719698,-1.8334656000000005,83.26798613999998,-5.0935966200000005,-40.5654264
8.53,853,-0.023,-1.0759999999999998,0.042,24.694489800000003,60.50436480000001,-3.0366774,83.45706228,-5.00765292,-39.96955008
8.54,854,0.028999999999999998,-0.9490000000000001,0.006999999999999999,28.1895336,58.9573782,-4.9274388,83.69770464000001,-4.87587258,-39.38513292
8.55,855,0.08,-0.861,-0.018000000000000002,31.51269000000001,52.8840234,-7.6203414,83.9669949,-4.7555514,-38.86374114
8.56,856,0.13,-0.804,-0.016,33.1742682,44.9199072,-10.7143146,84.26493306,-4.612311900000001,-38.42829306
8.57,857,0.18,-0.779,-0.025,32.8877892,36.1536498,-13.178034,84.56287122,-4.45761324,-38.07878868
8.58,858,0.225,-0.763,-0.028999999999999998,29.736520199999998,26.814434400000003,-13.9228794,84.84362064,-4.297185000000002,-37.82095758
8.59,859,0.252,-0.764,-0.028999999999999998,26.0122932,17.8189938,-13.2353298,85.09572216000002,-4.05654264,-37.63188144
8.6,860,0.258,-0.773,-0.032,21.944291399999997,9.568398599999998,-11.2872726,85.3134462,-3.93622146,-37.54593774
8.61,861,0.23600000000000002,-0.802,-0.026000000000000002,18.8503182,2.9220858,-8.651665800000002,85.50252234,-3.84454818,-37.52301942
8.62,862,0.183,-0.8490000000000001,-0.023,15.297978599999999,-1.3178034,-5.042030400000002,85.65722099999998,-3.79298196,-37.53447858
8.63,863,0.124,-0.893,-0.009000000000000001,11.2872726,-6.130650599999999,-0.9740286,85.77754218,-3.78725238,-37.59750396
8.64,864,0.081,-0.9279999999999999,0.006,7.5630456000000015,-10.313244000000001,2.6929026,85.90932252,-3.70703826,-37.67771808
8.65,865,0.064,-0.951,-0.001,4.1825934,-14.381245800000002,6.4744254,85.96088874,-3.77579322,-37.81522800000001
8.66,866,0.078,-0.961,-0.028999999999999998,0.1718874,-17.8762896,10.7716104,85.97807748,-3.89038482,-37.9871154
8.67,867,0.076,-0.9590000000000001,-0.047,-1.2605076000000002,-19.9389384,14.9542038,85.97807748,-4.04508348,-38.17046196
8.68,868,0.075,-0.981,-0.07200000000000001,0.2291832000000001,-19.136797199999997,18.449247600000003,86.0009958,-4.2398892,-38.34807894
8.69,869,0.084,-1.011,-0.095,1.7761698000000001,-17.475219,20.6837838,86.00672538,-4.37739912,-38.49704802
8.7,870,0.057,-1.028,-0.11199999999999999,3.4377480000000005,-16.501190400000002,21.0848544,86.05829159999998,-4.58939358,-38.6460171
8.71,871,-0.065,-1.074,-0.113,5.7868758000000025,-16.1001198,19.194093,86.13277614,-4.78992888,-38.7892566
8.72,872,-0.22399999999999998,-1.178,-0.102,8.880849000000003,-8.59437,15.6417534,86.23017899999998,-4.94462754,-38.86374114
8.73,873,-0.371,-1.276,-0.09300000000000001,9.3392154,4.297185,10.7143146,86.32185228,-5.04775998,-38.81217492
8.74,874,-0.436,-1.347,-0.06,12.318597,22.7464326,3.2658606,86.41925513999998,-5.0993262,-38.588721299999996
8.75,875,-0.389,-1.3530000000000002,-0.156,7.9641161999999985,37.586044799999996,-5.3858052,86.46509178,-5.03057124,-38.22202818
8.76,876,-0.187,-1.1440000000000001,-0.268,9.740286,39.3622146,-12.261301199999998,86.52238758000001,-4.898790900000002,-37.83241674
8.77,877,0.073,-0.935,-0.192,26.0122932,29.9657034,-16.558486199999994,86.75730036,-4.72117392,-37.54593774
8.78,878,0.266,-0.799,-0.05,36.03905820000001,16.902261,-15.9855282,87.11253432000002,-4.5550161000000005,-37.37977992
8.79,879,0.332,-0.7240000000000001,-0.032,34.37748,0.9167328000000001,-9.2819196,87.45057954,-4.3315624800000005,-37.34540244
8.8,880,0.313,-0.721,-0.037000000000000005,30.7105488,-6.3598338,-1.0313244000000001,87.76570644,-4.31437374,-37.40269823999999
8.81,881,0.253,-0.7909999999999999,-0.049,23.5485738,-9.7975818,6.7609043999999985,88.01780796,-4.3831287,-37.5001011
8.82,882,0.162,-0.899,-0.087,15.4125702,-11.8602306,12.605075999999999,88.18396578000002,-4.50917946,-37.60896312
8.83,883,0.046,-0.986,-0.138,10.5424272,-14.381245800000002,15.126091199999998,88.30428696,-4.65814854,-37.74647304
8.84,884,-0.085,-1.02,-0.13699999999999998,10.7716104,-17.131444199999994,15.068795399999999,88.38450107999998,-4.82430636,-37.91263086
8.85,885,-0.2,-1.0490000000000002,-0.09,11.3445684,-16.615782,14.266654199999998,88.51628142,-4.96754586,-38.0730591
8.86,886,-0.249,-1.082,-0.08800000000000001,8.651665800000002,-13.8082878,14.1520626,88.61368428,-5.10505578,-38.21056902
8.87,887,-0.23199999999999998,-1.088,-0.08900000000000001,7.906820400000001,-11.2872726,13.0634424,88.70535756,-5.23683612,-38.31943104
8.88,888,-0.20199999999999999,-1.097,-0.084,10.5424272,-10.313244000000001,10.599723,88.82567874,-5.339968560000001,-38.4168339
8.89,889,-0.174,-1.0959999999999999,-0.065,12.318597,-10.943497800000001,8.479778399999999,88.93454076,-5.443101,-38.52569592
8.9,890,-0.145,-1.065,-0.047,13.521808800000002,-11.3445684,7.7922288,89.08350984,-5.52331512,-38.63455794
8.91,891,-0.128,-1.024,-0.032,14.7250206,-9.9694692,8.078707799999998,89.24393807999998,-5.59779966,-38.7319608
8.92,892,-0.121,-0.987,-0.024,15.3552744,-8.4224826,8.250595200000001,89.4100959,-5.67801378,-38.81217492
8.93,893,-0.111,-0.961,0.022000000000000002,16.902261,-6.3025379999999975,8.193299399999999,89.58771288,-5.7582279000000005,-38.875200299999996
8.94,894,-0.122,-0.95,0.057,17.0168526,-4.6409598,8.479778399999999,89.79397776,-5.85563076,-38.92676652
8.95,895,-0.15,-0.9570000000000001,0.073,15.068795399999999,-2.5783110000000002,8.8235532,89.95440599999998,-5.94157446,-38.94968484
8.96,896,-0.16699999999999998,-0.977,0.057,12.4904844,-0.057295800000000015,8.307891,90.08045676,-6.02178858,-38.94968484
8.97,897,-0.174,-1.005,0.016,10.1986524,1.2032118,6.9327918,90.1835892,-6.09054354,-38.9324961
8.98,898,-0.18,-1.002,-0.015,9.1100322,-0.8021411999999999,4.6982555999999995,90.27526248,-6.13638018,-38.94395526
8.99,899,-0.163,-0.9590000000000001,-0.004,8.651665800000002,-3.4950437999999995,1.4896908000000002,90.32682870000001,-6.2165943,-38.98406232000001
9.0,900,-0.129,-0.903,-0.012,5.72958,-5.72958,-1.8334656000000005,90.39558366,-6.19367598,-39.04135812
9.01,901,-0.099,-0.86,-0.026000000000000002,2.5210152000000003,-7.6776372,-5.3285094000000015,90.42996114,-6.13638018,-39.11584266
9.02,902,-0.084,-0.851,-0.028999999999999998,-0.9167328000000001,-9.3392154,-9.453807,90.42996114,-6.03897732,-39.20751594
9.03,903,-0.067,-0.884,-0.039,-5.72958,-10.1413566,-12.605075999999999,90.3841245,-5.9129265600000025,-39.31064838
9.04,904,-0.044000000000000004,-0.946,-0.068,-8.7662574,-10.828906199999999,-14.381245800000002,90.24661458,-5.735309579999999,-39.408051240000006
9.05,905,-0.046,-1.028,-0.092,-9.682990199999999,-12.6623718,-14.438541599999999,90.16640046,-5.5863404999999995,-39.534102
9.06,906,-0.07200000000000001,-1.101,-0.102,-8.136003599999999,-15.011499599999999,-12.891555,90.0976455,-5.45456016,-39.68307108000001
9.07,907,-0.10800000000000001,-1.143,-0.085,-5.2139178,-15.5844576,-10.828906199999999,90.06326802,-5.3456981400000005,-39.83776974
9.08,908,-0.152,-1.1540000000000001,-0.066,-2.1199446,-15.183387000000002,-8.7089616,90.05753844,-5.25402486,-39.9924684
9.09,909,-0.17800000000000002,-1.137,-0.040999999999999995,1.2605076000000002,-13.8082878,-6.7609043999999985,90.05753844,-5.21964738,-40.1357079
9.1,910,-0.18,-1.109,-0.018000000000000002,4.1825934,-11.688343199999998,-4.1825934,90.10910466,-5.17381074,-40.2502995
9.11,911,-0.18,-1.079,0.012,4.4117766,-9.0527364,-2.0626488000000003,90.16640046,-5.15089242,-40.341972780000006
9.12,912,-0.17600000000000002,-1.042,0.013000000000000001,2.0053530000000004,-6.875496000000001,-0.7448454000000001,90.18931878,-5.13943326,-40.40499816
9.13,913,-0.17300000000000001,-0.991,0.004,0.1718874,-4.8128472,-0.1718874,90.20077794,-5.13943326,-40.45656438
9.14,914,-0.175,-0.9590000000000001,0.0,-0.8021411999999999,-2.2345362,0.1718874,90.05753844,-5.5576926,-40.55396724000001
9.15,915,-0.18100000000000002,-0.948,-0.008,-1.3750992,0.572958,0.9740286,90.04034970000002,-5.56342218,-40.54823766
9.16,916,-0.18600000000000005,-0.946,-0.022000000000000002,-1.145916,3.2085647999999996,2.5783110000000002,90.02316096,-5.59207008,-40.51386018
9.17,917,-0.191,-0.9440000000000001,0.001,0.0,5.7868758000000025,4.6409598,90.01743138,-5.63790672,-40.45656438
9.18,918,-0.195,-0.968,0.033,1.145916,8.59437,6.0733548,90.02316096,-5.7009320999999975,-40.37062068
9.19,919,-0.188,-1.008,0.04,0.0,12.032118,6.3025379999999975,90.02316096,-5.83271244,-40.26748824
9.2,920,-0.16899999999999998,-1.0270000000000001,0.031,-1.3178034,13.6936962,5.6722842,89.98878348,-5.895737819999999,-40.12997832
9.21,921,-0.13699999999999998,-1.026,0.021,-1.432395,14.1520626,4.3544808,89.96013558000001,-5.94157446,-39.9924684
9.22,922,-0.106,-1.02,0.006999999999999999,-0.6875496,13.9228794,2.4637194,89.93721726,-5.97022236,-39.85495848000001
9.23,923,-0.08900000000000001,-1.012,0.008,0.2291832000000001,13.0634424,0.8021411999999999,89.9257581,-5.98168152,-39.72317814
9.24,924,-0.08199999999999999,-1.005,0.003,0.286479,11.917526400000002,-0.11459160000000004,89.8684623,-5.9473040400000015,-39.5913978
9.25,925,-0.087,-0.9990000000000001,-0.02,0.057295800000000015,10.886202,-0.6875496,89.85700313999996,-5.94157446,-39.48253578
9.26,926,-0.102,-0.995,-0.008,1.8334656000000005,9.8548776,-1.2032118,89.8684623,-5.930115299999999,-39.38513292
9.27,927,-0.107,-0.991,0.017,3.7242269999999995,9.7975818,-1.2032118,89.89138061999998,-5.92438572,-39.28773006
9.28,928,-0.10400000000000001,-0.98,0.042,4.7555514,9.5111028,-0.3437748,89.93148768,-5.91865614,-39.19032720000001
9.29,929,-0.1,-0.973,0.049,5.2139178,8.307891,0.8594370000000001,90.00597222,-5.92438572,-39.11011308
9.3,930,-0.09300000000000001,-0.9740000000000001,0.05,5.5003968,6.6463128000000005,1.8334656000000005,90.05753844,-5.94157446,-39.04135812
9.31,931,-0.08900000000000001,-0.983,0.053,5.5576926,4.8128472,2.1199446,90.10910466,-5.96449278,-38.99552148
9.32,932,-0.091,-0.9940000000000001,0.044000000000000004,5.0993262,3.3231564,2.1199446,90.1549413,-5.9874111,-38.961144
9.33,933,-0.095,-1.002,0.028999999999999998,4.0680017999999984,2.4064236,1.7761698000000001,90.19504836000002,-6.00459984,-38.9324961
9.34,934,-0.10300000000000001,-1.008,0.015,3.3231564,1.8907614,1.5469866,90.1835892,-6.016058999999999,-38.90957778
9.35,935,-0.11699999999999999,-1.013,0.01,3.0366774,1.5469866,1.8907614,90.2122371,-6.03897732,-38.89238904
9.36,936,-0.131,-1.02,0.023,3.4950437999999995,1.5469866,1.8907614,90.24661458,-6.05616606,-38.88092988
9.37,937,-0.14400000000000002,-1.024,0.037000000000000005,3.6669312000000014,1.8334656000000005,1.7761698000000001,90.28099206,-6.0733548000000015,-38.85801156
9.38,938,-0.15,-1.028,0.051,2.86479,2.5783110000000002,1.432395,90.30391038,-6.09054354,-38.83509324
9.39,939,-0.15,-1.028,0.05,0.572958,3.4950437999999995,1.432395,90.36120618,-6.1994055600000015,-38.82363408
9.4,940,-0.14400000000000002,-1.018,0.043,-1.7188740000000002,3.7815228,1.5469866,90.33828786,-6.2165943,-38.78352702
9.41,941,-0.13699999999999998,-1.001,0.032,-2.9220858,3.5523396000000003,1.6042823999999998,90.30391038,-6.2337830400000005,-38.74914954000001
9.42,942,-0.131,-0.988,0.031,-3.2085647999999996,3.2085647999999996,1.432395,90.2695329,-6.25097178,-38.72050164
9.43,943,-0.132,-0.983,0.028999999999999998,-3.2658606,3.5523396000000003,1.3178034,90.22942584,-6.26243094,-38.68612416
9.44,944,-0.139,-0.988,0.034,-3.6096353999999997,4.5263682,1.2605076000000002,90.20650752,-6.3254563200000025,-38.65174668
9.45,945,-0.13699999999999998,-0.997,0.035,-4.4690724,6.875496000000001,1.2605076000000002,90.1549413,-6.33691548,-38.58299172
9.46,946,-0.132,-1.0090000000000001,0.025,-5.3285094000000015,8.651665800000002,1.3178034,90.09191592,-6.35410422,-38.49704802
