TimeStamp(s),FrameCounter,AccX,AccY,AccZ,GyrX,GyrY,GyrZ,EulerX,EulerY,EulerZ
0.01,1,-0.037000000000000005,-1.006,0.058,1.0313244,-1.2605076000000002,-0.11459160000000003,92.80200726,-1.78189938,-0.5443101
0.02,2,-0.042,-1.01,0.052000000000000005,1.3178034,-0.9740286,-0.1718874,92.81346642,-1.78189938,-0.55576926
0.03,3,-0.041,-1.01,0.049,1.3750992,-0.572958,-0.1718874,92.83065516000002,-1.7761698,-0.56149884
0.04,4,-0.039,-1.009,0.051,1.2605076000000002,-0.4583664000000001,-0.22918320000000006,92.84211432,-1.7761698,-0.56149884
0.05,5,-0.036000000000000004,-1.009,0.049,1.0886202,-0.572958,-0.3437748,92.81346642,-1.77044022,-0.56722842
0.060000000000000005,6,-0.034,-1.011,0.049,0.7448454000000001,-0.6302538000000001,-0.4010706,92.82492558,-1.77044022,-0.5729580000000001
0.06999999999999999,7,-0.03,-1.011,0.046,0.5156622000000001,-0.9167328,-0.4583664000000001,92.83065516000002,-1.76471064,-0.5786875800000001
0.08,8,-0.029,-1.009,0.045,0.1718874,-1.3178034,-0.4583664000000001,92.83065516000002,-1.75898106,-0.59587632
0.09,9,-0.031,-1.009,0.046,-0.057295800000000015,-1.432395,-0.4010706,92.83065516000002,-1.75325148,-0.6073354799999999
0.09999999999999999,10,-0.034,-1.009,0.043,-0.22918320000000006,-1.3750992,-0.4583664000000001,92.77908894,-1.7475218999999995,-0.61879464
0.11,11,-0.037000000000000005,-1.012,0.042,-0.4010706,-1.145916,-0.4583664000000001,92.77908894,-1.74179232,-0.6302538000000001
0.12,12,-0.036000000000000004,-1.014,0.044,-0.572958,-0.9167328,-0.5156622000000001,92.77335936,-1.73606274,-0.63598338
0.13,13,-0.037000000000000005,-1.014,0.042,-1.145916,-0.6875496,-0.572958,92.7619002,-1.73033316,-0.64171296
0.14,14,-0.038,-1.014,0.04,-1.6615782,-0.9167328,-0.7448454000000001,92.74471146,-1.7246035799999997,-0.65317212
0.15000000000000002,15,-0.038,-1.014,0.038,-2.1199446,-0.7448454000000001,-0.8594370000000001,92.69887482,-1.7188740000000002,-0.6589017
0.16,16,-0.037000000000000005,-1.014,0.037000000000000005,-2.6356068,-0.6302538000000001,-0.9740286,92.67022692,-1.7074148399999998,-0.66463128
0.17,17,-0.036000000000000004,-1.013,0.035,-2.9793816000000004,-0.6302538000000001,-1.0313244,92.64157902,-1.6959556799999995,-0.6703608600000001
0.18000000000000002,18,-0.034,-1.012,0.034,-3.4377480000000005,-0.8594370000000001,-1.2032118,92.60147196,-1.6844965200000002,-0.67609044
0.19,19,-0.032,-1.01,0.029,-4.010706000000001,-0.9167328,-1.3178034,92.56136490000002,-1.67303736,-0.6875496
0.2,20,-0.028,-1.008,0.026,-4.1252976000000015,-1.0886202,-1.3178034,92.5040691,-1.6558486199999998,-0.69900876
0.21000000000000002,21,-0.026,-1.007,0.03,-4.010706000000001,-1.432395,-1.3178034,92.46396204,-1.6386598799999998,-0.7104679199999999
0.22,22,-0.024,-1.007,0.026,-4.3544808,-1.6615782,-1.3750992,92.4181254,-1.6272007199999998,-0.72765666
0.23,23,-0.026,-1.01,0.021,-4.4117766,-2.0626488000000003,-1.432395,92.37228876,-1.61001198,-0.75057498
0.24000000000000002,24,-0.028,-1.007,0.015,-4.583664,-2.4637194,-1.7761698,92.32645212,-1.59282324,-0.7734933
0.25,25,-0.028,-1.001,0.014,-4.2398892,-2.7501984,-2.1772404,92.26915632,-1.56417534,-0.79641162
0.26,26,-0.028,-0.999,0.014,-3.3231564,-2.8074942000000003,-2.6356068,92.23477884,-1.5412570200000002,-0.8250595199999999
0.27,27,-0.026,-1.004,0.02,-3.0366774,-2.4064236,-3.2085648,92.20613094,-1.50687954,-0.8479778399999999
0.28,28,-0.026,-1.008,0.021,-4.2398892,-1.6042823999999998,-3.724227,92.1602943,-1.46677248,-0.86516658
0.29000000000000004,29,-0.024,-1.007,0.018000000000000002,-5.5003968,-2.0626488000000003,-4.1252976000000015,92.10872808,-1.42666542,-0.8823553199999999
0.3,30,-0.021,-1.002,0.022,-5.72958,-2.8074942000000003,-4.4690724,92.03997312,-1.3750992,-0.91100322
0.31,31,-0.021,-1.004,0.022,-6.1879464,-2.6929026,-4.8701430000000006,91.97694774,-1.32926256,-0.93392154
0.32,32,-0.02,-1.007,0.022,-6.8182002000000015,-2.6356068,-5.042030400000002,91.90819278,-1.27769634,-0.96256944
0.33,33,-0.017,-1.011,0.03,-7.7349330000000025,-2.8074942000000003,-5.2712136,91.83370824,-1.22040054,-0.9912173399999998
0.34,34,-0.013,-1.016,0.024,-9.167328,-2.9220857999999996,-5.9014674000000005,91.74203496,-1.16310474,-1.01986524
0.35000000000000003,35,-0.011,-1.017,0.014,-11.0007936,-3.0366774,-6.417129599999999,91.62171378,-1.09434978,-1.04851314
0.36000000000000004,36,-0.009000000000000001,-1.012,0.008,-12.1467096,-3.4377480000000005,-6.875496000000001,91.5013926,-1.0255948199999998,-1.07716104
0.37,37,-0.008,-1.005,0.008,-12.9488508,-4.6982556,-7.0473834,91.36961226,-0.95683986,-1.12299768
0.38,38,-0.006999999999999999,-0.995,0.011,-13.750992000000002,-5.3285094000000015,-7.0473834,91.23210234,-0.8823553199999999,-1.18029348
0.39,39,-0.005,-0.985,0.006999999999999999,-14.7823164,-4.9274388,-7.2765666,91.08313326,-0.8078707799999998,-1.22613012
0.4,40,-0.004,-0.983,0.006,-14.9542038,-4.3544808,-7.5057497999999985,90.92843459999999,-0.73338624,-1.27196676
0.41000000000000003,41,-0.003,-0.994,-0.004,-15.5844576,-4.297185,-7.7349330000000025,90.76800636,-0.65317212,-1.31207382
0.42000000000000004,42,0.002,-1.0,-0.02,-16.615782,-4.1825934,-7.7922288,90.60184854,-0.5729580000000001,-1.3579104599999998
0.43,43,0.002,-1.0,-0.019,-17.4179232,-5.2712136,-7.448453999999999,90.42423156,-0.4984734599999999,-1.40947668
0.44,44,-0.001,-0.998,-0.02,-18.5065434,-6.3598338,-7.333862400000001,90.240885,-0.4297185000000001,-1.47250206
0.45,45,-0.009000000000000001,-0.99,-0.022,-20.8556712,-6.703608600000001,-7.5057497999999985,90.02316096,-0.35523396,-1.5412570200000002
0.46,46,-0.013,-0.976,-0.024,-22.1161788,-6.9327918,-7.5630456000000015,89.79970734,-0.27501984,-1.6157415599999996
0.47000000000000003,47,-0.014,-0.961,-0.019,-21.829699800000004,-7.3911582,-7.906820400000001,89.57625372,-0.20053530000000008,-1.6902260999999998
0.48000000000000004,48,-0.021,-0.945,-0.022,-21.5432208,-7.2765666,-8.3651868,89.35852968,-0.11459160000000002,-1.76471064
0.49,49,-0.024,-0.941,-0.019,-19.8816426,-6.130650599999999,-8.880849000000003,89.15799438,-0.028647900000000004,-1.82773602
0.5,50,-0.022,-0.95,-0.016,-19.8243468,-4.583664,-8.9381448,88.95745908,0.05156622,-1.87930224
0.51,51,-0.021,-0.96,-0.016,-20.7410796,-2.8074942000000003,-8.7089616,88.74546462,0.13750992,-1.90795014
0.52,52,-0.015,-0.983,-0.025,-21.3140376,-1.145916,-8.193299399999999,88.52774058,0.21772404,-1.92513888
0.53,53,0.0,-0.997,-0.04,-22.4026578,0.4583664000000001,-7.161975,88.30428696,0.28647900000000004,-1.92513888
0.54,54,0.011,-0.999,-0.045,-23.14750320000001,0.11459160000000003,-5.844171599999999,88.0636446,0.3437748,-1.92513888
0.55,55,0.015,-0.996,-0.045,-23.6631654,-0.8594370000000001,-4.4690724,87.82300224,0.38961144,-1.94232762
0.56,56,0.013,-0.993,-0.047,-24.5798982,-2.3491278,-3.4950437999999995,87.57090072000004,0.41825934,-1.97097552
0.5700000000000001,57,0.001,-0.981,-0.042,-24.8090814,-4.0680017999999984,-3.0939732,87.31879920000002,0.44690724,-2.01108258
0.5800000000000001,58,-0.004,-0.975,-0.043,-25.496631,-3.6096354,-3.4950437999999995,87.0609681,0.48128472,-2.05118964
0.59,59,-0.005,-0.969,-0.052000000000000005,-27.1582092,-2.86479,-4.010706000000001,86.78594826,0.5156622000000001,-2.08556712
0.6,60,-0.005,-0.965,-0.061,-27.6165756,-3.724227,-4.1252976000000015,86.50519884,0.55576926,-2.13140376
0.61,61,0.0,-0.979,-0.065,-29.0489706,-5.0993262,-4.0680017999999984,86.20726068,0.59014674,-2.18296998
0.62,62,0.002,-0.99,-0.076,-30.194886600000004,-5.2139178,-3.8961144,85.90359294,0.62452422,-2.24599536
0.63,63,0.005,-1.001,-0.084,-30.93973200000001,-5.5576926,-3.4950437999999995,85.58846604,0.65317212,-2.30329116
0.64,64,0.001,-0.994,-0.08199999999999999,-31.79916900000001,-6.703608600000001,-3.3804522000000006,85.26187998,0.68182002,-2.3777757
0.65,65,-0.009000000000000001,-0.973,-0.087,-33.403451399999994,-6.703608600000001,-3.5523396000000003,84.92383476,0.70473834,-2.45226024
0.66,66,-0.018000000000000002,-0.946,-0.085,-34.4920716,-5.6722842,-3.8961144,84.57433037999998,0.7391158200000001,-2.51528562
0.67,67,-0.02,-0.911,-0.103,-35.6379876,-5.844171599999999,-4.4117766,84.20763725999998,0.7734933,-2.5783110000000002
0.68,68,-0.019,-0.8690000000000001,-0.059,-34.091001,-5.958763200000001,-5.443101,83.86386246,0.8193299399999999,-2.64706596
0.6900000000000001,69,-0.02,-0.863,-0.047,-35.17962120000001,-5.443101,-6.589017,83.5086285,0.8823553199999999,-2.71009134
0.7000000000000001,70,-0.016,-0.878,-0.039,-37.0703826,-3.6096354,-7.2192707999999985,83.1362058,0.9453806999999999,-2.76165756
0.7100000000000001,71,-0.006,-0.914,-0.034,-39.7059894,-1.7761698,-7.333862400000001,82.72940562,1.00840608,-2.79030546
0.72,72,0.006,-0.944,-0.07200000000000001,-43.258329,-1.7761698,-7.161975,82.28822796,1.07716104,-2.81895336
0.73,73,0.015,-0.973,-0.105,-44.4615408,-1.8907613999999997,-7.2765666,81.83559113999998,1.14018642,-2.85333084
0.74,74,0.011,-0.986,-0.118,-44.6334282,-0.8021411999999999,-7.3911582,81.38295432,1.20894138,-2.87624916
0.75,75,0.002,-0.974,-0.129,-44.404245,0.8021411999999999,-7.333862400000001,80.93604708,1.27769634,-2.88770832
0.76,76,-0.013,-0.914,-0.062,-43.544808,0.4583664000000001,-7.3911582,80.48913983999998,1.3464512999999998,-2.89916748
0.77,77,-0.014,-0.852,0.054000000000000006,-34.1482968,3.0366774,-7.9641161999999985,80.14536504,1.4209358399999998,-2.88197874
0.78,78,-0.001,-0.875,-0.024,-37.6433406,4.2398892,-8.5370742,79.76148318,1.51260912,-2.85906042
0.79,79,-0.002,-0.932,-0.056,-37.0130868,5.7868758000000025,-10.026765,79.3833309,1.6157415599999996,-2.82468294
0.8,80,-0.017,-1.004,-0.069,-36.4401288,8.250595200000001,-11.8029348,79.02236736,1.73606274,-2.76738714
0.81,81,-0.024,-1.015,-0.097,-38.5600734,10.6570188,-12.9488508,78.63275592,1.87357266,-2.6929026
0.8200000000000001,82,-0.018000000000000002,-0.995,-0.124,-40.04976420000001,12.4331886,-13.0061466,78.22595574,2.01681216,-2.6012293200000003
0.8300000000000001,83,0.005,-0.965,-0.153,-40.7946096,13.9228794,-12.5477802,77.81342598,2.16005166,-2.4923673
0.8400000000000001,84,0.047,-0.939,-0.16699999999999998,-39.534102,15.5844576,-12.1467096,77.41235538,2.30329116,-2.37204612
0.85,85,0.07200000000000001,-0.927,-0.154,-36.4401288,15.183387000000002,-10.599723,77.05139184,2.4350715000000003,-2.25172494
0.86,86,0.069,-0.934,-0.131,-35.6379876,13.2353298,-8.3651868,76.6904283,2.53820394,-2.14286292
0.87,87,0.053,-0.948,-0.128,-36.7839036,11.917526400000002,-6.130650599999999,76.31800559999998,2.61841806,-2.04546006
0.88,88,0.032,-0.962,-0.139,-37.52874900000001,11.516455800000001,-5.0993262,75.93985332,2.6929026,-1.9480572000000005
0.89,89,0.015,-0.97,-0.15,-38.67466500000001,11.0007936,-5.5576926,75.55024188,2.76165756,-1.8621135
0.9,90,0.016,-0.966,-0.159,-39.19032720000001,11.45916,-6.3598338,75.16063044,2.84760126,-1.77044022
0.91,91,0.037000000000000005,-0.962,-0.16899999999999998,-39.9924684,11.688343199999998,-6.875496000000001,74.75955984,2.93354496,-1.6787669399999998
0.92,92,0.06,-0.968,-0.223,-41.9978214,11.688343199999998,-7.3911582,74.33557092,3.02521824,-1.5870936600000003
0.93,93,0.065,-0.974,-0.234,-43.831287,13.9228794,-8.136003599999999,73.89439326,3.13408026,-1.48396122
0.9400000000000001,94,0.059,-0.963,-0.236,-43.7166954,15.6417534,-8.3651868,73.4532156,3.2486718599999995,-1.3579104599999998
0.9500000000000001,95,0.047,-0.945,-0.203,-44.2323576,15.183387000000002,-7.1046792000000005,73.01203794,3.3518043,-1.23758928
0.9600000000000001,96,0.034,-0.919,-0.172,-45.0344988,14.2093584,-5.1566220000000005,72.5651307,3.43201842,-1.1172681
0.97,97,0.044,-0.946,-0.231,-44.2896534,13.407217200000002,-4.7555514,72.11822346,3.5122325400000003,-1.00840608
0.98,98,0.056,-1.003,-0.266,-44.06047020000001,13.6936962,-5.2712136,71.6770458,3.59244666,-0.89954406
0.99,99,0.064,-1.024,-0.26,-43.7166954,13.2926256,-5.1566220000000005,71.23586814000002,3.67839036,-0.7906820400000001
1.0,100,0.093,-1.02,-0.262,-43.4302164,11.8602306,-4.010706000000001,70.80042006,3.74714532,-0.69900876
1.01,101,0.12,-0.987,-0.278,-45.8939358,7.333862400000001,-2.0053530000000004,70.34205366,3.7815227999999994,-0.63598338
1.02,102,0.128,-0.977,-0.318,-46.8106686,3.8961144,-0.5156622000000001,69.86649852000001,3.79298196,-0.6073354799999999
1.03,103,0.106,-0.999,-0.34,-47.0971476,1.7188740000000002,0.572958,69.39094338,3.78725238,-0.59014674
1.04,104,0.084,-1.016,-0.353,-47.6128098,1.7188740000000002,0.057295800000000015,68.90392908,3.78725238,-0.5786875800000001
1.05,105,0.056,-1.018,-0.337,-46.8679644,1.7188740000000002,-0.8021411999999999,68.43410352000001,3.79298196,-0.56722842
1.06,106,0.04,-1.011,-0.297,-47.269034999999995,0.3437748,-0.7448454000000001,67.9528188,3.79871154,-0.5729580000000001
1.07,107,0.036000000000000004,-0.994,-0.28,-49.3316838,-0.6302538000000001,-0.286479,67.45434534,3.79298196,-0.5844171599999999
1.08,108,0.058,-0.973,-0.29,-51.1651494,-0.8594370000000001,0.22918320000000006,66.93295356,3.7815227999999994,-0.59587632
1.09,109,0.08800000000000001,-0.957,-0.28600000000000003,-51.9099948,-2.291832,1.145916,66.40583219999999,3.75860448,-0.61306506
1.1,110,0.1,-0.943,-0.282,-54.08723520000001,-3.4950437999999995,1.2605076000000002,65.86152209999999,3.7299565800000014,-0.64744254
1.11,111,0.08,-0.919,-0.304,-56.149884,-4.1825934,0.0,65.2885641,3.70703826,-0.6875496
1.12,112,0.064,-0.908,-0.358,-56.2071798,-2.0053530000000004,-2.5210152000000003,64.7156061,3.71276784,-0.72192708
1.1300000000000001,113,0.05,-0.907,-0.375,-54.6601932,0.6875496,-5.3858052,64.15983684,3.75860448,-0.7448454000000001
1.1400000000000001,114,0.026,-0.9,-0.339,-52.3110654,2.1199446,-6.3598338,63.6269859,3.81590028,-0.75630456
1.1500000000000001,115,0.027000000000000003,-0.8740000000000001,-0.29,-50.0192334,3.2658606,-6.417129599999999,63.12851244000001,3.87892566,-0.75630456
1.1600000000000001,116,0.07400000000000001,-0.877,-0.285,-48.9306132,2.5210152000000003,-5.7868758000000025,62.63003898,3.93622146,-0.76203414
1.17,117,0.08900000000000001,-0.892,-0.267,-50.8786704,-0.057295800000000015,-4.0680017999999984,62.11437678,3.9648693599999993,-0.7849524600000001
1.18,118,0.08199999999999999,-0.875,-0.304,-52.82672760000001,0.4010706,-3.4950437999999995,61.57579626,3.99351726,-0.8021412000000001
1.19,119,0.059,-0.848,-0.312,-51.9099948,2.1772404,-4.4117766,61.048674899999995,4.03362432,-0.8078707799999998
1.2,120,0.041,-0.83,-0.32,-50.993262,4.0680017999999984,-5.6149884000000005,60.53874228000001,4.0966497,-0.8021412000000001
1.21,121,0.044,-0.8440000000000001,-0.379,-51.279741,6.417129599999999,-6.875496000000001,60.0173505,4.17686382,-0.7792228800000001
1.22,122,0.069,-0.877,-0.441,-52.0818822,9.6256944,-7.7922288,59.49022914,4.28572584,-0.7391158200000001
1.23,123,0.065,-0.897,-0.416,-52.48295279999999,12.032117999999999,-7.7349330000000025,58.9573782,4.40031744,-0.67609044
1.24,124,0.047,-0.8909999999999999,-0.43,-52.82672760000001,13.2926256,-6.302537999999998,58.42452725999999,4.51490904,-0.59587632
1.25,125,0.033,-0.878,-0.397,-50.3630082,13.2926256,-4.010706000000001,57.93178338,4.60658232,-0.5099326200000001
1.26,126,0.051,-0.8809999999999999,-0.377,-48.5868384,12.605076,-2.7501984,57.4390395,4.68679644,-0.41825934
1.27,127,0.078,-0.888,-0.374,-49.6754586,11.516455800000001,-2.4064236,56.94056604,4.76128098,-0.33231564
1.28,128,0.1,-0.905,-0.377,-50.706783,11.917526400000002,-2.86479,56.43063342000001,4.83576552,-0.25210152
1.29,129,0.109,-0.905,-0.441,-52.7694318,13.9228794,-3.7815227999999994,55.90351206,4.93889796,-0.16042824
1.3,130,0.126,-0.913,-0.4920000000000001,-52.54024860000001,13.8655836,-3.2658606,55.38212028,5.03630082,-0.06302537999999999
1.31,131,0.136,-0.901,-0.507,-52.425657,12.4331886,-1.145916,54.85499892,5.10505578,0.02291832
1.32,132,0.121,-0.899,-0.516,-50.47759979999999,11.688343199999998,1.0886202,54.35079588,5.15089242,0.12605075999999998
1.33,133,0.077,-0.905,-0.464,-48.4722468,12.5477802,3.151269,53.86951115999999,5.19099948,0.24637194
1.34,134,0.031,-0.926,-0.459,-47.7846972,15.2979786,4.6409598,53.39395602000001,5.231106540000001,0.39534102
1.35,135,-0.006,-0.933,-0.468,-48.987909,18.048177,6.2452422,52.91840088,5.2712136,0.5786875800000001
1.36,136,-0.038,-0.925,-0.484,-49.1597964,19.8816426,8.193299399999999,52.43711616,5.31705024,0.7849524600000001
1.37,137,-0.041,-0.918,-0.502,-49.274388,22.173474600000002,9.568398599999998,51.95583144,5.3628868800000005,1.01986524
1.3800000000000001,138,-0.027000000000000003,-0.899,-0.503,-49.4462754,25.2674478,10.5424272,51.47454672,5.42591226,1.28342592
1.3900000000000001,139,-0.008,-0.878,-0.49,-48.414951,28.074942,11.8602306,51.01045074,5.4946672199999975,1.5813640800000002
1.4000000000000001,140,-0.006,-0.895,-0.496,-47.8992888,30.1375908,13.8082878,50.55781392,5.5576926,1.90222056
1.4100000000000001,141,-0.028,-0.8959999999999999,-0.481,-46.696077,32.0283522,16.558486199999994,50.11663626,5.62071798,2.25745452
1.42,142,-0.04,-0.902,-0.515,-46.352302200000004,35.236917,18.8503182,49.6754586,5.683743359999999,2.64706596
1.43,143,-0.053,-0.899,-0.518,-45.206386200000004,40.04976420000001,21.3140376,49.25719926,5.76968706,3.0939732
1.44,144,-0.078,-0.89,-0.48,-44.0031744,45.6074568,23.6631654,48.85612866,5.86708992,3.59817624
1.45,145,-0.098,-0.861,-0.462,-43.65939960000001,51.1651494,26.0122932,48.47224680000001,5.9874111,4.15967508
1.46,146,-0.125,-0.835,-0.458,-42.28430039999999,56.3790672,28.361421000000004,48.09982409999999,6.12492102,4.77846972
1.47,147,-0.14800000000000002,-0.8190000000000001,-0.463,-40.164355799999996,62.45242200000001,30.252182399999995,47.75604930000001,6.29680842,5.44883058
1.48,148,-0.134,-0.807,-0.457,-38.4454818,68.01011460000001,31.913760600000003,47.44092239999999,6.497343719999999,6.17648724
1.49,149,-0.08900000000000001,-0.795,-0.448,-36.1536498,75.51586440000001,33.4607472,47.15444340000001,6.7379860800000015,6.96716928
1.5,150,-0.04,-0.785,-0.474,-35.122325399999994,80.7297822,34.7785506,46.8966123,7.001546759999999,7.80368796
1.51,151,-0.025,-0.777,-0.47,-33.403451399999994,84.3394176,36.1536498,46.65596994000001,7.29375534,8.6803137
1.52,152,-0.036000000000000004,-0.784,-0.471,-30.252182399999995,88.12094040000002,36.898495200000006,46.44970506,7.603152659999999,9.58558734
1.53,153,-0.042,-0.784,-0.482,-28.991674800000002,92.3035338,37.1276784,46.27208808,7.94119788,10.52523846
1.54,154,-0.037000000000000005,-0.782,-0.483,-27.215505,97.3455642,37.41415739999999,46.123119,8.31362058,11.50499664
1.55,155,-0.029,-0.7809999999999999,-0.488,-25.840405800000006,102.7886652,37.6433406,46.00279782,8.72042076,12.52486188
1.56,156,-0.014,-0.787,-0.481,-24.0069402,108.6328368,38.0444112,45.91112454,9.17305758,13.596293340000004
1.57,157,0.021,-0.809,-0.488,-22.5172494,115.7948118,39.0184398,45.85382874,9.66007188,14.71929102
1.58,158,0.035,-0.838,-0.476,-20.9702628,119.8628136,40.90920120000001,45.82518084,10.1700045,15.89385492
1.59,159,0.018000000000000002,-0.863,-0.45,-19.1367972,121.9827582,43.65939960000001,45.83664,10.66847796,17.1027963
1.6,160,0.009000000000000001,-0.887,-0.43,-18.8503182,122.26923719999999,46.409598,45.87101748,11.149762679999998,18.334656000000006
1.61,161,0.029,-0.909,-0.403,-19.0795014,121.9254624,48.3003594,45.90539496,11.613858660000002,19.58370444
1.62,162,0.05,-0.919,-0.426,-20.511896399999998,123.0140826,48.987909,45.93977244,12.08368422,20.84421204
1.6300000000000001,163,0.046,-0.95,-0.45,-22.0015872,125.477802,48.2430636,45.97414992,12.57069852,22.1161788
1.6400000000000001,164,0.03,-0.977,-0.443,-23.3193906,128.8582542,46.6387812,46.0085274,13.0920903,23.41106388
1.6500000000000001,165,0.011,-0.975,-0.446,-25.9549974,134.12946780000001,44.34694920000001,46.04290488,13.659318719999998,24.734596860000003
1.6600000000000001,166,-0.003,-0.959,-0.447,-28.1322378,138.8850192,43.258329,46.0658232,14.272383780000002,26.08677774
1.6700000000000002,167,0.0,-0.938,-0.42,-29.0489706,142.78113359999998,43.0864416,46.10020067999999,14.90836716,27.46760652
1.68,168,0.02,-0.927,-0.383,-28.991674800000002,145.817811,43.1437374,46.15749648,15.567268860000002,28.877083199999998
1.69,169,0.06,-0.928,-0.361,-29.507337,147.42209340000005,43.0291458,46.22625144,16.23190014,30.3094782
1.7,170,0.099,-0.956,-0.34600000000000003,-30.1375908,147.6512766,42.2270046,46.31792471999999,16.89653142,31.7418732
1.71,171,0.124,-0.979,-0.34,-31.51269000000001,147.42209340000005,40.33624320000001,46.40386842,17.57835144,33.16280904
1.72,172,0.145,-0.979,-0.306,-32.7731976,146.677248,38.27359439999999,46.48408254,18.26590104,34.56655614
1.73,173,0.157,-0.968,-0.32299999999999995,-35.0077338,146.10429,36.096354,46.5528375,18.9649098,35.95884408
1.74,174,0.14300000000000002,-0.959,-0.32,-36.7266078,146.2761774,34.262888399999994,46.62159246,19.6811073,37.35113202
1.75,175,0.121,-0.953,-0.293,-38.5600734,147.47938919999999,32.8877892,46.70180658,20.40303438,38.74914954000001
1.76,176,0.131,-0.92,-0.29,-41.19568020000001,148.396122,31.51269000000001,46.75910238,21.1421502,40.14716706
1.77,177,0.135,-0.889,-0.279,-43.48751220000001,147.6512766,30.5386614,46.8106686,21.8869956,41.539455
1.78,178,0.151,-0.879,-0.308,-45.6647526,146.04699419999997,29.1635622,46.85077566,22.62611142,42.92028378
1.79,179,0.181,-0.9,-0.344,-48.414951,144.15623280000003,26.642547,46.8679644,23.37095682,44.27246466
1.8,180,0.196,-0.903,-0.354,-51.0505578,142.38006299999995,23.4339822,46.87369398,24.1215318,45.60172722
1.81,181,0.188,-0.889,-0.358,-54.029939399999996,138.59854019999997,18.907614000000002,46.82785734,24.88356594,46.8679644
1.82,182,0.172,-0.879,-0.383,-57.2958,136.70777880000003,14.0947668,46.7533728,25.67424798,48.08836494000001
1.83,183,0.156,-0.865,-0.385,-60.50436480000001,134.931609,10.313244,46.638781200000004,26.47638918,49.274388
1.84,184,0.14400000000000002,-0.852,-0.398,-64.62966239999999,131.4365652,7.5630456000000015,46.48408254,27.27853038,50.41457442
1.85,185,0.138,-0.809,-0.383,-69.900876,127.9415214,5.1566220000000005,46.27781766,28.074942000000004,51.51465378
1.86,186,0.109,-0.737,-0.36,-69.61439700000001,125.191323,2.5210152000000003,46.06009362,28.877083199999998,52.57462608
1.87,187,0.08,-0.693,-0.345,-70.5884256,126.16535159999998,-1.3750992,45.83664,29.71933146,53.61740964000001
1.8800000000000001,188,0.073,-0.6559999999999999,-0.272,-70.9894962,128.8582542,-5.9014674000000005,45.61318638,30.61314594,54.65446362
1.8900000000000001,189,0.022,-0.607,-0.215,-71.67704579999999,129.774987,-10.4851314,45.38973276,31.55279706,55.6628697
1.9000000000000001,190,-0.031,-0.547,-0.18,-74.7137232,133.1554392,-15.0687954,45.16054956,32.53828482,56.67127578
1.9100000000000001,191,-0.024,-0.4920000000000001,-0.105,-76.20341400000002,138.94231499999998,-20.5691922,44.9199072,33.62117544,57.69114102000001
1.9200000000000002,192,-0.042,-0.417,-0.044,-78.8390208,145.87510680000003,-25.6685184,44.68499442,34.78428018,58.73392457999999
1.93,193,-0.048,-0.319,0.008,-77.5785132,158.93854919999995,-29.2781538,44.53602534,36.067706099999995,59.86838142000001
1.94,194,-0.014,-0.189,0.058,-72.5364828,173.033316,-31.51269000000001,44.53029576,37.45999404000001,61.12888902000001
1.95,195,0.025,-0.075,0.064,-64.4004792,186.3259416,-32.0283522,44.72510148,38.95541442,62.5383657
1.96,196,-0.033,0.008,0.149,-60.0459984,191.3106762,-31.8564648,45.04022838,40.47375312,64.02805649999999
1.97,197,-0.025,0.102,0.25,-54.08723520000001,197.4413268,-30.93973200000001,45.52724268,42.02073972,65.63233890000001
1.98,198,0.047,0.142,0.35700000000000004,-42.112413,206.26488,-32.544014399999995,46.25489934,43.62502212,67.37413122000001
1.99,199,0.068,0.117,0.333,-32.7159018,215.71868700000002,-39.19032720000001,47.18882088,45.3209778,69.23051514
2.0,200,0.052000000000000005,0.102,0.377,-25.3247436,225.5735646,-45.779344200000004,48.3576552,47.12006592,71.24159771999999
2.01,201,0.078,0.123,0.447,-20.340009,234.7408926,-50.3057124,49.74994314,48.96499067999999,73.43602686
2.02,202,0.094,0.2,0.502,-16.272007199999994,246.37194,-57.467687399999996,51.40579176,50.90158872,75.8596392
2.03,203,0.043,0.374,0.482,-9.167328,260.35211519999996,-73.51051140000001,53.3710377,52.99288542000001,78.51243473999997
2.04,204,-0.118,0.6729999999999999,0.429,0.6302538000000001,274.90524839999995,-97.5174516,55.68578802,55.29617658,81.41160221999998
2.05,205,0.215,0.76,0.422,21.5432208,297.3079062,-138.0255822,58.55057802,57.99480876,84.63162618
2.0599999999999996,206,2.345,-0.79,0.561,64.28588760000001,314.3820546,-161.860635,62.48679948,60.85386918,88.4933631
2.07,207,2.638,-0.325,0.264,-17.761698000000006,293.9847498000001,-186.3832374,65.78130798,63.712929599999995,92.46969162
2.0799999999999996,208,2.689,0.504,0.129,-15.0114996,270.3788802,-217.66674419999998,69.20759682,66.66939288,96.4574793
2.09,209,2.648,0.613,0.098,-9.969469199999999,244.5957702,-233.99604720000002,72.95474214000002,69.59147868,100.64580228
2.0999999999999996,210,3.037,0.366,0.115,3.0366774,218.92725180000002,-245.0541366,77.28057504,72.44480952,105.21800712
2.11,211,3.018,0.392,-0.093,12.261301199999998,177.38779680000005,-257.3154378,81.78402492,75.2293854,109.8074007
2.1199999999999997,212,3.05,0.8140000000000001,0.337,18.7357266,110.294415,-289.34379,85.21031375999998,78.18584868,113.159205
2.13,213,2.8280000000000003,0.861,0.214,31.741873200000004,83.36538900000002,-303.6104442,89.3241522,81.21679650000002,117.0266715
2.1399999999999997,214,2.4330000000000003,0.444,0.217,66.4058322,61.4783934,-285.1611966000001,95.74701138,84.00710196,122.83073604
2.15,215,3.394,0.474,0.386,75.05749800000002,32.4294228,-265.2222582,106.72488666,86.53384674,133.08668424
2.1599999999999997,216,3.618,0.925,0.6940000000000001,60.10329419999999,29.1062664,-245.28331980000004,146.5053606,88.41314897999996,172.29992976
2.17,217,3.2430000000000003,0.652,0.5760000000000001,99.3509172,30.9970278,-192.9722544,-146.89497204000003,88.04072628,-122.07443148
2.1799999999999997,218,2.834,0.578,0.5660000000000001,87.1469118,47.7846972,-152.5214196,-128.84106545999998,86.65416791999998,-104.88569148000002
2.19,219,2.577,0.904,0.7170000000000001,66.80690279999999,67.1506776,-126.5664222,-125.20278216,85.25042082,-101.90630988
2.1999999999999997,220,2.365,0.865,0.728,54.029939399999996,87.8917572,-97.40286,-126.34869816,83.97272448,-103.5908064
2.21,221,2.113,0.383,0.748,41.4248634,95.28291540000001,-51.33703679999999,-129.84374196,83.00442546000002,-107.52129828
2.2199999999999998,222,1.607,0.294,0.504,20.798375399999998,80.90166959999998,-29.220858000000003,-132.926256,82.27103922,-110.82726594
2.23,223,1.265,0.173,0.397,13.521808800000002,77.52121740000003,-21.829699800000004,-135.7051023,81.5892192,-113.76654048
2.2399999999999998,224,0.929,0.28600000000000003,0.18600000000000005,14.037471,72.5937786,-23.2620948,-137.77348067999998,80.91885834,-115.9953471
2.25,225,0.738,0.328,0.277,28.0176462,70.0154676,-24.8663772,-139.24025316,80.23130874,-117.76005774
2.26,226,0.73,0.319,0.411,27.788463,69.8435802,-26.4706596,-140.42627622,79.53802956,-119.23828938
2.27,227,0.7879999999999999,0.275,0.387,25.553926800000006,66.9787902,-28.2468294,-141.30290196,78.85620954,-120.38420538
2.28,228,0.6890000000000001,0.407,0.343,20.511896399999998,56.78013780000001,-27.043617600000005,-141.84721206,78.25460364,-121.14623952
2.29,229,0.64,0.332,0.275,22.6891368,47.0398518,-24.8090814,-142.11077274,77.74467102000001,-121.64471298
2.3,230,0.659,0.23,0.16699999999999998,18.7357266,43.3156248,-26.9863218,-142.16806853999995,77.23473840000003,-121.89108492
2.31,231,0.603,0.394,0.203,11.917526400000002,43.0864416,-33.002380800000005,-142.10504315999995,76.70188746,-121.94838072
2.32,232,0.618,0.304,0.243,22.173474600000002,49.04520479999999,-32.486718599999996,-142.11077274,76.12892946000002,-122.17756392
2.3299999999999996,233,0.5579999999999999,0.374,0.29100000000000004,14.610429000000002,54.43101,-27.215505,-142.47746586,75.54451230000002,-122.69895569999998
2.34,234,0.701,0.364,0.319,19.9962342,59.98870260000001,-20.9702628,-143.0676126,74.94863597999998,-123.50682648
2.3499999999999996,235,0.696,0.377,0.338,14.7250206,61.6502808,-11.9748222,-143.90413128,74.37567798,-124.52669172
2.36,236,0.785,0.391,0.308,15.4125702,59.58763199999999,-4.8701430000000006,-144.86670071999995,73.87720451999998,-125.68406688
2.3699999999999997,237,0.782,0.34600000000000003,0.284,12.2040054,55.1758554,2.0053530000000004,-145.90948428000004,73.44748602000001,-126.88727868
2.38,238,0.7559999999999999,0.299,0.18600000000000005,10.255948199999999,50.6494872,7.9641161999999985,-146.99237490000004,73.0807929,-128.11913838
2.3899999999999997,239,0.722,0.2,0.221,10.8289062,46.4668938,13.5791046,-148.09245426,72.77139558,-129.38537556
2.4,240,0.705,0.184,0.261,4.6982556,43.6021038,16.272007199999994,-149.22118152000004,72.48491658,-130.61150568
2.4099999999999997,241,0.773,0.18,0.189,2.578311,42.05511720000001,17.303331600000003,-150.35563836,72.21562631999998,-131.82044706000002
2.42,242,0.818,0.135,0.223,5.1566220000000005,38.1590028,22.5172494,-151.50728394,72.00363186,-133.08095466
2.4299999999999997,243,0.89,0.199,0.289,2.0053530000000004,33.518043,26.1841806,-152.69330699999998,71.83747404,-134.34719184
2.44,244,0.972,0.226,0.335,1.6042823999999998,29.507337,30.7678446,-153.93089628,71.71715286,-135.66499524
2.4499999999999997,245,1.042,0.171,0.365,-0.6302538000000001,24.2934192,37.7006364,-155.28307716,71.65985706000002,-137.08593108
2.46,246,1.075,0.115,0.335,-5.6149884000000005,18.2200644,44.0031744,-156.78422712000003,71.6770458,-138.59854019999997
2.4699999999999998,247,1.063,0.104,0.336,-10.599723,10.6570188,47.3263308,-158.33694330000003,71.7629895,-140.12260848
2.48,248,1.006,0.109,0.371,-16.8449652,2.4637194,46.982556,-159.86674116,71.91195858,-141.55500348
2.4899999999999998,249,1.002,0.121,0.35,-19.1367972,-2.578311,45.6647526,-161.35070238,72.08957556,-142.90718436
2.5,250,1.019,0.061,0.355,-17.8189938,-3.4377480000000005,48.4722468,-162.93206646000004,72.27292212,-144.37968642
2.51,251,1.0590000000000002,0.101,0.406,-21.2567418,-4.7555514,51.10785360000001,-164.6394813,72.46199826,-145.94386176
2.52,252,1.14,0.119,0.465,-22.0015872,-8.59437,53.628868800000006,-166.43283984,72.67972230000002,-147.59398080000003
2.53,253,1.161,0.109,0.5379999999999999,-22.2880662,-13.6936962,56.66554620000001,-168.32360124,72.94328298,-149.34150269999995
2.54,254,1.197,0.109,0.524,-25.553926800000006,-16.2147114,57.92605379999999,-170.32895424,73.21257324000003,-151.16923872
2.55,255,1.192,0.132,0.477,-27.8457588,-19.308684600000007,58.0406454,-172.4030622,73.48759308,-153.0370818
2.56,256,1.204,0.08,0.49,-26.1841806,-23.7204612,60.5616606,-174.59176176,73.79126082,-155.04816438
2.57,257,1.181,0.105,0.545,-27.501984000000004,-27.215505,61.4783934,-176.89505291999996,74.10638772,-157.16237940000005
2.5799999999999996,258,1.1909999999999998,0.129,0.5720000000000001,-24.4080108,-32.31483119999999,59.7022236,-179.18115533999998,74.45016252,-159.282324
2.59,259,1.17,0.096,0.615,-21.5432208,-34.0337052,56.3790672,178.58527902,74.78820774,-161.3736207
2.5999999999999996,260,1.157,0.073,0.585,-22.0015872,-34.37748,52.3110654,176.41949778,75.10333464,-163.39043285999998
2.61,261,1.121,0.085,0.541,-18.1054728,-38.5027776,50.47759979999999,174.25944612,75.44710943999998,-165.44162250000005
2.6199999999999997,262,1.144,0.076,0.49,-11.8029348,-40.04976420000001,47.269034999999995,172.17960857999995,75.78515466,-167.46989381999995
2.63,263,1.079,-0.032,0.46,-8.3651868,-41.76863820000001,46.5241896,170.05966398,76.12892946000002,-169.57264967999996
2.6399999999999997,264,0.972,-0.006999999999999999,0.342,-7.7922288,-46.982556,40.680018,168.04285182,76.51281132,-171.57227310000005
2.65,265,0.852,-0.105,0.32,3.6096354,-46.696077,37.24227,166.15209041999995,76.87377486,-173.56043736
2.6599999999999997,266,0.823,-0.16,0.251,0.572958,-47.4409224,32.486718599999996,164.34154314,77.24619756,-175.43401002000004
2.67,267,0.802,-0.229,0.189,0.3437748,-49.61816279999999,27.5592798,162.60548039999995,77.64726816,-177.22736856
2.6799999999999997,268,0.75,-0.273,0.097,-5.3285094000000015,-40.393539,21.1421502,161.09860086,77.96239505999998,-178.71705936
2.69,269,0.7709999999999999,-0.179,0.14400000000000002,-6.016058999999999,-31.5699858,13.2353298,159.99279192,78.22022616,-179.78276124
2.6999999999999997,270,0.8540000000000001,-0.21600000000000005,0.163,-2.0626488000000003,-20.6837838,14.037471,158.90417172,78.35773608,179.11812996
2.71,271,0.912,-0.158,0.147,-5.72958,-15.756345000000001,12.7769634,158.00462766,78.45513894,178.25869296
2.7199999999999998,272,0.961,-0.108,0.13,-4.8128472,-16.2147114,9.6256944,157.24259352,78.56973054,177.52530672
2.73,273,0.983,-0.11,0.16899999999999998,-3.2085648,-15.4125702,6.875496000000001,156.61806930000003,78.68432214,176.91797124
2.7399999999999998,274,0.983,-0.155,0.134,-3.0366774,-16.959556799999998,2.291832,156.1597029,78.83329122,176.48825274
2.75,275,0.939,-0.175,0.127,-4.7555514,-22.5172494,-2.4637194,155.71279566,79.05101526000001,176.07572298
2.76,276,0.916,-0.147,0.108,-7.0473834,-28.361421000000004,-9.0527364,155.50080119999996,79.34895342,175.93248348
2.77,277,0.915,-0.17800000000000002,0.132,-2.86479,-31.79916900000001,-12.0894138,155.40339834000005,79.68699864,175.85799894000004
2.78,278,0.914,-0.096,0.114,-6.5317212,-32.830493399999995,-16.386598799999998,155.45496456,80.05369175999998,175.97832011999995
2.79,279,0.957,-0.107,0.108,-4.4117766,-35.6379876,-17.5325148,155.54090825999995,80.44903278000002,176.10437088
2.8,280,0.949,-0.101,0.151,-3.7815227999999994,-34.8358464,-16.673077799999998,155.59820406,80.83291464,176.19604416
2.81,281,0.951,-0.078,0.117,-5.0993262,-34.5493674,-16.1001198,155.63258154,81.21679650000002,176.28198786000004
2.82,282,0.961,-0.075,0.116,-3.9534102,-36.669312,-16.042824000000003,155.62685196,81.6178671,176.31063576
2.8299999999999996,283,0.958,-0.066,0.129,-3.0366774,-38.4454818,-16.615782,155.62685196,82.03612644,176.33355408
2.84,284,0.966,-0.04,0.139,-1.7188740000000002,-39.3622146,-16.902261,155.62685196,82.46584494,176.35074282
2.8499999999999996,285,0.971,-0.029,0.141,0.0,-39.9924684,-16.7303736,155.65549986000005,82.89556344,176.36793156000005
2.86,286,0.99,-0.039,0.127,0.572958,-40.6227222,-16.272007199999994,155.59820406,83.33101152,176.30490618000005
2.8699999999999997,287,1.005,-0.044,0.127,-0.22918320000000006,-41.3675676,-15.985528200000001,155.47788287999995,83.77791876,176.17885542
2.88,288,1.031,-0.035,0.147,-1.9480572,-39.820581,-15.756345000000001,155.35183211999995,84.20190768,176.06426382
2.8899999999999997,289,1.053,-0.038,0.16699999999999998,-3.0366774,-37.41415739999999,-15.0114996,155.22578135999996,84.60297828,175.96686096000005
2.9,290,1.045,-0.044,0.184,-3.8388186,-33.9191136,-14.152062599999999,155.19713346,84.96394182,175.97259054
2.9099999999999997,291,1.024,-0.038,0.182,-5.6722842,-29.507337,-14.0947668,155.28307716,85.29052787999998,176.11583004
2.92,292,0.991,-0.026,0.16399999999999998,-6.4744254,-23.9496444,-15.0114996,155.75863230000004,85.57127729999998,176.65441056
2.9299999999999997,293,0.955,0.003,0.129,-5.6149884000000005,-17.303331600000003,-15.4125702,156.70401299999997,85.78900134,177.65708706
2.94,294,0.94,0.03,0.099,-3.2658606,-13.178034,-14.7250206,157.89003606,85.96661832,178.8774876
2.9499999999999997,295,0.93,0.04,0.083,-0.1718874,-9.568398599999998,-13.0061466,159.48858888,86.10985782,-179.51347098
2.96,296,0.938,0.05,0.083,2.291832,-7.333862400000001,-10.7143146,160.67461194,86.21299026,-178.35036624
2.9699999999999998,297,0.955,0.062,0.085,4.0680017999999984,-5.958763200000001,-8.193299399999999,161.64291096,86.29893396,-177.42217428
2.98,298,0.974,0.06,0.08900000000000001,5.7868758000000025,-6.0733548,-5.2712136,162.22732811999995,86.37341849999999,-176.89505291999996
2.9899999999999998,299,0.992,0.05,0.096,5.958763200000001,-6.4744254,-2.6929026,162.42786342,86.44217346,-176.757543
3.0,300,1.004,0.045,0.1,5.6722842,-6.6463128000000005,-0.6302538000000001,163.02946932,86.49946926,-176.21896248000004
3.01,301,1.004,0.031,0.1,4.7555514,-7.2192707999999985,0.9740286,162.61120997999996,86.56822422,-176.68305846
3.02,302,0.997,0.024,0.093,3.2658606,-7.8495246,2.5210152000000003,161.88355332,86.63124959999998,-177.45082218
3.03,303,0.988,0.029,0.078,1.7761698,-8.9381448,3.5523396000000003,160.87514724,86.70573413999998,-178.476417
3.04,304,0.982,0.014,0.069,1.3750992,-9.568398599999998,5.1566220000000005,159.51723678000005,86.78021868,-179.8515162
3.05,305,0.977,0.002,0.059,0.5156622000000001,-9.3965112,6.130650599999999,158.18797422,86.85470322,178.80300306
3.06,306,0.97,0.0,0.055,-0.22918320000000006,-8.021412000000002,6.589017,156.54358476,86.90053986000002,177.15861360000005
3.07,307,0.965,-0.001,0.053,-0.1718874,-7.0473834,7.161975,154.82471076,86.93491734,175.4397396
3.08,308,0.966,-0.012,0.059,-0.572958,-6.302537999999998,7.7349330000000025,153.02562264,86.96356524000002,173.64638106
3.09,309,0.953,-0.011,0.066,-1.7188740000000002,-5.5003968,8.021412000000002,151.20934577999995,86.97502440000002,171.84156336
3.0999999999999996,310,0.959,-0.017,0.063,-2.0053530000000004,-4.297185,8.3651868,149.6279817,86.96929482,170.27738802000005
3.11,311,0.963,-0.025,0.07,-2.3491278,-2.0626488000000003,8.4224826,148.0523472,86.94637650000001,168.71894226
3.1199999999999997,312,0.966,-0.028,0.068,-1.9480572,-0.5156622000000001,8.479778399999999,146.64860009999995,86.90626943999996,167.33811348
3.13,313,0.979,-0.041,0.062,-1.8334656000000005,0.8021411999999999,7.9641161999999985,145.49695451999997,86.85470322,166.20365664
3.1399999999999997,314,0.996,-0.046,0.068,-2.0053530000000004,1.3750992,7.2192707999999985,144.54584424,86.79740741999998,165.2697351
3.15,315,1.002,-0.052000000000000005,0.063,-2.3491278,1.3178034,6.2452422,143.73224388,86.7458412,164.47905306
3.1599999999999997,316,1.001,-0.051,0.073,-2.7501984,1.5469866,4.9274388,143.16501546,86.70573413999998,163.94047254
3.17,317,1.0,-0.048,0.075,-2.8074942000000003,1.9480572,3.9534102,142.77540402,86.66562708000002,163.57377942
3.1799999999999997,318,1.001,-0.046,0.077,-2.578311,2.7501984,3.151269,142.59205746,86.61979044,163.41908076
3.19,319,1.005,-0.05,0.077,-2.1199446,3.666931200000001,2.2345362,142.62643494000002,86.57968338,163.47637656
3.1999999999999997,320,1.004,-0.043,0.08900000000000001,-1.8334656000000005,4.8128472,1.3750992,143.26241832,86.51092842,164.13527826
3.21,321,1.001,-0.034,0.102,-1.3178034,5.1566220000000005,0.9740286,143.59473396,86.46509178,164.47905306
3.2199999999999998,322,0.996,-0.031,0.107,-1.3178034,4.8701430000000006,0.9167328,143.8984017,86.41925513999998,164.79417996
3.23,323,0.994,-0.033,0.109,-1.6042823999999998,4.4690724,0.8021411999999999,144.16769196,86.37914808000002,165.08638853999997
3.2399999999999998,324,0.994,-0.036000000000000004,0.109,-1.8334656000000005,4.583664,0.22918320000000006,144.51719634,86.33904102,165.45308166
3.25,325,0.994,-0.038,0.106,-1.6615782,5.5576926,-0.6875496,145.45684746,86.27601564,166.40992152
3.26,326,0.994,-0.038,0.106,-1.3750992,6.2452422,-1.7188740000000002,146.16731538,86.23017899999998,167.14330776
3.27,327,0.995,-0.036000000000000004,0.108,-1.0313244,6.6463128000000005,-2.578311,147.00383406,86.19007194,167.9912856
3.28,328,0.996,-0.034,0.108,-0.4583664000000001,6.417129599999999,-3.151269,147.88618938,86.14996488,168.87937050000005
3.29,329,1.0,-0.033,0.104,-0.11459160000000003,5.5003968,-3.4950437999999995,148.72843763999995,86.12131698,169.72734834
3.3,330,1.001,-0.03,0.112,0.22918320000000006,4.2398892,-3.7815227999999994,149.96602692,86.08120991999998,170.96493762
3.31,331,1.001,-0.027000000000000003,0.115,0.4010706,3.4950437999999995,-3.8961144,150.71087232,86.06975076,171.70405344
3.32,332,1.008,-0.023,0.118,0.8594370000000001,3.5523396000000003,-4.0680017999999984,151.46717687999995,86.05256202000002,172.45462842
3.33,333,1.014,-0.022,0.12,1.2605076000000002,4.1252976000000015,-4.1252976000000015,152.27504766,86.03537328,173.25104004
3.34,334,1.017,-0.021,0.124,1.4896908000000002,4.8701430000000006,-4.010706000000001,153.11156634,86.01245496,174.07036998
3.3499999999999996,335,1.012,-0.015,0.123,1.7761698,5.2712136,-3.724227,154.35488519999996,85.96088874,175.30222968
3.36,336,1.004,-0.009000000000000001,0.12,2.1772404,5.5576926,-3.4377480000000005,155.13410808,85.92651126,176.05853424000003
3.3699999999999997,337,1.007,-0.006,0.114,2.2345362,5.3858052,-2.86479,155.8159281,85.89213378,176.72316552
3.38,338,1.018,-0.005,0.121,2.291832,4.7555514,-2.2345362,156.38315652,85.85202672,177.26747562
3.3899999999999997,339,1.023,-0.006,0.132,2.2345362,5.042030400000002,-1.8334656000000005,156.89881872,85.81764924000002,177.7602195
3.4,340,1.019,-0.01,0.128,1.6042823999999998,6.016058999999999,-1.2605076000000002,157.82701068,85.7431647,178.67122272
3.4099999999999997,341,1.011,-0.015,0.123,1.2605076000000002,6.302537999999998,-0.9740286,158.25672918,85.6858689,179.08948206
3.42,342,1.005,-0.018000000000000002,0.124,1.3750992,5.844171599999999,-0.8021411999999999,158.63488146,85.63430267999998,179.45617518
3.4299999999999997,343,1.002,-0.017,0.124,1.4896908000000002,5.2139178,-0.8021411999999999,158.97865626,85.58846604,179.78849082000005
3.44,344,1.003,-0.016,0.125,1.7188740000000002,4.3544808,-0.6302538000000001,159.25940568,85.54835898,-179.94318948
3.4499999999999997,345,1.003,-0.017,0.13,1.6042823999999998,2.9793816000000004,-0.4583664000000001,160.16467932,85.46814486,-179.049375
3.46,346,0.998,-0.016,0.13,1.145916,1.7761698,-0.4583664000000001,160.30791882,85.45095612,-178.92332424
3.4699999999999998,347,0.998,-0.015,0.124,0.8594370000000001,1.145916,-0.22918320000000006,160.39386252,85.43949696000001,-178.84883969999996
3.48,348,1.002,-0.013,0.121,0.9740286,0.7448454000000001,-0.1718874,160.4568879,85.43376737999998,-178.7915439
3.4899999999999998,349,1.004,-0.012,0.124,1.145916,0.3437748,0.0,160.47980622,85.43376737999998,-178.78008474
3.5,350,1.006,-0.013,0.129,1.0886202,0.057295800000000015,0.22918320000000006,162.43932258,85.29052787999998,-176.83775712000005
3.51,351,1.006,-0.012,0.129,0.9167328,-0.057295800000000015,0.572958,162.38202678,85.29052787999998,-176.90651208000003
3.52,352,1.006,-0.013,0.128,0.7448454000000001,-0.1718874,0.8594370000000001,162.27889434000005,85.29052787999998,-177.0153741
3.53,353,1.004,-0.013,0.128,0.5156622000000001,-0.22918320000000006,1.145916,162.14711400000004,85.2847983,-177.15861360000005
3.54,354,1.001,-0.015,0.129,0.5156622000000001,0.0,1.4896908000000002,161.97522659999996,85.2847983,-177.330501
3.55,355,1.0,-0.015,0.129,0.286479,-0.11459160000000003,1.6615782,163.01228057999995,85.19312502,-176.30490618000005
3.56,356,1.001,-0.016,0.127,0.057295800000000015,-0.286479,1.8334656000000005,162.79455654,85.18739544,-176.52835980000003
3.57,357,1.001,-0.019,0.126,0.057295800000000015,-0.3437748,1.8907613999999997,162.56537334,85.18739544,-176.757543
3.58,358,1.002,-0.021,0.126,0.0,-0.5156622000000001,1.8907613999999997,162.33046056,85.18739544,-176.99245578
3.59,359,1.003,-0.02,0.126,0.11459160000000003,-0.6875496,1.7188740000000002,162.11273652,85.18739544,-177.21017981999995
3.5999999999999996,360,1.005,-0.02,0.125,0.057295800000000015,-0.572958,1.6042823999999998,162.78882696,85.1129109,-176.53981896
3.61,361,1.005,-0.02,0.127,0.3437748,-0.5156622000000001,1.6042823999999998,162.59402124000005,85.1129109,-176.74035426
3.6199999999999997,362,1.004,-0.02,0.127,0.22918320000000006,-0.286479,1.6615782,162.39921552,85.10718132,-176.94088956000004
3.63,363,1.004,-0.022,0.128,0.1718874,-0.286479,1.7188740000000002,162.19295064,85.10718132,-177.14715443999995
3.6399999999999997,364,1.002,-0.024,0.129,0.11459160000000003,-0.11459160000000003,1.6615782,162.00387450000005,85.10145173999999,-177.33623058
3.65,365,1.001,-0.024,0.126,-0.11459160000000003,-0.1718874,1.3178034,162.84612276,85.00977845999998,-176.50544148
3.6599999999999997,366,1.0,-0.025,0.127,-0.286479,-0.286479,1.0313244,162.70861284,85.00977845999998,-176.63149224
3.67,367,1.0,-0.025,0.125,-0.286479,-0.22918320000000006,0.6875496,162.62266914,85.00977845999998,-176.72316552
3.6799999999999997,368,1.0,-0.025,0.125,-0.22918320000000006,-0.057295800000000015,0.3437748,162.5768325,85.00977845999998,-176.76327257999995
3.69,369,0.996,-0.026,0.126,-0.286479,-0.22918320000000006,0.057295800000000015,162.55391418,85.00977845999998,-176.78046132
3.6999999999999997,370,0.996,-0.029,0.127,-0.3437748,-0.4010706,-0.3437748,163.49356530000003,84.89518686,-175.84081020000005
3.71,371,0.997,-0.025,0.127,-0.572958,-0.286479,-0.8594370000000001,163.57377942,84.90091644,-175.76059607999997
3.7199999999999998,372,0.996,-0.022,0.123,-0.5156622000000001,0.057295800000000015,-1.0313244,163.68264144,84.90091644,-175.6402749
3.73,373,0.998,-0.019,0.124,-0.286479,0.1718874,-0.9740286,163.79723304,84.90091644,-175.52568330000003
3.7399999999999998,374,1.0,-0.018000000000000002,0.125,-0.22918320000000006,0.0,-0.9167328,163.89463590000003,84.90091644,-175.42828043999995
3.75,375,1.003,-0.02,0.125,-0.286479,0.057295800000000015,-0.6875496,165.42443376,84.77486567999998,-173.89848258
3.76,376,1.003,-0.02,0.127,-0.286479,0.1718874,-0.4010706,165.47599998,84.77486567999998,-173.84691636
3.77,377,1.004,-0.02,0.126,-0.286479,0.3437748,-0.3437748,165.52183662,84.7691361,-173.79535013999995
3.78,378,1.003,-0.019,0.126,-0.22918320000000006,0.286479,-0.286479,165.55621409999995,84.7691361,-173.75524308
3.79,379,1.001,-0.021,0.126,-0.22918320000000006,0.0,-0.286479,165.58486200000004,84.7691361,-173.72659518
3.8,380,0.998,-0.021,0.122,-0.1718874,-0.4010706,-0.286479,166.54743144000003,84.68892198,-172.76402574
3.81,381,0.995,-0.019,0.124,-0.286479,-0.3437748,-0.5156622000000001,166.59326808,84.69465156,-172.7181891
3.82,382,0.996,-0.018000000000000002,0.127,-0.057295800000000015,-0.22918320000000006,-0.572958,166.6448343,84.70038114,-172.66662288
3.83,383,1.0,-0.017,0.128,0.0,-0.4010706,-0.5156622000000001,166.69067094,84.70611072,-172.62078624
3.84,384,1.002,-0.016,0.13,0.11459160000000003,-0.5156622000000001,-0.3437748,166.71358926,84.71184029999998,-172.59213834
3.8499999999999996,385,1.004,-0.016,0.132,0.1718874,-0.6302538000000001,0.0,167.91680105999995,84.58005996,-171.4003857
3.86,386,1.007,-0.02,0.133,0.22918320000000006,-0.6875496,0.11459160000000003,167.89388274,84.59151912,-171.4290336
3.8699999999999997,387,1.003,-0.019,0.133,0.1718874,-1.0313244,0.1718874,167.85950526,84.59724870000002,-171.46341108
3.88,388,1.003,-0.017,0.125,0.057295800000000015,-1.3750992,0.22918320000000006,167.80793904,84.61443744,-171.5149773
3.8899999999999997,389,1.003,-0.016,0.122,0.0,-1.5469866,0.22918320000000006,167.75064324,84.62589659999998,-171.57800268
3.9,390,1.002,-0.015,0.127,0.057295800000000015,-1.7761698,0.3437748,168.26057586,84.58578954,-171.06807006
3.9099999999999997,391,0.997,-0.017,0.131,0.0,-1.3750992,0.5156622000000001,168.18036174000005,84.59724870000002,-171.14828418
3.92,392,0.996,-0.019,0.128,0.0,-0.8021411999999999,0.7448454000000001,168.08868846,84.60870786,-171.24568704
3.9299999999999997,393,0.997,-0.023,0.126,0.057295800000000015,-0.6302538000000001,0.6875496,168.00274475999996,84.60870786,-171.33163073999995
3.94,394,0.999,-0.024,0.123,0.1718874,-0.9167328,0.6302538000000001,167.92253064,84.62016702,-171.41757444
3.9499999999999997,395,1.001,-0.022,0.127,0.22918320000000006,-1.3750992,0.4583664000000001,168.2491167,84.58005996,-171.09098838
3.96,396,1.001,-0.02,0.129,0.11459160000000003,-1.3178034,0.286479,168.19182089999995,84.59151912,-171.14828418
3.9699999999999998,397,1.0,-0.021,0.128,0.0,-0.8594370000000001,0.22918320000000006,168.15171384,84.60297828,-171.18839124000004
3.98,398,0.996,-0.021,0.126,-0.057295800000000015,-0.6302538000000001,0.0,168.1345251,84.60870786,-171.20557997999995
3.9899999999999998,399,0.995,-0.019,0.125,-0.11459160000000003,-0.5156622000000001,0.0,168.12306594,84.61443744,-171.21703914
4.0,400,0.994,-0.02,0.12,0.0,-0.3437748,0.0,169.34919606,84.50557542,-169.99663859999995
4.01,401,0.994,-0.02,0.119,0.11459160000000003,-0.6302538000000001,-0.057295800000000015,169.34346648000005,84.51130500000002,-170.00236818
4.02,402,0.993,-0.018000000000000002,0.121,0.22918320000000006,-0.9167328,0.0,169.33773689999995,84.52276416000002,-170.01382733999995
4.03,403,0.995,-0.018000000000000002,0.122,0.3437748,-0.7448454000000001,0.11459160000000003,169.31481858,84.52849374,-170.03674566
4.04,404,1.0,-0.019,0.123,0.5156622000000001,-0.6302538000000001,0.1718874,169.29190026,84.53422332,-170.07112314
4.05,405,1.001,-0.018000000000000002,0.126,0.572958,-0.6875496,0.286479,169.64713422000003,84.49411626,-169.72161876
4.06,406,1.004,-0.019,0.127,0.5156622000000001,-0.7448454000000001,0.4010706,169.595568,84.50557542,-169.77891456
4.07,407,1.003,-0.019,0.13,0.3437748,-0.572958,0.5156622000000001,169.53254262,84.51130500000002,-169.84193994
4.08,408,1.002,-0.019,0.127,0.1718874,-0.4010706,0.5156622000000001,169.47524682,84.51130500000002,-169.90496532
4.09,409,1.0,-0.019,0.126,0.057295800000000015,-0.22918320000000006,0.5156622000000001,169.41795101999998,84.51130500000002,-169.9679907
4.1,410,1.0,-0.022,0.125,0.057295800000000015,-0.057295800000000015,0.4010706,169.99090902,84.37952466,-169.40076228
4.109999999999999,411,0.998,-0.022,0.127,0.0,-0.286479,0.4583664000000001,169.93361321999996,84.37952466,-169.4523285
4.12,412,0.999,-0.021,0.125,-0.057295800000000015,-0.3437748,0.22918320000000006,169.89923574,84.38525424,-169.48670597999995
4.13,413,1.001,-0.019,0.124,-0.1718874,-0.5156622000000001,0.22918320000000006,169.86485825999995,84.39098382,-169.52108346
4.14,414,1.002,-0.02,0.127,-0.286479,-0.7448454000000001,0.3437748,169.81329204000005,84.39671340000002,-169.56692009999998
4.1499999999999995,415,1.002,-0.021,0.128,-0.5156622000000001,-0.7448454000000001,0.4583664000000001,170.01382733999995,84.36233591999998,-169.36638480000005
4.16,416,1.0,-0.02,0.125,-0.6302538000000001,-0.6302538000000001,0.572958,169.93361321999996,84.3680655,-169.44086934
4.17,417,0.999,-0.02,0.124,-0.4583664000000001,-0.4010706,0.572958,169.85912868,84.37379508000002,-169.50962429999996
4.18,418,0.999,-0.021,0.126,-0.286479,-0.1718874,0.572958,169.7961033,84.37379508000002,-169.57264967999996
4.1899999999999995,419,1.0,-0.02,0.127,-0.3437748,0.057295800000000015,0.6302538000000001,169.72734834,84.37379508000002,-169.63567505999995
4.2,420,0.999,-0.019,0.127,-0.3437748,0.22918320000000006,0.6875496,170.11695978,84.30504012,-169.24606362000003
4.21,421,0.998,-0.021,0.126,-0.22918320000000006,0.3437748,0.572958,170.05966398,84.30504012,-169.29762983999996
4.22,422,0.996,-0.022,0.129,-0.4583664000000001,0.057295800000000015,0.572958,169.99663859999995,84.29931054,-169.35492563999995
4.2299999999999995,423,0.994,-0.02,0.128,-0.5156622000000001,-0.11459160000000003,0.4583664000000001,169.94507238,84.29931054,-169.40649186000005
4.24,424,0.996,-0.021,0.127,-0.4583664000000001,0.057295800000000015,0.4010706,169.89923574,84.29931054,-169.44659892
4.25,425,0.999,-0.02,0.126,-0.4010706,0.1718874,0.286479,170.41489794,84.24201474,-168.93093672
4.26,426,1.001,-0.02,0.127,-0.22918320000000006,0.1718874,0.3437748,170.38052046,84.24201474,-168.9653142
4.27,427,1.003,-0.021,0.13,-0.22918320000000006,0.0,0.22918320000000006,170.34614298000002,84.24201474,-168.98823252
4.28,428,1.005,-0.02,0.129,-0.4583664000000001,0.0,0.3437748,170.30603592,84.23628516,-169.02833958000005
4.29,429,1.004,-0.022,0.128,-0.4010706,0.057295800000000015,0.4583664000000001,170.26019928,84.23628516,-169.07417622
4.3,430,1.001,-0.023,0.126,-0.286479,-0.11459160000000003,0.4010706,170.6268924,84.1675302,-168.70175351999995
4.31,431,1.001,-0.022,0.129,-0.1718874,-0.11459160000000003,0.4010706,170.58105575999997,84.1675302,-168.74759016000004
4.32,432,1.0,-0.022,0.129,-0.11459160000000003,-0.1718874,0.057295800000000015,170.5695966,84.1675302,-168.75904932
4.33,433,1.0,-0.021,0.13,-0.057295800000000015,0.057295800000000015,-0.1718874,170.58678534,84.1675302,-168.74186058
4.34,434,1.001,-0.02,0.13,0.0,0.057295800000000015,-0.1718874,170.60397408,84.1675302,-168.71894226
4.35,435,1.001,-0.021,0.13,0.0,0.0,-0.1718874,171.69832386,83.98991322,-167.63032206
4.36,436,1.001,-0.021,0.13,0.11459160000000003,0.057295800000000015,-0.11459160000000003,171.71551259999995,83.98991322,-167.61886289999995
4.37,437,1.001,-0.022,0.131,0.11459160000000003,0.0,-0.22918320000000006,171.7441605,83.98991322,-167.590215
4.38,438,1.0,-0.022,0.13,0.1718874,0.22918320000000006,-0.286479,171.77853798,83.98991322,-167.5615671
4.39,439,1.0,-0.024,0.129,0.3437748,0.4010706,-0.4010706,171.82437462,83.98418364,-167.51573046
4.3999999999999995,440,0.998,-0.023,0.129,0.4583664000000001,0.22918320000000006,-0.5156622000000001,172.01918034,83.94407658,-167.32665432000005
4.41,441,0.997,-0.02,0.129,0.5156622000000001,0.22918320000000006,-0.5156622000000001,172.08220572,83.94407658,-167.26935852
4.42,442,0.999,-0.02,0.127,0.572958,0.11459160000000003,-0.572958,172.1452311,83.94407658,-167.21206272
4.43,443,1.001,-0.02,0.129,0.22918320000000006,0.0,-0.5156622000000001,172.2025269,83.94407658,-167.16049650000005
4.4399999999999995,444,1.002,-0.017,0.13,0.3437748,0.11459160000000003,-0.286479,172.23690438,83.94407658,-167.1318486
4.45,445,1.003,-0.019,0.128,0.4583664000000001,0.286479,-0.11459160000000003,172.54057212,83.89823994000002,-166.82818086
4.46,446,1.005,-0.022,0.132,0.1718874,0.572958,0.0,172.5463017,83.89251035999997,-166.82245128
4.47,447,1.002,-0.023,0.133,0.0,0.4583664000000001,0.0,172.55203128,83.88678078000002,-166.8167217
4.4799999999999995,448,0.999,-0.024,0.131,-0.1718874,0.1718874,-0.11459160000000003,172.56922002,83.88678078000002,-166.80526254
4.49,449,1.0,-0.022,0.13,-0.057295800000000015,0.11459160000000003,-0.1718874,172.58640875999996,83.8810512,-166.78234422
4.5,450,0.998,-0.022,0.131,-0.057295800000000015,0.4583664000000001,-0.1718874,172.87861733999995,83.82375540000002,-166.49013564
4.51,451,0.994,-0.022,0.128,0.11459160000000003,0.7448454000000001,-0.3437748,172.92445398,83.81802582,-166.45002857999995
4.52,452,0.995,-0.021,0.128,0.286479,0.7448454000000001,-0.4583664000000001,172.97602020000005,83.81229624,-166.39846236
4.53,453,0.994,-0.021,0.13,0.3437748,0.4583664000000001,-0.3437748,173.02185684,83.80656666,-166.3583553
4.54,454,0.996,-0.021,0.132,0.22918320000000006,0.057295800000000015,-0.286479,173.05050474,83.80656666,-166.32970740000005
4.55,455,0.996,-0.021,0.131,0.057295800000000015,-0.1718874,-0.22918320000000006,173.29114710000005,83.76073002,-166.09479462
4.56,456,0.998,-0.02,0.129,0.22918320000000006,-0.22918320000000006,-0.286479,173.31406542,83.76645959999998,-166.06614672
4.57,457,0.999,-0.02,0.13,0.1718874,-0.3437748,-0.286479,173.34271332,83.76645959999998,-166.0432284
4.58,458,0.998,-0.019,0.133,0.1718874,-0.572958,-0.1718874,173.35417248000005,83.77218918,-166.03176924000005
4.59,459,0.997,-0.018000000000000002,0.132,0.11459160000000003,-0.5156622000000001,-0.057295800000000015,173.36563164,83.77791876,-166.02603965999995
4.6,460,0.999,-0.019,0.13,0.057295800000000015,-0.3437748,0.057295800000000015,173.56616694,83.72635254,-165.82550436
4.61,461,1.001,-0.019,0.131,0.057295800000000015,-0.4583664000000001,0.1718874,173.54324862,83.73208212,-165.84842268
4.62,462,1.002,-0.02,0.132,0.057295800000000015,-0.4010706,0.1718874,173.52605988,83.73781170000002,-165.86561142
4.63,463,1.003,-0.021,0.133,0.0,-0.3437748,0.286479,173.4916824,83.73781170000002,-165.89998889999995
4.64,464,1.003,-0.022,0.132,0.057295800000000015,-0.286479,0.286479,173.4630345,83.74354128,-165.93436637999997
4.6499999999999995,465,1.002,-0.023,0.132,0.11459160000000003,-0.11459160000000003,0.1718874,173.64065148,83.68624548,-165.7567494
4.66,466,1.002,-0.021,0.132,0.1718874,-0.057295800000000015,0.11459160000000003,173.62919232,83.68624548,-165.77393813999996
4.67,467,1.0,-0.021,0.133,0.1718874,-0.057295800000000015,0.11459160000000003,173.61773316,83.68624548,-165.78539730000003
4.68,468,0.999,-0.021,0.133,0.1718874,-0.22918320000000006,0.22918320000000006,173.59481483999997,83.69197505999998,-165.81404519999995
4.6899999999999995,469,0.999,-0.022,0.134,0.11459160000000003,-0.286479,0.1718874,173.57189652,83.69197505999998,-165.83696351999995
4.7,470,0.998,-0.021,0.134,0.0,-0.4583664000000001,0.22918320000000006,173.6349219,83.65186800000002,-165.77393813999996
4.71,471,0.999,-0.022,0.133,-0.057295800000000015,-0.5156622000000001,0.11459160000000003,173.61773316,83.65759758,-165.79112688
4.72,472,0.999,-0.022,0.135,0.0,-0.4583664000000001,0.1718874,173.59481483999997,83.66332716000002,-165.81404519999995
4.7299999999999995,473,1.0,-0.022,0.135,0.0,-0.286479,0.11459160000000003,173.57762610000003,83.66332716000002,-165.83123394
4.74,474,0.999,-0.022,0.132,0.0,-0.22918320000000006,0.057295800000000015,173.57189652,83.66905674,-165.8426931
4.75,475,0.998,-0.022,0.132,0.1718874,-0.3437748,0.0,173.68648811999995,83.61176094,-165.72810149999995
4.76,476,0.999,-0.022,0.134,0.22918320000000006,-0.5156622000000001,-0.057295800000000015,173.6922177,83.61749052,-165.72237192
4.77,477,0.999,-0.021,0.135,0.057295800000000015,-0.4583664000000001,-0.057295800000000015,173.69794728,83.62322009999998,-165.71664234
4.78,478,0.998,-0.021,0.134,0.0,-0.3437748,-0.057295800000000015,173.70367686,83.62894968,-165.71091276
4.79,479,1.0,-0.022,0.133,0.11459160000000003,-0.286479,-0.057295800000000015,173.71513602,83.63467926,-165.70518318
4.8,480,1.001,-0.021,0.133,0.057295800000000015,-0.22918320000000006,-0.11459160000000003,173.99015586000004,83.56019472,-165.43016334
4.81,481,1.002,-0.022,0.134,0.057295800000000015,-0.1718874,-0.11459160000000003,174.0073446,83.5659243,-165.41870418
4.82,482,1.003,-0.021,0.134,0.0,-0.22918320000000006,-0.11459160000000003,174.01880376,83.5659243,-165.40724502
4.83,483,1.001,-0.02,0.132,0.0,-0.3437748,-0.057295800000000015,174.02453334,83.57165388,-165.39578586
4.84,484,1.001,-0.02,0.131,0.0,-0.286479,0.0,174.01880376,83.57165388,-165.40724502
4.85,485,1.001,-0.02,0.133,0.1718874,-0.22918320000000006,0.11459160000000003,174.21933905999995,83.52581724,-165.20670972
