TimeStamp(s),FrameCounter,AccX,AccY,AccZ,GyrX,GyrY,GyrZ,EulerX,EulerY,EulerZ
0.01,1,-0.086,-1.008,-0.017,0.0,-2.5210152000000003,2.3491277999999998,88.85432664,-2.21734746,-43.87139406
0.02,2,-0.071,-1.01,-0.017,-0.572958,0.572958,-0.6302538000000001,88.84859706,-2.21161788,-43.86566448
0.03,3,-0.075,-1.012,-0.02,-0.3437748,0.2291832000000001,-0.7448454000000001,88.84286748000002,-2.2058883,-43.86566448
0.04,4,-0.077,-1.01,-0.023,0.057295800000000015,0.40107059999999994,-0.8594370000000001,88.84286748000002,-2.19442914,-43.8599349
0.05,5,-0.078,-1.006,-0.023,0.2291832000000001,0.40107059999999994,-0.9167328000000001,88.73973504,-2.3376686399999995,-43.90577154
0.060000000000000005,6,-0.077,-1.001,-0.022000000000000002,0.4583664000000001,0.572958,-1.0886202,88.73973504,-2.32620948,-43.90004196
0.06999999999999999,7,-0.08,-1.0,-0.023,0.286479,1.0886202,-1.2032118,88.74546462,-2.3147503200000004,-43.888582799999995
0.08,8,-0.08,-0.9990000000000001,-0.027999999999999997,0.0,1.4896908000000002,-1.145916,88.74546462,-2.30329116,-43.87712364
0.09,9,-0.08,-0.9990000000000001,-0.033,0.0,1.4896908000000002,-1.2032118,88.74546462,-2.2918320000000003,-43.8599349
0.09999999999999999,10,-0.077,-0.997,-0.036000000000000004,0.0,1.6615782,-1.3178034,88.65379134000001,-2.35485738,-43.87712364
0.11,11,-0.069,-1.001,-0.042,0.1718874,1.6042823999999998,-1.432395,88.65379134000001,-2.3376686399999995,-43.8599349
0.12,12,-0.062,-1.002,-0.05,0.40107059999999994,1.3178034,-1.6042823999999998,88.65952092,-2.3204799,-43.84847574
0.13,13,-0.057999999999999996,-1.002,-0.054000000000000006,0.8594370000000001,0.8021411999999999,-1.6042823999999998,88.6652505,-2.30329116,-43.83701658
0.14,14,-0.06,-1.004,-0.055999999999999994,1.3178034,0.4583664000000001,-1.6042823999999998,88.68243924,-2.2918320000000003,-43.831286999999996
0.15000000000000002,15,-0.062,-1.006,-0.06,1.6615782,0.4583664000000001,-1.3178034,88.56784764,-2.3204799,-43.86566448
0.16,16,-0.064,-1.005,-0.061,1.8334656000000005,0.6875496,-1.0313244000000001,88.58503637999998,-2.30902074,-43.8599349
0.17,17,-0.063,-1.004,-0.059000000000000004,1.432395,0.9167328000000001,-0.6875496,88.59649553999998,-2.30329116,-43.84847574
0.18000000000000002,18,-0.057,-1.002,-0.068,1.0313244000000001,0.9740286,-0.4583664000000001,88.60795470000002,-2.29756158,-43.83701658
0.19,19,-0.049,-1.0,-0.08199999999999999,0.8021411999999999,0.6302538000000001,-0.40107059999999994,88.61941386,-2.2918320000000003,-43.831286999999996
0.2,20,-0.039,-1.001,-0.08800000000000001,0.9740286,-0.40107059999999994,-0.4583664000000001,88.36731234,-2.26891368,-43.90004196
0.21000000000000002,21,-0.038,-1.004,-0.08900000000000001,1.432395,-0.9167328000000001,-0.6875496,88.38450107999998,-2.2631841,-43.90577154
0.22,22,-0.04,-1.006,-0.08800000000000001,1.6615782,-1.2605076000000002,-0.7448454000000001,88.40168982,-2.25745452,-43.92296028
0.23,23,-0.039,-1.011,-0.08900000000000001,2.0626488000000003,-1.6042823999999998,-1.2605076000000002,88.42460814,-2.24026578,-43.93441944
0.24000000000000002,24,-0.040999999999999995,-1.022,-0.095,2.6356068,-2.2345362,-2.0053530000000004,88.45325604000001,-2.22307704,-43.95733776
0.25,25,-0.042,-1.03,-0.09300000000000001,2.6929026,-3.7242269999999995,-3.0366774,88.42460814,-2.18869956,-44.00890398
0.26,26,-0.042,-1.037,-0.08,1.6615782,-5.9014674000000005,-4.297185,88.44752645999998,-2.1485925000000003,-44.07192936
0.27,27,-0.054000000000000006,-1.034,-0.08900000000000001,0.0,-7.333862400000001,-5.0993262,88.44752645999998,-2.09702628,-44.1464139
0.28,28,-0.067,-1.031,-0.095,-2.7501984,-8.9954406,-5.3858052,88.42460814,-2.03973048,-44.23808718
0.29000000000000004,29,-0.083,-1.0170000000000001,-0.109,-4.8128472,-9.3392154,-4.8701430000000006,88.3787715,-1.99389384,-44.32976046
0.3,30,-0.087,-0.9990000000000001,-0.122,-3.4950437999999995,-6.9327918,-3.8388186,88.26990948,-1.98816426,-44.4328929
0.31,31,-0.083,-1.002,-0.129,-0.7448454000000001,-4.5263682,-2.86479,88.26417990000002,-1.9595163600000003,-44.47872954
0.32,32,-0.084,-1.005,-0.127,-0.4583664000000001,-2.7501984,-2.6929026,88.25845032,-1.93086846,-44.50737744
0.33,33,-0.083,-1.002,-0.129,-1.3750992,-1.2605076000000002,-2.7501984,88.24699116,-1.90222056,-44.51883660000001
0.34,34,-0.07400000000000001,-1.0070000000000001,-0.138,-1.2032118,-0.5156622000000001,-2.4064236,88.22980242,-1.87930224,-44.52456618
0.35000000000000003,35,-0.055,-1.022,-0.145,-1.7188740000000002,-1.145916,-1.3178034,88.02353753999998,-1.88503182,-44.59905072
0.36000000000000004,36,-0.042,-1.035,-0.15,-3.7242269999999995,-2.291832,-0.11459160000000004,87.98916005999996,-1.88503182,-44.62196904
0.37,37,-0.027999999999999997,-1.0390000000000001,-0.156,-6.0733548,-3.9534102,1.0886202,87.92613467999998,-1.89649098,-44.6620761
0.38,38,-0.023,-1.033,-0.152,-8.5370742,-6.2452422,2.3491277999999998,87.84592056,-1.92513888,-44.72510148
0.39,39,-0.02,-1.034,-0.153,-11.802934800000001,-7.906820400000001,3.2658606,87.73132896,-1.9595163600000003,-44.79958602
0.4,40,-0.018000000000000002,-1.041,-0.166,-16.042824000000003,-9.740286,3.7242269999999995,87.53652324,-1.99389384,-44.90844804
0.41000000000000003,41,-0.021,-1.048,-0.18600000000000005,-20.168121600000006,-12.4904844,3.4950437999999995,87.33598794000002,-2.02827132,-45.034498799999994
0.42000000000000004,42,-0.021,-1.044,-0.205,-24.1788276,-15.928232399999999,2.6356068,87.10107516000002,-2.0626488000000003,-45.18919746
0.43,43,-0.02,-1.026,-0.22,-28.533308399999996,-19.079501399999998,0.8594370000000001,86.82032574,-2.07983754,-45.38400318
0.44,44,-0.02,-1.0170000000000001,-0.235,-33.1742682,-22.2307704,-0.8021411999999999,86.49373968,-2.07983754,-45.607456799999994
0.45,45,-0.019,-1.014,-0.245,-36.4401288,-24.1788276,-2.1772404,86.10985782,-2.06837838,-45.85955832
0.46,46,-0.022000000000000002,-1.012,-0.245,-40.393539000000004,-25.8977016,-3.4950437999999995,85.7145168,-2.04546006,-46.123119
0.47000000000000003,47,-0.035,-0.997,-0.24600000000000002,-45.1490904,-27.272800800000002,-4.8128472,85.26760956,-2.01681216,-46.40386842
0.48000000000000004,48,-0.043,-0.9670000000000001,-0.256,-50.24841660000001,-28.1895336,-6.3025379999999975,84.77486567999998,-1.9767051,-46.69034742
0.49,49,-0.057,-0.9329999999999999,-0.264,-55.6342218,-29.1062664,-8.136003599999999,84.22482600000002,-1.9194093000000003,-46.99401516
0.5,50,-0.076,-0.8759999999999999,-0.254,-60.50436480000001,-28.074942,-11.1153852,83.60603136,-1.83919518,-47.29195332
0.51,51,-0.085,-0.836,-0.26899999999999996,-66.00476160000001,-24.809081399999997,-16.272007199999994,82.94712966,-1.7074148399999998,-47.56124358
0.52,52,-0.1,-0.8059999999999999,-0.262,-71.61975,-18.621135,-21.829699800000004,82.23093216,-1.5183387000000002,-47.784697200000004
0.53,53,-0.106,-0.7829999999999999,-0.24100000000000002,-75.916935,-10.4278356,-26.5852512,81.46316844,-1.27769634,-47.9279367
0.54,54,-0.09300000000000001,-0.7340000000000001,-0.213,-79.6984578,-4.2398892,-28.81978740000001,80.65529766,-1.0026765,-48.02533956
0.55,55,-0.099,-0.6659999999999999,-0.15,-76.48989300000002,-2.3491277999999998,-26.356068,79.87607478,-0.76203414,-48.09982409999999
0.56,56,-0.068,-0.672,-0.08199999999999999,-77.23473840000003,1.9480572,-22.7464326,79.0968519,-0.5443101,-48.128471999999995
0.5700000000000001,57,-0.045,-0.7390000000000001,-0.049,-84.96967140000002,4.4690724,-19.8243468,78.23168532,-0.35523396,-48.13420158
0.5800000000000001,58,-0.028999999999999998,-0.8029999999999999,-0.027000000000000003,-94.251591,4.2398892,-17.18874,77.27484546000002,-0.18907614,-48.13420158
0.59,59,0.001,-0.79,-0.095,-110.29441499999999,3.2085647999999996,-12.6623718,76.15184778,-0.06875496,-48.14566074
0.6,60,0.059000000000000004,-0.718,-0.193,-121.1233212,0.3437748,-8.193299399999999,74.91998808000002,0.0,-48.16857906
0.61,61,0.08199999999999999,-0.6940000000000001,-0.26899999999999996,-124.7902524,-0.9740286,-8.021412000000002,73.6537509,0.05156622,-48.2144157
0.62,62,0.061,-0.67,-0.212,-118.3731228,-4.0680017999999984,-10.943497800000001,72.45626868000002,0.13750992,-48.29462982
0.63,63,0.001,-0.575,0.066,-106.2264132,-6.3025379999999975,-15.068795399999999,71.37337806000002,0.24637194,-48.40922142
0.64,64,-0.013999999999999999,-0.616,0.183,-94.65266159999999,-1.8334656000000005,-18.907614,70.41653819999998,0.40680018,-48.49516512
0.65,65,-0.02,-0.748,0.08900000000000001,-102.1011156,2.5783110000000002,-19.9389384,69.39667296,0.59014674,-48.55246092
0.66,66,-0.027999999999999997,-0.802,-0.045,-110.9246688,1.7188740000000002,-17.303331600000003,68.2679457,0.7448454000000001,-48.60402714000001
0.67,67,-0.047,-0.7509999999999999,-0.128,-113.159205,2.2345362,-12.3758928,67.1220297,0.8537074199999999,-48.63840462
0.68,68,-0.067,-0.6990000000000001,-0.19,-112.299768,2.3491277999999998,-9.3392154,65.98184327999999,0.93392154,-48.66132294000001
0.6900000000000001,69,-0.077,-0.672,-0.152,-110.9246688,2.86479,-8.021412000000002,64.85311602,1.0026765,-48.67851168
0.7000000000000001,70,-0.086,-0.659,-0.14,-109.6068654,3.2658606,-8.078707799999998,63.74730708,1.07143146,-48.69570042
0.7100000000000001,71,-0.105,-0.627,-0.156,-110.29441499999999,4.8128472,-7.6776372,62.63003898,1.1459160000000002,-48.68997084
0.72,72,-0.111,-0.642,-0.17,-107.77339979999999,7.448453999999999,-9.682990199999999,61.5356892,1.24904844,-48.67851168
0.73,73,-0.11,-0.626,-0.128,-104.22106020000001,9.224623800000002,-11.5164558,60.4757169,1.38082878,-48.65559336000001
0.74,74,-0.037000000000000005,-0.597,-0.127,-100.2103542,10.4851314,-10.4851314,59.45585166000001,1.50687954,-48.62694546
0.75,75,0.03,-0.61,-0.182,-96.14235240000001,7.1046792000000005,-8.59437,58.48755264,1.6042824000000002,-48.60975672
0.76,76,0.057999999999999996,-0.63,-0.207,-93.4494498,2.4637194,-5.5003968,57.54217193999999,1.65011904,-48.62694546
0.77,77,0.05,-0.598,-0.221,-90.5846598,-0.1718874,-2.86479,56.61970956,1.6615782,-48.64986378
0.78,78,0.027000000000000003,-0.569,-0.251,-85.1988546,-2.291832,-2.1199446,55.75454298,1.6558486199999998,-48.68424126
0.79,79,0.019,-0.5770000000000001,-0.282,-78.1514712,-1.5469866,-2.7501984,54.96386094,1.6615782,-48.71288916
0.8,80,-0.008,-0.591,-0.281,-70.7030172,1.6615782,-4.583664,54.25339302,1.6959556799999995,-48.73007790000001
0.81,81,-0.059000000000000004,-0.593,-0.281,-64.0567044,6.0733548,-6.7609043999999985,53.600220900000004,1.7761698000000001,-48.72434832
0.8200000000000001,82,-0.11800000000000001,-0.586,-0.27399999999999997,-57.1812084,10.2559482,-7.0473834,53.02153331999999,1.87930224,-48.68424126
0.8300000000000001,83,-0.139,-0.578,-0.287,-49.3316838,12.776963400000001,-5.5576926,52.51733028,1.99389384,-48.62121588000001
0.8400000000000001,84,-0.12300000000000001,-0.5870000000000001,-0.292,-44.4615408,13.8082878,-3.0366774,52.07042304,2.0912967,-48.529542600000006
0.85,85,-0.069,-0.561,-0.35100000000000003,-38.8465524,13.3499214,-0.11459160000000004,51.68081159999999,2.16005166,-48.42641016
0.86,86,-0.02,-0.578,-0.41700000000000004,-33.231564,13.120738199999998,2.1199446,51.34276638,2.21734746,-48.31181856
0.87,87,0.001,-0.619,-0.424,-27.559279800000002,13.407217200000002,3.4950437999999995,51.06774654,2.2631841,-48.185767799999994
0.88,88,0.023,-0.624,-0.418,-23.4339822,13.980175199999998,3.7242269999999995,50.83283376,2.3147503200000004,-48.05398746
0.89,89,0.048,-0.632,-0.44,-17.9908812,14.0947668,3.2658606,50.65521678,2.37204612,-47.92220712
0.9,90,0.036000000000000004,-0.639,-0.512,-12.6623718,14.7823164,2.6356068,50.52343644,2.44080108,-47.79042678
0.91,91,0.013999999999999999,-0.653,-0.506,-5.3858052,14.7823164,2.6356068,50.47187021999999,2.50955604,-47.65864644
0.92,92,-0.006,-0.662,-0.518,1.4896908000000002,12.776963400000001,3.0366774,50.49478854,2.5611222600000003,-47.53832526000001
0.93,93,0.006,-0.703,-0.5539999999999999,7.734933000000002,12.6623718,2.9793816000000004,50.57500266,2.61841806,-47.41800408
0.9400000000000001,94,0.034,-0.735,-0.537,12.776963400000001,12.318597,2.9220858,50.71251258,2.6699842800000004,-47.30341248000001
0.9500000000000001,95,0.045,-0.767,-0.581,16.902261,10.084060800000001,3.380452200000001,50.88439998,2.71009134,-47.20600962
0.9600000000000001,96,0.052000000000000005,-0.784,-0.593,19.7097552,7.6203414,3.5523396000000003,51.09066486,2.72728008,-47.12006592
0.97,97,0.057,-0.8079999999999999,-0.61,22.6891368,3.6669312000000014,3.2085647999999996,51.31984806000001,2.72728008,-47.0684997
0.98,98,0.073,-0.831,-0.639,25.496631,1.432395,2.6356068,51.58340874,2.7215505,-47.0398518
0.99,99,0.091,-0.853,-0.6409999999999999,28.7051958,3.3231564,0.7448454000000001,51.87561732,2.73873924,-47.00547432000001
1.0,100,0.065,-0.865,-0.655,33.0596766,6.3598338,-0.7448454000000001,52.20793296000001,2.78457588,-46.95963768
1.01,101,0.027999999999999997,-0.898,-0.665,36.898495200000006,10.7716104,-2.4637194,52.58608524,2.87051958,-46.89088271999999
1.02,102,-0.004,-0.9159999999999999,-0.643,38.5027776,12.4331886,-3.2658606,52.98142626,2.9793816000000004,-46.80493902
1.03,103,0.002,-0.9159999999999999,-0.649,39.8778768,9.8548776,-2.9793816000000004,53.38822644,3.05959572,-46.74191363999999
1.04,104,0.053,-0.929,-0.662,41.825934000000004,2.5783110000000002,-2.0626488000000003,53.81221536,3.0997027800000003,-46.73045448000001
1.05,105,0.129,-0.941,-0.649,43.0864416,-6.7609043999999985,-1.4896908000000002,54.24766344,3.08824362,-46.79347986
1.06,106,0.21899999999999997,-0.9520000000000001,-0.652,45.3209778,-12.9488508,-2.9220858,54.70030026000001,3.04813656,-46.91380104
1.07,107,0.225,-0.97,-0.631,48.3576552,-16.1001198,-5.5576926,55.18158498,3.0137590800000003,-47.07995886000001
1.08,108,0.152,-0.99,-0.64,51.9099948,-16.7876694,-7.734933000000002,55.70297676,2.99084076,-47.25757584
1.09,109,0.053,-1.003,-0.634,54.54560160000001,-14.7823164,-8.651665800000002,56.25301644,2.99084076,-47.42946324
1.1,110,-0.039,-0.998,-0.635,57.1812084,-13.0061466,-8.59437,56.82024486,2.99084076,-47.5841619
1.11,111,-0.091,-0.9840000000000001,-0.6679999999999999,57.92605379999999,-14.1520626,-7.6203414,57.40466202,2.99084076,-47.74459014
1.12,112,-0.087,-0.986,-0.647,61.07732280000001,-16.2147114,-7.9641161999999985,58.01772708,2.98511118,-47.92220712
1.1300000000000001,113,-0.005,-1.0190000000000001,-0.62,65.54639519999999,-16.501190400000002,-10.084060800000001,58.67662878,2.9965703400000003,-48.11128326
1.1400000000000001,114,0.08199999999999999,-1.053,-0.63,67.43715660000001,-16.272007199999994,-12.3758928,59.35271922,3.03094782,-48.31181856
1.1500000000000001,115,0.08900000000000001,-1.1,-0.65,70.4165382,-16.7303736,-13.178034,60.05172798,3.07678446,-48.51808344
1.1600000000000001,116,0.064,-1.139,-0.6759999999999999,72.479187,-16.1001198,-12.776963400000001,60.77938464,3.1226211000000004,-48.71861874
1.17,117,0.002,-1.139,-0.667,74.3699484,-16.042824000000003,-12.261301199999998,61.52995962,3.1627281600000003,-48.91342446
1.18,118,-0.040999999999999995,-1.156,-0.654,77.23473840000003,-15.297978599999999,-12.318597,62.30345292000001,3.214294380000001,-49.1025006
1.19,119,-0.048,-1.181,-0.664,78.60983759999998,-13.636400400000001,-12.5477802,63.09413496000001,3.27731976,-49.274388
1.2,120,-0.022000000000000002,-1.236,-0.6609999999999999,81.18814859999998,-12.4331886,-13.8655836,63.90773531999999,3.35753388,-49.44054582
1.21,121,0.025,-1.255,-0.6859999999999999,80.44330319999997,-12.834259199999998,-13.521808800000002,64.7156061,3.4377480000000005,-49.61243322
1.22,122,0.06,-1.3090000000000002,-0.688,81.360036,-16.386598799999998,-13.120738199999998,65.52920646,3.50077338,-49.81296852000001
1.23,123,0.052000000000000005,-1.321,-0.6809999999999999,80.5578948,-20.2827132,-13.178034,66.33707724,3.5523396000000003,-50.04215172
1.24,124,0.018000000000000002,-1.329,-0.667,81.5892192,-21.027558600000006,-14.209358400000001,67.15067760000001,3.61536498,-50.28852366
1.25,125,-0.034,-1.3319999999999999,-0.626,80.8443738,-19.595163600000006,-15.183387000000002,67.95854838,3.6955791,-50.52343644
1.26,126,-0.067,-1.319,-0.626,78.781725,-17.246035799999998,-16.329303,68.74350084,3.79298196,-50.735430900000004
1.27,127,-0.049,-1.341,-0.599,79.18279559999998,-14.438541599999999,-17.303331600000003,69.53418287999999,3.9190327200000006,-50.92450704
1.28,128,-0.026000000000000002,-1.33,-0.581,76.54718879999999,-11.8602306,-17.8189938,70.3019466,4.05654264,-51.09066486
1.29,129,-0.003,-1.3130000000000002,-0.5720000000000001,75.05749800000002,-10.084060800000001,-18.449247600000003,71.05825116,4.20551172,-51.24536352
1.3,130,0.02,-1.285,-0.5579999999999999,73.338624,-8.651665800000002,-19.595163600000006,71.78590782,4.37166954,-51.38287344
1.31,131,0.024,-1.278,-0.5539999999999999,71.44786260000002,-7.2192707999999985,-20.5691922,72.50210532,4.5550161000000005,-51.5089242
1.32,132,0.019,-1.275,-0.507,69.38521379999999,-5.844171599999999,-20.9702628,73.1953845,4.749821819999998,-51.617786220000006
1.33,133,0.023,-1.2690000000000001,-0.518,65.7182826,-4.1252976000000015,-20.6837838,73.8542862,4.93889796,-51.709459499999994
1.34,134,0.032,-1.2590000000000001,-0.489,64.0567044,-4.010706000000001,-19.7097552,74.50172874,5.127974099999999,-51.7954032
1.35,135,0.034,-1.232,-0.444,62.5097178,-4.3544808,-18.793022399999998,75.12052338000002,5.2998615,-51.88707648
1.36,136,0.028999999999999998,-1.206,-0.42100000000000004,62.22323879999999,-4.3544808,-18.621135,75.74504759999998,5.47747848,-51.9672906
1.37,137,0.013000000000000001,-1.173,-0.4,61.07732280000001,-4.5263682,-18.277360199999997,76.35811265999997,5.64936588,-52.05323430000001
1.3800000000000001,138,0.012,-1.1540000000000001,-0.35700000000000004,61.4783934,-5.3285094000000015,-17.589810600000003,76.97117771999999,5.815523699999999,-52.139178
1.3900000000000001,139,0.027000000000000003,-1.148,-0.369,61.24921020000001,-6.3598338,-16.042824000000003,77.58424278,5.96449278,-52.23085128
1.4000000000000001,140,0.084,-1.126,-0.295,59.7595194,-7.906820400000001,-14.381245800000002,78.17438952,6.09627312,-52.333983720000006
1.4100000000000001,141,0.1,-1.072,-0.303,57.86875799999999,-8.479778399999999,-13.178034,78.7530771,6.2165943,-52.43711616
1.42,142,0.113,-1.044,-0.281,57.86875799999999,-8.8235532,-11.0580894,79.33176468,6.31399716,-52.54024860000001
1.43,143,0.105,-0.992,-0.253,56.66554620000001,-9.8548776,-8.250595200000001,79.89326352,6.3884817000000025,-52.64338104000001
1.44,144,0.066,-0.96,-0.248,56.0925882,-8.59437,-5.7868758000000025,80.45476235999998,6.43431834,-52.73505432
1.45,145,0.053,-0.946,-0.183,55.40503860000001,-5.7868758000000025,-3.2085647999999996,81.00480204,6.45723666,-52.79235012
1.46,146,0.046,-0.898,-0.135,54.7747848,-5.2712136,-1.3750992,81.55484172,6.4744253999999986,-52.84391634000001
1.47,147,0.025,-0.865,-0.125,55.00396800000001,-6.589017,-0.6302538000000001,82.11061098,6.4744253999999986,-52.90121214000001
1.48,148,0.0,-0.81,-0.10800000000000001,55.80610920000001,-5.844171599999999,-0.9740286,82.67210982,6.48588456,-52.95850794
1.49,149,-0.006999999999999999,-0.768,-0.09300000000000001,56.3790672,-1.9480572,-2.7501984,83.23933824000002,6.51453246,-52.97569668
1.5,150,-0.005,-0.7390000000000001,-0.122,57.06661679999999,2.1199446,-5.6722842,83.81802582,6.5718282599999975,-52.95850794
1.51,151,0.003,-0.748,-0.05,58.0979412,8.479778399999999,-8.7662574,84.41390214,6.669231119999999,-52.87829382
1.52,152,0.01,-0.747,-0.023,57.4676874,15.4125702,-11.9748222,85.01550804,6.8010114600000025,-52.72932474
1.53,153,0.046,-0.7190000000000001,0.021,58.2698286,19.0222056,-15.6990492,85.62284352,6.972898860000001,-52.54597818
1.54,154,0.036000000000000004,-0.72,0.07400000000000001,58.38442020000001,21.199446,-19.079501399999998,86.24163816000002,7.17916374,-52.33971329999999
1.55,155,-0.006,-0.698,0.06,57.00932099999999,24.5798982,-22.631841,86.85470322,7.402617360000002,-52.10480051999999
1.56,156,-0.002,-0.7140000000000001,0.154,57.58227899999999,27.3873924,-25.0382646,87.46776828,7.66617804,-51.83551026
1.57,157,0.027000000000000003,-0.769,0.142,57.123912600000004,30.882436199999997,-25.3247436,88.08656292,7.92400914,-51.52611294
1.58,158,0.102,-0.838,0.062,53.4569814,31.913760600000003,-21.600516600000002,88.67098008,8.14173318,-51.21098604
1.59,159,0.151,-0.8690000000000001,0.195,48.9306132,30.882436199999997,-14.8396122,89.20383102000002,8.29070226,-50.89585913999999
1.6,160,0.10400000000000001,-0.8490000000000001,0.175,44.2896534,31.3980984,-6.6463128000000005,89.71376364,8.353727639999999,-50.57500266
1.61,161,0.035,-0.858,0.136,42.34159620000001,31.340802600000004,1.8907614,90.1835892,8.33080932,-50.25987576
1.62,162,-0.04,-0.866,0.111,38.5027776,31.054323600000004,8.5370742,90.61903728,8.233406460000001,-49.94474886
1.6300000000000001,163,-0.059000000000000004,-0.893,0.07,37.872523799999996,31.1689152,14.5531332,91.0430262,8.0787078,-49.63535154
1.6400000000000001,164,-0.08199999999999999,-0.95,0.084,36.32553720000001,32.945085,18.1054728,91.44982638,7.889631660000001,-49.30303590000001
1.6500000000000001,165,-0.057,-0.961,0.038,31.22621100000001,39.3622146,20.3973048,91.8165195,7.648989299999997,-48.91915404
1.6600000000000001,166,-0.013000000000000001,-0.951,0.037000000000000005,28.074942,45.4928652,22.058882999999998,92.15456472,7.402617360000002,-48.47224680000001
1.6700000000000002,167,0.049,-0.9470000000000001,0.094,27.1582092,50.1911208,23.14750320000001,92.48688036,7.144786260000001,-47.97950292
1.68,168,0.134,-0.96,-0.012,25.0382646,50.0765292,25.4393352,92.7905481,6.85257768,-47.49248862
1.69,169,0.19399999999999998,-1.003,0.086,25.210151999999997,47.4409224,27.559279800000002,93.09421584,6.54890994,-47.03412222
1.7,170,0.134,-0.993,0.17600000000000002,21.5432208,47.211739200000004,29.507337,93.36923568,6.2165943,-46.58148540000001
1.71,171,-0.001,-0.9390000000000001,0.16699999999999998,18.5638392,47.67010560000001,28.934378999999996,93.59841887999998,5.89000824,-46.123119
1.72,172,-0.067,-0.9109999999999999,0.139,17.303331600000003,50.5348956,25.210151999999997,93.8218725,5.59207008,-45.636104700000004
1.73,173,-0.027000000000000003,-0.914,0.079,17.303331600000003,49.560867,21.314037600000002,94.03386695999998,5.33423898,-45.16054956
1.74,174,0.14800000000000002,-0.885,0.028999999999999998,15.5844576,46.2377106,18.793022399999998,94.22867268000002,5.10505578,-44.71364232000001
1.75,175,0.28800000000000003,-0.856,0.139,19.8816426,41.825934000000004,16.959556799999998,94.46931504,4.9274388,-44.31257172
1.76,176,0.33899999999999997,-0.812,0.10800000000000001,21.829699800000004,32.830493399999995,15.183387000000002,94.7099574,4.74409224,-44.0031744
1.77,177,0.28300000000000003,-0.7090000000000001,0.138,21.314037600000002,30.997027799999998,12.776963400000001,94.95059976,4.5836640000000015,-43.70523624
1.78,178,0.055999999999999994,-0.7959999999999999,0.16399999999999998,33.231564,34.2055926,8.9954406,95.30583372,4.45761324,-43.3729206
1.79,179,-0.109,-0.934,0.145,35.9244666,42.7999626,5.72958,95.70117474,4.34875122,-42.94893168
1.8,180,-0.163,-0.958,0.136,33.403451399999994,51.33703679999999,6.0160589999999985,96.06213828,4.20551172,-42.4561878
1.81,181,-0.023,-0.956,0.039,37.757932200000006,63.1972674,7.5630456000000015,96.4861272,4.04508348,-41.84312274
1.82,182,0.18100000000000002,-1.165,0.166,54.3164184,69.4998054,11.172680999999999,97.07054436,3.8388186000000006,-41.167032299999995
1.83,183,0.36200000000000004,-1.45,0.213,58.842786600000004,70.4165382,18.8503182,97.70652774,3.5523396000000003,-40.49094186
1.84,184,0.489,-1.6680000000000001,0.24600000000000002,61.191914399999995,65.66098679999999,28.762491600000004,98.35397028,3.1627281600000003,-39.88360638
1.85,185,0.526,-1.796,0.524,68.98414319999999,55.80610920000001,34.7212548,99.07589736,2.73300966,-39.38513292
1.86,186,0.377,-1.955,0.69,78.4379502,44.51883660000001,32.2002396,99.88376814,2.3376686399999995,-38.99552148
1.87,187,0.221,-1.854,0.659,63.88481700000001,39.1330314,22.86102420000001,100.53694026,2.0340009,-38.65174668
1.8800000000000001,188,0.218,-1.589,0.599,58.0979412,33.74722620000001,14.7823164,101.13281658,1.82200644,-38.34807894
1.8900000000000001,189,0.215,-1.32,0.365,53.1705024,26.7571386,8.880849000000003,101.67712668,1.6787669399999998,-38.09597742
1.9000000000000001,190,0.218,-1.16,0.221,49.4462754,19.9962342,5.72958,102.17560014,1.6042824000000002,-37.91263086
1.9100000000000001,191,0.223,-1.036,0.20199999999999999,45.1490904,11.802934800000001,6.3598338,102.63969612,1.51260912,-37.80949842
1.9200000000000002,192,0.165,-0.912,0.217,38.67466500000001,4.6409598,8.5370742,103.02930756,1.4209358399999998,-37.77512094
1.93,193,0.114,-0.8220000000000001,0.124,34.4920716,0.057295800000000015,8.8235532,103.37881194,1.34072172,-37.79230968
1.94,194,0.10400000000000001,-0.768,0.10800000000000001,31.6845774,-3.1512689999999997,8.7662574,103.69966842,1.26623718,-37.83814632
1.95,195,0.076,-0.7759999999999999,0.136,35.9244666,-8.9381448,9.453807,104.05490238,1.2032117999999998,-37.94700834
1.96,196,0.024,-0.825,0.21,37.41415739999999,-11.688343199999998,10.1413566,104.43305466,1.14018642,-38.07878868
1.97,197,-0.015,-0.899,0.284,41.3102718,-11.745639,11.5164558,104.851314,1.06570188,-38.21056902
1.98,198,-0.055999999999999994,-0.9359999999999999,0.312,40.1643558,-10.4851314,13.178034,105.25811417999998,0.96829902,-38.34234936
1.99,199,-0.105,-0.937,0.331,40.6227222,-7.5630456000000015,14.5531332,105.67064394000002,0.8537074199999999,-38.4454818
2.0,200,-0.163,-0.9420000000000001,0.396,41.76863820000001,-2.6929026,15.2406828,106.1118216,0.6875496,-38.51423676
2.01,201,-0.21899999999999997,-0.9670000000000001,0.37799999999999995,42.456187799999995,2.4064236,15.9855282,106.54726968,0.52712136,-38.5314255
2.02,202,-0.226,-1.028,0.336,41.883229799999995,6.589017,16.8449652,106.97125859999998,0.34950438,-38.51423676
2.03,203,-0.19,-1.089,0.382,40.10706,8.9381448,19.9389384,107.37805878,0.13750992,-38.48558885999999
2.04,204,-0.156,-1.083,0.381,35.9244666,9.1100322,23.0902074,107.73902231999998,-0.10886202,-38.46267054
2.05,205,-0.147,-1.063,0.373,33.002380800000005,7.6203414,24.350715,108.07706754,-0.37815228,-38.46840012
2.0599999999999996,206,-0.133,-1.084,0.395,31.9710564,4.297185,24.2361234,108.39792402,-0.61879464,-38.49704802
2.07,207,-0.113,-1.093,0.433,28.81978740000001,0.3437748,23.605869600000002,108.69586218,-0.8422482600000001,-38.56580298
2.0799999999999996,208,-0.11900000000000001,-1.089,0.41200000000000003,25.2674478,-2.1772404,23.319390600000002,108.95369328,-1.04851314,-38.65747626
2.09,209,-0.122,-1.07,0.41200000000000003,20.3973048,-2.5783110000000002,23.4339822,109.16568774,-1.2605076000000002,-38.75487912000001
2.0999999999999996,210,-0.095,-1.063,0.391,19.480572,-3.5523396000000003,24.5798982,109.36049346,-1.48396122,-38.86947072
2.11,211,-0.047,-1.057,0.3720000000000001,13.521808800000002,-7.9641161999999985,26.5279554,109.50373295999998,-1.7074148399999998,-39.02989896
2.1199999999999997,212,-0.032,-1.003,0.413,10.1413566,-12.6623718,28.074942,109.61832456000002,-1.9194093000000003,-39.24189342
2.13,213,-0.023,-0.9440000000000001,0.442,7.734933000000002,-14.7250206,27.043617600000005,109.70426825999998,-2.1199446,-39.46534704
2.1399999999999997,214,0.01,-0.927,0.41600000000000004,6.3025379999999975,-16.042824000000003,24.4080108,109.78448238,-2.2918320000000003,-39.69453024
2.15,215,0.006,-0.917,0.429,4.1825934,-19.2513888,22.9756158,109.85896692,-2.42934192,-39.94663176
2.1599999999999997,216,-0.021,-0.9009999999999999,0.446,3.9534102,-22.803728399999997,22.803728399999997,109.91626272,-2.55539268,-40.23884034
2.17,217,-0.028999999999999998,-0.934,0.379,2.6929026,-23.835052800000003,23.204798999999998,109.95636978,-2.68717302,-40.5367785
2.1799999999999997,218,-0.057,-0.9520000000000001,0.39299999999999996,2.3491277999999998,-25.4393352,24.1215318,110.00220642000002,-2.81895336,-40.8519054
2.19,219,-0.087,-0.9470000000000001,0.4270000000000001,2.86479,-25.8977016,24.0069402,110.05377264,-2.9507337000000002,-41.17276188
2.1999999999999997,220,-0.12300000000000001,-0.9359999999999999,0.433,1.9480572,-27.1582092,22.7464326,110.11106844,-3.07678446,-41.50507752
2.21,221,-0.16699999999999998,-0.9209999999999999,0.47,1.7761698000000001,-26.0122932,20.7983754,110.14544592,-3.1799169000000003,-41.81447484
2.2199999999999998,222,-0.18899999999999997,-0.922,0.467,2.0626488000000003,-23.204798999999998,18.1054728,110.18555298,-3.26013102,-42.08949468
2.23,223,-0.20199999999999999,-0.9329999999999999,0.466,2.0053530000000004,-20.3973048,15.870936600000002,110.22566004,-3.33461556,-42.33586662
2.2399999999999998,224,-0.215,-0.961,0.456,2.1199446,-16.7303736,14.266654199999998,110.26003752,-3.40337052,-42.53640192
2.25,225,-0.23399999999999999,-0.9940000000000001,0.433,1.0886202,-12.9488508,13.120738199999998,110.29441499999999,-3.52942128,-42.7140189
2.26,226,-0.23399999999999999,-1.016,0.473,-0.3437748,-8.250595200000001,12.1467096,110.30014458,-3.6096354,-42.83434008
2.27,227,-0.23800000000000002,-1.0170000000000001,0.43,-4.297185,-2.9220858,10.5424272,110.26576710000002,-3.70130868,-42.89736546
2.28,228,-0.244,-1.035,0.395,-6.0160589999999985,2.0626488000000003,8.479778399999999,110.20274172000002,-3.78725238,-42.90882462
2.29,229,-0.228,-1.053,0.40399999999999997,-8.880849000000003,6.6463128000000005,6.1879464,110.11106844,-3.8674665,-42.86871756
2.3,230,-0.193,-1.072,0.389,-11.745639,9.740286,4.6409598,109.97355851999998,-3.97059894,-42.80569218
2.31,231,-0.18,-1.064,0.35600000000000004,-16.386598799999998,10.943497800000001,4.4690724,109.80167112,-4.05081306,-42.71974848000001
2.32,232,-0.18,-1.058,0.349,-18.162768600000003,13.636400400000001,5.042030400000002,109.6068654,-4.14821592,-42.61088646
2.3299999999999996,233,-0.154,-1.061,0.342,-19.8243468,16.7876694,5.042030400000002,109.39487094,-4.25707794,-42.47910612
2.34,234,-0.174,-1.077,0.307,-22.2880662,17.8189938,4.583664,109.15422858,-4.36593996,-42.33013704
2.3499999999999996,235,-0.203,-1.081,0.325,-25.4393352,21.772404,1.8334656000000005,108.86774958,-4.4748019800000005,-42.1410609
2.36,236,-0.215,-1.06,0.33299999999999996,-32.085648000000006,23.2620948,-1.2032118,108.52397478,-4.54355694,-41.92906644
2.3699999999999997,237,-0.187,-1.015,0.371,-33.518043,21.600516600000002,-2.1199446,108.16301124,-4.59512316,-41.72280156
2.38,238,-0.11699999999999999,-0.97,0.41,-35.46610020000001,21.2567418,-2.291832,107.78485896,-4.64668938,-41.52226626
2.3899999999999997,239,-0.096,-0.945,0.39299999999999996,-35.122325399999994,20.454600600000006,-2.7501984,107.40670668,-4.68679644,-41.32746054
2.4,240,-0.121,-0.938,0.377,-37.24227,23.0902074,-1.9480572,107.02282481999998,-4.749821819999998,-41.1097365
2.4099999999999997,241,-0.126,-0.9109999999999999,0.39399999999999996,-38.2162986,26.7571386,-1.145916,106.61029506,-4.82430636,-40.85763498
2.42,242,-0.11599999999999999,-0.885,0.4,-36.7839036,27.043617600000005,-0.9740286,106.20922446,-4.898790900000002,-40.60553346
2.4299999999999997,243,-0.129,-0.8809999999999999,0.369,-37.0703826,23.204798999999998,-1.145916,105.81388344,-4.96181628,-40.38780942
2.44,244,-0.129,-0.8370000000000001,0.35600000000000004,-34.950438,25.152856200000002,-1.0886202,105.43000158,-5.02484166,-40.14716706
2.4499999999999997,245,-0.081,-0.8370000000000001,0.271,-32.372127,24.522602399999997,-2.6929026,105.08622678000002,-5.0706783,-39.91225428
2.46,246,-0.14,-0.794,0.374,-24.1788276,21.371333399999997,-6.0733548,104.81693652,-5.0706783,-39.69453024
2.4699999999999998,247,-0.12,-0.768,0.47100000000000003,-17.303331600000003,25.8977016,-8.651665800000002,104.61640122,-5.06494872,-39.43096956
2.48,248,-0.086,-0.818,0.384,-16.1001198,26.241476399999996,-9.3392154,104.4215955,-5.04775998,-39.15594972
2.4899999999999998,249,-0.091,-0.823,0.31,-17.4179232,19.5378678,-7.1046792000000005,104.22678978,-5.03057124,-38.95541442
2.5,250,-0.087,-0.852,0.244,-15.813640800000002,15.6417534,-5.042030400000002,104.0491728,-5.02484166,-38.79498618
2.51,251,-0.059000000000000004,-0.9,0.247,-17.303331600000003,16.042824000000003,-4.4117766,103.86009666,-5.02484166,-38.63455794
2.52,252,-0.03,-0.9570000000000001,0.19899999999999998,-16.673077799999998,16.2147114,-5.9014674000000005,103.67102052,-5.0133825000000005,-38.46840012
2.53,253,-0.021,-0.966,0.19399999999999998,-17.0741484,15.9855282,-8.5370742,103.48194438,-4.97327544,-38.29651272
2.54,254,-0.048,-0.9640000000000001,0.182,-12.4904844,13.2926256,-7.906820400000001,103.33870488,-4.93316838,-38.14754364
2.55,255,-0.094,-1.0170000000000001,0.17600000000000002,-9.3392154,10.828906199999999,-5.72958,103.20692454,-4.91025006,-38.03868162
2.56,256,-0.107,-1.026,0.21899999999999997,-9.568398599999998,10.828906199999999,-3.2085647999999996,103.09806252,-4.90452048,-37.9298196
2.57,257,-0.099,-1.025,0.16899999999999998,-11.5737516,7.0473834,-0.4583664000000001,102.97201176000002,-4.91597964,-37.86106464
2.5799999999999996,258,-0.046,-1.063,0.105,-12.4904844,2.6356068,0.7448454000000001,102.845961,-4.93316838,-37.83814632
2.59,259,0.044000000000000004,-1.105,0.098,-13.750992000000002,-2.9220858,0.3437748,102.70845108,-4.9274388,-37.86679422
2.5999999999999996,260,0.067,-1.097,0.07,-17.8189938,-11.5737516,-0.9167328000000001,102.49072704,-4.8586838399999985,-37.9871154
2.61,261,0.019,-1.044,0.096,-19.365980399999998,-17.6471064,-2.86479,102.31311006,-4.78992888,-38.15327322
2.6199999999999997,262,-0.046,-1.026,0.092,-19.4232762,-17.131444199999994,-3.9534102,102.1297635,-4.70971476,-38.31370146
2.63,263,-0.126,-1.052,0.11599999999999999,-19.8243468,-12.2040054,-4.4117766,101.94068736,-4.6409598,-38.42256348
2.6399999999999997,264,-0.215,-1.0590000000000002,0.171,-21.485925,-6.1879464,-3.6669312000000014,101.7286929,-4.58939358,-38.47985928
2.65,265,-0.242,-1.0859999999999999,0.124,-21.772404,-2.2345362,-2.5783110000000002,101.46513222,-4.6008527400000006,-38.51423676
2.6599999999999997,266,-0.2,-1.084,0.134,-25.9549974,1.6615782,-1.8334656000000005,101.20157154,-4.58939358,-38.49704802
2.67,267,-0.155,-1.022,0.14300000000000002,-27.4446882,6.7609043999999985,-2.291832,100.91509254,-4.5836640000000015,-38.43402264
2.6799999999999997,268,-0.135,-0.9740000000000001,0.079,-28.132237800000002,9.568398599999998,-3.3231564,100.62288396,-4.57220484,-38.33661978
2.69,269,-0.121,-0.971,0.037000000000000005,-26.929026,12.4904844,-4.583664,100.33640496,-4.5550161000000005,-38.21056902
2.6999999999999997,270,-0.11900000000000001,-0.966,0.048,-25.0955604,13.8082878,-4.010706000000001,100.0384668,-4.5550161000000005,-38.07878868
2.71,271,-0.129,-0.935,0.1,-23.5485738,13.980175199999998,-2.3491277999999998,99.78636528,-4.56074568,-37.94127876
2.7199999999999998,272,-0.124,-0.924,0.10400000000000001,-20.912967000000002,14.4958374,-1.2032118,99.56291166,-4.57793442,-37.79803926
2.73,273,-0.11699999999999999,-0.9259999999999999,0.105,-20.1108258,15.870936600000002,-0.6302538000000001,99.33945804,-4.6008527400000006,-37.64907018
2.7399999999999998,274,-0.105,-0.919,0.09699999999999999,-18.048177,17.589810600000003,-0.286479,99.14465232,-4.629500640000002,-37.47718278000001
2.75,275,-0.11599999999999999,-0.907,0.081,-16.501190400000002,17.4179232,0.1718874,98.93265786,-4.68106686,-37.31675454
2.76,276,-0.122,-0.917,0.09,-13.6936962,16.673077799999998,0.8021411999999999,98.77795919999998,-4.72117392,-37.156326299999996
2.77,277,-0.115,-0.9440000000000001,0.095,-11.2299768,15.4125702,1.3750992,98.65190844,-4.76128098,-37.00735722
2.78,278,-0.113,-0.968,0.13,-10.084060800000001,13.9228794,2.5210152000000003,98.53731684,-4.812847199999998,-36.87557688
2.79,279,-0.10099999999999999,-0.982,0.149,-7.8495246,13.407217200000002,3.8388186,98.44564356,-4.8701430000000006,-36.74952612
2.8,280,-0.075,-0.993,0.141,-7.6203414,12.4904844,4.6409598,98.3482407,-4.9274388,-36.63493452
2.81,281,-0.028999999999999998,-1.001,0.157,-6.0160589999999985,12.0894138,4.8128472,98.27948574,-4.99619376,-36.5260725
2.82,282,-0.018000000000000002,-0.99,0.14,-7.906820400000001,7.448453999999999,4.8701430000000006,98.18781246,-5.05921914,-36.46304712
2.8299999999999996,283,0.008,-0.973,0.14,-7.906820400000001,1.432395,4.5263682,98.10759834,-5.10505578,-36.45158796
2.84,284,0.012,-0.96,0.11,-7.734933000000002,-5.443101,4.3544808,98.03884338,-5.13943326,-36.51461334
2.8499999999999996,285,0.0,-0.958,0.098,-6.1879464,-12.032118,3.8961144,97.96435884,-5.1222445200000015,-36.6406641
2.86,286,-0.039,-0.9540000000000001,0.107,-4.1252976000000015,-16.902261,3.1512689999999997,97.93571094,-5.127974099999999,-36.80682192
2.8699999999999997,287,-0.086,-0.9470000000000001,0.111,-2.6929026,-20.05353,1.6042823999999998,97.92998136,-5.11078536,-37.00735722
2.88,288,-0.11900000000000001,-0.9420000000000001,0.11699999999999999,-1.432395,-21.2567418,-0.2291832000000001,97.93571094,-5.07640788,-37.21935168
2.8899999999999997,289,-0.14,-0.924,0.135,-0.6302538000000001,-20.912967000000002,-2.1772404,97.95289968,-5.01911208,-37.41988698
2.9,290,-0.166,-0.9359999999999999,0.128,0.7448454000000001,-19.9962342,-3.4950437999999995,97.96435884,-4.9847345999999995,-37.62042228
2.9099999999999997,291,-0.171,-0.961,0.105,1.0886202,-20.168121600000006,-3.6669312000000014,97.99300674,-4.91597964,-37.80949842
2.92,292,-0.163,-0.9740000000000001,0.111,1.5469866,-20.340009,-3.2658606,98.02738422000002,-4.84722468,-38.00430414
2.9299999999999997,293,-0.182,-0.99,0.10400000000000001,2.0053530000000004,-20.168121600000006,-2.86479,98.06749128,-4.784199299999999,-38.19910986
2.94,294,-0.215,-0.99,0.094,1.5469866,-18.3919518,-3.0366774,98.10186876,-4.7269035000000015,-38.37099726
2.9499999999999997,295,-0.239,-0.985,0.107,1.9480572,-15.126091199999998,-3.5523396000000003,98.10759834,-4.749821819999998,-38.53715508000001
2.96,296,-0.245,-0.971,0.10800000000000001,2.86479,-11.802934800000001,-3.8388186,98.1477054,-4.69252602,-38.65174668
2.9699999999999998,297,-0.24600000000000002,-0.97,0.10099999999999999,3.4950437999999995,-8.7089616,-3.8388186,98.19354204,-4.63523022,-38.72623122
2.98,298,-0.237,-0.981,0.105,4.297185,-5.7868758000000025,-2.8074942000000003,98.23937868,-4.6008527400000006,-38.78352702
2.9899999999999998,299,-0.22399999999999998,-0.9940000000000001,0.1,4.5263682,-2.8074942000000003,-1.3178034,98.2909449,-4.57793442,-38.80644534
3.0,300,-0.21,-0.998,0.1,4.1252976000000015,-0.6875496,-0.4583664000000001,98.21646036,-4.81857678,-38.875200299999996
3.01,301,-0.19399999999999998,-0.996,0.11699999999999999,4.6982555999999995,1.2605076000000002,-0.4583664000000001,98.262297,-4.812847199999998,-38.86374114
3.02,302,-0.185,-0.9990000000000001,0.1,4.5263682,2.6356068,-0.6875496,98.30240406,-4.812847199999998,-38.83509324
3.03,303,-0.16399999999999998,-1.005,0.096,3.6096353999999997,4.2398892,-1.0886202,98.33678154,-4.80711762,-38.7892566
3.04,304,-0.132,-1.01,0.102,3.2085647999999996,5.3858052,-1.3750992,98.36542944,-4.80138804,-38.73769038
3.05,305,-0.113,-1.011,0.111,3.2085647999999996,5.6149884000000005,-1.432395,98.33678154,-4.81857678,-38.68612416
3.06,306,-0.10099999999999999,-1.005,0.12300000000000001,3.0939732,5.5576926,-1.3178034,98.36542944,-4.812847199999998,-38.62882836
3.07,307,-0.096,-1.006,0.12,3.1512689999999997,5.3858052,-1.2605076000000002,98.38834776,-4.812847199999998,-38.57153256
3.08,308,-0.09,-0.998,0.129,2.8074942000000003,5.3858052,-1.7188740000000002,98.41126608,-4.80138804,-38.51996634
3.09,309,-0.087,-0.998,0.135,3.3231564,5.1566220000000005,-2.1199446,98.44564356,-4.78992888,-38.46267054
3.0999999999999996,310,-0.085,-1.001,0.134,2.8074942000000003,4.5263682,-2.8074942000000003,98.4341844,-4.76128098,-38.4168339
3.11,311,-0.071,-0.998,0.134,2.9793816000000004,4.010706000000001,-3.5523396000000003,98.45710272,-4.73263308,-38.37099726
3.1199999999999997,312,-0.059000000000000004,-0.996,0.133,3.0366774,3.2085647999999996,-4.297185,98.48575062,-4.6982556,-38.330890200000006
3.13,313,-0.059000000000000004,-0.99,0.13699999999999998,3.7242269999999995,2.1772404,-4.6409598,98.5201281,-4.65814854,-38.302242299999996
3.1399999999999997,314,-0.068,-0.986,0.154,4.3544808,1.8334656000000005,-4.4690724,98.56596474,-4.612311900000001,-38.27932398
3.15,315,-0.075,-0.977,0.15,4.7555514,1.4896908000000002,-3.9534102,98.58888306,-4.57220484,-38.25640566
3.1599999999999997,316,-0.08,-0.978,0.146,5.0993262,1.2605076000000002,-3.5523396000000003,98.6347197,-4.53782736,-38.23921692
3.17,317,-0.079,-0.98,0.15,5.7868758000000025,1.432395,-3.1512689999999997,98.6920155,-4.50917946,-38.2162986
3.1799999999999997,318,-0.079,-0.982,0.152,6.0160589999999985,1.0886202,-2.86479,98.75504088,-4.48053156,-38.19910986
3.19,319,-0.083,-0.9790000000000001,0.158,6.8182002000000015,0.6875496,-2.86479,98.82379584,-4.45188366,-38.187650700000006
3.1999999999999997,320,-0.086,-0.987,0.152,7.333862400000001,0.3437748,-2.86479,98.86390290000001,-4.43469492,-38.18192112
3.21,321,-0.087,-0.987,0.145,6.6463128000000005,0.0,-2.6929026,98.93265786,-4.40604702,-38.17619154000001
3.2199999999999998,322,-0.08199999999999999,-0.988,0.147,6.9327918,-0.3437748,-2.3491277999999998,99.00141282,-4.3831287,-38.17619154000001
3.23,323,-0.08,-0.9890000000000001,0.141,6.990087599999999,-1.432395,-2.0053530000000004,99.07589736,-4.36021038,-38.187650700000006
3.2399999999999998,324,-0.081,-0.9940000000000001,0.136,6.9327918,-2.2345362,-1.7761698000000001,99.1503819,-4.33729206,-38.20483944
3.25,325,-0.083,-1.002,0.136,6.8182002000000015,-2.9793816000000004,-1.5469866,99.1790298,-4.3201033199999985,-38.23348734
3.26,326,-0.091,-1.003,0.147,7.1046792000000005,-3.380452200000001,-1.3750992,99.25351434,-4.297185000000002,-38.26213524
3.27,327,-0.105,-0.9990000000000001,0.155,7.0473834,-3.0939732,-1.4896908000000002,99.32799888,-4.27426668,-38.29078314
3.28,328,-0.114,-0.9990000000000001,0.145,6.6463128000000005,-2.5783110000000002,-1.4896908000000002,99.40248342,-4.25707794,-38.31370146
3.29,329,-0.115,-0.997,0.14800000000000002,6.3598338,-2.0053530000000004,-1.432395,99.4655088,-4.2398892,-38.330890200000006
3.3,330,-0.111,-0.996,0.145,6.589017,-1.6615782,-1.3750992,99.48842712,-4.25707794,-38.35380852
3.31,331,-0.106,-0.998,0.14800000000000002,6.7609043999999985,-1.5469866,-1.6615782,99.55718208,-4.23415962,-38.36526768
3.32,332,-0.102,-1.0,0.163,7.2192707999999985,-1.3750992,-1.7761698000000001,99.63166662,-4.211241299999998,-38.37099726
3.33,333,-0.09300000000000001,-1.004,0.16,6.703608600000001,-1.432395,-1.432395,99.70042158,-4.19405256,-38.38245642
3.34,334,-0.09300000000000001,-1.0,0.157,5.6149884000000005,-2.0626488000000003,-0.7448454000000001,99.76344696,-4.1825934,-38.39964516
3.3499999999999996,335,-0.091,-0.995,0.155,5.443101,-2.5783110000000002,-0.2291832000000001,99.7806357,-4.19405256,-38.43402264
3.36,336,-0.094,-0.992,0.165,5.2712136,-3.5523396000000003,0.11459160000000004,99.8379315,-4.1883229800000015,-38.46840012
3.3699999999999997,337,-0.10099999999999999,-0.991,0.16699999999999998,5.443101,-3.9534102,0.057295800000000015,99.8952273,-4.1825934,-38.5027776
3.38,338,-0.105,-0.991,0.165,4.8701430000000006,-3.5523396000000003,-0.2291832000000001,99.94679352,-4.17113424,-38.53715508000001
3.3899999999999997,339,-0.106,-0.997,0.162,4.8128472,-3.7242269999999995,-0.6875496,99.99835974,-4.1539455,-38.57153256
3.4,340,-0.102,-0.997,0.155,4.8128472,-4.1825934,-1.0313244000000001,100.01554848,-4.1539455,-38.61736920000001
3.4099999999999997,341,-0.099,-0.995,0.161,4.9847346,-4.8128472,-1.3178034,100.0671147,-4.1310271799999985,-38.65747626
3.42,342,-0.102,-0.988,0.175,5.3858052,-5.2712136,-1.2605076000000002,100.1244105,-4.10810886,-38.70904248
3.4299999999999997,343,-0.105,-0.9890000000000001,0.174,5.7868758000000025,-5.1566220000000005,-0.9740286,100.18743588,-4.09092012,-38.75487912000001
3.44,344,-0.11,-0.986,0.175,5.5576926,-4.583664,-0.6302538000000001,100.25046126,-4.07373138,-38.80071576
3.4499999999999997,345,-0.115,-0.981,0.18600000000000005,5.844171599999999,-3.6096353999999997,-0.3437748,100.29629789999998,-4.10810886,-38.84082282
3.46,346,-0.12300000000000001,-0.978,0.17600000000000002,5.7868758000000025,-3.1512689999999997,-0.40107059999999994,100.35932327999998,-4.0966497,-38.86947072
3.4699999999999998,347,-0.121,-0.98,0.171,5.72958,-2.7501984,-0.7448454000000001,100.42234866,-4.08519054,-38.89811862
3.48,348,-0.111,-0.988,0.17300000000000001,6.2452422,-2.2345362,-1.145916,100.48537404,-4.0680017999999984,-38.91530736
3.4899999999999998,349,-0.10800000000000001,-0.991,0.183,5.958763200000001,-1.4896908000000002,-1.145916,100.54839942,-4.05081306,-38.92676652
3.5,350,-0.109,-0.995,0.188,6.0733548,-0.8594370000000001,-0.7448454000000001,100.57704732,-4.08519054,-38.94395526
3.51,351,-0.106,-0.995,0.175,5.5003968,-0.8594370000000001,-0.40107059999999994,100.63434312,-4.0794609600000005,-38.94968484
3.52,352,-0.098,-0.993,0.17800000000000002,5.5576926,-0.8594370000000001,-0.1718874,100.69163892000002,-4.07373138,-38.95541442
3.53,353,-0.09699999999999999,-0.9890000000000001,0.18899999999999997,5.6722842,-1.0313244000000001,-0.1718874,100.74893472,-4.0680017999999984,-38.96687358000001
3.54,354,-0.10099999999999999,-0.985,0.204,5.5576926,-0.6875496,-0.5156622000000001,100.80623052,-4.06227222,-38.97260316
3.55,355,-0.102,-0.9940000000000001,0.203,5.2139178,0.0,-0.9167328000000001,100.83487842,-4.0966497,-38.97833274
3.56,356,-0.10300000000000001,-0.997,0.18600000000000005,4.1252976000000015,-0.11459160000000004,-1.0313244000000001,100.87498548,-4.08519054,-38.97833274
3.57,357,-0.09699999999999999,-1.001,0.182,4.010706000000001,-0.5156622000000001,-0.9740286,100.92082212,-4.07373138,-38.97833274
3.58,358,-0.091,-1.001,0.187,3.7815228,-1.0313244000000001,-1.2032118,100.95519959999999,-4.06227222,-38.9897919
3.59,359,-0.08900000000000001,-1.001,0.191,3.6669312000000014,-1.6042823999999998,-1.432395,100.99530666,-4.04508348,-39.00125106
3.5999999999999996,360,-0.09,-0.998,0.193,3.5523396000000003,-2.0053530000000004,-1.6615782,101.00676582,-4.04508348,-39.0184398
3.61,361,-0.096,-0.9940000000000001,0.21,3.4377480000000005,-2.1772404,-1.432395,101.04687288,-4.022165159999999,-39.03562854
3.6199999999999997,362,-0.10400000000000001,-0.991,0.213,3.0939732,-1.4896908000000002,-1.3178034,101.07552078,-4.010706,-39.05281728
3.63,363,-0.114,-0.9940000000000001,0.196,2.1199446,-0.9740286,-1.2032118,101.0984391,-3.99351726,-39.05854686
3.6399999999999997,364,-0.111,-0.9940000000000001,0.18899999999999997,1.6615782,-0.8021411999999999,-1.3750992,101.11562784,-3.97632852,-39.06427644
3.65,365,-0.102,-0.995,0.18899999999999997,1.8907614,-0.572958,-1.6615782,101.0697912,-4.022165159999999,-39.0757356
3.6599999999999997,366,-0.1,-0.992,0.19,2.0626488000000003,-0.5156622000000001,-2.0626488000000003,101.09270952,-3.99924684,-39.0757356
3.67,367,-0.10400000000000001,-0.993,0.18600000000000005,2.2345362,-0.5156622000000001,-2.1199446,101.11562784,-3.97632852,-39.08146518
3.6799999999999997,368,-0.107,-0.991,0.179,2.4637194,-0.286479,-1.8334656000000005,101.13854616,-3.95913978,-39.0757356
3.69,369,-0.107,-0.9840000000000001,0.192,2.6929026,0.3437748,-1.5469866,101.16719406,-3.94195104,-39.07000602
3.6999999999999997,370,-0.10099999999999999,-0.9790000000000001,0.193,2.9220858,1.6042823999999998,-1.0313244000000001,101.15000532,-3.97632852,-39.05854686
3.71,371,-0.085,-0.968,0.183,2.0626488000000003,2.1772404,-0.7448454000000001,101.17292364,-3.97059894,-39.03562854
3.7199999999999998,372,-0.08199999999999999,-0.96,0.179,2.6929026,1.432395,-0.572958,101.19584196,-3.97059894,-39.02416938
3.73,373,-0.085,-0.9620000000000001,0.166,3.9534102,0.2291832000000001,-0.3437748,101.23594902,-3.9648693599999993,-39.0184398
3.7399999999999998,374,-0.08800000000000001,-0.968,0.163,4.6982555999999995,-1.2032118,0.0,101.28751524,-3.9648693599999993,-39.02989896
3.75,375,-0.087,-0.966,0.18,5.2139178,-2.0626488000000003,0.057295800000000015,101.31043356,-3.97059894,-39.05281728
3.76,376,-0.08,-0.958,0.188,5.844171599999999,-1.8907614,0.0,101.37345894,-3.97059894,-39.07000602
3.77,377,-0.085,-0.9640000000000001,0.188,5.9014674000000005,-1.4896908000000002,-0.40107059999999994,101.43075474,-3.95913978,-39.08719476
3.78,378,-0.09300000000000001,-0.9670000000000001,0.19699999999999998,6.2452422,-0.6875496,-0.572958,101.4995097,-3.9534102,-39.08719476
3.79,379,-0.098,-0.981,0.18100000000000002,6.703608600000001,-0.5156622000000001,-0.5156622000000001,101.56253508,-3.94768062,-39.09292434
3.8,380,-0.096,-0.986,0.174,6.8182002000000015,-0.8594370000000001,-0.286479,101.57972382,-3.95913978,-39.104383500000004
3.81,381,-0.08800000000000001,-0.993,0.174,7.5057497999999985,-1.2032118,0.0,101.65993794,-3.95913978,-39.11584266
3.82,382,-0.085,-0.988,0.175,8.021412000000002,-1.5469866,0.2291832000000001,101.74015206,-3.95913978,-39.1330314
3.83,383,-0.084,-0.995,0.163,9.1100322,-1.432395,0.1718874,101.83182534,-3.9534102,-39.14449056
3.84,384,-0.084,-0.998,0.159,9.682990199999999,-1.0313244000000001,-0.1718874,101.93495778,-3.94768062,-39.15594972
3.8499999999999996,385,-0.08900000000000001,-0.99,0.165,10.026765,-1.0886202,-0.286479,101.986524,-3.95913978,-39.16740888
3.86,386,-0.094,-0.973,0.172,10.599723,-0.9740286,-0.1718874,102.09538602,-3.9534102,-39.17313846
3.8699999999999997,387,-0.098,-0.966,0.168,11.0007936,-0.7448454000000001,-0.057295800000000015,102.20997762,-3.9534102,-39.17886804
3.88,388,-0.099,-0.966,0.17300000000000001,11.45916,-0.6302538000000001,0.11459160000000004,102.32456922,-3.94768062,-39.18459762
3.8899999999999997,389,-0.10099999999999999,-0.976,0.17,12.4904844,-0.8021411999999999,0.5156622000000001,102.45061998,-3.9534102,-39.196056780000006
3.9,390,-0.095,-0.987,0.163,12.605075999999999,-1.145916,0.7448454000000001,102.5308341,-3.97059894,-39.20751594
3.9099999999999997,391,-0.08199999999999999,-0.996,0.162,13.120738199999998,-1.3178034,0.5156622000000001,102.66261444,-3.97059894,-39.22470468
3.92,392,-0.076,-0.991,0.16899999999999998,13.750992000000002,-1.432395,0.11459160000000004,102.80585394,-3.9648693599999993,-39.23616384
3.9299999999999997,393,-0.075,-0.98,0.17,14.667724800000002,-1.9480572,0.11459160000000004,102.95482302,-3.9648693599999993,-39.25335258
3.94,394,-0.075,-0.9690000000000001,0.168,15.068795399999999,-3.0366774,0.5156622000000001,103.10952168,-3.95913978,-39.28200048
3.9499999999999997,395,-0.075,-0.9540000000000001,0.16399999999999998,15.6417534,-4.7555514,0.9167328000000001,103.24130202,-3.95913978,-39.32783712
3.96,396,-0.07200000000000001,-0.948,0.166,16.673077799999998,-6.130650599999999,0.7448454000000001,103.41318942,-3.94768062,-39.38513292
3.9699999999999998,397,-0.075,-0.945,0.174,18.506543399999998,-7.2192707999999985,0.1718874,103.60799514,-3.93049188,-39.45388788
3.98,398,-0.079,-0.945,0.18100000000000002,19.5378678,-8.5370742,-0.3437748,103.81426002,-3.90184398,-39.534102
3.9899999999999998,399,-0.081,-0.9420000000000001,0.196,20.3973048,-9.1100322,-0.6875496,104.02625448,-3.873196080000002,-39.61431612
4.0,400,-0.084,-0.9440000000000001,0.196,21.5432208,-9.396511199999999,-0.6302538000000001,104.23251936,-3.84454818,-39.70025982
4.01,401,-0.08,-0.945,0.207,22.1161788,-9.0527364,0.0,104.46743214,-3.81590028,-39.78620352
4.02,402,-0.079,-0.9520000000000001,0.21100000000000002,23.3766864,-9.0527364,0.9167328000000001,104.7080745,-3.79871154,-39.87214722
4.03,403,-0.083,-0.9620000000000001,0.21,24.2934192,-10.1413566,1.8907614,104.96590559999999,-3.78725238,-39.96955008
4.04,404,-0.083,-0.9640000000000001,0.228,24.809081399999997,-11.2872726,2.291832,105.2237367,-3.77579322,-40.0784121
4.05,405,-0.085,-0.965,0.23,25.382039399999996,-12.1467096,2.3491277999999998,105.48156780000001,-3.77006364,-40.19873328
4.06,406,-0.083,-0.975,0.23800000000000002,25.4393352,-12.605075999999999,2.1772404,105.74512848,-3.752874900000001,-40.31905446
4.07,407,-0.077,-0.98,0.263,25.382039399999996,-13.0634424,2.2345362,106.01441874,-3.73568616,-40.4508348
4.08,408,-0.071,-0.977,0.271,25.210151999999997,-13.8655836,2.7501984,106.283709,-3.71849742,-40.58261514
4.09,409,-0.066,-0.9790000000000001,0.278,24.2361234,-15.068795399999999,3.1512689999999997,106.54154009999998,-3.70130868,-40.73158422
4.1,410,-0.07200000000000001,-0.98,0.302,23.663165399999997,-14.9542038,3.2658606,106.78791204,-3.68411994,-40.8805533
4.109999999999999,411,-0.084,-0.99,0.293,24.0069402,-13.8082878,3.2658606,107.04574313999998,-3.67266078,-41.01806322
4.12,412,-0.085,-1.002,0.275,22.7464326,-14.037471,3.0939732,107.2863855,-3.65547204,-41.15557314
4.13,413,-0.092,-0.991,0.306,22.6891368,-14.4958374,2.86479,107.52702786,-3.63255372,-41.29308306
4.14,414,-0.09300000000000001,-0.9740000000000001,0.31,24.064236,-13.6936962,2.9793816000000004,107.78485896,-3.61536498,-41.43059298
4.1499999999999995,415,-0.085,-0.983,0.299,23.3766864,-13.2353298,3.2658606,108.01977174,-3.6096354,-41.56237331999999
4.16,416,-0.083,-0.963,0.331,22.2880662,-12.7196676,3.5523396000000003,108.26041409999998,-3.59817624,-41.68842408
4.17,417,-0.09,-0.945,0.326,23.5485738,-11.401864199999999,3.4377480000000005,108.50678604,-3.59244666,-41.80301568
4.18,418,-0.10099999999999999,-0.9490000000000001,0.32,21.657812399999997,-11.1153852,3.380452200000001,108.73596924,-3.5809875,-41.91187770000001
4.1899999999999995,419,-0.11,-0.934,0.363,21.199446,-10.3705398,3.2658606,108.95942286,-3.57525792,-42.02073972
4.2,420,-0.105,-0.935,0.337,21.4286292,-9.6256944,3.0366774,109.17714690000001,-3.5809875,-42.11814258
4.21,421,-0.11199999999999999,-0.951,0.33299999999999996,19.8243468,-10.599723,2.3491277999999998,109.38341178,-3.56952834,-42.22127501999999
4.22,422,-0.131,-0.9570000000000001,0.369,19.9389384,-10.084060800000001,1.3178034,109.59540624000002,-3.54088044,-42.31867788
4.2299999999999995,423,-0.156,-0.956,0.34700000000000003,20.3973048,-8.880849000000003,0.2291832000000001,109.8074007,-3.5122325400000003,-42.398892
4.24,424,-0.18600000000000005,-0.973,0.324,19.480572,-7.448453999999999,-1.0313244000000001,110.01366558,-3.47212548,-42.46191738
4.25,425,-0.192,-0.9690000000000001,0.344,18.3919518,-5.3285094000000015,-2.5783110000000002,110.19128256,-3.47785506,-42.50775402
4.26,426,-0.179,-0.937,0.34299999999999997,18.2200644,-2.7501984,-3.8961144,110.38035870000002,-3.43201842,-42.51921318
4.27,427,-0.15,-0.925,0.322,19.2513888,-1.5469866,-5.2712136,110.57516442,-3.37472262,-42.5134836
4.28,428,-0.111,-0.924,0.318,19.365980399999998,-0.9167328000000001,-5.3858052,110.76997013999998,-3.31742682,-42.49629486
4.29,429,-0.086,-0.922,0.321,20.6837838,-1.6615782,-4.1825934,110.9819646,-3.27159018,-42.49629486
4.3,430,-0.085,-0.92,0.34,21.7151082,-2.9220858,-2.5783110000000002,111.19395906,-3.2486718599999995,-42.5134836
4.31,431,-0.09,-0.927,0.36,22.4599536,-3.380452200000001,-1.6042823999999998,111.42314226,-3.22002396,-42.53640192
4.32,432,-0.092,-0.929,0.365,22.1734746,-2.1772404,-1.2032118,111.64659588,-3.19710564,-42.54786108
4.33,433,-0.084,-0.922,0.384,22.1161788,-0.3437748,-1.0313244000000001,111.87004949999998,-3.18564648,-42.5421315
4.34,434,-0.07,-0.907,0.41200000000000003,23.0902074,-0.057295800000000015,-1.145916,112.10496228,-3.1741873200000006,-42.53640192
4.35,435,-0.084,-0.898,0.41100000000000003,23.2620948,-2.1772404,-1.145916,112.35133422,-3.16845774,-42.55359066
4.36,436,-0.096,-0.9059999999999999,0.41700000000000004,23.777757,-1.8907614,-1.7188740000000002,112.59197658,-3.1398098400000003,-42.55932024
4.37,437,-0.10400000000000001,-0.925,0.426,23.892348600000002,0.286479,-3.5523396000000003,112.83261894,-3.11116194,-42.5421315
4.38,438,-0.105,-0.9229999999999999,0.406,21.772404,3.7242269999999995,-5.5003968,113.05034298,-3.07105488,-42.47910612
4.39,439,-0.08900000000000001,-0.903,0.37799999999999995,20.8556712,6.0733548,-7.1046792000000005,113.25660786,-3.03094782,-42.398892
4.3999999999999995,440,-0.07200000000000001,-0.902,0.3670000000000001,21.199446,6.5317212,-8.4224826,113.45714316,-2.98511118,-42.30148914
4.41,441,-0.084,-0.914,0.40700000000000003,20.5691922,7.2192707999999985,-8.8235532,113.65767846,-2.93354496,-42.19835670000001
4.42,442,-0.115,-0.938,0.43,21.142150199999996,8.307891,-8.59437,113.86967292,-2.8934379,-42.0837651
4.43,443,-0.153,-0.992,0.45299999999999996,20.340009,9.5111028,-7.734933000000002,114.06447864000002,-2.86479,-41.9691735
4.4399999999999995,444,-0.156,-1.023,0.496,19.136797199999997,11.401864199999999,-6.703608600000001,114.25355478,-2.84760126,-41.83739316
4.45,445,-0.157,-1.045,0.48700000000000004,15.6417534,14.1520626,-5.1566220000000005,114.39679428,-2.88197874,-41.68842408
4.46,446,-0.145,-1.044,0.45399999999999996,11.45916,15.011499599999999,-4.3544808,114.50565629999998,-2.90489706,-41.53372542
4.47,447,-0.115,-1.013,0.43799999999999994,6.9327918,13.2926256,-4.010706000000001,114.56295209999999,-2.92781538,-41.40194508
4.4799999999999995,448,-0.105,-0.981,0.4320000000000001,5.1566220000000005,11.2299768,-3.6096353999999997,114.60878874,-2.94500412,-41.2816239
4.49,449,-0.11199999999999999,-0.971,0.428,4.3544808,11.917526400000002,-4.1825934,114.64889580000002,-2.9564632800000004,-41.16130272
4.5,450,-0.12,-0.965,0.424,1.0313244000000001,12.891555,-5.2139178,114.63170706,-3.00229992,-41.02952238
4.51,451,-0.138,-0.965,0.439,1.145916,12.3758928,-5.7868758000000025,114.63170706,-3.00229992,-40.89774204
4.52,452,-0.134,-0.973,0.444,-1.4896908000000002,12.4331886,-6.7609043999999985,114.60878874,-2.9965703400000003,-40.76023212
4.53,453,-0.133,-0.977,0.44299999999999995,-4.0680017999999984,12.4331886,-6.990087599999999,114.55722252,-2.99084076,-40.61699262000001
4.54,454,-0.133,-0.965,0.42,-6.589017,11.8602306,-6.6463128000000005,114.48273798,-2.9793816000000004,-40.48521228
4.55,455,-0.099,-0.9670000000000001,0.4370000000000001,-7.1046792000000005,12.032118,-6.703608600000001,114.39679428,-2.9793816000000004,-40.35343194
4.56,456,-0.068,-0.9670000000000001,0.442,-8.5370742,10.084060800000001,-6.0160589999999985,114.29939142,-2.96792244,-40.23884034
4.57,457,-0.064,-0.946,0.44,-10.026765,10.084060800000001,-5.958763200000001,114.1905294,-2.9564632800000004,-40.12424874
4.58,458,-0.067,-0.937,0.445,-12.318597,11.802934800000001,-6.703608600000001,114.05874906,-2.9507337000000002,-39.9924684
4.59,459,-0.061,-0.9179999999999999,0.431,-12.032118,10.7143146,-7.906820400000001,113.92696872,-2.9220857999999996,-39.86641764
4.6,460,-0.05,-0.9279999999999999,0.392,-11.9748222,8.651665800000002,-9.167328,113.77799964,-2.87051958,-39.75755562
4.61,461,-0.02,-0.938,0.359,-12.1467096,3.5523396000000003,-9.568398599999998,113.65194888,-2.79603504,-39.68307108000001
4.62,462,0.033,-0.9420000000000001,0.364,-13.750992000000002,-1.145916,-8.9954406,113.50870938,-2.71009134,-39.66015276
4.63,463,0.055,-0.927,0.36,-14.438541599999999,-4.297185,-7.8495246,113.36546988,-2.62414764,-39.67161192
4.64,464,0.07,-0.927,0.34700000000000003,-16.386598799999998,-6.6463128000000005,-7.5057497999999985,113.19931206,-2.52674478,-39.7059894
4.6499999999999995,465,0.039,-0.9329999999999999,0.34600000000000003,-16.615782,-11.8602306,-7.5630456000000015,113.01596550000002,-2.39496444,-39.78047393999999
4.66,466,-0.01,-0.946,0.3670000000000001,-15.756345,-13.407217200000002,-8.651665800000002,112.86126684,-2.25745452,-39.87214722
4.67,467,-0.059000000000000004,-0.953,0.391,-13.5791046,-14.209358400000001,-10.1986524,112.7294865,-2.10848544,-39.963820500000004
4.68,468,-0.106,-0.975,0.4320000000000001,-12.6623718,-11.917526400000002,-11.688343199999998,112.60343573999998,-1.95378678,-40.02684588
4.6899999999999995,469,-0.091,-1.003,0.45799999999999996,-15.2406828,-7.8495246,-12.834259199999998,112.44873708,-1.8048177,-40.04976420000001
4.7,470,-0.083,-0.97,0.387,-19.5378678,-6.0733548,-13.521808800000002,112.24820178,-1.6673077799999998,-40.06122336
4.71,471,-0.084,-0.9359999999999999,0.41,-16.902261,-5.3285094000000015,-14.1520626,112.07631438,-1.51260912,-40.05549378
4.72,472,-0.102,-0.9470000000000001,0.392,-16.1001198,-2.3491277999999998,-14.5531332,111.91015656,-1.3750992,-40.02684588
4.7299999999999995,473,-0.128,-1.004,0.445,-17.303331600000003,-1.8907614,-14.1520626,111.73253958,-1.2318597,-39.9924684
4.74,474,-0.14400000000000002,-1.032,0.47200000000000003,-19.194093,-0.6875496,-14.0947668,111.53773386,-1.10007936,-39.95236134
4.75,475,-0.129,-1.032,0.431,-24.1788276,2.8074942000000003,-14.266654199999998,111.28563233999998,-1.0026765,-39.877876799999996
4.76,476,-0.133,-1.006,0.406,-24.2934192,2.0053530000000004,-13.8082878,111.0392604,-0.8823553199999999,-39.81485142
4.77,477,-0.111,-0.968,0.413,-24.5798982,0.0,-13.2926256,110.78715888,-0.76203414,-39.76901478
4.78,478,-0.073,-0.9109999999999999,0.4270000000000001,-23.663165399999997,-1.9480572,-12.891555,110.54651652,-0.63598338,-39.74609646
4.79,479,-0.038,-0.8859999999999999,0.402,-24.2361234,-2.1772404,-12.9488508,110.30014458,-0.5042030399999999,-39.72317814
4.8,480,-0.035,-0.867,0.45,-22.5745452,-2.4637194,-11.917526400000002,110.10533886,-0.39534102,-39.71171898
4.81,481,-0.075,-0.902,0.47,-22.0015872,-3.380452200000001,-11.6310474,109.88188524,-0.27501984,-39.7059894
4.82,482,-0.07200000000000001,-0.9159999999999999,0.45,-23.892348600000002,-1.9480572,-13.2926256,109.63551329999999,-0.14323950000000002,-39.68307108000001
4.83,483,-0.07400000000000001,-0.937,0.446,-22.5745452,-3.1512689999999997,-14.1520626,109.4063301,0.0,-39.66588234
4.84,484,-0.081,-0.985,0.46799999999999997,-23.204798999999998,-2.4637194,-15.297978599999999,109.17141732,0.14323950000000002,-39.64296402
4.85,485,-0.069,-0.997,0.402,-27.6738714,-0.1718874,-15.297978599999999,108.89639748,0.27501984,-39.59712738
4.86,486,-0.081,-0.985,0.405,-28.5906042,-0.11459160000000004,-14.1520626,108.60418889999998,0.40680018,-39.55702032
4.87,487,-0.122,-0.985,0.484,-26.7571386,2.9793816000000004,-13.8655836,108.33489864,0.52712136,-39.48826536
4.88,488,-0.106,-1.025,0.46799999999999997,-28.418716800000002,7.6776372,-14.4958374,108.04269006,0.63598338,-39.37940334
4.89,489,-0.01,-1.0190000000000001,0.358,-32.6013102,6.1879464,-14.4958374,107.716104,0.75057498,-39.28200048
4.8999999999999995,490,0.07400000000000001,-1.032,0.358,-33.002380800000005,-0.8594370000000001,-14.1520626,107.38378836,0.89954406,-39.247623
4.91,491,0.092,-1.044,0.366,-34.37748,-7.2192707999999985,-13.464512999999998,107.03428398,1.04851314,-39.28200048
4.92,492,0.066,-1.056,0.36,-35.7525792,-11.5164558,-11.9748222,106.66759086,1.19748222,-39.35648502
4.93,493,0.057999999999999996,-1.071,0.342,-39.247623,-16.615782,-10.026765,106.27224984,1.34072172,-39.49399494
4.9399999999999995,494,0.05,-1.0659999999999998,0.342,-41.9405256,-19.5378678,-8.3651868,105.84253134,1.4782316400000002,-39.66015276
4.95,495,0.09,-1.074,0.309,-43.77399120000001,-19.308684600000007,-7.2765666,105.3956241,1.6157415599999996,-39.82631058
4.96,496,0.136,-1.056,0.32,-46.5814854,-22.2307704,-6.1879464,104.92006896,1.73606274,-40.02684588
4.97,497,0.165,-1.038,0.317,-47.1544434,-24.064236,-4.9274388,104.43305466,1.84492476,-40.2502995
4.9799999999999995,498,0.207,-1.082,0.321,-44.06047020000001,-28.3041252,-2.9793816000000004,103.98041784,1.9480572000000005,-40.51958976
4.99,499,0.278,-1.11,0.306,-47.784697200000004,-36.1536498,-0.5156622000000001,103.48767396,2.04546006,-40.86909414
5.0,500,0.316,-1.14,0.373,-46.696077,-49.388979600000006,0.0,103.01211882,2.18869956,-41.34464928
5.01,501,0.33,-1.09,0.318,-49.6754586,-61.9367598,1.9480572,102.49072704,2.3204799,-41.95198476
5.02,502,0.304,-1.046,0.34,-48.987909,-70.1300592,-0.7448454000000001,101.97506484,2.4923672999999997,-42.62807520000001
5.03,503,0.20199999999999999,-0.953,0.31,-49.388979600000006,-70.07276340000001,-0.286479,101.44794348,2.64706596,-43.30989522
5.04,504,0.107,-0.9329999999999999,0.336,-44.404245,-70.07276340000001,0.9740286,100.97811792,2.79030546,-43.99171524000001
5.05,505,0.024,-0.946,0.259,-43.544808,-69.2706222,0.6302538000000001,100.51402194,2.92781538,-44.66780568
5.06,506,0.042,-1.0090000000000001,0.17300000000000001,-36.898495200000006,-71.21867940000001,-0.6875496,100.11295134,3.07678446,-45.36681444
5.07,507,0.091,-1.093,0.184,-32.6013102,-75.05749800000002,-2.6929026,99.75198780000001,3.2486718599999995,-46.08874152
5.08,508,0.134,-1.087,0.141,-35.2942128,-80.50059900000002,-4.010706000000001,99.35664678,3.4377480000000005,-46.87369398
5.09,509,0.10400000000000001,-1.078,0.141,-30.252182399999995,-82.39136040000002,-4.3544808,99.01287198,3.63255372,-47.67010560000001
5.1,510,0.006999999999999999,-1.102,0.19399999999999998,-23.491278,-78.4379502,-5.2712136,98.73212256,3.81590028,-48.43213974
5.11,511,-0.09300000000000001,-1.1059999999999999,0.172,-20.3973048,-71.67704579999999,-6.3025379999999975,98.4914802,4.00497642,-49.12541892
5.12,512,-0.168,-1.109,0.133,-16.157415599999997,-61.020027,-5.844171599999999,98.2909449,4.16540466,-49.70983608
5.13,513,-0.17800000000000002,-1.054,0.11699999999999999,-12.1467096,-51.4516284,-4.1825934,98.13624624,4.29145542,-50.20830954
5.14,514,-0.21100000000000002,-1.051,0.069,-3.1512689999999997,-40.8519054,-5.72958,98.08468002,4.41750618,-50.60365056000001
5.1499999999999995,515,-0.138,-1.2570000000000001,0.135,7.1046792000000005,-31.856464799999998,-10.7143146,98.13051665999998,4.56074568,-50.90158872
5.16,516,-0.04,-1.3130000000000002,0.13,0.0,-25.84040580000001,-15.126091199999998,98.11332792,4.749821819999998,-51.13077192
5.17,517,0.027000000000000003,-1.26,0.094,-2.0626488000000003,-24.064236,-16.673077799999998,98.07895044,4.9560867,-51.34276638
5.18,518,0.086,-1.248,0.059000000000000004,-1.2032118,-25.496631,-16.8449652,98.05030254,5.16235158,-51.57194958
5.1899999999999995,519,0.10800000000000001,-1.209,0.069,-4.583664,-26.41336380000001,-16.8449652,97.98154758,5.37434604,-51.80686236
5.2,520,0.098,-1.17,0.085,-5.5576926,-24.9809688,-18.1054728,97.89560387999998,5.5863404999999995,-52.03031598
5.21,521,0.038,-1.16,0.1,-5.042030400000002,-23.7204612,-19.7097552,97.82684892,5.82125328,-52.23658086
5.22,522,-0.036000000000000004,-1.146,0.10400000000000001,-8.5370742,-19.652459399999998,-20.6837838,97.72371648,6.05616606,-52.39700910000001
5.2299999999999995,523,-0.084,-1.112,0.084,-10.828906199999999,-15.6990492,-20.7410796,97.6033953,6.2853492599999985,-52.52878943999999
5.24,524,-0.08900000000000001,-1.073,0.081,-14.32395,-12.6623718,-21.027558600000006,97.44869664,6.5088028799999975,-52.62619229999999
5.25,525,-0.054000000000000006,-1.063,0.111,-15.756345,-10.886202,-19.652459399999998,97.26535008,6.686419860000001,-52.71786558
5.26,526,0.034,-1.055,0.11900000000000001,-18.907614,-8.479778399999999,-17.8762896,97.07054436,6.875496000000001,-52.78089096
5.27,527,0.086,-1.026,0.095,-23.14750320000001,-8.136003599999999,-15.9855282,96.82417242,7.0416538200000005,-52.84391634000001
5.28,528,0.13,-1.015,0.114,-25.668518399999996,-7.734933000000002,-14.438541599999999,96.55488216,7.19635248,-52.90694172
5.29,529,0.126,-0.971,0.102,-29.220858000000003,-8.136003599999999,-12.3758928,96.25121442,7.328132819999999,-52.97569668
5.3,530,0.08900000000000001,-0.9309999999999999,0.12300000000000001,-33.518043,-9.5111028,-9.224623800000002,95.90171004,7.4198061,-53.06736996000001
5.31,531,0.036000000000000004,-0.8859999999999999,0.156,-37.6433406,-8.5370742,-6.417129599999999,95.51209860000002,7.49429064,-53.14758408
5.32,532,0.048,-0.841,0.16,-40.2216516,-3.8388186,-5.5003968,95.09956884,7.551586439999999,-53.18769113999999
5.33,533,0.07200000000000001,-0.816,0.107,-44.0031744,-1.4896908000000002,-5.0993262,94.64693201999998,7.59742308,-53.20487988
5.34,534,0.113,-0.804,0.134,-50.706783,-1.6615782,-4.1825934,94.13126982,7.63753014,-53.22206862
5.35,535,0.141,-0.775,0.086,-56.9520252,-1.2032118,-2.291832,93.55258224,7.66617804,-53.23925736
5.36,536,0.145,-0.735,0.048,-61.020027,-0.8594370000000001,-1.5469866,92.92805802,7.677637200000001,-53.25071652000001
5.37,537,0.168,-0.696,0.024,-63.770225399999994,-1.2605076000000002,-2.1199446,92.28061548,7.6948259399999985,-53.27363484
5.38,538,0.111,-0.6809999999999999,0.07200000000000001,-63.9421128,1.2605076000000002,-4.9274388,91.63317294,7.74066258,-53.26790526
5.39,539,0.005,-0.652,0.083,-62.0513514,6.589017,-8.078707799999998,91.00864872,7.80941754,-53.20487988
5.3999999999999995,540,-0.09,-0.621,0.16699999999999998,-58.44171600000001,11.802934800000001,-9.682990199999999,90.4414203,7.8781725000000025,-53.10174744000001
5.41,541,-0.13,-0.5329999999999999,0.08199999999999999,-59.30115299999999,17.9908812,-8.7662574,89.86273272,7.95265704,-52.92413046
5.42,542,0.004,-0.505,0.12,-55.80610920000001,21.371333399999997,-7.2765666,89.31842262,8.015682420000001,-52.71786558
5.43,543,0.153,-0.5710000000000001,0.087,-51.68081160000001,16.615782,-3.8388186,88.81421958,8.0500599,-52.55743734
5.4399999999999995,544,0.262,-0.634,0.11900000000000001,-48.9306132,10.1986524,-0.1718874,88.33293486,8.044330319999998,-52.46576406000001
5.45,545,0.27899999999999997,-0.71,0.11599999999999999,-45.263682,8.250595200000001,1.2032118,87.90321636,8.06151906,-52.37982036
5.46,546,0.21100000000000002,-0.8079999999999999,0.11699999999999999,-41.9978214,8.4224826,2.2345362,87.48495702,8.03287116,-52.29960624
5.47,547,0.076,-0.8190000000000001,0.114,-41.9978214,12.4331886,4.297185,87.07242726,7.9927641000000005,-52.17928506
5.4799999999999995,548,-0.013999999999999999,-0.7879999999999999,-0.003,-41.825934000000004,17.0741484,6.703608600000001,86.67135666,7.92400914,-52.01312724
5.49,549,0.003,-0.787,0.048,-38.38818600000001,19.8816426,9.0527364,86.30466354,7.838065440000001,-51.81259193999999
5.5,550,0.024,-0.825,0.016,-34.60666320000001,18.793022399999998,11.3445684,85.98380705999998,7.717744259999999,-51.62351579999999
5.51,551,0.051,-0.882,0.03,-30.997027799999998,16.7876694,13.750992000000002,85.69159848,7.58596392,-51.44589881999999
5.52,552,0.047,-0.907,0.005,-30.194886600000004,15.3552744,16.615782,85.40511948000002,7.42553568,-51.28547058
5.53,553,0.057999999999999996,-0.92,0.057,-29.507337,18.6784308,18.334656,85.12437006,7.25364828,-51.09066486
5.54,554,0.077,-0.937,0.003,-30.194886600000004,25.55392680000001,19.767051000000002,84.84935021999998,7.0703017200000025,-50.82137460000001
5.55,555,0.107,-1.018,-0.078,-29.507337,24.1788276,24.064236,84.57433037999998,6.8411185199999975,-50.5635435
5.56,556,0.13699999999999998,-1.036,-0.131,-33.002380800000005,19.365980399999998,30.882436199999997,84.26493306,6.54890994,-50.34581946000001
5.57,557,0.14300000000000002,-1.016,-0.192,-33.74722620000001,12.4331886,36.8411994,83.938347,6.1879464,-50.18539122
5.58,558,0.114,-1.044,-0.221,-32.7731976,4.297185,40.5654264,83.61176094,5.7868758,-50.1051771
5.59,559,0.098,-1.048,-0.187,-32.085648000000006,-3.4377480000000005,41.9405256,83.29090446000002,5.36861646,-50.09371794
5.6,560,0.08199999999999999,-1.078,-0.195,-29.793815999999996,-9.1100322,41.9978214,82.97577756,4.94462754,-50.13955458
5.61,561,0.047,-1.133,-0.159,-29.0489706,-13.8082878,43.3729206,82.67783940000002,4.4977203,-50.23122786
5.62,562,0.013999999999999999,-1.1320000000000001,-0.19,-31.22621100000001,-15.756345,46.7533728,82.35698292000002,4.01643558,-50.32863072
5.63,563,-0.013000000000000001,-1.1059999999999999,-0.23800000000000002,-32.544014399999995,-15.469866,49.61816279999999,82.0189377,3.5122325400000003,-50.420303999999994
5.64,564,-0.021,-1.127,-0.268,-30.7105488,-14.8396122,50.305712400000004,81.70954037999998,2.9965703400000003,-50.50051812
5.6499999999999995,565,0.016,-1.187,-0.282,-28.877083199999998,-13.407217200000002,48.9306132,81.40587264,2.4923672999999997,-50.5635435
5.66,566,0.033,-1.253,-0.309,-27.788463,-12.4904844,45.7793442,81.11939364,2.02827132,-50.62083930000001
5.67,567,0.025,-1.337,-0.35200000000000004,-28.877083199999998,-11.1153852,41.7113424,80.82718506,1.59855282,-50.67240552
5.68,568,0.0,-1.4240000000000002,-0.389,-31.79916900000001,-8.3651868,37.1276784,80.50632858,1.22040054,-50.70105342
5.6899999999999995,569,-0.04,-1.517,-0.434,-31.111619399999995,-4.0680017999999984,32.142943800000005,80.19120168,0.89954406,-50.68959425999999
5.7,570,-0.049,-1.639,-0.483,-30.252182399999995,-2.4064236,26.9863218,79.88180436,0.62452422,-50.67240552
5.71,571,-0.02,-1.7069999999999999,-0.5329999999999999,-41.9405256,-3.5523396000000003,23.319390600000002,79.45781544,0.38961144,-50.67240552
5.72,572,-0.006999999999999999,-1.713,-0.584,-48.529542600000006,-4.0680017999999984,19.652459399999998,78.96507156,0.18334656,-50.67813510000001
5.7299999999999995,573,-0.03,-1.7469999999999999,-0.586,-51.68081160000001,-2.9793816000000004,16.2147114,78.4379502,0.01718874,-50.68386468
5.74,574,-0.045,-1.751,-0.608,-60.7908438,-2.3491277999999998,13.521808800000002,77.82488514,-0.12032118,-50.68386468
5.75,575,-0.059000000000000004,-1.6869999999999998,-0.5589999999999999,-67.895523,-1.6042823999999998,10.943497800000001,77.13160596,-0.23491278,-50.68386468
5.76,576,-0.081,-1.624,-0.552,-72.93755340000001,-1.6615782,8.59437,76.39249013999998,-0.33231564,-50.68386468
5.77,577,-0.146,-1.567,-0.613,-78.1514712,0.286479,6.3598338,75.59607852,-0.4010706000000001,-50.67813510000001
5.78,578,-0.179,-1.5419999999999998,-0.58,-77.80769640000003,5.5576926,3.2658606,74.80539647999998,-0.4297185000000001,-50.62083930000001
5.79,579,-0.172,-1.511,-0.575,-79.4119788,7.333862400000001,1.7761698000000001,73.9975257,-0.43544808,-50.55208434000001
5.8,580,-0.127,-1.466,-0.526,-78.03687959999998,6.875496000000001,2.0053530000000004,73.20111408,-0.44690724,-50.48905896
5.81,581,-0.07400000000000001,-1.415,-0.48200000000000004,-76.48989300000002,5.2139178,2.9220858,72.42762078,-0.46982556,-50.43749274
5.82,582,-0.036000000000000004,-1.3630000000000002,-0.456,-74.2553568,4.9274388,4.2398892,71.67131622000002,-0.5042030399999999,-50.38019694
5.83,583,-0.039,-1.301,-0.44,-72.25000379999999,5.72958,5.2712136,70.93792998,-0.55003968,-50.31717156000001
5.84,584,-0.087,-1.2429999999999999,-0.4,-69.0987348,6.875496000000001,4.6982555999999995,70.23319164,-0.5786875800000001,-50.24268702
5.85,585,-0.145,-1.192,-0.371,-64.3431834,7.6203414,3.6669312000000014,69.58001952,-0.6073354799999999,-50.16820248000001
5.86,586,-0.162,-1.1420000000000001,-0.38,-60.5616606,8.9381448,3.0366774,68.96122488,-0.61879464,-50.0765292
5.87,587,-0.14800000000000002,-1.1059999999999999,-0.379,-53.858052,9.8548776,2.1199446,68.41691478,-0.6073354799999999,-49.97912634000001
5.88,588,-0.122,-1.101,-0.371,-48.2430636,11.2872726,1.432395,67.92417090000001,-0.59014674,-49.87599390000001
5.89,589,-0.078,-1.09,-0.3720000000000001,-44.51883660000001,11.6310474,1.2032118,67.4658045,-0.56722842,-49.76713188
5.8999999999999995,590,-0.046,-1.057,-0.3720000000000001,-39.6486936,10.943497800000001,1.2032118,67.07046348,-0.5443101,-49.66399944
5.91,591,-0.035,-1.02,-0.36,-34.8931422,7.333862400000001,2.0053530000000004,66.71522952000001,-0.5443101,-49.5895149
5.92,592,-0.022000000000000002,-1.002,-0.355,-29.335449600000004,4.297185,4.2398892,66.41729136000001,-0.56722842,-49.53794868000001
5.93,593,-0.024,-0.9640000000000001,-0.35700000000000004,-25.55392680000001,2.7501984,6.3025379999999975,66.15373068,-0.61879464,-49.48638246
5.9399999999999995,594,-0.046,-0.94,-0.395,-18.907614,1.7761698000000001,7.2765666,65.95892496,-0.68182002,-49.44627540000001
5.95,595,-0.065,-0.93,-0.35600000000000004,-12.9488508,1.432395,6.703608600000001,65.86725168000001,-0.7792228800000001,-49.41189792
5.96,596,-0.106,-0.92,-0.311,-7.3911582,0.4583664000000001,5.5576926,65.78703756,-0.8250595199999999,-49.38325002
5.97,597,-0.14400000000000002,-0.93,-0.315,-0.7448454000000001,0.286479,4.2398892,65.78130798,-0.86516658,-49.36606128
5.9799999999999995,598,-0.161,-0.9440000000000001,-0.33799999999999997,3.4377480000000005,0.6302538000000001,3.380452200000001,65.81568546,-0.89381448,-49.34314296
5.99,599,-0.162,-0.946,-0.382,7.734933000000002,0.8021411999999999,2.5210152000000003,65.89589957999999,-0.91100322,-49.32595422
6.0,600,-0.141,-0.965,-0.35100000000000003,16.157415599999997,1.7188740000000002,1.3178034,66.10216446000001,-0.96829902,-49.31449506
6.01,601,-0.107,-0.966,-0.309,20.2827132,3.4377480000000005,0.11459160000000004,66.30842934,-0.95683986,-49.28584716
6.02,602,-0.067,-0.9329999999999999,-0.311,24.522602399999997,5.3858052,0.0,66.55480127999999,-0.93392154,-49.23428094000001
6.03,603,-0.05,-0.9229999999999999,-0.265,30.4813656,6.6463128000000005,0.9740286,66.86419860000001,-0.9167328,-49.16552598
6.04,604,-0.04,-0.927,-0.28,34.7785506,7.3911582,1.3750992,67.21370298,-0.89954406,-49.09104144
6.05,605,-0.047,-0.9109999999999999,-0.316,36.554720399999994,7.5630456000000015,2.0053530000000004,67.58612568,-0.89381448,-49.01082732
6.06,606,-0.069,-0.88,-0.308,41.1383844,5.5576926,2.7501984,68.00438502,-0.89381448,-48.94207236
6.07,607,-0.085,-0.857,-0.281,45.550160999999996,4.6409598,3.5523396000000003,68.46275141999999,-0.91100322,-48.88477656
6.08,608,-0.099,-0.848,-0.292,47.4409224,3.2085647999999996,3.7815228,68.94403614,-0.92819196,-48.83893992
6.09,609,-0.087,-0.8590000000000001,-0.276,51.7954032,2.86479,2.9793816000000004,69.47115749999999,-0.93965112,-48.79310328
6.1,610,-0.086,-0.861,-0.28,55.977996600000004,2.291832,1.8334656000000005,70.03838592,-0.95683986,-48.76445538
6.11,611,-0.055999999999999994,-0.867,-0.263,59.7022236,5.0993262,1.432395,70.63999182,-0.9453807,-48.70715958
6.12,612,-0.016,-0.885,-0.26,63.48374640000001,6.4744254,0.9167328000000001,71.28743435999998,-0.92819196,-48.63840462
6.13,613,0.0,-0.885,-0.23800000000000002,62.738901,5.7868758000000025,1.0886202,71.91768816,-0.9167328,-48.57537924
6.14,614,-0.009000000000000001,-0.88,-0.223,63.59833800000001,3.6096353999999997,2.7501984,72.5651307,-0.92819196,-48.52381301999999
6.15,615,-0.054000000000000006,-0.878,-0.2,62.5670136,0.572958,5.1566220000000005,73.20684365999998,-0.9740286,-48.5008947
6.16,616,-0.098,-0.883,-0.168,59.7595194,-2.3491277999999998,7.9641161999999985,73.81417914,-1.05424272,-48.49516512
6.17,617,-0.141,-0.932,-0.204,56.3217714,-4.4117766,9.7975818,74.38713714000002,-1.15164558,-48.50662428
6.18,618,-0.153,-0.9129999999999999,-0.294,49.847346,-4.1825934,9.1100322,74.89706976,-1.24331886,-48.51808344
6.1899999999999995,619,-0.142,-0.86,-0.29,49.90464179999999,-4.297185,6.0733548,75.4012728,-1.30634424,-48.54100175999999
6.2,620,-0.10400000000000001,-0.784,-0.247,52.139178,-3.380452200000001,0.9740286,75.92266457999997,-1.32926256,-48.56964966
6.21,621,-0.055999999999999994,-0.718,-0.201,53.285093999999994,-1.7188740000000002,-4.0680017999999984,76.46697467999998,-1.2891555,-48.59256798
6.22,622,-0.006,-0.6759999999999999,-0.223,49.9619376,0.5156622000000001,-6.7609043999999985,76.97117771999999,-1.21467096,-48.59829756
6.2299999999999995,623,0.02,-0.621,-0.21,47.8992888,-1.145916,-6.6463128000000005,77.45819202,-1.15164558,-48.62121588000001
6.24,624,0.021,-0.5770000000000001,-0.17,48.70143,-5.1566220000000005,-3.7815228,77.95666548,-1.1172681,-48.67278209999999
6.25,625,0.006999999999999999,-0.521,-0.17,48.529542600000006,-9.6256944,1.2032118,78.4379502,-1.14018642,-48.75872579999999
6.26,626,0.01,-0.451,-0.213,47.784697200000004,-12.9488508,5.7868758000000025,78.93069408,-1.21467096,-48.86758782
6.27,627,0.025,-0.385,-0.185,50.993262,-14.381245800000002,8.250595200000001,79.45208586,-1.31207382,-48.987909
6.28,628,0.023,-0.322,-0.127,56.0352924,-12.9488508,9.6256944,80.02504386000003,-1.4209358399999998,-49.09677102000001
6.29,629,0.019,-0.28300000000000003,-0.136,58.49901179999999,-11.9748222,10.313244000000001,80.62092018,-1.52979786,-49.1884443
6.3,630,-0.012,-0.233,-0.18100000000000002,59.473040399999995,-15.6417534,9.8548776,81.21679650000002,-1.64438946,-49.32595422
6.31,631,-0.035,-0.2,-0.156,61.7075766,-18.048177,7.5630456000000015,81.8470503,-1.73606274,-49.48638246
6.32,632,-0.038,-0.2,-0.12,62.910788399999994,-20.7983754,4.6982555999999995,82.49449283999998,-1.79908812,-49.68118818
6.33,633,-0.039,-0.231,-0.063,65.2026204,-25.8977016,2.5783110000000002,83.17058328,-1.83919518,-49.92756012
6.34,634,-0.019,-0.298,-0.032,63.08267579999999,-28.81978740000001,1.8334656000000005,83.82375540000002,-1.87930224,-50.20257996
6.35,635,-0.011000000000000001,-0.377,-0.094,56.3217714,-29.9084076,1.8907614,84.39671340000002,-1.91367972,-50.48905896
6.36,636,-0.015,-0.451,-0.159,50.6494872,-31.3980984,2.4064236,84.92383476,-1.95378678,-50.7927267
6.37,637,-0.009000000000000001,-0.515,-0.182,47.326330799999994,-31.111619399999995,2.9793816000000004,85.42230822,-1.99389384,-51.09066486
6.38,638,-0.015,-0.555,-0.161,43.315624799999995,-28.7051958,3.4950437999999995,85.87494504,-2.03973048,-51.3656847
6.39,639,-0.013999999999999999,-0.594,-0.12,38.27359439999999,-22.9756158,2.7501984,86.27028606,-2.07410796,-51.58913832
6.4,640,-0.006,-0.66,-0.222,26.1841806,-13.750992000000002,-0.11459160000000004,86.47655094000002,-2.06837838,-51.73237782
6.41,641,-0.005,-0.7090000000000001,-0.419,10.886202,-7.0473834,-4.3544808,86.59114253999998,-2.02827132,-51.80113278
6.42,642,-0.006999999999999999,-0.711,-0.512,11.745639,-9.0527364,-6.589017,86.71719329999998,-1.96524594,-51.89853564
6.43,643,-0.039,-0.782,-0.41,23.2620948,-10.1986524,-6.5317212,86.95783566,-1.90222056,-51.9959385
6.4399999999999995,644,-0.08800000000000001,-0.8490000000000001,-0.304,22.803728399999997,-5.3858052,-4.8128472,87.19274844,-1.85065434,-52.05323430000001
6.45,645,-0.128,-0.889,-0.265,22.9756158,4.6982555999999995,-2.9220858,87.34171752,-1.85638392,-52.01885682000001
6.46,646,-0.134,-0.9129999999999999,-0.22699999999999998,27.903054600000004,15.813640800000002,-1.0313244000000001,87.61673736,-1.83919518,-51.85842858
6.47,647,-0.11199999999999999,-0.976,-0.13,38.5027776,22.91832,0.9167328000000001,88.00061922,-1.84492476,-51.62351579999999
6.4799999999999995,648,-0.09699999999999999,-1.061,-0.035,41.9978214,22.058882999999998,3.2658606,88.41314897999996,-1.87357266,-51.40006218
6.49,649,-0.08199999999999999,-1.145,-0.012,42.5134836,19.595163600000006,5.72958,88.8371379,-1.93086846,-51.19952688
6.5,650,-0.078,-1.21,-0.03,40.10706,15.527161800000002,8.078707799999998,89.23247891999998,-2.01108258,-51.04482822000001
6.51,651,-0.08199999999999999,-1.217,-0.017,36.38283300000001,15.469866,6.875496000000001,89.59344246,-2.07983754,-50.88439998
6.52,652,-0.083,-1.1840000000000002,-0.033,30.4813656,19.194093,3.4377480000000005,89.8971102,-2.11421502,-50.68959425999999
6.53,653,-0.083,-1.1320000000000001,-0.077,25.0382646,21.371333399999997,0.3437748,90.13775256,-2.1199446,-50.47759979999999
6.54,654,-0.076,-1.09,-0.111,20.1108258,20.340009,-1.0886202,90.33255828,-2.11421502,-50.27133492
6.55,655,-0.071,-1.046,-0.127,15.4125702,18.449247600000003,-0.9740286,90.42423156,-2.1199446,-50.09371794
6.56,656,-0.071,-1.003,-0.084,13.3499214,17.0741484,-0.11459160000000004,90.55028232,-2.12567418,-49.92183054
6.57,657,-0.073,-0.971,-0.063,11.5164558,15.9855282,1.3178034,90.66487392,-2.14286292,-49.7614023
6.58,658,-0.057999999999999996,-0.948,-0.063,8.9954406,14.5531332,2.7501984,90.74508804,-2.1772404,-49.61816279999999
6.59,659,-0.052000000000000005,-0.934,-0.062,6.875496000000001,12.2040054,2.5783110000000002,90.80811342,-2.2058883,-49.49784162
6.6,660,-0.057,-0.922,-0.067,6.2452422,8.8235532,1.7188740000000002,90.80238384,-2.24599536,-49.41189792
6.61,661,-0.069,-0.9159999999999999,-0.06,5.3285094000000015,6.990087599999999,1.2605076000000002,90.84822048,-2.25745452,-49.34314296
6.62,662,-0.073,-0.9329999999999999,-0.069,6.2452422,7.333862400000001,1.2605076000000002,90.91124586,-2.2746432600000004,-49.26865842
6.63,663,-0.073,-0.9570000000000001,-0.075,10.7143146,8.193299399999999,1.2032118,91.01437829999999,-2.2918320000000003,-49.1884443
6.64,664,-0.065,-0.988,-0.046,12.5477802,9.167328,1.4896908000000002,91.14042906,-2.30902074,-49.09677102000001
6.65,665,-0.055999999999999994,-0.992,-0.021,12.032118,7.9641161999999985,1.9480572,91.22637276,-2.3376686399999995,-49.0165569
6.66,666,-0.066,-0.995,0.025,13.2353298,7.2765666,2.3491277999999998,91.3581531,-2.36058696,-48.94207236
6.67,667,-0.075,-1.016,0.045,14.5531332,9.568398599999998,2.291832,91.49566302,-2.38923486,-48.8446695
6.68,668,-0.07400000000000001,-1.036,0.043,13.3499214,11.5164558,2.3491277999999998,91.62744336,-2.41788276,-48.73007790000001
6.6899999999999995,669,-0.063,-1.025,0.064,13.0061466,10.313244000000001,2.4064236,91.75349412,-2.44653066,-48.62694546
6.7,670,-0.052000000000000005,-1.008,0.076,12.5477802,8.3651868,2.1199446,91.89100404,-2.47517856,-48.54673134
6.71,671,-0.046,-1.0090000000000001,0.07200000000000001,11.802934800000001,7.2192707999999985,1.7761698000000001,92.00559564,-2.49809688,-48.47224680000001
6.72,672,-0.04,-1.034,0.053,10.2559482,7.5057497999999985,1.8334656000000005,92.10872808,-2.5210152000000003,-48.39776225999999
6.7299999999999995,673,-0.033,-1.042,0.057,7.734933000000002,8.193299399999999,2.2345362,92.18321262,-2.54393352,-48.31754814
6.74,674,-0.043,-1.023,0.055,6.4744254,7.6776372,2.86479,92.24050842,-2.578311,-48.2430636
6.75,675,-0.055,-1.008,0.042,6.990087599999999,7.906820400000001,3.2658606,92.29780422000002,-2.61841806,-48.16284948000001
6.76,676,-0.06,-0.9990000000000001,0.048,7.9641161999999985,7.0473834,3.7815228,92.37228876,-2.6642547000000003,-48.09409452
6.77,677,-0.055999999999999994,-0.995,0.05,8.307891,4.7555514,4.2398892,92.45823246,-2.71009134,-48.04825788
6.78,678,-0.048,-0.986,0.055,7.2765666,2.1199446,4.7555514,92.52698742,-2.75592798,-48.03106913999999
6.79,679,-0.045,-0.975,0.057,6.2452422,0.0,4.8128472,92.59574238000002,-2.80176462,-48.03106913999999
6.8,680,-0.053,-0.972,0.05,4.8701430000000006,-1.0313244000000001,4.2398892,92.62439028,-2.85333084,-48.0425283
6.81,681,-0.064,-0.978,0.057,3.4377480000000005,-2.1199446,3.1512689999999997,92.65876776,-2.88197874,-48.06544662
6.82,682,-0.071,-0.9940000000000001,0.057,1.8907614,-3.4377480000000005,2.3491277999999998,92.68168608,-2.90489706,-48.09982409999999
6.83,683,-0.084,-1.0170000000000001,0.047,0.2291832000000001,-3.5523396000000003,2.1772404,92.68741566,-2.9220857999999996,-48.13993116
6.84,684,-0.096,-1.016,0.04,-0.9167328000000001,-1.6042823999999998,1.7761698000000001,92.68168608,-2.93927454,-48.1571199
6.85,685,-0.115,-1.03,0.036000000000000004,-0.40107059999999994,0.5156622000000001,0.9740286,92.56136490000002,-3.1741873200000006,-48.185767799999994
6.86,686,-0.121,-1.043,0.033,0.3437748,3.0939732,0.6302538000000001,92.56136490000002,-3.18564648,-48.1571199
6.87,687,-0.113,-1.038,0.019,1.5469866,5.2712136,0.4583664000000001,92.57282406,-3.1913760600000005,-48.10555368
6.88,688,-0.099,-1.016,0.017,4.8701430000000006,5.042030400000002,0.057295800000000015,92.62439028,-3.19710564,-48.05398746
6.89,689,-0.091,-1.008,0.035,8.8235532,3.4377480000000005,-0.286479,92.71033398,-3.1913760600000005,-48.01960998
6.9,690,-0.077,-1.002,0.036000000000000004,9.5111028,2.0053530000000004,-0.5156622000000001,92.76762978,-3.20283522,-47.99669166
6.91,691,-0.064,-0.983,0.031,9.7975818,1.3750992,-0.9167328000000001,92.86503264,-3.1913760600000005,-47.97950292
6.92,692,-0.062,-0.95,0.037000000000000005,16.157415599999997,1.4896908000000002,-1.8334656000000005,93.03119046,-3.1741873200000006,-47.96231418000001
6.93,693,-0.06,-0.99,0.061,20.5691922,2.2345362,-2.1199446,93.23745534,-3.1512689999999997,-47.93939586000001
6.9399999999999995,694,-0.051,-1.012,0.065,13.5791046,1.3178034,-1.432395,93.37496526,-3.1398098400000003,-47.92220712
6.95,695,-0.043,-1.02,0.068,10.7716104,0.286479,-1.3178034,93.46090896,-3.1054323600000004,-47.91074796
6.96,696,-0.043,-1.031,0.049,8.9954406,-0.3437748,-1.5469866,93.55258224,-3.08824362,-47.91647754
6.97,697,-0.051,-1.046,0.036000000000000004,7.5057497999999985,-1.2032118,-2.4637194,93.63279636,-3.0653253000000005,-47.92220712
6.9799999999999995,698,-0.061,-1.058,0.017,4.9274388,-1.4896908000000002,-3.6096353999999997,93.68436258,-3.02521824,-47.93366628
6.99,699,-0.065,-1.061,0.001,3.3231564,-1.6042823999999998,-4.2398892,93.71874006,-2.9793816000000004,-47.95085502
7.0,700,-0.068,-1.057,-0.006,2.1199446,-2.0053530000000004,-4.3544808,93.6213372,-2.9507337000000002,-47.96804376
7.01,701,-0.075,-1.051,-0.018000000000000002,0.6302538000000001,-2.5210152000000003,-4.1252976000000015,93.63279636,-2.90489706,-47.99096208
7.02,702,-0.078,-1.03,-0.023,-0.6302538000000001,-2.2345362,-3.8388186,93.62706678,-2.86479,-48.00815082
7.03,703,-0.07400000000000001,-1.001,-0.021,-0.3437748,-2.4064236,-3.8388186,93.6213372,-2.82468294,-48.03106913999999
7.04,704,-0.064,-0.986,-0.006999999999999999,0.286479,-2.6356068,-3.8388186,93.62706678,-2.78457588,-48.05398746
7.05,705,-0.051,-0.9740000000000001,0.0,0.7448454000000001,-2.6356068,-3.9534102,93.52966392,-2.73873924,-48.07690578
7.06,706,-0.051,-0.9640000000000001,0.012,3.5523396000000003,-2.291832,-3.2658606,93.56404139999998,-2.70436176,-48.09409452
7.07,707,-0.061,-0.981,0.021,4.0680017999999984,-2.86479,-2.7501984,93.60987804,-2.67571386,-48.12274242
7.08,708,-0.078,-1.013,0.026000000000000002,2.86479,-3.2085647999999996,-2.1199446,93.63852594,-2.65279554,-48.15139032
7.09,709,-0.094,-1.033,0.042,-0.9167328000000001,-3.2658606,-1.3178034,93.63279636,-2.6356068,-48.185767799999994
7.1,710,-0.102,-1.046,0.045,-3.8388186,-2.1772404,-0.8021411999999999,93.54112308,-2.6929026,-48.2144157
7.11,711,-0.109,-1.05,0.03,-6.417129599999999,-0.11459160000000004,-0.5156622000000001,93.47236812,-2.68717302,-48.22014528
7.12,712,-0.11699999999999999,-1.043,0.011000000000000001,-6.9327918,2.5210152000000003,-0.9167328000000001,93.39788358,-2.68144344,-48.19149738
7.13,713,-0.113,-1.03,0.009000000000000001,-6.589017,5.1566220000000005,-1.4896908000000002,93.32912862,-2.6699842800000004,-48.13993116
7.14,714,-0.10099999999999999,-1.01,0.022000000000000002,-6.589017,6.8182002000000015,-1.8334656000000005,93.26037366,-2.65852512,-48.07690578
7.15,715,-0.09,-0.99,0.025,-7.2192707999999985,7.734933000000002,-1.8334656000000005,93.14578206000002,-2.6699842800000004,-48.00242124
7.16,716,-0.083,-0.9790000000000001,0.012,-8.078707799999998,7.161975,-1.432395,93.05983836,-2.6642547000000003,-47.93366628
7.17,717,-0.085,-0.975,0.005,-7.5630456000000015,6.0160589999999985,-1.0313244000000001,92.97962424,-2.65852512,-47.8706409
7.18,718,-0.09,-0.973,0.01,-6.589017,6.3025379999999975,-0.6875496,92.9051397,-2.65852512,-47.80761552
7.1899999999999995,719,-0.095,-0.9790000000000001,0.015,-5.3285094000000015,7.1046792000000005,-0.40107059999999994,92.8478439,-2.65852512,-47.738860560000006
7.2,720,-0.098,-0.985,0.018000000000000002,-4.1825934,8.136003599999999,-0.11459160000000004,92.75617062,-2.71009134,-47.66437602000001
7.21,721,-0.096,-0.99,0.024,-2.8074942000000003,9.224623800000002,0.0,92.72179314,-2.71582092,-47.57843232000001
7.22,722,-0.085,-1.002,0.021,-2.6356068,9.568398599999998,0.286479,92.69314524,-2.72728008,-47.48102946
7.2299999999999995,723,-0.078,-1.002,0.017,-2.5783110000000002,8.9954406,0.572958,92.65876776,-2.73873924,-47.39508576
7.24,724,-0.07200000000000001,-0.9990000000000001,0.013999999999999999,-1.8907614,8.4224826,0.6875496,92.63584944,-2.7501984,-47.30914206
7.25,725,-0.07400000000000001,-0.9940000000000001,0.019,-0.9167328000000001,8.193299399999999,0.572958,92.56709448,-2.79030546,-47.23465752
7.26,726,-0.073,-0.995,0.025,-0.1718874,7.734933000000002,0.40107059999999994,92.56136490000002,-2.80176462,-47.15444340000001
7.27,727,-0.066,-1.0,0.025,0.0,7.2765666,0.286479,92.55563532,-2.8074942000000003,-47.08568844
7.28,728,-0.06,-1.003,0.024,-0.1718874,6.703608600000001,0.286479,92.54990574,-2.81895336,-47.01693347999999
7.29,729,-0.057999999999999996,-1.0070000000000001,0.022000000000000002,-0.1718874,6.130650599999999,0.286479,92.54417616,-2.82468294,-46.95963768
7.3,730,-0.06,-1.01,0.009000000000000001,-0.286479,4.9847346,0.572958,92.41239582,-2.84760126,-46.90807146
7.31,731,-0.06,-1.004,0.005,0.11459160000000004,3.2085647999999996,0.7448454000000001,92.41239582,-2.85906042,-46.87369398
7.32,732,-0.062,-0.997,0.011000000000000001,0.8594370000000001,1.145916,0.9167328000000001,92.42385498,-2.86479,-46.8679644
7.33,733,-0.065,-0.991,0.006,2.1772404,-1.0886202,0.7448454000000001,92.4467733,-2.87051958,-46.87369398
7.34,734,-0.067,-0.99,0.008,3.5523396000000003,-2.7501984,0.572958,92.48115077999998,-2.87624916,-46.90234188
7.35,735,-0.07400000000000001,-0.985,0.011000000000000001,4.1252976000000015,-3.7242269999999995,0.3437748,92.46396204,-2.91062664,-46.94244894
7.36,736,-0.081,-0.981,0.015,4.583664,-3.8388186,-0.11459160000000004,92.50979868,-2.90489706,-46.982556
7.37,737,-0.084,-0.978,0.02,5.1566220000000005,-3.5523396000000003,-0.6875496,92.56709448,-2.8934379,-47.01693347999999
7.38,738,-0.083,-0.986,0.031,5.958763200000001,-2.7501984,-1.3178034,92.63011986,-2.87624916,-47.0398518
7.39,739,-0.078,-1.0070000000000001,0.036000000000000004,5.6149884000000005,-1.8907614,-1.2605076000000002,92.68741566,-2.86479,-47.06277012
7.4,740,-0.073,-1.028,0.027000000000000003,3.8961144,-1.6615782,-0.572958,92.64157902,-2.88770832,-47.07995886000001
7.41,741,-0.073,-1.032,0.023,3.2085647999999996,-2.1199446,0.5156622000000001,92.6759565,-2.8934379,-47.10287718
7.42,742,-0.075,-1.026,0.024,3.4950437999999995,-2.6929026,1.6615782,92.71033398,-2.90489706,-47.1257955
7.43,743,-0.079,-1.016,0.03,3.9534102,-2.5783110000000002,2.5210152000000003,92.75617062,-2.92781538,-47.15444340000001
7.4399999999999995,744,-0.084,-1.012,0.033,3.6096353999999997,-1.9480572,2.86479,92.7905481,-2.9564632800000004,-47.17163214
7.45,745,-0.08800000000000001,-1.01,0.032,2.8074942000000003,-1.6615782,2.8074942000000003,92.75044104,-3.0366774000000003,-47.20028004
7.46,746,-0.092,-1.016,0.023,1.6615782,-1.7188740000000002,2.291832,92.77335936,-3.05959572,-47.21746878
7.47,747,-0.095,-1.015,0.016,0.6875496,-1.8907614,1.7188740000000002,92.77908894,-3.07678446,-47.24038710000001
7.4799999999999995,748,-0.099,-1.013,0.013999999999999999,0.057295800000000015,-1.9480572,1.0886202,92.78481852,-3.0825140400000004,-47.25757584
7.49,749,-0.10300000000000001,-1.01,0.009000000000000001,-0.1718874,-1.2032118,0.3437748,92.77908894,-3.08824362,-47.269034999999995
7.5,750,-0.10400000000000001,-1.013,0.005,-0.5156622000000001,-0.40107059999999994,-0.057295800000000015,92.14883514,-3.50650296,-47.33778996
7.51,751,-0.10300000000000001,-1.012,0.001,-0.6302538000000001,0.0,-0.40107059999999994,92.14310556,-3.50077338,-47.33778996
7.52,752,-0.10099999999999999,-1.01,0.006,-0.057295800000000015,0.40107059999999994,-0.3437748,92.13737598,-3.50077338,-47.33206038
7.53,753,-0.095,-1.011,0.01,0.0,0.8021411999999999,-0.057295800000000015,92.13737598,-3.50077338,-47.32060122
7.54,754,-0.09,-1.0070000000000001,0.019,0.0,0.8021411999999999,0.286479,92.13737598,-3.50077338,-47.31487163999999
7.55,755,-0.08800000000000001,-1.001,0.027000000000000003,-0.286479,0.5156622000000001,0.5156622000000001,91.94257026,-3.64974246,-47.326330799999994
7.56,756,-0.08800000000000001,-1.001,0.031,-0.5156622000000001,0.057295800000000015,0.572958,91.94257026,-3.65547204,-47.326330799999994
7.57,757,-0.084,-1.0070000000000001,0.027999999999999997,-1.2032118,-0.572958,0.5156622000000001,91.92538152,-3.66120162,-47.33206038
7.58,758,-0.086,-1.011,0.022000000000000002,-1.7188740000000002,-1.432395,0.5156622000000001,91.90819278,-3.666931200000001,-47.34924912
7.59,759,-0.08800000000000001,-1.008,0.025,-1.5469866,-1.9480572,0.6302538000000001,91.89673362,-3.67266078,-47.36643786
7.6,760,-0.09300000000000001,-1.0070000000000001,0.027999999999999997,-1.6042823999999998,-1.7761698000000001,0.572958,91.8165195,-3.73568616,-47.39508576
7.61,761,-0.094,-1.008,0.028999999999999998,-1.7761698000000001,-0.8594370000000001,0.572958,91.79933076,-3.74141574,-47.40654492
7.62,762,-0.09300000000000001,-1.006,0.027999999999999997,-2.1772404,-0.6875496,0.5156622000000001,91.78214202,-3.74714532,-47.4122745
7.63,763,-0.08800000000000001,-1.006,0.023,-2.3491277999999998,-1.6042823999999998,0.4583664000000001,91.7592237,-3.752874900000001,-47.42946324
7.64,764,-0.086,-1.0070000000000001,0.021,-2.5783110000000002,-2.6356068,0.40107059999999994,91.7305758,-3.75860448,-47.45811113999999
