TimeStamp(s),FrameCounter,AccX,AccY,AccZ,GyrX,GyrY,GyrZ,EulerX,EulerY,EulerZ
0.01,1,0.019,-0.978,0.27899999999999997,0.8594370000000001,0.286479,-0.572958,94.12554024,1.00840608,-16.94236806
0.02,2,0.016,-0.975,0.27899999999999997,0.7448454000000001,0.286479,-0.7448454000000001,94.13126982,1.01986524,-16.93663848
0.03,3,0.012,-0.973,0.281,0.7448454000000001,0.5156622000000001,-0.9167328000000001,94.14272898,1.0255948199999998,-16.9309089
0.04,4,0.01,-0.97,0.281,0.6302538000000001,0.6875496,-0.8594370000000001,94.14845856,1.03705398,-16.92517932
0.05,5,0.011000000000000001,-0.97,0.28,0.7448454000000001,0.8594370000000001,-0.8021411999999999,94.44066714,1.05424272,-16.9309089
0.060000000000000005,6,0.013000000000000001,-0.9690000000000001,0.28,0.7448454000000001,1.145916,-0.6875496,94.45212629999999,1.0599723,-16.919449739999994
0.06999999999999999,7,0.016,-0.9690000000000001,0.281,0.6875496,1.2032118,-0.6302538000000001,94.45785588,1.06570188,-16.90799058
0.08,8,0.02,-0.968,0.28,0.8021411999999999,1.145916,-0.4583664000000001,94.46931504,1.07143146,-16.89653142
0.09,9,0.023,-0.968,0.281,0.8594370000000001,0.9740286,-0.3437748,94.47504462,1.07143146,-16.88507226
0.09999999999999999,10,0.024,-0.968,0.282,0.8594370000000001,0.8021411999999999,-0.4583664000000001,94.80736026,1.12299768,-16.90799058
0.11,11,0.025,-0.9670000000000001,0.282,0.9740286,0.6875496,-0.40107059999999994,94.81881942,1.12872726,-16.902261000000006
0.12,12,0.024,-0.9690000000000001,0.28300000000000003,1.145916,0.6302538000000001,-0.4583664000000001,94.83027858,1.12872726,-16.89080184
0.13,13,0.024,-0.968,0.28300000000000003,1.2032118,0.3437748,-0.5156622000000001,94.84173774,1.13445684,-16.89080184
0.14,14,0.023,-0.9690000000000001,0.284,1.2605076000000002,0.3437748,-0.5156622000000001,94.85892648,1.14018642,-16.88507226
0.15000000000000002,15,0.021,-0.968,0.284,1.3178034,0.1718874,-0.5156622000000001,95.18551254,1.18029348,-16.90799058
0.16,16,0.02,-0.9690000000000001,0.284,1.3750992,0.057295800000000015,-0.6302538000000001,95.1969717,1.18602306,-16.902261000000006
0.17,17,0.02,-0.9670000000000001,0.28600000000000003,1.3750992,0.1718874,-0.6875496,95.21416044,1.19175264,-16.902261000000006
0.18000000000000002,18,0.02,-0.9690000000000001,0.285,1.432395,0.2291832000000001,-0.8021411999999999,95.23134918,1.19748222,-16.89653142
0.19,19,0.021,-0.971,0.28600000000000003,1.432395,0.286479,-0.8021411999999999,95.24280834,1.20894138,-16.89653142
0.2,20,0.022000000000000002,-0.972,0.28800000000000003,1.432395,0.286479,-0.8021411999999999,95.52355776,1.23758928,-16.90799058
0.21000000000000002,21,0.022000000000000002,-0.973,0.287,1.3750992,0.1718874,-0.6875496,95.5407465,1.24331886,-16.90799058
0.22,22,0.021,-0.973,0.28600000000000003,1.3178034,0.0,-0.4583664000000001,95.55220566,1.24904844,-16.902261000000006
0.23,23,0.022000000000000002,-0.973,0.285,1.2605076000000002,-0.1718874,-0.2291832000000001,95.56939440000001,1.25477802,-16.90799058
0.24000000000000002,24,0.022000000000000002,-0.972,0.284,1.3178034,-0.4583664000000001,-0.057295800000000015,95.58085356,1.25477802,-16.90799058
0.25,25,0.023,-0.972,0.284,1.145916,-0.572958,-0.057295800000000015,95.94754668,1.29488508,-16.94236806
0.26,26,0.023,-0.971,0.285,1.0886202,-0.7448454000000001,-0.11459160000000004,95.95900584,1.30061466,-16.94809764
0.27,27,0.021,-0.972,0.285,1.145916,-0.7448454000000001,-0.1718874,95.970465,1.30061466,-16.959556799999998
0.28,28,0.019,-0.972,0.285,1.145916,-0.6875496,-0.286479,95.98192416,1.30634424,-16.96528638
0.29000000000000004,29,0.017,-0.972,0.28600000000000003,1.0886202,-0.6302538000000001,-0.40107059999999994,95.99338332,1.31207382,-16.97101596
0.3,30,0.016,-0.971,0.287,1.0313244000000001,-0.5156622000000001,-0.3437748,96.32569896,1.32926256,-16.9882047
0.31,31,0.016,-0.97,0.287,1.0886202,-0.6875496,-0.2291832000000001,96.33715812,1.32926256,-16.99393428
0.32,32,0.018000000000000002,-0.9690000000000001,0.287,0.9740286,-0.5156622000000001,-0.1718874,96.34861728,1.3349921400000002,-16.999663860000002
0.33,33,0.022000000000000002,-0.9670000000000001,0.287,0.9740286,-0.286479,0.0,96.36007644,1.3349921400000002,-16.999663860000002
0.34,34,0.022000000000000002,-0.968,0.285,1.0313244000000001,-0.286479,-0.057295800000000015,96.37153559999999,1.3349921400000002,-17.00539344
0.35000000000000003,35,0.022000000000000002,-0.97,0.287,1.0886202,-0.4583664000000001,-0.057295800000000015,96.76114704,1.36936962,-17.034041339999998
0.36000000000000004,36,0.021,-0.972,0.287,1.0313244000000001,-0.6302538000000001,-0.11459160000000004,96.76687662,1.36936962,-17.039770920000002
0.37,37,0.017,-0.972,0.28800000000000003,0.8594370000000001,-0.7448454000000001,-0.2291832000000001,96.77833578,1.3750992,-17.0455005
0.38,38,0.016,-0.9690000000000001,0.287,0.7448454000000001,-0.40107059999999994,-0.40107059999999994,96.78406536,1.38082878,-17.05123008
0.39,39,0.018000000000000002,-0.9640000000000001,0.285,0.8594370000000001,-0.1718874,-0.3437748,96.79552452,1.38655836,-17.05123008
0.4,40,0.019,-0.965,0.28600000000000003,1.0313244000000001,-0.2291832000000001,-0.3437748,97.11065142,1.39801752,-17.06268924
0.41000000000000003,41,0.018000000000000002,-0.9690000000000001,0.289,0.9167328000000001,-0.40107059999999994,-0.40107059999999994,97.12211058,1.4037471000000001,-17.068418819999998
0.42000000000000004,42,0.016,-0.97,0.29,1.0886202,-0.572958,-0.4583664000000001,97.13356974,1.40947668,-17.0741484
0.43,43,0.017,-0.973,0.287,0.9740286,-0.40107059999999994,-0.572958,97.13929932,1.41520626,-17.0741484
0.44,44,0.016,-0.973,0.28800000000000003,0.9740286,0.0,-0.6302538000000001,97.15075848,1.4209358399999998,-17.0741484
0.45,45,0.013999999999999999,-0.971,0.29,1.0313244000000001,0.286479,-0.5156622000000001,97.4601558,1.42666542,-17.0741484
0.46,46,0.017,-0.9690000000000001,0.29100000000000004,1.0886202,0.572958,-0.572958,97.47161496,1.432395,-17.068418819999998
0.47000000000000003,47,0.021,-0.9690000000000001,0.29,1.0313244000000001,0.7448454000000001,-0.572958,97.48307412,1.43812458,-17.056959659999997
0.48000000000000004,48,0.024,-0.9690000000000001,0.289,1.145916,0.6875496,-0.4583664000000001,97.49453327999998,1.43812458,-17.05123008
0.49,49,0.026000000000000002,-0.971,0.289,1.2032118,0.6302538000000001,-0.4583664000000001,97.50599244,1.44385416,-17.0455005
0.5,50,0.027000000000000003,-0.97,0.289,1.145916,0.3437748,-0.40107059999999994,97.8039306,1.4782316400000002,-17.056959659999997
0.51,51,0.026000000000000002,-0.97,0.28800000000000003,1.0886202,0.1718874,-0.2291832000000001,97.81538976,1.4782316400000002,-17.056959659999997
0.52,52,0.026000000000000002,-0.971,0.28600000000000003,1.0313244000000001,0.0,-0.1718874,97.82684892,1.48396122,-17.056959659999997
0.53,53,0.024,-0.97,0.28600000000000003,0.9740286,-0.1718874,-0.286479,97.83830808,1.48396122,-17.056959659999997
0.54,54,0.024,-0.971,0.28600000000000003,0.8594370000000001,-0.2291832000000001,-0.40107059999999994,97.84403766,1.4896908000000002,-17.056959659999997
0.55,55,0.023,-0.97,0.28600000000000003,0.8594370000000001,-0.3437748,-0.5156622000000001,98.1190575,1.50687954,-17.068418819999998
0.56,56,0.021,-0.9690000000000001,0.285,0.8594370000000001,-0.2291832000000001,-0.5156622000000001,98.12478708,1.51260912,-17.0741484
0.5700000000000001,57,0.023,-0.9670000000000001,0.285,0.8594370000000001,-0.3437748,-0.6875496,98.13624624,1.52406828,-17.0741484
0.5800000000000001,58,0.022000000000000002,-0.966,0.28600000000000003,0.8594370000000001,-0.3437748,-0.7448454000000001,98.14197582,1.52979786,-17.07987798
0.59,59,0.021,-0.9670000000000001,0.28600000000000003,0.7448454000000001,-0.2291832000000001,-0.8021411999999999,98.15343498,1.5412570200000002,-17.07987798
0.6,60,0.019,-0.9670000000000001,0.287,0.6875496,-0.057295800000000015,-0.8594370000000001,98.41126608,1.5469866,-17.07987798
0.61,61,0.017,-0.966,0.287,0.6875496,0.1718874,-0.9167328000000001,98.42272524,1.55844576,-17.07987798
0.62,62,0.016,-0.9670000000000001,0.28800000000000003,0.7448454000000001,0.1718874,-0.9167328000000001,98.42845481999998,1.56417534,-17.0741484
0.63,63,0.017,-0.968,0.289,0.8594370000000001,0.2291832000000001,-0.8594370000000001,98.43991398,1.5756344999999998,-17.068418819999998
0.64,64,0.018000000000000002,-0.97,0.289,0.8021411999999999,0.286479,-0.8021411999999999,98.44564356,1.5813640800000002,-17.068418819999998
0.65,65,0.018000000000000002,-0.971,0.29,0.8594370000000001,0.1718874,-0.8594370000000001,98.69774508,1.5870936600000003,-17.068418819999998
0.66,66,0.02,-0.972,0.29100000000000004,0.6875496,0.057295800000000015,-0.8594370000000001,98.70347466,1.59855282,-17.06268924
0.67,67,0.019,-0.972,0.292,0.5156622000000001,-0.057295800000000015,-1.0313244000000001,98.70920424,1.61001198,-17.06268924
0.68,68,0.02,-0.971,0.29100000000000004,0.40107059999999994,-0.286479,-1.145916,98.71493382,1.62147114,-17.06268924
0.6900000000000001,69,0.02,-0.973,0.29,0.3437748,-0.3437748,-1.2605076000000002,98.7206634,1.6329303,-17.068418819999998
0.7000000000000001,70,0.021,-0.972,0.29,0.286479,-0.2291832000000001,-1.3178034,98.93838744,1.65011904,-17.068418819999998
0.7100000000000001,71,0.021,-0.971,0.29,0.2291832000000001,-0.11459160000000004,-1.3178034,98.93838744,1.6615782,-17.068418819999998
0.72,72,0.021,-0.972,0.29100000000000004,-0.057295800000000015,0.11459160000000004,-1.145916,98.93838744,1.67303736,-17.06268924
0.73,73,0.019,-0.972,0.29100000000000004,-0.7448454000000001,0.11459160000000004,-0.7448454000000001,98.93265786,1.6844965200000002,-17.06268924
0.74,74,0.019,-0.973,0.289,-0.8594370000000001,0.4583664000000001,-0.9740286,98.9211987,1.6902260999999998,-17.056959659999997
0.75,75,0.02,-0.973,0.28800000000000003,-0.9167328000000001,0.572958,-1.2032118,99.07016778,1.70168526,-17.05123008
0.76,76,0.021,-0.971,0.28600000000000003,-1.0886202,0.6302538000000001,-1.3750992,99.05870862,1.71314442,-17.039770920000002
0.77,77,0.023,-0.9690000000000001,0.287,-1.0313244000000001,0.572958,-1.3178034,99.04724946,1.7246035799999997,-17.034041339999998
0.78,78,0.025,-0.9690000000000001,0.287,-0.9740286,0.5156622000000001,-1.145916,99.03579029999999,1.73606274,-17.02831176
0.79,79,0.027000000000000003,-0.9690000000000001,0.28800000000000003,-0.8594370000000001,0.40107059999999994,-0.9740286,99.03006072,1.7475218999999995,-17.02258218
0.8,80,0.027999999999999997,-0.9690000000000001,0.28800000000000003,-0.8594370000000001,0.2291832000000001,-0.6302538000000001,99.28789182,1.77044022,-17.02831176
0.81,81,0.027999999999999997,-0.968,0.289,-0.6875496,0.11459160000000004,-0.5156622000000001,99.28216224,1.7761698000000001,-17.02258218
0.8200000000000001,82,0.027999999999999997,-0.9670000000000001,0.29,-0.572958,0.0,-0.3437748,99.27643266,1.78189938,-17.02258218
0.8300000000000001,83,0.027000000000000003,-0.966,0.29,-0.5156622000000001,0.0,-0.1718874,99.27070308,1.78189938,-17.02258218
0.8400000000000001,84,0.026000000000000002,-0.9690000000000001,0.29,-0.4583664000000001,-0.1718874,-0.1718874,99.2649735,1.78189938,-17.02831176
0.85,85,0.024,-0.9690000000000001,0.289,-0.40107059999999994,-0.057295800000000015,-0.1718874,100.00408932,1.79908812,-17.034041339999998
0.86,86,0.025,-0.971,0.28800000000000003,-0.40107059999999994,0.11459160000000004,-0.2291832000000001,99.99835974,1.8048177,-17.034041339999998
0.87,87,0.023,-0.9690000000000001,0.289,-0.40107059999999994,0.3437748,-0.286479,99.99263016,1.8048177,-17.02831176
0.88,88,0.023,-0.9690000000000001,0.289,-0.40107059999999994,0.3437748,-0.2291832000000001,99.98690058,1.8048177,-17.02831176
0.89,89,0.024,-0.9690000000000001,0.28800000000000003,-0.3437748,0.6302538000000001,-0.2291832000000001,99.98690058,1.81054728,-17.0168526
0.9,90,0.026000000000000002,-0.968,0.287,-0.40107059999999994,0.6302538000000001,-0.1718874,100.28483874,1.81627686,-17.0168526
0.91,91,0.027000000000000003,-0.9690000000000001,0.287,-0.40107059999999994,0.4583664000000001,-0.11459160000000004,100.27910916,1.82200644,-17.01112302
0.92,92,0.028999999999999998,-0.968,0.287,-0.3437748,0.5156622000000001,-0.1718874,100.27337958,1.82200644,-17.00539344
0.93,93,0.03,-0.97,0.28600000000000003,-0.3437748,0.286479,-0.057295800000000015,100.27337958,1.82200644,-17.00539344
0.9400000000000001,94,0.03,-0.971,0.287,-0.4583664000000001,0.1718874,-0.1718874,100.26765,1.82200644,-16.999663860000002
0.9500000000000001,95,0.03,-0.971,0.28800000000000003,-0.572958,0.1718874,-0.2291832000000001,100.58277690000001,1.85065434,-17.01112302
0.9600000000000001,96,0.03,-0.971,0.28800000000000003,-0.286479,-0.11459160000000004,0.0,100.57704732,1.85065434,-17.01112302
0.97,97,0.032,-0.972,0.287,0.0,-0.286479,0.1718874,100.57704732,1.85065434,-17.0168526
0.98,98,0.035,-0.972,0.287,0.0,-0.2291832000000001,0.286479,100.57704732,1.84492476,-17.0168526
0.99,99,0.036000000000000004,-0.972,0.285,0.11459160000000004,-0.40107059999999994,0.3437748,100.57704732,1.84492476,-17.02258218
1.0,100,0.035,-0.971,0.28600000000000003,0.1718874,-0.286479,0.4583664000000001,100.83487842,1.87930224,-17.0455005
1.01,101,0.03,-0.973,0.28600000000000003,0.1718874,-0.3437748,0.5156622000000001,100.84060799999999,1.87357266,-17.0455005
1.02,102,0.025,-0.972,0.285,0.11459160000000004,-0.3437748,0.572958,100.84060799999999,1.86784308,-17.05123008
1.03,103,0.024,-0.972,0.28600000000000003,-0.057295800000000015,-0.2291832000000001,0.5156622000000001,100.84060799999999,1.8621134999999998,-17.056959659999997
1.04,104,0.025,-0.97,0.28600000000000003,-0.11459160000000004,0.0,0.572958,100.84060799999999,1.85638392,-17.056959659999997
1.05,105,0.027999999999999997,-0.9690000000000001,0.285,-0.057295800000000015,0.3437748,0.6302538000000001,101.08125036,1.87357266,-17.06268924
1.06,106,0.031,-0.968,0.28300000000000003,-0.057295800000000015,0.572958,0.6302538000000001,101.08125036,1.8621134999999998,-17.056959659999997
1.07,107,0.032,-0.9690000000000001,0.28600000000000003,0.0,0.4583664000000001,0.572958,101.08125036,1.85638392,-17.056959659999997
1.08,108,0.032,-0.972,0.287,0.057295800000000015,-0.057295800000000015,0.572958,101.08125036,1.85065434,-17.056959659999997
1.09,109,0.035,-0.9740000000000001,0.289,0.0,-0.3437748,0.5156622000000001,101.08125036,1.84492476,-17.06268924
1.1,110,0.037000000000000005,-0.975,0.289,-0.11459160000000004,-0.3437748,0.3437748,101.43075474,1.90795014,-17.09133714
1.11,111,0.035,-0.9740000000000001,0.28800000000000003,-0.1718874,-0.40107059999999994,0.3437748,101.43075474,1.90222056,-17.09706672
1.12,112,0.031,-0.972,0.289,-0.1718874,-0.5156622000000001,0.40107059999999994,101.42502516,1.90222056,-17.1027963
1.1300000000000001,113,0.03,-0.9690000000000001,0.289,-0.3437748,-0.286479,0.4583664000000001,101.42502516,1.89649098,-17.108525880000002
1.1400000000000001,114,0.03,-0.966,0.28800000000000003,-0.286479,-0.286479,0.6302538000000001,101.41929558,1.8907614,-17.108525880000002
1.1500000000000001,115,0.03,-0.9640000000000001,0.28800000000000003,-0.11459160000000004,-0.3437748,0.7448454000000001,101.6141013,1.90222056,-17.11998504
1.1600000000000001,116,0.03,-0.963,0.287,0.0,-0.2291832000000001,0.7448454000000001,101.6141013,1.89649098,-17.12571462
1.17,117,0.031,-0.9640000000000001,0.28600000000000003,0.11459160000000004,-0.057295800000000015,0.4583664000000001,101.61983088,1.8907614,-17.12571462
1.18,118,0.03,-0.965,0.285,0.2291832000000001,0.057295800000000015,0.4583664000000001,101.61983088,1.88503182,-17.12571462
1.19,119,0.03,-0.966,0.284,0.286479,0.057295800000000015,0.5156622000000001,101.62556046,1.87930224,-17.12571462
1.2,120,0.033,-0.9670000000000001,0.28300000000000003,0.40107059999999994,0.11459160000000004,0.5156622000000001,101.7859887,1.89649098,-17.13717378
1.21,121,0.034,-0.9690000000000001,0.282,0.40107059999999994,0.057295800000000015,0.6302538000000001,101.79171827999998,1.8907614,-17.13717378
1.22,122,0.036000000000000004,-0.971,0.282,0.4583664000000001,0.1718874,0.7448454000000001,101.79744786,1.87930224,-17.13717378
1.23,123,0.034,-0.971,0.284,0.40107059999999994,-0.057295800000000015,0.8594370000000001,101.80317744,1.87357266,-17.13717378
1.24,124,0.031,-0.97,0.284,0.2291832000000001,-0.286479,0.9167328000000001,101.80317744,1.8621134999999998,-17.14290336
1.25,125,0.025,-0.9690000000000001,0.28600000000000003,0.057295800000000015,-0.40107059999999994,0.8021411999999999,101.96933526,1.85065434,-17.14863294
1.26,126,0.022000000000000002,-0.97,0.285,0.0,-0.40107059999999994,0.6875496,101.96360568,1.84492476,-17.15436252
1.27,127,0.02,-0.97,0.28600000000000003,0.057295800000000015,-0.2291832000000001,0.40107059999999994,101.96933526,1.84492476,-17.15436252
1.28,128,0.019,-0.972,0.28600000000000003,0.057295800000000015,-0.057295800000000015,0.286479,101.96933526,1.83919518,-17.1600921
1.29,129,0.023,-0.973,0.28600000000000003,0.11459160000000004,0.057295800000000015,0.3437748,101.96933526,1.83919518,-17.1600921
1.3,130,0.027000000000000003,-0.973,0.287,0.1718874,0.057295800000000015,0.286479,102.23862552,1.85065434,-17.1600921
1.31,131,0.03,-0.973,0.287,0.1718874,0.057295800000000015,0.286479,102.2443551,1.84492476,-17.1600921
1.32,132,0.031,-0.9740000000000001,0.287,0.1718874,0.2291832000000001,0.2291832000000001,102.2443551,1.84492476,-17.1600921
1.33,133,0.032,-0.973,0.28600000000000003,0.11459160000000004,0.0,0.2291832000000001,102.2443551,1.83919518,-17.1600921
1.34,134,0.03,-0.972,0.28600000000000003,0.11459160000000004,-0.057295800000000015,0.286479,102.25008468,1.83919518,-17.1600921
1.35,135,0.027999999999999997,-0.972,0.28600000000000003,0.057295800000000015,-0.1718874,0.3437748,102.41624250000001,1.83919518,-17.16582168
1.36,136,0.027999999999999997,-0.972,0.284,0.057295800000000015,-0.3437748,0.572958,102.41624250000001,1.83919518,-17.171551259999998
1.37,137,0.027999999999999997,-0.971,0.285,0.0,-0.3437748,0.40107059999999994,102.41624250000001,1.8334656000000005,-17.17728084
1.3800000000000001,138,0.027000000000000003,-0.97,0.28600000000000003,-0.11459160000000004,-0.40107059999999994,0.286479,102.41624250000001,1.8334656000000005,-17.18301042
1.3900000000000001,139,0.027999999999999997,-0.97,0.285,-0.11459160000000004,-0.4583664000000001,0.286479,102.41051292,1.82773602,-17.188740000000006
1.4000000000000001,140,0.027000000000000003,-0.97,0.285,-0.11459160000000004,-0.3437748,0.11459160000000004,102.66261444,1.84492476,-17.19446958
1.4100000000000001,141,0.027000000000000003,-0.968,0.284,-0.057295800000000015,-0.4583664000000001,0.11459160000000004,102.66261444,1.84492476,-17.20019916
1.42,142,0.027000000000000003,-0.968,0.284,-0.11459160000000004,-0.3437748,0.0,102.66261444,1.84492476,-17.20019916
1.43,143,0.027000000000000003,-0.9670000000000001,0.28600000000000003,0.0,-0.286479,0.0,102.66261444,1.84492476,-17.20592874
1.44,144,0.028999999999999998,-0.9670000000000001,0.284,0.057295800000000015,-0.11459160000000004,0.0,102.66261444,1.84492476,-17.20592874
1.45,145,0.028999999999999998,-0.9670000000000001,0.285,0.057295800000000015,-0.11459160000000004,-0.057295800000000015,103.10952168,1.90222056,-17.22884706
1.46,146,0.03,-0.9670000000000001,0.28600000000000003,0.057295800000000015,0.0,0.0,103.10952168,1.90222056,-17.22884706
1.47,147,0.031,-0.966,0.285,0.0,-0.057295800000000015,0.0,103.10952168,1.90222056,-17.22884706
1.48,148,0.032,-0.965,0.28600000000000003,0.0,-0.057295800000000015,-0.057295800000000015,103.11525126,1.90222056,-17.22884706
1.49,149,0.031,-0.9670000000000001,0.28600000000000003,0.11459160000000004,-0.057295800000000015,-0.057295800000000015,103.11525126,1.90795014,-17.22884706
1.5,150,0.034,-0.9670000000000001,0.287,0.286479,0.0,0.0,103.28713866,1.9480572000000005,-17.246035799999998
1.51,151,0.032,-0.97,0.289,0.3437748,0.11459160000000004,0.0,103.29286824,1.9480572000000005,-17.24030622
1.52,152,0.027999999999999997,-0.973,0.285,0.4583664000000001,0.057295800000000015,0.11459160000000004,103.29859782,1.9480572000000005,-17.24030622
1.53,153,0.027000000000000003,-0.97,0.28600000000000003,0.286479,-0.2291832000000001,0.2291832000000001,103.29859782,1.9480572000000005,-17.246035799999998
1.54,154,0.028999999999999998,-0.968,0.28600000000000003,0.1718874,-0.3437748,0.286479,103.3043274,1.94232762,-17.246035799999998
1.55,155,0.028999999999999998,-0.968,0.28600000000000003,0.1718874,-0.40107059999999994,0.40107059999999994,103.39027110000002,1.9480572000000005,-17.25749496
1.56,156,0.03,-0.9690000000000001,0.285,0.286479,-0.6302538000000001,0.4583664000000001,103.39600068,1.9480572000000005,-17.26322454
1.57,157,0.031,-0.971,0.284,0.286479,-0.6302538000000001,0.4583664000000001,103.39600068,1.94232762,-17.268954119999997
1.58,158,0.028999999999999998,-0.972,0.285,0.286479,-0.3437748,0.3437748,103.40173026,1.94232762,-17.2746837
1.59,159,0.026000000000000002,-0.973,0.285,0.2291832000000001,-0.286479,0.11459160000000004,103.40173026,1.93659804,-17.2746837
1.6,160,0.026000000000000002,-0.973,0.285,0.11459160000000004,-0.1718874,0.0,103.72831632,1.93086846,-17.2746837
1.61,161,0.027000000000000003,-0.975,0.285,0.0,0.0,0.0,103.72831632,1.93086846,-17.2746837
1.62,162,0.028999999999999998,-0.973,0.285,0.0,0.1718874,0.0,103.72831632,1.93086846,-17.268954119999997
1.6300000000000001,163,0.034,-0.973,0.284,-0.057295800000000015,0.2291832000000001,0.0,103.72831632,1.93086846,-17.268954119999997
1.6400000000000001,164,0.035,-0.9740000000000001,0.28300000000000003,-0.057295800000000015,0.1718874,0.0,103.72831632,1.93086846,-17.26322454
1.6500000000000001,165,0.035,-0.972,0.282,-0.1718874,0.0,0.0,103.89447414,1.99389384,-17.286142859999998
1.6600000000000001,166,0.033,-0.9690000000000001,0.28,-0.286479,0.0,-0.057295800000000015,103.88874456,1.99389384,-17.286142859999998
1.6700000000000002,167,0.031,-0.9690000000000001,0.27899999999999997,-0.2291832000000001,0.11459160000000004,-0.11459160000000004,103.88874456,1.99389384,-17.286142859999998
1.68,168,0.03,-0.968,0.278,-0.3437748,0.057295800000000015,-0.11459160000000004,103.88301498,1.99389384,-17.280413279999998
1.69,169,0.031,-0.9670000000000001,0.282,-0.286479,0.057295800000000015,-0.057295800000000015,103.88301498,1.99389384,-17.280413279999998
1.7,170,0.03,-0.965,0.281,-0.2291832000000001,0.0,-0.057295800000000015,104.00906573999998,1.99962342,-17.280413279999998
1.71,171,0.028999999999999998,-0.9670000000000001,0.28,-0.057295800000000015,0.057295800000000015,-0.2291832000000001,104.00906573999998,2.005353,-17.280413279999998
1.72,172,0.028999999999999998,-0.973,0.28300000000000003,0.0,0.11459160000000004,-0.2291832000000001,104.00906573999998,2.005353,-17.280413279999998
1.73,173,0.028999999999999998,-0.9740000000000001,0.28600000000000003,-0.1718874,-0.11459160000000004,-0.2291832000000001,104.00333616,2.005353,-17.280413279999998
1.74,174,0.03,-0.973,0.28600000000000003,-0.2291832000000001,-0.4583664000000001,-0.286479,104.00333616,2.01108258,-17.280413279999998
1.75,175,0.032,-0.973,0.287,-0.286479,-0.40107059999999994,-0.40107059999999994,104.0491728,2.02827132,-17.286142859999998
1.76,176,0.028999999999999998,-0.973,0.287,-0.2291832000000001,-0.1718874,-0.5156622000000001,104.0491728,2.0340009,-17.286142859999998
1.77,177,0.024,-0.973,0.28800000000000003,-0.40107059999999994,-0.057295800000000015,-0.4583664000000001,104.04344322,2.03973048,-17.286142859999998
1.78,178,0.022000000000000002,-0.968,0.28800000000000003,-0.40107059999999994,0.0,-0.3437748,104.03771364000002,2.03973048,-17.286142859999998
1.79,179,0.023,-0.966,0.287,-0.1718874,0.286479,-0.2291832000000001,104.03771364000002,2.04546006,-17.286142859999998
1.8,180,0.026000000000000002,-0.9640000000000001,0.287,0.0,0.6875496,-0.1718874,104.10073902,2.0340009,-17.2746837
1.81,181,0.027000000000000003,-0.9640000000000001,0.28300000000000003,0.2291832000000001,0.8594370000000001,-0.057295800000000015,104.1064686,2.0340009,-17.26322454
1.82,182,0.027999999999999997,-0.9640000000000001,0.282,0.572958,0.8021411999999999,0.0,104.11219818,2.0340009,-17.25749496
1.83,183,0.027999999999999997,-0.965,0.282,0.6302538000000001,0.5156622000000001,-0.057295800000000015,104.11792776,2.02827132,-17.251765380000002
1.84,184,0.027999999999999997,-0.965,0.281,0.6875496,0.4583664000000001,-0.057295800000000015,104.12365734,2.02827132,-17.246035799999998
1.85,185,0.027000000000000003,-0.968,0.284,0.7448454000000001,0.40107059999999994,-0.11459160000000004,104.16949398,2.02254174,-17.24030622
1.86,186,0.026000000000000002,-0.968,0.285,0.7448454000000001,0.40107059999999994,-0.1718874,104.18095314,2.02254174,-17.23457664
1.87,187,0.027999999999999997,-0.97,0.285,0.6302538000000001,0.6302538000000001,-0.1718874,104.18668272,2.02254174,-17.22884706
1.8800000000000001,188,0.028999999999999998,-0.972,0.28600000000000003,0.6302538000000001,0.8021411999999999,-0.1718874,104.1924123,2.02254174,-17.2173879
1.8900000000000001,189,0.032,-0.972,0.287,0.6302538000000001,0.6875496,0.0,104.20387146,2.02254174,-17.21165832
1.9000000000000001,190,0.032,-0.972,0.28600000000000003,0.4583664000000001,0.6875496,0.057295800000000015,104.23824894000002,2.02254174,-17.20592874
1.9100000000000001,191,0.031,-0.972,0.28600000000000003,0.5156622000000001,0.6875496,0.1718874,104.24397852,2.02254174,-17.20019916
1.9200000000000002,192,0.031,-0.971,0.28600000000000003,0.6302538000000001,0.7448454000000001,0.2291832000000001,104.25543768,2.01681216,-17.19446958
1.93,193,0.031,-0.971,0.28300000000000003,0.5156622000000001,0.8594370000000001,0.11459160000000004,104.26116726,2.01108258,-17.18301042
1.94,194,0.031,-0.972,0.282,0.5156622000000001,0.8594370000000001,0.11459160000000004,104.26689684,2.01108258,-17.17728084
1.95,195,0.032,-0.972,0.28300000000000003,0.4583664000000001,0.6875496,0.1718874,104.29554474,2.01108258,-17.171551259999998
1.96,196,0.033,-0.973,0.28300000000000003,0.3437748,0.5156622000000001,0.2291832000000001,104.30127432,2.005353,-17.16582168
1.97,197,0.034,-0.972,0.284,0.286479,0.4583664000000001,0.2291832000000001,104.30700390000001,2.005353,-17.16582168
1.98,198,0.035,-0.972,0.282,0.11459160000000004,0.2291832000000001,0.1718874,104.30700390000001,1.99962342,-17.1600921
1.99,199,0.033,-0.973,0.28300000000000003,0.286479,0.057295800000000015,0.1718874,104.31273348,1.99962342,-17.1600921
2.0,200,0.032,-0.973,0.285,0.286479,0.057295800000000015,0.057295800000000015,104.41013633999998,2.005353,-17.1600921
2.01,201,0.03,-0.973,0.285,0.11459160000000004,0.057295800000000015,0.0,104.41586592000002,2.005353,-17.1600921
2.02,202,0.028999999999999998,-0.971,0.285,0.11459160000000004,0.0,0.0,104.41586592000002,2.005353,-17.1600921
2.03,203,0.027999999999999997,-0.9690000000000001,0.285,0.1718874,0.057295800000000015,0.0,104.41586592000002,2.005353,-17.1600921
2.04,204,0.027000000000000003,-0.9670000000000001,0.28600000000000003,0.11459160000000004,0.11459160000000004,0.1718874,104.4215955,2.005353,-17.1600921
2.05,205,0.027999999999999997,-0.965,0.287,0.1718874,0.2291832000000001,0.1718874,104.47316172,1.99962342,-17.15436252
2.0599999999999996,206,0.028999999999999998,-0.966,0.28600000000000003,0.2291832000000001,0.3437748,0.286479,104.47316172,1.99962342,-17.15436252
2.07,207,0.03,-0.968,0.285,0.286479,0.5156622000000001,0.1718874,104.4788913,1.99389384,-17.14863294
2.0799999999999996,208,0.031,-0.9690000000000001,0.285,0.2291832000000001,0.3437748,0.1718874,104.4788913,1.99389384,-17.14290336
2.09,209,0.028999999999999998,-0.97,0.28600000000000003,0.11459160000000004,0.1718874,0.057295800000000015,104.4788913,1.98816426,-17.14290336
2.0999999999999996,210,0.027999999999999997,-0.9690000000000001,0.287,0.11459160000000004,0.11459160000000004,0.0,104.58775332,1.98243468,-17.13717378
2.11,211,0.027999999999999997,-0.968,0.28800000000000003,0.0,0.0,0.0,104.58775332,1.98243468,-17.13717378
2.1199999999999997,212,0.027000000000000003,-0.9670000000000001,0.28800000000000003,0.0,-0.11459160000000004,0.057295800000000015,104.58775332,1.9767051,-17.13717378
2.13,213,0.027000000000000003,-0.968,0.287,0.057295800000000015,-0.2291832000000001,0.11459160000000004,104.58775332,1.9767051,-17.14290336
2.1399999999999997,214,0.027000000000000003,-0.968,0.287,0.1718874,-0.11459160000000004,0.11459160000000004,104.58775332,1.9767051,-17.14290336
2.15,215,0.026000000000000002,-0.97,0.28800000000000003,0.1718874,-0.11459160000000004,0.057295800000000015,104.66796744,1.96524594,-17.14290336
2.1599999999999997,216,0.026000000000000002,-0.971,0.28800000000000003,0.1718874,0.0,0.0,104.66796744,1.96524594,-17.13717378
2.17,217,0.025,-0.972,0.28800000000000003,0.11459160000000004,0.11459160000000004,-0.057295800000000015,104.66796744,1.96524594,-17.13717378
2.1799999999999997,218,0.024,-0.971,0.28800000000000003,0.11459160000000004,0.286479,-0.11459160000000004,104.66796744,1.96524594,-17.13717378
2.19,219,0.026000000000000002,-0.97,0.28800000000000003,0.0,0.4583664000000001,-0.11459160000000004,104.66796744,1.96524594,-17.131444199999994
2.1999999999999997,220,0.027000000000000003,-0.97,0.287,0.0,0.5156622000000001,-0.11459160000000004,104.7080745,1.9595163600000003,-17.11998504
2.21,221,0.027999999999999997,-0.97,0.285,0.0,0.572958,0.0,104.7080745,1.9595163600000003,-17.114255460000006
2.2199999999999998,222,0.028999999999999998,-0.971,0.285,0.0,0.5156622000000001,0.057295800000000015,104.7080745,1.9595163600000003,-17.114255460000006
2.23,223,0.027999999999999997,-0.971,0.28600000000000003,0.0,0.40107059999999994,0.0,104.71380408,1.9595163600000003,-17.108525880000002
2.2399999999999998,224,0.027999999999999997,-0.972,0.285,0.0,0.3437748,-0.057295800000000015,104.71380408,1.9595163600000003,-17.1027963
2.25,225,0.026000000000000002,-0.972,0.28600000000000003,0.0,0.5156622000000001,-0.1718874,104.7367224,1.95378678,-17.09706672
2.26,226,0.027000000000000003,-0.971,0.28600000000000003,-0.11459160000000004,0.572958,-0.286479,104.7367224,1.95378678,-17.09133714
2.27,227,0.028999999999999998,-0.97,0.287,-0.1718874,0.4583664000000001,-0.2291832000000001,104.7367224,1.95378678,-17.085607560000003
2.28,228,0.031,-0.97,0.285,-0.2291832000000001,0.2291832000000001,-0.11459160000000004,104.73099282,1.9595163600000003,-17.07987798
2.29,229,0.033,-0.9690000000000001,0.287,-0.1718874,0.1718874,0.0,104.73099282,1.95378678,-17.07987798
2.3,230,0.034,-0.9690000000000001,0.28600000000000003,-0.1718874,0.11459160000000004,0.057295800000000015,104.83412526,2.005353,-17.09133714
2.31,231,0.03,-0.968,0.28600000000000003,-0.1718874,0.0,0.0,104.83412526,2.005353,-17.09133714
2.32,232,0.027000000000000003,-0.9690000000000001,0.287,-0.286479,0.0,0.0,104.82839568,2.005353,-17.09133714
2.3299999999999996,233,0.024,-0.971,0.287,-0.2291832000000001,0.0,-0.11459160000000004,104.82839568,2.01108258,-17.09133714
2.34,234,0.025,-0.97,0.29,-0.40107059999999994,0.0,-0.11459160000000004,104.82266610000002,2.01108258,-17.09133714
2.3499999999999996,235,0.027000000000000003,-0.971,0.289,-0.5156622000000001,0.0,-0.057295800000000015,104.85704357999998,2.005353,-17.09133714
2.36,236,0.028999999999999998,-0.9690000000000001,0.289,-0.40107059999999994,0.0,0.0,104.851314,2.005353,-17.09133714
2.3699999999999997,237,0.031,-0.968,0.29,-0.572958,0.0,0.0,104.84558442,2.005353,-17.09133714
2.38,238,0.03,-0.97,0.29,-0.572958,-0.3437748,0.0,104.83985484,2.005353,-17.09133714
2.3899999999999997,239,0.032,-0.973,0.29100000000000004,-0.5156622000000001,-0.9740286,0.0,104.83412526,2.01108258,-17.1027963
2.4,240,0.032,-0.973,0.29100000000000004,-0.6875496,-1.0313244000000001,0.0,104.83985484,2.01681216,-17.114255460000006
2.4099999999999997,241,0.027999999999999997,-0.973,0.292,-0.8594370000000001,-0.9167328000000001,-0.057295800000000015,104.83412526,2.01681216,-17.11998504
2.42,242,0.024,-0.9740000000000001,0.292,-0.8594370000000001,-0.7448454000000001,-0.057295800000000015,104.82266610000002,2.02254174,-17.131444199999994
2.4299999999999997,243,0.024,-0.972,0.293,-0.9167328000000001,-0.5156622000000001,-0.2291832000000001,104.81120694,2.02254174,-17.131444199999994
2.44,244,0.026000000000000002,-0.9690000000000001,0.292,-0.9740286,-0.3437748,-0.286479,104.80547736,2.02827132,-17.13717378
2.4499999999999997,245,0.027999999999999997,-0.9670000000000001,0.29,-0.9740286,-0.40107059999999994,-0.1718874,104.81120694,2.02827132,-17.13717378
2.46,246,0.028999999999999998,-0.9670000000000001,0.289,-0.8594370000000001,-0.5156622000000001,-0.1718874,104.79974778,2.0340009,-17.14290336
2.4699999999999998,247,0.028999999999999998,-0.966,0.28600000000000003,-0.9167328000000001,-0.4583664000000001,-0.11459160000000004,104.7940182,2.0340009,-17.14863294
2.48,248,0.028999999999999998,-0.9640000000000001,0.285,-0.8594370000000001,-0.5156622000000001,-0.2291832000000001,104.78255904,2.03973048,-17.15436252
2.4899999999999998,249,0.027999999999999997,-0.9640000000000001,0.284,-0.40107059999999994,-0.4583664000000001,-0.286479,104.77682946,2.04546006,-17.15436252
2.5,250,0.026000000000000002,-0.966,0.28600000000000003,0.0,-0.5156622000000001,-0.2291832000000001,104.80547736,2.03973048,-17.1600921
2.51,251,0.026000000000000002,-0.9670000000000001,0.284,0.0,-0.4583664000000001,-0.3437748,104.80547736,2.04546006,-17.1600921
2.52,252,0.026000000000000002,-0.9670000000000001,0.284,0.0,-0.4583664000000001,-0.4583664000000001,104.80547736,2.05118964,-17.16582168
2.53,253,0.027000000000000003,-0.9670000000000001,0.284,0.11459160000000004,-0.3437748,-0.4583664000000001,104.81120694,2.05691922,-17.16582168
2.54,254,0.027000000000000003,-0.9670000000000001,0.285,0.2291832000000001,-0.2291832000000001,-0.4583664000000001,104.81120694,2.0626488000000003,-17.171551259999998
2.55,255,0.026000000000000002,-0.968,0.284,0.3437748,-0.40107059999999994,-0.2291832000000001,104.83412526,2.05691922,-17.171551259999998
2.56,256,0.025,-0.97,0.28600000000000003,0.3437748,-0.5156622000000001,-0.11459160000000004,104.83985484,2.05691922,-17.171551259999998
2.57,257,0.024,-0.971,0.285,0.3437748,-0.40107059999999994,-0.11459160000000004,104.83985484,2.0626488000000003,-17.17728084
2.5799999999999996,258,0.025,-0.971,0.28600000000000003,0.2291832000000001,-0.1718874,-0.2291832000000001,104.84558442,2.0626488000000003,-17.17728084
2.59,259,0.024,-0.972,0.285,0.1718874,-0.11459160000000004,-0.2291832000000001,104.84558442,2.06837838,-17.17728084
2.5999999999999996,260,0.025,-0.973,0.284,0.1718874,0.0,-0.286479,104.86850274,2.0626488000000003,-17.17728084
2.61,261,0.027999999999999997,-0.975,0.28600000000000003,0.1718874,0.11459160000000004,-0.3437748,104.87423232,2.0626488000000003,-17.171551259999998
2.6199999999999997,262,0.031,-0.973,0.284,0.057295800000000015,0.1718874,-0.3437748,104.87423232,2.06837838,-17.171551259999998
2.63,263,0.032,-0.972,0.284,0.11459160000000004,0.3437748,-0.1718874,104.87423232,2.06837838,-17.16582168
2.6399999999999997,264,0.033,-0.972,0.28300000000000003,0.1718874,0.11459160000000004,-0.11459160000000004,104.87423232,2.06837838,-17.16582168
2.65,265,0.034,-0.97,0.28300000000000003,0.1718874,0.057295800000000015,-0.1718874,104.89715064,2.08556712,-17.16582168
2.6599999999999997,266,0.036000000000000004,-0.971,0.28300000000000003,0.2291832000000001,0.0,-0.2291832000000001,104.90288022,2.0912967,-17.16582168
2.67,267,0.036000000000000004,-0.97,0.281,0.286479,-0.2291832000000001,-0.2291832000000001,104.90288022,2.0912967,-17.16582168
2.6799999999999997,268,0.035,-0.9690000000000001,0.282,0.40107059999999994,-0.286479,-0.11459160000000004,104.9086098,2.09702628,-17.171551259999998
2.69,269,0.034,-0.9670000000000001,0.282,0.572958,-0.6302538000000001,0.0,104.91433938,2.09702628,-17.17728084
2.6999999999999997,270,0.032,-0.9670000000000001,0.28300000000000003,0.6302538000000001,-0.8594370000000001,0.057295800000000015,104.93152812,2.10275586,-17.18301042
2.71,271,0.03,-0.9690000000000001,0.28300000000000003,0.8594370000000001,-0.8021411999999999,0.057295800000000015,104.9372577,2.10275586,-17.19446958
2.7199999999999998,272,0.028999999999999998,-0.97,0.28300000000000003,0.8021411999999999,-0.6302538000000001,0.0,104.94298727999998,2.10275586,-17.20019916
2.73,273,0.027999999999999997,-0.9690000000000001,0.282,0.572958,-0.40107059999999994,0.0,104.95444644,2.10275586,-17.20592874
2.7399999999999998,274,0.027999999999999997,-0.9690000000000001,0.284,0.572958,-0.40107059999999994,0.11459160000000004,104.96017602,2.10275586,-17.20592874
2.75,275,0.027999999999999997,-0.968,0.285,0.6875496,-0.4583664000000001,0.2291832000000001,104.97736476,2.09702628,-17.21165832
2.76,276,0.027999999999999997,-0.9670000000000001,0.287,0.572958,-0.3437748,0.2291832000000001,104.98309434,2.09702628,-17.2173879
2.77,277,0.028999999999999998,-0.9670000000000001,0.28800000000000003,0.5156622000000001,-0.1718874,0.3437748,104.98882392,2.09702628,-17.2173879
2.78,278,0.03,-0.968,0.289,0.4583664000000001,-0.11459160000000004,0.3437748,104.9945535,2.0912967,-17.22311748
2.79,279,0.028999999999999998,-0.972,0.29,0.5156622000000001,0.0,0.40107059999999994,105.00028308,2.0912967,-17.22311748
2.8,280,0.028999999999999998,-0.972,0.29100000000000004,0.4583664000000001,0.0,0.3437748,105.0232014,2.08556712,-17.22311748
2.81,281,0.028999999999999998,-0.973,0.292,0.1718874,0.2291832000000001,0.286479,105.02893098,2.08556712,-17.22311748
2.82,282,0.028999999999999998,-0.973,0.293,0.057295800000000015,0.2291832000000001,0.3437748,105.02893098,2.07983754,-17.22311748
2.8299999999999996,283,0.027999999999999997,-0.973,0.294,-0.286479,0.286479,0.286479,105.02893098,2.07410796,-17.2173879
2.84,284,0.03,-0.973,0.294,-0.40107059999999994,0.5156622000000001,0.3437748,105.0232014,2.06837838,-17.21165832
2.8499999999999996,285,0.03,-0.9740000000000001,0.294,-0.572958,0.6302538000000001,0.2291832000000001,105.03466056,2.06837838,-17.21165832
2.86,286,0.032,-0.9740000000000001,0.295,-0.7448454000000001,0.6302538000000001,0.1718874,105.02893098,2.0626488000000003,-17.20592874
2.8699999999999997,287,0.032,-0.9740000000000001,0.295,-0.6875496,0.6302538000000001,0.2291832000000001,105.01747182,2.05691922,-17.20019916
2.88,288,0.033,-0.973,0.294,-0.7448454000000001,0.5156622000000001,0.1718874,105.01174224,2.05691922,-17.19446958
2.8899999999999997,289,0.034,-0.971,0.293,-0.8021411999999999,0.5156622000000001,0.11459160000000004,105.00601266,2.05118964,-17.188740000000006
2.9,290,0.033,-0.968,0.294,-0.7448454000000001,0.5156622000000001,0.0,105.0232014,2.05691922,-17.18301042
2.9099999999999997,291,0.033,-0.9670000000000001,0.293,-0.6875496,0.4583664000000001,0.0,105.01747182,2.05691922,-17.18301042
2.92,292,0.033,-0.966,0.29100000000000004,-0.6302538000000001,0.4583664000000001,-0.11459160000000004,105.01174224,2.05691922,-17.17728084
2.9299999999999997,293,0.032,-0.9670000000000001,0.289,-0.4583664000000001,0.4583664000000001,-0.2291832000000001,105.00601266,2.05691922,-17.171551259999998
2.94,294,0.032,-0.9670000000000001,0.28800000000000003,-0.3437748,0.2291832000000001,-0.286479,105.00028308,2.0626488000000003,-17.16582168
2.9499999999999997,295,0.03,-0.968,0.28800000000000003,-0.3437748,0.2291832000000001,-0.40107059999999994,105.01174224,2.0626488000000003,-17.1600921
2.96,296,0.027000000000000003,-0.9690000000000001,0.287,-0.3437748,0.286479,-0.4583664000000001,105.01174224,2.0626488000000003,-17.1600921
2.9699999999999998,297,0.026000000000000002,-0.966,0.28600000000000003,-0.40107059999999994,0.2291832000000001,-0.4583664000000001,105.00601266,2.06837838,-17.15436252
2.98,298,0.027000000000000003,-0.965,0.284,-0.40107059999999994,0.2291832000000001,-0.40107059999999994,105.00028308,2.07410796,-17.14863294
2.9899999999999998,299,0.027999999999999997,-0.966,0.285,-0.40107059999999994,0.40107059999999994,-0.40107059999999994,105.00028308,2.07410796,-17.14290336
3.0,300,0.031,-0.968,0.28300000000000003,-0.286479,0.286479,-0.3437748,104.9945535,2.07983754,-17.14290336
3.01,301,0.031,-0.9690000000000001,0.28300000000000003,-0.3437748,0.1718874,-0.3437748,104.9945535,2.08556712,-17.13717378
3.02,302,0.03,-0.972,0.28300000000000003,-0.40107059999999994,0.057295800000000015,-0.4583664000000001,104.98882392,2.08556712,-17.13717378
3.03,303,0.027000000000000003,-0.9740000000000001,0.28300000000000003,-0.4583664000000001,-0.057295800000000015,-0.5156622000000001,104.98309434,2.0912967,-17.13717378
3.04,304,0.025,-0.975,0.285,-0.572958,-0.11459160000000004,-0.6875496,104.97736476,2.10275586,-17.13717378
3.05,305,0.025,-0.976,0.284,-0.7448454000000001,0.0,-0.7448454000000001,104.97163518,2.09702628,-17.131444199999994
3.06,306,0.021,-0.977,0.282,-1.5469866,-0.057295800000000015,-0.7448454000000001,104.96017602,2.10275586,-17.131444199999994
3.07,307,0.019,-0.9740000000000001,0.289,-3.2085647999999996,0.0,-0.7448454000000001,104.92579854,2.11421502,-17.131444199999994
3.08,308,0.027999999999999997,-0.9740000000000001,0.295,-5.042030400000002,1.0313244000000001,-0.9167328000000001,104.87423232,2.1199446,-17.11998504
3.09,309,0.039,-0.972,0.28800000000000003,-5.3858052,1.8334656000000005,-1.6042823999999998,104.81693652,2.13140376,-17.09706672
3.0999999999999996,310,0.047,-0.9790000000000001,0.27899999999999997,-4.6409598,2.0626488000000003,-2.4064236,104.77109988,2.1485925000000003,-17.0741484
3.11,311,0.042,-0.9840000000000001,0.27699999999999997,-4.297185,1.6042823999999998,-2.86479,104.73099282,2.17151082,-17.05123008
3.1199999999999997,312,0.032,-0.9840000000000001,0.282,-3.8388186,1.2032118,-2.9220858,104.69088576,2.20015872,-17.034041339999998
3.13,313,0.027000000000000003,-0.982,0.285,-4.010706000000001,0.9740286,-2.9220858,104.6507787,2.22307704,-17.0168526
3.1399999999999997,314,0.031,-0.977,0.293,-4.4690724,1.432395,-3.2085647999999996,104.60494206,2.25172494,-16.99393428
3.15,315,0.035,-0.9740000000000001,0.297,-4.9274388,1.7188740000000002,-3.6669312000000014,104.55910542,2.28037284,-16.96528638
3.1599999999999997,316,0.039,-0.972,0.295,-5.5576926,2.0053530000000004,-4.1252976000000015,104.50180962,2.3147503200000004,-16.93663848
3.17,317,0.038,-0.973,0.292,-5.5576926,1.7188740000000002,-4.4690724,104.4502434,2.35485738,-16.91372016
3.1799999999999997,318,0.03,-0.972,0.285,-5.7868758000000025,0.9167328000000001,-4.583664,104.39294759999999,2.39496444,-16.89080184
3.19,319,0.021,-0.9670000000000001,0.28300000000000003,-5.7868758000000025,-0.057295800000000015,-4.5263682,104.32992222,2.44080108,-16.87934268
3.1999999999999997,320,0.016,-0.9620000000000001,0.282,-5.3285094000000015,-0.9167328000000001,-4.5263682,104.28408558,2.48090814,-16.87934268
3.21,321,0.016,-0.961,0.281,-5.0993262,-0.8594370000000001,-4.6409598,104.22678978,2.52674478,-16.87934268
3.2199999999999998,322,0.02,-0.961,0.278,-4.8128472,-0.2291832000000001,-5.0993262,104.18095314,2.578311,-16.86788352
3.23,323,0.024,-0.9640000000000001,0.27399999999999997,-4.5263682,0.2291832000000001,-5.6722842,104.1351165,2.62987722,-16.850694779999998
3.2399999999999998,324,0.025,-0.9670000000000001,0.272,-4.1252976000000015,0.572958,-6.0733548,104.09500943999998,2.68717302,-16.83350604
3.25,325,0.026000000000000002,-0.9670000000000001,0.271,-3.6669312000000014,0.6875496,-6.3025379999999975,104.06063196,2.74446882,-16.81058772
3.26,326,0.027000000000000003,-0.968,0.272,-3.4377480000000005,0.8021411999999999,-6.417129599999999,104.02625448,2.80176462,-16.787669400000002
3.27,327,0.027000000000000003,-0.965,0.271,-3.5523396000000003,0.7448454000000001,-6.417129599999999,103.991877,2.86479,-16.764751080000003
3.28,328,0.027000000000000003,-0.965,0.26899999999999996,-3.4950437999999995,0.3437748,-6.4744254,103.95749951999998,2.9220857999999996,-16.74183276
3.29,329,0.028999999999999998,-0.968,0.26899999999999996,-3.2085647999999996,0.3437748,-6.6463128000000005,103.92312204,2.98511118,-16.72464402
3.3,330,0.032,-0.971,0.271,-3.3231564,0.2291832000000001,-6.9327918,103.89447414,3.04813656,-16.707455279999998
3.31,331,0.037000000000000005,-0.973,0.27399999999999997,-3.4950437999999995,0.40107059999999994,-7.333862400000001,103.86009666,3.11689152,-16.68453696
3.32,332,0.04,-0.975,0.26899999999999996,-3.7242269999999995,0.40107059999999994,-7.6203414,103.8199896,3.1913760600000005,-16.66161864
3.33,333,0.042,-0.978,0.266,-3.7815228,0.057295800000000015,-7.6776372,103.78561212,3.2658606,-16.6444299
3.34,334,0.044000000000000004,-0.9790000000000001,0.267,-3.5523396000000003,-0.3437748,-7.6776372,103.74550506,3.34034514,-16.62724116
3.3499999999999996,335,0.049,-0.9790000000000001,0.271,-3.4950437999999995,-0.9167328000000001,-7.8495246,103.71685716,3.42055926,-16.621511579999996
3.36,336,0.053,-0.9790000000000001,0.27,-3.8961144,-1.0886202,-8.250595200000001,103.67675009999999,3.50077338,-16.61005242
3.3699999999999997,337,0.057,-0.978,0.268,-4.010706000000001,-1.3750992,-8.651665800000002,103.63664304,3.58671708,-16.604322840000002
3.38,338,0.06,-0.982,0.265,-3.8388186,-1.6615782,-9.0527364,103.59653598,3.67839036,-16.598593259999998
3.3899999999999997,339,0.059000000000000004,-0.9840000000000001,0.264,-4.010706000000001,-1.8334656000000005,-9.2819196,103.55642892,3.77579322,-16.59286368
3.4,340,0.059000000000000004,-0.98,0.263,-4.1825934,-1.8907614,-9.453807,103.51632186,3.8674665,-16.59286368
3.4099999999999997,341,0.06,-0.978,0.263,-4.1252976000000015,-2.2345362,-9.5111028,103.47048522,3.9648693599999993,-16.59286368
3.42,342,0.059000000000000004,-0.977,0.261,-4.2398892,-2.6929026,-9.5111028,103.43037816,4.0680017999999984,-16.598593259999998
3.4299999999999997,343,0.06,-0.9790000000000001,0.259,-4.1252976000000015,-3.0366774,-9.5111028,103.38454152,4.16540466,-16.604322840000002
3.44,344,0.066,-0.98,0.258,-4.1825934,-3.2085647999999996,-9.740286,103.34443446,4.2685371,-16.61005242
3.4499999999999997,345,0.07,-0.98,0.262,-4.4117766,-3.2658606,-9.9694692,103.29859782,4.37166954,-16.621511579999996
3.46,346,0.073,-0.98,0.263,-4.8128472,-3.4377480000000005,-10.313244000000001,103.25276118,4.48053156,-16.632970739999998
3.4699999999999998,347,0.07200000000000001,-0.9790000000000001,0.26,-4.8128472,-3.4950437999999995,-10.7143146,103.20119496,4.59512316,-16.638700319999998
3.48,348,0.068,-0.977,0.255,-4.8128472,-3.5523396000000003,-10.886202,103.14962874,4.70971476,-16.650159480000006
3.4899999999999998,349,0.071,-0.977,0.259,-4.7555514,-3.5523396000000003,-10.828906199999999,103.10379209999999,4.81857678,-16.66161864
3.5,350,0.073,-0.976,0.256,-5.042030400000002,-3.7815228,-10.886202,103.05222588,4.93316838,-16.6730778
3.51,351,0.07200000000000001,-0.972,0.26,-4.6982555999999995,-3.9534102,-10.886202,103.00065966,5.04775998,-16.69026654
3.52,352,0.07200000000000001,-0.973,0.257,-4.2398892,-4.010706000000001,-10.7143146,102.9605526,5.16235158,-16.701725699999994
3.53,353,0.079,-0.976,0.251,-4.1825934,-3.6669312000000014,-10.657018800000001,102.91471596,5.27694318,-16.71318486
3.54,354,0.084,-0.972,0.24600000000000002,-4.1825934,-3.4950437999999995,-10.599723,102.86887932,5.385805199999999,-16.72464402
3.55,355,0.08900000000000001,-0.972,0.245,-3.6096353999999997,-3.5523396000000003,-10.313244000000001,102.83450184,5.4946672199999975,-16.736103179999994
3.56,356,0.095,-0.976,0.24600000000000002,-3.2658606,-3.7242269999999995,-10.026765,102.80012436,5.6035292399999985,-16.747562339999998
3.57,357,0.098,-0.977,0.247,-3.2658606,-4.1252976000000015,-9.9121734,102.76574688,5.70666168,-16.77048066
3.58,358,0.098,-0.975,0.248,-3.2085647999999996,-4.583664,-9.568398599999998,102.7313694,5.815523699999999,-16.79339898
3.59,359,0.098,-0.975,0.247,-3.1512689999999997,-4.6982555999999995,-9.3392154,102.69699192,5.9129265600000025,-16.8163173
3.5999999999999996,360,0.10400000000000001,-0.977,0.24600000000000002,-3.2658606,-4.583664,-9.5111028,102.66261444,6.02178858,-16.83923562
3.61,361,0.107,-0.975,0.244,-3.380452200000001,-4.2398892,-9.6256944,102.62250738,6.12492102,-16.86215394
3.6199999999999997,362,0.107,-0.976,0.242,-3.5523396000000003,-4.0680017999999984,-9.740286,102.5881299,6.22805346,-16.87934268
3.63,363,0.111,-0.975,0.24,-3.6669312000000014,-3.8388186,-9.682990199999999,102.54802284,6.3311859,-16.89653142
3.6399999999999997,364,0.114,-0.973,0.24100000000000002,-3.6669312000000014,-3.7815228,-9.6256944,102.50791578,6.43431834,-16.91372016
3.65,365,0.11599999999999999,-0.975,0.24,-3.5523396000000003,-3.9534102,-9.568398599999998,102.47353830000002,6.53745078,-16.9309089
3.6599999999999997,366,0.11599999999999999,-0.977,0.24,-3.5523396000000003,-3.8961144,-9.740286,102.43343124,6.640583220000001,-16.94809764
3.67,367,0.12,-0.98,0.24,-3.6669312000000014,-3.8961144,-9.8548776,102.39332418,6.74944524,-16.96528638
3.6799999999999997,368,0.122,-0.978,0.24100000000000002,-3.8961144,-4.1252976000000015,-10.026765,102.35321712,6.85257768,-16.98247512
3.69,369,0.125,-0.977,0.24,-4.0680017999999984,-4.1252976000000015,-10.1413566,102.30738048,6.9614397000000015,-16.999663860000002
3.6999999999999997,370,0.125,-0.977,0.239,-4.3544808,-4.2398892,-10.1986524,102.26154384,7.0703017200000025,-17.02258218
3.71,371,0.12300000000000001,-0.977,0.239,-4.3544808,-4.4117766,-10.1986524,102.21570720000001,7.17916374,-17.0455005
3.7199999999999998,372,0.126,-0.9790000000000001,0.23800000000000002,-4.4117766,-4.297185,-10.4278356,102.16987056,7.29375534,-17.06268924
3.73,373,0.126,-0.98,0.235,-4.5263682,-3.8961144,-10.7716104,102.12403392000002,7.408346939999999,-17.07987798
3.7399999999999998,374,0.125,-0.981,0.23399999999999999,-4.5263682,-3.6096353999999997,-11.172680999999999,102.0724677,7.52293854,-17.09133714
3.75,375,0.124,-0.982,0.231,-4.6409598,-3.380452200000001,-11.45916,102.02663106,7.64325972,-17.1027963
3.76,376,0.124,-0.982,0.23199999999999998,-4.9847346,-3.0939732,-11.5164558,101.97506484,7.763580899999999,-17.108525880000002
3.77,377,0.124,-0.98,0.23600000000000002,-5.2712136,-3.2085647999999996,-11.5164558,101.92349862,7.8781725000000025,-17.114255460000006
3.78,378,0.126,-0.975,0.237,-5.443101,-3.4950437999999995,-11.6310474,101.86620282,8.00422326,-17.12571462
3.79,379,0.127,-0.97,0.23600000000000002,-5.5003968,-3.5523396000000003,-11.9748222,101.80890702,8.12454444,-17.13717378
3.8,380,0.134,-0.972,0.235,-5.72958,-3.2658606,-12.2040054,101.75161122,8.250595200000001,-17.14290336
3.81,381,0.138,-0.976,0.23399999999999999,-5.958763200000001,-3.2658606,-12.5477802,101.68858584,8.382375540000002,-17.14863294
3.82,382,0.14300000000000002,-0.978,0.231,-5.9014674000000005,-3.2658606,-12.834259199999998,101.62556046,8.51415588,-17.1600921
3.83,383,0.14800000000000002,-0.9790000000000001,0.23199999999999998,-5.958763200000001,-2.9220858,-13.0061466,101.56826466,8.64593622,-17.1600921
3.84,384,0.153,-0.9790000000000001,0.23199999999999998,-6.2452422,-2.4637194,-13.407217200000002,101.50523928,8.783446139999999,-17.1600921
3.8499999999999996,385,0.151,-0.9790000000000001,0.23,-6.4744254,-2.4637194,-13.5791046,101.43648432,8.92095606,-17.15436252
3.86,386,0.15,-0.977,0.22899999999999998,-6.8182002000000015,-2.4064236,-13.750992000000002,101.36772936,9.05846598,-17.15436252
3.8699999999999997,387,0.149,-0.971,0.228,-6.7609043999999985,-2.3491277999999998,-13.636400400000001,101.2989744,9.1959759,-17.14863294
3.88,388,0.152,-0.97,0.228,-6.4744254,-2.4637194,-13.6936962,101.23594902,9.3392154,-17.14863294
3.8899999999999997,389,0.155,-0.972,0.22899999999999998,-6.5317212,-2.5783110000000002,-13.9228794,101.17292364,9.47672532,-17.14290336
3.9,390,0.16,-0.9670000000000001,0.22899999999999998,-6.6463128000000005,-3.7815228,-14.209358400000001,101.10416868000002,9.6256944,-17.15436252
3.9099999999999997,391,0.155,-0.963,0.222,-6.5317212,-4.3544808,-14.438541599999999,101.03541372,9.77466348,-17.171551259999998
3.92,392,0.158,-0.966,0.217,-6.3598338,-3.9534102,-14.667724800000002,100.96665876,9.92363256,-17.17728084
3.9299999999999997,393,0.161,-0.971,0.21600000000000005,-6.1879464,-3.8961144,-14.9542038,100.90363338,10.07833122,-17.188740000000006
3.94,394,0.166,-0.975,0.217,-6.130650599999999,-3.8388186,-15.068795399999999,100.84060799999999,10.23302988,-17.20019916
3.9499999999999997,395,0.171,-0.975,0.218,-6.2452422,-3.8388186,-15.183387000000002,100.77758262,10.39345812,-17.21165832
3.96,396,0.172,-0.971,0.217,-6.4744254,-3.7242269999999995,-15.2406828,100.70882766,10.54815678,-17.2173879
3.9699999999999998,397,0.174,-0.972,0.21600000000000005,-6.5317212,-3.7815228,-15.4125702,100.6400727,10.70285544,-17.22884706
3.98,398,0.174,-0.97,0.217,-6.589017,-4.297185,-15.4125702,100.57131774,10.86328368,-17.24030622
3.9899999999999998,399,0.17300000000000001,-0.972,0.214,-6.5317212,-4.2398892,-15.527161800000002,100.50256278,11.02371192,-17.25749496
4.0,400,0.177,-0.976,0.212,-6.8182002000000015,-3.7815228,-15.870936600000002,100.43380782,11.18414016,-17.26322454
4.01,401,0.179,-0.978,0.21100000000000002,-7.2765666,-3.7242269999999995,-16.2147114,100.35932327999998,11.35029798,-17.268954119999997
4.02,402,0.18600000000000005,-0.98,0.207,-7.2192707999999985,-3.5523396000000003,-16.157415599999997,100.28483874,11.516455800000001,-17.2746837
4.03,403,0.196,-0.983,0.20800000000000002,-7.6776372,-3.4950437999999995,-16.272007199999994,100.20462462,11.68261362,-17.286142859999998
4.04,404,0.203,-0.981,0.207,-8.078707799999998,-3.8961144,-16.2147114,100.11868092,11.84877144,-17.29187244
4.05,405,0.203,-0.981,0.205,-8.193299399999999,-4.5263682,-16.157415599999997,100.03273722,12.01492926,-17.30906118
4.06,406,0.2,-0.9840000000000001,0.207,-8.59437,-4.3544808,-16.386598799999998,99.94106394,12.186816659999998,-17.326249920000002
4.07,407,0.203,-0.98,0.204,-9.167328,-4.5263682,-16.7303736,99.84939066,12.35870406,-17.34343866
4.08,408,0.207,-0.982,0.203,-9.3392154,-4.583664,-17.0168526,99.74625822,12.53059146,-17.3606274
4.09,409,0.21100000000000002,-0.983,0.198,-9.740286,-4.3544808,-17.18874,99.64885536,12.70820844,-17.37208656
4.1,410,0.21600000000000005,-0.987,0.198,-10.2559482,-4.3544808,-17.131444199999994,99.53999334,12.88009584,-17.3892753
4.109999999999999,411,0.22399999999999998,-0.986,0.20199999999999999,-10.657018800000001,-5.3858052,-17.18874,99.42540174,13.0634424,-17.412193620000004
4.12,412,0.231,-0.981,0.209,-11.45916,-6.9327918,-17.131444199999994,99.29935098,13.24105938,-17.45803026
4.13,413,0.22899999999999998,-0.975,0.209,-11.9748222,-8.479778399999999,-17.131444199999994,99.16757064,13.42440594,-17.51532606
4.14,414,0.231,-0.973,0.198,-12.4331886,-8.59437,-17.4179232,99.02433114,13.6077525,-17.57262186
4.1499999999999995,415,0.24100000000000002,-0.976,0.198,-12.9488508,-8.307891,-17.8762896,98.88682122,13.80255822,-17.62991766
4.16,416,0.243,-0.978,0.193,-13.636400400000001,-8.8235532,-18.2200644,98.73212256,13.99736394,-17.69294304
4.17,417,0.242,-0.976,0.195,-13.9228794,-9.167328,-18.5638392,98.5774239,14.19216966,-17.755968420000006
4.18,418,0.24100000000000002,-0.9740000000000001,0.185,-14.0947668,-8.59437,-19.0222056,98.41699566,14.39270496,-17.81326422
4.1899999999999995,419,0.249,-0.976,0.182,-14.9542038,-8.5370742,-19.8816426,98.25083784,14.60469942,-17.870560020000006
4.2,420,0.244,-0.9740000000000001,0.18899999999999997,-15.3552744,-9.224623800000002,-20.3973048,98.08468002,14.81669388,-17.9335854
4.21,421,0.25,-0.958,0.187,-15.2406828,-10.1986524,-21.2567418,97.91279262,15.0401475,-18.00806994
4.22,422,0.245,-0.955,0.19399999999999998,-15.183387000000002,-10.313244000000001,-21.7151082,97.74090522,15.2693307,-18.08255448
4.2299999999999995,423,0.247,-0.955,0.18899999999999997,-15.011499599999999,-10.657018800000001,-22.1734746,97.56901782,15.50424348,-18.162768600000003
4.24,424,0.251,-0.9590000000000001,0.185,-15.297978599999999,-9.682990199999999,-22.7464326,97.39140084,15.74488584,-18.23152356
4.25,425,0.256,-0.963,0.179,-15.6990492,-9.0527364,-23.3766864,97.21951344,15.985528200000001,-18.29454894
4.26,426,0.26,-0.968,0.177,-15.6417534,-8.9954406,-23.892348600000002,97.04189646,16.23190014,-18.35757432
4.27,427,0.263,-0.968,0.174,-15.9855282,-9.0527364,-24.522602399999997,96.86427948,16.48973124,-18.4205997
4.28,428,0.272,-0.963,0.16699999999999998,-16.615782,-8.9381448,-24.9809688,96.68093292,16.747562339999998,-18.48362508
4.29,429,0.276,-0.9590000000000001,0.165,-16.902261,-8.8235532,-25.6112226,96.49185678,17.01112302,-18.54665046
4.3,430,0.28300000000000003,-0.9570000000000001,0.158,-16.8449652,-9.2819196,-26.356068,96.30278064,17.280413279999998,-18.60967584
4.31,431,0.28800000000000003,-0.9570000000000001,0.159,-16.7876694,-9.740286,-26.8717302,96.10797492,17.561162699999993,-18.68416038
4.32,432,0.285,-0.9520000000000001,0.16399999999999998,-17.3606274,-11.0007936,-27.7311672,95.90743962,17.847641699999997,-18.7643745
4.33,433,0.28300000000000003,-0.953,0.157,-17.8762896,-11.688343199999998,-28.418716800000002,95.70117474,18.13985028,-18.85604778
4.34,434,0.29,-0.9540000000000001,0.153,-18.3919518,-11.1153852,-29.220858000000003,95.48918028,18.44351802,-18.94772106
4.35,435,0.302,-0.9590000000000001,0.142,-18.5638392,-10.599723,-30.137590799999998,95.27718582,18.75291534,-19.02793518
4.36,436,0.306,-0.961,0.139,-19.0222056,-9.9694692,-31.054323600000004,95.05946178,19.06804224,-19.10241972
4.37,437,0.314,-0.956,0.132,-19.595163600000006,-10.084060800000001,-32.0283522,94.83600816,19.3946283,-19.17690426
4.38,438,0.317,-0.9520000000000001,0.133,-19.8816426,-10.1986524,-32.8877892,94.60682496,19.73267352,-19.25711838
4.39,439,0.322,-0.95,0.13699999999999998,-20.168121600000006,-10.7143146,-33.8618178,94.37191218,20.07644832,-19.34306208
4.3999999999999995,440,0.32799999999999996,-0.953,0.138,-21.2567418,-11.172680999999999,-34.8931422,94.13126982,20.43168228,-19.43473536
4.41,441,0.341,-0.9470000000000001,0.134,-22.2880662,-10.943497800000001,-36.2109456,93.87343872,20.798375399999998,-19.52640864
4.42,442,0.34299999999999997,-0.9359999999999999,0.136,-22.6891368,-11.6310474,-37.3568616,93.60987804,21.17652768,-19.6238115
4.43,443,0.335,-0.93,0.138,-22.2880662,-11.745639,-39.0757356,93.34631736,21.571868700000003,-19.72694394
4.4399999999999995,444,0.33899999999999997,-0.9440000000000001,0.136,-22.5745452,-10.7143146,-40.90920120000001,93.08275668,21.98439846,-19.81861722
4.45,445,0.34700000000000003,-0.95,0.126,-24.5798982,-10.1986524,-42.112413000000004,92.80200726,22.40838738,-19.90456092
4.46,446,0.35,-0.9470000000000001,0.11699999999999999,-26.0122932,-9.9121734,-42.685371,92.5040691,22.83810588,-19.99050462
4.47,447,0.3670000000000001,-0.935,0.114,-28.4760126,-9.740286,-43.4302164,92.18321262,23.27355396,-20.07644832
4.4799999999999995,448,0.385,-0.9209999999999999,0.11800000000000001,-29.2781538,-8.9381448,-44.4615408,91.85089698,23.71473162,-20.15666244
4.49,449,0.387,-0.915,0.11800000000000001,-28.4760126,-10.2559482,-45.4928652,91.52431092,24.17309802,-20.25979488
4.5,450,0.39399999999999996,-0.9009999999999999,0.109,-28.361421000000004,-11.3445684,-47.4409224,91.19199528,24.64865316,-20.368656899999998
4.51,451,0.401,-0.899,0.1,-27.6738714,-11.8602306,-48.987909,90.85967964,25.13566746,-20.488978080000006
4.52,452,0.40299999999999997,-0.917,0.12,-29.163562199999998,-11.6310474,-51.4516284,90.51017526,25.65132966,-20.61502884
4.53,453,0.397,-0.9309999999999999,0.12300000000000001,-31.5699858,-11.3445684,-52.9413192,90.13775256,26.17845102,-20.7410796
4.54,454,0.392,-0.895,0.086,-32.4867186,-10.886202,-56.78013780000001,89.75387070000002,26.73994986000001,-20.86140078
4.55,455,0.414,-0.887,0.086,-34.37748,-7.161975,-58.9573782,89.36998884,27.32436702,-20.94734448
4.56,456,0.442,-0.871,0.047,-33.804522,-9.1100322,-61.8221682,88.97464782,27.93743208,-21.06193608
4.57,457,0.45299999999999996,-0.898,0.052000000000000005,-33.74722620000001,-7.9641161999999985,-62.5097178,88.57930680000004,28.55622672,-21.170798100000006
4.58,458,0.505,-0.875,0.009000000000000001,-35.3515086,-13.2353298,-64.11400019999999,88.13812913999998,29.186480520000003,-21.3426855
4.59,459,0.486,-0.858,0.019,-35.4088044,-16.902261,-65.4318036,87.66830358,29.83392306,-21.56613912
4.6,460,0.48100000000000004,-0.8270000000000001,0.017,-33.6899304,-23.777757,-68.35388940000001,87.17555970000002,30.50428392,-21.87553644
4.61,461,0.45799999999999996,-0.809,0.02,-27.8457588,-30.93973200000001,-70.4165382,86.68854540000002,31.19183352,-22.27660704
4.62,462,0.479,-0.867,0.026000000000000002,-22.9756158,-29.2781538,-71.1040878,86.25309732000002,31.885112699999997,-22.66621848
4.63,463,0.503,-0.9209999999999999,0.011000000000000001,-23.14750320000001,-25.9549974,-70.1300592,85.82910840000002,32.56693272,-23.02718202
4.64,464,0.48,-0.8959999999999999,-0.018000000000000002,-30.4240698,-24.809081399999997,-72.30729960000002,85.32490535999997,33.27167106,-23.38814556
4.6499999999999995,465,0.48200000000000004,-0.809,-0.068,-32.8877892,-26.642546999999997,-77.635809,84.7691361,34.02224604,-23.78348658
4.66,466,0.563,-0.7609999999999999,-0.091,-28.5906042,-28.6479,-81.9902898,84.23628516,34.8071985,-24.22466424
4.67,467,0.61,-0.759,-0.127,-11.5737516,-32.7159018,-86.0009958,83.82948498,35.63225802,-24.72886728
4.68,468,0.7120000000000001,-0.6609999999999999,-0.262,23.7204612,-44.2896534,-86.68854540000002,83.69197505999998,36.45731754000001,-25.37630982
4.6899999999999995,469,0.526,-0.711,-0.242,83.07891,-55.576926,-85.5999252,84.07012734,37.26518832,-26.16126228
4.7,470,0.40700000000000003,-0.826,0.07400000000000001,104.564835,-53.858052,-86.8604328,84.68319240000002,38.09024784,-26.91756684
4.71,471,0.4270000000000001,-0.85,0.2,50.133825,-41.19568020000001,-88.7511942,84.81497274,38.94968484,-27.5306319
4.72,472,0.4270000000000001,-0.6679999999999999,0.084,27.4446882,-32.2002396,-99.80928359999999,84.76340652,39.91798386,-28.05202368
4.7299999999999995,473,0.389,-0.84,0.081,34.8931422,-23.0902074,-100.7260164,84.8550798,40.90347162,-28.458823859999995
4.74,474,0.314,-1.061,0.14400000000000002,23.319390600000002,-14.7250206,-105.48156780000001,84.8837277,41.9405256,-28.77395076
4.75,475,0.14,-1.236,0.205,-1.7188740000000002,-11.5737516,-93.7359288,84.70038114,42.84006966,-29.02605228
4.76,476,-0.183,-1.375,0.42200000000000004,-39.304918799999996,-12.6623718,-71.33327100000002,84.11596397999998,43.53334884,-29.29534254
4.77,477,-0.172,-2.403,0.8640000000000001,-220.35964680000004,21.772404,-7.3911582,82.05331518,43.602103799999995,-29.03751144
4.78,478,0.298,-1.224,-0.4,-301.7769786,-0.40107059999999994,32.7159018,79.01090819999997,43.25259942,-29.00886354
4.79,479,0.64,0.573,-0.5539999999999999,-202.0822866,17.589810600000003,14.32395,77.12587638,43.12654866000001,-28.76822118
4.8,480,0.728,0.634,-0.07,-36.2682414,9.453807,-55.11855960000001,76.70761704,43.70523624,-28.82551698
4.81,481,0.512,-0.392,-0.174,16.1001198,11.401864199999999,-79.1254998,76.80501989999998,44.49591828,-28.91719026
4.82,482,0.401,-0.525,-0.025,-12.9488508,12.3758928,-89.03767320000001,76.58729586000003,45.38400318,-29.03751144
4.83,483,0.287,-0.7959999999999999,0.063,42.34159620000001,16.673077799999998,-86.91772859999998,76.98263688,46.26062892,-29.0776185
4.84,484,0.262,-0.988,0.153,-13.8655836,32.085648000000006,-86.05829159999998,76.96544814,47.15444340000001,-28.90000152
4.85,485,0.287,-0.537,0.026000000000000002,-26.1268848,44.175061799999995,-84.05293859999998,76.95971856,48.04825788,-28.53903798
4.86,486,0.295,-0.648,-0.026000000000000002,3.4377480000000005,47.8992888,-79.9849368,77.3206821,48.91342446,-28.10358990000001
4.87,487,0.342,-0.5760000000000001,-0.1,-5.042030400000002,43.315624799999995,-79.0109082,77.5498653,49.7614023,-27.71397846
4.88,488,0.369,-0.639,-0.037000000000000005,9.1100322,32.8877892,-76.2607098,77.83061472,50.5635435,-27.46760652
4.89,489,0.35200000000000004,-0.643,-0.055,8.021412000000002,29.392745399999995,-74.88561059999998,78.07125708,51.34849596,-27.25561206
4.8999999999999995,490,0.301,-0.614,-0.057999999999999996,10.7716104,28.4760126,-75.8023434,78.34054734,52.12198926,-27.043617600000005
4.91,491,0.233,-0.596,-0.026000000000000002,12.605075999999999,30.080295,-77.9795838,78.64994466,52.93558962000001,-26.80870482000001
4.92,492,0.16899999999999998,-0.583,-0.011000000000000001,15.3552744,32.7731976,-80.21412,79.02809694,53.7721083,-26.527955400000003
4.93,493,0.133,-0.594,-0.005,18.907614,35.5806918,-82.50595200000002,79.48646334,54.63727487999999,-26.18991018
4.9399999999999995,494,0.11199999999999999,-0.605,0.005,21.0848544,37.3568616,-84.22482600000002,80.01358470000002,55.51390062,-25.80029874
4.95,495,0.111,-0.622,0.037000000000000005,22.1161788,39.8778768,-85.1988546,80.60946102,56.39052636,-25.34193234
4.96,496,0.095,-0.631,0.04,24.637194,44.117765999999996,-85.54262940000002,81.31992894,57.290070420000006,-24.78616308
4.97,497,0.063,-0.625,0.008,26.814434400000003,51.3943326,-85.82910840000002,82.19655467999998,58.19534406,-24.05850642
4.9799999999999995,498,0.037000000000000005,-0.599,-0.028999999999999998,27.3300966,59.24385720000001,-85.3134462,83.25652698,59.09488811999999,-23.13604404
4.99,499,0.021,-0.568,-0.057,28.762491600000004,64.0567044,-83.65186800000002,84.47119794,59.97724344,-22.05315342
5.0,500,0.004,-0.545,-0.07400000000000001,31.856464799999998,63.9994086,-81.0162612,85.78327176,60.80230296,-20.90723742
5.01,501,0.006,-0.5329999999999999,-0.068,35.46610020000001,63.08267579999999,-77.52121740000003,87.19274844,61.592985,-19.69829604
5.02,502,0.009000000000000001,-0.564,-0.034,38.7892566,65.030733,-73.625103,88.74546462,62.33210082,-18.36903348
5.03,503,0.032,-0.563,-0.024,37.52874900000001,71.1613836,-68.1247062,90.48152736,62.9967321,-16.83350604
5.04,504,0.08199999999999999,-0.5670000000000001,0.011000000000000001,39.7059894,74.0834694,-61.4783934,92.36655918,63.57541968,-15.16046868
5.05,505,0.124,-0.653,0.040999999999999995,39.820581,80.09952840000003,-55.3477428,94.44639672,64.03951565999999,-13.281166440000002
5.06,506,0.16699999999999998,-0.722,0.1,28.934378999999996,87.77716559999998,-49.1025006,96.61790754,64.41766794,-11.17841058
5.07,507,0.24,-0.72,0.07200000000000001,16.2147114,93.4494498,-43.602103799999995,98.81806626,64.69841736,-8.91522648
5.08,508,0.305,-0.688,0.16399999999999998,12.2040054,98.4914802,-40.4508348,101.10989826,64.89895265999999,-6.5030733
5.09,509,0.248,-0.624,0.16699999999999998,3.8961144,101.5854534,-39.19032720000001,103.40173026,65.04219216,-3.99924684
5.1,510,0.15,-0.485,0.045,-1.9480572,101.35627020000001,-36.955791,105.63053688,65.10521754,-1.50687954
5.11,511,0.09,-0.326,-0.069,-5.2712136,109.721457,-36.7266078,108.00831257999998,65.11094712,1.18602306
5.12,512,0.046,-0.21899999999999997,-0.095,-5.6149884000000005,126.05076,-39.3622146,110.71840392,65.03646258,4.25707794
5.13,513,-0.061,-0.141,-0.10300000000000001,0.4583664000000001,134.64513,-42.5134836,113.65194888,64.88749349999999,7.51720896
5.14,514,-0.1,-0.11800000000000001,-0.134,3.4377480000000005,149.19826319999999,-44.977203,116.86624326,64.62393282000001,11.05235982
5.1499999999999995,515,0.21600000000000005,-0.133,-0.035,2.2345362,187.75833659999998,-45.1490904,120.65349564,64.07962272,15.25787154
5.16,516,0.631,-0.109,0.179,10.026765,202.88442780000003,-42.1697088,124.54961004,63.30612942000001,19.51494948
5.17,517,0.687,0.134,0.207,10.084060800000001,211.3069104,-54.0299394,128.45718359999998,62.44669242,23.82932322
5.18,518,1.696,0.688,0.126,-55.00396800000001,223.9692822,-115.56562859999998,132.37621632,61.83362736,28.92864942
5.1899999999999995,519,3.199,0.6579999999999999,-1.561,-37.1849742,126.05076,-132.926256,135.31549086,61.90238232,32.7159018
5.2,520,3.214,2.009,0.9009999999999999,23.491278,65.7182826,-222.59418300000002,139.49808425999998,62.89932924,37.16205588
5.21,521,2.526,0.523,3.557,116.4823614,409.4357868,-220.47423840000002,148.29298956,60.86532834,45.85955832
5.22,522,3.2910000000000004,-0.23,2.169,448.8552972,180.5963616,-143.0676126,156.50920728,59.89129974,50.09944752
5.2299999999999995,523,3.2760000000000002,0.298,1.127,315.7571538,263.9044548,-106.74207539999999,162.74871990000003,57.7541664,53.68043501999999
5.24,524,3.764,0.201,0.44799999999999995,249.8669838,104.278356,-82.1048814,166.91985413999996,56.94056604,55.64568095999999
5.25,525,3.8710000000000004,0.526,1.74,173.03331599999999,69.6716928,-69.32791800000001,169.89923574,56.3790672,57.1239126
5.26,526,3.61,0.988,1.348,150.85984140000005,-5.6149884000000005,-60.9054354,172.34576639999997,56.51084754,58.22399196
5.27,527,2.698,0.584,1.39,99.23632559999999,-13.636400400000001,-71.5624542,174.41987436,56.71711241999999,59.50168829999999
5.28,528,2.15,0.632,0.9520000000000001,62.8534926,3.0939732,-84.8550798,176.35074282,56.74576032,61.04294532
5.29,529,1.692,0.358,0.835,76.31800559999998,-3.2658606,-96.6580146,178.59673818,56.80878570000001,62.80765596
5.3,530,1.4140000000000001,0.46799999999999997,0.85,86.97502440000002,-14.8396122,-114.6488958,-178.74570726,56.94056604,64.9161414
5.31,531,1.2670000000000001,0.599,0.9109999999999999,94.42347840000001,-23.0329116,-127.3685634,-175.80643272,57.0952647,67.28245794
5.32,532,1.2830000000000001,0.109,0.821,64.3431834,-46.00852740000001,-117.2272068,-173.25104004,57.42185076000001,69.53418287999999
5.33,533,1.147,0.142,0.746,0.6302538000000001,-64.457775,-94.9391406,-171.600921,57.92605379999999,71.47078092000002
5.34,534,0.909,0.145,0.674,-33.002380800000005,-71.67704579999999,-80.61519059999998,-170.44354584,58.49901180000001,73.21830281999998
5.35,535,0.96,-0.183,0.44299999999999995,-35.17962120000001,-77.23473840000003,-73.5678072,-169.35492563999995,59.11780644,74.89706976
5.36,536,0.996,0.039,0.662,-17.6471064,-82.1048814,-71.79163740000001,-168.03712223999997,59.77097856,76.62740292000002
5.37,537,0.9359999999999999,0.099,0.662,-0.8021411999999999,-87.4333908,-56.3790672,-166.71358926,60.48717606,78.1514712
5.38,538,0.818,0.516,0.723,-3.0366774,-81.81840240000002,-45.3209778,-165.56194368,61.15753692,79.48646334
5.39,539,0.642,0.536,0.6629999999999999,0.8021411999999999,-71.44786260000002,-29.5646328,-164.65667004,61.75914282,80.500599
5.3999999999999995,540,0.628,0.442,0.5479999999999999,5.042030400000002,-58.15523699999999,-13.178034,-164.00349792,62.25188670000001,81.16523028
5.41,541,0.606,0.387,0.461,6.589017,-52.2537696,1.432395,-163.64826396,62.75036016,81.48035718
5.42,542,0.5920000000000001,0.37799999999999995,0.43799999999999994,6.1879464,-46.7533728,6.703608600000001,-163.42481034,63.20299698,81.65224458
5.43,543,0.583,0.376,0.419,4.583664,-45.263682,10.4278356,-163.29303000000004,63.66136338,81.74391786
5.4399999999999995,544,0.627,0.326,0.39799999999999996,4.6982555999999995,-42.112413000000004,16.558486199999994,-163.29303000000004,64.10254104,81.68089248
5.45,545,0.6579999999999999,0.33,0.395,0.286479,-40.2789474,20.912967000000002,-163.39043285999998,64.52652996,81.55484172
5.46,546,0.7090000000000001,0.344,0.386,-1.6615782,-37.24227,23.0902074,-163.62534564,64.9447893,81.30274019999997
5.47,547,0.7509999999999999,0.35,0.364,-0.9167328000000001,-35.17962120000001,24.0069402,-163.89463590000003,65.3458599,81.0162612
5.4799999999999995,548,0.7929999999999999,0.325,0.35700000000000004,-0.5156622000000001,-33.5753388,25.668518399999996,-164.21549238,65.72974176,80.66102724
5.49,549,0.83,0.261,0.31,-0.8021411999999999,-35.2942128,28.877083199999998,-164.60510382,66.14227152,80.23703832
5.5,550,0.838,0.153,0.27899999999999997,2.2345362,-39.534102000000004,35.9817624,-165.09211812,66.61782666,79.66980989999998
5.51,551,0.843,0.128,0.304,1.145916,-42.5707794,41.5967508,-165.73956066,67.1220297,78.95361240000003
5.52,552,0.866,0.166,0.312,0.6302538000000001,-41.252976000000004,44.175061799999995,-166.48440606,67.62623274,78.12855288
5.53,553,0.9159999999999999,0.129,0.287,1.7761698000000001,-35.236917,45.7793442,-167.33238390000002,68.0674104,77.18890176
5.54,554,0.927,0.076,0.294,-1.5469866,-31.741873200000004,49.388979600000006,-168.35797872,68.47421058,76.09455198
5.55,555,0.914,0.04,0.316,-1.9480572,-29.8511118,54.0299394,-169.56119052000003,68.8695516,74.82258522
5.56,556,0.9059999999999999,0.045,0.299,-4.1825934,-31.2835068,55.86340500000001,-170.86753475999996,69.2706222,73.46467476
5.57,557,0.9309999999999999,0.051,0.282,-5.0993262,-33.804522,55.6342218,-172.21971564,69.68315196,72.07238682
5.58,558,0.9540000000000001,0.049,0.268,-4.6409598,-35.2942128,55.11855960000001,-173.60054442,70.09568172,70.6457214
5.59,559,0.986,0.032,0.273,0.3437748,-36.2682414,54.8893764,-174.97564362,70.50821148,69.16748976
5.6,560,0.998,0.028999999999999998,0.301,0.5156622000000001,-33.9191136,54.3737142,-176.40230904,70.88636376,67.64915106
5.61,561,1.002,0.015,0.301,4.2398892,-32.257535399999995,52.0245864,-177.78313782,71.23586814000002,66.13654194
5.62,562,1.014,0.011000000000000001,0.304,7.6776372,-32.31483119999999,48.8160216,-179.08375248,71.56818378,64.67549904
5.63,563,1.011,-0.013999999999999999,0.326,9.8548776,-31.5699858,44.117765999999996,179.71973586,71.88331068,63.31185900000001
5.64,564,1.036,-0.018000000000000002,0.359,6.417129599999999,-31.111619399999995,38.27359439999999,178.63111566,72.18124884,62.09145846
5.6499999999999995,565,1.061,-0.015,0.35100000000000003,4.5263682,-34.262888399999994,33.2888598,177.63989832,72.51356448,60.99710868000001
5.66,566,1.074,-0.031,0.336,-2.9793816000000004,-34.7785506,29.507337,176.65441056,72.84015054,59.98870260000001
5.67,567,1.02,-0.121,0.325,-8.078707799999998,-33.0596766,24.809081399999997,175.7262186,73.15527744,59.1006177
5.68,568,0.943,-0.16899999999999998,0.278,-16.042824000000003,-29.9084076,19.136797199999997,174.87824075999995,73.43602686,58.37869062
5.6899999999999995,569,0.89,-0.166,0.292,-19.9389384,-28.418716800000002,13.9228794,174.13912494000004,73.70531712,57.81719178
5.7,570,0.909,-0.131,0.36,-22.631841,-25.496631,10.026765,173.46876408,73.94022989999998,57.35882538
5.71,571,0.866,-0.069,0.368,-27.043617600000005,-24.4653066,9.9121734,172.76402574,74.1694131,56.90618856
5.72,572,0.888,-0.053,0.34,-22.345361999999998,-22.517249399999997,13.2926256,171.98480286,74.37567798,56.33323056
5.7299999999999995,573,0.861,-0.102,0.27899999999999997,-16.042824000000003,-18.334656,16.673077799999998,171.15401376,74.53610622,55.6342218
5.74,574,0.8220000000000001,-0.153,0.171,-16.2147114,-13.5791046,15.928232399999999,170.35187256,74.64496824,54.96959052
5.75,575,0.826,-0.16399999999999998,0.11699999999999999,-17.589810600000003,-13.0634424,12.1467096,169.60702716,74.76528942,54.38517336000001
5.76,576,0.815,-0.15,0.135,-17.4179232,-14.381245800000002,6.589017,169.10282411999995,74.89706976,54.04712814
5.77,577,0.858,-0.162,0.156,-13.178034,-13.407217200000002,1.0886202,168.84499302,75.0288501,53.91534779999999
5.78,578,0.8809999999999999,-0.159,0.174,-9.453807,-9.1100322,-4.8128472,168.86791134,75.12625296,54.03566897999999
5.79,579,0.93,-0.158,0.166,-8.59437,-3.7242269999999995,-11.45916,169.17157908,75.18354876,54.44819874
5.8,580,0.919,-0.15,0.165,-7.9641161999999985,-2.0053530000000004,-15.6417534,169.57837926,75.24657413999998,54.95240177999999
5.81,581,0.943,-0.111,0.174,-10.7143146,-2.1199446,-19.767051000000002,170.19144432000004,75.30386994,55.70297676
5.82,582,0.945,-0.077,0.17300000000000001,-12.6623718,-4.4117766,-21.657812399999997,170.84461644,75.38408405999998,56.51084754
5.83,583,0.9259999999999999,-0.034,0.17600000000000002,-13.8082878,-6.6463128000000005,-21.657812399999997,171.49205898,75.48148692,57.31871832
5.84,584,0.9129999999999999,-0.004,0.166,-14.266654199999998,-8.021412000000002,-21.0848544,172.11085362,75.59607852,58.10940036
5.85,585,0.889,0.002,0.152,-12.5477802,-8.021412000000002,-20.626488000000002,172.75829616,75.71067012,58.91154156
5.86,586,0.897,-0.009000000000000001,0.159,-9.5111028,-6.417129599999999,-21.027558600000006,173.45730492,75.80234340000001,59.72514192
5.87,587,0.9229999999999999,-0.027000000000000003,0.187,-7.5630456000000015,-3.0939732,-21.657812399999997,174.21360948,75.85390962,60.59030849999999
5.88,588,0.953,-0.040999999999999995,0.209,-7.3911582,-0.286479,-22.1734746,175.00429151999995,75.88255752,61.48412298
5.89,589,0.973,-0.033,0.237,-9.7975818,1.3178034,-22.4599536,175.78924398,75.88255752,62.39512620000001
5.8999999999999995,590,1.002,-0.016,0.267,-12.032118,1.6042823999999998,-21.7151082,176.53408938,75.88255752,63.28894068
5.91,591,1.034,0.0,0.29100000000000004,-12.3758928,0.3437748,-19.652459399999998,177.18153192,75.88828709999999,64.0853523
5.92,592,1.043,0.009000000000000001,0.293,-12.5477802,-2.4064236,-17.0741484,177.72011244,75.92266457999997,64.7729019
5.93,593,1.0490000000000002,0.015,0.295,-12.4904844,-3.3231564,-14.667724800000002,178.17274926,75.96277164,65.36877822
5.9399999999999995,594,1.042,0.019,0.294,-11.802934800000001,-2.8074942000000003,-12.776963400000001,178.55663112,75.99714911999997,65.89017
5.95,595,1.0290000000000001,0.009000000000000001,0.27399999999999997,-10.657018800000001,-1.7188740000000002,-11.5164558,178.92332424,76.01433786,66.38291388
5.96,596,1.013,0.005,0.262,-10.2559482,-0.286479,-10.4851314,179.23845114,76.02006744,66.80690279999999
5.97,597,0.998,0.009000000000000001,0.273,-9.453807,1.0886202,-9.682990199999999,179.52493013999995,76.01433786,67.20224381999999
5.9799999999999995,598,1.0,0.009000000000000001,0.295,-6.4744254,1.0313244000000001,-9.224623800000002,179.8228683,76.00287870000002,67.58039609999999
5.99,599,1.002,0.018000000000000002,0.304,-5.0993262,0.286479,-9.167328,-179.86297536,75.99714911999997,67.9528188
6.0,600,1.004,0.027999999999999997,0.314,-3.2658606,-0.6875496,-8.8235532,-179.46763434,75.97996038,68.38826688
6.01,601,1.011,0.04,0.311,-2.5783110000000002,-1.0886202,-8.250595200000001,-179.1639666,75.99141954000002,68.72631209999999
6.02,602,1.011,0.046,0.287,-1.432395,-1.3750992,-7.2765666,-178.88894676,76.00287870000002,69.02997984
6.03,603,0.996,0.044000000000000004,0.257,-0.1718874,-0.8594370000000001,-5.6149884000000005,-178.65976356,76.01433786,69.26489262
6.04,604,0.991,0.032,0.243,1.4896908000000002,-0.057295800000000015,-4.4117766,-178.47068742000005,76.01433786,69.44823918
6.05,605,0.985,0.027999999999999997,0.23399999999999999,2.7501984,0.5156622000000001,-3.7815228,-178.18420842,76.02579702,69.7003407
6.06,606,0.9840000000000001,0.027000000000000003,0.226,3.8388186,0.8021411999999999,-2.9793816000000004,-178.02950976,76.01433786,69.82639146
6.07,607,0.987,0.033,0.228,4.5263682,0.11459160000000004,-1.6042823999999998,-177.91491816,76.01433786,69.88941684
6.08,608,0.99,0.037000000000000005,0.23800000000000002,5.2712136,-1.3750992,0.11459160000000004,-177.86335193999997,76.02579702,69.88941684
6.09,609,0.9940000000000001,0.039,0.245,5.5003968,-2.5783110000000002,1.8334656000000005,-177.87481110000004,76.05444492,69.82066188
6.1,610,0.9940000000000001,0.037000000000000005,0.243,5.443101,-3.4950437999999995,3.9534102,-177.89199983999995,76.09455198,69.74044776000001
6.11,611,0.993,0.034,0.23199999999999998,5.042030400000002,-4.5263682,5.958763200000001,-178.06388724,76.14038862,69.50553498000001
6.12,612,0.99,0.03,0.22399999999999998,4.6409598,-5.443101,7.9641161999999985,-178.32744792,76.19768442,69.19040808
6.13,613,0.985,0.025,0.226,4.3544808,-5.7868758000000025,9.5111028,-178.65403398,76.25498022,68.80652622
6.14,614,0.981,0.016,0.217,4.0680017999999984,-6.0733548,10.886202,-179.03791584,76.31800559999998,68.36534856
6.15,615,0.9740000000000001,0.0,0.2,3.4950437999999995,-6.4744254,11.802934800000001,-179.46763434,76.39821972,67.88406384
6.16,616,0.9640000000000001,-0.008,0.2,2.86479,-6.7609043999999985,12.3758928,-179.93745990000005,76.46697467999998,67.36840163999999
6.17,617,0.968,-0.013000000000000001,0.203,2.0626488000000003,-6.9327918,12.4904844,179.57076678,76.53572964,66.84700986
6.18,618,0.9690000000000001,-0.015,0.21100000000000002,2.5783110000000002,-7.0473834,11.8602306,179.10667080000005,76.60448459999998,66.34280681999999
6.1899999999999995,619,0.97,-0.021,0.21600000000000005,2.3491277999999998,-6.6463128000000005,11.2299768,178.66549314,76.66750998,65.86152209999999
6.2,620,0.972,-0.025,0.223,2.2345362,-6.2452422,10.2559482,178.24150422,76.73053536,65.40315569999999
6.21,621,0.976,-0.031,0.23,2.0626488000000003,-5.1566220000000005,9.224623800000002,177.87481110000004,76.78210157999997,65.0020851
6.22,622,0.978,-0.033,0.23399999999999999,1.5469866,-4.1252976000000015,8.078707799999998,177.54822503999995,76.81647905999998,64.64685114
6.2299999999999995,623,0.975,-0.037000000000000005,0.226,1.145916,-2.9793816000000004,6.5317212,177.27893478,76.84512696,64.36037214000001
6.24,624,0.973,-0.038,0.225,0.9167328000000001,-1.3178034,4.8128472,177.07839947999997,76.85658612,64.14837768
6.25,625,0.975,-0.039,0.225,1.2032118,-0.057295800000000015,3.380452200000001,176.83775712000005,76.87950443999998,63.89054658
6.26,626,0.9740000000000001,-0.042,0.21899999999999997,1.4896908000000002,0.6875496,1.7188740000000002,176.78046132,76.86804528,63.81606204
6.27,627,0.977,-0.042,0.218,1.7188740000000002,1.145916,0.1718874,176.79192048,76.85658612,63.81033246000001
6.28,628,0.98,-0.033,0.223,1.2032118,1.2032118,-1.0886202,176.84921628,76.84512696,63.86189868
6.29,629,0.982,-0.031,0.22399999999999998,1.8907614,0.9167328000000001,-2.1772404,176.96380788,76.83939738000002,63.95930154
6.3,630,0.983,-0.027999999999999997,0.222,1.6615782,0.8021411999999999,-3.1512689999999997,177.08985864000005,76.85085654000002,64.06816356
6.31,631,0.982,-0.023,0.22399999999999998,0.572958,0.9167328000000001,-3.9534102,177.26747562,76.83939738000002,64.24578054
6.32,632,0.98,-0.019,0.21899999999999997,0.0,1.0313244000000001,-4.5263682,177.45655176,76.8336678,64.44058626
6.33,633,0.973,-0.02,0.212,-0.286479,1.2605076000000002,-4.8701430000000006,177.66281664000005,76.82220864,64.65831030000001
6.34,634,0.97,-0.017,0.212,-0.8021411999999999,1.7761698000000001,-5.3858052,177.88627026,76.80501989999998,64.89322308000001
6.35,635,0.972,-0.013999999999999999,0.21100000000000002,-0.6875496,2.2345362,-5.844171599999999,178.13264220000005,76.80501989999998,65.15678376
6.36,636,0.973,-0.012,0.209,-0.6302538000000001,2.7501984,-6.1879464,178.3904733,76.78210157999997,65.4318036
6.37,637,0.976,-0.006999999999999999,0.212,-0.9740286,3.3231564,-6.417129599999999,178.65403398,76.7477241,65.70682344000001
6.38,638,0.98,-0.002,0.218,-1.145916,3.4950437999999995,-6.2452422,178.90040592,76.71334662,65.97611370000001
6.39,639,0.9840000000000001,0.003,0.228,-1.3178034,3.5523396000000003,-5.6149884000000005,179.12385954,76.67896913999998,66.22248564
6.4,640,0.987,0.006999999999999999,0.23600000000000002,-1.5469866,3.6096353999999997,-4.8128472,179.36450190000005,76.65032124000003,66.48604631999999
6.41,641,0.987,0.006999999999999999,0.23800000000000002,-1.6042823999999998,3.6096353999999997,-4.0680017999999984,179.51920056,76.61594376000002,66.65793372
6.42,642,0.986,0.008,0.23600000000000002,-1.8334656000000005,3.6669312000000014,-3.2085647999999996,179.62806258,76.57583670000002,66.78971406
6.43,643,0.9840000000000001,0.008,0.235,-1.8907614,3.8388186,-2.4064236,179.70254712000005,76.54145922000002,66.88711692
6.4399999999999995,644,0.982,0.009000000000000001,0.233,-1.6615782,3.7815228,-1.8907614,179.76557250000005,76.50135216,66.96733104
6.45,645,0.983,0.008,0.233,-1.0886202,3.6669312000000014,-1.3750992,179.89735284,76.47843384000002,67.11057054
6.46,646,0.986,0.009000000000000001,0.239,-0.8594370000000001,3.6669312000000014,-0.9740286,179.92600074,76.44405636,67.14494801999999
6.47,647,0.9890000000000001,0.008,0.245,-0.8594370000000001,4.010706000000001,-0.40107059999999994,179.92600074,76.40394930000002,67.16213676
6.4799999999999995,648,0.99,0.006999999999999999,0.243,-0.9740286,4.1252976000000015,0.11459160000000004,179.90881199999995,76.36384224,67.15067760000001
6.49,649,0.99,0.005,0.247,-1.0313244000000001,4.0680017999999984,0.572958,179.86870494,76.32373518,67.1220297
6.5,650,0.99,0.004,0.251,-1.3178034,3.7815228,1.0313244000000001,179.86870494,76.28935770000002,67.13348886
6.51,651,0.987,0.004,0.244,-1.0886202,3.2085647999999996,1.2605076000000002,179.79994998,76.25498022,67.07619306000001
6.52,652,0.987,0.002,0.23800000000000002,-0.8021411999999999,2.9220858,1.5469866,179.72546544,76.22633232000003,67.0074381
6.53,653,0.988,0.0,0.24,-0.9167328000000001,2.86479,1.7761698000000001,179.63952174000005,76.19768442,66.92722398
6.54,654,0.988,0.001,0.24,-1.0886202,2.5210152000000003,1.9480572,179.54784846,76.1747661,66.84128028
6.55,655,0.988,0.003,0.24100000000000002,-0.6875496,2.2345362,2.1772404,179.52493013999995,76.16903651999998,66.82409154000001
6.56,656,0.988,0.0,0.245,-0.3437748,2.0626488000000003,2.6356068,179.41033854,76.14611819999998,66.71522952000001
6.57,657,0.986,-0.003,0.245,-0.6302538000000001,1.9480572,2.9220858,179.28428778,76.12892946000002,66.58917876000001
6.58,658,0.986,-0.005,0.245,-1.0886202,1.7761698000000001,3.0366774,179.15250744,76.10601113999998,66.463128
6.59,659,0.985,-0.004,0.247,-1.145916,1.5469866,3.0939732,179.01499752,76.09455198,66.33134765999999
6.6,660,0.983,-0.005,0.249,-0.9167328000000001,1.0313244000000001,2.9793816000000004,178.93478340000001,76.0888224,66.25686312
6.61,661,0.981,-0.008,0.243,-0.4583664000000001,0.6302538000000001,2.86479,178.81446222,76.08309282,66.13654194
6.62,662,0.98,-0.01,0.243,-0.286479,0.4583664000000001,2.6929026,178.69987062,76.07736324,66.02195034
6.63,663,0.981,-0.011000000000000001,0.244,-0.11459160000000004,0.3437748,2.4637194,178.60246776000002,76.07163366,65.92454748
6.64,664,0.9790000000000001,-0.011000000000000001,0.242,0.0,0.11459160000000004,2.1199446,178.51652406,76.07163366,65.8328742
6.65,665,0.98,-0.013000000000000001,0.24,0.1718874,0.057295800000000015,1.8907614,178.48787615999996,76.10601113999998,65.79849672
6.66,666,0.981,-0.013999999999999999,0.243,0.2291832000000001,0.11459160000000004,1.5469866,178.43058036,76.10601113999998,65.73547134
6.67,667,0.982,-0.013999999999999999,0.243,0.4583664000000001,0.11459160000000004,1.2605076000000002,178.38474372000005,76.10601113999998,65.68390511999999
6.68,668,0.983,-0.013000000000000001,0.243,0.6302538000000001,-0.1718874,0.9167328000000001,178.35036624,76.10601113999998,65.64379806000001
6.6899999999999995,669,0.9840000000000001,-0.013000000000000001,0.24600000000000002,0.572958,-0.4583664000000001,0.6875496,178.32744792,76.11174072,65.61515016
6.7,670,0.985,-0.01,0.251,0.5156622000000001,-0.7448454000000001,0.4583664000000001,178.41912119999995,76.13465904,65.69536428
6.71,671,0.982,-0.01,0.247,0.6875496,-0.9167328000000001,0.2291832000000001,178.41912119999995,76.14611819999998,65.68390511999999
6.72,672,0.981,-0.013999999999999999,0.24,1.0313244000000001,-0.8594370000000001,0.0,178.43058036,76.15184778,65.68390511999999
6.7299999999999995,673,0.983,-0.015,0.23800000000000002,0.7448454000000001,-0.9740286,-0.3437748,178.45349868,76.16330694,65.70109386
6.74,674,0.983,-0.013000000000000001,0.235,0.6302538000000001,-1.0886202,-0.7448454000000001,178.49360574,76.1747661,65.73547134
6.75,675,0.9840000000000001,-0.011000000000000001,0.23399999999999999,0.8021411999999999,-1.2032118,-1.0313244000000001,178.58527902,76.22060274,65.81568546
6.76,676,0.983,-0.01,0.235,1.0313244000000001,-1.3178034,-1.0886202,178.64257482,76.23206189999998,65.86725168000001
6.77,677,0.983,-0.006999999999999999,0.239,0.9167328000000001,-1.2605076000000002,-1.145916,178.69987062,76.24352106,65.91308832
6.78,678,0.983,-0.006999999999999999,0.239,0.7448454000000001,-1.0313244000000001,-1.145916,178.75716642,76.25498022,65.96465454
6.79,679,0.982,-0.006999999999999999,0.239,0.6302538000000001,-0.8021411999999999,-1.2032118,178.81446222,76.26643938,66.01622076
6.8,680,0.9790000000000001,-0.005,0.239,0.286479,-0.7448454000000001,-1.0313244000000001,178.9634313,76.30654644,66.15946026
6.81,681,0.976,-0.006,0.233,0.1718874,-1.0313244000000001,-1.0313244000000001,179.00926794,76.31800559999998,66.20529690000001
6.82,682,0.976,-0.006,0.231,0.3437748,-1.2032118,-0.9740286,179.05510458,76.32946476,66.24540396
6.83,683,0.977,-0.006,0.23,0.6302538000000001,-1.2032118,-0.9167328000000001,179.10094122,76.34092392,66.28551102
6.84,684,0.977,-0.006,0.22699999999999998,0.572958,-1.0886202,-0.9740286,179.14677786,76.35238308000002,66.32561808
6.85,685,0.9790000000000001,-0.005,0.22899999999999998,0.572958,-0.7448454000000001,-0.9167328000000001,179.29574694000004,76.40967888,66.46885758
6.86,686,0.98,-0.003,0.235,0.7448454000000001,-0.286479,-0.6875496,179.33585399999996,76.41540846000002,66.49750548
6.87,687,0.98,0.0,0.239,0.7448454000000001,0.0,-0.5156622000000001,179.36450190000005,76.41540846000002,66.52042379999999
6.88,688,0.982,-0.002,0.23800000000000002,0.5156622000000001,0.11459160000000004,-0.1718874,179.37596105999995,76.40967888,66.53188295999999
6.89,689,0.9840000000000001,-0.003,0.23600000000000002,0.3437748,0.2291832000000001,0.0,179.38169064,76.40967888,66.52615338000001
6.9,690,0.982,-0.004,0.23800000000000002,0.11459160000000004,0.0,0.11459160000000004,179.84005704,76.53572964,66.96160146
6.91,691,0.9790000000000001,-0.004,0.235,0.057295800000000015,0.0,0.2291832000000001,179.82859788,76.53572964,66.95587187999999
6.92,692,0.98,-0.004,0.23399999999999999,0.1718874,-0.11459160000000004,0.2291832000000001,179.81713872,76.54145922000002,66.94441271999999
6.93,693,0.982,-0.005,0.23600000000000002,0.057295800000000015,-0.1718874,0.2291832000000001,179.81140914,76.54145922000002,66.93295356
6.9399999999999995,694,0.981,-0.004,0.23800000000000002,-0.1718874,0.0,0.2291832000000001,179.79994998,76.54145922000002,66.9214944
6.95,695,0.983,-0.003,0.233,-0.11459160000000004,0.2291832000000001,0.286479,179.98329654,76.62167334,67.09911138
6.96,696,0.981,-0.005,0.23399999999999999,-0.1718874,0.572958,0.3437748,179.96610780000003,76.61594376000002,67.08192264
6.97,697,0.983,-0.005,0.237,-0.2291832000000001,0.572958,0.5156622000000001,179.94318948,76.61021418,67.05900432000001
6.9799999999999995,698,0.983,-0.005,0.23600000000000002,-0.40107059999999994,0.572958,0.5156622000000001,179.91454158,76.60448459999998,67.036086
6.99,699,0.9840000000000001,-0.004,0.23600000000000002,-0.286479,0.6302538000000001,0.5156622000000001,179.88589368,76.59875502,67.01316768000001
7.0,700,0.9840000000000001,-0.006,0.239,-0.2291832000000001,0.6875496,0.6302538000000001,179.90881199999995,76.60448459999998,67.03035642
7.01,701,0.9840000000000001,-0.005,0.242,-0.4583664000000001,0.6875496,0.6302538000000001,179.87443452,76.59875502,67.0074381
7.02,702,0.982,-0.004,0.24,-0.5156622000000001,0.6875496,0.6302538000000001,179.84005704,76.58729586000003,66.97306062
7.03,703,0.983,-0.005,0.23800000000000002,-0.4583664000000001,0.8021411999999999,0.6875496,179.80567956,76.58156627999998,66.94441271999999
7.04,704,0.981,-0.006999999999999999,0.237,-0.5156622000000001,0.5156622000000001,0.6875496,179.77130208,76.57583670000002,66.91576482
7.05,705,0.981,-0.006999999999999999,0.23600000000000002,-0.5156622000000001,0.40107059999999994,0.6302538000000001,179.78849082000005,76.59875502,66.93868314
7.06,706,0.981,-0.006,0.23800000000000002,-0.40107059999999994,0.4583664000000001,0.6302538000000001,179.75984291999995,76.59302543999998,66.91003524
7.07,707,0.98,-0.006999999999999999,0.239,-0.286479,0.2291832000000001,0.5156622000000001,179.73119502,76.59302543999998,66.88711692
7.08,708,0.98,-0.006999999999999999,0.23800000000000002,-0.3437748,0.11459160000000004,0.5156622000000001,179.70254712000005,76.59302543999998,66.85846902
7.09,709,0.98,-0.006999999999999999,0.23800000000000002,-0.40107059999999994,0.057295800000000015,0.5156622000000001,179.67962880000005,76.59302543999998,66.8355507
7.1,710,0.981,-0.006999999999999999,0.23800000000000002,-0.11459160000000004,0.0,0.5156622000000001,179.78849082000005,76.64459166,66.94441271999999
7.11,711,0.983,-0.006,0.237,0.0,0.1718874,0.5156622000000001,179.76557250000005,76.64459166,66.9214944
7.12,712,0.9840000000000001,-0.008,0.239,0.0,0.11459160000000004,0.5156622000000001,179.74265418,76.64459166,66.89857608
7.13,713,0.983,-0.008,0.23800000000000002,0.057295800000000015,0.11459160000000004,0.40107059999999994,179.72546544,76.63886208,66.87565776
7.14,714,0.985,-0.006999999999999999,0.242,0.11459160000000004,0.1718874,0.3437748,179.71400627999995,76.63886208,66.86419860000001
7.15,715,0.982,-0.008,0.242,0.057295800000000015,0.057295800000000015,0.2291832000000001,179.80567956,76.69615788,66.95014230000001
7.16,716,0.982,-0.01,0.24,0.11459160000000004,0.057295800000000015,0.1718874,179.79994998,76.69615788,66.94441271999999
7.17,717,0.98,-0.008,0.239,0.057295800000000015,-0.11459160000000004,0.11459160000000004,179.7942204,76.69615788,66.93868314
7.18,718,0.981,-0.006999999999999999,0.237,0.11459160000000004,-0.11459160000000004,0.057295800000000015,179.7942204,76.69615788,66.93295356
7.1899999999999995,719,0.982,-0.006999999999999999,0.23800000000000002,0.286479,-0.057295800000000015,0.0,179.79994998,76.70188746,66.93868314
7.2,720,0.983,-0.006,0.24,0.057295800000000015,-0.1718874,-0.11459160000000004,179.97183738,76.7190762,67.10484096
7.21,721,0.9840000000000001,-0.005,0.243,0.057295800000000015,-0.5156622000000001,-0.057295800000000015,179.97756696,76.72480578,67.10484096
7.22,722,0.9840000000000001,-0.004,0.242,0.0,-0.572958,0.0,179.98329654,76.73053536,67.11057054
7.2299999999999995,723,0.985,-0.006,0.242,0.057295800000000015,-0.2291832000000001,0.0,179.98329654,76.73626494,67.11057054
7.24,724,0.986,-0.006999999999999999,0.245,-0.2291832000000001,-0.3437748,0.11459160000000004,179.97756696,76.73626494,67.10484096
7.25,725,0.982,-0.008,0.243,-0.4583664000000001,-0.572958,0.0,-179.99475569999996,76.73626494,67.13348886
7.26,726,0.98,-0.008,0.239,-0.11459160000000004,-0.9167328000000001,-0.4583664000000001,-179.97756696,76.7477241,67.15640718
7.27,727,0.9790000000000001,-0.009000000000000001,0.23600000000000002,0.2291832000000001,-1.2032118,-0.6875496,-179.94318948,76.75918326,67.18505508000001
7.28,728,0.9790000000000001,-0.01,0.235,0.40107059999999994,-1.3178034,-0.8021411999999999,-179.89735284,76.77064241999999,67.22516214
7.29,729,0.9790000000000001,-0.008,0.23399999999999999,0.40107059999999994,-1.145916,-1.0313244000000001,-179.84578661999996,76.78783116,67.27672836
7.3,730,0.978,-0.006999999999999999,0.233,0.6875496,-1.0313244000000001,-1.145916,-179.78276124,76.80501989999998,67.33402416
7.31,731,0.9790000000000001,-0.006,0.233,0.6302538000000001,-0.9167328000000001,-1.145916,-179.71973586,76.81074948,67.38559038
7.32,732,0.9790000000000001,-0.006,0.23199999999999998,0.7448454000000001,-0.8021411999999999,-1.0313244000000001,-179.66816964,76.82220864,67.43715660000001
7.33,733,0.982,-0.005,0.233,0.6875496,-0.6302538000000001,-1.0313244000000001,-179.61087384,76.82793822,67.48299324000001
7.34,734,0.9840000000000001,-0.002,0.237,0.6302538000000001,-0.5156622000000001,-0.8594370000000001,-179.57076678,76.8336678,67.5231003
7.35,735,0.983,-0.002,0.237,0.6302538000000001,-0.5156622000000001,-0.6302538000000001,-179.46763434,76.84512696,67.61477357999999
7.36,736,0.983,-0.003,0.233,0.6875496,-0.7448454000000001,-0.5156622000000001,-179.43898644,76.85658612,67.63769190000001
7.37,737,0.983,-0.003,0.235,0.572958,-0.7448454000000001,-0.2291832000000001,-179.41606812,76.8623157,67.64915106
7.38,738,0.9840000000000001,-0.002,0.237,0.40107059999999994,-0.8021411999999999,-0.11459160000000004,-179.40460896,76.86804528,67.66061022
7.39,739,0.983,-0.002,0.23600000000000002,0.5156622000000001,-0.8021411999999999,-0.057295800000000015,-179.3931498,76.87950443999998,67.66633979999999
7.4,740,0.983,-0.003,0.235,0.572958,-0.8021411999999999,0.0,-179.34158358,76.89669318,67.71217644
7.41,741,0.982,-0.006,0.23399999999999999,0.40107059999999994,-0.8021411999999999,0.11459160000000004,-179.34158358,76.90815234,67.70644686
7.42,742,0.982,-0.005,0.233,0.2291832000000001,-0.6302538000000001,0.1718874,-179.34158358,76.91388192,67.70071728
7.43,743,0.982,-0.003,0.23199999999999998,0.1718874,-0.4583664000000001,0.1718874,-179.35304274,76.9196115,67.68925812
7.4399999999999995,744,0.982,-0.004,0.237,0.286479,-0.057295800000000015,0.2291832000000001,-179.35877232,76.9196115,67.68352854000001
7.45,745,0.98,-0.005,0.235,0.11459160000000004,0.11459160000000004,0.1718874,-179.29574694000004,76.9482594,67.73509476
7.46,746,0.981,-0.004,0.233,0.057295800000000015,0.2291832000000001,0.2291832000000001,-179.3072061,76.94252982,67.7236356
7.47,747,0.98,-0.005,0.233,-0.11459160000000004,0.2291832000000001,0.286479,-179.32439484,76.94252982,67.71217644
7.4799999999999995,748,0.978,-0.005,0.233,-0.057295800000000015,0.11459160000000004,0.3437748,-179.34158358,76.94252982,67.6949877
7.49,749,0.977,-0.006,0.231,0.057295800000000015,0.057295800000000015,0.286479,-179.35877232,76.94252982,67.67779895999999
7.5,750,0.9790000000000001,-0.008,0.23399999999999999,0.1718874,0.057295800000000015,0.286479,-179.38742022000002,76.95398897999998,67.64342148
7.51,751,0.98,-0.008,0.23600000000000002,0.057295800000000015,0.1718874,0.11459160000000004,-179.3931498,76.95398897999998,67.63769190000001
7.52,752,0.981,-0.006,0.23600000000000002,0.0,0.5156622000000001,0.057295800000000015,-179.3931498,76.9482594,67.63769190000001
7.53,753,0.981,-0.005,0.23600000000000002,0.0,0.3437748,0.0,-179.39887937999995,76.9482594,67.63196232
7.54,754,0.983,-0.006999999999999999,0.239,0.0,0.1718874,0.057295800000000015,-179.39887937999995,76.94252982,67.63196232
7.55,755,0.982,-0.006999999999999999,0.239,0.0,0.0,0.0,-179.3072061,76.9482594,67.7236356
7.56,756,0.982,-0.006999999999999999,0.23800000000000002,-0.057295800000000015,0.0,-0.057295800000000015,-179.30147652,76.9482594,67.7236356
7.57,757,0.982,-0.008,0.23800000000000002,0.0,0.11459160000000004,-0.286479,-179.29001736,76.9482594,67.74082434
7.58,758,0.982,-0.006999999999999999,0.23800000000000002,-0.11459160000000004,0.2291832000000001,-0.40107059999999994,-179.27282862,76.9482594,67.75801308
7.59,759,0.983,-0.005,0.237,0.0,0.057295800000000015,-0.4583664000000001,-179.2499103,76.94252982,67.7809314
7.6,760,0.983,-0.005,0.237,0.11459160000000004,0.0,-0.5156622000000001,-179.17542576,76.9482594,67.85541594
7.61,761,0.9840000000000001,-0.005,0.23800000000000002,0.11459160000000004,0.0,-0.4583664000000001,-179.15250744,76.9482594,67.87260468
7.62,762,0.9840000000000001,-0.005,0.23800000000000002,0.2291832000000001,0.0,-0.40107059999999994,-179.12958912,76.9482594,67.895523
7.63,763,0.9840000000000001,-0.005,0.23800000000000002,0.2291832000000001,0.0,-0.40107059999999994,-179.11240038,76.9482594,67.91271173999999
7.64,764,0.9840000000000001,-0.006,0.239,0.1718874,-0.057295800000000015,-0.286479,-179.09521164,76.9482594,67.92417090000001
7.65,765,0.982,-0.005,0.23800000000000002,0.2291832000000001,-0.3437748,-0.3437748,-179.0780229,76.95398897999998,67.94135964
7.66,766,0.982,-0.006,0.23800000000000002,0.286479,-0.40107059999999994,-0.3437748,-179.06083415999996,76.95971856,67.95854838
7.67,767,0.981,-0.006,0.237,0.286479,-0.4583664000000001,-0.40107059999999994,-179.03791584,76.96544814,67.97573712
7.68,768,0.98,-0.006,0.23600000000000002,0.1718874,-0.4583664000000001,-0.572958,-179.00926794,76.97117771999999,68.00438502
7.6899999999999995,769,0.98,-0.006,0.23399999999999999,0.057295800000000015,-0.2291832000000001,-0.572958,-178.98062004000005,76.97117771999999,68.03303292000001
7.7,770,0.98,-0.005,0.23199999999999998,0.1718874,-0.057295800000000015,-0.6302538000000001,-178.92905381999995,76.98836646,68.07886956
7.71,771,0.982,-0.004,0.23199999999999998,0.2291832000000001,0.0,-0.572958,-178.90040592,76.98836646,68.10751746
7.72,772,0.982,-0.005,0.233,0.40107059999999994,0.057295800000000015,-0.5156622000000001,-178.87175802000004,76.98836646,68.13043578
7.7299999999999995,773,0.983,-0.004,0.235,0.3437748,-0.057295800000000015,-0.3437748,-178.85456928000005,76.98836646,68.14762452
7.74,774,0.983,-0.004,0.237,0.286479,-0.057295800000000015,-0.057295800000000015,-178.84311011999995,76.98836646,68.1533541
7.75,775,0.9840000000000001,-0.004,0.235,0.2291832000000001,-0.057295800000000015,0.0,-178.79727348,77.01128478000003,68.19346116
7.76,776,0.9840000000000001,-0.004,0.235,0.286479,-0.1718874,0.057295800000000015,-178.80300306,77.01128478000003,68.18773158
7.77,777,0.9840000000000001,-0.005,0.23600000000000002,0.1718874,0.0,0.057295800000000015,-178.80300306,77.01128478000003,68.18773158
7.78,778,0.981,-0.005,0.23800000000000002,0.057295800000000015,0.057295800000000015,0.11459160000000004,-178.80873264,77.01128478000003,68.17627242
7.79,779,0.98,-0.005,0.235,0.2291832000000001,-0.1718874,0.1718874,-178.81446222,77.01128478000003,68.17054284
7.8,780,0.98,-0.006999999999999999,0.235,0.2291832000000001,-0.1718874,0.057295800000000015,-178.83738054,77.02847352,68.14762452
7.81,781,0.982,-0.005,0.233,0.2291832000000001,-0.11459160000000004,0.11459160000000004,-178.84311011999995,77.02847352,68.14189494000001
7.82,782,0.98,-0.005,0.231,0.1718874,0.057295800000000015,0.0,-178.84311011999995,77.02847352,68.13616535999999
7.83,783,0.982,-0.006,0.23199999999999998,0.1718874,0.3437748,0.0,-178.84311011999995,77.02847352,68.13616535999999
7.84,784,0.983,-0.006,0.23600000000000002,0.057295800000000015,0.1718874,0.11459160000000004,-178.84311011999995,77.02274394,68.13043578
7.85,785,0.985,-0.005,0.239,0.057295800000000015,0.0,0.1718874,-178.81446222,77.01701435999998,68.1533541
7.86,786,0.9840000000000001,-0.004,0.23800000000000002,0.0,0.2291832000000001,0.286479,-178.83165096,77.01128478000003,68.14189494000001
7.87,787,0.983,-0.006,0.237,-0.1718874,0.40107059999999994,0.286479,-178.84883969999996,77.00555519999998,68.1247062
7.88,788,0.982,-0.006,0.243,-0.5156622000000001,0.40107059999999994,0.40107059999999994,-178.87175802000004,77.00555519999998,68.10751746
7.89,789,0.98,-0.005,0.244,-0.9167328000000001,0.2291832000000001,0.286479,-178.90040592,76.99982562,68.09032872
7.9,790,0.98,-0.004,0.23800000000000002,-0.7448454000000001,-0.11459160000000004,0.1718874,-178.9061355,77.00555519999998,68.09032872
7.91,791,0.978,-0.006999999999999999,0.237,-0.6875496,-0.3437748,0.0,-178.91186507999996,77.00555519999998,68.09032872
7.92,792,0.977,-0.009000000000000001,0.23399999999999999,-0.9167328000000001,-0.2291832000000001,-0.11459160000000004,-178.91759466000005,77.01128478000003,68.09605830000001
7.93,793,0.978,-0.009000000000000001,0.233,-0.9740286,0.0,-0.286479,-178.91186507999996,77.01128478000003,68.10751746
7.94,794,0.9790000000000001,-0.008,0.23399999999999999,-0.8594370000000001,0.057295800000000015,-0.572958,-178.89467634,77.01128478000003,68.13616535999999
7.95,795,0.98,-0.006,0.235,-0.6302538000000001,0.057295800000000015,-0.6875496,-178.87175802000004,77.01128478000003,68.16481326
7.96,796,0.981,-0.006,0.23199999999999998,-0.4583664000000001,0.11459160000000004,-0.6875496,-178.84883969999996,77.01128478000003,68.19919074
7.97,797,0.982,-0.005,0.233,-0.40107059999999994,0.11459160000000004,-0.7448454000000001,-178.8201918,77.01128478000003,68.23356822000001
7.9799999999999995,798,0.9840000000000001,-0.004,0.237,-0.4583664000000001,0.0,-0.7448454000000001,-178.7915439,77.01128478000003,68.2679457
7.99,799,0.985,-0.004,0.24,-0.4583664000000001,-0.1718874,-0.7448454000000001,-178.76289599999996,77.01128478000003,68.30232318
8.0,800,0.986,-0.002,0.242,-0.4583664000000001,-0.286479,-0.7448454000000001,-178.72278894000004,77.00555519999998,68.34815982
8.01,801,0.985,-0.004,0.24100000000000002,-0.4583664000000001,-0.11459160000000004,-0.6875496,-178.69987062,77.01128478000003,68.37680772
8.02,802,0.985,-0.005,0.23600000000000002,-0.4583664000000001,-0.11459160000000004,-0.6875496,-178.67122272,77.01128478000003,68.40545562
8.03,803,0.987,-0.005,0.235,-0.3437748,-0.2291832000000001,-0.8021411999999999,-178.63684524,77.01128478000003,68.44556268
8.04,804,0.988,-0.005,0.23399999999999999,-0.11459160000000004,-0.4583664000000001,-0.572958,-178.61392691999995,77.01701435999998,68.47421058
8.05,805,0.9890000000000001,-0.003,0.237,0.057295800000000015,-0.6302538000000001,-0.40107059999999994,-178.57954944,77.02274394,68.50285848
8.06,806,0.99,-0.002,0.243,0.11459160000000004,-0.6875496,-0.286479,-178.56236069999997,77.02847352,68.52004722
8.07,807,0.988,0.0,0.244,0.0,-0.9740286,-0.057295800000000015,-178.55663112,77.03993267999998,68.52577679999999
8.08,808,0.986,-0.001,0.23600000000000002,0.0,-1.0313244000000001,0.0,-178.55663112,77.05139184,68.52577679999999
8.09,809,0.9840000000000001,-0.003,0.233,0.0,-1.145916,0.11459160000000004,-178.56236069999997,77.062851,68.52577679999999
8.1,810,0.98,-0.005,0.22899999999999998,0.057295800000000015,-1.2032118,0.1718874,-178.56236069999997,77.0914989,68.51431764
8.11,811,0.976,-0.004,0.226,0.286479,-0.9740286,0.11459160000000004,-178.56809028,77.09722848,68.51431764
8.12,812,0.976,-0.005,0.22699999999999998,0.40107059999999994,-0.8021411999999999,0.11459160000000004,-178.56809028,77.10868764,68.50858806
8.13,813,0.977,-0.006,0.22699999999999998,0.5156622000000001,-0.6302538000000001,0.057295800000000015,-178.56236069999997,77.11441721999998,68.50285848
8.14,814,0.978,-0.004,0.22899999999999998,0.572958,-0.286479,0.0,-178.55663112,77.11441721999998,68.50285848
8.15,815,0.98,-0.004,0.23199999999999998,0.6875496,0.0,0.0,-178.52225364,77.12587638,68.53150638
8.16,816,0.98,-0.002,0.23600000000000002,0.6302538000000001,0.3437748,0.11459160000000004,-178.52225364,77.12587638,68.52577679999999
8.17,817,0.9790000000000001,-0.003,0.235,0.572958,0.057295800000000015,0.2291832000000001,-178.52225364,77.12014680000001,68.51431764
8.18,818,0.9790000000000001,-0.005,0.23199999999999998,0.40107059999999994,0.0,0.2291832000000001,-178.5337128,77.12014680000001,68.50285848
8.19,819,0.981,-0.006,0.235,0.057295800000000015,0.057295800000000015,0.2291832000000001,-178.54517196,77.12014680000001,68.49139932
8.2,820,0.981,-0.005,0.23600000000000002,0.0,0.11459160000000004,0.11459160000000004,-178.6196565,77.14879470000002,68.41691478
8.209999999999999,821,0.983,-0.006,0.23,0.1718874,0.40107059999999994,-0.057295800000000015,-178.6196565,77.14306512,68.41691478
8.22,822,0.983,-0.005,0.231,0.057295800000000015,0.572958,-0.11459160000000004,-178.61392691999995,77.13733554,68.42264436
8.23,823,0.982,-0.005,0.23399999999999999,-0.11459160000000004,0.4583664000000001,-0.1718874,-178.60819734,77.13160596,68.42837394
8.24,824,0.9840000000000001,-0.003,0.235,-0.1718874,0.7448454000000001,-0.2291832000000001,-178.60246776000002,77.12587638,68.43983309999999
8.25,825,0.985,-0.003,0.237,-0.2291832000000001,0.9167328000000001,-0.11459160000000004,-178.58527902,77.11441721999998,68.45702184000001
8.26,826,0.983,-0.003,0.24,-0.4583664000000001,0.8594370000000001,-0.11459160000000004,-178.59100859999995,77.10295806,68.45702184000001
8.27,827,0.9840000000000001,-0.002,0.23600000000000002,-0.2291832000000001,0.7448454000000001,0.0,-178.59100859999995,77.09722848,68.45702184000001
8.28,828,0.9840000000000001,-0.004,0.23399999999999999,-0.2291832000000001,0.8594370000000001,0.0,-178.59673818,77.0914989,68.45702184000001
8.29,829,0.982,-0.004,0.23399999999999999,-0.40107059999999994,0.9740286,0.0,-178.60246776000002,77.08003973999998,68.45129225999999
8.3,830,0.983,-0.003,0.235,-0.572958,1.145916,0.0,-178.60819734,77.06858058,68.45702184000001
8.31,831,0.983,-0.002,0.233,-0.572958,1.4896908000000002,0.057295800000000015,-178.6196565,77.05712142,68.45129225999999
8.32,832,0.981,-0.002,0.237,-0.40107059999999994,1.7761698000000001,0.1718874,-178.63684524,77.03993267999998,68.43983309999999
8.33,833,0.981,-0.003,0.23600000000000002,-0.40107059999999994,1.7188740000000002,0.2291832000000001,-178.65403398,77.02274394,68.42264436
8.34,834,0.98,-0.004,0.23399999999999999,-0.3437748,1.7761698000000001,0.1718874,-178.67122272,77.00555519999998,68.4111852
8.35,835,0.98,-0.004,0.237,-0.3437748,1.5469866,0.1718874,-178.67695229999995,76.98836646,68.4111852
8.36,836,0.978,-0.004,0.23399999999999999,-0.40107059999999994,1.2605076000000002,0.2291832000000001,-178.69414104,76.97690730000002,68.39399646
8.37,837,0.9790000000000001,-0.005,0.231,-0.2291832000000001,1.145916,0.2291832000000001,-178.71132977999997,76.96544814,68.37680772
8.38,838,0.9790000000000001,-0.005,0.231,-0.2291832000000001,1.145916,0.286479,-178.7342481,76.95398897999998,68.35961898
8.39,839,0.98,-0.004,0.235,-0.1718874,1.145916,0.3437748,-178.75143684,76.94252982,68.34243024000001
8.4,840,0.983,-0.002,0.23600000000000002,0.057295800000000015,1.3178034,0.3437748,-178.75143684,76.93107066,68.34243024000001
8.41,841,0.982,-0.004,0.23600000000000002,0.1718874,1.3750992,0.40107059999999994,-178.76862558,76.91388192,68.31951192
8.42,842,0.981,-0.004,0.237,0.0,1.3750992,0.5156622000000001,-178.79727348,76.90242276000002,68.2965936
8.43,843,0.981,-0.005,0.23800000000000002,0.057295800000000015,1.145916,0.6302538000000001,-178.82592138,76.89096359999998,68.26221611999999
8.44,844,0.981,-0.006,0.239,0.1718874,0.8594370000000001,0.6302538000000001,-178.85456928000005,76.87950443999998,68.23356822000001
8.45,845,0.983,-0.003,0.242,0.11459160000000004,0.8021411999999999,0.6302538000000001,-178.86029886,76.86804528,68.22210906000001
8.459999999999999,846,0.983,-0.003,0.243,0.057295800000000015,0.9167328000000001,0.5156622000000001,-178.88321718,76.8623157,68.19346116
8.47,847,0.983,-0.006,0.24100000000000002,0.1718874,1.0313244000000001,0.572958,-178.91186507999996,76.85085654000002,68.17054284
8.48,848,0.982,-0.006999999999999999,0.23800000000000002,-0.057295800000000015,0.9167328000000001,0.2291832000000001,-178.92332424,76.83939738000002,68.1533541
8.49,849,0.982,-0.006999999999999999,0.237,0.057295800000000015,0.572958,0.057295800000000015,-178.92905381999995,76.8336678,68.14762452
8.5,850,0.9840000000000001,-0.005,0.23600000000000002,0.2291832000000001,0.572958,0.0,-178.91759466000005,76.83939738000002,68.1533541
8.51,851,0.985,-0.004,0.23800000000000002,0.286479,0.6302538000000001,0.0,-178.91759466000005,76.8336678,68.1533541
8.52,852,0.985,-0.003,0.247,0.0,0.9740286,0.057295800000000015,-178.92332424,76.82220864,68.14762452
8.53,853,0.983,0.0,0.25,-0.1718874,0.9167328000000001,0.1718874,-178.93478340000001,76.81647905999998,68.13616535999999
8.54,854,0.981,-0.002,0.245,0.0,0.8021411999999999,0.2291832000000001,-178.95197214,76.80501989999998,68.1247062
8.55,855,0.978,-0.005,0.239,0.1718874,0.40107059999999994,0.286479,-178.99780878,76.81647905999998,68.07886956
8.56,856,0.977,-0.006,0.23600000000000002,0.057295800000000015,-0.11459160000000004,0.40107059999999994,-179.01499752,76.82220864,68.05595124
8.57,857,0.977,-0.005,0.237,0.3437748,-0.5156622000000001,0.286479,-179.0207271,76.82220864,68.04449208
8.58,858,0.978,-0.004,0.23800000000000002,0.8594370000000001,-0.6875496,0.2291832000000001,-179.0207271,76.8336678,68.03303292000001
8.59,859,0.977,-0.004,0.239,1.0313244000000001,-0.6875496,0.2291832000000001,-179.0207271,76.83939738000002,68.02730333999999
8.6,860,0.9790000000000001,-0.004,0.23800000000000002,1.145916,-0.4583664000000001,0.2291832000000001,-179.01499752,76.84512696,68.02157376
8.61,861,0.9790000000000001,-0.003,0.23600000000000002,1.2032118,-0.286479,0.286479,-179.01499752,76.85085654000002,68.00438502
8.62,862,0.978,-0.004,0.233,1.4896908000000002,-0.1718874,0.4583664000000001,-179.0207271,76.85085654000002,67.98719628
8.63,863,0.978,-0.006,0.23,1.7188740000000002,-0.3437748,0.6302538000000001,-179.03218626,76.85658612,67.95854838
8.64,864,0.976,-0.006,0.22699999999999998,1.8907614,-0.6875496,0.572958,-179.03218626,76.8623157,67.93563006
8.65,865,0.9740000000000001,-0.006999999999999999,0.226,2.1772404,-0.7448454000000001,0.5156622000000001,-179.03791584,76.87950443999998,67.90698216000001
8.66,866,0.977,-0.006,0.226,2.5210152000000003,-0.2291832000000001,0.286479,-179.02645668,76.87950443999998,67.895523
8.67,867,0.978,-0.005,0.22399999999999998,2.86479,0.5156622000000001,0.11459160000000004,-179.00353836,76.87377486,67.88406384
8.68,868,0.977,-0.002,0.22899999999999998,2.7501984,1.3178034,0.2291832000000001,-178.98634962,76.8623157,67.87260468
8.69,869,0.973,0.001,0.23199999999999998,2.5783110000000002,2.4064236,0.4583664000000001,-178.98062004000005,76.83939738000002,67.84968635999999
8.7,870,0.968,0.0,0.226,2.9220858,3.380452200000001,0.8021411999999999,-178.98634962,76.81074948,67.82103846
8.71,871,0.965,-0.003,0.22,2.8074942000000003,4.4690724,1.2605076000000002,-179.0207271,76.76491284,67.75228349999999
8.72,872,0.9670000000000001,-0.006,0.217,2.0626488000000003,5.72958,1.432395,-179.06656374,76.70761704,67.68352854000001
8.73,873,0.968,-0.009000000000000001,0.21899999999999997,1.8334656000000005,6.7609043999999985,1.3750992,-179.12385954,76.64459166,67.60904400000001
8.74,874,0.9640000000000001,-0.013999999999999999,0.214,2.0053530000000004,7.2192707999999985,1.3178034,-179.16969618000005,76.57010712,67.54028904
8.75,875,0.958,-0.018000000000000002,0.209,2.7501984,7.6203414,1.2605076000000002,-179.2212624,76.50135216,67.46007492
8.76,876,0.955,-0.018000000000000002,0.213,2.8074942000000003,7.5057497999999985,1.2605076000000002,-179.25563988000005,76.42686762000002,67.39131996
