TimeStamp(s),FrameCounter,AccX,AccY,AccZ,GyrX,GyrY,GyrZ,EulerX,EulerY,EulerZ
0.01,1,0.0,-0.991,0.197,-1.8907613999999997,-0.572958,-0.1718874,102.90898638,-0.30366774,-57.30152958
0.02,2,0.009000000000000001,-1.0,0.154,-4.010706000000001,-1.6615782,-0.286479,102.86887932,-0.29793816,-57.31298874
0.03,3,0.009000000000000001,-1.004,0.152,-4.4690724,-1.6615782,-0.286479,102.82304268,-0.29220857999999994,-57.33017748
0.04,4,0.01,-1.006,0.151,-4.8128472,-1.8334656000000005,-0.4583664000000001,102.77720603999998,-0.28074942,-57.34736622000001
0.05,5,0.011,-1.007,0.149,-5.1566220000000005,-2.1199446,-0.572958,102.67407359999999,-0.25783110000000004,-57.37601412
0.060000000000000005,6,0.013,-1.007,0.147,-5.6722842,-2.291832,-0.7448454000000001,102.6167778,-0.24637194,-57.39893244
0.06999999999999999,7,0.015,-1.007,0.14400000000000002,-6.2452422,-2.3491278,-0.8594370000000001,102.55375242,-0.22918320000000003,-57.41612118000001
0.08,8,0.017,-1.006,0.142,-6.760904399999999,-2.291832,-0.9740286,102.48499746,-0.21772404,-57.4390395
0.09,9,0.016,-1.004,0.139,-7.161975,-2.2345362,-0.9167328,102.41051292,-0.20053530000000008,-57.46195782
0.09999999999999999,10,0.015,-1.002,0.13699999999999998,-7.6203414,-2.2345362,-0.8594370000000001,102.29592132,-0.17761697999999998,-57.48487614
0.11,11,0.016,-1.003,0.136,-8.078707799999998,-2.4637194,-0.8594370000000001,102.2157072,-0.16042824,-57.50779446
0.12,12,0.017,-1.003,0.131,-8.4224826,-2.9793816000000004,-0.8594370000000001,102.1297635,-0.14896908,-57.53644236
0.13,13,0.018000000000000002,-1.004,0.129,-8.651665800000002,-3.3804522000000006,-0.9740286,102.0438198,-0.13178034,-57.57081984
0.14,14,0.016,-1.006,0.126,-8.8235532,-3.724227,-1.145916,101.95214652,-0.10886202,-57.60519732
0.15000000000000002,15,0.017,-1.01,0.124,-9.167328,-4.010706000000001,-1.2032118,101.82609576,-0.08021412,-57.645304380000006
0.16,16,0.016,-1.011,0.122,-9.453807000000001,-3.9534102,-1.145916,101.73442248,-0.06302537999999999,-57.68541144
0.17,17,0.018000000000000002,-1.013,0.121,-9.797581800000001,-3.8961144,-1.145916,101.63129004,-0.04010706,-57.71978892
0.18000000000000002,18,0.018000000000000002,-1.013,0.12,-10.1413566,-3.4950437999999995,-1.0313244,101.5281576,-0.02291832,-57.754166399999995
0.19,19,0.018000000000000002,-1.015,0.117,-10.599723,-3.2085648,-0.8594370000000001,101.42502516,-0.00572958,-57.78281430000001
0.2,20,0.018000000000000002,-1.015,0.115,-11.172681,-2.8074942000000003,-0.9167328,101.27605608,0.01145916,-57.81719178
0.21000000000000002,21,0.019,-1.015,0.112,-11.745639,-2.4637194,-0.9740286,101.1557349,0.02291832,-57.840110100000004
0.22,22,0.022,-1.013,0.108,-12.318597,-2.0053530000000004,-0.9167328,101.03541372,0.03437748,-57.85729884
0.23,23,0.024,-1.01,0.102,-12.7769634,-1.3750992,-0.9740286,100.90363338,0.04583664,-57.86875799999999
0.24000000000000002,24,0.028,-1.005,0.095,-12.834259199999998,-1.0313244,-0.8594370000000001,100.77185304,0.05729580000000001,-57.88021716000001
0.25,25,0.03,-1.007,0.092,-12.7196676,-1.2605076000000002,-0.7448454000000001,100.6114248,0.08021412,-57.8974059
0.26,26,0.029,-1.014,0.091,-12.032117999999999,-1.8907613999999997,-0.5156622000000001,100.48537404,0.0859437,-57.92032422
0.27,27,0.029,-1.021,0.09,-11.9748222,-2.4064236,-0.286479,100.36505286,0.09740286,-57.94324253999999
0.28,28,0.029,-1.027,0.08900000000000001,-12.318597,-2.9220857999999996,-0.057295800000000015,100.2390021,0.10313244,-57.97189044
0.29000000000000004,29,0.03,-1.032,0.08900000000000001,-13.178034,-3.3231564,0.11459160000000003,100.10722176,0.10313244,-58.006267920000006
0.3,30,0.027000000000000003,-1.038,0.094,-14.32395,-3.666931200000001,0.286479,99.93533436,0.11459160000000002,-58.04637498
0.31,31,0.027000000000000003,-1.034,0.098,-15.6417534,-3.8388186,0.4583664000000001,99.7806357,0.12032118,-58.08648204
0.32,32,0.025,-1.037,0.1,-16.615782,-4.3544808,0.4010706,99.60874830000002,0.12032118,-58.13231868
0.33,33,0.027000000000000003,-1.043,0.1,-18.5638392,-4.3544808,0.286479,99.42540174,0.12605075999999998,-58.17815532
0.34,34,0.028,-1.048,0.101,-21.1421502,-4.583664,0.11459160000000003,99.2076777,0.13178034,-58.22972154
0.35000000000000003,35,0.028,-1.045,0.104,-22.5172494,-5.443101,0.057295800000000015,98.96703534,0.14323950000000002,-58.28701734
0.36000000000000004,36,0.026,-1.05,0.1,-22.86102420000001,-6.0733548,0.22918320000000006,98.73785214,0.14896908,-58.35004272
0.37,37,0.022,-1.055,0.08800000000000001,-23.204799,-6.4744254,0.6302538000000001,98.50293936,0.15469866,-58.4130681
0.38,38,0.023,-1.054,0.07400000000000001,-23.835052800000003,-6.5317212,1.3178034,98.262297,0.14896908,-58.48182306
0.39,39,0.026,-1.054,0.064,-24.4080108,-6.3598338,1.8907613999999997,98.01019548,0.14323950000000002,-58.55057802
0.4,40,0.028,-1.047,0.057,-26.069589,-6.4744254,2.1199446,97.73517564,0.13178034,-58.62506255999999
0.41000000000000003,41,0.025,-1.034,0.055,-27.6165756,-6.6463128000000005,2.1199446,97.45442622,0.12032118,-58.69381752
0.42000000000000004,42,0.021,-1.027,0.05,-29.220858000000003,-6.8182002000000015,2.0053530000000004,97.16221764,0.10886202,-58.76830206
0.43,43,0.021,-1.021,0.05,-30.080295,-6.9327918,1.6615782,96.8585499,0.10313244,-58.8427866
0.44,44,0.02,-1.016,0.048,-30.8251404,-6.9327918,1.2032118,96.543423,0.09740286,-58.91727113999999
0.45,45,0.016,-1.011,0.043,-31.627281600000003,-6.760904399999999,0.7448454000000001,96.21110736,0.09740286,-58.986026100000004
0.46,46,0.013,-1.009,0.037000000000000005,-32.31483119999999,-6.760904399999999,0.7448454000000001,95.8845213,0.09740286,-59.06051064
0.47000000000000003,47,0.016,-1.004,0.032,-33.4607472,-7.0473834,0.6875496,95.54647608,0.09740286,-59.13499518
0.48000000000000004,48,0.023,-1.001,0.024,-34.60666320000001,-6.8182002000000015,0.4010706,95.1969717,0.09740286,-59.20375014
0.49,49,0.021,-1.001,0.01,-36.1536498,-6.5317212,0.0,94.83027858,0.10313244,-59.2725051
0.5,50,0.019,-0.993,0.002,-37.5860448,-5.844171599999999,-0.5156622000000001,94.43493756,0.11459160000000002,-59.33553048
0.51,51,0.019,-0.994,0.001,-37.757932200000006,-5.5576926,-0.6875496,94.0510557,0.12605075999999998,-59.39282628
0.52,52,0.019,-0.992,-0.002,-38.2162986,-5.72958,-0.6875496,93.66717384,0.13750992,-59.45585166000001
0.53,53,0.017,-0.99,-0.009000000000000001,-38.8465524,-6.6463128000000005,-0.6875496,93.27183282,0.14323950000000002,-59.52460662
0.54,54,0.014,-0.99,-0.018000000000000002,-39.3049188,-6.875496000000001,-0.8021411999999999,92.8764918,0.15469866,-59.59909116
0.55,55,0.011,-0.994,-0.025,-39.9351726,-6.990087599999999,-1.0313244,92.45823246,0.1718874,-59.6735757
0.56,56,0.006,-0.999,-0.034,-40.6227222,-7.2765666,-1.2605076000000002,92.0457027,0.18334656,-59.74806024000001
0.5700000000000001,57,0.004,-1.005,-0.038,-41.1383844,-7.7922288,-1.6042823999999998,91.63317294,0.20053530000000008,-59.82827436
0.5800000000000001,58,0.003,-1.006,-0.045,-42.7999626,-7.5630456000000015,-2.0626488000000003,91.19772486,0.22345362,-59.90848848
0.59,59,0.008,-1.004,-0.053,-43.48751220000001,-5.844171599999999,-2.2345362,90.7565472,0.24637194,-59.97151386
0.6,60,0.012,-0.999,-0.063,-44.117766,-4.4690724,-2.1772404,90.2981808,0.26929026,-60.02308008
0.61,61,0.012,-0.996,-0.055,-44.690724,-3.8961144,-1.8334656000000005,89.84554397999999,0.28647900000000004,-60.06891672
0.62,62,0.009000000000000001,-0.998,-0.044,-45.4355694,-3.3804522000000006,-1.4896908000000002,89.38717758,0.29793816,-60.10329420000001
0.63,63,0.009000000000000001,-1.003,-0.04,-48.529542600000006,-3.0366774,-1.3750992,88.89443370000002,0.30366774,-60.14340126
0.64,64,0.008,-1.003,-0.045,-50.82137460000001,-4.4690724,-1.3178034,88.3787715,0.31512690000000004,-60.19496748
0.65,65,0.004,-1.006,-0.07,-52.139178,-6.589017,-1.6042823999999998,87.84019098,0.32658606,-60.26372244
0.66,66,0.003,-0.997,-0.08800000000000001,-55.11855960000001,-7.6776372,-1.8907613999999997,87.28442172,0.33804522,-60.34966614
0.67,67,0.006,-0.98,-0.103,-56.8374336,-6.990087599999999,-2.3491278,86.70573413999998,0.35523396,-60.42415067999999
0.68,68,0.012,-0.968,-0.121,-57.7541664,-5.5576926,-3.151269,86.12131698,0.38388186,-60.48717606
0.6900000000000001,69,0.017,-0.961,-0.142,-59.0719698,-5.042030400000002,-4.0680017999999984,85.51971108000002,0.41252976,-60.55020144
0.7000000000000001,70,0.017,-0.95,-0.126,-60.0459984,-5.7868758000000025,-4.6409598,84.90664602000003,0.4526368200000001,-60.61322682
0.7100000000000001,71,0.021,-0.942,-0.11,-60.332477399999995,-4.297185,-4.5263682,84.29358096,0.49274388,-60.67052262
0.72,72,0.024,-0.937,-0.134,-61.020027,-1.9480572,-3.9534102,83.67478632,0.52139178,-60.69917052
0.73,73,0.028,-0.928,-0.151,-61.36380179999999,-1.6042823999999998,-2.9220857999999996,83.05599168,0.5443101,-60.72208884000001
0.74,74,0.026,-0.919,-0.147,-61.7075766,-1.6042823999999998,-2.0626488000000003,82.42573788,0.55576926,-60.75073674
0.75,75,0.035,-0.91,-0.156,-61.9367598,-2.1199446,-2.1199446,81.79548408,0.5729580000000001,-60.77938464
0.76,76,0.035,-0.917,-0.16699999999999998,-61.8221682,-2.9793816000000004,-1.8907613999999997,81.16523028,0.5844171599999999,-60.8194917
0.77,77,0.044,-0.913,-0.185,-62.5670136,-3.151269,-1.3750992,80.5292469,0.5844171599999999,-60.85959876
0.78,78,0.044,-0.921,-0.185,-63.59833800000001,-2.5210152000000003,-1.0313244,79.88753394,0.5844171599999999,-60.89397623999999
0.79,79,0.046,-0.919,-0.17800000000000002,-63.3691548,-2.86479,-0.3437748,79.24009140000003,0.5786875800000001,-60.92835372
0.8,80,0.045,-0.913,-0.183,-63.6556338,-3.666931200000001,0.286479,78.59264886000003,0.56722842,-60.96846078
0.81,81,0.041,-0.908,-0.193,-63.7702254,-3.5523396000000003,0.6302538000000001,77.94520632,0.55003968,-61.00856784
0.8200000000000001,82,0.036000000000000004,-0.911,-0.203,-63.311859,-2.86479,0.5156622000000001,77.30349336,0.53285094,-61.04294532
0.8300000000000001,83,0.037000000000000005,-0.906,-0.208,-62.3951262,-5.1566220000000005,0.286479,76.67323956,0.5099326200000001,-61.10024112
0.8400000000000001,84,0.041,-0.922,-0.228,-61.87946400000001,-7.5630456000000015,0.057295800000000015,76.04298576,0.4870143000000001,-61.17472566
0.85,85,0.039,-0.934,-0.237,-63.08267579999999,-8.3651868,-0.6875496,75.4012728,0.46982556,-61.26639894
0.86,86,0.033,-0.945,-0.234,-62.9107884,-7.7349330000000025,-1.432395,74.76528942,0.46409598,-61.34661306
0.87,87,0.028,-0.941,-0.224,-63.5410422,-6.8182002000000015,-2.5210152000000003,74.11784688,0.46409598,-61.42682718
0.88,88,0.024,-0.936,-0.246,-62.6243094,-5.958763200000001,-3.2658606,73.4818635,0.46982556,-61.50131172
0.89,89,0.015,-0.931,-0.233,-63.311859,-3.3231564,-3.4950437999999995,72.84015054,0.49274388,-61.54714836000001
0.9,90,0.017,-0.939,-0.266,-64.0567044,0.8594370000000001,-3.6096354,72.18697842,0.52139178,-61.55287794
0.91,91,0.023,-0.944,-0.29,-63.82752120000001,0.6302538000000001,-3.4377480000000005,71.53953588,0.55003968,-61.5643371
0.92,92,0.028,-0.962,-0.278,-63.02538000000001,0.286479,-3.151269,70.89782292,0.5729580000000001,-61.57579626
0.93,93,0.029,-0.97,-0.303,-63.02538000000001,0.572958,-2.9793816000000004,70.26183954,0.59587632,-61.58725542000001
0.9400000000000001,94,0.027000000000000003,-0.97,-0.326,-63.9994086,0.5156622000000001,-2.6356068,69.60866741999999,0.61306506,-61.592985
0.9500000000000001,95,0.023,-0.953,-0.344,-64.97343719999999,0.6302538000000001,-2.578311,68.94976572,0.63598338,-61.60444416
0.9600000000000001,96,0.019,-0.931,-0.36,-64.8015498,-0.5156622000000001,-2.291832,68.29086402,0.64744254,-61.62163290000001
0.97,97,0.021,-0.913,-0.36,-64.457775,-1.0313244,-2.3491278,67.63769190000001,0.6589017,-61.64455122
0.98,98,0.03,-0.89,-0.344,-64.17129600000001,0.8594370000000001,-2.578311,66.98451978,0.67609044,-61.6502808
0.99,99,0.034,-0.879,-0.375,-63.1399716,0.6302538000000001,-2.6929026,66.34280681999999,0.69327918,-61.66173996
1.0,100,0.034,-0.875,-0.39,-61.4210976,-1.3750992,-2.578311,65.71828260000001,0.7104679199999999,-61.69038786
1.01,101,0.04,-0.871,-0.385,-61.24921020000001,-1.9480572,-3.2085648,65.09948796,0.72192708,-61.72476534
1.02,102,0.052000000000000005,-0.878,-0.407,-60.0459984,-1.2032118,-3.4377480000000005,64.48642290000001,0.7391158200000001,-61.75341324
1.03,103,0.067,-0.8859999999999999,-0.426,-59.24385720000001,-0.1718874,-3.2085648,63.88481700000001,0.76203414,-61.77060198
1.04,104,0.077,-0.8759999999999999,-0.441,-59.4730404,-0.286479,-2.6929026,63.2832111,0.7792228800000001,-61.7935203
1.05,105,0.076,-0.8490000000000001,-0.412,-59.4157446,-2.8074942000000003,-2.6929026,62.67587562,0.7849524600000001,-61.83362736
1.06,106,0.04,-0.818,-0.363,-57.811462199999994,-4.8128472,-2.7501984,62.09145846,0.7849524600000001,-61.89092316
1.07,107,0.018000000000000002,-0.807,-0.407,-56.3790672,-5.443101,-2.86479,61.51850046,0.7792228800000001,-61.95967812
1.08,108,-0.002,-0.804,-0.461,-57.1812084,-7.333862400000001,-2.8074942000000003,60.9340833,0.76203414,-62.03989223999999
1.09,109,-0.009000000000000001,-0.816,-0.477,-56.0352924,-9.2819196,-3.3804522000000006,60.36685487999999,0.7391158200000001,-62.14302468
1.1,110,-0.005,-0.831,-0.477,-54.3737142,-11.516455800000001,-3.8961144,59.81108562000001,0.7161975,-62.26334586
1.11,111,0.002,-0.8490000000000001,-0.474,-53.858052,-12.7769634,-3.7815227999999994,59.26677552,0.67609044,-62.40085577999999
1.12,112,0.02,-0.85,-0.491,-53.68616460000001,-14.0947668,-3.2658606,58.722465420000006,0.6302538000000001,-62.5383657
1.1300000000000001,113,0.034,-0.836,-0.481,-53.456981400000004,-15.0687954,-3.2085648,58.17815532,0.5786875800000001,-62.68733478
1.1400000000000001,114,0.036000000000000004,-0.797,-0.481,-52.82672760000001,-13.750992000000002,-3.8961144,57.645304380000006,0.53285094,-62.83057427999999
1.1500000000000001,115,0.04,-0.7859999999999999,-0.487,-51.6235158,-10.4851314,-5.2712136,57.11818301999999,0.52139178,-62.95089546000001
1.1600000000000001,116,0.038,-0.7809999999999999,-0.49,-48.7587258,-7.906820400000001,-6.9327918,56.62543913999999,0.53285094,-63.05975748
1.17,117,0.032,-0.8079999999999999,-0.521,-48.0711762,-6.4744254,-8.021412000000002,56.138424840000006,0.55576926,-63.15716034
1.18,118,0.025,-0.8370000000000001,-0.505,-45.83664,-7.448453999999999,-7.7349330000000025,55.66859928,0.5729580000000001,-63.26602236
1.19,119,0.028,-0.847,-0.54,-45.4355694,-10.7143146,-6.5317212,55.21023288,0.56722842,-63.39207312
1.2,120,0.022,-0.862,-0.565,-44.8053156,-15.0114996,-4.5263682,54.75186647999999,0.5156622000000001,-63.54677177999999
1.21,121,0.023,-0.845,-0.583,-45.263682,-17.9908812,-2.8074942000000003,54.29350008,0.43544808,-63.712929599999995
1.22,122,0.024,-0.8370000000000001,-0.586,-44.5761324,-20.511896399999998,-3.2085648,53.840863260000006,0.33804522,-63.90200574000001
1.23,123,0.035,-0.823,-0.598,-45.0344988,-22.6891368,-4.1252976000000015,53.38822644,0.24064236,-64.11400019999999
1.24,124,0.046,-0.8029999999999999,-0.596,-44.8053156,-26.69984280000001,-4.9274388,52.93558962000001,0.12032118,-64.36037214000001
1.25,125,0.062,-0.784,-0.602,-44.34694920000001,-33.002380800000005,-5.2139178,52.48868238,-0.02291832,-64.65831030000001
1.26,126,0.094,-0.76,-0.604,-43.6021038,-41.6540466,-4.8701430000000006,52.05323430000001,-0.23491278,-65.01927384000001
1.27,127,0.116,-0.74,-0.588,-42.5707794,-51.9099948,-3.8388186,51.62924538,-0.5156622000000001,-65.4604515
1.28,128,0.128,-0.693,-0.556,-41.9405256,-64.0567044,-1.6615782,51.21671562,-0.8880849000000001,-65.97611370000001
1.29,129,0.147,-0.621,-0.509,-41.4821592,-79.29738719999997,0.0,50.82137460000001,-1.3750992,-66.60063792000001
1.3,130,0.193,-0.5770000000000001,-0.493,-39.247623,-99.5228046,3.6096354,50.45468147999999,-1.99962342,-67.35694248
1.31,131,0.22,-0.501,-0.4920000000000001,-37.8725238,-120.49306740000002,7.8495246,50.12236584,-2.80176462,-68.25075696
1.32,132,0.154,-0.451,-0.547,-34.60666320000001,-132.353298,12.1467096,49.84161642,-3.71276784,-69.19613766
1.33,133,0.107,-0.439,-0.557,-35.2942128,-127.7123382,13.2353298,49.56659658,-4.60658232,-70.1014113
1.34,134,0.11,-0.463,-0.422,-40.164355799999996,-110.52359820000001,9.6256944,49.245740100000006,-5.36861646,-70.89209334
1.35,135,0.054000000000000006,-0.488,-0.444,-45.206386200000004,-95.9131692,6.6463128000000005,48.86758782,-6.02178858,-71.5911021
1.36,136,-0.012,-0.5710000000000001,-0.29600000000000004,-55.11855960000001,-82.4486562,6.3598338,48.386303100000006,-6.60047616,-72.18124884
1.37,137,0.037000000000000005,-0.626,-0.51,-48.8160216,-82.50595200000002,9.167328,47.96804376,-7.20208206,-72.74847725999999
1.3800000000000001,138,0.11,-0.7490000000000001,-0.483,-47.9565846,-83.53727640000002,11.4018642,47.56697316,-7.8323358600000015,-73.30424652
1.3900000000000001,139,0.025,-0.74,-0.56,-54.14453099999999,-75.51586440000001,11.8602306,47.09714760000001,-8.41675302,-73.79126082
1.4000000000000001,140,-0.086,-0.8290000000000001,-0.617,-49.5035712,-78.1514712,13.6936962,46.67888826,-9.03554766,-74.28973427999998
1.4100000000000001,141,-0.192,-0.92,-0.696,-48.70143,-80.5578948,19.938938399999998,46.27208808,-9.71736768,-74.75383026
1.42,142,-0.248,-0.882,-0.787,-48.8160216,-83.25079740000002,23.6631654,45.87101748,-10.45075392,-75.20646708
1.43,143,-0.259,-0.8640000000000001,-0.755,-46.5814854,-84.8550798,24.7517856,45.4928652,-11.2013289,-75.6591039
1.44,144,-0.227,-0.865,-0.723,-46.2377106,-82.33406459999998,23.5485738,45.12617208,-11.92898556,-76.10028156
1.45,145,-0.166,-0.861,-0.74,-46.409598,-83.4799806,21.1421502,44.76520854,-12.65091264,-76.56437754
1.46,146,-0.149,-0.8440000000000001,-0.7809999999999999,-47.1544434,-85.25615040000002,17.8189938,44.40997458,-13.36711014,-77.05712142
1.47,147,-0.198,-0.8240000000000001,-0.8079999999999999,-47.4409224,-86.11558740000002,12.7196676,44.06619978,-14.05465974,-77.59570194
1.48,148,-0.246,-0.8420000000000001,-0.809,-48.529542600000006,-80.90166959999998,5.72958,43.72242498,-14.66199522,-78.14001204
1.49,149,-0.275,-0.867,-0.8059999999999999,-49.560867,-73.45321560000002,-1.4896908000000002,43.36719102,-15.166198259999998,-78.69005172
1.5,150,-0.301,-0.865,-0.8059999999999999,-49.7327544,-68.2965936,-8.136003599999999,43.01768664,-15.60164634,-79.24582097999998
1.51,151,-0.35100000000000003,-0.884,-0.825,-49.1025006,-64.0567044,-12.2040054,42.67964142,-15.974069039999998,-79.79586065999997
1.52,152,-0.388,-0.904,-0.7170000000000001,-52.597544400000004,-55.5196302,-14.152062599999999,42.29575956,-16.28346636,-80.30579328
1.53,153,-0.408,-0.893,-0.727,-53.1705024,-49.7327544,-13.980175199999998,41.89468896,-16.55275662,-80.76415968
1.54,154,-0.355,-0.8759999999999999,-0.6940000000000001,-55.3477428,-42.1697088,-13.750992000000002,41.4535113,-16.77048066,-81.17095986
1.55,155,-0.272,-0.863,-0.7090000000000001,-52.597544400000004,-40.966497,-14.495837400000001,41.04671112,-16.976745540000003,-81.57776004
1.56,156,-0.227,-0.8640000000000001,-0.723,-53.628868800000006,-42.685371,-15.0687954,40.62845178,-17.20019916,-81.9902898
1.57,157,-0.201,-0.785,-0.759,-55.00396800000001,-44.7480198,-18.3919518,40.21592202,-17.4179232,-82.4486562
1.58,158,-0.16899999999999998,-0.841,-0.762,-54.7747848,-46.6387812,-19.3659804,39.80912184,-17.64137682,-82.92421134
1.59,159,-0.172,-0.77,-0.7659999999999999,-56.3790672,-49.5035712,-20.798375399999998,39.39659208,-17.88774876,-83.43414396
1.6,160,-0.156,-0.775,-0.769,-54.889376399999996,-52.6548402,-23.7204612,39.018439799999996,-18.1341207,-83.98418364
1.61,161,-0.153,-0.757,-0.754,-57.4103916,-55.3477428,-27.5592798,38.62882836,-18.38622222,-84.58005996
1.62,162,-0.13699999999999998,-0.742,-0.713,-56.3217714,-57.6968706,-31.51269000000001,38.27359439999999,-18.63259416,-85.2275025
1.6300000000000001,163,-0.136,-0.745,-0.6859999999999999,-56.72284200000001,-59.4157446,-33.74722620000001,37.91836044,-18.89042526,-85.90359294
1.6400000000000001,164,-0.14800000000000002,-0.69,-0.6829999999999999,-58.2698286,-60.905435399999995,-36.2109456,37.56312648,-19.14252678,-86.60833127999999
1.6500000000000001,165,-0.151,-0.687,-0.684,-58.15523699999999,-61.7648724,-38.67466500000001,37.22508126,-19.38316914,-87.33598794000002
1.6600000000000001,166,-0.157,-0.685,-0.6920000000000001,-58.0406454,-60.6189564,-39.7059894,36.88703604,-19.61808192,-88.06937418
1.6700000000000002,167,-0.16899999999999998,-0.69,-0.696,-57.86875799999999,-61.30650600000001,-39.0757356,36.554720399999994,-19.87018344,-88.79703083999998
1.68,168,-0.17800000000000002,-0.615,-0.6940000000000001,-57.7541664,-64.97343719999999,-41.4248634,36.24532308,-20.139473700000003,-89.57052414
1.69,169,-0.171,-0.654,-0.6759999999999999,-56.5509546,-67.9528188,-40.737313799999995,35.94738492000001,-20.44314144,-90.3554766
1.7,170,-0.156,-0.639,-0.679,-56.2644756,-70.07276340000001,-41.4248634,35.67236508,-20.75253876,-91.16334738
1.71,171,-0.15,-0.619,-0.6829999999999999,-55.6342218,-71.2759752,-42.91455420000001,35.41453398,-21.07339524,-91.9884069
1.72,172,-0.156,-0.609,-0.669,-54.4883058,-72.3645954,-44.34694920000001,35.17389162,-21.39425172,-92.83638474
1.73,173,-0.17800000000000002,-0.596,-0.667,-53.285094,-73.2240324,-45.1490904,34.95616758,-21.72656736,-93.69582174
1.74,174,-0.204,-0.59,-0.672,-52.48295279999999,-74.0834694,-45.3209778,34.75563228,-22.06461258,-94.56098832
1.75,175,-0.231,-0.585,-0.6729999999999999,-51.9099948,-73.96887779999999,-45.72204840000001,34.57228572,-22.39692822,-95.43188448
1.76,176,-0.248,-0.608,-0.682,-51.279741,-73.3959198,-45.779344200000004,34.39466874,-22.73497344,-96.29705106
1.77,177,-0.262,-0.611,-0.69,-51.1651494,-73.052145,-46.065823200000004,34.22278134,-23.06728908,-97.16794722
1.78,178,-0.265,-0.609,-0.71,-51.10785360000001,-72.88025760000002,-46.2377106,34.05662352,-23.39960472,-98.03884338
1.79,179,-0.256,-0.611,-0.7090000000000001,-50.82137460000001,-74.59913159999998,-45.550161,33.901924859999994,-23.75483868,-98.91546912
1.8,180,-0.255,-0.622,-0.715,-50.76407879999999,-76.60448459999998,-45.0344988,33.75868536,-24.1215318,-99.80355402
1.81,181,-0.269,-0.622,-0.728,-51.56622,-77.1201468,-45.0344988,33.60971628,-24.49968408,-100.69163892000002
1.82,182,-0.279,-0.631,-0.725,-51.7381074,-75.8023434,-45.550161,33.46647678,-24.87210678000001,-101.5854534
1.83,183,-0.297,-0.642,-0.722,-52.0818822,-73.1667366,-46.4668938,33.32323728,-25.21588158,-102.46780872
1.84,184,-0.314,-0.626,-0.718,-52.48295279999999,-70.24465079999999,-47.3836266,33.16853862,-25.53673806,-103.33870488
1.85,185,-0.319,-0.618,-0.718,-52.425657,-67.49445240000001,-47.4409224,33.02529912,-25.82894664,-104.19814188
1.86,186,-0.326,-0.621,-0.72,-52.19647379999999,-65.4318036,-46.9252602,32.87060046000001,-26.11542564,-105.04039014
1.87,187,-0.328,-0.632,-0.718,-52.6548402,-64.8588456,-46.753372799999994,32.7159018,-26.39617506,-105.8826384
1.8800000000000001,188,-0.33,-0.632,-0.725,-52.9413192,-65.14532460000001,-46.352302200000004,32.56120314,-26.68838364,-106.71915708000002
1.8900000000000001,189,-0.328,-0.634,-0.708,-52.425657,-66.176649,-45.9512316,32.41223406,-26.992051380000003,-107.56140534
1.9000000000000001,190,-0.322,-0.626,-0.718,-53.0559108,-67.0933818,-45.9512316,32.274724140000004,-27.29571912,-108.40938318
1.9100000000000001,191,-0.313,-0.621,-0.736,-52.8840234,-68.2965936,-46.352302200000004,32.142943800000005,-27.62230518,-109.26882018
1.9200000000000002,192,-0.307,-0.613,-0.721,-52.597544400000004,-68.35388940000001,-47.0971476,32.02262262000001,-27.93743208,-110.13971634
1.93,193,-0.292,-0.594,-0.688,-51.5089242,-66.23394479999999,-47.67010560000001,31.91949018,-28.24109982,-111.00488292
1.94,194,-0.294,-0.578,-0.659,-49.7327544,-66.23394479999999,-48.128471999999995,31.83354648000001,-28.53903798,-111.87577908
1.95,195,-0.331,-0.534,-0.696,-48.70143,-66.6350154,-49.1025006,31.776250680000004,-28.83697614,-112.76386398
1.96,196,-0.34700000000000003,-0.506,-0.713,-46.5241896,-64.3431834,-49.3316838,31.73614362,-29.11199598,-113.63476013999998
1.97,197,-0.33,-0.498,-0.6859999999999999,-42.5134836,-65.7182826,-49.847346,31.74760278,-29.398474980000003,-114.52857462
1.98,198,-0.32299999999999995,-0.516,-0.682,-38.8465524,-69.61439700000001,-50.0192334,31.81635774,-29.71933146,-115.44530742
1.99,199,-0.314,-0.55,-0.687,-36.7839036,-70.7030172,-51.10785360000001,31.91949018,-30.04018794000001,-116.38495854
2.0,200,-0.273,-0.569,-0.6829999999999999,-35.4088044,-70.1300592,-52.3110654,32.05127052,-30.33239652,-117.34179840000002
2.01,201,-0.238,-0.5710000000000001,-0.693,-33.804522,-71.2759752,-53.285094,32.211698760000004,-30.64179384,-118.31582699999998
2.02,202,-0.214,-0.564,-0.687,-31.4553942,-73.73969459999998,-53.34238979999999,32.40650448,-30.9683799,-119.30704434
2.03,203,-0.197,-0.555,-0.68,-28.762491600000004,-75.916935,-52.597544400000004,32.647146840000005,-31.3121547,-120.31545042
2.04,204,-0.182,-0.545,-0.674,-24.8663772,-76.89096359999998,-52.0818822,32.933625840000005,-31.66165908,-121.32958607999998
2.05,205,-0.17800000000000002,-0.527,-0.64,-19.6524594,-79.9849368,-51.1651494,33.2888598,-32.02262262000001,-122.36091048
2.0599999999999996,206,-0.196,-0.53,-0.633,-15.3552744,-84.39671340000002,-49.7327544,33.70711914,-32.429422800000005,-123.40942362
2.07,207,-0.205,-0.528,-0.625,-12.261301199999998,-87.7198698,-48.5868384,34.17121512000001,-32.87060046000001,-124.48658466
2.0799999999999996,208,-0.198,-0.542,-0.605,-9.0527364,-89.49603959999997,-47.7274014,34.68114774,-33.31750770000001,-125.56947528
2.09,209,-0.179,-0.557,-0.593,-6.0733548,-90.0117018,-47.4409224,35.236917,-33.76441494,-126.66955464
2.0999999999999996,210,-0.153,-0.561,-0.597,-2.7501984,-91.0430262,-46.9252602,35.84998205999999,-34.18840386,-127.78682274
2.11,211,-0.129,-0.552,-0.584,0.286479,-93.2202666,-46.352302200000004,36.50315418,-34.64677026,-128.92127958
2.1199999999999997,212,-0.107,-0.5429999999999999,-0.537,4.5263682,-96.4861272,-45.4355694,37.23081084,-35.122325399999994,-130.07865474
2.13,213,-0.1,-0.527,-0.519,10.4278356,-101.986524,-43.9458786,38.0444112,-35.63225802,-131.28759612000002
2.1399999999999997,214,-0.109,-0.517,-0.512,15.183387000000002,-105.8826384,-42.7999626,38.94395526,-36.16510896000001,-132.5251854
2.15,215,-0.115,-0.51,-0.473,20.05353,-107.8306956,-42.398892,39.91798386,-36.68650074,-133.80288174
2.1599999999999997,216,-0.108,-0.502,-0.421,25.6685184,-108.05987879999999,-43.0864416,40.97795616000001,-37.19643336,-135.10349639999998
2.17,217,-0.096,-0.496,-0.386,31.054323600000004,-108.6328368,-44.4615408,42.11814258,-37.68344766,-136.44421812000002
2.1799999999999997,218,-0.07400000000000001,-0.485,-0.341,36.4401288,-109.6068654,-45.3209778,43.35000228,-38.14754364,-137.81931731999998
2.19,219,-0.041,-0.474,-0.316,42.5707794,-110.294415,-45.263682,44.66780568,-38.5887213,-139.22306442
2.1999999999999997,220,-0.016,-0.455,-0.264,49.3316838,-110.6381898,-44.8053156,46.08301193999999,-39.00125106,-140.64972984
2.21,221,-0.002,-0.426,-0.208,57.7541664,-109.3203864,-44.6334282,47.5841619,-39.38513292,-142.08212483999995
2.2199999999999998,222,0.001,-0.406,-0.21600000000000005,65.8328742,-109.0912032,-44.6334282,49.1884443,-39.74036688,-143.53170858
2.23,223,0.002,-0.396,-0.17600000000000002,72.192708,-110.00793600000002,-44.404245,50.88439998,-40.06695294000001,-145.00994022
2.2399999999999998,224,0.008,-0.398,-0.115,78.38065440000003,-112.7008386,-43.65939960000001,52.67202894,-40.37635026,-146.52827892
2.25,225,0.019,-0.388,-0.058,84.1675302,-113.2737966,-42.91455420000001,54.55133118,-40.6513701,-148.06953593999995
2.26,226,0.035,-0.377,0.018000000000000002,93.6213372,-110.40900659999998,-42.28430039999999,56.50511795999999,-40.88628288,-149.58787464
2.27,227,0.061,-0.369,0.085,103.8772854,-106.1691174,-41.023792799999995,58.53911886000001,-41.06962944,-151.06037669999995
2.28,228,0.099,-0.3720000000000001,0.124,112.586247,-102.5021862,-38.7319608,60.63614514,-41.20713936,-152.48704212
2.29,229,0.11,-0.361,0.171,118.0866438,-103.0751442,-35.236917,62.78473764,-41.34464928,-153.90797795999995
2.3,230,0.128,-0.333,0.225,123.0713784,-102.273003,-30.4240698,64.98489636000001,-41.47070004,-155.31172506
2.31,231,0.109,-0.297,0.249,128.629071,-103.418919,-26.69984280000001,67.23089172,-41.5967508,-156.70401299999997
2.32,232,0.065,-0.281,0.266,132.639777,-103.2470316,-23.9496444,69.51126456,-41.7113424,-158.09057135999996
2.3299999999999996,233,0.055,-0.293,0.3,131.4365652,-105.08049720000001,-20.2254174,71.79163739999998,-41.825934000000004,-159.49431846
2.34,234,-0.006,-0.304,0.311,127.65504240000001,-113.2737966,-15.183387000000002,74.10065814,-41.96344392,-160.98973884
2.3499999999999996,235,-0.059,-0.214,0.384,128.7436626,-115.3937412,-11.9748222,76.46124510000001,-42.09522426,-162.51953669999997
2.36,236,-0.052000000000000005,-0.22,0.465,137.05155359999998,-112.4716554,-10.7716104,78.86193912,-42.18116796,-164.00922749999995
2.3699999999999997,237,-0.02,-0.241,0.542,132.23870639999998,-112.6435428,-7.2765666,81.22252608,-42.26138208,-165.49318872
2.38,238,0.019,-0.242,0.624,127.2539718,-118.2585312,-0.4583664000000001,83.57738346,-42.36451452,-167.05163448
2.3899999999999997,239,0.067,-0.225,0.585,117.3990942,-124.5037734,7.333862400000001,85.8864042,-42.50775402,-168.69029436
2.4,240,0.098,-0.199,0.414,109.20579479999999,-136.93696200000002,15.756345000000001,88.25845032,-42.67964142,-170.51230080000005
2.4099999999999997,241,0.177,0.066,0.6729999999999999,103.991877,-171.7728084,47.9565846,90.90551628,-43.10935992,-172.81559195999995
2.42,242,-0.28,0.257,0.149,124.9621398,-212.2236432,87.94905299999998,94.21148394,-43.82555742,-175.73194818
2.4299999999999997,243,-1.3869999999999998,-0.971,0.012,139.17149819999997,-246.37194,101.2416786,98.09613918,-44.48445912,-179.22699198
2.44,244,-2.104,-1.3130000000000002,0.474,99.694692,-264.3055254,144.27082439999995,101.93495778,-45.36108486,176.80910922
2.4499999999999997,245,-3.123,-1.001,0.649,99.694692,-236.058696,193.8316914,105.77950596,-46.60440372,172.9187244
2.46,246,-3.998,-0.7859999999999999,0.579,113.3883882,-198.9883134,209.9318112,109.64697246,-47.93366628,169.26325236
2.4699999999999998,247,-3.999,-0.439,0.83,120.5503632,-145.93240260000005,209.8172196,113.25087827999998,-49.30303590000001,166.11771294
2.48,248,-3.964,-0.915,0.584,131.4365652,-100.3249458,190.56583080000001,116.59122342,-50.57500266,163.52221319999995
2.4899999999999998,249,-3.1860000000000004,-0.13699999999999998,0.483,99.5228046,3.5523396000000003,209.3588532,118.76846382,-52.425657,162.02679282
2.5,250,-2.432,0.614,0.856,128.8009584,13.5791046,262.414764,121.69054962,-54.746136899999996,160.03289898
2.51,251,-2.249,-0.006999999999999999,0.6709999999999999,205.118964,-21.199446,239.7256272,125.93043882,-56.60252082,157.4202105
2.52,252,-1.651,-0.275,0.405,183.633039,31.054323600000004,222.594183,129.5171559,-58.53911886000001,155.38048002
2.53,253,-1.594,-0.308,0.789,182.8308978,24.4653066,229.5269748,133.60234644,-60.40696194,152.79643944
2.54,254,-2.228,-0.106,1.099,199.7904546,-25.0382646,257.2008462,139.26890106,-61.98259644,148.65395310000005
2.55,255,-2.367,0.41,1.3090000000000002,154.5840684,-19.2513888,304.0688106,145.70894898,-63.66709296000001,143.19366336000004
2.56,256,-1.936,0.674,0.647,145.9896984,-6.6463128000000005,320.2262262000001,152.95686768000004,-65.23699787999999,136.81091124
2.57,257,-1.71,0.444,0.89,155.04243480000005,-24.0069402,286.5362958,160.4855358,-66.1480011,130.28491962
2.5799999999999996,258,-2.191,0.7559999999999999,1.288,126.7383096,-69.6716928,265.2222582,167.88815316,-66.19956732,123.62141808
2.59,259,-2.103,0.642,1.3430000000000002,174.2938236,-100.3249458,250.4972376,175.40536212,-65.58650226,117.34752798000002
2.5999999999999996,260,-1.871,0.3670000000000001,1.288,132.00952320000002,-94.9964364,213.6560382,-178.67695229999995,-64.7156061,112.32268632
2.61,261,-2.042,-0.223,1.142,78.8390208,-82.33406459999998,182.3725314,-174.27663486,-63.79314372,108.3463578
2.6199999999999997,262,-1.891,-0.569,0.987,-14.037471,-74.02617359999998,157.62074579999995,-171.53789562,-62.87068134,105.13206342
2.63,263,-1.5119999999999998,0.194,0.792,-48.7587258,-63.25456320000001,138.59854019999997,-169.64140464,-62.02270350000001,102.45061998
2.6399999999999997,264,-1.06,0.21600000000000005,0.684,-83.36538900000002,-67.9528188,97.5174516,-168.97104378,-61.16899608,100.73747556
2.65,265,-0.967,0.11,0.396,-79.641162,-79.0109082,78.03687959999998,-168.6788352,-60.25226328,99.49988628
2.6599999999999997,266,-0.955,0.185,0.33,-56.149884,-74.0834694,60.6189564,-168.50121822,-59.41001502,98.64617886
2.67,267,-0.907,0.43,0.426,-20.8556712,-71.5051584,45.4928652,-168.23765754,-58.63079214,98.09613918
2.6799999999999997,268,-0.902,0.239,0.5660000000000001,4.9274388,-68.6403684,22.631841,-168.0772293,-57.92032422,97.98154758
2.69,269,-0.825,0.2,0.519,13.521808800000002,-56.149884,-1.145916,-168.15171384,-57.38747328,98.24510826
2.6999999999999997,270,-0.738,0.32299999999999995,0.505,10.026765,-41.539455,-12.4904844,-168.31214208,-56.99786184000001,98.58888306
2.71,271,-0.6940000000000001,0.493,0.541,13.6936962,-38.0444112,-7.2765666,-168.40954494,-56.64835746,98.87536206
2.7199999999999998,272,-0.602,0.481,0.453,15.6417534,-37.6433406,-6.3598338,-168.47257032,-56.30458266,99.14465232
2.73,273,-0.562,0.503,0.334,18.334656,-39.4195104,-13.750992000000002,-168.61008024,-55.94934870000001,99.53999334
2.7399999999999998,274,-0.511,0.541,0.34,19.3659804,-41.7113424,-15.870936600000002,-168.77623806000003,-55.58265558000001,99.981171
2.75,275,-0.508,0.339,0.29600000000000004,19.767051,-42.97185,-24.2934192,-169.00542126,-55.21596246,100.53121068
2.76,276,-0.341,0.35,0.293,14.32395,-47.269034999999995,-18.907614000000002,-169.26325236,-54.79770312000001,101.02968414
2.77,277,-0.297,0.263,0.383,16.042824000000003,-57.1239126,-14.7823164,-169.46378766,-54.27631134000001,101.48805054
2.78,278,-0.416,0.218,0.463,1.8907613999999997,-66.9787902,-7.0473834,-169.72161876,-53.64032796,101.83755492
2.79,279,-0.5760000000000001,0.149,0.5670000000000001,-8.307891,-66.0620574,-7.6203414,-170.07685272,-53.01580374,102.18705930000002
2.8,280,-0.612,0.079,0.542,-11.45916,-56.66554620000001,-14.495837400000001,-170.50657122,-52.48295279999999,102.59385948
2.81,281,-0.6559999999999999,0.182,0.58,-3.3231564,-50.1911208,-13.464512999999998,-170.8274277,-52.01885682000001,102.96628218
2.82,282,-0.754,0.223,0.5429999999999999,-5.0993262,-47.555514,-16.386598799999998,-171.18839124000004,-51.58340874,103.36162319999998
2.8299999999999996,283,-0.777,0.295,0.732,17.5325148,-43.0291458,-18.1054728,-171.32590116,-51.1937973,103.77415296
2.84,284,-0.772,0.354,0.7709999999999999,13.2926256,-41.3675676,-18.6784308,-171.50351814,-50.82137460000001,104.18095314
2.8499999999999996,285,-0.7559999999999999,0.229,0.7490000000000001,10.7716104,-36.32553720000001,-22.0015872,-171.69259428,-50.48905896,104.5934829
2.86,286,-0.778,0.337,0.7809999999999999,7.333862400000001,-25.0382646,-23.14750320000001,-171.93896622,-50.2770645,105.01747182
2.8699999999999997,287,-0.775,0.272,0.8079999999999999,19.8243468,-12.9488508,-23.5485738,-172.04209866000005,-50.1911208,105.41281284
2.88,288,-0.784,0.363,0.8029999999999999,-12.6623718,-11.2872726,-19.194093,-172.42025094000005,-50.1051771,105.73366932000002
2.8899999999999997,289,-0.8,0.237,0.8059999999999999,-4.4690724,-7.7922288,-18.1054728,-172.68954119999995,-50.04788129999999,106.03160748
2.9,290,-0.84,0.249,0.738,2.291832,-4.583664,-21.3713334,-172.88434692,-50.03069255999999,106.33527522
2.9099999999999997,291,-0.847,0.26,0.7140000000000001,4.9847345999999995,-0.5156622000000001,-27.5592798,-173.15936676,-50.05934046,106.75926414
2.92,292,-0.87,0.29100000000000004,0.758,9.568398599999998,7.448453999999999,-34.8358464,-173.4630345,-50.17393206,107.28065592
2.9299999999999997,293,-0.893,0.273,0.8079999999999999,17.589810600000003,19.8816426,-43.65939960000001,-173.77243182,-50.420304,107.91090972
2.94,294,-0.928,0.292,0.8220000000000001,29.335449600000004,32.945085,-51.9099948,-174.05318124,-50.80418586,108.65575511999998
2.9499999999999997,295,-0.954,0.263,0.84,44.1750618,44.117766,-58.8427866,-174.25944612,-51.30265932,109.49227379999999
2.96,296,-0.964,0.194,0.888,46.982556,53.9726436,-63.82752120000001,-174.50581806,-51.89853564,110.40327702
2.9699999999999998,297,-0.93,0.277,0.856,36.955791,64.8588456,-67.49445240000001,-174.90688866,-52.60327398,111.37157604
2.98,298,-0.907,0.212,0.797,38.67466500000001,71.9635248,-70.5311298,-175.34806632,-53.37676728,112.40290043999998
2.9899999999999998,299,-0.87,0.249,0.7090000000000001,36.2109456,75.8596392,-73.2240324,-175.88091726,-54.18463806000001,113.5029798
3.0,300,-0.8640000000000001,0.177,0.643,34.262888399999994,76.48989300000002,-77.40662579999999,-176.52263022,-54.992508840000006,114.70619159999998
3.01,301,-0.856,0.165,0.588,39.7059894,69.7862844,-77.40662579999999,-177.16434318,-55.73162466,115.96096962
3.02,302,-0.826,0.157,0.555,54.3164184,61.30650600000001,-73.45321560000002,-177.64562790000005,-56.3790672,117.19282932000002
3.03,303,-0.8270000000000001,0.062,0.57,57.63957480000001,50.47759979999999,-70.7030172,-178.09253514,-56.91191814,118.41895944
3.04,304,-0.795,0.033,0.585,54.717489,42.7999626,-67.322565,-178.54517196,-57.35882538,119.61644166
3.05,305,-0.772,-0.079,0.579,62.22323879999999,32.7731976,-60.10329419999999,-178.85456928000005,-57.70260018000001,120.71652102
3.06,306,-0.8270000000000001,-0.058,0.603,57.58227899999999,23.032911600000002,-50.6494872,-179.06083415999996,-57.94897212000001,121.65044256
3.07,307,-0.879,0.002,0.607,54.94667220000001,16.673077799999998,-42.685371,-179.18115533999998,-58.126589100000004,122.44685418
3.08,308,-0.8809999999999999,-0.03,0.574,57.1239126,18.1054728,-39.3049188,-179.23272156000004,-58.32139482,123.18024042
3.09,309,-0.8759999999999999,-0.047,0.5379999999999999,57.811462199999994,33.8618178,-37.0130868,-179.23272156000004,-58.66516962000001,123.86779002
3.0999999999999996,310,-0.882,-0.085,0.514,46.6387812,41.0810886,-36.5547204,-179.35877232,-59.08342895999999,124.55533962
3.11,311,-0.856,-0.119,0.452,38.90384820000001,49.1025006,-34.950438,-179.53065972,-59.58190241999999,125.20851174000002
3.1199999999999997,312,-0.8220000000000001,-0.17,0.41,25.553926800000006,49.1025006,-29.1635622,-179.74838376,-60.06891672,125.75282184
3.13,313,-0.8290000000000001,-0.16,0.361,18.7930224,42.28430039999999,-23.204799,-179.94891906,-60.49290564,126.19399950000002
3.1399999999999997,314,-0.8029999999999999,-0.21600000000000005,0.368,14.5531332,36.669312,-20.340009,179.84005704,-60.85386918,126.5950701
3.15,315,-0.8009999999999999,-0.165,0.34,7.7349330000000025,30.65325300000001,-17.589810600000003,179.54784846,-61.16899608,126.9961407
3.1599999999999997,316,-0.775,-0.16899999999999998,0.355,5.6722842,23.835052800000003,-13.6936962,179.36450190000005,-61.40390886,127.27116054
3.17,317,-0.787,-0.123,0.326,1.8334656000000005,18.334656,-6.8182002000000015,179.26136946,-61.58725542000001,127.40867045999998
3.1799999999999997,318,-0.7829999999999999,-0.139,0.34,-0.5156622000000001,14.896907999999998,-4.9274388,179.1639666,-61.73622450000001,127.50607332
3.19,319,-0.802,-0.105,0.333,-3.0366774,12.7196676,-2.5210152000000003,179.08948206,-61.85654568,127.55190996000002
3.1999999999999997,320,-0.7929999999999999,-0.087,0.348,-5.443101,12.4904844,0.6875496,179.00353836,-61.99978518,127.58055786
3.21,321,-0.8140000000000001,-0.071,0.34700000000000003,-9.5111028,12.5477802,5.5576926,179.00926794,-62.12583594,127.4545071
3.2199999999999998,322,-0.8109999999999999,-0.079,0.355,-11.745639,11.45916,9.224623800000002,179.06656374,-62.24042754,127.2539718
3.23,323,-0.8190000000000001,-0.067,0.343,-13.980175199999998,8.307891,13.6936962,179.18688492,-62.32064166,126.95603364000002
3.2399999999999998,324,-0.83,-0.05,0.343,-14.8396122,3.5523396000000003,17.761698000000006,179.37596105999995,-62.35501913999999,126.57215178
3.25,325,-0.838,-0.025,0.344,-15.870936600000002,-1.6042823999999998,20.6837838,179.60514426,-62.36074872,126.13097412
3.26,326,-0.841,-0.005,0.35100000000000003,-16.902261,-6.8182002000000015,22.459953600000002,179.86297536,-62.28626418,125.64968940000001
3.27,327,-0.8440000000000001,0.017,0.364,-17.131444199999994,-11.917526400000002,23.491278,-179.86870494,-62.16594299999999,125.15121594
3.28,328,-0.853,0.036000000000000004,0.379,-16.8449652,-16.558486199999994,23.6631654,-179.59941468,-61.99978518,124.65847206
3.29,329,-0.862,0.044,0.392,-15.5844576,-22.2307704,23.376686399999997,-179.33012442,-61.77633156,124.18291692
3.3,330,-0.8690000000000001,0.059,0.404,-14.896907999999998,-25.6112226,23.032911600000002,-179.05510458,-61.52423004,123.70736178
3.31,331,-0.877,0.055,0.42,-14.381245800000002,-28.5333084,22.2307704,-178.81446222,-61.23775104,123.26618412
3.32,332,-0.878,0.066,0.433,-14.610429000000002,-30.366774000000003,21.7151082,-178.59673818,-60.92835372,122.85365436
3.33,333,-0.8759999999999999,0.065,0.451,-13.980175199999998,-31.741873200000004,20.9702628,-178.3904733,-60.60749724,122.45831334
3.34,334,-0.8740000000000001,0.063,0.459,-13.5791046,-32.142943800000005,20.1108258,-178.20139716,-60.28091118000001,122.08589064
3.3499999999999996,335,-0.88,0.07400000000000001,0.468,-14.381245800000002,-32.544014399999995,19.0795014,-178.02950976,-59.9600547,121.73065668
3.36,336,-0.885,0.08800000000000001,0.488,-14.266654199999998,-32.658606,17.475219,-177.903459,-59.62773906,121.42125936
3.3699999999999997,337,-0.89,0.096,0.515,-12.9488508,-32.6013102,15.527161800000002,-177.80032656,-59.29542342,121.15769868
3.38,338,-0.894,0.096,0.537,-11.0580894,-31.913760600000003,13.8082878,-177.71438286,-58.97456694,120.92851548000002
3.3899999999999997,339,-0.905,0.097,0.5579999999999999,-9.3965112,-31.111619399999995,11.9748222,-177.63989832,-58.66516962000001,120.73943934000002
3.4,340,-0.902,0.09,0.58,-8.8235532,-29.5646328,10.1986524,-177.57687294,-58.36150188000001,120.56755194
3.4099999999999997,341,-0.8909999999999999,0.094,0.591,-9.740286,-26.5852512,8.4224826,-177.56541378,-58.09221162,120.44150118
3.42,342,-0.8759999999999999,0.093,0.59,-9.5111028,-22.345362,6.3598338,-177.58260252,-57.86875799999999,120.3498279
3.4299999999999997,343,-0.86,0.08800000000000001,0.573,-9.2819196,-18.3919518,4.3544808,-177.62270958000005,-57.68541144,120.29253210000002
3.44,344,-0.872,0.093,0.5479999999999999,-8.9954406,-16.386598799999998,2.6929026,-177.68573496000005,-57.51925361999999,120.25815462
3.4499999999999997,345,-0.877,0.091,0.546,-8.193299399999999,-15.813640800000002,0.6875496,-177.7315716,-57.37028454,120.22950672000002
3.46,346,-0.863,0.081,0.552,-6.703608600000001,-15.813640800000002,-1.2032118,-177.83470404,-57.2098563,120.26961378
3.4699999999999998,347,-0.86,0.077,0.556,-5.844171599999999,-14.8396122,-3.0366774,-177.95502522,-57.06661680000001,120.34409832
3.48,348,-0.861,0.079,0.563,-4.9274388,-13.750992000000002,-5.0993262,-178.09253514,-56.92910687999999,120.45296034
3.4899999999999998,349,-0.863,0.079,0.565,-3.0939732,-12.7769634,-6.990087599999999,-178.23577464,-56.80878570000001,120.59047026
3.5,350,-0.862,0.07400000000000001,0.573,-1.0313244,-11.9748222,-8.8235532,-178.35609582,-56.68846452,120.73370975999998
3.51,351,-0.866,0.07200000000000001,0.58,0.1718874,-11.45916,-10.4851314,-178.52225364,-56.5796025,120.93424506
3.52,352,-0.847,0.065,0.581,1.6042823999999998,-10.5424272,-12.2040054,-178.69987062,-56.47647006,121.16342826
3.53,353,-0.857,0.056,0.5670000000000001,2.7501984,-8.9381448,-13.521808800000002,-178.8774876,-56.39625594,121.41552978
3.54,354,-0.853,0.055,0.574,2.9220857999999996,-7.906820400000001,-14.32395,-179.06656374,-56.3217714,121.68482004
3.55,355,-0.858,0.047,0.573,3.3804522000000006,-7.2192707999999985,-14.8396122,-179.23845114,-56.25301644,121.93692156
3.56,356,-0.8590000000000001,0.043,0.575,3.666931200000001,-6.417129599999999,-15.0114996,-179.42752728,-56.18999106,122.2119414
3.57,357,-0.863,0.037000000000000005,0.5760000000000001,4.2398892,-5.3285094000000015,-14.896907999999998,-179.61087384,-56.138424840000006,122.48123166
3.58,358,-0.86,0.031,0.5720000000000001,4.6982556,-3.9534102,-14.32395,-179.77703165999995,-56.10404736,122.73906276
3.59,359,-0.866,0.028,0.5710000000000001,4.5263682,-3.0366774,-13.6936962,-179.93173032,-56.07539946000001,122.9854347
3.5999999999999996,360,-0.865,0.021,0.5660000000000001,4.7555514,-2.1199446,-12.891555,179.92600074,-56.06394029999999,123.20888832
3.61,361,-0.865,0.017,0.5579999999999999,5.042030400000002,-1.4896908000000002,-11.745639,179.80567956,-56.04675156,123.4151532
3.6199999999999997,362,-0.861,0.02,0.55,4.9847345999999995,-1.432395,-10.8289062,179.69681754,-56.03529239999999,123.60995892
3.63,363,-0.861,0.013,0.547,5.3858052,-1.2605076000000002,-9.5111028,179.61087384,-56.02383324,123.78184632
3.6399999999999997,364,-0.85,0.011,0.537,5.443101,-1.0886202,-8.250595200000001,179.54211888,-56.01237408,123.93081540000001
3.65,365,-0.85,0.006,0.541,5.2139178,-0.8021411999999999,-6.9327918,179.49628224,-56.02383324,124.05113658
3.6599999999999997,366,-0.848,0.003,0.535,4.8701430000000006,-0.11459160000000003,-5.5003968,179.46190475999995,-56.02383324,124.14853944
3.67,367,-0.846,0.003,0.53,4.1252976000000015,0.1718874,-4.0680017999999984,179.44471602,-56.02956282,124.22302398000002
3.6799999999999997,368,-0.847,0.003,0.527,3.4950437999999995,0.5156622000000001,-2.6929026,179.43898644,-56.03529239999999,124.2745902
3.69,369,-0.845,0.004,0.527,2.86479,0.7448454000000001,-1.0886202,179.45044560000005,-56.04102198,124.29177894
3.6999999999999997,370,-0.848,0.016,0.524,2.5210152000000003,1.3750992,0.3437748,179.55357804,-56.12696568,124.22302398000002
3.71,371,-0.84,0.017,0.527,2.9220857999999996,2.1199446,1.6615782,179.61087384,-56.14988400000001,124.1886465
3.7199999999999998,372,-0.843,0.019,0.536,2.2345362,0.1718874,2.3491278,179.66816964,-56.14988400000001,124.14853944
3.73,373,-0.8440000000000001,0.018000000000000002,0.5379999999999999,1.4896908000000002,-1.0313244,2.6356068,179.72546544,-56.138424840000006,124.1027028
3.7399999999999998,374,-0.8420000000000001,0.024,0.5379999999999999,0.11459160000000003,-1.8334656000000005,2.8074942000000003,179.76557250000005,-56.1212361,124.05113658
3.75,375,-0.8440000000000001,0.028,0.539,-0.3437748,-2.291832,3.0366774,179.87443452,-56.14415441999999,123.93654498
3.76,376,-0.843,0.031,0.54,-0.7448454000000001,-2.3491278,3.0939732,179.91454158,-56.1212361,123.88497876
3.77,377,-0.845,0.032,0.542,-1.2032118,-2.4637194,3.0366774,179.94891906,-56.0925882,123.82768296
3.78,378,-0.847,0.033,0.542,-1.5469866,-2.7501984,3.0366774,179.97756696,-56.06394029999999,123.77611674
3.79,379,-0.8490000000000001,0.033,0.542,-1.6615782,-2.9220857999999996,3.0366774,-179.98902612,-56.03529239999999,123.71882094
3.8,380,-0.85,0.034,0.545,-1.5469866,-3.0366774,3.0366774,-179.90881199999995,-56.03529239999999,123.6156885
3.81,381,-0.85,0.036000000000000004,0.55,-1.7188740000000002,-3.4377480000000005,2.8074942000000003,-179.88016409999997,-56.00091491999999,123.56985186
3.82,382,-0.852,0.037000000000000005,0.552,-1.7188740000000002,-3.666931200000001,2.7501984,-179.86297536,-55.96653744,123.52401522
3.83,383,-0.852,0.04,0.5539999999999999,-2.0053530000000004,-3.8388186,2.3491278,-179.84578661999996,-55.92643038,123.48390815999998
3.84,384,-0.85,0.041,0.5529999999999999,-1.6042823999999998,-3.6096354,2.1199446,-179.83432746,-55.892052899999996,123.44380110000002
3.8499999999999996,385,-0.8490000000000001,0.041,0.5529999999999999,-1.2032118,-3.2085648,1.7761698,-179.73119502,-55.892052899999996,123.34066866
3.86,386,-0.847,0.04,0.5539999999999999,-1.0313244,-3.151269,1.3750992,-179.72546544,-55.86340500000001,123.31775034
3.8699999999999997,387,-0.847,0.041,0.556,-1.0886202,-2.9793816000000004,0.9740286,-179.72546544,-55.82902752,123.3005616
3.88,388,-0.847,0.04,0.557,-1.2605076000000002,-2.2345362,0.6302538000000001,-179.72546544,-55.80610920000001,123.28910244
3.8899999999999997,389,-0.846,0.038,0.555,-1.4896908000000002,-1.145916,0.3437748,-179.7369246,-55.79465004,123.28337286
3.9,390,-0.846,0.037000000000000005,0.5529999999999999,-1.7188740000000002,-0.6302538000000001,0.22918320000000006,-179.58222594,-55.87486416,123.13440378
3.9099999999999997,391,-0.847,0.038,0.551,-1.7761698,-0.6302538000000001,0.1718874,-179.59941468,-55.86913458,123.1286742
3.92,392,-0.85,0.041,0.5489999999999999,-1.6615782,-0.9740286,0.0,-179.61660342,-55.85767542,123.1286742
3.9299999999999997,393,-0.848,0.041,0.55,-1.3750992,-1.2605076000000002,-0.5156622000000001,-179.63952174000005,-55.84621625999999,123.14013336
3.94,394,-0.848,0.042,0.55,-1.145916,-1.6615782,-0.9167328,-179.66816964,-55.82902752,123.15732210000002
3.9499999999999997,395,-0.848,0.04,0.55,-1.0313244,-1.6615782,-1.3750992,-179.59368510000004,-55.86340500000001,123.08856714
3.96,396,-0.848,0.038,0.55,-0.8594370000000001,-1.7761698,-1.6042823999999998,-179.62806258,-55.84048668000001,123.12294462
3.9699999999999998,397,-0.846,0.037000000000000005,0.5489999999999999,-0.9740286,-1.8334656000000005,-1.9480572,-179.66816964,-55.82329794,123.15732210000002
3.98,398,-0.843,0.036000000000000004,0.547,-1.0313244,-1.5469866,-2.1772404,-179.7082767,-55.81183878,123.19742916
3.9899999999999998,399,-0.843,0.035,0.546,-1.0313244,-1.4896908000000002,-2.291832,-179.75411334,-55.79465004,123.23753622
4.0,400,-0.843,0.033,0.544,-1.0886202,-1.6615782,-2.3491278,-179.72546544,-55.82329794,123.21461789999998
4.01,401,-0.843,0.033,0.545,-1.145916,-1.8907613999999997,-2.4064236,-179.77703165999995,-55.80610920000001,123.26045454
4.02,402,-0.843,0.03,0.546,-1.2605076000000002,-2.1772404,-2.3491278,-179.8228683,-55.78319088000001,123.30629118
4.03,403,-0.843,0.03,0.5479999999999999,-1.2605076000000002,-2.2345362,-2.3491278,-179.87443452,-55.76027256,123.34639823999998
4.04,404,-0.843,0.03,0.55,-1.2605076000000002,-2.0626488000000003,-2.291832,-179.92027116000003,-55.73735424,123.3865053
4.05,405,-0.843,0.027000000000000003,0.551,-1.145916,-2.0626488000000003,-2.2345362,-179.90881199999995,-55.75454298,123.38077572
4.06,406,-0.8440000000000001,0.027000000000000003,0.552,-1.145916,-2.0053530000000004,-2.0053530000000004,-179.95464864000004,-55.73735424,123.42088278
4.07,407,-0.8440000000000001,0.027000000000000003,0.5529999999999999,-0.9167328,-2.0626488000000003,-1.8334656000000005,-179.98902612,-55.71443592000001,123.44953068
4.08,408,-0.841,0.025,0.552,-0.8021411999999999,-1.8334656000000005,-1.432395,179.97183738,-55.69724718,123.47817858
4.09,409,-0.8420000000000001,0.025,0.551,-0.6302538000000001,-1.6615782,-1.145916,179.94891906,-55.68005844,123.5010969
4.1,410,-0.843,0.024,0.552,-0.5156622000000001,-1.7188740000000002,-0.8594370000000001,-179.97183738,-55.72589508000001,123.43807152
4.109999999999999,411,-0.8440000000000001,0.023,0.555,-0.4010706,-1.7761698,-0.4583664000000001,-179.98902612,-55.708706340000006,123.44953068
4.12,412,-0.847,0.023,0.555,-0.22918320000000006,-1.8907613999999997,0.0,-179.98902612,-55.69151760000001,123.44953068
4.13,413,-0.847,0.025,0.557,-0.057295800000000015,-2.0053530000000004,0.286479,-179.98902612,-55.66859928,123.44380110000002
4.14,414,-0.847,0.026,0.5579999999999999,0.0,-1.9480572,0.6875496,-179.97756696,-55.65141053999999,123.43234194
4.1499999999999995,415,-0.845,0.027000000000000003,0.5579999999999999,-0.057295800000000015,-1.8907613999999997,0.9167328,-179.86870494,-55.68578802,123.33493908
4.16,416,-0.845,0.028,0.556,-0.22918320000000006,-1.8334656000000005,1.0886202,-179.85724578,-55.66859928,123.31202076
4.17,417,-0.8440000000000001,0.03,0.5539999999999999,-0.4010706,-1.7761698,1.2605076000000002,-179.84005704,-55.65141053999999,123.28910244
4.18,418,-0.8420000000000001,0.029,0.5529999999999999,-0.6875496,-1.7761698,1.2032118,-179.83432746,-55.6342218,123.2719137
4.1899999999999995,419,-0.84,0.03,0.555,-0.6302538000000001,-2.0053530000000004,1.2605076000000002,-179.81713872,-55.61130347999999,123.24899538
4.2,420,-0.841,0.03,0.5539999999999999,-0.6302538000000001,-2.291832,1.2605076000000002,-179.7369246,-55.6342218,123.16305168
4.21,421,-0.843,0.031,0.556,-0.6302538000000001,-2.578311,1.3750992,-179.72546544,-55.6055739,123.14013336
4.22,422,-0.843,0.032,0.556,-0.6302538000000001,-2.9220857999999996,1.5469866,-179.7082767,-55.57692599999999,123.11721504
4.2299999999999995,423,-0.8440000000000001,0.03,0.555,-0.7448454000000001,-3.2658606,1.6042823999999998,-179.69108795999998,-55.54254852,123.08856714
4.24,424,-0.8420000000000001,0.031,0.5529999999999999,-0.8594370000000001,-3.4377480000000005,1.5469866,-179.67962880000005,-55.50817104,123.05991924
4.25,425,-0.841,0.032,0.556,-0.9740286,-3.6096354,1.7188740000000002,-179.61660342,-55.50244146,122.99116428
4.26,426,-0.843,0.032,0.5579999999999999,-0.9740286,-3.6096354,1.6042823999999998,-179.60514426,-55.46806398,122.96251637999998
4.27,427,-0.843,0.033,0.557,-0.9167328,-3.3231564,1.6042823999999998,-179.59368510000004,-55.4336865,122.93386848
4.28,428,-0.8440000000000001,0.034,0.5579999999999999,-0.8594370000000001,-3.151269,1.6615782,-179.57649636,-55.40503860000001,122.91095016
4.29,429,-0.843,0.036000000000000004,0.5589999999999999,-0.9740286,-3.0939732,1.5469866,-179.5650372,-55.37066112,122.88230226
4.3,430,-0.841,0.037000000000000005,0.5579999999999999,-1.0313244,-3.0939732,1.432395,-179.48482308,-55.37639069999999,122.79635856
4.31,431,-0.84,0.038,0.5579999999999999,-0.9167328,-3.2085648,1.2605076000000002,-179.47336392000003,-55.34201322,122.77344024
4.32,432,-0.84,0.037000000000000005,0.5579999999999999,-0.9167328,-3.2658606,1.0313244,-179.47336392000003,-55.30763574,122.7562515
4.33,433,-0.84,0.036000000000000004,0.5589999999999999,-0.7448454000000001,-3.3231564,0.9167328,-179.46763434,-55.27898784,122.74479233999998
4.34,434,-0.84,0.036000000000000004,0.561,-0.8594370000000001,-3.3231564,0.8021411999999999,-179.46190475999995,-55.24461036,122.73333318
4.35,435,-0.84,0.035,0.562,-0.9167328,-3.151269,0.8021411999999999,-179.39887937999995,-55.24461036,122.66457822
4.36,436,-0.841,0.038,0.563,-1.0313244,-3.151269,0.7448454000000001,-179.40460896,-55.21596246,122.65311906
4.37,437,-0.8390000000000001,0.038,0.564,-1.0313244,-3.0939732,0.5156622000000001,-179.40460896,-55.18158498,122.64738948
4.38,438,-0.8390000000000001,0.037000000000000005,0.563,-1.145916,-2.9793816000000004,0.3437748,-179.41606812,-55.15293708,122.64165990000002
4.39,439,-0.838,0.038,0.564,-1.2605076000000002,-3.0366774,0.11459160000000003,-179.42752728,-55.12428918000001,122.63593032
4.3999999999999995,440,-0.836,0.037000000000000005,0.563,-1.3750992,-2.9220857999999996,-0.057295800000000015,-179.37023148,-55.13001876,122.57863452
4.41,441,-0.8370000000000001,0.037000000000000005,0.564,-1.432395,-2.9220857999999996,-0.22918320000000006,-179.38742022000002,-55.10137086000001,122.58436409999999
4.42,442,-0.836,0.036000000000000004,0.564,-1.3750992,-2.9793816000000004,-0.286479,-179.41033854,-55.06699338000001,122.59009368
4.43,443,-0.836,0.035,0.565,-1.4896908000000002,-3.0366774,-0.4583664000000001,-179.43325686,-55.03834548,122.60155284
4.4399999999999995,444,-0.8370000000000001,0.036000000000000004,0.564,-1.5469866,-2.9220857999999996,-0.5156622000000001,-179.45617518,-55.00969758,122.61301199999998
4.45,445,-0.836,0.034,0.564,-1.5469866,-2.9220857999999996,-0.4583664000000001,-179.42179769999996,-55.01542716,122.57290494000002
4.46,446,-0.838,0.033,0.5660000000000001,-1.6615782,-2.9220857999999996,-0.4010706,-179.44471602,-54.98677925999999,122.57863452
4.47,447,-0.838,0.033,0.569,-1.8334656000000005,-2.6929026,-0.4583664000000001,-179.47336392000003,-54.95813136,122.59009368
4.4799999999999995,448,-0.8390000000000001,0.033,0.5720000000000001,-1.8907613999999997,-2.4637194,-0.3437748,-179.49628224,-54.93521304,122.59582326
4.49,449,-0.838,0.034,0.5720000000000001,-1.8907613999999997,-2.2345362,-0.286479,-179.51920056,-54.91229472,122.60728242
4.5,450,-0.8370000000000001,0.032,0.57,-1.8334656000000005,-2.1199446,-0.286479,-179.4790935,-54.92948345999999,122.5557162
4.51,451,-0.836,0.032,0.569,-1.8907613999999997,-2.0053530000000004,-0.1718874,-179.50201182,-54.90656514,122.56144578
4.52,452,-0.835,0.032,0.5670000000000001,-2.1199446,-1.9480572,-0.11459160000000003,-179.53065972,-54.8893764,122.56144578
4.53,453,-0.8340000000000001,0.031,0.568,-2.1772404,-1.8907613999999997,-0.057295800000000015,-179.55357804,-54.86645808000001,122.56717536
4.54,454,-0.836,0.031,0.568,-2.0626488000000003,-1.8334656000000005,0.11459160000000003,-179.57076678,-54.84926934,122.56144578
4.55,455,-0.835,0.031,0.569,-1.9480572,-1.8334656000000005,0.11459160000000003,-179.51920056,-54.87791724,122.49842040000001
4.56,456,-0.835,0.031,0.569,-1.7761698,-1.7188740000000002,0.286479,-179.53638930000002,-54.86072849999999,122.49842040000001
4.57,457,-0.835,0.032,0.5670000000000001,-1.8907613999999997,-1.5469866,0.3437748,-179.54784846,-54.84353976,122.49269082
4.58,458,-0.833,0.031,0.568,-1.8907613999999997,-1.6042823999999998,0.4010706,-179.5650372,-54.82635102,122.48696124
4.59,459,-0.8340000000000001,0.033,0.568,-1.8907613999999997,-1.6615782,0.4583664000000001,-179.57649636,-54.80916228000001,122.47550208
4.6,460,-0.833,0.031,0.5660000000000001,-1.8334656000000005,-1.6615782,0.5156622000000001,-179.51920056,-54.83781018,122.40674712
4.61,461,-0.833,0.033,0.568,-1.7188740000000002,-1.6615782,0.572958,-179.53065972,-54.82062144,122.40101754
4.62,462,-0.8340000000000001,0.032,0.568,-1.7761698,-1.7188740000000002,0.572958,-179.53638930000002,-54.8034327,122.38955838
4.63,463,-0.836,0.031,0.569,-1.7761698,-1.8334656000000005,0.572958,-179.54784846,-54.78624396,122.37809922
4.64,464,-0.836,0.033,0.569,-1.6615782,-1.8334656000000005,0.6875496,-179.55357804,-54.76332563999999,122.36664005999998
4.6499999999999995,465,-0.835,0.033,0.569,-1.7761698,-1.7188740000000002,0.6875496,-179.49628224,-54.79197354,122.29215552
4.66,466,-0.836,0.034,0.5710000000000001,-1.7188740000000002,-1.5469866,0.6875496,-179.50201182,-54.7747848,122.28069636
4.67,467,-0.835,0.033,0.5710000000000001,-1.8334656000000005,-1.432395,0.6302538000000001,-179.51347098,-54.75759606,122.26923719999999
4.68,468,-0.835,0.033,0.57,-1.8334656000000005,-1.2605076000000002,0.5156622000000001,-179.52493013999995,-54.746136899999996,122.26350762
4.6899999999999995,469,-0.8340000000000001,0.034,0.57,-1.8334656000000005,-1.3178034,0.5156622000000001,-179.53638930000002,-54.73467774000001,122.25204846
4.7,470,-0.8340000000000001,0.034,0.568,-1.9480572,-1.2605076000000002,0.4010706,-179.46763434,-54.76332563999999,122.17756392
4.71,471,-0.8340000000000001,0.033,0.569,-1.9480572,-1.3750992,0.4583664000000001,-179.48482308,-54.75186647999999,122.17183434
4.72,472,-0.8340000000000001,0.033,0.5710000000000001,-1.9480572,-1.5469866,0.286479,-179.49628224,-54.73467774000001,122.16610475999998
4.7299999999999995,473,-0.8340000000000001,0.033,0.5710000000000001,-2.0053530000000004,-1.4896908000000002,0.286479,-179.51347098,-54.717489,122.16037518
4.74,474,-0.835,0.034,0.5720000000000001,-1.9480572,-1.432395,0.22918320000000006,-179.53065972,-54.70602984,122.1546456
4.75,475,-0.8340000000000001,0.033,0.5710000000000001,-2.0053530000000004,-1.4896908000000002,0.1718874,-179.47336392000003,-54.73467774000001,122.09162022
4.76,476,-0.8340000000000001,0.033,0.5720000000000001,-2.0053530000000004,-1.3178034,0.11459160000000003,-179.49055266,-54.717489,122.08589064
4.77,477,-0.833,0.033,0.5720000000000001,-1.9480572,-1.4896908000000002,0.11459160000000003,-179.51347098,-54.70030026000001,122.08589064
4.78,478,-0.833,0.032,0.5720000000000001,-1.9480572,-1.432395,0.1718874,-179.53065972,-54.68884110000001,122.08016106
4.79,479,-0.833,0.031,0.5710000000000001,-1.8907613999999997,-1.4896908000000002,0.1718874,-179.54784846,-54.67165236,122.08016106
4.8,480,-0.8340000000000001,0.032,0.569,-1.8907613999999997,-1.5469866,0.11459160000000003,-179.48482308,-54.70602984,122.0114061
4.81,481,-0.8340000000000001,0.032,0.5710000000000001,-1.8907613999999997,-1.4896908000000002,0.057295800000000015,-179.50201182,-54.69457067999999,122.0114061
4.82,482,-0.833,0.032,0.5720000000000001,-1.8907613999999997,-1.4896908000000002,0.057295800000000015,-179.52493013999995,-54.67738194,122.00567652
4.83,483,-0.833,0.032,0.5720000000000001,-2.0626488000000003,-1.3178034,0.0,-179.54211888,-54.6601932,122.00567652
4.84,484,-0.833,0.032,0.57,-2.0053530000000004,-1.3178034,0.0,-179.5650372,-54.64873404,122.00567652
4.85,485,-0.831,0.032,0.568,-2.0053530000000004,-1.145916,0.0,-179.49628224,-54.68884110000001,121.93119198
4.86,486,-0.831,0.032,0.5670000000000001,-2.0053530000000004,-1.2605076000000002,-0.057295800000000015,-179.51920056,-54.67738194,121.93692156
4.87,487,-0.83,0.032,0.5670000000000001,-0.1718874,0.057295800000000015,-0.4010706,-179.52493013999995,-54.67738194,121.94265114
4.88,488,-0.83,0.032,0.569,-0.4583664000000001,-0.11459160000000003,-0.572958,-179.54211888,-54.67738194,121.95411029999998
4.89,489,-0.831,0.033,0.5720000000000001,-0.5156622000000001,-0.22918320000000006,-0.6875496,-179.55357804,-54.67738194,121.96556945999998
4.8999999999999995,490,-0.831,0.032,0.573,-0.4583664000000001,-0.22918320000000006,-0.9167328,-179.41033854,-54.746136899999996,121.83951869999999
4.91,491,-0.833,0.032,0.5760000000000001,-0.286479,-0.057295800000000015,-1.0886202,-179.43325686,-54.746136899999996,121.86243702
4.92,492,-0.8320000000000001,0.029,0.5770000000000001,-0.4010706,0.11459160000000003,-0.9740286,-179.45044560000005,-54.746136899999996,121.87962576
4.93,493,-0.833,0.029,0.575,-0.3437748,0.0,-0.7448454000000001,-179.46190475999995,-54.746136899999996,121.89108492
4.9399999999999995,494,-0.833,0.028,0.5720000000000001,-0.3437748,-0.11459160000000003,-0.5156622000000001,-179.47336392000003,-54.746136899999996,121.90254408
4.95,495,-0.8320000000000001,0.028,0.5720000000000001,-0.3437748,-0.4583664000000001,-0.4010706,-179.33585399999996,-54.83208060000001,121.7822229
4.96,496,-0.83,0.029,0.575,-0.4583664000000001,-0.6875496,-0.3437748,-179.34731316,-54.82635102,121.78795248
4.97,497,-0.835,0.03,0.578,-0.4010706,-0.286479,-0.1718874,-179.35304274,-54.82062144,121.79368206
4.9799999999999995,498,-0.826,0.027000000000000003,0.569,-0.3437748,-0.057295800000000015,0.0,-179.35877232,-54.82062144,121.79368206
4.99,499,-0.831,0.028,0.5760000000000001,-0.4583664000000001,0.11459160000000003,0.0,-179.36450190000005,-54.82062144,121.79368206
5.0,500,-0.833,0.028,0.575,-0.3437748,0.3437748,0.0,-179.18688492,-54.94094262,121.6389834
5.01,501,-0.8340000000000001,0.029,0.5760000000000001,-0.22918320000000006,0.22918320000000006,0.057295800000000015,-179.18688492,-54.94094262,121.63325382
5.02,502,-0.835,0.03,0.575,-0.11459160000000003,0.1718874,0.0,-179.1926145,-54.94667220000001,121.63325382
5.03,503,-0.833,0.029,0.574,0.0,0.0,-0.057295800000000015,-179.1926145,-54.94667220000001,121.63325382
5.04,504,-0.8320000000000001,0.03,0.574,0.11459160000000003,0.0,-0.11459160000000003,-179.1926145,-54.94667220000001,121.6389834
5.05,505,-0.83,0.028,0.573,0.22918320000000006,0.057295800000000015,-0.1718874,-178.95770172,-55.06126379999999,121.4384481
5.06,506,-0.83,0.028,0.573,0.286479,0.11459160000000003,-0.1718874,-178.95197214,-55.06126379999999,121.4384481
5.07,507,-0.83,0.028,0.574,0.3437748,0.1718874,0.0,-178.95197214,-55.06699338000001,121.4384481
5.08,508,-0.83,0.027000000000000003,0.573,0.4583664000000001,0.11459160000000003,0.0,-178.94624256,-55.06699338000001,121.4384481
5.09,509,-0.83,0.029,0.574,0.3437748,0.11459160000000003,0.0,-178.94051298000005,-55.06699338000001,121.4384481
5.1,510,-0.8290000000000001,0.03,0.575,0.4583664000000001,0.0,0.0,-178.73997768,-55.17012582,121.27229028
5.11,511,-0.83,0.028,0.575,0.5156622000000001,-0.057295800000000015,-0.11459160000000003,-178.7342481,-55.17012582,121.27229028
5.12,512,-0.831,0.028,0.5770000000000001,0.572958,0.1718874,-0.1718874,-178.7342481,-55.17012582,121.27801986
5.13,513,-0.828,0.027000000000000003,0.573,0.3437748,-0.057295800000000015,-0.22918320000000006,-178.7342481,-55.17012582,121.27801986
5.14,514,-0.83,0.027000000000000003,0.578,0.286479,0.057295800000000015,-0.22918320000000006,-178.7342481,-55.17012582,121.28374944
5.1499999999999995,515,-0.828,0.027000000000000003,0.575,0.3437748,0.0,-0.22918320000000006,-178.59673818,-55.24461036,121.17488742
5.16,516,-0.8290000000000001,0.027000000000000003,0.574,0.4583664000000001,-0.1718874,-0.22918320000000006,-178.59673818,-55.24461036,121.18061699999998
5.17,517,-0.8290000000000001,0.026,0.575,0.4583664000000001,-0.1718874,-0.057295800000000015,-178.59673818,-55.23888078,121.18061699999998
5.18,518,-0.8290000000000001,0.027000000000000003,0.575,0.286479,0.0,0.0,-178.59100859999995,-55.23888078,121.18061699999998
5.1899999999999995,519,-0.831,0.027000000000000003,0.579,0.11459160000000003,0.11459160000000003,-0.11459160000000003,-178.59100859999995,-55.24461036,121.18061699999998
5.2,520,-0.831,0.027000000000000003,0.579,0.286479,0.1718874,-0.057295800000000015,-178.49360574,-55.27898784,121.10040288
5.21,521,-0.8320000000000001,0.026,0.578,0.5156622000000001,0.3437748,-0.11459160000000003,-178.48787615999996,-55.27898784,121.10613246
5.22,522,-0.83,0.026,0.575,0.6875496,0.4010706,0.0,-178.48214658,-55.28471741999999,121.10613246
5.2299999999999995,523,-0.83,0.025,0.575,0.6302538000000001,0.286479,0.0,-178.476417,-55.29044700000001,121.10040288
5.24,524,-0.8290000000000001,0.025,0.5760000000000001,0.572958,0.1718874,0.057295800000000015,-178.47068742000005,-55.29044700000001,121.10040288
5.25,525,-0.83,0.026,0.579,0.572958,0.0,0.057295800000000015,-178.39620287999998,-55.30190616,121.04310708
5.26,526,-0.831,0.028,0.578,0.6302538000000001,0.0,0.1718874,-178.38474372000005,-55.30190616,121.0373775
5.27,527,-0.831,0.027000000000000003,0.5770000000000001,0.7448454000000001,0.057295800000000015,0.11459160000000003,-178.37901414,-55.30190616,121.0373775
5.28,528,-0.8290000000000001,0.026,0.5770000000000001,0.6875496,0.0,0.11459160000000003,-178.36755498,-55.30190616,121.03164792
5.29,529,-0.828,0.026,0.575,0.4583664000000001,0.11459160000000003,0.1718874,-178.3618254,-55.30190616,121.03164792
5.3,530,-0.8270000000000001,0.026,0.575,0.5156622000000001,0.11459160000000003,0.1718874,-178.3045296,-55.33055406,120.98581128
5.31,531,-0.828,0.026,0.5760000000000001,0.572958,0.057295800000000015,0.22918320000000006,-178.29307044,-55.33055406,120.9800817
5.32,532,-0.8290000000000001,0.027000000000000003,0.578,0.7448454000000001,-0.11459160000000003,0.22918320000000006,-178.28161128,-55.33055406,120.9800817
5.33,533,-0.83,0.027000000000000003,0.578,0.8021411999999999,-0.1718874,0.286479,-178.27015212,-55.32482448,120.97435212
5.34,534,-0.83,0.026,0.579,0.8594370000000001,-0.11459160000000003,0.22918320000000006,-178.25869296,-55.32482448,120.96862254
5.35,535,-0.831,0.027000000000000003,0.579,0.9740286,-0.22918320000000006,0.286479,-178.22431548000003,-55.347742800000006,120.94570422
5.36,536,-0.83,0.027000000000000003,0.5820000000000001,1.0886202,-0.1718874,0.1718874,-178.20712674,-55.34201322,120.93997464000002
5.37,537,-0.826,0.028,0.58,1.2605076000000002,0.0,0.11459160000000003,-178.19566758,-55.34201322,120.93997464000002
5.38,538,-0.8270000000000001,0.027000000000000003,0.5770000000000001,0.8594370000000001,0.22918320000000006,0.11459160000000003,-178.18420842,-55.347742800000006,120.93424506
5.39,539,-0.83,0.028,0.5770000000000001,0.6875496,0.1718874,0.057295800000000015,-178.17274926,-55.347742800000006,120.93424506
5.3999999999999995,540,-0.828,0.028,0.579,0.7448454000000001,0.057295800000000015,0.0,-178.14410135999995,-55.37066112,120.91705632
5.41,541,-0.83,0.028,0.578,0.8594370000000001,0.057295800000000015,0.0,-178.13837178,-55.37066112,120.91705632
5.42,542,-0.8270000000000001,0.028,0.5820000000000001,0.9740286,0.057295800000000015,-0.11459160000000003,-178.12691261999996,-55.37066112,120.92278590000002
5.43,543,-0.828,0.028,0.581,0.9167328,0.1718874,-0.286479,-178.12118304,-55.37639069999999,120.92278590000002
5.4399999999999995,544,-0.8290000000000001,0.027000000000000003,0.581,0.8594370000000001,0.4583664000000001,-0.286479,-178.11545346,-55.38212028,120.92851548000002
5.45,545,-0.83,0.026,0.5820000000000001,0.8021411999999999,0.6302538000000001,-0.3437748,-178.11545346,-55.38212028,120.93424506
5.46,546,-0.83,0.026,0.5820000000000001,0.8594370000000001,0.7448454000000001,-0.4010706,-178.10972388,-55.38784986,120.93997464000002
5.47,547,-0.8270000000000001,0.028,0.583,0.9740286,0.8594370000000001,-0.286479,-178.1039943,-55.39930902,120.94570422
5.4799999999999995,548,-0.8290000000000001,0.026,0.581,1.0886202,0.9167328,-0.3437748,-178.09826472,-55.40503860000001,120.9514338
5.49,549,-0.83,0.027000000000000003,0.583,1.0886202,0.9167328,-0.22918320000000006,-178.08680556,-55.41649776000001,120.95716338
5.5,550,-0.83,0.027000000000000003,0.583,1.0886202,0.8594370000000001,-0.286479,-178.08107597999995,-55.41649776000001,120.95716338
5.51,551,-0.8270000000000001,0.026,0.5820000000000001,1.0313244,1.0886202,-0.286479,-178.06961682000005,-55.42795692,120.96289296
5.52,552,-0.826,0.026,0.58,0.8594370000000001,1.2032118,-0.1718874,-178.06388724,-55.43941608,120.96289296
5.53,553,-0.828,0.025,0.579,0.8021411999999999,1.2605076000000002,0.0,-178.05815766,-55.45660482000001,120.96289296
5.54,554,-0.826,0.026,0.58,0.6875496,1.3178034,0.0,-178.04669850000005,-55.46806398,120.96289296
5.55,555,-0.828,0.026,0.579,0.6875496,1.3178034,0.0,-178.03523934,-55.47952314000001,120.95716338
5.56,556,-0.8270000000000001,0.028,0.58,0.6875496,1.2605076000000002,0.0,-178.02950976,-55.49098230000001,120.95716338
5.57,557,-0.8270000000000001,0.027000000000000003,0.58,0.8021411999999999,1.432395,0.057295800000000015,-178.01805059999995,-55.50817104,120.95716338
5.58,558,-0.828,0.026,0.579,0.8021411999999999,1.5469866,0.0,-178.00659144000005,-55.5196302,120.9514338
5.59,559,-0.8270000000000001,0.024,0.5760000000000001,0.8594370000000001,1.5469866,0.0,-177.99513227999995,-55.53681894,120.9514338
5.6,560,-0.8290000000000001,0.025,0.575,0.8594370000000001,1.3750992,0.1718874,-177.98367312,-55.55400768,120.94570422
5.61,561,-0.8290000000000001,0.026,0.5770000000000001,0.9167328,1.3178034,0.286479,-177.96648438,-55.56546684,120.93997464000002
5.62,562,-0.8290000000000001,0.026,0.5760000000000001,1.0886202,1.2605076000000002,0.3437748,-177.94929564,-55.57692599999999,120.92851548000002
5.63,563,-0.8290000000000001,0.027000000000000003,0.58,1.0313244,1.2032118,0.286479,-177.9321069,-55.58838516,120.92278590000002
5.64,564,-0.83,0.026,0.58,0.9167328,1.2605076000000002,0.4010706,-177.91491816,-55.59984432,120.91132674
5.6499999999999995,565,-0.831,0.027000000000000003,0.578,0.572958,1.2032118,0.4583664000000001,-177.89772942,-55.61130347999999,120.89986758
5.66,566,-0.83,0.029,0.5770000000000001,0.5156622000000001,1.0313244,0.3437748,-177.88627026,-55.62276264,120.89413799999998
5.67,567,-0.8270000000000001,0.029,0.58,0.5156622000000001,1.145916,0.22918320000000006,-177.88054068,-55.6342218,120.88840842
5.68,568,-0.825,0.029,0.579,0.286479,1.3750992,0.0,-177.87481110000004,-55.65141053999999,120.88840842
5.6899999999999995,569,-0.825,0.028,0.578,0.22918320000000006,1.2032118,-0.1718874,-177.87481110000004,-55.6628697,120.88840842
5.7,570,-0.826,0.027000000000000003,0.578,0.286479,0.9167328,-0.11459160000000003,-177.86908152,-55.65714012,120.88840842
5.71,571,-0.826,0.026,0.5760000000000001,0.5156622000000001,0.572958,0.0,-177.86335193999997,-55.6628697,120.88840842
