TimeStamp(s),FrameCounter,AccX,AccY,AccZ,GyrX,GyrY,GyrZ,EulerX,EulerY,EulerZ
0.01,1,0.01,-0.995,0.17,-0.1718874,0.057295800000000015,-0.286479,96.78406536,0.5844171599999999,-40.14716706
0.02,2,0.008,-0.9940000000000001,0.17,-0.2291832000000001,0.057295800000000015,-0.1718874,96.78406536,0.59014674,-40.14716706
0.03,3,0.006999999999999999,-0.992,0.172,-0.286479,0.11459160000000004,-0.1718874,96.77833578,0.59014674,-40.14143748
0.04,4,0.006,-0.993,0.171,-0.2291832000000001,0.11459160000000004,-0.1718874,96.77833578,0.59014674,-40.14143748
0.05,5,0.005,-0.9940000000000001,0.17,-0.286479,0.11459160000000004,-0.11459160000000004,96.87000906,0.59587632,-40.1357079
0.060000000000000005,6,0.006,-0.996,0.171,-0.2291832000000001,0.2291832000000001,-0.11459160000000004,96.86427948,0.6016058999999999,-40.1357079
0.06999999999999999,7,0.006,-0.997,0.17,-0.286479,0.1718874,-0.11459160000000004,96.86427948,0.6016058999999999,-40.1357079
0.08,8,0.006,-0.996,0.16699999999999998,-0.40107059999999994,0.1718874,-0.1718874,96.8585499,0.6016058999999999,-40.12997832
0.09,9,0.006999999999999999,-0.995,0.16699999999999998,-0.3437748,0.3437748,-0.11459160000000004,96.8585499,0.6016058999999999,-40.12997832
0.09999999999999999,10,0.008,-0.9940000000000001,0.168,-0.2291832000000001,0.1718874,-0.1718874,96.93303444,0.61879464,-40.12424874
0.11,11,0.006999999999999999,-0.9940000000000001,0.166,-0.2291832000000001,0.1718874,-0.2291832000000001,96.92730486,0.61879464,-40.12424874
0.12,12,0.006999999999999999,-0.995,0.168,-0.1718874,0.057295800000000015,-0.2291832000000001,96.92730486,0.61879464,-40.12424874
0.13,13,0.006,-0.996,0.16899999999999998,-0.286479,0.057295800000000015,-0.2291832000000001,96.92157528,0.62452422,-40.11851916
0.14,14,0.006999999999999999,-0.998,0.168,-0.3437748,0.11459160000000004,-0.2291832000000001,96.92157528,0.62452422,-40.11851916
0.15000000000000002,15,0.008,-0.998,0.16899999999999998,-0.5156622000000001,0.1718874,-0.2291832000000001,96.99605982,0.63598338,-40.11851916
0.16,16,0.008,-0.997,0.168,-0.5156622000000001,0.057295800000000015,-0.2291832000000001,96.99033024,0.64171296,-40.11278958000001
0.17,17,0.008,-0.995,0.16699999999999998,-0.4583664000000001,-0.057295800000000015,-0.057295800000000015,96.98460066,0.64171296,-40.11278958000001
0.18000000000000002,18,0.008,-0.9940000000000001,0.17,-0.5156622000000001,0.2291832000000001,-0.11459160000000004,96.97887108,0.64171296,-40.11278958000001
0.19,19,0.006999999999999999,-0.995,0.171,-0.4583664000000001,0.3437748,-0.057295800000000015,96.9731415,0.64171296,-40.10706
0.2,20,0.006999999999999999,-0.995,0.171,-0.572958,0.4583664000000001,-0.11459160000000004,97.02470772,0.64171296,-40.10133042
0.21000000000000002,21,0.008,-0.996,0.17,-0.6875496,0.4583664000000001,-0.11459160000000004,97.01897814,0.64171296,-40.09560084
0.22,22,0.008,-0.998,0.17,-0.6875496,0.1718874,-0.11459160000000004,97.01324856,0.64744254,-40.09560084
0.23,23,0.009000000000000001,-0.9990000000000001,0.171,-0.8021411999999999,0.11459160000000004,-0.11459160000000004,97.0017894,0.64744254,-40.09560084
0.24000000000000002,24,0.01,-0.998,0.172,-0.9167328000000001,0.057295800000000015,-0.1718874,96.99605982,0.64744254,-40.09560084
0.25,25,0.012,-0.996,0.172,-0.9740286,0.0,-0.2291832000000001,97.04189646,0.66463128,-40.09560084
0.26,26,0.013000000000000001,-0.993,0.17,-0.9740286,0.0,-0.2291832000000001,97.0304373,0.6703608600000001,-40.09560084
0.27,27,0.012,-0.9940000000000001,0.171,-0.9167328000000001,-0.11459160000000004,-0.2291832000000001,97.01897814,0.6703608600000001,-40.09560084
0.28,28,0.01,-0.993,0.17,-0.8021411999999999,-0.057295800000000015,-0.1718874,97.01324856,0.67609044,-40.09560084
0.29000000000000004,29,0.009000000000000001,-0.996,0.171,-0.8021411999999999,-0.2291832000000001,-0.11459160000000004,97.0017894,0.67609044,-40.09560084
0.3,30,0.008,-0.998,0.171,-0.8021411999999999,-0.1718874,-0.057295800000000015,97.06481478,0.67609044,-40.09560084
0.31,31,0.006999999999999999,-0.997,0.172,-0.8021411999999999,-0.1718874,-0.057295800000000015,97.05335562,0.67609044,-40.10133042
0.32,32,0.006999999999999999,-0.997,0.171,-0.8021411999999999,-0.11459160000000004,0.0,97.04762603999998,0.68182002,-40.10133042
0.33,33,0.006999999999999999,-0.998,0.17,-0.8594370000000001,-0.11459160000000004,-0.057295800000000015,97.03616688,0.68182002,-40.10133042
0.34,34,0.006,-0.995,0.17,-0.8594370000000001,-0.1718874,0.0,97.0304373,0.68182002,-40.10706
0.35000000000000003,35,0.006999999999999999,-0.996,0.17,-0.8594370000000001,-0.2291832000000001,-0.057295800000000015,97.0877331,0.68182002,-40.10706
0.36000000000000004,36,0.006999999999999999,-0.996,0.17,-0.8594370000000001,-0.1718874,-0.057295800000000015,97.07627394,0.68182002,-40.10706
0.37,37,0.006999999999999999,-0.996,0.16899999999999998,-1.0313244000000001,-0.1718874,-0.1718874,97.06481478,0.6875496,-40.10706
0.38,38,0.008,-0.996,0.16699999999999998,-0.9740286,-0.1718874,-0.057295800000000015,97.05335562,0.6875496,-40.11278958000001
0.39,39,0.008,-0.997,0.168,-1.0313244000000001,-0.286479,-0.11459160000000004,97.04762603999998,0.6875496,-40.11278958000001
0.4,40,0.008,-0.997,0.168,-1.0313244000000001,-0.286479,-0.057295800000000015,97.07054436,0.69327918,-40.11851916
0.41000000000000003,41,0.008,-0.997,0.168,-1.0886202,-0.1718874,-0.057295800000000015,97.05908520000001,0.69327918,-40.11851916
0.42000000000000004,42,0.008,-0.996,0.168,-0.5156622000000001,-0.11459160000000004,0.057295800000000015,97.05335562,0.69327918,-40.11851916
0.43,43,0.008,-0.996,0.16699999999999998,-0.3437748,-0.1718874,0.057295800000000015,97.05335562,0.69327918,-40.12424874
0.44,44,0.008,-0.996,0.16699999999999998,-0.3437748,-0.2291832000000001,0.057295800000000015,97.04762603999998,0.69327918,-40.12424874
0.45,45,0.006999999999999999,-0.996,0.16699999999999998,-0.286479,-0.11459160000000004,0.11459160000000004,97.15648806,0.69900876,-40.12424874
0.46,46,0.006999999999999999,-0.995,0.168,-0.286479,-0.1718874,0.1718874,97.15648806,0.69327918,-40.12424874
0.47000000000000003,47,0.008,-0.9940000000000001,0.168,-0.286479,-0.11459160000000004,0.11459160000000004,97.15075848,0.69327918,-40.12997832
0.48000000000000004,48,0.006999999999999999,-0.9940000000000001,0.168,-0.40107059999999994,-0.11459160000000004,0.1718874,97.1450289,0.69327918,-40.12997832
0.49,49,0.006999999999999999,-0.992,0.168,-0.40107059999999994,-0.11459160000000004,0.1718874,97.13929932,0.69327918,-40.12997832
0.5,50,0.006,-0.992,0.168,-0.4583664000000001,-0.3437748,0.11459160000000004,97.19086554,0.6875496,-40.1357079
0.51,51,0.005,-0.992,0.16699999999999998,-0.4583664000000001,-0.3437748,0.11459160000000004,97.18513596,0.6875496,-40.1357079
0.52,52,0.005,-0.993,0.166,-0.286479,-0.286479,0.11459160000000004,97.18513596,0.6875496,-40.14143748
0.53,53,0.005,-0.9940000000000001,0.16699999999999998,-0.1718874,-0.1718874,0.057295800000000015,97.17940638,0.6875496,-40.14143748
0.54,54,0.006,-0.9940000000000001,0.16699999999999998,-0.11459160000000004,-0.1718874,0.11459160000000004,97.17940638,0.6875496,-40.14716706
0.55,55,0.006,-0.995,0.16699999999999998,-0.11459160000000004,-0.11459160000000004,0.057295800000000015,97.30545714,0.67609044,-40.14143748
0.56,56,0.006,-0.995,0.168,-0.1718874,0.0,0.1718874,97.30545714,0.67609044,-40.14143748
0.5700000000000001,57,0.006,-0.995,0.16699999999999998,-0.057295800000000015,0.0,0.2291832000000001,97.30545714,0.6703608600000001,-40.14143748
0.5800000000000001,58,0.006,-0.995,0.168,-0.11459160000000004,0.057295800000000015,0.1718874,97.29972756,0.6703608600000001,-40.14143748
0.59,59,0.006,-0.9940000000000001,0.166,-0.11459160000000004,0.0,0.11459160000000004,97.29972756,0.6703608600000001,-40.14143748
0.6,60,0.006999999999999999,-0.9940000000000001,0.166,0.0,0.11459160000000004,0.1718874,97.39713042,0.67609044,-40.14143748
0.61,61,0.008,-0.996,0.165,-0.057295800000000015,0.1718874,0.057295800000000015,97.39713042,0.67609044,-40.1357079
0.62,62,0.008,-0.997,0.165,0.0,0.0,0.057295800000000015,97.39713042,0.67609044,-40.1357079
0.63,63,0.006999999999999999,-0.996,0.166,0.0,-0.057295800000000015,0.0,97.39713042,0.67609044,-40.1357079
0.64,64,0.006999999999999999,-0.996,0.166,0.0,0.057295800000000015,0.0,97.39713042,0.67609044,-40.1357079
0.65,65,0.006999999999999999,-0.997,0.166,0.0,0.1718874,-0.11459160000000004,97.44869664,0.6875496,-40.1357079
0.66,66,0.008,-0.996,0.165,-0.11459160000000004,0.3437748,0.0,97.44869664,0.6875496,-40.12997832
0.67,67,0.008,-0.995,0.16399999999999998,-0.057295800000000015,0.11459160000000004,0.0,97.44869664,0.6875496,-40.12997832
0.68,68,0.009000000000000001,-0.9940000000000001,0.165,-0.057295800000000015,0.057295800000000015,0.0,97.44869664,0.68182002,-40.12997832
0.6900000000000001,69,0.006999999999999999,-0.995,0.166,0.0,0.057295800000000015,0.057295800000000015,97.44869664,0.68182002,-40.12997832
0.7000000000000001,70,0.005,-0.997,0.16699999999999998,-0.11459160000000004,0.286479,0.0,97.51172202,0.67609044,-40.12424874
0.7100000000000001,71,0.005,-0.998,0.166,-0.1718874,0.40107059999999994,-0.057295800000000015,97.50599244,0.67609044,-40.11851916
0.72,72,0.006,-1.002,0.165,-0.286479,0.286479,0.0,97.50599244,0.67609044,-40.11851916
0.73,73,0.006999999999999999,-0.9990000000000001,0.163,-0.2291832000000001,-0.11459160000000004,-0.057295800000000015,97.50026286,0.68182002,-40.11851916
0.74,74,0.006,-0.998,0.166,-0.2291832000000001,-0.057295800000000015,0.0,97.50026286,0.68182002,-40.11851916
0.75,75,0.006999999999999999,-0.996,0.165,-0.1718874,0.0,0.0,97.59766572,0.69327918,-40.11851916
0.76,76,0.009000000000000001,-0.995,0.166,-0.057295800000000015,0.2291832000000001,0.11459160000000004,97.59766572,0.69327918,-40.11278958000001
0.77,77,0.009000000000000001,-0.995,0.16699999999999998,-0.11459160000000004,0.3437748,0.2291832000000001,97.59766572,0.6875496,-40.11278958000001
0.78,78,0.008,-0.9940000000000001,0.166,-0.11459160000000004,0.3437748,0.2291832000000001,97.59766572,0.6875496,-40.10706
0.79,79,0.008,-0.992,0.166,-0.057295800000000015,0.286479,0.2291832000000001,97.59766572,0.68182002,-40.10706
0.8,80,0.006999999999999999,-0.993,0.165,-0.11459160000000004,0.1718874,0.2291832000000001,97.63777278,0.68182002,-40.10133042
0.81,81,0.006,-0.993,0.165,0.0,0.11459160000000004,0.2291832000000001,97.63777278,0.68182002,-40.10133042
0.8200000000000001,82,0.006,-0.993,0.16399999999999998,0.11459160000000004,0.11459160000000004,0.057295800000000015,97.64350236,0.68182002,-40.10133042
0.8300000000000001,83,0.006,-0.993,0.163,0.11459160000000004,0.0,0.0,97.64350236,0.68182002,-40.10133042
0.8400000000000001,84,0.006,-0.993,0.163,0.1718874,0.0,0.0,97.64350236,0.68182002,-40.10133042
0.85,85,0.006,-0.991,0.163,0.2291832000000001,0.0,-0.057295800000000015,97.689339,0.68182002,-40.10133042
0.86,86,0.005,-0.992,0.162,0.3437748,0.11459160000000004,0.0,97.689339,0.67609044,-40.10133042
0.87,87,0.005,-0.993,0.162,0.4583664000000001,0.11459160000000004,0.057295800000000015,97.69506857999998,0.67609044,-40.09560084
0.88,88,0.005,-0.9940000000000001,0.161,0.572958,0.2291832000000001,0.057295800000000015,97.70079816,0.67609044,-40.09560084
0.89,89,0.005,-0.995,0.162,0.572958,0.286479,0.057295800000000015,97.70652774,0.67609044,-40.08987126
0.9,90,0.006,-0.996,0.162,0.6302538000000001,0.286479,0.057295800000000015,97.72371648,0.67609044,-40.08987126
0.91,91,0.006999999999999999,-0.996,0.161,0.6302538000000001,0.3437748,0.11459160000000004,97.73517564,0.67609044,-40.08414168
0.92,92,0.006999999999999999,-0.996,0.16,0.6302538000000001,0.057295800000000015,0.1718874,97.74090522,0.6703608600000001,-40.08414168
0.93,93,0.006999999999999999,-0.9940000000000001,0.162,0.6302538000000001,0.057295800000000015,0.11459160000000004,97.7466348,0.6703608600000001,-40.08414168
0.9400000000000001,94,0.006999999999999999,-0.995,0.161,0.6302538000000001,0.1718874,0.11459160000000004,97.75236438,0.6703608600000001,-40.0784121
0.9500000000000001,95,0.006,-0.996,0.162,0.6875496,0.2291832000000001,0.1718874,97.7752827,0.66463128,-40.0784121
0.9600000000000001,96,0.006,-0.997,0.163,0.572958,0.40107059999999994,0.1718874,97.78101228,0.66463128,-40.07268252
0.97,97,0.005,-1.0,0.16399999999999998,0.4583664000000001,0.4583664000000001,0.1718874,97.78674186,0.6589017,-40.07268252
0.98,98,0.006,-1.0,0.161,0.3437748,0.286479,0.1718874,97.78674186,0.6589017,-40.06695294000001
0.99,99,0.006,-1.0,0.161,0.3437748,0.1718874,0.1718874,97.79247144,0.65317212,-40.06695294000001
1.0,100,0.006,-0.9990000000000001,0.162,0.40107059999999994,0.057295800000000015,0.1718874,97.80966018,0.65317212,-40.06695294000001
1.01,101,0.006999999999999999,-0.996,0.162,0.4583664000000001,0.057295800000000015,0.1718874,97.81538976,0.65317212,-40.06122336
1.02,102,0.006999999999999999,-0.996,0.163,0.40107059999999994,0.057295800000000015,0.11459160000000004,97.82111934,0.64744254,-40.06122336
1.03,103,0.006,-0.9940000000000001,0.162,0.40107059999999994,0.057295800000000015,0.11459160000000004,97.82684892,0.64744254,-40.06122336
1.04,104,0.005,-0.993,0.163,0.2291832000000001,-0.057295800000000015,0.0,97.82684892,0.64744254,-40.06122336
1.05,105,0.005,-0.9940000000000001,0.163,0.3437748,-0.057295800000000015,0.057295800000000015,97.84976724,0.64171296,-40.06122336
1.06,106,0.004,-0.9940000000000001,0.163,0.40107059999999994,-0.057295800000000015,0.0,97.84976724,0.64171296,-40.06122336
1.07,107,0.005,-0.9940000000000001,0.16399999999999998,0.4583664000000001,-0.11459160000000004,0.057295800000000015,97.85549682,0.63598338,-40.06695294000001
1.08,108,0.005,-0.9940000000000001,0.16399999999999998,0.5156622000000001,0.0,0.057295800000000015,97.8612264,0.63598338,-40.06695294000001
1.09,109,0.006,-0.9940000000000001,0.16399999999999998,0.572958,0.057295800000000015,0.11459160000000004,97.86695598,0.63598338,-40.06695294000001
1.1,110,0.005,-0.992,0.165,0.6302538000000001,0.0,0.0,97.89560387999998,0.6302538000000001,-40.06122336
1.11,111,0.005,-0.9940000000000001,0.165,0.6302538000000001,0.11459160000000004,0.057295800000000015,97.90133346,0.6302538000000001,-40.06122336
1.12,112,0.005,-0.996,0.16399999999999998,0.6875496,0.057295800000000015,0.11459160000000004,97.91279262,0.6302538000000001,-40.06122336
1.1300000000000001,113,0.004,-0.996,0.16399999999999998,0.6875496,0.0,0.057295800000000015,97.91852220000001,0.6302538000000001,-40.06122336
1.1400000000000001,114,0.005,-0.996,0.165,0.40107059999999994,0.0,0.0,97.92425178,0.6302538000000001,-40.06122336
1.1500000000000001,115,0.006,-0.995,0.165,0.3437748,0.0,0.057295800000000015,97.95289968,0.63598338,-40.06122336
1.1600000000000001,116,0.006,-0.995,0.165,0.4583664000000001,0.0,0.11459160000000004,97.95862926,0.63598338,-40.06122336
1.17,117,0.006,-0.9940000000000001,0.166,0.5156622000000001,0.0,0.11459160000000004,97.95862926,0.63598338,-40.06122336
1.18,118,0.005,-0.995,0.166,0.4583664000000001,-0.11459160000000004,0.057295800000000015,97.96435884,0.63598338,-40.06122336
1.19,119,0.004,-0.996,0.165,0.572958,-0.1718874,0.057295800000000015,97.97008842,0.63598338,-40.06695294000001
1.2,120,0.006,-0.996,0.166,0.572958,-0.1718874,0.057295800000000015,97.99300674,0.63598338,-40.06695294000001
1.21,121,0.004,-0.997,0.168,0.572958,-0.286479,0.057295800000000015,97.99873632,0.63598338,-40.06695294000001
1.22,122,0.003,-0.998,0.168,0.40107059999999994,-0.286479,0.057295800000000015,98.00446590000001,0.63598338,-40.07268252
1.23,123,0.003,-0.998,0.168,0.3437748,0.0,0.057295800000000015,98.00446590000001,0.63598338,-40.07268252
1.24,124,0.003,-0.997,0.16699999999999998,0.057295800000000015,0.11459160000000004,0.0,98.01019548,0.63598338,-40.07268252
1.25,125,0.003,-0.997,0.165,0.0,0.1718874,0.0,98.0331138,0.61879464,-40.06695294000001
1.26,126,0.003,-0.997,0.166,0.057295800000000015,0.057295800000000015,0.0,98.03884338,0.61879464,-40.06695294000001
1.27,127,0.005,-0.997,0.16699999999999998,0.0,0.11459160000000004,0.0,98.03884338,0.61879464,-40.06695294000001
1.28,128,0.005,-0.998,0.16699999999999998,0.0,0.1718874,0.057295800000000015,98.03884338,0.61879464,-40.06122336
1.29,129,0.005,-0.997,0.16699999999999998,0.0,0.1718874,0.057295800000000015,98.03884338,0.61306506,-40.06122336
1.3,130,0.004,-0.995,0.16699999999999998,-0.057295800000000015,0.11459160000000004,0.0,98.05603212,0.61306506,-40.06122336
1.31,131,0.004,-0.996,0.166,0.0,0.11459160000000004,0.0,98.05603212,0.61306506,-40.06122336
1.32,132,0.005,-0.995,0.16699999999999998,0.0,0.057295800000000015,0.0,98.05603212,0.61879464,-40.06122336
1.33,133,0.003,-0.996,0.16899999999999998,0.0,0.0,0.0,98.05603212,0.61879464,-40.06122336
1.34,134,0.004,-0.9940000000000001,0.16899999999999998,-0.057295800000000015,0.0,0.0,98.05603212,0.61879464,-40.06122336
1.35,135,0.003,-0.993,0.16699999999999998,-0.2291832000000001,-0.11459160000000004,0.0,98.07322086,0.61306506,-40.06122336
1.36,136,0.003,-0.993,0.168,-0.2291832000000001,-0.11459160000000004,-0.057295800000000015,98.06749128,0.61306506,-40.06122336
1.37,137,0.004,-0.993,0.168,-0.11459160000000004,-0.1718874,0.0,98.06749128,0.61306506,-40.06122336
1.3800000000000001,138,0.004,-0.993,0.16699999999999998,-0.1718874,-0.057295800000000015,0.0,98.06749128,0.61306506,-40.06122336
1.3900000000000001,139,0.003,-0.995,0.168,-0.057295800000000015,-0.1718874,0.0,98.06749128,0.61306506,-40.06695294000001
1.4000000000000001,140,0.003,-0.997,0.168,-0.057295800000000015,-0.1718874,-0.057295800000000015,98.09040960000002,0.6016058999999999,-40.06695294000001
1.4100000000000001,141,0.001,-0.998,0.16899999999999998,-0.057295800000000015,-0.057295800000000015,0.0,98.09040960000002,0.6016058999999999,-40.06695294000001
1.42,142,0.001,-0.998,0.168,0.0,0.2291832000000001,-0.057295800000000015,98.09040960000002,0.6016058999999999,-40.06122336
1.43,143,0.002,-0.997,0.166,0.0,0.3437748,0.0,98.09040960000002,0.6016058999999999,-40.06122336
1.44,144,0.003,-0.996,0.166,-0.1718874,0.057295800000000015,0.0,98.09040960000002,0.6016058999999999,-40.06122336
1.45,145,0.002,-0.9940000000000001,0.16699999999999998,0.0,0.11459160000000004,0.057295800000000015,98.1190575,0.5786875800000001,-40.05549378
1.46,146,0.003,-0.9940000000000001,0.16699999999999998,0.057295800000000015,0.2291832000000001,0.057295800000000015,98.1190575,0.5786875800000001,-40.05549378
1.47,147,0.002,-0.996,0.168,0.0,0.4583664000000001,0.057295800000000015,98.1190575,0.5729580000000001,-40.04976420000001
1.48,148,0.002,-0.997,0.168,-0.057295800000000015,0.40107059999999994,0.057295800000000015,98.11332792,0.5729580000000001,-40.04403462
1.49,149,0.005,-0.9990000000000001,0.16899999999999998,-0.1718874,0.11459160000000004,0.0,98.11332792,0.5729580000000001,-40.04403462
1.5,150,0.006,-0.9990000000000001,0.16699999999999998,-0.3437748,-0.2291832000000001,0.0,98.1190575,0.5786875800000001,-40.04403462
1.51,151,0.004,-0.998,0.166,-0.40107059999999994,-0.40107059999999994,0.0,98.1190575,0.5786875800000001,-40.04976420000001
1.52,152,0.003,-0.9940000000000001,0.166,-0.40107059999999994,-0.40107059999999994,0.057295800000000015,98.11332792,0.5786875800000001,-40.05549378
1.53,153,0.002,-0.995,0.168,-0.286479,-0.286479,0.11459160000000004,98.10759834,0.5786875800000001,-40.05549378
1.54,154,0.002,-0.9940000000000001,0.16899999999999998,-0.1718874,-0.11459160000000004,0.0,98.10759834,0.5786875800000001,-40.06122336
1.55,155,0.002,-0.993,0.17,-0.2291832000000001,0.0,0.0,98.15343498,0.56149884,-40.05549378
1.56,156,0.001,-0.993,0.17,-0.40107059999999994,0.057295800000000015,0.0,98.1477054,0.56149884,-40.05549378
1.57,157,0.003,-0.9940000000000001,0.16899999999999998,-0.40107059999999994,0.2291832000000001,0.0,98.14197582,0.56149884,-40.05549378
1.58,158,0.002,-0.996,0.16699999999999998,-0.4583664000000001,0.3437748,-0.057295800000000015,98.13624624,0.56149884,-40.04976420000001
1.59,159,0.002,-0.997,0.16699999999999998,-0.40107059999999994,0.2291832000000001,0.0,98.13624624,0.56149884,-40.04976420000001
1.6,160,0.0,-0.998,0.168,-0.4583664000000001,0.0,-0.11459160000000004,98.13624624,0.55576926,-40.04976420000001
1.61,161,0.001,-0.997,0.16699999999999998,-0.6302538000000001,-0.057295800000000015,-0.057295800000000015,98.13051665999998,0.55576926,-40.04976420000001
1.62,162,0.001,-0.996,0.168,-0.4583664000000001,-0.1718874,-0.11459160000000004,98.12478708,0.55576926,-40.04976420000001
1.6300000000000001,163,0.001,-0.996,0.16899999999999998,-0.572958,-0.286479,-0.1718874,98.1190575,0.56149884,-40.05549378
1.6400000000000001,164,0.0,-0.995,0.17,-0.6875496,-0.057295800000000015,-0.1718874,98.11332792,0.56149884,-40.05549378
1.6500000000000001,165,0.0,-0.995,0.168,-0.6302538000000001,0.0,-0.1718874,98.1190575,0.55576926,-40.05549378
1.6600000000000001,166,0.0,-0.995,0.16699999999999998,-0.6875496,0.1718874,-0.1718874,98.11332792,0.56149884,-40.04976420000001
1.6700000000000002,167,0.001,-0.997,0.16699999999999998,-0.8021411999999999,0.1718874,-0.11459160000000004,98.10186876,0.56149884,-40.04976420000001
1.68,168,0.0,-0.9990000000000001,0.166,-0.8021411999999999,0.057295800000000015,-0.057295800000000015,98.09613918,0.56149884,-40.04976420000001
1.69,169,0.0,-1.0,0.16699999999999998,-0.9740286,-0.2291832000000001,0.0,98.08468002,0.56149884,-40.04976420000001
1.7,170,-0.001,-1.0,0.16899999999999998,-1.0886202,-0.40107059999999994,0.0,98.07895044,0.55576926,-40.05549378
1.71,171,-0.003,-0.9990000000000001,0.171,-1.145916,-0.3437748,-0.1718874,98.06749128,0.55576926,-40.05549378
1.72,172,-0.002,-1.001,0.17,-1.3178034,0.0,-0.2291832000000001,98.05603212,0.56149884,-40.05549378
1.73,173,0.0,-1.0,0.172,-1.6042823999999998,0.4583664000000001,-0.286479,98.03884338,0.56149884,-40.04976420000001
1.74,174,0.001,-1.001,0.171,-1.8907614,0.8594370000000001,-0.40107059999999994,98.01592506,0.56722842,-40.04403462
1.75,175,0.002,-1.002,0.16699999999999998,-2.3491277999999998,0.8594370000000001,-0.3437748,97.99873632,0.56722842,-40.03257546
1.76,176,0.002,-1.004,0.166,-2.4064236,0.6302538000000001,-0.1718874,97.97008842,0.56722842,-40.02684588
1.77,177,0.0,-1.006,0.168,-2.5783110000000002,0.286479,-0.057295800000000015,97.9471701,0.56722842,-40.02684588
1.78,178,0.0,-1.003,0.16699999999999998,-2.86479,0.0,-0.1718874,97.91852220000001,0.56722842,-40.02684588
1.79,179,-0.001,-1.0,0.168,-3.0939732,-0.2291832000000001,-0.286479,97.88414472,0.5729580000000001,-40.02684588
1.8,180,-0.001,-1.0,0.16699999999999998,-3.1512689999999997,-0.286479,-0.40107059999999994,97.85549682,0.5729580000000001,-40.03257546
1.81,181,0.0,-0.9990000000000001,0.168,-3.1512689999999997,-0.057295800000000015,-0.4583664000000001,97.82684892,0.5786875800000001,-40.03257546
1.82,182,0.001,-1.001,0.16899999999999998,-3.1512689999999997,-0.11459160000000004,-0.572958,97.79247144,0.5844171599999999,-40.03257546
1.83,183,0.0,-1.0,0.16699999999999998,-3.4377480000000005,-0.1718874,-0.6302538000000001,97.75809396,0.59014674,-40.03257546
1.84,184,0.001,-0.998,0.16399999999999998,-3.4377480000000005,-0.11459160000000004,-0.572958,97.72371648,0.59587632,-40.03257546
1.85,185,0.001,-0.996,0.165,-3.3231564,-0.2291832000000001,-0.5156622000000001,97.69506857999998,0.6016058999999999,-40.03830504
1.86,186,0.0,-0.995,0.16699999999999998,-3.2085647999999996,-0.2291832000000001,-0.4583664000000001,97.6606911,0.6073354799999999,-40.03830504
1.87,187,0.0,-0.9940000000000001,0.168,-3.380452200000001,-0.3437748,-0.5156622000000001,97.62631362,0.61306506,-40.04403462
1.8800000000000001,188,0.001,-0.993,0.16899999999999998,-3.380452200000001,-0.286479,-0.4583664000000001,97.59193614,0.61879464,-40.04403462
1.8900000000000001,189,0.002,-0.992,0.16899999999999998,-3.6096353999999997,-0.4583664000000001,-0.5156622000000001,97.55755866,0.62452422,-40.04976420000001
1.9000000000000001,190,0.002,-0.9940000000000001,0.16399999999999998,-3.6096353999999997,-0.4583664000000001,-0.4583664000000001,97.52318118,0.62452422,-40.05549378
1.9100000000000001,191,0.002,-0.995,0.162,-3.4950437999999995,-0.5156622000000001,-0.3437748,97.4888037,0.6302538000000001,-40.06122336
1.9200000000000002,192,0.002,-0.997,0.163,-3.5523396000000003,-0.40107059999999994,-0.3437748,97.45442622,0.63598338,-40.06122336
1.93,193,0.003,-0.9990000000000001,0.162,-3.4950437999999995,-0.286479,-0.2291832000000001,97.41431916,0.63598338,-40.06695294000001
1.94,194,0.004,-0.997,0.16,-3.5523396000000003,-0.3437748,-0.2291832000000001,97.37994168,0.63598338,-40.07268252
1.95,195,0.002,-0.998,0.161,-3.6096353999999997,-0.3437748,-0.3437748,97.35129378,0.64171296,-40.07268252
1.96,196,0.002,-0.997,0.158,-3.6096353999999997,-0.286479,-0.286479,97.31118672,0.64744254,-40.0784121
1.97,197,0.003,-0.9990000000000001,0.16,-3.6096353999999997,-0.40107059999999994,-0.40107059999999994,97.27680924,0.64744254,-40.0784121
1.98,198,0.003,-0.9990000000000001,0.159,-3.6096353999999997,-0.40107059999999994,-0.4583664000000001,97.23670218,0.65317212,-40.08414168
1.99,199,0.003,-0.9990000000000001,0.156,-3.6096353999999997,-0.4583664000000001,-0.40107059999999994,97.2023247,0.6589017,-40.08987126
2.0,200,0.005,-1.0,0.156,-3.7242269999999995,-0.2291832000000001,-0.40107059999999994,97.16794722,0.66463128,-40.08987126
2.01,201,0.005,-1.001,0.154,-3.8961144,-0.40107059999999994,-0.40107059999999994,97.12784016,0.6703608600000001,-40.09560084
2.02,202,0.004,-1.003,0.157,-4.1252976000000015,-0.6302538000000001,-0.3437748,97.0877331,0.6703608600000001,-40.10133042
2.03,203,0.004,-1.002,0.156,-4.5263682,-0.9740286,-0.3437748,97.04189646,0.67609044,-40.11278958000001
2.04,204,0.003,-1.001,0.15,-4.7555514,-1.0886202,-0.3437748,96.99033024,0.68182002,-40.12424874
2.05,205,0.002,-1.001,0.149,-4.8128472,-0.9167328000000001,-0.4583664000000001,96.94449360000002,0.6875496,-40.12997832
2.0599999999999996,206,0.002,-1.001,0.146,-4.6982555999999995,-0.8021411999999999,-0.40107059999999994,96.89865696,0.69327918,-40.14143748
2.07,207,0.002,-1.003,0.146,-4.5263682,-0.8594370000000001,-0.40107059999999994,96.85282032,0.69900876,-40.14716706
2.0799999999999996,208,0.001,-1.002,0.147,-4.6409598,-1.0886202,-0.4583664000000001,96.80698368,0.70473834,-40.15862622
2.09,209,0.001,-1.001,0.14400000000000002,-4.6982555999999995,-1.145916,-0.5156622000000001,96.75541746,0.7104679199999999,-40.17008538
2.0999999999999996,210,0.001,-0.998,0.142,-4.5263682,-0.9167328000000001,-0.40107059999999994,96.70958082,0.7104679199999999,-40.18154454
2.11,211,0.002,-0.998,0.14300000000000002,-4.4690724,-0.8021411999999999,-0.40107059999999994,96.66374418,0.7161975,-40.18727412
2.1199999999999997,212,0.003,-0.998,0.142,-4.4117766,-0.6875496,-0.40107059999999994,96.61790754,0.72192708,-40.19873328
2.13,213,0.001,-0.9990000000000001,0.14400000000000002,-4.4690724,-0.5156622000000001,-0.3437748,96.57780048,0.72765666,-40.20446286
2.1399999999999997,214,0.002,-0.9990000000000001,0.146,-4.6409598,-0.1718874,-0.2291832000000001,96.52623426,0.72765666,-40.20446286
2.15,215,0.002,-0.9990000000000001,0.146,-4.7555514,0.0,-0.11459160000000004,96.4861272,0.72765666,-40.20446286
2.1599999999999997,216,0.001,-0.997,0.145,-4.9274388,0.11459160000000004,-0.11459160000000004,96.43456098,0.72765666,-40.20446286
2.17,217,0.001,-0.997,0.13699999999999998,-4.8701430000000006,0.057295800000000015,-0.057295800000000015,96.38299476,0.72765666,-40.20446286
2.1799999999999997,218,0.001,-0.9990000000000001,0.134,-4.6409598,0.11459160000000004,0.0,96.33715812,0.72765666,-40.20446286
2.19,219,0.002,-1.001,0.133,-4.4117766,0.057295800000000015,-0.11459160000000004,96.29132148,0.72765666,-40.20446286
2.1999999999999997,220,0.003,-1.004,0.132,-4.297185,0.057295800000000015,-0.2291832000000001,96.25121442,0.72765666,-40.19873328
2.21,221,0.003,-1.003,0.131,-4.1252976000000015,0.0,-0.1718874,96.20537778,0.73338624,-40.19873328
2.2199999999999998,222,0.002,-1.0,0.13,-3.8961144,0.11459160000000004,-0.11459160000000004,96.16527072,0.73338624,-40.19873328
2.23,223,0.003,-0.998,0.128,-3.6669312000000014,0.2291832000000001,-0.2291832000000001,96.13089324,0.73338624,-40.19873328
2.2399999999999998,224,0.002,-0.997,0.128,-3.4377480000000005,0.286479,-0.286479,96.09078618,0.7391158200000001,-40.1930037
2.25,225,0.002,-0.996,0.126,-3.380452200000001,-0.057295800000000015,-0.286479,96.0564087,0.7391158200000001,-40.19873328
2.26,226,0.001,-0.995,0.126,-3.4377480000000005,-0.286479,-0.3437748,96.02203122,0.7391158200000001,-40.19873328
2.27,227,0.002,-0.9940000000000001,0.129,-3.3231564,-0.2291832000000001,-0.286479,95.98765374,0.7448454000000001,-40.19873328
2.28,228,0.0,-0.995,0.129,-3.2658606,0.057295800000000015,-0.286479,95.95327626,0.7448454000000001,-40.19873328
2.29,229,0.001,-0.997,0.13,-3.4377480000000005,0.40107059999999994,-0.3437748,95.91889878,0.75057498,-40.19873328
2.3,230,0.0,-0.9990000000000001,0.13,-3.4950437999999995,0.5156622000000001,-0.3437748,95.8845213,0.7448454000000001,-40.1930037
2.31,231,0.0,-1.003,0.126,-3.8388186,0.3437748,-0.3437748,95.85014382,0.75057498,-40.18727412
2.32,232,0.001,-1.0070000000000001,0.125,-3.8961144,0.4583664000000001,-0.40107059999999994,95.81003676,0.75630456,-40.18154454
2.3299999999999996,233,0.001,-1.011,0.121,-4.0680017999999984,0.6875496,-0.40107059999999994,95.7699297,0.75630456,-40.17581496
2.34,234,0.001,-1.011,0.121,-4.1825934,0.6875496,-0.3437748,95.72409306,0.75630456,-40.17008538
2.3499999999999996,235,0.001,-1.012,0.122,-4.297185,0.7448454000000001,-0.1718874,95.683986,0.75630456,-40.15862622
2.36,236,0.001,-1.012,0.128,-4.4117766,0.572958,-0.11459160000000004,95.63814936,0.75630456,-40.15862622
2.3699999999999997,237,0.001,-1.0090000000000001,0.129,-4.6409598,0.40107059999999994,-0.2291832000000001,95.58658314,0.75630456,-40.15289664
2.38,238,0.0,-1.005,0.127,-4.7555514,0.3437748,-0.286479,95.5407465,0.76203414,-40.14716706
2.3899999999999997,239,0.0,-1.003,0.131,-4.8701430000000006,0.1718874,-0.4583664000000001,95.48918028,0.76776372,-40.14716706
2.4,240,0.0,-1.004,0.135,-4.583664,0.3437748,-0.572958,95.4548028,0.76776372,-40.14143748
2.4099999999999997,241,0.0,-1.006,0.132,-4.583664,0.8594370000000001,-0.7448454000000001,95.40896616,0.7734933,-40.1357079
2.42,242,0.0,-1.008,0.126,-4.7555514,0.9167328000000001,-0.8594370000000001,95.35739994,0.7792228800000001,-40.12424874
2.4299999999999997,243,0.002,-1.01,0.124,-4.8701430000000006,0.9740286,-0.9167328000000001,95.30583372,0.7906820400000001,-40.11278958000001
2.44,244,0.001,-1.014,0.124,-4.9847346,1.0313244000000001,-0.9740286,95.25999708,0.79641162,-40.10133042
2.4499999999999997,245,0.0,-1.0170000000000001,0.127,-5.1566220000000005,0.8021411999999999,-0.8594370000000001,95.20843086,0.8021412000000001,-40.09560084
2.46,246,-0.001,-1.016,0.126,-5.443101,0.6875496,-0.8021411999999999,95.15686464,0.8078707799999998,-40.08414168
2.4699999999999998,247,-0.001,-1.014,0.128,-5.5003968,0.9740286,-0.7448454000000001,95.09956884,0.8136003599999999,-40.0784121
2.48,248,0.0,-1.01,0.132,-5.443101,1.5469866,-0.7448454000000001,95.04227304,0.8193299399999999,-40.06122336
2.4899999999999998,249,-0.001,-1.006,0.13,-5.443101,1.7761698000000001,-0.9740286,94.99070682,0.8250595199999999,-40.04403462
2.5,250,-0.003,-1.002,0.132,-5.3858052,1.8907614,-1.0313244000000001,94.94487018,0.8307891,-40.021116299999996
2.51,251,-0.003,-1.002,0.133,-5.443101,1.8907614,-1.0313244000000001,94.88757438,0.83651868,-40.00392756
2.52,252,-0.003,-1.004,0.136,-5.6722842,2.1772404,-1.0313244000000001,94.83027858,0.8479778399999999,-39.98100924
2.53,253,-0.005,-1.006,0.14300000000000002,-5.5003968,2.4064236,-0.9167328000000001,94.77298278,0.8537074199999999,-39.95809092
2.54,254,-0.005,-1.005,0.14800000000000002,-5.3858052,3.0366774,-0.8594370000000001,94.71568698,0.8594370000000001,-39.92944302
2.55,255,-0.002,-1.008,0.141,-5.2712136,3.4950437999999995,-0.8021411999999999,94.67557992,0.8594370000000001,-39.89506554
2.56,256,0.005,-1.016,0.131,-5.9014674000000005,3.380452200000001,-0.572958,94.61255454,0.8594370000000001,-39.86068806
2.57,257,0.011000000000000001,-1.022,0.13699999999999998,-6.589017,2.1772404,-0.1718874,94.54952916,0.8594370000000001,-39.83776974
2.5799999999999996,258,0.015,-1.021,0.14300000000000002,-6.7609043999999985,0.40107059999999994,0.11459160000000004,94.48077420000001,0.8594370000000001,-39.83204016
2.59,259,0.018000000000000002,-1.0170000000000001,0.135,-7.3911582,-1.2032118,0.572958,94.40056008,0.8537074199999999,-39.8492289
2.5999999999999996,260,0.022000000000000002,-1.016,0.10800000000000001,-8.59437,-2.0626488000000003,1.0313244000000001,94.31461638,0.8479778399999999,-39.87214722
2.61,261,0.025,-1.023,0.099,-9.568398599999998,-3.380452200000001,1.6042823999999998,94.21721352,0.8307891,-39.90652470000001
2.6199999999999997,262,0.02,-1.0290000000000001,0.107,-10.2559482,-6.3025379999999975,2.4064236,94.11408108,0.8136003599999999,-39.96955008
2.63,263,0.004,-1.014,0.111,-10.943497800000001,-9.167328,2.5210152000000003,93.99948948,0.79641162,-40.06695294000001
2.6399999999999997,264,-0.018000000000000002,-0.972,0.11199999999999999,-10.4851314,-9.2819196,1.6615782,93.89635704,0.7906820400000001,-40.15862622
2.65,265,-0.025,-0.943,0.134,-7.5630456000000015,-8.250595200000001,-0.057295800000000015,93.82760208,0.7906820400000001,-40.23884034
2.6599999999999997,266,-0.024,-0.9229999999999999,0.146,-5.9014674000000005,-6.3598338,-1.7188740000000002,93.77030628,0.8136003599999999,-40.30186572
2.67,267,-0.017,-0.914,0.14800000000000002,-4.583664,-4.4117766,-3.2658606,93.72446964,0.8479778399999999,-40.34770236
2.6799999999999997,268,-0.012,-0.915,0.151,-3.2658606,-2.1772404,-4.1825934,93.69009216,0.89381448,-40.3648911
2.69,269,-0.011000000000000001,-0.937,0.151,-1.9480572,0.11459160000000004,-4.4117766,93.66717384,0.93965112,-40.35916152
2.6999999999999997,270,-0.012,-0.971,0.14400000000000002,-1.145916,2.2345362,-4.1252976000000015,93.67863300000002,0.96829902,-40.33624320000001
2.71,271,-0.006999999999999999,-1.01,0.134,-1.145916,4.1252976000000015,-3.7815228,93.66717384,1.0026765,-40.29040656
2.7199999999999998,272,0.013000000000000001,-1.047,0.122,-1.8334656000000005,5.6722842,-3.1512689999999997,93.6499851,1.0255948199999998,-40.23311076
2.73,273,0.035,-1.065,0.107,-3.6096353999999997,5.7868758000000025,-2.0053530000000004,93.61560762,1.04278356,-40.17581496
2.7399999999999998,274,0.047,-1.065,0.096,-5.6149884000000005,4.297185,-0.5156622000000001,93.55831182,1.04278356,-40.1357079
2.75,275,0.049,-1.0590000000000002,0.08800000000000001,-7.2192707999999985,1.7761698000000001,0.572958,93.48382728,1.04278356,-40.11851916
2.76,276,0.044000000000000004,-1.048,0.077,-8.479778399999999,-0.3437748,0.9740286,93.39788358,1.03705398,-40.12424874
2.77,277,0.04,-1.04,0.07,-9.167328,-1.8334656000000005,1.0313244000000001,93.30048072,1.0255948199999998,-40.14143748
2.78,278,0.035,-1.034,0.077,-9.3392154,-2.9220858,0.8021411999999999,93.20880744,1.01986524,-40.17581496
2.79,279,0.026000000000000002,-1.031,0.084,-8.8235532,-3.5523396000000003,0.40107059999999994,93.11713416,1.01413566,-40.21019244
2.8,280,0.012,-1.031,0.085,-9.1100322,-3.8388186,-0.11459160000000004,93.02546088,1.01986524,-40.2502995
2.81,281,0.0,-1.035,0.073,-9.740286,-3.8388186,-0.9167328000000001,92.92805802,1.0313244000000001,-40.29040656
2.82,282,-0.008,-1.034,0.071,-9.6256944,-3.6096353999999997,-2.0626488000000003,92.82492558,1.05424272,-40.32478404
2.8299999999999996,283,-0.013999999999999999,-1.034,0.071,-9.224623800000002,-2.6356068,-3.2658606,92.7332523,1.0886202,-40.34770236
2.84,284,-0.011000000000000001,-1.0290000000000001,0.068,-10.4278356,-1.2605076000000002,-4.1252976000000015,92.62439028,1.12872726,-40.35916152
2.8499999999999996,285,-0.008,-1.021,0.069,-11.1153852,-0.2291832000000001,-4.0680017999999984,92.51552826,1.16310474,-40.3648911
2.86,286,-0.006999999999999999,-1.0170000000000001,0.063,-11.5164558,0.3437748,-3.0939732,92.39520708,1.19175264,-40.35916152
2.8699999999999997,287,-0.004,-1.011,0.059000000000000004,-11.6310474,0.5156622000000001,-1.6042823999999998,92.28061548,1.20894138,-40.35343194
2.88,288,0.002,-1.0070000000000001,0.057999999999999996,-11.5164558,0.6875496,-0.2291832000000001,92.1602943,1.20894138,-40.34770236
2.8899999999999997,289,0.009000000000000001,-1.012,0.051,-11.9748222,0.9740286,0.9740286,92.03997312,1.19748222,-40.341972780000006
2.9,290,0.008,-1.014,0.045,-12.776963400000001,1.4896908000000002,1.4896908000000002,91.90819278,1.18029348,-40.33051362
2.9099999999999997,291,0.006999999999999999,-1.015,0.037000000000000005,-13.120738199999998,1.4896908000000002,1.6615782,91.77068286,1.16310474,-40.31332488
2.92,292,0.004,-1.012,0.04,-13.464512999999998,1.6042823999999998,1.3750992,91.63317294,1.1459160000000002,-40.30186572
2.9299999999999997,293,0.001,-1.002,0.037000000000000005,-13.6936962,1.8334656000000005,0.8021411999999999,91.49566302,1.13445684,-40.28467698
2.94,294,0.0,-0.995,0.03,-13.980175199999998,2.0053530000000004,0.057295800000000015,91.35242352,1.13445684,-40.26748824
2.9499999999999997,295,-0.002,-0.99,0.027000000000000003,-14.266654199999998,1.8334656000000005,-0.572958,91.20345444,1.13445684,-40.2502995
2.96,296,-0.002,-0.988,0.027000000000000003,-14.5531332,1.4896908000000002,-1.0313244000000001,91.06021494,1.14018642,-40.23311076
2.9699999999999998,297,-0.002,-0.986,0.025,-14.7823164,0.6302538000000001,-1.2605076000000002,90.90551628,1.15164558,-40.23311076
2.98,298,0.0,-0.985,0.013000000000000001,-15.126091199999998,0.286479,-1.3750992,90.75081762,1.16310474,-40.22738118
2.9899999999999998,299,0.003,-0.985,0.018000000000000002,-15.126091199999998,0.0,-1.3178034,90.60184854,1.1745639,-40.22738118
3.0,300,0.003,-0.988,0.022000000000000002,-15.2406828,-0.2291832000000001,-1.2605076000000002,90.4414203,1.18602306,-40.23311076
3.01,301,0.004,-0.991,0.013999999999999999,-15.183387000000002,-0.11459160000000004,-1.2605076000000002,90.28672164,1.19748222,-40.23884034
3.02,302,-0.001,-0.991,0.018000000000000002,-15.126091199999998,-0.286479,-1.3750992,90.13202298,1.20894138,-40.24456992
3.03,303,-0.008,-0.997,0.021,-14.9542038,0.0,-1.6615782,89.98305390000002,1.22613012,-40.24456992
3.04,304,-0.015,-1.003,0.02,-15.126091199999998,0.8594370000000001,-2.0053530000000004,89.82835524000002,1.24331886,-40.23884034
3.05,305,-0.02,-1.0090000000000001,0.017,-14.7250206,2.291832,-2.2345362,89.67938615999998,1.2605076000000002,-40.21592202
3.06,306,-0.021,-1.016,0.016,-14.896907999999998,3.3231564,-2.3491277999999998,89.5246875,1.27769634,-40.18154454
3.07,307,-0.015,-1.02,0.016,-14.896907999999998,4.1252976000000015,-2.1772404,89.37571842,1.30061466,-40.14716706
3.08,308,-0.006,-1.0190000000000001,0.01,-15.011499599999999,4.6982555999999995,-1.8907614,89.22101975999998,1.3178034,-40.10133042
3.09,309,-0.001,-1.018,0.01,-15.011499599999999,5.0993262,-1.6615782,89.07205067999998,1.3349921400000002,-40.04976420000001
3.0999999999999996,310,0.005,-1.0170000000000001,0.011000000000000001,-15.068795399999999,5.1566220000000005,-1.3750992,88.9230816,1.34072172,-40.00392756
3.11,311,0.013000000000000001,-1.02,0.011000000000000001,-15.4125702,4.9847346,-1.3750992,88.76265336,1.3579104599999998,-39.95236134
3.1199999999999997,312,0.017,-1.0190000000000001,0.008,-15.870936600000002,4.297185,-1.3178034,88.60222512,1.36936962,-39.91225428
3.13,313,0.016,-1.0170000000000001,0.006,-16.157415599999997,3.8961144,-1.4896908000000002,88.44179688,1.38082878,-39.877876799999996
3.1399999999999997,314,0.013000000000000001,-1.013,0.0,-16.386598799999998,3.4377480000000005,-1.7188740000000002,88.26990948,1.39801752,-39.84349932
3.15,315,0.01,-1.0090000000000001,-0.001,-16.615782,3.0939732,-2.0053530000000004,88.10375166,1.41520626,-39.81485142
3.1599999999999997,316,0.008,-1.0070000000000001,0.001,-16.7876694,3.0366774,-2.2345362,87.93759384,1.432395,-39.78620352
3.17,317,0.006999999999999999,-1.005,0.0,-16.902261,3.380452200000001,-2.2345362,87.76570644,1.45531332,-39.75755562
3.1799999999999997,318,0.006,-1.004,-0.002,-17.18874,3.5523396000000003,-2.291832,87.58808946,1.4782316400000002,-39.72317814
3.19,319,0.002,-1.0,-0.001,-17.303331600000003,3.3231564,-2.0626488000000003,87.41620206,1.49542038,-39.69453024
3.1999999999999997,320,0.003,-0.9990000000000001,-0.002,-17.246035799999998,3.5523396000000003,-2.0626488000000003,87.24431466,1.51260912,-39.66015276
3.21,321,0.006,-1.004,-0.009000000000000001,-17.3606274,3.9534102,-2.0626488000000003,87.06669767999998,1.53552744,-39.625775280000006
3.2199999999999998,322,0.008,-1.008,-0.013999999999999999,-17.761698000000006,4.0680017999999984,-2.0053530000000004,86.88335112,1.5527161800000002,-39.58566822
3.23,323,0.008,-1.008,-0.012,-17.9908812,3.9534102,-1.8907614,86.70573413999998,1.56990492,-39.55129074
3.2399999999999998,324,0.01,-1.006,-0.012,-17.9908812,4.010706000000001,-1.8907614,86.52238758000001,1.59282324,-39.51118368
3.25,325,0.016,-1.008,-0.012,-18.334656,3.8961144,-1.8334656000000005,86.33904102,1.61001198,-39.47680620000001
3.26,326,0.016,-1.008,-0.017,-18.793022399999998,3.6669312000000014,-2.0053530000000004,86.14996488,1.6272007199999998,-39.44242872
3.27,327,0.012,-1.0070000000000001,-0.022000000000000002,-19.0222056,3.6096353999999997,-2.1199446,85.95515916000002,1.65011904,-39.41378082
3.28,328,0.012,-1.011,-0.027000000000000003,-19.194093,3.4377480000000005,-2.1772404,85.76035343999997,1.67303736,-39.37940334
3.29,329,0.013000000000000001,-1.013,-0.026000000000000002,-19.7097552,3.5523396000000003,-2.291832,85.55981814,1.6959556799999995,-39.35075544
3.3,330,0.011000000000000001,-1.0170000000000001,-0.039,-20.168121600000006,3.6669312000000014,-2.3491277999999998,85.35928284,1.71314442,-39.31637796
3.31,331,0.018000000000000002,-1.0190000000000001,-0.037000000000000005,-20.3973048,3.6096353999999997,-2.291832,85.15301796,1.73606274,-39.28773006
3.32,332,0.019,-1.0190000000000001,-0.035,-21.027558600000006,3.0939732,-2.3491277999999998,84.9410235,1.76471064,-39.25908216000001
3.33,333,0.022000000000000002,-1.015,-0.035,-21.314037600000002,2.8074942000000003,-2.2345362,84.72329946,1.78189938,-39.23616384
3.34,334,0.025,-1.013,-0.046,-21.657812399999997,2.6929026,-2.1199446,84.50557542,1.8048177,-39.21324552
3.3499999999999996,335,0.023,-1.013,-0.049,-22.2880662,2.0626488000000003,-2.0053530000000004,84.2821218,1.82200644,-39.196056780000006
3.36,336,0.017,-1.0170000000000001,-0.052000000000000005,-22.7464326,1.5469866,-1.9480572,84.04720902,1.84492476,-39.18459762
3.3699999999999997,337,0.016,-1.016,-0.051,-23.4339822,1.4896908000000002,-2.1199446,83.81229624,1.8621134999999998,-39.17313846
3.38,338,0.017,-1.015,-0.053,-23.9496444,1.2605076000000002,-2.291832,83.5659243,1.88503182,-39.16740888
3.3899999999999997,339,0.019,-1.015,-0.06,-24.694489800000003,1.145916,-2.5210152000000003,83.31955236,1.90795014,-39.1616793
3.4,340,0.023,-1.018,-0.065,-25.496631,1.2032118,-2.5210152000000003,83.06172126,1.93086846,-39.15594972
3.4099999999999997,341,0.023,-1.0170000000000001,-0.069,-25.9549974,0.9740286,-2.5210152000000003,82.79816058,1.95378678,-39.15022014
3.42,342,0.02,-1.015,-0.069,-26.642546999999997,0.4583664000000001,-2.5783110000000002,82.52887032,1.9767051,-39.15022014
3.4299999999999997,343,0.022000000000000002,-1.011,-0.073,-27.215505,0.2291832000000001,-2.5783110000000002,82.25385048,1.99962342,-39.15594972
3.44,344,0.027000000000000003,-1.012,-0.081,-27.903054600000004,0.2291832000000001,-2.5210152000000003,81.96737148,2.02254174,-39.15594972
3.4499999999999997,345,0.031,-1.012,-0.083,-28.7051958,-0.057295800000000015,-2.5210152000000003,81.68089248,2.04546006,-39.16740888
3.46,346,0.026000000000000002,-1.011,-0.08900000000000001,-29.5646328,-0.7448454000000001,-2.291832,81.38295432,2.0626488000000003,-39.17886804
3.4699999999999998,347,0.023,-1.008,-0.096,-30.366774000000003,-1.145916,-2.3491277999999998,81.07355700000002,2.08556712,-39.196056780000006
3.48,348,0.026000000000000002,-1.005,-0.091,-31.111619399999995,-1.145916,-2.291832,80.75270051999998,2.10275586,-39.2189751
3.4899999999999998,349,0.028999999999999998,-1.008,-0.099,-31.5699858,-1.3178034,-2.291832,80.43184404,2.1199446,-39.23616384
3.5,350,0.034,-1.008,-0.107,-32.6013102,-1.6042823999999998,-2.5210152000000003,80.10525798,2.13713334,-39.25908216000001
3.51,351,0.031,-1.011,-0.11199999999999999,-33.6326346,-1.9480572,-2.4637194,79.76148318,2.16005166,-39.28773006
3.52,352,0.026000000000000002,-1.011,-0.12,-34.5493674,-2.1772404,-2.5210152000000003,79.4119788,2.1772404,-39.31637796
3.53,353,0.031,-1.005,-0.125,-35.5806918,-2.2345362,-2.5210152000000003,79.05101526000001,2.19442914,-39.34502586
3.54,354,0.027999999999999997,-1.002,-0.126,-36.1536498,-2.9220858,-2.4064236,78.67859256,2.2058883,-39.38513292
3.55,355,0.027000000000000003,-1.004,-0.14800000000000002,-37.1849742,-3.2658606,-2.3491277999999998,78.30616986,2.22307704,-39.42523998
3.56,356,0.028999999999999998,-1.014,-0.165,-37.9298196,-3.380452200000001,-2.291832,77.91655842,2.2345362,-39.46534704
3.57,357,0.027000000000000003,-1.0170000000000001,-0.157,-38.5600734,-4.1252976000000015,-2.5210152000000003,77.52694698,2.24599536,-39.51691326
3.58,358,0.026000000000000002,-1.0090000000000001,-0.163,-38.961144,-4.4117766,-2.9220858,77.12587638,2.2631841,-39.56847947999999
3.59,359,0.017,-0.991,-0.16699999999999998,-39.3622146,-4.6982555999999995,-3.3231564,76.72480578,2.28037284,-39.625775280000006
3.5999999999999996,360,0.018000000000000002,-0.988,-0.16399999999999998,-39.8778768,-5.0993262,-3.9534102,76.32373518,2.30329116,-39.68880066
3.61,361,0.028999999999999998,-0.991,-0.171,-40.4508348,-4.8128472,-4.3544808,75.91120542,2.33193906,-39.74609646
3.6199999999999997,362,0.035,-0.996,-0.187,-41.0810886,-5.3858052,-3.9534102,75.49294608,2.35485738,-39.81485142
3.63,363,0.045,-1.002,-0.19699999999999998,-41.9978214,-5.9014674000000005,-3.4377480000000005,75.06322758,2.37204612,-39.88360638
3.6399999999999997,364,0.057,-0.997,-0.203,-42.62807520000001,-6.7609043999999985,-2.6356068,74.6277795,2.3777757,-39.95809092
3.65,365,0.054000000000000006,-0.981,-0.193,-43.258328999999996,-8.7089616,-1.8907614,74.19233141999999,2.37204612,-40.04976420000001
3.6599999999999997,366,0.046,-0.963,-0.187,-43.77399120000001,-10.5424272,-1.5469866,73.74542418,2.35485738,-40.15862622
3.67,367,0.044000000000000004,-0.96,-0.212,-44.8053156,-11.3445684,-1.6615782,73.28705778,2.3376686399999995,-40.27894740000001
3.6799999999999997,368,0.042,-0.966,-0.214,-45.3782736,-12.0894138,-2.0626488000000003,72.8229618,2.3204799,-40.40499816
3.69,369,0.023,-0.985,-0.218,-46.3523022,-12.0894138,-2.9793816000000004,72.34740666,2.30902074,-40.53104892
3.6999999999999997,370,0.025,-0.9990000000000001,-0.233,-47.6128098,-10.828906199999999,-4.0680017999999984,71.86612194,2.3147503200000004,-40.6513701
3.71,371,0.026000000000000002,-0.983,-0.233,-48.529542600000006,-9.682990199999999,-4.8128472,71.36764848,2.32620948,-40.76023212
3.7199999999999998,372,0.019,-0.96,-0.22,-49.3316838,-10.084060800000001,-4.9847346,70.86344543999998,2.3376686399999995,-40.8805533
3.73,373,0.013999999999999999,-0.9520000000000001,-0.23199999999999998,-50.24841660000001,-10.4278356,-4.7555514,70.34778324,2.34339822,-40.9951449
3.7399999999999998,374,0.018000000000000002,-0.96,-0.25,-51.7954032,-9.9694692,-4.583664,69.82066188,2.3491278,-41.1097365
3.75,375,0.011000000000000001,-0.977,-0.233,-53.1705024,-9.682990199999999,-4.4690724,69.28781094,2.35485738,-41.21859852
3.76,376,0.009000000000000001,-0.998,-0.243,-54.8320806,-8.7089616,-4.4690724,68.72631209999999,2.36058696,-41.32173096
3.77,377,0.013999999999999999,-1.004,-0.247,-57.35309579999999,-7.5057497999999985,-4.1252976000000015,68.14189494000001,2.36631654,-41.41340424
3.78,378,0.04,-1.003,-0.244,-59.014674,-6.990087599999999,-3.4377480000000005,67.54028904,2.36631654,-41.49361836
3.79,379,0.047,-0.9990000000000001,-0.266,-61.1346186,-6.4744254,-2.6356068,66.91576482,2.36058696,-41.5681029
3.8,380,0.05,-0.9990000000000001,-0.26899999999999996,-62.68160520000001,-6.703608600000001,-1.6615782,66.28551102,2.34339822,-41.64258744
3.81,381,0.04,-1.0,-0.27,-63.770225399999994,-7.333862400000001,-0.6875496,65.63806847999999,2.3147503200000004,-41.71707198
3.82,382,0.027999999999999997,-0.986,-0.28300000000000003,-64.9161414,-7.8495246,-0.2291832000000001,64.97343719999999,2.28037284,-41.79155652
3.83,383,0.017,-0.97,-0.285,-65.4318036,-7.8495246,0.11459160000000004,64.30880592,2.24026578,-41.87177064
3.84,384,0.018000000000000002,-0.963,-0.28600000000000003,-66.176649,-7.7922288,0.5156622000000001,63.63844506,2.19442914,-41.9405256
3.8499999999999996,385,0.017,-0.9640000000000001,-0.301,-67.26526919999999,-7.734933000000002,1.3178034,62.962354620000006,2.13713334,-42.00928055999999
3.86,386,0.021,-0.97,-0.32299999999999995,-68.35388940000001,-6.9327918,1.8334656000000005,62.26334586,2.08556712,-42.06657636
3.8699999999999997,387,0.027000000000000003,-0.983,-0.345,-69.15603060000001,-6.417129599999999,1.8907614,61.5643371,2.02827132,-42.11814258
3.88,388,0.028999999999999998,-1.005,-0.36,-69.55710119999999,-6.589017,1.8334656000000005,60.85386918,1.9767051,-42.17543838
3.8899999999999997,389,0.024,-1.02,-0.364,-69.6716928,-6.7609043999999985,1.4896908000000002,60.14913084,1.9194093000000003,-42.23273418
3.9,390,0.017,-1.013,-0.373,-69.9581718,-6.9327918,0.6302538000000001,59.444392500000006,1.87357266,-42.29002998
3.9099999999999997,391,0.009000000000000001,-0.981,-0.384,-70.4165382,-6.5317212,-0.7448454000000001,58.72819500000001,1.83919518,-42.35878494
3.92,392,0.013000000000000001,-0.945,-0.397,-70.7030172,-5.0993262,-2.0626488000000003,58.006267920000006,1.82200644,-42.41608074
3.9299999999999997,393,0.021,-0.914,-0.408,-69.9581718,-3.4950437999999995,-2.5210152000000003,57.2958,1.81627686,-42.46191738
3.94,394,0.015,-0.902,-0.428,-68.52577679999999,-2.2345362,-2.6356068,56.60252082,1.82200644,-42.49629486
3.9499999999999997,395,0.003,-0.9009999999999999,-0.44,-67.036086,-1.5469866,-2.5783110000000002,55.92643038,1.82200644,-42.53067234
3.96,396,-0.001,-0.9109999999999999,-0.43799999999999994,-65.2026204,-0.1718874,-2.3491277999999998,55.26752868000001,1.8334656000000005,-42.54786108
3.9699999999999998,397,0.006999999999999999,-0.92,-0.43799999999999994,-64.0567044,1.7188740000000002,-2.1772404,54.61435656,1.85065434,-42.54786108
3.98,398,0.021,-0.919,-0.444,-63.1972674,3.6669312000000014,-2.0626488000000003,53.97264360000001,1.87930224,-42.53067234
3.9899999999999998,399,0.035,-0.912,-0.45,-62.910788399999994,4.7555514,-1.5469866,53.33666022,1.91367972,-42.50775402
4.0,400,0.03,-0.914,-0.45899999999999996,-62.5670136,4.2398892,-0.3437748,52.712136,1.93086846,-42.47337654
4.01,401,0.02,-0.929,-0.469,-62.3951262,2.9793816000000004,0.8594370000000001,52.07615262,1.93086846,-42.45045822
4.02,402,0.006,-0.927,-0.473,-62.6243094,1.6615782,1.3178034,51.44016924,1.9194093000000003,-42.4275399
4.03,403,0.009000000000000001,-0.924,-0.475,-62.22323879999999,0.40107059999999994,0.6302538000000001,50.80991544000001,1.91367972,-42.4275399
4.04,404,0.016,-0.919,-0.483,-62.16594300000001,-0.1718874,-0.6302538000000001,50.17966163999999,1.90795014,-42.43326947999999
4.05,405,0.027000000000000003,-0.9059999999999999,-0.491,-62.3951262,-0.11459160000000004,-1.7761698000000001,49.560867,1.90795014,-42.44472864
4.06,406,0.031,-0.895,-0.494,-62.3951262,0.1718874,-2.0053530000000004,48.92488362,1.9194093000000003,-42.46191738
4.07,407,0.03,-0.877,-0.4970000000000001,-62.5097178,0.3437748,-1.9480572,48.28890024,1.92513888,-42.47337654
4.08,408,0.03,-0.863,-0.503,-62.8534926,0.8594370000000001,-1.6042823999999998,47.65291686,1.93659804,-42.47910612
4.09,409,0.034,-0.8590000000000001,-0.514,-63.1399716,1.145916,-1.145916,47.0112039,1.94232762,-42.47910612
4.1,410,0.031,-0.863,-0.524,-63.59833800000001,1.0886202,-0.8594370000000001,46.3809501,1.9480572000000005,-42.47910612
4.109999999999999,411,0.026000000000000002,-0.865,-0.528,-63.6556338,0.6875496,-0.572958,45.73350756000001,1.9480572000000005,-42.47910612
4.12,412,0.021,-0.872,-0.531,-63.712929599999995,0.11459160000000004,-0.3437748,45.08606502,1.94232762,-42.48483570000001
4.13,413,0.02,-0.865,-0.537,-64.0567044,-0.2291832000000001,-0.11459160000000004,44.4328929,1.93659804,-42.48483570000001
4.14,414,0.027999999999999997,-0.862,-0.54,-64.28588760000001,-0.6302538000000001,-0.1718874,43.77972078000001,1.9194093000000003,-42.49629486
4.1499999999999995,415,0.034,-0.865,-0.537,-64.9161414,-0.9167328000000001,-0.1718874,43.143737400000006,1.90795014,-42.50202444
4.16,416,0.034,-0.873,-0.544,-65.4890994,-0.8594370000000001,-0.286479,42.47337654,1.89649098,-42.5134836
4.17,417,0.032,-0.894,-0.557,-66.2912406,-0.6302538000000001,-0.40107059999999994,41.80301568,1.88503182,-42.52494276
4.18,418,0.036000000000000004,-0.92,-0.564,-67.322565,-0.286479,-0.6875496,41.12119566,1.87930224,-42.53067234
4.1899999999999995,419,0.038,-0.9440000000000001,-0.563,-68.182002,-0.1718874,-0.9740286,40.42791648,1.87357266,-42.5421315
4.2,420,0.040999999999999995,-0.9540000000000001,-0.5670000000000001,-69.72898860000001,-0.8021411999999999,-1.145916,39.7346373,1.8621134999999998,-42.55359066
4.21,421,0.046,-0.935,-0.573,-71.5051584,-1.9480572,-1.3750992,39.01271022,1.85065434,-42.57650898
4.22,422,0.053,-0.912,-0.579,-73.28132819999998,-2.4064236,-1.9480572,38.26786482,1.8334656000000005,-42.61088646
4.2299999999999995,423,0.057,-0.893,-0.5670000000000001,-74.9429064,-2.4064236,-2.5783110000000002,37.50583068,1.81627686,-42.64526393999999
4.24,424,0.054000000000000006,-0.882,-0.5579999999999999,-76.9482594,-2.4064236,-3.3231564,36.72087822,1.81054728,-42.69110058
4.25,425,0.052000000000000005,-0.877,-0.552,-78.89631659999998,-2.0626488000000003,-3.9534102,35.94165534,1.8048177,-42.73120764
4.26,426,0.048,-0.88,-0.54,-80.78707800000002,-1.3178034,-4.0680017999999984,35.122325399999994,1.81054728,-42.77131470000001
4.27,427,0.049,-0.889,-0.544,-82.4486562,-0.4583664000000001,-3.7242269999999995,34.28007714,1.81627686,-42.80569218
4.28,428,0.048,-0.89,-0.542,-84.51130500000002,-0.4583664000000001,-3.3231564,33.42064014,1.81627686,-42.84006966
4.29,429,0.052000000000000005,-0.882,-0.523,-86.0009958,-0.8594370000000001,-3.2085647999999996,32.54974398,1.81627686,-42.86871756
4.3,430,0.055999999999999994,-0.87,-0.523,-88.23553199999998,-0.6875496,-3.4950437999999995,31.67884782,1.81627686,-42.90309504
4.31,431,0.06,-0.855,-0.519,-90.35547659999999,-0.1718874,-3.8961144,30.75638544000001,1.82200644,-42.93747252
4.32,432,0.066,-0.8540000000000001,-0.507,-92.93378759999999,0.40107059999999994,-4.7555514,29.811004740000005,1.83919518,-42.97185
4.33,433,0.067,-0.853,-0.51,-95.51209859999999,0.9167328000000001,-5.5576926,28.84270572,1.8621134999999998,-43.01195706
4.34,434,0.066,-0.847,-0.498,-97.5747474,1.145916,-6.589017,27.85148838,1.8907614,-43.06352328
4.35,435,0.061,-0.841,-0.488,-99.2936214,1.7188740000000002,-7.7922288,26.86600062,1.92513888,-43.12081908
4.36,436,0.051,-0.8290000000000001,-0.479,-100.7833122,3.0366774,-9.2819196,25.840405800000006,1.98243468,-43.18957404
4.37,437,0.053,-0.8170000000000001,-0.48700000000000004,-102.9605526,3.7815228,-10.7716104,24.79189266,2.04546006,-43.26405858
4.38,438,0.055999999999999994,-0.8029999999999999,-0.48100000000000004,-105.5961594,3.8388186,-11.8602306,23.71473162,2.11421502,-43.35573186000001
4.39,439,0.057,-0.7859999999999999,-0.485,-108.51824520000001,4.9274388,-12.605075999999999,22.60892268,2.19442914,-43.44740514
4.3999999999999995,440,0.057999999999999996,-0.782,-0.45399999999999996,-112.01328899999999,5.042030400000002,-12.9488508,21.49165458,2.2746432600000004,-43.53907842
4.41,441,0.064,-0.78,-0.4270000000000001,-117.1126152,4.6409598,-13.120738199999998,20.29990194,2.3491278,-43.64221086
4.42,442,0.087,-0.758,-0.405,-122.1546456,3.8388186,-13.2926256,19.056583080000006,2.41215318,-43.7453433
4.43,443,0.111,-0.743,-0.41,-126.5091264,2.5783110000000002,-12.891555,17.76742758,2.45798982,-43.85420532
4.4399999999999995,444,0.126,-0.7190000000000001,-0.384,-130.11876180000002,0.6302538000000001,-11.802934800000001,16.438165020000003,2.48090814,-43.95733776
4.45,445,0.125,-0.691,-0.384,-133.499214,-2.291832,-10.4851314,15.10317288,2.47517856,-44.06047020000001
4.46,446,0.13,-0.643,-0.373,-135.50456699999998,-3.380452200000001,-9.568398599999998,13.722344099999999,2.45226024,-44.15214348
4.47,447,0.139,-0.5770000000000001,-0.35700000000000004,-135.4472712,-5.3858052,-9.167328,12.34151532,2.40069402,-44.24954634
4.4799999999999995,448,0.151,-0.49,-0.35,-133.72839720000002,-8.59437,-9.568398599999998,10.98360486,2.3204799,-44.35267878
4.49,449,0.158,-0.41100000000000003,-0.289,-129.0874374,-11.2299768,-10.026765,9.67153104,2.21161788,-44.46727038
4.5,450,0.14400000000000002,-0.32299999999999995,-0.28600000000000003,-126.2799432,-14.209358400000001,-10.313244000000001,8.393834700000001,2.07983754,-44.58759156
4.51,451,0.121,-0.22399999999999998,-0.203,-120.37847579999999,-15.6990492,-11.2872726,7.167704579999999,1.93086846,-44.7193719
4.52,452,0.1,-0.14,-0.115,-113.159205,-16.157415599999997,-12.1467096,6.016058999999999,1.77044022,-44.85115224
4.53,453,0.071,-0.045,-0.094,-107.08585020000001,-18.1054728,-13.5791046,4.9274388,1.59282324,-45.00012132
4.54,454,0.038,0.044000000000000004,0.032,-97.6320432,-19.8243468,-15.2406828,3.93622146,1.39801752,-45.16627914
4.55,455,0.003,0.11199999999999999,0.061,-91.10032199999999,-24.2934192,-17.589810600000003,3.00229992,1.1573751600000002,-45.35535528000001
4.56,456,-0.037000000000000005,0.16699999999999998,0.031,-86.2874748,-27.788463,-19.7097552,2.12567418,0.8823553199999999,-45.56162016
4.57,457,-0.078,0.21100000000000002,0.122,-80.1568242,-28.2468294,-19.2513888,1.31207382,0.6016058999999999,-45.76788504
4.58,458,-0.131,0.204,0.125,-76.20341400000002,-29.8511118,-18.1054728,0.53858052,0.29793816,-45.9512316
4.59,459,-0.145,0.215,0.061,-71.44786260000002,-28.934378999999996,-16.157415599999997,-0.17761697999999998,0.00572958,-46.11738942
4.6,460,-0.14300000000000002,0.207,0.114,-63.82752120000001,-28.934378999999996,-14.32395,-0.8307891,-0.29220857999999994,-46.26062892
4.61,461,-0.139,0.185,0.071,-59.53033620000001,-29.335449600000004,-12.032118,-1.432395,-0.59014674,-46.37522052
4.62,462,-0.132,0.215,0.023,-51.9099948,-28.132237800000002,-10.7716104,-1.95378678,-0.87662574,-46.47835296
4.63,463,-0.066,0.228,0.055,-39.9924684,-28.877083199999998,-11.2872726,-2.3491278,-1.1688343199999998,-46.58148540000001
4.64,464,-0.045,0.23399999999999999,0.048,-31.054323600000004,-35.9244666,-11.2872726,-2.65852512,-1.53552744,-46.69034742
4.6499999999999995,465,-0.046,0.258,0.08199999999999999,-22.4026578,-40.6227222,-8.8235532,-2.8934379,-1.94232762,-46.76483196
4.66,466,-0.006999999999999999,0.27899999999999997,0.079,-11.2872726,-43.7166954,-2.9793816000000004,-3.00229992,-2.3777757,-46.78202069999999
4.67,467,0.054000000000000006,0.294,0.165,1.145916,-46.00852740000001,4.6409598,-2.99084076,-2.83041252,-46.7247249
4.68,468,0.109,0.336,0.157,10.313244000000001,-41.19568020000001,12.891555,-2.88770832,-3.2314831199999987,-46.58721498
4.6899999999999995,469,0.11,0.466,-0.162,25.382039399999996,-51.4516284,17.303331600000003,-2.62987722,-3.7299565800000014,-46.409597999999995
4.7,470,0.079,0.601,-0.223,51.9672906,-75.4012728,15.469866,-2.13140376,-4.45761324,-46.24916976
4.71,471,0.085,0.667,-0.4370000000000001,74.31265259999998,-85.37074199999998,9.8548776,-1.36936962,-5.29413192,-46.1517669
4.72,472,0.122,0.727,-0.46,80.04223259999998,-87.7198698,5.72958,-0.55003968,-6.147839339999999,-46.11165984
4.7299999999999995,473,0.423,0.7440000000000001,-0.703,72.4218912,-102.9605526,0.11459160000000004,0.19480572,-7.15624542,-46.14030774
4.74,474,0.31,0.7040000000000001,-1.706,53.628868800000006,-119.2325598,-5.6149884000000005,0.76776372,-8.33080932,-46.24344018
4.75,475,0.8420000000000001,0.784,-3.805,11.2872726,-105.3096804,1.9480572,0.90527364,-9.3678633,-46.27208808
4.76,476,1.071,1.7630000000000001,-3.9960000000000004,-7.2192707999999985,-13.636400400000001,18.793022399999998,0.8021412000000001,-9.50537322,-46.08874152
4.77,477,-3.97,3.0580000000000003,-3.9960000000000004,-82.4486562,-18.3919518,26.814434400000003,-0.07448454,-9.70017894,-45.81945126
4.78,478,-3.7439999999999998,1.13,-3.9960000000000004,-41.19568020000001,-31.054323600000004,-5.5003968,-0.47555514,-10.01530584,-45.87674706
4.79,479,-0.8420000000000001,0.21600000000000005,-3.9960000000000004,-62.68160520000001,-24.4080108,-19.365980399999998,-1.07716104,-10.26740736,-46.07155278000001
4.8,480,0.006,0.555,-3.99,-41.9978214,-15.2406828,-3.7815228,-1.49542038,-10.42210602,-46.10593026
4.81,481,-0.715,0.826,-2.9760000000000004,-17.4179232,7.161975,0.8021411999999999,-1.67303736,-10.35335106,-46.0944711
4.82,482,-1.2409999999999999,0.825,-1.879,1.7761698000000001,16.902261,11.9748222,-1.6787669399999998,-10.18146366,-45.97414992
4.83,483,-0.9359999999999999,0.6559999999999999,-1.07,5.2712136,12.1467096,23.7204612,-1.6673077799999998,-10.0554129,-45.73923714
4.84,484,-0.67,0.556,-0.604,-3.7242269999999995,13.521808800000002,17.246035799999998,-1.73606274,-9.91790298,-45.56162016
4.85,485,-0.46299999999999997,0.455,-0.485,-11.9748222,14.381245800000002,-3.4377480000000005,-1.90222056,-9.80904096,-45.59026806
4.86,486,-0.28300000000000003,0.402,-0.41,-15.928232399999999,9.3392154,-14.037471,-2.03973048,-9.72309726,-45.72777798
4.87,487,-0.135,0.4,-0.462,-21.772404,5.2712136,-17.7044022,-2.2345362,-9.67726062,-45.90539496
4.88,488,0.016,0.40700000000000003,-0.447,-24.0069402,4.0680017999999984,-16.7876694,-2.45226024,-9.64288314,-46.07728236
4.89,489,0.105,0.379,-0.46799999999999997,-25.382039399999996,4.8128472,-14.209358400000001,-2.68717302,-9.60850566,-46.21479228000001
4.8999999999999995,490,0.16399999999999998,0.384,-0.525,-23.319390600000002,-2.0053530000000004,-11.2872726,-2.93927454,-9.60850566,-46.323654299999994
4.91,491,0.16,0.369,-0.503,-19.7097552,-7.734933000000002,-8.3651868,-3.1226211000000004,-9.68871978,-46.40386842
4.92,492,0.106,0.365,-0.473,-21.944291399999997,-5.3285094000000015,-6.589017,-3.33461556,-9.75174516,-46.4668938
4.93,493,-0.026000000000000002,0.361,-0.523,-22.4599536,-1.0313244000000001,-6.8182002000000015,-3.5523396000000003,-9.7689339,-46.52991918
4.9399999999999995,494,-0.095,0.32799999999999996,-0.509,-20.340009,6.1879464,-8.250595200000001,-3.74714532,-9.7116381,-46.61586288
4.95,495,-0.161,0.28,-0.41100000000000003,-19.0222056,13.9228794,-9.396511199999999,-3.94195104,-9.59131692,-46.71326574
4.96,496,-0.185,0.29,-0.423,-12.261301199999998,20.8556712,-10.1986524,-4.05081306,-9.39078162,-46.82212776
4.97,497,-0.225,0.324,-0.45799999999999996,-6.990087599999999,21.314037600000002,-10.084060800000001,-4.10810886,-9.19024632,-46.93098978
4.9799999999999995,498,-0.27899999999999997,0.373,-0.462,-3.4377480000000005,24.2934192,-8.4224826,-4.1310271799999985,-8.95533354,-47.02839264
4.99,499,-0.314,0.379,-0.5539999999999999,-0.6875496,28.7051958,-6.990087599999999,-4.1310271799999985,-8.67458412,-47.10860676
5.0,500,-0.361,0.354,-0.6779999999999999,1.8334656000000005,33.804522,-7.7922288,-4.14248634,-8.382375540000002,-47.19455046
5.01,501,-0.379,0.34600000000000003,-0.757,4.9274388,38.3308902,-9.9121734,-4.0794609600000005,-8.00995284,-47.31487163999999
5.02,502,-0.364,0.348,-0.794,6.9327918,41.7113424,-12.261301199999998,-3.99924684,-7.603152659999999,-47.45811113999999
5.03,503,-0.3720000000000001,0.35,-0.887,6.589017,44.06047020000001,-14.381245800000002,-3.91330314,-7.17916374,-47.61853938
5.04,504,-0.36200000000000004,0.342,-1.008,6.3025379999999975,45.550160999999996,-15.5844576,-3.8388186000000006,-6.7379860800000015,-47.79042678
5.05,505,-0.34,0.32299999999999995,-1.101,8.59437,45.3782736,-15.3552744,-3.74714532,-6.30826758,-47.96231418000001
5.06,506,-0.35700000000000004,0.319,-1.194,11.1153852,44.404245,-13.8655836,-3.62682414,-5.87854908,-48.11701284
5.07,507,-0.349,0.364,-1.268,13.407217200000002,45.6647526,-11.9748222,-3.48358464,-5.4316418399999975,-48.25452276
5.08,508,-0.19899999999999998,0.42,-1.306,18.621135,46.2377106,-11.2872726,-3.28877892,-4.97900502,-48.38057352000001
5.09,509,-0.027999999999999997,0.3720000000000001,-1.274,26.814434400000003,39.19032720000001,-11.6310474,-3.0080294999999997,-4.59512316,-48.51235386000001
5.1,510,0.022000000000000002,0.245,-1.276,28.3041252,22.0015872,-11.745639,-2.7215505,-4.37166954,-48.63840462
5.11,511,-0.017,0.124,-1.246,25.0955604,8.193299399999999,-10.1986524,-2.4637194,-4.297185000000002,-48.74153706
5.12,512,-0.028999999999999998,0.087,-1.151,24.637194,1.7188740000000002,-6.990087599999999,-2.2058883,-4.27999626,-48.8160216
5.13,513,-0.051,0.052000000000000005,-1.0859999999999999,23.3766864,-6.3025379999999975,-4.297185,-1.96524594,-4.33729206,-48.85612866
5.14,514,-0.095,0.017,-1.053,17.7044022,-16.902261,-1.8907614,-1.78189938,-4.50344988,-48.87904698000001
5.1499999999999995,515,-0.129,0.027999999999999997,-1.053,12.318597,-22.1734746,0.572958,-1.6558486199999998,-4.73263308,-48.8733174
5.16,516,-0.175,0.0,-1.018,9.167328,-23.0902074,-0.6302538000000001,-1.55844576,-4.96181628,-48.87904698000001
5.17,517,-0.177,0.005,-1.037,4.2398892,-18.162768600000003,-2.86479,-1.51260912,-5.13943326,-48.90769488
5.18,518,-0.16699999999999998,0.034,-1.103,-0.8594370000000001,-9.2819196,-5.9014674000000005,-1.51260912,-5.23683612,-48.96499067999999
5.1899999999999995,519,-0.184,0.09300000000000001,-1.143,-3.7815228,0.6302538000000001,-9.167328,-1.5412570200000002,-5.231106540000001,-49.05666396
5.2,520,-0.222,0.136,-1.0170000000000001,-3.2085647999999996,3.2658606,-12.032118,-1.61001198,-5.25975444,-49.17125556000001
5.21,521,-0.233,0.147,-0.843,-0.9740286,9.0527364,-13.178034,-1.61001198,-5.16808116,-49.30303590000001
5.22,522,-0.077,0.11900000000000001,-0.8759999999999999,2.4064236,22.1161788,-12.3758928,-1.5756344999999998,-4.9560867,-49.42908666
5.2299999999999995,523,0.053,0.10099999999999999,-0.82,5.958763200000001,8.7662574,-7.161975,-1.51260912,-4.8701430000000006,-49.5035712
5.24,524,0.151,0.004,-0.765,1.0313244000000001,2.3491277999999998,-1.6042823999999998,-1.50114996,-4.84722468,-49.51503036
5.25,525,0.295,-0.042,-0.825,-5.6149884000000005,3.7242269999999995,2.6356068,-1.5412570200000002,-4.71544434,-49.49211204
5.26,526,0.28800000000000003,-0.14300000000000002,-0.691,1.0313244000000001,-25.8977016,6.130650599999999,-1.53552744,-4.97327544,-49.43481624
5.27,527,0.207,-0.275,-0.742,-7.734933000000002,-27.1582092,4.1825934,-1.61001198,-5.23683612,-49.38897959999999
5.28,528,0.18,-0.305,-0.861,-18.048177,-3.5523396000000003,-1.432395,-1.7933585399999998,-5.27694318,-49.40043876
5.29,529,0.20199999999999999,-0.326,-0.9640000000000001,-16.2147114,8.307891,-6.4744254,-1.95378678,-5.19672906,-49.46919372000001
5.3,530,0.158,-0.336,-0.9490000000000001,-11.5164558,6.6463128000000005,-11.172680999999999,-1.98243468,-5.08786704,-49.58378532
5.31,531,0.109,-0.34299999999999997,-0.915,-10.5424272,4.4690724,-15.126091199999998,-2.07983754,-5.05348956,-49.73848398
5.32,532,0.071,-0.33,-0.938,-12.2040054,4.6409598,-15.870936600000002,-2.18869956,-5.0133825000000005,-49.893182640000006
5.33,533,0.052000000000000005,-0.281,-0.9740000000000001,-12.9488508,4.0680017999999984,-13.5791046,-2.30902074,-4.97900502,-50.03069255999999
5.34,534,0.028999999999999998,-0.20199999999999999,-1.003,-13.0634424,3.1512689999999997,-9.682990199999999,-2.4350715000000003,-4.95035712,-50.12809542000001
5.35,535,-0.023,-0.11800000000000001,-1.025,-12.834259199999998,2.291832,-6.4744254,-2.5210152000000003,-4.91597964,-50.1911208
5.36,536,-0.052000000000000005,-0.081,-1.0490000000000002,-9.6256944,1.145916,-3.0939732,-2.61841806,-4.91025006,-50.22549828
5.37,537,-0.067,-0.083,-1.0659999999999998,-6.417129599999999,-0.286479,0.6875496,-2.68717302,-4.91025006,-50.21403912
5.38,538,-0.07400000000000001,-0.092,-1.0659999999999998,-3.7815228,-2.1772404,4.583664,-2.72728008,-4.93316838,-50.16820248000001
5.39,539,-0.081,-0.081,-1.054,-2.0053530000000004,-3.6669312000000014,7.2192707999999985,-2.75592798,-4.96754586,-50.09371794
5.3999999999999995,540,-0.09300000000000001,-0.048,-1.044,-0.4583664000000001,-4.4117766,8.3651868,-2.73873924,-5.0133825000000005,-50.01350382
5.41,541,-0.109,-0.012,-1.037,0.6302538000000001,-4.9274388,8.479778399999999,-2.73873924,-5.05921914,-49.92756012
5.42,542,-0.128,0.015,-1.025,-0.1718874,-6.3025379999999975,8.307891,-2.74446882,-5.11651494,-49.84161642
5.43,543,-0.152,0.035,-1.001,-2.0626488000000003,-5.9014674000000005,8.193299399999999,-2.77311672,-5.17381074,-49.7614023
5.4399999999999995,544,-0.141,0.06,-0.99,-2.9793816000000004,-0.286479,8.136003599999999,-2.81322378,-5.17381074,-49.68118818
5.45,545,-0.13,0.092,-0.968,-0.6875496,-1.2032118,8.021412000000002,-2.87624916,-5.2139178,-49.59524448000001
5.46,546,-0.14,0.127,-0.938,1.145916,-5.2712136,7.2765666,-2.87051958,-5.25975444,-49.52075994000001
5.47,547,-0.14400000000000002,0.13699999999999998,-0.937,2.2345362,-6.5317212,6.0733548,-2.85333084,-5.32277982,-49.45773456
5.4799999999999995,548,-0.149,0.136,-0.9420000000000001,1.2605076000000002,-5.6722842,5.1566220000000005,-2.84187168,-5.38007562,-49.40616834
5.49,549,-0.151,0.141,-0.955,0.057295800000000015,-4.9847346,3.7815228,-2.84187168,-5.42591226,-49.36606128
5.5,550,-0.162,0.14400000000000002,-0.96,-0.057295800000000015,-5.5576926,2.1199446,-2.9564632800000004,-5.5519630200000005,-49.33168379999999
5.51,551,-0.17600000000000002,0.14300000000000002,-0.97,0.3437748,-6.3598338,0.1718874,-2.9507337000000002,-5.6149884000000005,-49.32595422
5.52,552,-0.18899999999999997,0.14300000000000002,-0.98,0.9740286,-7.0473834,-1.0313244000000001,-2.93927454,-5.68947294,-49.33741338
5.53,553,-0.20199999999999999,0.139,-0.993,1.6615782,-7.5630456000000015,-1.3750992,-2.9220857999999996,-5.76395748,-49.34887254
5.54,554,-0.20800000000000002,0.136,-1.0,2.1199446,-8.136003599999999,-1.3178034,-2.8934379,-5.844171599999999,-49.3603317
5.55,555,-0.20800000000000002,0.131,-1.002,2.1199446,-8.021412000000002,-1.145916,-2.9220857999999996,-5.98168152,-49.36606128
5.56,556,-0.20800000000000002,0.12300000000000001,-1.003,1.7188740000000002,-7.1046792000000005,-0.9740286,-2.90489706,-6.05616606,-49.37179086
5.57,557,-0.20199999999999999,0.111,-1.005,1.0886202,-5.72958,-1.0313244000000001,-2.8934379,-6.113461859999999,-49.38325002
5.58,558,-0.196,0.098,-1.0070000000000001,0.286479,-3.8388186,-1.2605076000000002,-2.88770832,-6.147839339999999,-49.39470918
5.59,559,-0.185,0.083,-1.01,-0.40107059999999994,-1.8907614,-1.6615782,-2.88770832,-6.17075766,-49.41189792
5.6,560,-0.17,0.07400000000000001,-1.012,-1.2032118,1.2032118,-2.0626488000000003,-2.93927454,-6.2165943,-49.42335708
5.61,561,-0.155,0.069,-1.011,-1.7188740000000002,3.8388186,-2.1772404,-2.9507337000000002,-6.18221682,-49.44627540000001
5.62,562,-0.136,0.065,-1.0070000000000001,-2.1772404,6.1879464,-2.291832,-2.9736520200000003,-6.12492102,-49.47492329999999
5.63,563,-0.11800000000000001,0.057999999999999996,-1.0,-2.5783110000000002,8.136003599999999,-2.291832,-3.00229992,-6.0447069,-49.49784162
5.64,564,-0.105,0.046,-0.993,-3.0366774,9.453807,-2.291832,-3.03094782,-5.9530336199999985,-49.52075994000001
5.6499999999999995,565,-0.09300000000000001,0.034,-0.987,-3.380452200000001,10.313244000000001,-1.9480572,-3.05959572,-5.849901179999999,-49.54367826
5.66,566,-0.086,0.021,-0.982,-3.6096353999999997,10.657018800000001,-1.5469866,-3.0997027800000003,-5.74103916,-49.560867
5.67,567,-0.08199999999999999,0.009000000000000001,-0.977,-3.4950437999999995,10.7143146,-1.0313244000000001,-3.13408026,-5.63790672,-49.57805574
5.68,568,-0.08,0.002,-0.9740000000000001,-3.2658606,10.3705398,-0.6302538000000001,-3.16845774,-5.53477428,-49.58378532
5.6899999999999995,569,-0.08,-0.001,-0.972,-2.9793816000000004,9.9121734,-0.5156622000000001,-3.19710564,-5.43737142,-49.59524448000001
5.7,570,-0.079,-0.005,-0.973,-2.6356068,9.2819196,-0.40107059999999994,-3.20283522,-5.3456981400000005,-49.60097406
5.71,571,-0.075,-0.009000000000000001,-0.9740000000000001,-2.1199446,8.479778399999999,-0.3437748,-3.2257535399999995,-5.25975444,-49.60670363999999
5.72,572,-0.071,-0.012,-0.975,-1.6042823999999998,7.448453999999999,-0.2291832000000001,-3.24294228,-5.1852699,-49.61243322
5.7299999999999995,573,-0.066,-0.015,-0.976,-1.0886202,6.3598338,-0.11459160000000004,-3.25440144,-5.1222445200000015,-49.61816279999999
5.74,574,-0.063,-0.013999999999999999,-0.976,-0.7448454000000001,5.0993262,0.0,-3.26013102,-5.0706783,-49.61816279999999
5.75,575,-0.057999999999999996,-0.013000000000000001,-0.976,-0.6302538000000001,4.010706000000001,0.11459160000000004,-3.1913760600000005,-4.99619376,-49.62389238
5.76,576,-0.054000000000000006,-0.008,-0.978,-0.4583664000000001,2.7501984,0.286479,-3.19710564,-4.97327544,-49.62389238
5.77,577,-0.052000000000000005,-0.001,-0.9790000000000001,-0.286479,1.8907614,0.40107059999999994,-3.20283522,-4.95035712,-49.61816279999999
5.78,578,-0.05,0.005,-0.982,-0.1718874,1.2032118,0.572958,-3.20283522,-4.93889796,-49.61243322
5.79,579,-0.049,0.009000000000000001,-0.9840000000000001,0.0,0.6875496,0.8021411999999999,-3.20283522,-4.93316838,-49.60670363999999
5.8,580,-0.049,0.013000000000000001,-0.986,0.1718874,0.1718874,0.9167328000000001,-3.1054323600000004,-4.80138804,-49.60670363999999
5.81,581,-0.051,0.019,-0.988,0.4583664000000001,-0.286479,0.9740286,-3.0997027800000003,-4.80138804,-49.59524448000001
5.82,582,-0.054000000000000006,0.024,-0.99,0.8594370000000001,-0.7448454000000001,1.0313244000000001,-3.0939732,-4.80711762,-49.58378532
5.83,583,-0.057999999999999996,0.032,-0.99,1.0886202,-1.145916,0.9740286,-3.0825140400000004,-4.81857678,-49.57805574
5.84,584,-0.063,0.04,-0.991,1.145916,-1.2032118,0.6875496,-3.07105488,-4.83003594,-49.56659658
5.85,585,-0.067,0.047,-0.991,1.0886202,-1.0886202,0.572958,-3.0997027800000003,-4.82430636,-49.560867
5.86,586,-0.071,0.053,-0.992,1.0313244000000001,-0.9167328000000001,0.40107059999999994,-3.08824362,-4.83576552,-49.55513742
5.87,587,-0.07400000000000001,0.057999999999999996,-0.991,0.8594370000000001,-0.6302538000000001,0.1718874,-3.07678446,-4.8414951,-49.54940784
5.88,588,-0.078,0.06,-0.988,0.6302538000000001,-0.286479,0.11459160000000004,-3.07105488,-4.84722468,-49.54940784
5.89,589,-0.081,0.061,-0.988,0.3437748,-0.40107059999999994,0.0,-3.0653253000000005,-4.84722468,-49.54940784
5.8999999999999995,590,-0.084,0.061,-0.99,0.2291832000000001,-0.5156622000000001,0.0,-3.25440144,-4.91025006,-49.5322191
5.91,591,-0.08800000000000001,0.063,-0.99,0.057295800000000015,-0.6302538000000001,0.057295800000000015,-3.25440144,-4.91597964,-49.5322191
5.92,592,-0.092,0.063,-0.988,-0.1718874,-0.6875496,0.0,-3.25440144,-4.9274388,-49.5322191
5.93,593,-0.095,0.062,-0.985,-0.3437748,-0.6875496,0.0,-3.26013102,-4.93316838,-49.5322191
5.9399999999999995,594,-0.09699999999999999,0.057999999999999996,-0.983,-0.9740286,-0.40107059999999994,-0.057295800000000015,-3.2658606,-4.93889796,-49.5322191
5.95,595,-0.1,0.053,-0.983,-1.7188740000000002,-0.6302538000000001,-0.2291832000000001,-3.3059676599999994,-4.9847345999999995,-49.5322191
5.96,596,-0.102,0.049,-0.981,-2.1772404,-1.0886202,-0.40107059999999994,-3.32888598,-4.99619376,-49.53794868000001
5.97,597,-0.10400000000000001,0.047,-0.98,-2.1772404,-1.3178034,-0.6302538000000001,-3.3518043,-5.00765292,-49.54367826
5.9799999999999995,598,-0.105,0.045,-0.986,-2.1772404,-1.145916,-0.6875496,-3.37472262,-5.01911208,-49.54940784
5.99,599,-0.105,0.044000000000000004,-0.992,-2.1199446,-0.9740286,-0.7448454000000001,-3.3919113599999995,-5.03057124,-49.55513742
6.0,600,-0.10400000000000001,0.044000000000000004,-0.9940000000000001,-2.0053530000000004,-0.9167328000000001,-0.8594370000000001,-3.42055926,-5.07640788,-49.560867
6.01,601,-0.10400000000000001,0.040999999999999995,-0.995,-1.7761698000000001,-0.6302538000000001,-1.0313244000000001,-3.4377480000000005,-5.08213746,-49.57232616
6.02,602,-0.10300000000000001,0.036000000000000004,-0.9940000000000001,-1.432395,-0.4583664000000001,-1.0886202,-3.4492071599999994,-5.08786704,-49.58378532
6.03,603,-0.10300000000000001,0.03,-0.991,-1.2032118,-0.3437748,-1.0313244000000001,-3.46066632,-5.0935966200000005,-49.59524448000001
6.04,604,-0.102,0.027999999999999997,-0.987,-1.0886202,-0.2291832000000001,-1.0313244000000001,-3.47212548,-5.0993262,-49.60670363999999
6.05,605,-0.1,0.026000000000000002,-0.985,-0.9167328000000001,-0.1718874,-0.9167328000000001,-3.44347758,-5.1566220000000005,-49.61816279999999
6.06,606,-0.099,0.027000000000000003,-0.982,-0.8021411999999999,-0.057295800000000015,-0.6302538000000001,-3.4492071599999994,-5.1566220000000005,-49.62389238
6.07,607,-0.09699999999999999,0.027000000000000003,-0.982,-0.6875496,-0.057295800000000015,-0.572958,-3.45493674,-5.1566220000000005,-49.62962196
6.08,608,-0.09699999999999999,0.027000000000000003,-0.982,-0.6875496,-0.2291832000000001,-0.572958,-3.4663959,-5.1566220000000005,-49.63535154
6.09,609,-0.09699999999999999,0.027999999999999997,-0.98,-0.572958,-0.057295800000000015,-0.4583664000000001,-3.47212548,-5.16235158,-49.64108112
6.1,610,-0.095,0.027000000000000003,-0.98,-0.572958,0.057295800000000015,-0.4583664000000001,-3.4148296799999995,-5.21964738,-49.6468107
6.11,611,-0.096,0.027999999999999997,-0.9790000000000001,-0.40107059999999994,0.286479,-0.3437748,-3.42055926,-5.21964738,-49.65254028
6.12,612,-0.095,0.03,-0.9790000000000001,-0.2291832000000001,0.3437748,-0.286479,-3.42055926,-5.2139178,-49.65826986
6.13,613,-0.094,0.033,-0.9790000000000001,-0.1718874,0.5156622000000001,-0.1718874,-3.42628884,-5.20818822,-49.65826986
6.14,614,-0.092,0.036000000000000004,-0.981,0.0,0.6875496,-0.11459160000000004,-3.42628884,-5.2024586400000015,-49.65826986
6.15,615,-0.091,0.038,-0.983,0.0,0.6875496,-0.057295800000000015,-3.4148296799999995,-5.25402486,-49.65826986
6.16,616,-0.09,0.040999999999999995,-0.9840000000000001,0.0,0.8021411999999999,0.0,-3.4148296799999995,-5.2425657,-49.65826986
6.17,617,-0.09,0.040999999999999995,-0.986,0.057295800000000015,0.8021411999999999,0.0,-3.4148296799999995,-5.23683612,-49.65826986
6.18,618,-0.09,0.042,-0.988,0.2291832000000001,0.6875496,0.057295800000000015,-3.4148296799999995,-5.231106540000001,-49.65826986
6.1899999999999995,619,-0.09,0.042,-0.987,0.2291832000000001,0.572958,0.11459160000000004,-3.4091001000000003,-5.22537696,-49.65826986
6.2,620,-0.08900000000000001,0.043,-0.987,0.057295800000000015,0.5156622000000001,0.057295800000000015,-3.4377480000000005,-5.24829528,-49.65254028
6.21,621,-0.08800000000000001,0.043,-0.986,0.0,0.4583664000000001,0.11459160000000004,-3.4377480000000005,-5.24829528,-49.65254028
6.22,622,-0.08800000000000001,0.043,-0.986,-0.11459160000000004,0.40107059999999994,0.1718874,-3.4377480000000005,-5.2425657,-49.65254028
6.2299999999999995,623,-0.087,0.044000000000000004,-0.985,-0.2291832000000001,0.3437748,0.11459160000000004,-3.4377480000000005,-5.23683612,-49.65254028
6.24,624,-0.08900000000000001,0.045,-0.986,-0.1718874,0.286479,0.057295800000000015,-3.44347758,-5.23683612,-49.65254028
6.25,625,-0.08800000000000001,0.045,-0.986,-0.2291832000000001,0.3437748,0.0,-3.48358464,-5.2712136,-49.6468107
6.26,626,-0.08800000000000001,0.045,-0.987,-0.1718874,0.2291832000000001,-0.057295800000000015,-3.48358464,-5.2712136,-49.6468107
6.27,627,-0.086,0.044000000000000004,-0.987,-0.057295800000000015,0.3437748,-0.1718874,-3.48358464,-5.2654840200000015,-49.6468107
6.28,628,-0.085,0.044000000000000004,-0.987,0.0,0.286479,-0.2291832000000001,-3.48358464,-5.2654840200000015,-49.65254028
6.29,629,-0.083,0.043,-0.987,0.0,0.2291832000000001,-0.2291832000000001,-3.48358464,-5.25975444,-49.65254028
6.3,630,-0.08199999999999999,0.043,-0.986,0.057295800000000015,0.11459160000000004,-0.286479,-3.4950437999999995,-5.2425657,-49.65826986
6.31,631,-0.08199999999999999,0.042,-0.986,0.057295800000000015,-0.057295800000000015,-0.286479,-3.4950437999999995,-5.2425657,-49.65826986
6.32,632,-0.08199999999999999,0.04,-0.986,-0.1718874,0.0,-0.3437748,-3.4950437999999995,-5.2425657,-49.66399944
6.33,633,-0.081,0.038,-0.9840000000000001,-0.2291832000000001,0.0,-0.286479,-3.50077338,-5.2425657,-49.66972902000001
6.34,634,-0.08199999999999999,0.038,-0.986,-0.286479,0.057295800000000015,-0.3437748,-3.50077338,-5.2425657,-49.66972902000001
6.35,635,-0.083,0.036000000000000004,-0.986,-0.2291832000000001,0.11459160000000004,-0.3437748,-3.48358464,-5.231106540000001,-49.6754586
6.36,636,-0.083,0.036000000000000004,-0.985,-0.057295800000000015,0.0,-0.2291832000000001,-3.48931422,-5.231106540000001,-49.68118818
6.37,637,-0.083,0.034,-0.985,-0.11459160000000004,-0.057295800000000015,-0.3437748,-3.48931422,-5.23683612,-49.68118818
6.38,638,-0.084,0.035,-0.9840000000000001,-0.1718874,-0.1718874,-0.286479,-3.48931422,-5.23683612,-49.68691776000001
6.39,639,-0.085,0.034,-0.983,-0.1718874,-0.286479,-0.3437748,-3.48931422,-5.2425657,-49.68691776000001
6.4,640,-0.086,0.036000000000000004,-0.985,0.0,-0.4583664000000001,-0.40107059999999994,-3.47212548,-5.25975444,-49.69264734
6.41,641,-0.086,0.037000000000000005,-0.985,0.11459160000000004,-0.6875496,-0.4583664000000001,-3.47212548,-5.2654840200000015,-49.69837692
6.42,642,-0.08800000000000001,0.038,-0.9840000000000001,0.1718874,-0.6875496,-0.5156622000000001,-3.4663959,-5.2712136,-49.70410650000001
6.43,643,-0.08900000000000001,0.037000000000000005,-0.983,0.2291832000000001,-0.6875496,-0.5156622000000001,-3.4663959,-5.2826727600000005,-49.70983608
6.4399999999999995,644,-0.09,0.038,-0.983,0.2291832000000001,-0.7448454000000001,-0.3437748,-3.46066632,-5.28840234,-49.71556566
6.45,645,-0.091,0.038,-0.981,0.2291832000000001,-0.6302538000000001,-0.40107059999999994,-3.45493674,-5.32277982,-49.71556566
6.46,646,-0.092,0.037000000000000005,-0.981,0.3437748,-0.5156622000000001,-0.286479,-3.4492071599999994,-5.3285094000000015,-49.72129524
6.47,647,-0.091,0.039,-0.982,0.40107059999999994,-0.4583664000000001,-0.286479,-3.4492071599999994,-5.33423898,-49.72129524
6.4799999999999995,648,-0.09,0.040999999999999995,-0.983,0.40107059999999994,-0.5156622000000001,-0.2291832000000001,-3.44347758,-5.339968560000001,-49.72702482
6.49,649,-0.091,0.040999999999999995,-0.9840000000000001,0.5156622000000001,-0.572958,-0.1718874,-3.4377480000000005,-5.3456981400000005,-49.72702482
6.5,650,-0.091,0.042,-0.985,0.572958,-0.6302538000000001,-0.1718874,-3.4377480000000005,-5.37434604,-49.72702482
6.51,651,-0.092,0.040999999999999995,-0.9840000000000001,0.6875496,-0.6302538000000001,-0.1718874,-3.43201842,-5.38007562,-49.7327544
6.52,652,-0.094,0.040999999999999995,-0.986,0.6302538000000001,-0.6302538000000001,-0.1718874,-3.42628884,-5.385805199999999,-49.7327544
6.53,653,-0.094,0.039,-0.986,0.6302538000000001,-0.5156622000000001,-0.11459160000000004,-3.4148296799999995,-5.39153478,-49.7327544
6.54,654,-0.094,0.039,-0.986,0.40107059999999994,-0.40107059999999994,-0.1718874,-3.4148296799999995,-5.3972643599999985,-49.73848398
6.55,655,-0.094,0.038,-0.987,0.286479,-0.11459160000000004,-0.11459160000000004,-3.4148296799999995,-5.466019319999999,-49.73848398
6.56,656,-0.094,0.039,-0.988,0.2291832000000001,-0.057295800000000015,-0.057295800000000015,-3.4091001000000003,-5.466019319999999,-49.73848398
6.57,657,-0.094,0.04,-0.9890000000000001,0.1718874,-0.057295800000000015,-0.11459160000000004,-3.4091001000000003,-5.466019319999999,-49.73848398
6.58,658,-0.092,0.039,-0.99,-0.057295800000000015,0.2291832000000001,-0.057295800000000015,-3.4091001000000003,-5.466019319999999,-49.73848398
6.59,659,-0.08900000000000001,0.039,-0.9890000000000001,-0.1718874,0.572958,0.1718874,-3.4091001000000003,-5.46028974,-49.73848398
6.6,660,-0.08800000000000001,0.037000000000000005,-0.987,-0.11459160000000004,0.6302538000000001,0.2291832000000001,-3.4091001000000003,-5.46028974,-49.73848398
6.61,661,-0.08800000000000001,0.036000000000000004,-0.985,-0.286479,0.6875496,0.1718874,-3.4091001000000003,-5.45456016,-49.7327544
6.62,662,-0.08800000000000001,0.035,-0.983,-0.6875496,0.572958,0.2291832000000001,-3.42055926,-5.44883058,-49.7327544
6.63,663,-0.08800000000000001,0.035,-0.981,-0.9740286,0.2291832000000001,0.057295800000000015,-3.42628884,-5.443101,-49.7327544
6.64,664,-0.087,0.035,-0.9790000000000001,-0.8594370000000001,0.2291832000000001,0.1718874,-3.4377480000000005,-5.443101,-49.72702482
6.65,665,-0.086,0.036000000000000004,-0.982,-0.6875496,0.286479,0.1718874,-3.43201842,-5.43737142,-49.72702482
6.66,666,-0.086,0.038,-0.9840000000000001,-0.572958,0.286479,0.11459160000000004,-3.4377480000000005,-5.4316418399999975,-49.72702482
6.67,667,-0.085,0.039,-0.986,-0.4583664000000001,0.286479,0.11459160000000004,-3.44347758,-5.4316418399999975,-49.72702482
6.68,668,-0.085,0.039,-0.986,-0.1718874,0.2291832000000001,0.1718874,-3.44347758,-5.42591226,-49.72129524
6.6899999999999995,669,-0.085,0.038,-0.986,0.0,0.1718874,0.11459160000000004,-3.44347758,-5.42591226,-49.72129524
6.7,670,-0.086,0.039,-0.987,0.057295800000000015,0.1718874,0.11459160000000004,-3.44347758,-5.42018268,-49.72129524
6.71,671,-0.087,0.039,-0.987,0.057295800000000015,0.11459160000000004,0.11459160000000004,-3.44347758,-5.42018268,-49.72129524
6.72,672,-0.086,0.039,-0.986,-0.057295800000000015,0.2291832000000001,0.11459160000000004,-3.44347758,-5.42018268,-49.71556566
6.7299999999999995,673,-0.087,0.039,-0.986,-0.1718874,0.3437748,0.11459160000000004,-3.4492071599999994,-5.4144530999999985,-49.71556566
6.74,674,-0.087,0.039,-0.986,-0.1718874,0.3437748,0.057295800000000015,-3.4492071599999994,-5.40872352,-49.71556566
6.75,675,-0.087,0.04,-0.987,-0.1718874,0.286479,0.0,-3.4492071599999994,-5.40872352,-49.71556566
6.76,676,-0.087,0.039,-0.988,-0.11459160000000004,0.1718874,-0.057295800000000015,-3.4492071599999994,-5.40872352,-49.71556566
6.77,677,-0.087,0.039,-0.987,-0.057295800000000015,0.0,-0.057295800000000015,-3.4492071599999994,-5.40872352,-49.72129524
6.78,678,-0.087,0.039,-0.986,0.0,0.057295800000000015,0.0,-3.4492071599999994,-5.40872352,-49.72129524
6.79,679,-0.087,0.039,-0.985,0.11459160000000004,-0.11459160000000004,0.0,-3.4492071599999994,-5.40872352,-49.72129524
6.8,680,-0.086,0.039,-0.985,0.057295800000000015,-0.1718874,-0.11459160000000004,-3.4377480000000005,-5.40299394,-49.72129524
6.81,681,-0.087,0.039,-0.9840000000000001,0.0,-0.1718874,-0.057295800000000015,-3.44347758,-5.40872352,-49.72129524
6.82,682,-0.08800000000000001,0.037000000000000005,-0.985,0.0,-0.2291832000000001,0.0,-3.44347758,-5.40872352,-49.72129524
6.83,683,-0.08800000000000001,0.037000000000000005,-0.985,-0.057295800000000015,-0.286479,-0.057295800000000015,-3.44347758,-5.4144530999999985,-49.72129524
6.84,684,-0.087,0.037000000000000005,-0.986,0.0,-0.2291832000000001,-0.11459160000000004,-3.44347758,-5.4144530999999985,-49.72129524
6.85,685,-0.08800000000000001,0.037000000000000005,-0.987,0.0,-0.2291832000000001,-0.11459160000000004,-3.42055926,-5.4316418399999975,-49.72702482
6.86,686,-0.08900000000000001,0.038,-0.987,0.11459160000000004,-0.286479,0.0,-3.42055926,-5.4316418399999975,-49.72702482
6.87,687,-0.08900000000000001,0.037000000000000005,-0.985,0.11459160000000004,-0.1718874,0.0,-3.42055926,-5.43737142,-49.72702482
6.88,688,-0.08900000000000001,0.036000000000000004,-0.986,0.1718874,-0.11459160000000004,-0.057295800000000015,-3.4148296799999995,-5.43737142,-49.72702482
6.89,689,-0.09,0.035,-0.9840000000000001,0.057295800000000015,-0.11459160000000004,0.0,-3.4148296799999995,-5.43737142,-49.72702482
6.9,690,-0.08900000000000001,0.036000000000000004,-0.982,0.0,0.0,0.0,-3.3919113599999995,-5.466019319999999,-49.7327544
6.91,691,-0.09,0.035,-0.982,-0.11459160000000004,-0.057295800000000015,0.0,-3.3919113599999995,-5.466019319999999,-49.7327544
6.92,692,-0.09,0.037000000000000005,-0.982,-0.1718874,0.0,0.0,-3.3919113599999995,-5.466019319999999,-49.7327544
6.93,693,-0.091,0.038,-0.9840000000000001,-0.11459160000000004,0.0,-0.057295800000000015,-3.39764094,-5.466019319999999,-49.7327544
6.9399999999999995,694,-0.09,0.039,-0.985,0.0,0.057295800000000015,0.0,-3.39764094,-5.46028974,-49.7327544
6.95,695,-0.08900000000000001,0.038,-0.986,0.11459160000000004,0.11459160000000004,0.0,-3.380452200000001,-5.47747848,-49.7327544
6.96,696,-0.08900000000000001,0.039,-0.985,0.2291832000000001,0.0,0.0,-3.37472262,-5.47747848,-49.7327544
6.97,697,-0.08800000000000001,0.039,-0.985,0.3437748,0.0,0.0,-3.3689930400000003,-5.47747848,-49.7327544
6.9799999999999995,698,-0.087,0.039,-0.985,0.3437748,0.0,0.057295800000000015,-3.3689930400000003,-5.47747848,-49.7327544
6.99,699,-0.08800000000000001,0.038,-0.9840000000000001,0.286479,0.0,0.11459160000000004,-3.36326346,-5.47747848,-49.72702482
7.0,700,-0.087,0.038,-0.9840000000000001,0.1718874,0.0,0.11459160000000004,-3.3518043,-5.48320806,-49.72702482
7.01,701,-0.087,0.039,-0.985,0.11459160000000004,0.0,0.11459160000000004,-3.3518043,-5.48320806,-49.72702482
7.02,702,-0.086,0.039,-0.985,0.1718874,0.0,0.11459160000000004,-3.3518043,-5.48320806,-49.72702482
7.03,703,-0.086,0.039,-0.985,0.1718874,-0.057295800000000015,0.11459160000000004,-3.34607472,-5.48320806,-49.72702482
7.04,704,-0.087,0.038,-0.986,0.2291832000000001,0.0,0.0,-3.34607472,-5.48320806,-49.72702482
7.05,705,-0.087,0.037000000000000005,-0.985,0.286479,0.0,0.057295800000000015,-3.33461556,-5.47747848,-49.72702482
7.06,706,-0.085,0.038,-0.985,0.1718874,0.0,0.11459160000000004,-3.33461556,-5.47747848,-49.72129524
7.07,707,-0.086,0.038,-0.983,0.1718874,0.0,0.057295800000000015,-3.33461556,-5.47747848,-49.72129524
7.08,708,-0.087,0.037000000000000005,-0.983,0.11459160000000004,0.0,0.057295800000000015,-3.32888598,-5.47747848,-49.72129524
7.09,709,-0.086,0.037000000000000005,-0.983,0.0,0.0,0.0,-3.32888598,-5.47747848,-49.72129524
7.1,710,-0.086,0.037000000000000005,-0.9840000000000001,-0.11459160000000004,0.0,0.0,-3.33461556,-5.4717489000000015,-49.72129524
7.11,711,-0.086,0.038,-0.9840000000000001,-0.057295800000000015,0.0,-0.11459160000000004,-3.33461556,-5.4717489000000015,-49.72129524
7.12,712,-0.086,0.037000000000000005,-0.985,-0.057295800000000015,0.0,-0.2291832000000001,-3.33461556,-5.4717489000000015,-49.72702482
7.13,713,-0.085,0.037000000000000005,-0.985,0.0,-0.057295800000000015,-0.11459160000000004,-3.34034514,-5.4717489000000015,-49.72702482
7.14,714,-0.084,0.036000000000000004,-0.985,0.0,-0.11459160000000004,-0.11459160000000004,-3.33461556,-5.47747848,-49.72702482
7.15,715,-0.084,0.037000000000000005,-0.986,0.057295800000000015,-0.11459160000000004,-0.11459160000000004,-3.33461556,-5.46028974,-49.7327544
7.16,716,-0.086,0.036000000000000004,-0.986,0.0,-0.1718874,-0.057295800000000015,-3.33461556,-5.466019319999999,-49.7327544
7.17,717,-0.087,0.036000000000000004,-0.987,0.057295800000000015,-0.2291832000000001,-0.1718874,-3.33461556,-5.466019319999999,-49.7327544
7.18,718,-0.08800000000000001,0.036000000000000004,-0.985,0.0,-0.11459160000000004,-0.1718874,-3.33461556,-5.466019319999999,-49.7327544
7.1899999999999995,719,-0.08800000000000001,0.036000000000000004,-0.986,0.0,0.0,-0.1718874,-3.33461556,-5.466019319999999,-49.73848398
7.2,720,-0.087,0.035,-0.987,0.0,0.057295800000000015,-0.057295800000000015,-3.3059676599999994,-5.466019319999999,-49.73848398
7.21,721,-0.08800000000000001,0.036000000000000004,-0.985,-0.11459160000000004,0.057295800000000015,0.0,-3.3059676599999994,-5.466019319999999,-49.73848398
7.22,722,-0.087,0.037000000000000005,-0.986,0.0,0.0,0.0,-3.3059676599999994,-5.466019319999999,-49.73848398
7.2299999999999995,723,-0.086,0.037000000000000005,-0.985,-0.057295800000000015,-0.11459160000000004,0.0,-3.3059676599999994,-5.466019319999999,-49.73848398
7.24,724,-0.086,0.037000000000000005,-0.985,-0.2291832000000001,0.0,0.057295800000000015,-3.3059676599999994,-5.466019319999999,-49.73848398
7.25,725,-0.086,0.036000000000000004,-0.983,-0.2291832000000001,0.0,0.057295800000000015,-3.3059676599999994,-5.466019319999999,-49.73848398
7.26,726,-0.086,0.036000000000000004,-0.9790000000000001,-0.286479,0.057295800000000015,0.057295800000000015,-3.3116972399999995,-5.466019319999999,-49.73848398
7.27,727,-0.087,0.035,-0.9790000000000001,-0.6302538000000001,0.057295800000000015,0.11459160000000004,-3.31742682,-5.466019319999999,-49.73848398
7.28,728,-0.086,0.035,-0.9790000000000001,-0.8594370000000001,0.0,0.11459160000000004,-3.3231564,-5.466019319999999,-49.7327544
7.29,729,-0.087,0.035,-0.9790000000000001,-0.8021411999999999,-0.057295800000000015,0.057295800000000015,-3.33461556,-5.466019319999999,-49.7327544
7.3,730,-0.08800000000000001,0.037000000000000005,-0.983,-0.6302538000000001,-0.057295800000000015,0.057295800000000015,-3.34607472,-5.4717489000000015,-49.7327544
7.31,731,-0.08800000000000001,0.039,-0.986,-0.3437748,-0.286479,0.057295800000000015,-3.3518043,-5.4717489000000015,-49.7327544
7.32,732,-0.08800000000000001,0.04,-0.987,-0.2291832000000001,-0.2291832000000001,0.0,-3.3518043,-5.47747848,-49.7327544
7.33,733,-0.087,0.039,-0.988,-0.057295800000000015,-0.1718874,0.0,-3.3518043,-5.47747848,-49.7327544
7.34,734,-0.08800000000000001,0.039,-0.9890000000000001,0.11459160000000004,-0.11459160000000004,0.0,-3.3518043,-5.47747848,-49.7327544
7.35,735,-0.08900000000000001,0.038,-0.9890000000000001,0.11459160000000004,0.0,0.0,-3.35753388,-5.48893764,-49.7327544
7.36,736,-0.08900000000000001,0.037000000000000005,-0.988,0.11459160000000004,-0.057295800000000015,-0.11459160000000004,-3.3518043,-5.48893764,-49.7327544
7.37,737,-0.08900000000000001,0.038,-0.987,0.11459160000000004,0.0,0.0,-3.3518043,-5.48893764,-49.7327544
7.38,738,-0.08900000000000001,0.04,-0.985,0.0,0.0,0.0,-3.3518043,-5.48893764,-49.7327544
7.39,739,-0.08900000000000001,0.039,-0.986,-0.11459160000000004,-0.057295800000000015,-0.057295800000000015,-3.3518043,-5.4946672199999975,-49.7327544
7.4,740,-0.08800000000000001,0.039,-0.986,-0.057295800000000015,0.0,-0.11459160000000004,-3.36326346,-5.5003968,-49.7327544
7.41,741,-0.08800000000000001,0.039,-0.986,-0.11459160000000004,0.057295800000000015,-0.057295800000000015,-3.36326346,-5.5003968,-49.73848398
7.42,742,-0.087,0.038,-0.986,-0.11459160000000004,0.057295800000000015,-0.11459160000000004,-3.36326346,-5.4946672199999975,-49.73848398
7.43,743,-0.086,0.038,-0.987,0.0,0.0,0.0,-3.36326346,-5.4946672199999975,-49.73848398
7.4399999999999995,744,-0.085,0.039,-0.986,0.0,0.057295800000000015,0.0,-3.36326346,-5.4946672199999975,-49.73848398
7.45,745,-0.085,0.038,-0.985,0.0,0.11459160000000004,0.0,-3.36326346,-5.4717489000000015,-49.73848398
7.46,746,-0.085,0.039,-0.985,0.0,0.1718874,0.0,-3.36326346,-5.466019319999999,-49.73848398
7.47,747,-0.085,0.038,-0.985,0.0,0.11459160000000004,0.057295800000000015,-3.36326346,-5.466019319999999,-49.73848398
7.4799999999999995,748,-0.085,0.036000000000000004,-0.986,0.0,0.057295800000000015,0.057295800000000015,-3.36326346,-5.466019319999999,-49.7327544
7.49,749,-0.085,0.036000000000000004,-0.9840000000000001,0.0,0.11459160000000004,0.0,-3.36326346,-5.466019319999999,-49.7327544
7.5,750,-0.085,0.036000000000000004,-0.986,0.0,0.11459160000000004,0.0,-3.34607472,-5.46028974,-49.73848398
7.51,751,-0.086,0.035,-0.988,0.286479,0.0,0.057295800000000015,-3.34607472,-5.46028974,-49.73848398
7.52,752,-0.086,0.036000000000000004,-0.987,0.2291832000000001,0.057295800000000015,0.0,-3.34034514,-5.45456016,-49.73848398
7.53,753,-0.08800000000000001,0.037000000000000005,-0.986,0.1718874,0.057295800000000015,0.0,-3.34034514,-5.45456016,-49.73848398
7.54,754,-0.087,0.037000000000000005,-0.987,0.0,0.11459160000000004,0.0,-3.34034514,-5.45456016,-49.73848398
7.55,755,-0.086,0.036000000000000004,-0.985,-0.11459160000000004,0.11459160000000004,0.0,-3.3231564,-5.44883058,-49.73848398
7.56,756,-0.086,0.036000000000000004,-0.9840000000000001,-0.2291832000000001,0.11459160000000004,-0.057295800000000015,-3.32888598,-5.44883058,-49.73848398
7.57,757,-0.086,0.035,-0.985,-0.40107059999999994,0.057295800000000015,-0.057295800000000015,-3.33461556,-5.44883058,-49.73848398
7.58,758,-0.086,0.035,-0.9840000000000001,-0.3437748,0.0,-0.057295800000000015,-3.33461556,-5.44883058,-49.73848398
7.59,759,-0.086,0.039,-0.985,-0.1718874,0.0,-0.057295800000000015,-3.34034514,-5.44883058,-49.74421356000001
7.6,760,-0.087,0.039,-0.985,0.0,-0.057295800000000015,-0.057295800000000015,-3.34607472,-5.44883058,-49.74421356000001
7.61,761,-0.086,0.039,-0.986,0.11459160000000004,0.0,-0.057295800000000015,-3.34607472,-5.44883058,-49.74421356000001
7.62,762,-0.085,0.04,-0.985,0.4583664000000001,-0.2291832000000001,0.0,-3.34034514,-5.45456016,-49.74421356000001
7.63,763,-0.085,0.04,-0.9840000000000001,0.4583664000000001,-0.2291832000000001,0.0,-3.33461556,-5.45456016,-49.74421356000001
7.64,764,-0.085,0.039,-0.9840000000000001,0.4583664000000001,-0.286479,0.1718874,-3.32888598,-5.46028974,-49.73848398
7.65,765,-0.087,0.038,-0.9840000000000001,0.40107059999999994,-0.2291832000000001,0.1718874,-3.3231564,-5.46028974,-49.73848398
7.66,766,-0.085,0.039,-0.9840000000000001,0.286479,-0.2291832000000001,0.1718874,-3.3231564,-5.466019319999999,-49.73848398
7.67,767,-0.087,0.039,-0.9840000000000001,0.2291832000000001,-0.057295800000000015,0.11459160000000004,-3.31742682,-5.466019319999999,-49.7327544
7.68,768,-0.08800000000000001,0.039,-0.986,0.286479,0.0,0.0,-3.31742682,-5.466019319999999,-49.7327544
7.6899999999999995,769,-0.08900000000000001,0.038,-0.986,0.40107059999999994,0.0,0.0,-3.3116972399999995,-5.466019319999999,-49.7327544
7.7,770,-0.08900000000000001,0.038,-0.986,0.3437748,0.0,0.0,-3.3059676599999994,-5.4717489000000015,-49.73848398
7.71,771,-0.08800000000000001,0.037000000000000005,-0.9840000000000001,0.286479,0.0,-0.057295800000000015,-3.30023808,-5.4717489000000015,-49.73848398
7.72,772,-0.087,0.037000000000000005,-0.983,0.2291832000000001,0.057295800000000015,0.0,-3.30023808,-5.4717489000000015,-49.73848398
7.7299999999999995,773,-0.087,0.036000000000000004,-0.9840000000000001,0.11459160000000004,0.0,-0.057295800000000015,-3.30023808,-5.4717489000000015,-49.73848398
7.74,774,-0.087,0.036000000000000004,-0.983,0.11459160000000004,0.0,0.0,-3.2945085,-5.466019319999999,-49.73848398
7.75,775,-0.086,0.037000000000000005,-0.983,0.0,0.057295800000000015,-0.057295800000000015,-3.3059676599999994,-5.4717489000000015,-49.73848398
7.76,776,-0.085,0.036000000000000004,-0.985,0.0,0.057295800000000015,0.0,-3.3059676599999994,-5.4717489000000015,-49.73848398
7.77,777,-0.086,0.035,-0.985,0.057295800000000015,0.0,0.0,-3.30023808,-5.4717489000000015,-49.73848398
7.78,778,-0.086,0.036000000000000004,-0.9840000000000001,0.0,0.0,-0.057295800000000015,-3.30023808,-5.4717489000000015,-49.73848398
7.79,779,-0.086,0.036000000000000004,-0.985,0.0,0.0,0.0,-3.30023808,-5.4717489000000015,-49.73848398
7.8,780,-0.085,0.037000000000000005,-0.985,0.0,0.0,0.0,-3.3116972399999995,-5.46028974,-49.73848398
7.81,781,-0.085,0.037000000000000005,-0.985,0.057295800000000015,0.0,-0.057295800000000015,-3.3059676599999994,-5.46028974,-49.73848398
7.82,782,-0.086,0.036000000000000004,-0.985,0.0,0.0,0.0,-3.3059676599999994,-5.46028974,-49.73848398
7.83,783,-0.087,0.036000000000000004,-0.986,0.057295800000000015,-0.057295800000000015,-0.057295800000000015,-3.3059676599999994,-5.46028974,-49.73848398
7.84,784,-0.087,0.037000000000000005,-0.986,0.0,0.0,0.0,-3.3059676599999994,-5.46028974,-49.73848398
7.85,785,-0.08800000000000001,0.038,-0.986,0.0,0.057295800000000015,-0.11459160000000004,-3.30023808,-5.466019319999999,-49.74421356000001
7.86,786,-0.08800000000000001,0.038,-0.986,0.0,0.0,0.0,-3.30023808,-5.466019319999999,-49.74421356000001
7.87,787,-0.08900000000000001,0.036000000000000004,-0.986,0.0,0.11459160000000004,-0.057295800000000015,-3.30023808,-5.46028974,-49.74421356000001
7.88,788,-0.08800000000000001,0.036000000000000004,-0.986,-0.057295800000000015,0.2291832000000001,0.0,-3.30023808,-5.46028974,-49.74421356000001
7.89,789,-0.085,0.039,-0.985,-0.11459160000000004,0.11459160000000004,0.0,-3.30023808,-5.46028974,-49.74421356000001
7.9,790,-0.084,0.038,-0.983,-0.1718874,0.1718874,0.0,-3.3116972399999995,-5.44883058,-49.74421356000001
7.91,791,-0.084,0.038,-0.983,-0.1718874,0.1718874,0.057295800000000015,-3.3116972399999995,-5.44883058,-49.74421356000001
7.92,792,-0.084,0.037000000000000005,-0.981,-0.2291832000000001,0.2291832000000001,0.057295800000000015,-3.3116972399999995,-5.443101,-49.73848398
7.93,793,-0.084,0.035,-0.98,-0.4583664000000001,0.40107059999999994,0.0,-3.31742682,-5.443101,-49.73848398
7.94,794,-0.085,0.032,-0.98,-0.6875496,0.286479,0.0,-3.32888598,-5.43737142,-49.73848398
