TimeStamp(s),FrameCounter,AccX,AccY,AccZ,GyrX,GyrY,GyrZ,EulerX,EulerY,EulerZ
0.01,1,-0.03,-1.005,-0.037000000000000005,2.9220857999999996,1.432395,0.0,87.20420759999998,-1.1688343199999998,3.48358464
0.02,2,-0.031,-1.005,-0.038,2.9793816000000004,1.432395,0.0,87.2328555,-1.1688343199999998,3.4950437999999995
0.03,3,-0.031,-1.006,-0.037000000000000005,3.151269,1.5469866,0.0,87.26723297999996,-1.1688343199999998,3.5122325400000003
0.04,4,-0.03,-1.008,-0.038,2.9220857999999996,1.7761698,0.0,87.29588088,-1.1688343199999998,3.52942128
0.05,5,-0.03,-1.007,-0.04,2.7501984,1.7761698,0.0,87.32452878000002,-1.16310474,3.54661002
0.060000000000000005,6,-0.03,-1.008,-0.041,2.6356068,1.7761698,0.0,87.30734004,-1.18029348,3.56379876
0.06999999999999999,7,-0.03,-1.006,-0.042,2.4064236,1.8907613999999997,0.0,87.33025836,-1.18029348,3.5809875
0.08,8,-0.029,-1.005,-0.042,2.291832,1.9480572,0.0,87.35317668,-1.1745638999999999,3.60390582
0.09,9,-0.028,-1.005,-0.042,2.1772404,2.0626488000000003,0.0,87.37609499999998,-1.1745638999999999,3.62109456
0.09999999999999999,10,-0.027000000000000003,-1.007,-0.043,2.0053530000000004,2.1199446,0.11459160000000004,87.39901332,-1.18029348,3.6440128800000013
0.11,11,-0.027000000000000003,-1.008,-0.041,1.8907613999999997,2.0053530000000004,0.3437748,87.37609499999998,-1.18602306,3.66120162
0.12,12,-0.027000000000000003,-1.008,-0.04,1.7761698,2.1772404,0.4583664000000001,87.39328374,-1.19175264,3.68411994
0.13,13,-0.026,-1.01,-0.04,1.7188740000000002,2.291832,0.5156622000000001,87.41047248,-1.19748222,3.70703826
0.14,14,-0.027000000000000003,-1.007,-0.041,1.6615782,2.2345362,0.4010706,87.42766122,-1.19748222,3.7299565800000014
0.15000000000000002,15,-0.028,-1.006,-0.039,1.8334656000000005,2.291832,0.5156622000000001,87.44484996,-1.2032117999999998,3.752874900000001
0.16,16,-0.028,-1.007,-0.038,2.0626488000000003,2.3491278,0.5156622000000001,87.4333908,-1.21467096,3.77579322
0.17,17,-0.028,-1.005,-0.035,2.2345362,2.4064236,0.5156622000000001,87.45630911999999,-1.22040054,3.80444112
0.18000000000000002,18,-0.028,-1.006,-0.034,2.291832,2.291832,0.572958,87.47922744,-1.22613012,3.82735944
0.19,19,-0.028,-1.006,-0.033,2.3491278,2.3491278,0.6302538000000001,87.50214575999998,-1.2318597,3.85027776
0.2,20,-0.027000000000000003,-1.008,-0.034,2.3491278,2.1772404,0.6302538000000001,87.52506408,-1.23758928,3.873196080000002
0.21000000000000002,21,-0.026,-1.007,-0.037000000000000005,2.4064236,2.1199446,0.6875496,87.5193345,-1.24331886,3.896114400000001
0.22,22,-0.024,-1.006,-0.04,2.6356068,2.0053530000000004,0.8594370000000001,87.54225282,-1.24904844,3.91330314
0.23,23,-0.024,-1.003,-0.04,2.9793816000000004,1.6615782,0.9740286,87.57090072000004,-1.2605076000000002,3.93049188
0.24000000000000002,24,-0.023,-1.003,-0.04,3.4377480000000005,1.2605076000000002,0.9167328,87.6052782,-1.27196676,3.94768062
0.25,25,-0.026,-1.005,-0.038,3.6096354,1.0313244,0.8021411999999999,87.64538526,-1.27769634,3.95913978
0.26,26,-0.029,-1.006,-0.035,3.6096354,1.0886202,0.572958,87.65111484,-1.2891555000000001,3.97059894
0.27,27,-0.032,-1.009,-0.033,3.3231564,1.145916,0.5156622000000001,87.68549232000002,-1.29488508,3.9820580999999997
0.28,28,-0.033,-1.012,-0.031,3.0366774,1.5469866,0.6302538000000001,87.71414021999998,-1.30061466,3.99351726
0.29000000000000004,29,-0.03,-1.014,-0.03,2.5210152000000003,1.8907613999999997,0.6875496,87.74278812,-1.30634424,4.01643558
0.3,30,-0.027000000000000003,-1.013,-0.032,2.2345362,1.9480572,0.8021411999999999,87.75997686000002,-1.31207382,4.03362432
0.31,31,-0.025,-1.011,-0.031,2.291832,1.6615782,0.7448454000000001,87.75997686000002,-1.31207382,4.05654264
0.32,32,-0.023,-1.01,-0.029,2.2345362,1.432395,0.6875496,87.78289518,-1.3178034,4.0680017999999984
0.33,33,-0.021,-1.006,-0.027000000000000003,2.0053530000000004,1.3750992,0.572958,87.80008391999998,-1.32353298,4.08519054
0.34,34,-0.021,-1.003,-0.028,1.8907613999999997,1.2605076000000002,0.5156622000000001,87.82300224,-1.32926256,4.0966497
0.35000000000000003,35,-0.022,-1.003,-0.029,2.0053530000000004,1.3750992,0.6302538000000001,87.84019098,-1.3349921400000002,4.11383844
0.36000000000000004,36,-0.023,-1.006,-0.028,2.0053530000000004,1.2605076000000002,0.7448454000000001,87.82873182,-1.3349921400000002,4.1252976000000015
0.37,37,-0.023,-1.009,-0.03,2.0053530000000004,1.2605076000000002,0.8021411999999999,87.85165014,-1.34072172,4.14248634
0.38,38,-0.025,-1.008,-0.032,1.8334656000000005,1.3178034,0.8021411999999999,87.86883888,-1.3464512999999998,4.1539455
0.39,39,-0.025,-1.005,-0.034,1.8334656000000005,1.2605076000000002,0.7448454000000001,87.88602762000002,-1.3579104599999998,4.16540466
0.4,40,-0.026,-1.003,-0.036000000000000004,1.8334656000000005,0.7448454000000001,0.5156622000000001,87.90321636,-1.36364004,4.17686382
0.41000000000000003,41,-0.026,-1.005,-0.035,1.8334656000000005,0.6875496,0.4010706,87.8631093,-1.3579104599999998,4.1825934
0.42000000000000004,42,-0.026,-1.006,-0.034,1.8907613999999997,0.6875496,0.3437748,87.88602762000002,-1.36364004,4.19405256
0.43,43,-0.026,-1.007,-0.033,1.9480572,0.8594370000000001,0.286479,87.90321636,-1.36364004,4.19978214
0.44,44,-0.025,-1.007,-0.034,2.0626488000000003,1.0313244,0.4010706,87.92613467999998,-1.36936962,4.211241299999998
0.45,45,-0.025,-1.006,-0.035,2.2345362,0.9740286,0.4010706,87.94905299999998,-1.36936962,4.22270046
0.46,46,-0.024,-1.005,-0.034,2.3491278,0.9167328,0.4583664000000001,87.91467551999996,-1.36364004,4.23415962
0.47000000000000003,47,-0.024,-1.004,-0.034,2.4064236,0.8594370000000001,0.5156622000000001,87.94332342,-1.36936962,4.24561878
0.48000000000000004,48,-0.023,-1.006,-0.033,2.5210152000000003,0.8021411999999999,0.572958,87.96624174,-1.3750992,4.25134836
0.49,49,-0.024,-1.008,-0.032,2.5210152000000003,1.0886202,0.572958,87.99488964000004,-1.38082878,4.26280752
0.5,50,-0.025,-1.008,-0.032,2.4064236,1.3750992,0.6302538000000001,88.01780796,-1.38655836,4.27999626
0.51,51,-0.028,-1.01,-0.032,2.4637194,1.432395,0.6302538000000001,88.00061922,-1.39801752,4.29145542
0.52,52,-0.031,-1.009,-0.032,2.4064236,1.432395,0.572958,88.02353753999998,-1.4037471,4.30864416
0.53,53,-0.031,-1.008,-0.03,2.4637194,1.5469866,0.5156622000000001,88.04645586000002,-1.40947668,4.325832900000001
0.54,54,-0.029,-1.007,-0.03,2.2345362,1.6615782,0.4010706,88.06937418,-1.40947668,4.34302164
0.55,55,-0.027000000000000003,-1.006,-0.03,2.0626488000000003,1.9480572,0.4010706,88.0922925,-1.41520626,4.36021038
0.56,56,-0.024,-1.009,-0.027000000000000003,1.7761698,2.1772404,0.4010706,88.07510376,-1.40947668,4.3831287
0.5700000000000001,57,-0.024,-1.01,-0.026,1.432395,2.6356068,0.4583664000000001,88.08656292,-1.40947668,4.4117766000000005
0.5800000000000001,58,-0.022,-1.011,-0.027000000000000003,1.0886202,2.9793816000000004,0.5156622000000001,88.09802207999998,-1.41520626,4.4404245000000016
0.59,59,-0.023,-1.011,-0.028,0.9167328,3.2085648,0.572958,88.10375166,-1.4209358399999998,4.4748019800000005
0.6,60,-0.024,-1.008,-0.028,0.8594370000000001,3.3231564,0.6302538000000001,88.11521081999999,-1.42666542,4.50917946
0.61,61,-0.024,-1.009,-0.028,0.9740286,3.380452200000001,0.572958,88.0922925,-1.42666542,4.54355694
0.62,62,-0.025,-1.008,-0.027000000000000003,0.9740286,3.4950437999999995,0.5156622000000001,88.09802207999998,-1.432395,4.57793442
0.63,63,-0.026,-1.009,-0.024,0.7448454000000001,3.8388186,0.4583664000000001,88.10375166,-1.43812458,4.6180414800000005
0.64,64,-0.026,-1.009,-0.023,0.4583664000000001,4.1252976000000015,0.1718874,88.10948124000002,-1.43812458,4.65814854
0.65,65,-0.023,-1.009,-0.024,-0.1718874,4.4690724,0.0,88.10375166,-1.43812458,4.703985179999999
0.66,66,-0.021,-1.01,-0.025,-0.6875496,5.042030400000002,0.0,88.07510376,-1.42666542,4.7555514
0.67,67,-0.019,-1.011,-0.028,-1.0313244,5.3285094000000015,0.0,88.05791502,-1.42666542,4.80711762
0.68,68,-0.019,-1.013,-0.028,-1.2605076000000002,5.3858052,0.0,88.04645586000002,-1.42666542,4.86441342
0.6900000000000001,69,-0.018000000000000002,-1.012,-0.028,-1.432395,5.3858052,0.0,88.02926712000001,-1.42666542,4.91597964
0.7000000000000001,70,-0.016,-1.009,-0.029,-1.6042823999999998,5.3858052,0.0,88.01207838,-1.42666542,4.96754586
0.7100000000000001,71,-0.014,-1.006,-0.028,-1.432395,5.3858052,0.057295800000000015,87.97197132,-1.40947668,5.02484166
0.72,72,-0.015,-1.007,-0.027000000000000003,-1.432395,5.3858052,-0.11459160000000004,87.95478258,-1.4037471,5.08213746
0.73,73,-0.015,-1.006,-0.025,-1.5469866,5.3858052,-0.1718874,87.93759384,-1.4037471,5.13370368
0.74,74,-0.014,-1.006,-0.026,-1.6615782,5.3285094000000015,-0.2291832000000001,87.92040510000002,-1.39801752,5.1852699
0.75,75,-0.012,-1.006,-0.025,-1.8334656000000005,5.3285094000000015,-0.1718874,87.89748678,-1.39801752,5.23683612
0.76,76,-0.01,-1.008,-0.025,-2.0626488000000003,5.0993262,-0.11459160000000004,87.8631093,-1.3750992,5.29413192
0.77,77,-0.009000000000000001,-1.008,-0.024,-2.1199446,4.8128472,0.057295800000000015,87.84019098,-1.3750992,5.339968560000001
0.78,78,-0.009000000000000001,-1.007,-0.028,-1.8907613999999997,4.3544808,0.11459160000000004,87.81727266,-1.3750992,5.385805199999999
0.79,79,-0.01,-1.004,-0.029,-1.6615782,3.9534102,0.1718874,87.80008391999998,-1.3750992,5.42591226
0.8,80,-0.013,-1.001,-0.027000000000000003,-1.4896908000000002,3.6096354,0.057295800000000015,87.78289518,-1.3750992,5.46028974
0.81,81,-0.018000000000000002,-1.002,-0.026,-1.6042823999999998,3.2085648,0.11459160000000004,87.74278812,-1.3579104599999998,5.4946672199999975
0.8200000000000001,82,-0.019,-1.004,-0.027000000000000003,-1.7188740000000002,2.9793816000000004,0.0,87.72559937999998,-1.3579104599999998,5.52331512
0.8300000000000001,83,-0.015,-1.006,-0.027000000000000003,-1.8907613999999997,2.86479,0.11459160000000004,87.70268106,-1.36364004,5.5519630200000005
0.8400000000000001,84,-0.009000000000000001,-1.006,-0.024,-1.7761698,2.5210152000000003,0.286479,87.68549232000002,-1.36364004,5.58061092
0.85,85,-0.002,-1.002,-0.021,-1.8907613999999997,1.5469866,0.5156622000000001,87.66830358,-1.36936962,5.59207008
0.86,86,0.006999999999999999,-0.999,-0.022,-2.0626488000000003,0.057295800000000015,0.8021411999999999,87.63965568,-1.2891555000000001,5.6149884000000005
0.87,87,0.011,-1.002,-0.019,-2.4637194,-1.432395,1.2032118,87.61100778,-1.30634424,5.59779966
0.88,88,0.005,-1.005,-0.023,-2.6929026,-1.8907613999999997,1.432395,87.58808946,-1.3178034,5.58061092
0.89,89,-0.001,-1.007,-0.031,-2.9220857999999996,-1.6615782,1.6042823999999998,87.55944156000002,-1.3349921400000002,5.56342218
0.9,90,-0.006999999999999999,-1.008,-0.032,-2.4637194,-1.5469866,1.6042823999999998,87.53079366,-1.35218088,5.5519630200000005
0.91,91,-0.016,-1.003,-0.031,-2.0626488000000003,-1.4896908000000002,1.6615782,87.49641618000004,-1.3579104599999998,5.540503859999999
0.92,92,-0.025,-0.992,-0.021,-1.0886202,-1.0886202,1.7188740000000002,87.48495702,-1.3750992,5.5290447
0.93,93,-0.015,-0.979,-0.016,-0.8594370000000001,-0.572958,2.2345362,87.47349786,-1.39801752,5.52331512
0.9400000000000001,94,0.009000000000000001,-0.962,-0.023,-1.6042823999999998,-1.0886202,3.380452200000001,87.46203870000002,-1.432395,5.51185596
0.9500000000000001,95,0.025,-0.954,-0.014,-1.7188740000000002,-3.6096354,4.9274388,87.44484996,-1.4782316400000002,5.47747848
0.9600000000000001,96,0.014,-0.972,-0.003,-1.9480572,-7.1046792000000005,6.3025379999999975,87.43912037999998,-1.52406828,5.414453099999999
0.97,97,0.002,-0.995,-0.003,-3.2085648,-7.9641161999999985,6.703608600000001,87.41047248,-1.59282324,5.339968560000001
0.98,98,-0.006,-1.019,-0.005,-4.3544808,-7.9641161999999985,6.130650599999999,87.36463583999998,-1.6558486199999998,5.2654840200000015
0.99,99,-0.009000000000000001,-1.034,-0.006,-4.3544808,-7.6776372,5.2712136,87.32452878000002,-1.7074148399999998,5.19099948
1.0,100,-0.004,-1.037,-0.005,-3.9534102,-7.2192707999999985,4.297185,87.29015129999998,-1.75325148,5.11651494
1.01,101,0.01,-1.031,0.001,-3.3231564,-6.589017,3.6669312000000014,87.27869214,-1.75898106,5.06494872
1.02,102,0.019,-1.024,0.003,-2.3491278,-6.3025379999999975,3.2658606,87.25577381999999,-1.7933585399999998,5.001923339999999
1.03,103,0.016,-1.016,0.011,-1.432395,-5.9014674000000005,2.86479,87.24431466,-1.82200644,4.94462754
1.04,104,0.006999999999999999,-1.015,0.021,-0.9167328,-4.8128472,2.5210152000000003,87.2328555,-1.84492476,4.898790900000002
1.05,105,0.0,-1.011,0.027000000000000003,-0.8594370000000001,-3.6669312000000014,2.578311,87.22712592,-1.87357266,4.86441342
1.06,106,0.002,-1.01,0.029,-1.3178034,-2.6356068,2.7501984,87.28442172,-1.84492476,4.85295426
1.07,107,0.008,-1.011,0.028,-2.1772404,-1.6615782,3.151269,87.26723297999996,-1.87930224,4.83576552
1.08,108,0.018000000000000002,-1.016,0.024,-2.9220857999999996,-0.9167328,3.724227,87.23858508000002,-1.91367972,4.83003594
1.09,109,0.024,-1.022,0.022,-3.6096354,-0.572958,4.1825934,87.19847802,-1.9595163600000003,4.82430636
1.1,110,0.026,-1.023,0.016,-4.3544808,-0.1718874,4.583664,87.15264138,-2.005353,4.82430636
1.11,111,0.023,-1.02,0.011,-4.8701430000000006,-0.11459160000000004,4.9274388,87.14118221999998,-1.99962342,4.83576552
1.12,112,0.023,-1.019,0.011,-5.7868758000000025,-0.572958,5.0993262,87.07815683999998,-2.05118964,4.83003594
1.1300000000000001,113,0.023,-1.019,0.006,-6.990087599999999,-1.0886202,5.042030400000002,87.00940188,-2.10275586,4.82430636
1.1400000000000001,114,0.023,-1.015,0.001,-8.651665800000002,-1.3750992,4.9847345999999995,86.92345818,-2.15432208,4.812847199999998
1.1500000000000001,115,0.024,-1.009,-0.009000000000000001,-10.599723,-1.7761698,4.9274388,86.81459616,-2.2058883,4.79565846
1.1600000000000001,116,0.02,-1.003,-0.021,-12.318597,-2.4064236,4.8701430000000006,86.69427498,-2.22880662,4.77846972
1.17,117,0.013,-0.993,-0.037000000000000005,-13.5791046,-3.380452200000001,4.583664,86.55676506,-2.2746432600000004,4.74409224
1.18,118,0.001,-0.976,-0.048,-13.9228794,-5.0993262,3.8961144,86.41925513999998,-2.3204799,4.69252602
1.19,119,-0.016,-0.954,-0.06,-13.750992000000002,-6.875496000000001,2.6929026,86.28174521999998,-2.3491277999999998,4.62377106
1.2,120,-0.032,-0.935,-0.071,-13.521808800000002,-9.6829902,0.6875496,86.14996488,-2.36058696,4.5263682
1.21,121,-0.043,-0.921,-0.07200000000000001,-13.178034,-11.917526400000002,-1.6042823999999998,86.01818454000002,-2.3491277999999998,4.40604702
1.22,122,-0.049,-0.915,-0.064,-13.6364004,-13.9228794,-3.9534102,85.8864042,-2.3204799,4.2685371
1.23,123,-0.042,-0.921,-0.044,-15.6990492,-15.527161800000002,-6.016058999999999,85.73170554,-2.26891368,4.10810886
1.24,124,-0.025,-0.945,-0.029,-18.162768600000003,-16.959556799999998,-7.906820400000001,85.55981814,-2.20015872,3.93049188
1.25,125,-0.018000000000000002,-0.984,-0.023,-19.767051,-19.308684600000007,-9.453807000000001,85.36501242,-2.11421502,3.7299565800000014
1.26,126,-0.031,-1.031,-0.008,-20.7410796,-22.86102420000001,-9.797581800000001,85.17593628,-2.0340008999999997,3.4950437999999995
1.27,127,-0.049,-1.081,0.004,-23.0902074,-26.1268848,-8.4224826,84.95821224,-1.96524594,3.2257535399999995
1.28,128,-0.05,-1.099,0.001,-24.694489800000003,-30.0229992,-6.130650599999999,84.71756988,-1.92513888,2.9220858
1.29,129,-0.042,-1.094,0.0,-24.1215318,-32.486718599999996,-4.583664,84.48838668,-1.90222056,2.59549974
1.3,130,-0.039,-1.078,0.006,-22.6891368,-33.9764094,-3.3231564,84.27639222,-1.89649098,2.25172494
1.31,131,-0.049,-1.054,0.041,-20.340009,-35.2942128,-2.4064236,84.10450482,-1.90222056,1.90222056
1.32,132,-0.073,-1.031,0.076,-17.6471064,-36.4401288,-1.145916,83.94407658,-1.9194093000000003,1.5412570200000002
1.33,133,-0.099,-1.03,0.115,-16.329303,-36.898495200000006,0.286479,83.7951075,-1.95378678,1.1745638999999999
1.34,134,-0.119,-1.039,0.14400000000000002,-16.7303736,-36.669312,1.7188740000000002,83.64040884,-2.005353,0.8136003599999999
1.35,135,-0.124,-1.052,0.154,-17.8189938,-36.2109456,2.6929026,83.4799806,-2.0626488000000003,0.4526368200000001
1.36,136,-0.123,-1.058,0.145,-19.194093,-35.6379876,3.724227,83.33101152,-2.14286292,0.10313244
1.37,137,-0.118,-1.058,0.142,-19.7097552,-34.37748,5.0993262,83.14766496,-2.22307704,-0.22345362
1.3800000000000001,138,-0.103,-1.055,0.149,-20.2254174,-33.231564,6.2452422,82.9643184,-2.3204799,-0.55003968
1.3900000000000001,139,-0.083,-1.047,0.14,-21.3713334,-32.372127,6.8182002000000015,82.76378309999998,-2.41788276,-0.8594370000000001
1.4000000000000001,140,-0.07200000000000001,-1.032,0.1,-22.345362,-31.741873200000004,7.5057497999999985,82.55178864,-2.52674478,-1.16310474
1.4100000000000001,141,-0.071,-1.013,0.06,-22.86102420000001,-31.627281600000003,8.479778399999999,82.3627125,-2.64706596,-1.47250206
1.42,142,-0.073,-0.988,0.03,-22.8037284,-31.8564648,9.797581800000001,82.15071803999999,-2.78457588,-1.77044022
1.43,143,-0.079,-0.938,0.01,-21.3140376,-32.8877892,10.9434978,81.95018274,-2.92781538,-2.08556712
1.44,144,-0.093,-0.899,0.009000000000000001,-19.308684600000007,-33.9764094,11.1153852,81.77829534,-3.07678446,-2.4064236
1.45,145,-0.107,-0.866,0.006999999999999999,-18.9649098,-33.9764094,10.313244,81.60640794,-3.22002396,-2.72728008
1.46,146,-0.111,-0.8490000000000001,0.004,-19.595163600000006,-33.5753388,8.8235532,81.4459797,-3.35753388,-3.04813656
1.47,147,-0.113,-0.841,0.003,-20.454600600000006,-33.5753388,7.1046792000000005,81.26263314,-3.47212548,-3.3689930400000003
1.48,148,-0.116,-0.845,0.001,-21.1421502,-33.8618178,5.3285094000000015,81.07355700000002,-3.56952834,-3.6955791
1.49,149,-0.12,-0.86,-0.002,-21.7151082,-34.2055926,3.4950437999999995,80.87875127999997,-3.64974246,-4.02789474
1.5,150,-0.13,-0.883,-0.01,-22.4026578,-33.6899304,1.8334656000000005,80.67248640000003,-3.71276784,-4.36021038
1.51,151,-0.139,-0.908,-0.002,-23.032911600000002,-32.8877892,0.4010706,80.48913983999998,-3.77579322,-4.68679644
1.52,152,-0.157,-0.936,0.025,-23.4339822,-31.8564648,-1.0886202,80.27714538,-3.810170700000002,-5.00765292
1.53,153,-0.173,-0.976,0.07200000000000001,-25.1528562,-29.67922440000001,-2.0626488000000003,80.04223259999998,-3.83308902,-5.30559108
1.54,154,-0.18600000000000005,-1.014,0.1,-29.793816,-26.069589,-2.0053530000000004,79.76148318,-3.85600734,-5.56342218
1.55,155,-0.196,-1.046,0.076,-35.122325399999994,-23.2620948,-1.7761698,79.42343796,-3.87892566,-5.79833496
1.56,156,-0.214,-1.085,0.053,-39.0757356,-21.027558600000006,-1.6615782,79.07393358,-3.91330314,-6.0160589999999985
1.57,157,-0.231,-1.122,0.093,-39.7059894,-17.6471064,-1.2605076000000002,78.68432214,-3.93622146,-6.19367598
1.58,158,-0.237,-1.152,0.098,-37.5860448,-12.7769634,-0.5156622000000001,78.31762902,-3.9534102,-6.3254563200000025
1.59,159,-0.236,-1.226,0.113,-33.804522,-8.5370742,0.3437748,77.9795838,-3.97632852,-6.411400019999999
1.6,160,-0.231,-1.277,0.139,-32.658606,-4.8701430000000006,3.151269,77.65299774,-4.022165159999999,-6.45723666
1.61,161,-0.235,-1.283,0.136,-31.79916900000001,-2.5210152000000003,5.7868758000000025,77.36078916,-4.0966497,-6.474425399999999
1.62,162,-0.241,-1.273,0.13,-30.366774000000003,-0.4583664000000001,7.6776372,77.05139184,-4.17686382,-6.4686958200000015
1.6300000000000001,163,-0.236,-1.239,0.13699999999999998,-25.7258142,0.7448454000000001,9.1100322,76.78783116,-4.26280752,-6.4400479200000005
1.6400000000000001,164,-0.239,-1.209,0.151,-19.480572,2.0626488000000003,9.6256944,76.58729586000003,-4.3544808,-6.39994086
1.6500000000000001,165,-0.229,-1.167,0.16399999999999998,-13.521808800000002,2.86479,9.1100322,76.44405636,-4.4404245000000016,-6.35410422
1.6600000000000001,166,-0.211,-1.138,0.182,-5.9014674000000005,3.151269,8.021412000000002,76.51281132,-4.549286520000001,-6.31972674
1.6700000000000002,167,-0.184,-1.099,0.199,-0.11459160000000004,3.151269,6.1879464,76.50708174,-4.6008527400000006,-6.2738901
1.68,168,-0.16899999999999998,-1.0759999999999998,0.18600000000000005,4.1252976000000015,3.2658606,3.6096354,76.54718879999999,-4.629500640000002,-6.2337830400000005
1.69,169,-0.16399999999999998,-1.051,0.152,5.3858052,3.6669312000000014,0.8594370000000001,76.59875502,-4.629500640000002,-6.19367598
1.7,170,-0.163,-1.012,0.124,7.6203414,4.0680017999999984,-2.2345362,76.67323956,-4.59512316,-6.1592985
1.71,171,-0.151,-0.99,0.081,8.651665800000002,4.9274388,-5.6722842,76.87377486,-4.56074568,-6.130650600000001
1.72,172,-0.132,-0.975,-0.015,7.7922288,2.7501984,-8.5370742,76.95398897999998,-4.4690724,-6.12492102
1.73,173,-0.121,-0.953,-0.156,6.3025379999999975,-2.7501984,-9.3392154,77.01701435999998,-4.3831287,-6.17075766
1.74,174,-0.078,-0.908,-0.355,4.7555514,-2.1199446,-6.0733548,77.06858058,-4.325832900000001,-6.205135139999999
1.75,175,0.049,-0.777,-0.416,11.6310474,7.5630456000000015,1.6042823999999998,77.18317218,-4.325832900000001,-6.12492102
1.76,176,0.154,-0.589,-0.274,22.7464326,13.0634424,5.3858052,77.38370748,-4.3315624800000005,-5.98168152
1.77,177,0.139,-0.438,-0.223,20.2254174,7.2765666,5.5576926,77.58424278,-4.36593996,-5.895737819999999
1.78,178,0.043,-0.368,-0.226,13.750992000000002,5.042030400000002,6.589017,77.71602312,-4.42323576,-5.83271244
1.79,179,-0.062,-0.402,-0.228,2.578311,8.078707799999998,6.6463128000000005,77.73894143999998,-4.4690724,-5.74103916
1.8,180,-0.079,-0.596,-0.192,-8.9381448,14.2093584,4.7555514,77.63007941999999,-4.49199072,-5.59207008
1.81,181,-0.066,-0.946,-0.222,-23.7204612,16.7303736,2.9220857999999996,77.37224832,-4.49199072,-5.42591226
1.82,182,-0.096,-1.32,-0.28600000000000003,-31.4553942,15.6417534,2.8074942000000003,77.0342031,-4.49199072,-5.2654840200000015
1.83,183,-0.18600000000000005,-1.659,-0.294,-26.5279554,18.5065434,2.6929026,76.7477241,-4.48053156,-5.08213746
1.84,184,-0.242,-1.631,-0.26,-15.756345000000001,22.5172494,-0.4583664000000001,76.57010712,-4.43469492,-4.86441342
1.85,185,-0.253,-1.443,-0.256,-5.5003968,23.8923486,-4.583664,76.49562258,-4.34302164,-4.64668938
1.86,186,-0.252,-1.3330000000000002,-0.263,-0.2291832000000001,26.0122932,-8.307891,76.47270426,-4.21697088,-4.4117766000000005
1.87,187,-0.238,-1.334,-0.24,0.6302538000000001,28.762491600000004,-9.453807000000001,76.45551551999998,-4.0680017999999984,-4.15967508
1.8800000000000001,188,-0.221,-1.38,-0.22,1.7761698,29.67922440000001,-8.3651868,76.44978594,-3.9247623,-3.89038482
1.8900000000000001,189,-0.189,-1.457,-0.16,2.578311,31.054323600000004,-6.4744254,76.45551551999998,-3.79871154,-3.60390582
1.9000000000000001,190,-0.128,-1.521,-0.076,-0.8594370000000001,34.8931422,-6.1879464,76.42113803999997,-3.6669312000000014,-3.27731976
1.9100000000000001,191,-0.106,-1.554,-0.041,-9.5111028,41.252976,-9.2819196,76.30081686,-3.4950437999999995,-2.89916748
1.9200000000000002,192,-0.119,-1.574,-0.075,-17.8189938,51.33703679999999,-13.5791046,76.0888224,-3.25440144,-2.4350715000000003
1.93,193,-0.122,-1.596,-0.113,-19.308684600000007,58.38442020000001,-17.5325148,75.85390962,-2.96219286,-1.9194093000000003
1.94,194,-0.104,-1.587,-0.15,-17.4179232,64.5723666,-21.2567418,75.64191516,-2.62414764,-1.3464512999999998
1.95,195,-0.055,-1.539,-0.18,-14.495837400000001,69.0987348,-23.204799,75.45856859999998,-2.24599536,-0.7391158200000001
1.96,196,0.035,-1.4480000000000002,-0.179,-9.969469199999999,70.1300592,-22.345362,75.32678826,-1.87357266,-0.12032118
1.97,197,0.133,-1.355,-0.165,-4.7555514,68.58307260000001,-19.4232762,75.25230372,-1.52979786,0.4870143000000001
1.98,198,0.191,-1.268,-0.14800000000000002,-0.286479,65.030733,-15.469866,75.2293854,-1.23758928,1.07716104
1.99,199,0.204,-1.179,-0.142,1.3178034,61.6502808,-11.6310474,75.21792624,-0.98548776,1.6386598799999998
2.0,200,0.194,-1.089,-0.104,4.3544808,59.4157446,-10.0840608,75.24657413999998,-0.75630456,2.18869956
2.01,201,0.17,-1.022,-0.075,8.880849000000003,57.811462199999994,-10.7143146,75.34397700000002,-0.4984734599999999,2.7215505
2.02,202,0.121,-0.943,-0.045,17.9335854,56.436363,-10.4851314,75.51586440000001,-0.26929026,3.24294228
2.03,203,0.108,-0.8590000000000001,-0.008,28.7051958,53.9153478,-8.880849000000003,75.79661381999998,-0.06302537999999999,3.74141574
2.04,204,0.081,-0.759,0.023,39.3622146,50.133825,-6.5317212,76.19195484000002,0.10313244,4.21697088
2.05,205,0.056,-0.652,0.059,45.0344988,45.779344200000004,-3.6096354,76.64459166,0.23491278,4.65241896
2.0599999999999996,206,0.045,-0.526,0.069,46.753372799999994,42.28430039999999,0.1718874,77.12587638,0.32658606,5.0706783
2.07,207,0.064,-0.369,0.006999999999999999,46.6387812,38.961144,6.1879464,77.59570194,0.3437748,5.466019319999999
2.0799999999999996,208,0.106,-0.268,-0.049,48.987909,36.7839036,13.9228794,78.09417540000003,0.28074942,5.85563076
2.09,209,0.147,-0.204,-0.07,49.1025006,33.6326346,22.2880662,78.58691927999998,0.12605075999999998,6.2337830400000005
2.0999999999999996,210,0.118,-0.14,-0.123,47.8992888,31.51269000000001,29.793816,79.07393358,-0.10313244,6.60047616
2.11,211,0.03,-0.092,-0.152,43.258329,30.4813656,35.6379876,79.49219292000002,-0.39534102,6.96716928
2.1199999999999997,212,-0.07200000000000001,-0.046,-0.152,37.7006364,27.6738714,38.90384820000001,79.86461562,-0.73338624,7.31094408
2.13,213,-0.129,0.005,-0.159,35.236917,24.1215318,40.04976420000001,80.21412000000002,-1.0886202,7.61461182
2.1399999999999997,214,-0.14800000000000002,0.038,-0.141,36.8411994,22.86102420000001,39.877876799999996,80.58081312,-1.44385416,7.91254998
2.15,215,-0.079,0.06,-0.122,38.1590028,24.0069402,36.7839036,80.95896540000003,-1.77044022,8.204758559999998
2.1599999999999997,216,0.012,0.064,-0.12,37.9871154,23.14750320000001,30.1375908,81.31419936,-2.02827132,8.48550798
2.17,217,0.077,0.043,-0.119,36.955791,19.0795014,22.1161788,81.68089248,-2.21734746,8.7089616
2.1799999999999997,218,0.117,-0.017,-0.119,34.3201842,13.9228794,15.0114996,82.0189377,-2.3491277999999998,8.86938984
2.19,219,0.151,-0.124,-0.17,28.991674800000002,10.7716104,11.0580894,82.3054167,-2.44080108,8.9954406
2.1999999999999997,220,0.153,-0.33,-0.395,9.0527364,-0.1718874,6.0733548,82.39708998,-2.50382646,9.001170179999997
2.21,221,0.145,-0.541,-0.523,-10.7143146,-11.172681,-8.136003599999999,82.22520258,-2.38350528,8.880849000000003
2.2199999999999998,222,-0.081,-1.633,-0.5660000000000001,-36.03905820000001,49.2170922,-48.3576552,81.83559113999998,-1.85638392,9.29910834
2.23,223,-0.6709999999999999,-2.272,-0.999,-68.8122558,109.0339074,-102.9605526,81.10220489999998,-0.72192708,10.21011156
2.2399999999999998,224,-0.07,-1.47,-0.277,16.8449652,43.0864416,-72.25000379999999,81.26263314,0.04010706,10.52523846
2.25,225,0.376,-1.104,-0.315,-3.4950437999999995,9.740286,-26.298772200000002,81.22825566,0.30939732,10.58253426
2.26,226,0.513,-1.048,-0.17,-7.2765666,-16.501190400000002,12.9488508,81.1595007,0.20053530000000008,10.44502434
2.27,227,0.505,-1.42,-0.135,-20.912967,-31.5699858,34.60666320000001,80.94750624,-0.17761697999999998,10.18719324
2.28,228,0.374,-1.844,-0.273,-23.2620948,-28.6479,21.5432208,80.71832304,-0.4297185000000001,9.93509172
2.29,229,0.097,-2.237,-0.121,-2.4637194,-31.5699858,-3.9534102,80.70113429999998,-0.4297185000000001,9.61996482
2.3,230,-0.009000000000000001,-2.273,-0.024,-1.0886202,-37.6433406,-21.1421502,80.69540472,-0.27501984,9.21889422
2.31,231,-0.035,-2.109,-0.062,-10.4278356,-45.3209778,-25.496631,80.59800186,-0.0859437,8.73187992
2.32,232,-0.036000000000000004,-2.093,-0.069,-14.381245800000002,-50.82137460000001,-24.5226024,80.46049194,0.08021412,8.193299399999999
2.3299999999999996,233,-0.02,-2.147,-0.068,-15.3552744,-53.22779820000001,-22.7464326,80.30579328,0.2291832000000001,7.63753014
2.34,234,0.048,-2.095,-0.077,-12.6623718,-54.8320806,-17.9908812,80.18547209999998,0.32658606,7.06457214
2.3499999999999996,235,0.105,-1.973,-0.058,-9.3965112,-57.467687399999996,-10.8289062,80.09379881999998,0.34950438,6.48588456
2.36,236,0.102,-1.805,-0.049,-7.906820400000001,-61.592985,-5.0993262,80.01931427999997,0.30939732,5.872819499999999
2.3699999999999997,237,0.061,-1.633,-0.033,-7.2765666,-65.54639519999999,-2.3491278,79.95055932,0.24064236,5.22537696
2.38,238,-0.002,-1.486,-0.041,-6.6463128000000005,-69.041439,-0.7448454000000001,79.89326352,0.14323950000000002,4.549286520000001
2.3899999999999997,239,-0.092,-1.361,-0.064,-5.2712136,-71.61975,1.6042823999999998,79.84742688,0.02291832,3.85027776
2.4,240,-0.226,-1.223,-0.049,-2.3491278,-72.07811640000001,4.6409598,79.83023813999998,-0.12032118,3.15699858
2.4099999999999997,241,-0.318,-1.074,-0.066,0.9740286,-69.041439,7.6203414,79.85888604,-0.33804522,2.48663772
2.42,242,-0.355,-0.947,-0.094,9.2819196,-62.9107884,11.45916,79.96774806,-0.53858052,1.8907613999999997
2.4299999999999997,243,-0.344,-0.8440000000000001,-0.065,20.6837838,-55.40503860000001,13.980175199999998,80.19120168,-0.75630456,1.3750992
2.44,244,-0.327,-0.723,-0.009000000000000001,34.950438,-48.8160216,13.8082878,80.56362438,-0.95683986,0.92246238
2.4499999999999997,245,-0.285,-0.624,0.083,45.72204840000001,-40.966497,11.688343199999998,81.03917952,-1.1172681,0.5443101
2.46,246,-0.245,-0.521,0.063,50.706783,-33.3461556,8.307891,81.57203046,-1.25477802,0.23491278
2.4699999999999998,247,-0.189,-0.42,0.004,48.70143,-30.7105488,2.3491278,82.0762335,-1.30634424,-0.05156622
2.48,248,-0.121,-0.289,-0.08,38.2162986,-30.5386614,-8.7662574,82.4773041,-1.24904844,-0.36096354
2.4899999999999998,249,-0.092,-0.18,-0.141,31.22621100000001,-26.642547,-19.4232762,82.80389016000002,-1.08289062,-0.64744254
2.5,250,-0.055,-0.094,-0.172,27.7311672,-18.9649098,-31.111619399999995,83.09036916,-0.7906820400000001,-0.86516658
2.51,251,0.022,-0.05,-0.191,24.0069402,-10.8289062,-41.3675676,83.31382278,-0.38388186,-1.01986524
2.52,252,0.109,-0.006999999999999999,-0.227,19.0222056,-3.7815227999999994,-47.0971476,83.5086285,0.07448454,-1.10580894
2.53,253,0.168,0.052000000000000005,-0.201,18.5638392,0.11459160000000004,-46.2377106,83.69197505999998,0.53285094,-1.15164558
2.54,254,0.151,0.105,-0.142,18.7930224,-2.6356068,-39.6486936,83.8810512,0.92246238,-1.21467096
2.55,255,0.099,0.134,-0.116,17.8762896,-8.651665800000002,-29.507337,84.06439776,1.20894138,-1.32926256
2.56,256,0.027000000000000003,0.08199999999999999,-0.052000000000000005,18.7930224,-16.329303,-15.9282324,84.24201474,1.3579104599999998,-1.50687954
2.57,257,-0.016,-0.025,0.004,12.261301199999998,-18.7357266,-5.6149884000000005,84.36233591999998,1.4037471,-1.6959556799999995
2.5799999999999996,258,-0.026,-0.138,-0.048,-1.4896908000000002,-20.340009,4.0680017999999984,84.34514718,1.3464512999999998,-1.8907613999999997
2.59,259,-0.031,-0.369,-0.147,-23.6058696,-22.1161788,15.183387000000002,84.10450482,1.18029348,-2.09702628
2.5999999999999996,260,-0.034,-0.79,-0.39,-82.5632478,-21.9442914,34.3201842,83.26798613999998,0.8136003599999999,-2.28610242
2.61,261,0.14300000000000002,-1.456,-1.073,-149.0836716,-56.2644756,66.4058322,81.75537702,0.09167328,-2.77311672
2.6199999999999997,262,0.627,-1.976,-1.115,-100.840608,-91.8451674,98.9498466,80.75270051999998,-1.0026765,-3.5351508600000003
2.63,263,0.337,-1.457,-0.21600000000000005,48.5868384,-51.9672906,76.03152659999998,81.26263314,-1.81054728,-3.9190327200000006
2.6399999999999997,264,-0.397,-1.154,0.191,41.6540466,-29.220858000000003,27.903054600000004,81.69808122,-2.11421502,-4.16540466
2.65,265,-0.877,-0.99,0.111,-2.0053530000000004,-6.2452422,-9.224623800000002,81.68089248,-2.02827132,-4.2398892
2.6599999999999997,266,-1.0,-1.1740000000000002,-0.004,-9.969469199999999,5.0993262,-39.47680620000001,81.58348962,-1.6558486199999998,-4.24561878
2.67,267,-0.785,-1.717,-0.102,-18.162768600000003,4.2398892,-36.03905820000001,81.39441348,-1.30061466,-4.25707794
2.6799999999999997,268,-0.312,-2.157,-0.071,-11.3445684,5.443101,-10.4278356,81.27982188,-1.19175264,-4.22270046
2.69,269,0.006,-2.319,0.09,10.4278356,15.9282324,10.0840608,81.37722474,-1.27196676,-4.05081306
2.6999999999999997,270,0.097,-2.207,0.102,5.5576926,31.741873200000004,25.4393352,81.42306138000002,-1.4782316400000002,-3.70130868
2.71,271,-0.048,-1.957,0.049,-4.2398892,45.0917946,32.7159018,81.36576558,-1.7475218999999995,-3.2085648000000004
2.7199999999999998,272,-0.225,-1.899,0.047,-7.2765666,57.4103916,27.6738714,81.26263314,-1.95378678,-2.6069589
2.73,273,-0.28600000000000003,-1.891,0.032,-10.0840608,63.88481700000001,17.131444199999994,81.1308528,-2.03973048,-1.95378678
2.7399999999999998,274,-0.28300000000000003,-1.802,0.009000000000000001,-12.5477802,71.79163740000001,5.844171599999999,80.96469498,-2.01108258,-1.24331886
2.75,275,-0.22,-1.6769999999999998,-0.028,-14.266654199999998,79.1254998,-2.3491278,80.78707800000002,-1.88503182,-0.46982556
2.76,276,-0.081,-1.561,-0.071,-19.8816426,82.4486562,-6.990087599999999,80.55216521999998,-1.7074148399999998,0.31512690000000004
2.77,277,0.093,-1.471,-0.11,-29.1062664,80.78707800000002,-8.5370742,80.21984957999999,-1.51260912,1.09434978
2.78,278,0.278,-1.378,-0.12,-29.67922440000001,74.9429064,-8.7089616,79.89326352,-1.32353298,1.8048176999999999
2.79,279,0.457,-1.234,-0.084,-21.9442914,68.46848100000001,-10.4278356,79.64689158,-1.12299768,2.45798982
2.8,280,0.479,-1.108,-0.087,-9.797581800000001,60.733548000000006,-12.7196676,79.5265704,-0.90527364,3.02521824
2.81,281,0.37,-0.981,-0.118,3.6669312000000014,55.6342218,-14.4385416,79.55521829999998,-0.6302538000000001,3.5523396000000003
2.82,282,0.268,-0.884,-0.079,22.459953600000002,50.47759979999999,-13.407217200000002,79.77294234,-0.42398892,4.022165159999999
2.8299999999999996,283,0.175,-0.838,-0.045,40.2789474,46.065823200000004,-8.5370742,80.17401294,-0.26929026,4.46334282
2.84,284,0.076,-0.763,-0.03,55.576926,39.591397799999996,-2.4637194,80.7297822,-0.18334656,4.85295426
2.8499999999999996,285,-0.008,-0.645,-0.014,60.8481396,30.93973200000001,2.578311,81.34284726,-0.16615782,5.16808116
2.86,286,-0.051,-0.488,-0.013,52.9413192,27.444688199999998,7.448453999999999,81.8756982,-0.20626488,5.44883058
2.8699999999999997,287,-0.045,-0.302,-0.065,43.3729206,31.111619399999995,14.610429000000002,82.31114628,-0.30939732,5.781146219999999
2.88,288,0.027000000000000003,-0.132,-0.16899999999999998,44.8053156,32.945085,21.027558600000006,82.75805352,-0.48128472,6.13638018
2.8899999999999997,289,0.098,-0.02,-0.28800000000000003,51.9099948,25.55392680000001,24.2361234,83.27944529999998,-0.69327918,6.4228591800000014
2.9,290,0.092,0.064,-0.3,50.3057124,12.605076,25.55392680000001,83.78937792,-0.92819196,6.57755784
2.9099999999999997,291,0.015,0.145,-0.225,45.779344200000004,5.443101,26.7571386,84.22482600000002,-1.18602306,6.66350154
2.92,292,-0.069,0.192,-0.172,42.7426668,4.7555514,28.4187168,84.66027408,-1.4610428999999998,6.743715660000001
2.9299999999999997,293,-0.118,0.207,-0.138,39.6486936,8.9381448,30.080295,85.0556151,-1.7475218999999995,6.858307260000001
2.94,294,-0.115,0.204,-0.117,39.3049188,12.032117999999999,30.5386614,85.45095612,-2.03973048,7.00727634
2.9499999999999997,295,-0.08199999999999999,0.16399999999999998,-0.047,42.112413,13.9228794,27.6165756,85.86921545999998,-2.30329116,7.1734341599999984
2.96,296,-0.031,0.08199999999999999,0.003,41.3102718,16.386598799999998,22.4026578,86.27601564,-2.5210152000000003,7.35105114
2.9699999999999998,297,0.013,0.004,-0.018000000000000002,35.6379876,14.266654199999998,17.475219,86.63124959999998,-2.68717302,7.505749800000001
2.98,298,0.024,-0.139,-0.058,26.8717302,7.0473834,13.464512999999998,86.90053986000002,-2.81322378,7.58596392
2.9899999999999998,299,0.099,-0.398,-0.211,7.333862400000001,1.432395,2.4637194,86.97502440000002,-2.84187168,7.603152659999999
3.0,300,0.318,-1.329,-0.098,-40.5654264,41.6540466,-22.7464326,86.53384674,-2.6069589,7.99849368
3.01,301,-0.496,-2.923,-1.535,-144.32812019999997,128.22800039999998,-95.85587340000001,85.00977845999998,-1.61001198,9.18451674
3.02,302,-0.457,-2.217,-0.359,-24.9809688,85.5999252,-107.9452872,84.72329946,-0.49274388,9.92936214
3.03,303,0.397,-1.518,-0.215,11.3445684,21.199446,-47.841993,84.83789106,-0.00572958,10.09551996
3.04,304,0.8640000000000001,-1.123,-0.29,-5.3285094000000015,-14.7250206,-2.6929026,84.78632483999998,0.00572958,9.95228046
3.05,305,0.883,-1.3119999999999998,-0.096,-2.9793816000000004,-42.05511720000001,31.1689152,84.76340652,-0.32085648,9.56266902
3.06,306,0.52,-1.742,-0.183,-14.381245800000002,-46.5241896,29.67922440000001,84.62589659999998,-0.64171296,9.12722094
3.07,307,0.116,-2.031,-0.073,1.145916,-48.3576552,10.1413566,84.64881491999998,-0.7734933,8.65739538
3.08,308,-0.042,-2.071,0.07400000000000001,5.958763200000001,-54.08723520000001,-2.86479,84.72329946,-0.7792228800000001,8.12454444
3.09,309,-0.126,-1.921,0.098,-4.6982556,-52.6548402,-8.880849000000003,84.68892198,-0.72765666,7.59742308
3.0999999999999996,310,-0.142,-1.849,0.038,-9.6256944,-48.5868384,-8.59437,84.60297828,-0.6703608600000001,7.1046792000000005
3.11,311,-0.084,-1.846,0.032,-8.7662574,-47.6128098,-1.8334656000000005,84.52849374,-0.6875496,6.63485364
3.1199999999999997,312,-0.081,-1.836,0.025,-9.1100322,-46.696077,5.844171599999999,84.44827962000002,-0.7792228800000001,6.17648724
3.13,313,-0.127,-1.779,0.047,-7.5630456000000015,-46.409598,13.6936962,84.38525424,-0.9453806999999999,5.735309579999999
3.1399999999999997,314,-0.17600000000000002,-1.6980000000000002,0.048,-6.5317212,-47.555514,21.0848544,84.33368802,-1.18602306,5.2826727600000005
3.15,315,-0.211,-1.5730000000000002,0.012,-5.3858052,-48.8733174,27.6165756,84.29931054,-1.49542038,4.82430636
3.1599999999999997,316,-0.223,-1.452,-0.003,-1.5469866,-49.4462754,32.486718599999996,84.30504012,-1.8621135,4.36593996
3.17,317,-0.226,-1.35,0.025,4.1825934,-49.7327544,36.669312,84.37379508000002,-2.25745452,3.91330314
3.1799999999999997,318,-0.235,-1.212,0.041,9.6256944,-49.1597964,39.7059894,84.49984584,-2.68144344,3.4663959
3.19,319,-0.239,-1.021,0.036000000000000004,19.0222056,-48.8160216,40.966497,84.71756988,-3.11689152,3.02521824
3.1999999999999997,320,-0.223,-0.858,0.032,27.903054600000004,-46.409598,39.0184398,85.03269678,-3.52942128,2.6012293200000003
3.21,321,-0.209,-0.7190000000000001,0.08900000000000001,36.5547204,-41.76863820000001,34.262888399999994,85.45095612,-3.90757356,2.21734746
3.2199999999999998,322,-0.18600000000000005,-0.643,0.165,41.252976,-36.4401288,27.9603504,85.90359294,-4.19405256,1.87930224
3.23,323,-0.142,-0.545,0.083,38.5027776,-31.79916900000001,20.05353,86.32185228,-4.40604702,1.5813640800000002
3.2399999999999998,324,-0.1,-0.422,-0.099,36.669312,-28.304125199999998,11.172681,86.71719329999998,-4.5206386200000015,1.31207382
3.25,325,-0.097,-0.301,-0.252,39.9351726,-27.501984000000004,3.0366774,87.14691180000001,-4.5550161000000005,1.04278356
3.26,326,-0.077,-0.179,-0.3,44.977203,-25.0955604,-3.2085648,87.59381904,-4.5263682,0.8021412000000001
3.27,327,0.002,-0.057,-0.266,53.456981400000004,-15.6417534,-8.7089616,88.14958829999998,-4.43469492,0.64744254
3.28,328,0.108,0.047,-0.14800000000000002,53.9153478,-7.9641161999999985,-13.0061466,88.70535756,-4.30291458,0.5729580000000001
3.29,329,0.157,0.152,-0.11,45.550161,-3.7815227999999994,-16.272007199999994,89.16945354,-4.13675676,0.53858052
3.3,330,0.113,0.248,-0.138,39.3049188,-1.0313244,-17.131444199999994,89.57052414,-3.9648693599999993,0.52712136
3.31,331,0.0,0.251,-0.134,38.10170700000001,-4.6982556,-13.178034,89.94867642,-3.8388186000000006,0.4870143000000001
3.32,332,-0.127,0.179,-0.063,32.486718599999996,-10.6570188,-5.5576926,90.28672164,-3.77579322,0.38388186
3.33,333,-0.159,0.073,0.002,27.5592798,-11.1153852,2.4637194,90.57320064,-3.79298196,0.27501984
3.34,334,-0.076,-0.102,0.026,9.568398599999998,-2.4637194,7.5057497999999985,90.6706035,-3.8674665,0.25210152
3.3499999999999996,335,-0.024,-0.333,-0.07400000000000001,-20.511896399999998,9.568398599999998,15.6417534,90.45860904,-4.02789474,0.3437748
3.36,336,-0.047,-0.89,-0.509,-69.0987348,12.261301199999998,35.52339600000001,89.71949322,-4.38885828,0.4583664000000001
3.3699999999999997,337,0.343,-2.186,-1.392,-133.90028460000002,-27.501984000000004,80.21412,88.39023066,-5.19099948,0.17761697999999998
3.38,338,0.767,-2.974,-1.218,-100.554129,-38.0444112,126.1080558,87.41047248,-6.45723666,-0.16042824
3.3899999999999997,339,0.061,-1.68,-0.399,58.8427866,-23.491278,98.7206634,88.03499670000002,-7.43699484,-0.34950438
3.4,340,-0.716,-0.912,0.128,97.1736768,-8.4224826,41.6540466,89.03194361999998,-7.838065440000001,-0.41252976
3.4099999999999997,341,-1.419,-0.615,0.211,61.8221682,18.2200644,-8.4224826,89.63354952,-7.780769640000001,-0.2291832000000001
3.42,342,-1.416,-0.893,0.091,22.459953600000002,38.5600734,-51.10785360000001,89.80543692,-7.282296179999999,0.15469866
3.4299999999999997,343,-0.872,-1.6969999999999998,0.017,1.7761698,44.6334282,-52.998615,89.76532986,-6.76663398,0.59587632
3.44,344,-0.047,-2.545,0.085,4.5263682,55.5196302,-16.501190400000002,89.73668196000001,-6.611935319999999,1.15164558
3.4499999999999997,345,0.3,-2.525,0.249,19.4232762,79.0109082,12.891555,89.83408482,-6.760904399999999,1.94232762
3.46,346,0.193,-2.07,0.105,-0.9740286,97.9185222,27.9603504,89.6965749,-7.05884256,2.91635622
3.4699999999999998,347,-0.091,-1.731,0.013,-1.8334656000000005,114.2478252,27.9603504,89.51895792,-7.3567807200000015,4.05654264
3.48,348,-0.312,-1.703,0.057,8.651665800000002,123.4151532,20.6837838,89.42728464000002,-7.58596392,5.28840234
3.4899999999999998,349,-0.353,-1.706,0.111,15.9282324,127.9415214,11.45916,89.40436632,-7.717744259999999,6.566098679999999
3.5,350,-0.272,-1.648,0.177,17.9335854,130.5198324,5.0993262,89.39290716000002,-7.792228800000001,7.87244292
3.51,351,-0.177,-1.53,0.17800000000000002,14.8396122,131.5511568,4.7555514,89.3528001,-7.85525418,9.18451674
3.52,352,-0.057,-1.399,0.14400000000000002,13.407217200000002,129.7176912,8.479778399999999,89.28977472,-7.9583866200000015,10.4851314
3.53,353,0.037000000000000005,-1.336,0.138,13.2353298,126.3945348,11.9748222,89.23247891999998,-8.09589654,11.745639
3.54,354,0.119,-1.297,0.141,8.9954406,122.899491,13.0061466,89.13507606,-8.24486562,12.977498700000002
3.55,355,0.199,-1.26,0.134,0.3437748,119.17526399999998,11.8602306,88.9517295,-8.376645960000001,14.16925134
3.56,356,0.308,-1.198,0.103,-7.6776372,116.1385866,9.6256944,88.68816882,-8.44540092,15.33235608
3.57,357,0.399,-1.083,0.038,-7.2192707999999985,114.9926706,6.417129599999999,88.43033772,-8.51415588,16.484001659999997
3.58,358,0.45,-0.949,-0.017,4.6409598,113.61757140000002,4.3544808,88.2928278,-8.55999252,17.62418808
3.59,359,0.438,-0.812,-0.055,30.4240698,106.45559640000002,3.4950437999999995,88.43033772,-8.58864042,18.68988996
3.5999999999999996,360,0.35200000000000004,-0.675,-0.019,70.87490460000002,90.8711388,2.3491278,89.00329572000004,-8.61155874,19.60662276
3.61,361,0.246,-0.609,0.096,91.6159842,79.29738719999997,2.6929026,89.8111665,-8.623017899999999,20.41449354
3.6199999999999997,362,0.134,-0.5329999999999999,0.177,88.63660259999996,74.9429064,4.6982556,90.5846598,-8.68604328,21.170798100000006
3.63,363,0.048,-0.43,0.153,79.4119788,75.63045600000002,8.136003599999999,91.26647982,-8.794905300000002,21.93856182
3.6399999999999997,364,0.017,-0.343,0.121,76.20341400000002,77.635809,12.318597,91.90819278,-8.949603960000003,22.7177847
3.65,365,0.013,-0.314,0.063,73.6823988,77.2920342,16.157415599999997,92.52125784,-9.15586884,23.491278
3.6599999999999997,366,0.035,-0.277,-0.076,61.9367598,74.82831479999999,19.308684600000007,93.00827214,-9.39078162,24.236123400000004
3.67,367,0.061,-0.238,-0.151,48.0711762,75.916935,20.6837838,93.3635061,-9.66007188,24.99242796
3.6799999999999997,368,0.09,-0.188,-0.213,34.8358464,76.37530140000001,20.1108258,93.58123014,-9.92363256,25.743002940000004
3.69,369,0.1,-0.105,-0.298,33.231564,69.900876,19.938938399999998,93.78749502,-10.18146366,26.43628212
3.6999999999999997,370,0.103,0.028,-0.299,40.680018,64.28588760000001,21.485925,94.0797036,-10.45075392,27.06653592
3.71,371,0.102,0.115,-0.211,47.1544434,61.7648724,25.3247436,94.41774882,-10.75442166,27.673871400000003
3.7199999999999998,372,0.079,0.145,-0.14400000000000002,41.4821592,57.2385042,28.81978740000001,94.72714614,-11.09819646,28.229640659999994
3.73,373,0.063,0.045,-0.08199999999999999,29.0489706,60.5616606,28.7051958,94.89903354,-11.44770084,28.81405782
3.7399999999999998,374,0.157,-0.189,-0.198,6.0733548,77.5785132,20.6837838,94.80163068,-11.73990942,29.57609196000001
3.75,375,0.26,-0.442,-0.34,-11.745639,96.0850566,5.0993262,94.46931504,-11.89460808,30.53293182
3.76,376,0.136,-0.787,-0.324,-16.558486199999994,90.4700682,-9.3965112,94.06251486,-11.87168976,31.4553942
3.77,377,-0.112,-1.386,-0.34700000000000003,-28.6479,69.55710119999999,-18.621135,93.61560762,-11.75136858,32.16586212
3.78,378,-0.219,-2.093,-0.4920000000000001,-73.6823988,66.3485364,-24.350715,92.72179314,-11.56802202,32.836222979999995
3.79,379,-0.465,-2.99,-0.6940000000000001,-123.8162238,96.3142398,-53.858052,91.26075024,-11.10392604,33.81025158
3.8,380,-1.016,-2.4,-0.89,-51.3943326,118.60230599999998,-82.9643184,90.4987161,-10.33043274,35.01346338
3.81,381,-1.0659999999999998,-1.726,-0.454,36.898495200000006,117.05531940000002,-73.73969459999998,90.64768518,-9.64861272,36.19948644
3.82,382,-0.1,-1.648,-0.134,42.398892,121.4098002,-46.696077,90.85967964,-9.23035338,37.42561656
3.83,383,0.6890000000000001,-1.607,0.013,27.215505,120.2638842,-8.9381448,90.92843459999999,-9.19024632,38.63455794
3.84,384,0.8079999999999999,-1.62,0.044,13.521808800000002,109.2630906,12.4331886,90.8711388,-9.35640414,39.72890772
3.8499999999999996,385,0.464,-1.813,0.104,4.5263682,101.5854534,10.6570188,90.73935846,-9.50537322,40.74304338
3.86,386,0.136,-1.919,0.152,-2.0053530000000004,98.1477054,2.6929026,90.54455274,-9.568398599999998,41.72853114
3.8699999999999997,387,-0.046,-1.882,0.114,-8.7089616,99.5801004,-2.1199446,90.27526248,-9.57985776,42.72547806
3.88,388,-0.192,-1.831,0.07400000000000001,-10.1986524,109.0339074,-5.443101,89.97732432000002,-9.56266902,43.81409826
3.8899999999999997,389,-0.304,-1.788,0.062,-6.0733548,120.3784758,-8.307891,89.6965749,-9.50537322,45.02303963999999
3.9,390,-0.339,-1.696,0.069,-1.8334656000000005,131.5511568,-5.6149884000000005,89.44447338,-9.47672532,46.34084304
3.9099999999999997,391,-0.318,-1.569,0.069,1.432395,140.4320058,4.1252976000000015,89.20956059999996,-9.5397507,47.74459014
3.92,392,-0.243,-1.464,0.061,3.5523396000000003,144.2135286,15.126091199999998,88.98610698,-9.7116381,49.19417388
3.9299999999999997,393,-0.126,-1.366,0.057,7.0473834,145.1875572,23.5485738,88.79130126,-9.95228046,50.65521678
3.94,394,-0.008,-1.254,0.031,12.3758928,146.3334732,29.335449600000004,88.63660259999996,-10.25021862,52.13344842
3.9499999999999997,395,0.052000000000000005,-1.113,0.003,19.767051,146.3334732,31.111619399999995,88.5506589,-10.56534552,53.61168005999999
3.96,396,0.045,-0.968,-0.03,26.69984280000001,144.6145992,30.3094782,88.52774058,-10.85182452,55.07845254
3.9699999999999998,397,-0.008,-0.8320000000000001,-0.019,36.4401288,143.29679579999996,27.215505,88.60222512,-11.12684436,56.53376586
3.98,398,-0.058,-0.718,-0.041,44.34694920000001,142.2081756,22.2880662,88.7511942,-11.35029798,57.97762002
3.9899999999999998,399,-0.085,-0.597,-0.053,46.352302200000004,142.0362882,15.469866,88.91735202,-11.51072622,59.4157446
4.0,400,-0.11,-0.485,-0.065,46.409598,140.54659740000002,7.6776372,89.08350984,-11.59666992,60.84241002
4.01,401,-0.121,-0.39,-0.08800000000000001,44.4615408,139.85904779999998,-0.4010706,89.22674934,-11.60812908,62.25761628
4.02,402,-0.112,-0.267,-0.16,45.4355694,141.74980920000004,-7.448453999999999,89.37571842,-11.55656286,63.69574086
4.03,403,-0.091,-0.16699999999999998,-0.07400000000000001,51.7381074,143.4113874,-12.834259199999998,89.59344246,-11.44770084,65.14532460000001
4.04,404,-0.03,-0.122,-0.003,52.712136,149.0836716,-14.667724800000002,89.8111665,-11.33310924,66.65220414
4.05,405,0.035,-0.104,-0.014,46.123119,154.7559558,-12.6623718,89.95440599999998,-11.24143596,68.21637948
4.06,406,0.062,-0.109,-0.064,39.9924684,156.58942140000005,-6.0733548,90.01743138,-11.21278806,69.80347314
4.07,407,0.042,-0.139,-0.062,35.46610020000001,156.18835080000005,3.8961144,90.05180886000002,-11.29300218,71.37910764
4.08,408,0.015,-0.161,-0.055,28.5906042,154.7559558,14.4385416,90.0117018,-11.47634874,72.94328298
4.09,409,-0.046,-0.182,-0.101,19.595163600000006,148.3388262,24.5798982,89.89138061999998,-11.75709816,74.43870336
4.1,410,-0.055,-0.198,-0.063,10.599723,144.44271179999996,32.6013102,89.67365658,-12.118061700000002,75.89974626
4.109999999999999,411,-0.028,-0.21600000000000005,-0.087,3.2658606,137.8536948,36.6120162,89.38144799999998,-12.507673139999998,77.29776378
4.12,412,-0.058,-0.25,-0.09,5.958763200000001,129.94687439999998,34.8931422,89.13507606,-12.86863668,78.62129675999998
4.13,413,0.055,-0.385,0.04,-9.969469199999999,143.4113874,30.4240698,88.68243924,-13.18949316,80.08233966
4.14,414,0.28800000000000003,-0.62,0.023,-36.38283300000001,157.3342668,26.4706596,87.92613467999998,-13.45305384,81.68089248
4.1499999999999995,415,0.34600000000000003,-1.17,-0.31,-54.14453099999999,141.4060344,23.835052800000003,87.02086104,-13.67077788,83.12474663999998
4.16,416,0.36,-2.0580000000000003,-0.444,-60.6189564,118.37312279999999,28.6479,86.09839866,-13.91714982,84.3394176
4.17,417,0.328,-2.535,-0.205,-33.6899304,114.4770084,35.0650296,85.45095612,-14.215087979999998,85.52544065999999
4.18,418,0.32,-2.346,-0.17800000000000002,-17.761698000000006,108.69013259999998,36.1536498,84.97540097999997,-14.51302614,86.6598975
4.1899999999999995,419,0.349,-1.926,-0.214,4.8701430000000006,108.9766116,29.0489706,84.72329946,-14.73647976,87.80008391999998
4.2,420,0.068,-1.495,-0.108,38.0444112,117.5136858,12.605076,84.78632483999998,-14.7823164,89.01475488
4.21,421,-0.281,-1.64,0.079,52.19647379999999,127.769634,4.010706000000001,84.96394182,-14.73647976,90.3268287
4.22,422,-0.35600000000000004,-1.883,0.293,46.409598,139.801752,2.1772404,85.0556151,-14.67345438,91.7592237
4.2299999999999995,423,-0.281,-1.973,0.327,26.298772200000002,154.6413642,3.7815227999999994,84.90091644,-14.62188816,93.34631736
4.24,424,-0.188,-1.973,0.252,11.9748222,167.53291919999995,9.568398599999998,84.56860079999998,-14.60469942,95.05946178
4.25,425,-0.094,-1.925,0.222,12.261301199999998,173.4916824,15.756345000000001,84.21909642,-14.6390769,96.84709073999998
4.26,426,-0.032,-1.854,0.243,16.8449652,177.330501,20.1108258,83.9096991,-14.70210228,98.67482676
4.27,427,0.026,-1.7719999999999998,0.276,17.18874,182.8308978,23.032911600000002,83.57738346,-14.7823164,100.56558816
4.28,428,0.096,-1.6780000000000002,0.281,13.464512999999998,189.41991480000002,25.0382646,83.18777202,-14.862530519999998,102.52510452
4.29,429,0.163,-1.556,0.236,8.8235532,194.6911284,26.5852512,82.7351352,-14.94274464,104.54191668
4.3,430,0.234,-1.4,0.187,7.9641161999999985,196.238115,27.5592798,82.26530964,-15.011499600000002,106.57591757999998
4.31,431,0.29,-1.268,0.156,11.229976800000001,193.5452124,27.1009134,81.84132072,-15.04587708,108.58127058
4.32,432,0.326,-1.14,0.119,15.870936600000002,188.9042526,25.3247436,81.46889802,-15.068795399999999,110.54078694
4.33,433,0.32299999999999995,-1.036,0.108,23.3193906,183.34656,23.032911600000002,81.18814859999998,-15.068795399999999,112.43727792
4.34,434,0.287,-0.953,0.118,31.340802600000004,176.12728919999995,20.168121600000006,81.01053162,-15.04587708,114.26501394000002
4.35,435,0.225,-0.889,0.138,37.9871154,168.79342680000005,17.4179232,80.91885834,-14.99431086,116.00680626
4.36,436,0.16699999999999998,-0.83,0.152,42.5707794,162.8346636,16.272007199999994,80.91312875999998,-14.919826320000002,117.6855732
4.37,437,0.146,-0.765,0.128,48.1857678,161.287677,17.8189938,80.95323582,-14.879719259999998,119.35288097999998
4.38,438,0.14300000000000002,-0.7020000000000001,0.126,55.11855960000001,161.80333919999995,21.4286292,81.05636826,-14.879719259999998,121.0373775
4.39,439,0.141,-0.618,0.109,59.7595194,160.7720148,27.5592798,81.21106692,-14.94274464,122.71614444
4.3999999999999995,440,0.12,-0.53,0.112,63.25456320000001,158.59477439999995,29.8511118,81.40014306,-15.03441792,124.37772264
4.41,441,0.1,-0.475,0.123,61.1919144,158.36559119999995,31.971056400000002,81.58348962,-15.14327994,126.03930084
4.42,442,0.086,-0.403,0.083,49.274388,159.282324,31.3980984,81.62359668,-15.26360112,127.7123382
4.43,443,0.062,-0.345,0.016,36.2682414,159.51150719999995,29.1635622,81.52619381999997,-15.355274400000004,129.38537556
4.4399999999999995,444,0.041,-0.301,-0.059,25.3247436,157.6780416,27.043617600000005,81.32565852,-15.42975894,131.02976502
4.45,445,0.05,-0.228,-0.128,19.7097552,154.0111104,24.2934192,81.07928658,-15.47559558,132.63977699999998
4.46,446,0.091,-0.156,-0.192,17.0741484,149.37015060000004,22.058883,80.79853716,-15.48705474,134.19822276
4.47,447,0.14,-0.087,-0.208,16.329303,147.76586819999997,21.6578124,80.53497648,-15.4985139,135.73375019999997
4.4799999999999995,448,0.16699999999999998,-0.043,-0.213,13.0061466,151.3182078,21.829699800000004,80.22557916000002,-15.50424348,137.30938469999998
4.49,449,0.11,-0.03,-0.223,11.45916,151.49009519999996,21.6005166,79.89899310000001,-15.4985139,138.89074878
4.5,450,0.029,-0.042,-0.202,15.0114996,149.37015060000004,21.3140376,79.61824368,-15.48132516,140.44346496
4.51,451,-0.005,-0.095,-0.161,19.0795014,145.817811,20.5691922,79.37187173999997,-15.45840684,141.96180366000004
4.52,452,-0.009000000000000001,-0.134,-0.11,19.0222056,139.9736394,20.454600600000006,79.15987728,-15.435488519999998,143.42284655999995
4.53,453,-0.026,-0.184,-0.015,17.8189938,131.60845260000002,21.0848544,78.95361240000003,-15.42402936,144.79794576
4.54,454,-0.058,-0.341,0.0,10.4278356,125.4205062,21.7151082,78.6957813,-15.42975894,146.11001958000003
4.55,455,-0.119,-0.644,-0.052000000000000005,-24.923673,115.68022020000001,17.0168526,78.10563456,-15.40111104,147.3075018
4.56,456,-0.257,-1.526,-0.157,-74.31265259999998,147.250206,-4.010706000000001,76.9482594,-15.091713719999998,148.77427428
4.57,457,-0.632,-2.638,-0.8420000000000001,-124.2745902,206.6659506,-52.48295279999999,75.17208959999998,-14.16352176,150.69368358
4.58,458,-0.8759999999999999,-2.155,-0.4920000000000001,-43.4302164,189.4772106,-65.030733,74.30692302,-13.09781988,152.38963926000002
4.59,459,-0.306,-1.496,0.114,3.4950437999999995,174.63759840000003,-33.231564,73.95741863999999,-12.35870406,154.01111039999995
4.6,460,0.182,-1.081,0.241,-1.2032118,157.3915626,3.5523396000000003,73.60218468000002,-11.99774052,155.56382658
4.61,461,0.445,-1.181,0.308,-5.3858052,138.94231499999998,31.971056400000002,73.24695072,-11.92325598,157.00195116
4.62,462,0.514,-1.636,0.226,-25.210152,144.44271179999996,42.34159620000001,72.65680397999998,-11.95190388,158.53174902
4.63,463,0.35100000000000003,-2.132,0.063,-3.724227,153.78192719999996,31.971056400000002,72.26719254,-11.83731228,160.12457225999995
4.64,464,0.166,-2.299,0.192,15.756345000000001,146.3334732,22.9756158,72.10676430000002,-11.64823614,161.61426306
4.6499999999999995,465,0.076,-2.134,0.21600000000000005,4.583664,136.70777880000003,21.0848544,71.86039236,-11.46488958,163.006551
4.66,466,0.012,-2.074,0.129,-3.0939732,125.9934642,17.8762896,71.5624542,-11.27581344,164.27851776
4.67,467,0.014,-2.13,0.115,-4.583664,115.5083328,14.381245800000002,71.27597519999998,-11.07527814,165.43589292
4.68,468,0.086,-2.133,0.124,-3.9534102,107.37232920000001,15.3552744,71.0181441,-10.90339074,166.51878354000004
4.6899999999999995,469,0.233,-2.09,0.119,-0.286479,98.7779592,21.1421502,70.81187922000002,-10.81171746,167.53291919999995
4.7,470,0.368,-1.983,0.15,4.583664,88.9230816,27.7311672,70.66863972,-10.80598788,168.4782999
4.71,471,0.439,-1.846,0.163,5.7868758000000025,74.5418358,31.971056400000002,70.57123686,-10.86901326,169.29762983999996
4.72,472,0.464,-1.6909999999999998,0.133,4.010706000000001,63.7129296,33.3461556,70.46810442,-10.98360486,170.01955692
4.7299999999999995,473,0.409,-1.54,0.061,3.6669312000000014,53.39968560000001,34.091001,70.38216072,-11.1440331,170.64981071999995
4.74,474,0.31,-1.409,0.004,4.8701430000000006,44.7480198,34.4347758,70.31913534,-11.327379660000002,171.19412082000005
4.75,475,0.2,-1.258,-0.06,5.9014674000000005,36.7266078,35.3515086,70.27902828,-11.545103700000002,171.66394638
4.76,476,0.066,-1.101,-0.139,9.0527364,28.5333084,36.6120162,70.31340576,-11.75709816,172.05355781999995
4.77,477,-0.07400000000000001,-0.972,-0.205,13.120738199999998,21.772404,37.7006364,70.37643114,-12.04357716,172.39160304
4.78,478,-0.21600000000000005,-0.848,-0.322,12.2040054,19.0795014,38.10170700000001,70.43372694,-12.34151532,172.70672994
4.79,479,-0.379,-0.7390000000000001,-0.375,7.1046792000000005,20.3973048,37.1849742,70.43372694,-12.62799432,173.02758642
4.8,480,-0.504,-0.679,-0.392,3.3231564,26.41336380000001,34.7212548,70.38216072,-12.86863668,173.40000912
4.81,481,-0.53,-0.647,-0.406,1.0886202,34.2055926,30.8251404,70.25610996,-13.120738199999998,173.85264594
4.82,482,-0.413,-0.613,-0.412,3.8388186,38.7892566,25.0955604,70.18162542,-13.2353298,174.31674192
4.83,483,-0.243,-0.583,-0.344,13.980175199999998,38.90384820000001,15.9282324,70.22173248,-13.263977700000002,174.74646042
4.84,484,-0.069,-0.613,-0.171,27.215505,37.6433406,4.3544808,70.40507904,-13.18376358,175.13034227999995
4.85,485,0.119,-0.632,0.015,32.7731976,38.2162986,-4.583664,70.65145097999998,-13.01760576,175.48557624
4.86,486,0.26,-0.601,0.122,28.0176462,35.122325399999994,-12.9488508,70.90928208,-12.73685634,175.76632566
4.87,487,0.259,-0.515,0.07200000000000001,9.9121734,25.496631,-21.3140376,70.96657788,-12.4618365,175.94394264
4.88,488,0.196,-0.461,-0.055,-0.9740286,18.3919518,-27.7311672,70.93220040000001,-12.14098002,176.02988634
4.89,489,0.14,-0.49,-0.174,-2.9220857999999996,10.886202,-35.17962120000001,70.9035525,-11.78001648,176.01842718
4.8999999999999995,490,0.095,-0.481,-0.223,1.9480572,6.4744254,-41.19568020000001,70.93792998,-11.3732163,175.94394264
4.91,491,0.026,-0.431,-0.233,10.255948199999999,5.6722842,-44.117766,71.04679200000002,-10.932038639999998,175.85799894000004
4.92,492,-0.067,-0.353,-0.18,19.5378678,8.307891,-43.3729206,71.25305688,-10.49659056,175.80070314
4.93,493,-0.133,-0.276,-0.08900000000000001,24.350715,14.667724800000002,-39.19032720000001,71.49369924,-10.0840608,175.81789188
4.9399999999999995,494,-0.118,-0.205,-0.012,25.496631,24.4080108,-32.6013102,71.72861202,-9.70017894,175.94967222
4.95,495,-0.081,-0.147,-0.018000000000000002,26.2414764,37.41415739999999,-24.5798982,71.94060648,-9.36213372,176.23615122
4.96,496,-0.096,-0.11,0.001,27.444688199999998,47.1544434,-17.9335854,72.15833051999998,-9.07565472,176.63722182
4.97,497,-0.162,-0.131,0.054000000000000006,23.0902074,57.86875799999999,-12.4904844,72.30157002,-8.794905300000002,177.15861360000005
4.9799999999999995,498,-0.227,-0.207,0.012,16.673077799999998,65.4890994,-5.9014674000000005,72.37032497999998,-8.554262940000001,177.77167866
4.99,499,-0.299,-0.477,-0.165,2.5210152000000003,68.6976642,2.4064236,72.29011086,-8.393834700000001,178.44203951999995
5.0,500,-0.234,-0.8809999999999999,-0.412,-28.762491600000004,66.463128,14.610429000000002,71.88904026,-8.34799806,179.11812996
5.01,501,0.025,-1.52,-0.581,-51.56622,51.9672906,31.6845774,71.27024562,-8.49696714,179.71400627999995
5.02,502,0.3720000000000001,-2.037,-0.33,-29.0489706,51.7954032,41.9978214,70.8749046,-8.74333908,-179.65671048000004
5.03,503,0.251,-1.843,-0.277,-1.0313244,54.8320806,31.627281600000003,70.760313,-8.880849000000003,-179.02645668
5.04,504,0.012,-1.517,-0.259,3.6669312000000014,57.7541664,22.2307704,70.69728762,-8.91522648,-178.40193246
5.05,505,-0.271,-1.493,-0.231,13.464512999999998,59.186561399999995,10.026765,70.7316651,-8.82928278,-177.80605614
5.06,506,-0.481,-1.634,-0.215,21.0848544,59.014674,-3.0939732,70.85771586000001,-8.623017899999999,-177.25028688
5.07,507,-0.55,-1.869,-0.18,27.6738714,58.49901179999999,-7.7349330000000025,71.05252157999998,-8.376645960000001,-176.71743594
5.08,508,-0.48,-2.042,-0.079,29.507337,60.10329419999999,-4.6409598,71.26451604,-8.15319234,-176.15593710000005
5.09,509,-0.3670000000000001,-2.05,-0.008,21.9442914,66.00476160000001,-1.7761698,71.39056679999999,-7.94119788,-175.53141288
5.1,510,-0.237,-1.986,0.01,8.59437,73.6823988,-1.5469866,71.37337806000002,-7.71201468,-174.83240412
5.11,511,-0.119,-1.888,-0.011,-0.9167328,86.23017899999998,-6.0733548,71.25305688,-7.4026173600000025,-174.03026291999996
5.12,512,-0.024,-1.831,-0.006999999999999999,-0.1718874,94.5953658,-12.834259199999998,71.13273569999998,-7.001546759999999,-173.17082592
5.13,513,0.049,-1.764,-0.006,1.0886202,101.2989744,-19.5378678,71.02387368000002,-6.52026204,-172.27128186
5.14,514,0.152,-1.673,-0.005,2.578311,106.79937120000001,-24.4653066,70.93220040000001,-5.97595194,-171.33736032
5.1499999999999995,515,0.246,-1.567,-0.015,4.8701430000000006,108.8047242,-27.1009134,70.8749046,-5.397264359999999,-170.39197962
5.16,516,0.306,-1.4409999999999998,-0.043,7.5057497999999985,107.9452872,-27.3873924,70.86917502,-4.79565846,-169.46378766
5.17,517,0.339,-1.317,-0.039,10.7716104,105.65345520000001,-25.6685184,70.89209334,-4.2398892,-168.54705486
5.18,518,0.311,-1.193,-0.025,14.381245800000002,103.418919,-22.5172494,70.9608483,-3.71849742,-167.64178122
5.1899999999999995,519,0.246,-1.07,-0.023,19.9962342,102.6740736,-17.9908812,71.09262864,-3.24294228,-166.72504842
5.2,520,0.199,-0.953,0.037000000000000005,29.67922440000001,101.2989744,-13.178034,71.333271,-2.82468294,-165.80831562
5.21,521,0.173,-0.847,0.023,37.5860448,96.1996482,-7.3911582,71.68277538,-2.44653066,-164.92023072
5.22,522,0.187,-0.7020000000000001,-0.031,46.1804148,85.5999252,-1.4896908000000002,72.10676430000002,-2.18869956,-164.11235994
5.2299999999999995,523,0.214,-0.522,-0.008,53.11320660000001,76.4325972,3.6669312000000014,72.61096734,-2.01108258,-163.36751454
5.24,524,0.215,-0.354,0.009000000000000001,52.0818822,70.9894962,8.136003599999999,73.10371122000002,-1.8907613999999997,-162.6627762
5.25,525,0.232,-0.17800000000000002,-0.071,46.409598,70.5311298,14.037471,73.54488888,-1.83919518,-161.94657869999998
5.26,526,0.226,0.023,-0.191,42.97185,70.18735500000001,22.173474600000002,73.92304116,-1.85065434,-161.20746288
5.27,527,0.175,0.154,-0.193,39.7059894,62.16594300000001,32.142943800000005,74.29546386000001,-1.99962342,-160.52564286
5.28,528,0.095,0.21600000000000005,-0.22,36.096354,49.274388,39.820581,74.63923866,-2.25745452,-159.9412257
5.29,529,0.004,0.264,-0.208,34.66395900000001,36.2109456,43.7166954,74.96582472,-2.58977016,-159.47712972
5.3,530,-0.053,0.272,-0.158,36.38283300000001,27.903054600000004,41.596750799999995,75.3153291,-2.9220858,-159.09897744
5.31,531,-0.08800000000000001,0.235,-0.112,38.3308902,23.777757,35.3515086,75.66483348,-3.22002396,-158.77812096
5.32,532,-0.109,0.172,-0.093,38.38818600000001,23.9496444,27.6738714,76.03152659999998,-3.43201842,-158.47445322
5.33,533,-0.108,0.09,-0.073,40.04976420000001,27.6165756,19.8816426,76.41540846000002,-3.56379876,-158.15359674
5.34,534,-0.084,-0.042,-0.117,40.7946096,29.9657034,11.688343199999998,76.80501989999998,-3.6096353999999997,-157.83274026
5.35,535,-0.044,-0.197,-0.21600000000000005,33.804522,20.9702628,1.6615782,77.13160596,-3.5809875,-157.62647538
5.36,536,-0.002,-0.4370000000000001,-0.476,14.7250206,10.313244,-11.45916,77.15452428,-3.4377480000000005,-157.5348021
5.37,537,-0.027000000000000003,-0.959,-0.46,-0.5156622000000001,33.002380800000005,-33.8618178,77.13160596,-3.04240698,-157.28843016000005
5.38,538,-0.196,-1.898,-0.774,-33.9191136,89.03767320000001,-75.63045600000002,76.74199452,-2.14286292,-156.59515098
5.39,539,-0.056,-1.832,-0.615,-18.048177,86.63124959999998,-91.7305758,76.53000005999998,-1.08289062,-155.96489718
5.3999999999999995,540,0.4320000000000001,-1.418,-0.208,11.0007936,47.9565846,-59.35844880000001,76.62740292000002,-0.40680018,-155.63831112
5.41,541,0.648,-1.219,-0.258,-18.3919518,19.7097552,-21.772404,76.4325972,-0.10313244,-155.50080119999996
5.42,542,0.644,-1.278,-0.305,-23.032911600000002,-1.3750992,2.8074942000000003,76.19768442,-0.13750992,-155.51226036
5.43,543,0.476,-1.658,-0.289,-20.05353,-12.0894138,14.381245800000002,75.99714911999997,-0.30366774,-155.59247448
5.4399999999999995,544,0.18,-1.99,-0.3,-15.126091199999998,-14.381245800000002,7.2765666,75.84818004,-0.40680018,-155.71852524000005
5.45,545,-0.013,-2.16,-0.185,-8.5370742,-21.6578124,-7.448453999999999,75.76223634,-0.38388186,-155.94770844
5.46,546,-0.058,-2.092,-0.138,-8.59437,-30.7105488,-21.1421502,75.68775179999999,-0.24637194,-156.29721282
5.47,547,-0.002,-1.985,-0.083,-9.6256944,-39.877876799999996,-25.8977016,75.59607852,-0.0859437,-156.74412006
5.4799999999999995,548,0.109,-1.967,-0.041,-12.318597,-45.779344200000004,-21.8869956,75.47575734,0.01718874,-157.24259352
5.49,549,0.17600000000000002,-1.982,-0.029,-12.7196676,-50.8786704,-14.495837400000001,75.34970658,0.04010706,-157.76971488
5.5,550,0.166,-1.916,0.005,-9.8548776,-56.9520252,-7.6776372,75.2580333,-0.00572958,-158.33694330000003
5.51,551,0.098,-1.788,0.026,-7.333862400000001,-65.7182826,-1.432395,75.2007375,-0.13750992,-158.97292668
5.52,552,0.025,-1.635,0.056,-4.4117766,-71.39056679999999,1.6042823999999998,75.17208959999998,-0.31512690000000004,-159.65474669999998
5.53,553,-0.06,-1.49,0.054000000000000006,-2.1199446,-72.5937786,2.4064236,75.16636002,-0.5042030399999999,-160.34802588
5.54,554,-0.159,-1.3730000000000002,0.034,0.4583664000000001,-72.479187,2.4064236,75.18354876,-0.69327918,-161.04130505999996
5.55,555,-0.238,-1.271,0.026,1.432395,-72.192708,2.6929026,75.21792624,-0.8823553199999999,-161.72885466
5.56,556,-0.301,-1.155,0.015,3.6096354,-71.9635248,3.4950437999999995,75.3153291,-1.1172681,-162.41067468
5.57,557,-0.3670000000000001,-1.011,0.005,11.5737516,-70.30194660000001,3.9534102,75.45283902,-1.31207382,-163.07530595999995
5.58,558,-0.39,-0.871,0.038,23.6631654,-64.4004792,3.5523396000000003,75.7163997,-1.4896908000000002,-163.68837102
5.59,559,-0.385,-0.74,0.069,42.398892,-52.7694318,1.6615782,76.16903651999998,-1.61001198,-164.18684448
5.6,560,-0.371,-0.622,0.093,55.80610920000001,-37.8725238,-1.2032118,76.75345368,-1.67303736,-164.5535376
5.61,561,-0.365,-0.473,0.052000000000000005,58.9000824,-28.5906042,-5.042030400000002,77.37224832,-1.71314442,-164.83428701999995
5.62,562,-0.365,-0.3670000000000001,0.043,60.67625219999999,-27.3873924,-9.797581800000001,78.00250212,-1.6615782,-165.11503644
5.63,563,-0.305,-0.303,-0.047,51.0505578,-26.0122932,-14.7823164,78.52962348,-1.55844576,-165.39005628
5.64,564,-0.206,-0.219,-0.116,44.919907200000004,-17.4179232,-21.199446,78.99371946,-1.3750992,-165.59632116
5.6499999999999995,565,-0.056,-0.152,-0.192,39.0184398,-4.8128472,-29.621928600000004,79.39479005999998,-1.09434978,-165.69372402000005
5.66,566,0.13,-0.077,-0.29100000000000004,33.403451399999994,5.2712136,-38.27359439999999,79.69272822,-0.68182002,-165.70518318
5.67,567,0.234,0.011,-0.308,31.913760600000003,12.0894138,-46.065823200000004,80.01358470000002,-0.21199446,-165.66507612
5.68,568,0.252,0.107,-0.253,32.31483119999999,11.516455800000001,-46.753372799999994,80.34017076,0.25783110000000004,-165.62496905999996
5.6899999999999995,569,0.21,0.194,-0.229,28.4187168,9.2819196,-40.164355799999996,80.62664975999998,0.6703608600000001,-165.59632116
5.7,570,0.13699999999999998,0.208,-0.185,23.2620948,5.5003968,-28.1895336,80.86156254,0.95683986,-165.58486200000004
5.71,571,0.07200000000000001,0.096,-0.084,17.7044022,1.145916,-13.9228794,81.02199078,1.11153852,-165.59632116
5.72,572,0.044,-0.265,-0.066,-8.193299399999999,-0.2291832000000001,2.5210152000000003,80.94177666,1.0886202,-165.59632116
5.7299999999999995,573,0.019,-0.7440000000000001,-0.561,-82.7351352,0.8021411999999999,30.252182399999995,80.09952840000003,0.7849524600000001,-165.54475494000005
5.74,574,0.287,-1.663,-1.405,-123.18597,-41.4248634,81.07355700000002,78.85620954,-0.08021412,-165.81977478
5.75,575,0.6990000000000001,-2.087,-0.8,-30.7105488,-77.34933000000002,115.56562859999998,78.56400096,-1.34072172,-166.34689614
5.76,576,0.09,-1.614,-0.035,72.82296179999999,-43.258329,80.78707800000002,79.33176468,-2.19442914,-166.61045682000002
5.77,577,-0.613,-1.241,0.035,49.04520479999999,-12.4331886,29.335449600000004,79.83023813999998,-2.49809688,-166.67921178
5.78,578,-1.094,-0.92,0.02,19.595163600000006,10.4278356,-14.610429000000002,80.02504386000003,-2.3376686399999995,-166.59899766
5.79,579,-1.12,-0.933,-0.08,7.7922288,17.8762896,-42.05511720000001,80.09952840000003,-1.89649098,-166.49013564
5.8,580,-0.8059999999999999,-1.485,-0.16399999999999998,-1.8907613999999997,17.6471064,-33.804522,80.0708805,-1.5412570200000002,-166.37554404
5.81,581,-0.316,-1.962,-0.106,-7.5630456000000015,19.5378678,-8.7089616,79.99066638000002,-1.42666542,-166.20365664
5.82,582,0.125,-2.066,-0.006999999999999999,-5.6722842,27.1582092,12.7769634,79.92191142,-1.5183387000000002,-165.91144806
5.83,583,0.255,-1.908,0.015,-12.0894138,43.544808,27.8457588,79.77867192,-1.7246035799999997,-165.44162250000005
5.84,584,0.152,-1.732,-0.012,-12.7769634,53.34238979999999,32.945085,79.62397326,-1.97097552,-164.86293492
5.85,585,-0.023,-1.648,-0.03,-9.224623800000002,59.186561399999995,29.0489706,79.50365208,-2.1657812400000003,-164.23268112
5.86,586,-0.117,-1.665,-0.032,-6.6463128000000005,61.134618599999996,18.7357266,79.40624921999998,-2.25745452,-163.60242732
5.87,587,-0.126,-1.6569999999999998,-0.057,-5.1566220000000005,61.4210976,5.844171599999999,79.32030552,-2.21734746,-162.99509184
5.88,588,-0.102,-1.599,-0.065,-2.4637194,61.1919144,-3.7815227999999994,79.26873930000002,-2.08556712,-162.4049451
5.89,589,-0.063,-1.51,-0.054000000000000006,1.4896908000000002,60.733548000000006,-9.224623800000002,79.25155056000001,-1.89649098,-161.82625751999996
5.8999999999999995,590,0.023,-1.3869999999999998,-0.058,1.0313244,59.186561399999995,-11.229976800000001,79.24009140000003,-1.6959556799999995,-161.27048826
5.91,591,0.11,-1.297,-0.047,3.3231564,54.20182679999999,-10.4851314,79.26873930000002,-1.4896908000000002,-160.76055564
5.92,592,0.146,-1.217,-0.009000000000000001,5.3285094000000015,50.0192334,-9.740286,79.30884636,-1.31207382,-160.29073008
5.93,593,0.172,-1.14,0.006,8.4224826,46.9252602,-9.1100322,79.37760132,-1.15164558,-159.84955242
5.9399999999999995,594,0.179,-1.047,-0.009000000000000001,12.891555,48.0138804,-8.250595200000001,79.49219292000002,-0.9912173399999998,-159.39118602
5.95,595,0.173,-0.955,0.048,24.694489800000003,47.555514,-7.3911582,79.73283528,-0.8479778399999999,-158.93854919999995
5.96,596,0.113,-0.8859999999999999,0.104,40.10706,43.831287,-5.7868758000000025,80.16255378,-0.70473834,-158.52028986
5.97,597,0.101,-0.787,0.081,51.7954032,38.5027776,-1.8907613999999997,80.67821597999998,-0.6302538000000001,-158.14213758
5.9799999999999995,598,0.141,-0.645,0.037000000000000005,60.38977320000001,34.7785506,3.380452200000001,81.28555146,-0.61306506,-157.78690362
5.99,599,0.185,-0.494,0.024,64.457775,31.22621100000001,8.250595200000001,81.93299400000002,-0.65317212,-157.46031756
6.0,600,0.214,-0.337,-0.06,63.311859,28.762491600000004,12.318597,82.56897738,-0.7391158200000001,-157.15664981999996
6.01,601,0.236,-0.192,-0.084,67.2079734,23.204799,15.183387000000002,83.23933824000002,-0.8307891,-156.90454830000004
6.02,602,0.207,-0.14800000000000002,-0.021,67.609044,17.761698000000006,17.5325148,83.91542868,-0.97975818,-156.70401299999997
6.03,603,0.165,-0.116,-0.03,52.82672760000001,16.2147114,20.05353,84.44827962000002,-1.16310474,-156.52066644
6.04,604,0.109,-0.067,-0.119,36.38283300000001,14.381245800000002,22.345362,84.81497274,-1.3750992,-156.35450862
6.05,605,0.047,-0.033,-0.215,27.3873924,10.1413566,23.8923486,85.08999258,-1.59855282,-156.22845786
6.06,606,0.011,0.002,-0.209,26.41336380000001,6.3598338,25.1528562,85.31917578,-1.84492476,-156.13678458
6.07,607,0.036000000000000004,0.034,-0.175,28.4760126,4.583664,26.2414764,85.60565478000002,-2.09702628,-156.06802962
6.08,608,0.068,0.06,-0.129,28.6479,3.151269,25.7258142,85.89213378,-2.3491277999999998,-156.01646340000005
6.09,609,0.097,0.066,-0.046,30.8251404,-0.057295800000000015,21.9442914,86.20726068,-2.5611222600000003,-155.99927466
6.1,610,0.094,0.018000000000000002,0.002,29.621928600000004,-5.5003968,16.7876694,86.51092842,-2.72728008,-156.03938172
6.11,611,0.005,-0.095,-0.075,19.7097552,-19.3659804,11.8029348,86.69427498,-2.85906042,-156.22272827999996
6.12,612,-0.109,-0.387,-0.28600000000000003,-4.8701430000000006,-38.38818600000001,0.4583664000000001,86.67135666,-2.87624916,-156.60088056
6.13,613,-0.006999999999999999,-1.217,-0.29,-51.6235158,-10.1986524,-28.0176462,86.15569446,-2.6012293200000003,-156.72693132
6.14,614,-0.857,-3.228,-1.669,-139.9736394,69.4425096,-117.3990942,84.70038114,-1.41520626,-156.14824374
6.15,615,-0.563,-2.132,-0.447,-10.6570188,54.6601932,-127.769634,84.58005996,-0.12032118,-155.72425482
6.16,616,0.327,-1.504,-0.431,30.366774000000003,17.131444199999994,-74.82831479999999,84.86080938,0.65317212,-155.62112238
6.17,617,0.903,-1.112,-0.303,35.0077338,-15.527161800000002,-30.5386614,85.21604334,0.95111028,-155.79873935999996
6.18,618,0.974,-1.162,-0.066,17.475219,-38.8465524,11.0580894,85.39366032000002,0.8193299399999999,-156.17116206
6.1899999999999995,619,0.7859999999999999,-1.304,-0.124,-1.3750992,-57.35309579999999,30.9970278,85.38220116,0.48128472,-156.70974257999995
6.2,620,0.34600000000000003,-1.813,-0.085,-0.572958,-61.9940556,25.3247436,85.38220116,0.20053530000000008,-157.30561889999996
6.21,621,-0.061,-2.05,0.073,2.0053530000000004,-66.5777196,8.651665800000002,85.41084906,0.08021412,-157.95306144
6.22,622,-0.335,-1.997,0.13,-1.0886202,-71.39056679999999,-7.161975,85.41084906,0.11459160000000004,-158.66352936
6.2299999999999995,623,-0.391,-1.864,0.057,-4.0680017999999984,-66.80690279999999,-12.4331886,85.37647158,0.20053530000000008,-159.33389022
6.24,624,-0.301,-1.736,0.07200000000000001,0.3437748,-58.9573782,-9.8548776,85.38220116,0.26929026,-159.92403696
6.25,625,-0.214,-1.693,0.104,2.578311,-52.0245864,-3.8961144,85.41657864,0.28074942,-160.43969915999998
6.26,626,-0.202,-1.672,0.105,5.042030400000002,-44.51883660000001,3.8388186,85.47960402,0.21199446,-160.87514724
6.27,627,-0.195,-1.569,0.096,9.5111028,-36.2682414,11.4018642,85.57700688,0.08021412,-161.22465161999997
6.28,628,-0.191,-1.416,0.113,13.349921400000001,-29.392745399999995,16.673077799999998,85.72024638,-0.09167328,-161.50540103999995
6.29,629,-0.16899999999999998,-1.287,0.146,14.381245800000002,-24.4080108,19.194093,85.86921545999998,-0.29220857999999994,-161.72885466
6.3,630,-0.157,-1.188,0.15,12.7769634,-21.3140376,20.626488,86.0009958,-0.5042030399999999,-161.92366038
6.31,631,-0.168,-1.137,0.14800000000000002,11.8602306,-18.3919518,21.5432208,86.17288319999999,-0.75630456,-162.08981819999997
6.32,632,-0.189,-1.064,0.128,9.969469199999999,-15.126091199999998,20.340009,86.28174521999998,-0.96256944,-162.22732811999995
6.33,633,-0.22,-0.975,0.069,10.026765,-9.797581800000001,18.334656,86.38487766,-1.15164558,-162.31327182
6.34,634,-0.253,-0.847,0.02,13.178034,-3.6096354,15.870936600000002,86.52238758000001,-1.30634424,-162.33619014
6.35,635,-0.29,-0.723,0.01,21.3713334,3.724227,12.834259199999998,86.73438204,-1.432395,-162.29035349999995
6.36,636,-0.28800000000000003,-0.599,0.004,31.51269000000001,9.9121734,10.0840608,87.05523852,-1.5756344999999998,-162.1757619
6.37,637,-0.275,-0.515,0.02,38.27359439999999,12.1467096,5.9014674000000005,87.43912037999998,-1.6272007199999998,-162.04971114
6.38,638,-0.27,-0.464,-0.062,37.4714532,11.0580894,0.4010706,87.81727266,-1.6272007199999998,-161.93511954000004
6.39,639,-0.24,-0.401,-0.13699999999999998,31.340802600000004,5.72958,-4.8128472,88.13239956,-1.5756344999999998,-161.87782374
6.4,640,-0.127,-0.349,-0.081,32.0283522,0.7448454000000001,-10.1413566,88.45325604000001,-1.47250206,-161.86636458
6.41,641,0.05,-0.316,-0.06,31.6845774,-0.1718874,-16.7303736,88.76265336,-1.28342592,-161.87209416
6.42,642,0.198,-0.269,-0.111,27.3300966,1.7188740000000002,-24.4653066,89.04340278,-1.03705398,-161.85490542
6.43,643,0.275,-0.252,-0.17,22.345362,6.8182002000000015,-29.7365202,89.2668564,-0.7448454000000001,-161.79188004
6.4399999999999995,644,0.271,-0.256,-0.259,19.8243468,12.2040054,-28.7051958,89.46739170000002,-0.4583664000000001,-161.66582928
6.45,645,0.172,-0.263,-0.298,22.86102420000001,15.3552744,-20.9702628,89.6965749,-0.25210152,-161.5168602
6.46,646,0.055,-0.242,-0.222,24.7517856,16.2147114,-9.969469199999999,89.91429894,-0.14896908,-161.35070238
6.47,647,-0.04,-0.168,-0.111,21.772404,20.6837838,2.6356068,90.13202298,-0.17761697999999998,-161.1444375
6.4799999999999995,648,-0.104,-0.123,-0.009000000000000001,16.4438946,37.3568616,9.8548776,90.29245122,-0.28647900000000004,-160.7720148
6.49,649,-0.158,-0.235,0.049,-2.4637194,55.92070079999999,15.870936600000002,90.25234416,-0.46409598,-160.22197512
6.5,650,-0.165,-0.574,-0.087,-49.274388,63.7129296,24.8090814,89.73668196000001,-0.73338624,-159.5974509
6.51,651,-0.162,-1.093,-0.517,-88.7511942,40.7946096,45.6647526,88.80848999999998,-1.2032117999999998,-159.19638030000004
6.52,652,0.229,-2.207,-1.338,-104.1064686,-15.756345000000001,89.4387438,87.75997686000002,-2.10275586,-159.33961979999995
6.53,653,0.28800000000000003,-2.395,-0.593,-28.4760126,-15.126091199999998,108.2317662,87.47922744,-3.1799169000000003,-159.44848182
6.54,654,-0.119,-1.5619999999999998,-0.069,55.2331512,13.0634424,64.744254,88.02926712000001,-3.81590028,-159.28805358
6.55,655,-0.635,-1.032,0.068,35.122325399999994,43.6021038,14.037471,88.35012359999996,-3.9534102,-158.85260549999995
6.56,656,-0.757,-0.939,0.115,15.469866,64.11400019999999,-23.204799,88.4647152,-3.77006364,-158.21662212
6.57,657,-0.602,-1.394,0.005,5.7868758000000025,71.39056679999999,-45.1490904,88.47044478000002,-3.3231564,-157.51761335999996
6.58,658,-0.213,-2.018,0.02,3.2658606,76.20341400000002,-27.6165756,88.44752645999998,-3.04813656,-156.76703838
6.59,659,0.109,-2.172,0.11,8.479778399999999,83.53727640000002,-0.6302538000000001,88.48190394,-3.04240698,-155.94197886
6.6,660,0.146,-1.967,0.08900000000000001,6.2452422,93.8505204,14.0947668,88.48190394,-3.18564648,-155.00805731999995
6.61,661,0.035,-1.761,0.04,-1.8907613999999997,102.3875946,19.3659804,88.39023066,-3.37472262,-153.98819208
6.62,662,-0.08,-1.644,0.027000000000000003,-1.9480572,107.8306956,20.6837838,88.2928278,-3.5809875,-152.91676062
6.63,663,-0.085,-1.6,0.022,4.4690724,111.0965562,20.2827132,88.25272074,-3.77579322,-151.81095168
6.64,664,-0.016,-1.534,0.049,8.880849000000003,114.4770084,18.5065434,88.25272074,-3.95913978,-150.67076526
6.65,665,0.066,-1.419,0.076,9.3965112,117.22720679999999,14.610429000000002,88.24699116,-4.0966497,-149.50193094
6.66,666,0.13,-1.266,0.07,7.5057497999999985,115.85210759999998,10.6570188,88.23553199999998,-4.1825934,-148.35601494
6.67,667,0.163,-1.108,0.049,6.1879464,111.3257394,8.078707799999998,88.20115452,-4.25707794,-147.24447642
6.68,668,0.183,-1.018,0.034,6.5317212,105.8253426,5.6722842,88.17250662000002,-4.30864416,-146.19596328
6.6899999999999995,669,0.16699999999999998,-1.003,0.025,8.651665800000002,99.9238752,2.9220857999999996,88.17250662000002,-4.3315624800000005,-145.20474594
6.7,670,0.157,-0.999,0.026,9.6829902,95.3402112,-1.3750992,88.18969536,-4.31437374,-144.25936524000005
6.71,671,0.13699999999999998,-0.972,0.046,11.0580894,91.2722094,-6.3025379999999975,88.22980242,-4.22270046,-143.3540916
6.72,672,0.096,-0.93,0.059,14.896907999999998,89.6106312,-9.969469199999999,88.30428696,-4.11956802,-142.46600669999995
6.7299999999999995,673,0.073,-0.858,0.07400000000000001,17.7044022,90.0117018,-10.8289062,88.40741940000002,-4.00497642,-141.5779218
6.74,674,0.059,-0.775,0.096,19.5378678,90.3554766,-8.3651868,88.53347016000002,-3.9247623,-140.68410732
6.75,675,0.051,-0.691,0.112,20.454600600000006,91.55868840000001,-3.2085648,88.6652505,-3.89038482,-139.77310409999998
6.76,676,0.058,-0.615,0.125,19.7097552,92.6473086,2.86479,88.80848999999998,-3.91330314,-138.85637130000003
6.77,677,0.087,-0.5429999999999999,0.128,20.454600600000006,93.9078162,8.250595200000001,88.94027034,-3.99924684,-137.92244976
6.78,678,0.117,-0.489,0.118,22.345362,94.3661826,12.4904844,89.08350984,-4.131027179999999,-136.98279864
6.79,679,0.149,-0.445,0.094,24.4080108,92.7619002,13.6936962,89.25539724,-4.27999626,-136.05460667999998
6.8,680,0.16,-0.42,0.096,26.069589,89.83981440000002,13.521808800000002,89.4387438,-4.42323576,-135.16079219999997
6.81,681,0.173,-0.43,0.112,27.215505,88.12094040000002,12.4331886,89.65073826,-4.54355694,-134.28989603999997
6.82,682,0.162,-0.489,0.14,26.41336380000001,88.5793068,10.3705398,89.83408482,-4.66387812,-133.40754072
6.83,683,0.142,-0.575,0.153,20.340009,88.98037740000002,7.3911582,89.95440599999998,-4.7555514,-132.5251854
6.84,684,0.114,-0.657,0.181,12.4331886,90.6992514,4.9847345999999995,89.99451306,-4.83003594,-131.61991176
6.85,685,0.08199999999999999,-0.7509999999999999,0.121,5.6722842,91.4440968,4.1825934,89.96586515999998,-4.898790900000002,-130.71463812
6.86,686,0.065,-0.835,0.041,0.4010706,90.0117018,6.6463128000000005,89.87992145999998,-4.96181628,-129.82082364
6.87,687,0.039,-0.8640000000000001,-0.01,-0.8594370000000001,88.12094040000002,10.255948199999999,89.7825186,-5.08786704,-128.94992748
6.88,688,-0.03,-0.88,-0.065,2.0053530000000004,82.4486562,13.407217200000002,89.71949322,-5.2425657,-128.13059754
6.89,689,-0.102,-0.892,-0.091,5.5576926,76.37530140000001,15.527161800000002,89.69084532,-5.40872352,-127.3685634
6.9,690,-0.118,-0.848,-0.152,13.349921400000001,68.1247062,17.0741484,89.75387070000002,-5.59779966,-126.69247296
6.91,691,-0.112,-0.831,-0.117,21.3713334,55.92070079999999,14.667724800000002,89.89138061999998,-5.75249832,-126.13097412
6.92,692,-0.023,-0.86,-0.053,19.938938399999998,53.8007562,6.4744254,90.03462012,-5.83271244,-125.5923936
6.93,693,0.045,-1.012,-0.084,7.7349330000000025,54.8320806,-9.1100322,90.05180886000002,-5.75249832,-125.04808349999999
6.9399999999999995,694,-0.08900000000000001,-1.496,-0.094,-13.980175199999998,67.7236356,-50.0192334,89.83408482,-5.27694318,-124.37772264
6.95,695,-0.501,-1.959,-0.568,-42.685371,120.5503632,-105.4815678,89.28404514,-4.25707794,-123.19169958
6.96,696,-0.562,-1.658,-0.516,-18.621135,143.98434540000005,-114.8207832,88.97464782,-3.1398098400000003,-121.7822229
6.97,697,-0.022,-1.3030000000000002,-0.327,0.3437748,126.22264740000001,-84.68319240000002,88.90016328,-2.3147503200000004,-120.54463362
6.9799999999999995,698,0.35100000000000003,-1.179,-0.284,-12.891555,111.7841058,-52.425657,88.71681672,-1.79908812,-119.45028384
6.99,699,0.365,-1.334,-0.241,-22.173474600000002,108.9193158,-23.3193906,88.44179688,-1.5756344999999998,-118.37885238
7.0,700,0.234,-1.57,-0.313,-25.8977016,111.84140159999998,-2.291832,88.13239956,-1.5527161800000002,-117.27877302000002
7.01,701,0.119,-1.567,-0.302,-20.2827132,118.8314892,8.7089616,87.87456846,-1.6272007199999998,-116.09847954
7.02,702,0.003,-1.4680000000000002,-0.212,-12.318597,121.9254624,13.980175199999998,87.69695148,-1.75325148,-114.88953816
7.03,703,-0.042,-1.388,-0.157,-12.834259199999998,125.6496894,14.7823164,87.50787534,-1.88503182,-113.64048972
7.04,704,-0.063,-1.354,-0.127,-14.0947668,129.94687439999998,14.7823164,87.30161045999998,-2.01108258,-112.35133422
7.05,705,-0.093,-1.336,-0.07400000000000001,-12.7196676,133.6711014,16.501190400000002,87.10680474,-2.1485925000000003,-111.02780124
7.06,706,-0.129,-1.314,-0.028,-10.599723,137.3953284,20.05353,86.92918776,-2.3204799,-109.65843162
7.07,707,-0.16899999999999998,-1.287,0.006999999999999999,-8.307891,140.66118899999998,24.2361234,86.76875952,-2.5210152000000003,-108.25468452
7.08,708,-0.193,-1.246,0.034,-5.042030400000002,145.4740362,28.0176462,86.63124959999998,-2.75592798,-106.7993712
7.09,709,-0.198,-1.1840000000000002,0.04,-1.7188740000000002,150.401475,30.8251404,86.51665799999998,-3.0137590800000003,-105.29822124
7.1,710,-0.17,-1.099,0.041,1.0313244,155.0997306,32.31483119999999,86.42498472,-3.28304934,-103.74550506
7.11,711,-0.125,-1.013,0.04,2.8074942000000003,160.141761,31.79916900000001,86.33904102,-3.54661002,-102.14122266
7.12,712,-0.094,-0.944,0.045,2.9220857999999996,163.12114259999996,30.194886600000004,86.24736774,-3.78725238,-100.50829236
7.13,713,-0.09,-0.888,0.044,2.0626488000000003,165.58486200000004,28.0176462,86.13277614,-3.99924684,-98.84671416
7.14,714,-0.099,-0.8320000000000001,0.031,0.4583664000000001,168.3350604,25.2674478,85.99526621999998,-4.1825934,-97.16221764
7.15,715,-0.11,-0.779,0.022,-0.9167328,171.65821680000005,22.2880662,85.83483798,-4.3315624800000005,-95.44907322
7.16,716,-0.123,-0.737,0.029,-2.4064236,174.58030259999995,19.194093,85.66295058,-4.44615408,-93.7072809
7.17,717,-0.134,-0.7070000000000001,0.038,-3.6669312000000014,177.330501,16.501190400000002,85.46241528,-4.5263682,-91.94257026
7.18,718,-0.146,-0.6859999999999999,0.031,-5.2139178,180.65365740000001,13.521808800000002,85.23896166,-4.56647526,-90.14348214
7.1899999999999995,719,-0.159,-0.6729999999999999,0.035,-6.016058999999999,185.0081382,10.886202,85.00977845999998,-4.56647526,-88.29855738
7.2,720,-0.162,-0.675,0.055,-5.0993262,189.7636896,7.9641161999999985,84.78059526000001,-4.53209778,-86.41925513999998
7.21,721,-0.162,-0.6859999999999999,0.076,-3.4377480000000005,195.3213822,4.4690724,84.58005996,-4.46334282,-84.4826571
7.22,722,-0.156,-0.701,0.092,-0.8021411999999999,200.5925958,1.0313244,84.39098382,-4.33729206,-82.49449283999998
7.2299999999999995,723,-0.14400000000000002,-0.725,0.12,2.0053530000000004,205.118964,-2.0626488000000003,84.23628516,-4.17113424,-80.4719511
7.24,724,-0.113,-0.759,0.127,3.5523396000000003,208.7285994,-4.8128472,84.09877524000002,-3.97059894,-78.41503188
7.25,725,-0.073,-0.7859999999999999,0.116,5.7868758000000025,210.6766566,-7.3911582,83.98991322,-3.73568616,-76.34092392
7.26,726,-0.032,-0.8109999999999999,0.095,7.2192707999999985,210.2182902,-10.0840608,83.91542868,-3.47212548,-74.27254554
7.27,727,-0.006,-0.823,0.062,9.6829902,206.7232464,-12.261301199999998,83.86959204,-3.1913760600000005,-72.24427422
7.28,728,0.012,-0.8340000000000001,0.067,11.5737516,202.9417236,-14.4385416,83.85240329999998,-2.88770832,-70.25610996
7.29,729,0.023,-0.838,0.037000000000000005,11.6310474,199.0456092,-16.7303736,83.85240329999998,-2.56685184,-68.30805276
7.3,730,0.04,-0.8440000000000001,0.001,10.026765,194.80572,-19.0795014,83.84667372,-2.22307704,-66.40583219999999
7.31,731,0.058,-0.87,-0.042,6.760904399999999,189.5918022,-21.199446,83.82375540000002,-1.85638392,-64.55517785999999
7.32,732,0.084,-0.919,-0.071,2.3491278,183.0027852,-21.8869956,83.77218918,-1.49542038,-62.77327848
7.33,733,0.102,-0.996,-0.118,-2.4064236,175.038669,-21.1421502,83.68624548,-1.14018642,-61.07159322
7.34,734,0.119,-1.057,-0.175,-6.016058999999999,165.6994536,-18.5638392,83.57165388,-0.8250595199999999,-59.46158124
7.35,735,0.111,-1.107,-0.201,-5.958763200000001,154.18299779999995,-15.756345000000001,83.47425102000003,-0.53858052,-57.96043128
7.36,736,0.085,-1.148,-0.207,-7.8495246,147.02102280000003,-11.8602306,83.35392984,-0.28647900000000004,-56.52803628
7.37,737,0.047,-1.156,-0.211,-8.7662574,141.00496379999996,-5.7868758000000025,83.23933824000002,-0.10886202,-55.14720749999999
7.38,738,-0.011,-1.166,-0.185,-5.443101,135.6191586,2.2345362,83.16485370000002,-0.01145916,-53.80648578
7.39,739,-0.031,-1.127,-0.158,-1.8907613999999997,134.358651,9.797581800000001,83.13047622,0.01145916,-52.47149363999999
7.4,740,-0.036000000000000004,-1.064,-0.139,0.286479,134.7024258,14.610429000000002,83.11328748,-0.00572958,-51.13077192
7.41,741,-0.028,-1.012,-0.109,-0.4010706,135.3899754,16.902261,83.09036916,-0.05156622,-49.77859104
7.42,742,-0.011,-0.996,-0.073,-1.8334656000000005,134.1867636,16.558486199999994,83.05599168,-0.09167328,-48.43786932
7.43,743,-0.006,-1.007,-0.042,-2.9793816000000004,131.60845260000002,15.183387000000002,83.00442546000002,-0.12032118,-47.1257955
7.4399999999999995,744,0.0,-1.042,-0.021,-4.4117766,131.09279039999998,14.9542038,82.94140008000002,-0.14323950000000002,-45.81945126
7.45,745,0.08199999999999999,-1.117,0.0,-10.4278356,133.499214,17.0741484,82.80961973999997,-0.18907614,-44.48445912
7.46,746,0.263,-1.215,-0.023,-20.05353,133.0408476,21.8869956,82.59189570000002,-0.25210152,-43.14946698
7.47,747,0.42,-1.29,-0.081,-26.356068,122.1546456,26.8717302,82.29968712,-0.39534102,-41.91760728
7.4799999999999995,748,0.477,-1.3,-0.121,-22.5745452,108.8047242,29.793816,82.04758559999998,-0.5729580000000001,-40.81179834
7.49,749,0.4,-1.217,-0.155,-10.4278356,98.4914802,30.5959572,81.91580526,-0.76776372,-39.80339226
7.5,750,0.274,-1.065,-0.139,2.6929026,90.8711388,27.1582092,81.91580526,-0.93392154,-38.86947072
7.51,751,0.18600000000000005,-0.906,-0.061,16.2147114,86.63124959999998,18.449247600000003,82.06477434,-0.9912173399999998,-37.99284498
7.52,752,0.125,-0.826,-0.011,23.376686399999997,85.9437,7.7349330000000025,82.2767688,-0.9740286,-37.13340798
7.53,753,0.063,-0.8079999999999999,0.024,23.0902074,89.49603959999996,-3.380452200000001,82.48303368,-0.8422482600000001,-36.25678224
7.54,754,0.036000000000000004,-0.843,0.045,17.0168526,96.0850566,-11.688343199999998,82.63200276,-0.6302538000000001,-35.3228607
7.55,755,0.046,-0.906,0.049,10.1986524,103.3043274,-14.7823164,82.71221688,-0.37815228,-34.32591377999999
7.56,756,0.099,-0.977,0.048,3.5523396000000003,111.0965562,-13.6364004,82.74659436,-0.12032118,-33.24875274
7.57,757,0.161,-1.045,-0.004,-2.291832,117.34179840000002,-9.5111028,82.7064873,0.0859437,-32.10283674
7.58,758,0.187,-1.083,-0.054000000000000006,-4.2398892,120.034701,-2.7501984,82.6491915,0.2291832000000001,-30.92827284
7.59,759,0.208,-1.065,-0.063,1.0313244,122.2119414,5.3858052,82.6491915,0.29793816,-29.71933146
7.6,760,0.221,-1.004,-0.065,7.5057497999999985,124.2745902,9.797581800000001,82.71794646,0.32085648,-28.48174218
7.61,761,0.168,-0.94,-0.053,12.3758928,125.1340272,11.4018642,82.83826764,0.34950438,-27.23269374
7.62,762,0.118,-0.908,-0.024,14.5531332,124.21729440000001,12.0894138,82.97577756,0.34950438,-25.99510446
7.63,763,0.112,-0.908,0.006,13.750992000000002,122.72760359999998,12.0894138,83.1075579,0.3437748,-24.77470392
7.64,764,0.146,-0.929,0.025,11.0007936,120.66495479999999,11.745639,83.21069034,0.33804522,-23.57149212
7.65,765,0.192,-0.955,0.023,8.136003599999999,118.1439396,11.917526400000002,83.28517488,0.32658606,-22.39119864
7.66,766,0.21,-0.97,0.019,6.417129599999999,115.2791496,12.834259199999998,83.35392984,0.32658606,-21.23955306
7.67,767,0.207,-0.974,0.02,6.3598338,112.872726,13.8655836,83.41122564,0.28647900000000004,-20.1108258
7.68,768,0.197,-0.975,0.028,6.016058999999999,112.24247220000001,14.2093584,83.46279186000002,0.24637194,-18.9935577
7.6899999999999995,769,0.183,-0.979,0.031,5.443101,111.9559932,14.7250206,83.5086285,0.19480572,-17.870560020000006
7.7,770,0.171,-0.995,0.048,5.1566220000000005,110.52359820000001,15.183387000000002,83.54873556,0.13750992,-16.764751080000003
7.71,771,0.165,-1.033,0.049,3.9534102,108.86202,15.2979786,83.5945722,0.09740286,-15.676130880000002
7.72,772,0.173,-1.073,0.035,2.1772404,107.0285544,15.6417534,83.60603136,0.03437748,-14.60469942
7.7299999999999995,773,0.201,-1.088,0.005,0.4583664000000001,104.1064686,15.9282324,83.5945722,-0.03437748,-13.56191586
7.74,774,0.224,-1.083,-0.021,-0.7448454000000001,99.981171,16.1001198,83.57738346,-0.10886202,-12.55923936
7.75,775,0.235,-1.071,-0.049,-1.6042823999999998,93.9078162,16.4438946,83.54300598,-0.19480572,-11.613858660000002
7.76,776,0.222,-1.063,-0.055,-2.0053530000000004,87.7198698,16.7876694,83.51435808,-0.25210152,-10.73150334
7.77,777,0.202,-1.056,-0.059,-2.578311,82.67783940000002,17.131444199999994,83.46852143999998,-0.35523396,-9.89498466
7.78,778,0.177,-1.0490000000000002,-0.067,-3.6096354,79.18279559999998,17.0741484,83.41695522,-0.4583664000000001,-9.098573040000002
7.79,779,0.159,-1.044,-0.06,-4.5263682,77.34933000000002,16.558486199999994,83.35392984,-0.55003968,-8.319350159999999
7.8,780,0.149,-1.035,-0.057,-5.6149884000000005,75.9742308,15.870936600000002,83.27944529999998,-0.64171296,-7.551586439999999
7.81,781,0.14,-1.01,-0.069,-7.6776372,74.42724419999998,15.527161800000002,83.18777202,-0.70473834,-6.8010114600000025
7.82,782,0.129,-0.982,-0.077,-10.0840608,71.39056679999999,15.4125702,83.06745083999998,-0.79641162,-6.079084379999999
7.83,783,0.133,-0.969,-0.08900000000000001,-12.4904844,67.43715660000001,15.870936600000002,82.91848175999998,-0.8880849000000001,-5.397264359999999
7.84,784,0.14800000000000002,-0.961,-0.123,-14.896907999999998,63.4264506,16.902261,82.74659436,-0.9969469199999998,-4.7555514
7.85,785,0.155,-0.96,-0.158,-15.813640800000002,59.4730404,18.162768600000003,82.56897738,-1.1172681,-4.14821592
7.86,786,0.156,-0.957,-0.188,-14.495837400000001,55.80610920000001,19.0795014,82.38563081999997,-1.22040054,-3.57525792
7.87,787,0.147,-0.966,-0.208,-11.0580894,53.858052,19.1367972,82.25385048,-1.35218088,-3.01948866
7.88,788,0.126,-0.978,-0.227,-7.5057497999999985,54.3164184,18.5638392,82.15644762000002,-1.4782316400000002,-2.4637194
7.89,789,0.07,-0.995,-0.238,-4.1825934,54.08723520000001,17.761698000000006,82.09342224,-1.59282324,-1.90795014
7.9,790,-0.006,-1.007,-0.237,-0.8594370000000001,53.9726436,16.959556799999998,82.05904475999998,-1.70168526,-1.35218088
7.91,791,-0.059,-1.015,-0.242,0.6302538000000001,54.4883058,15.9282324,82.01320812,-1.81054728,-0.79641162
7.92,792,-0.096,-1.024,-0.263,0.7448454000000001,54.889376399999996,14.0947668,81.99601937999998,-1.88503182,-0.23491278
7.93,793,-0.152,-1.046,-0.268,1.9480572,54.54560160000001,10.886202,81.9902898,-1.93086846,0.30939732
7.94,794,-0.199,-1.06,-0.258,6.0733548,56.5509546,7.3911582,82.02466728,-1.94232762,0.87662574
7.95,795,-0.185,-1.029,-0.24,10.026765,58.44171600000001,5.3285094000000015,82.09915182,-1.93086846,1.45531332
7.96,796,-0.134,-0.982,-0.205,12.032117999999999,60.50436480000001,4.1252976000000015,82.17363636,-1.9194093000000003,2.05691922
7.97,797,-0.039,-0.93,-0.165,13.521808800000002,61.134618599999996,3.4377480000000005,82.28249838,-1.8907613999999997,2.6642547000000003
7.9799999999999995,798,0.042,-0.8909999999999999,-0.121,13.6936962,56.3217714,3.151269,82.39708998,-1.8621135,3.2257535399999995
7.99,799,0.113,-0.8640000000000001,-0.071,13.6364004,49.2170922,3.6669312000000014,82.51168158,-1.84492476,3.71849742
8.0,800,0.155,-0.8640000000000001,-0.035,11.688343199999998,42.8572584,3.7815227999999994,82.61481402000003,-1.83919518,4.14248634
8.01,801,0.177,-0.861,-0.008,9.3392154,36.8411994,2.9793816000000004,82.72367604,-1.75898106,4.5206386200000015
8.02,802,0.174,-0.872,0.012,7.5630456000000015,31.627281600000003,1.0313244,82.78670142,-1.73606274,4.83003594
8.03,803,0.134,-0.909,0.03,5.042030400000002,28.5906042,-2.1199446,82.82680848,-1.6844965200000002,5.11078536
8.04,804,0.076,-0.974,0.04,1.2605076000000002,27.6738714,-5.5576926,82.82680848,-1.6042824000000002,5.37434604
8.05,805,0.019,-1.067,0.017,-2.7501984,28.1895336,-8.307891,82.78670142,-1.49542038,5.6436363
8.06,806,-0.032,-1.144,-0.003,-3.4377480000000005,28.1895336,-9.224623800000002,82.76951268,-1.38082878,5.90719698
8.07,807,-0.075,-1.18,-0.011,-0.3437748,27.3873924,-7.6776372,82.75805352,-1.27769634,6.17075766
8.08,808,-0.097,-1.164,-0.008,4.297185,25.496631,-4.297185,82.79243100000002,-1.21467096,6.417129600000001
8.09,809,-0.105,-1.122,-0.002,8.136003599999999,22.91832,-0.286479,82.86691554,-1.18602306,6.640583220000001
8.1,810,-0.095,-1.08,0.001,10.5424272,20.2254174,3.4950437999999995,82.9643184,-1.2032117999999998,6.8468481
8.11,811,-0.086,-1.056,0.001,12.0894138,17.8762896,6.3025379999999975,83.12474663999998,-1.26623718,7.030194660000001
8.12,812,-0.076,-1.045,-0.008,12.9488508,15.9282324,8.250595200000001,83.25079740000002,-1.3349921400000002,7.20208206
8.13,813,-0.064,-1.04,-0.022,13.6936962,13.5791046,9.3392154,83.38830732,-1.41520626,7.34532156
8.14,814,-0.059,-1.039,-0.025,14.32395,11.172681,9.8548776,83.52581724,-1.50114996,7.47137232
8.15,815,-0.061,-1.036,-0.031,14.152062599999999,9.167328,10.0840608,83.66905674,-1.59282324,7.574504760000001
8.16,816,-0.069,-1.036,-0.035,13.0634424,8.5370742,9.797581800000001,83.82375540000002,-1.70168526,7.66617804
8.17,817,-0.081,-1.033,-0.041,12.0894138,8.4224826,9.224623800000002,83.94407658,-1.78189938,7.763580899999999
8.18,818,-0.1,-1.021,-0.04,11.745639,8.136003599999999,8.59437,84.05866818,-1.8621135,7.8495246
8.19,819,-0.127,-1.004,-0.044,11.229976800000001,8.651665800000002,8.479778399999999,84.1675302,-1.93659804,7.94692746
8.2,820,-0.159,-0.983,-0.051,10.7143146,9.797581800000001,8.7089616,84.27066264,-2.01681216,8.05578948
8.209999999999999,821,-0.189,-0.96,-0.052000000000000005,10.8289062,11.8029348,9.1100322,84.38525424,-2.1772404,8.17611066
8.22,822,-0.204,-0.946,-0.055,11.4018642,15.183387000000002,9.3965112,84.49411626,-2.2631841,8.3365389
8.23,823,-0.201,-0.943,-0.047,13.0634424,19.0222056,9.5111028,84.61443744,-2.34339822,8.53134462
8.24,824,-0.183,-0.943,-0.035,14.610429000000002,22.91832,9.453807000000001,84.75194736,-2.41788276,8.7662574
8.25,825,-0.157,-0.938,-0.027000000000000003,16.1001198,26.69984280000001,9.0527364,84.90091644,-2.4923673,9.04127724
8.26,826,-0.138,-0.936,-0.019,17.18874,29.335449600000004,8.136003599999999,85.07280384,-2.5783110000000002,9.3392154
8.27,827,-0.133,-0.941,-0.015,17.5325148,31.340802600000004,6.589017,85.2275025,-2.62414764,9.6543423
8.28,828,-0.128,-0.946,-0.02,16.902261,33.231564,4.6982556,85.38220116,-2.65279554,9.99238752
8.29,829,-0.107,-0.95,-0.024,16.4438946,34.66395900000001,2.6356068,85.53117024000002,-2.6642547000000003,10.33616232
8.3,830,-0.078,-0.949,-0.025,17.0741484,34.950438,0.4010706,85.68013932,-2.64706596,10.6856667
8.31,831,-0.059,-0.941,-0.022,18.6784308,33.3461556,-1.4896908000000002,85.85775629999998,-2.61841806,11.01798234
8.32,832,-0.051,-0.958,-0.024,17.761698000000006,31.627281600000003,-2.9220857999999996,86.02391412,-2.57258142,11.327379660000002
8.33,833,-0.026,-0.983,-0.044,14.610429000000002,30.0229992,-3.6669312000000014,86.14996488,-2.5210152000000003,11.62531782
8.34,834,-0.003,-1.015,-0.068,15.3552744,26.2414764,-3.8388186,86.29320437999998,-2.47517856,11.88314892
8.35,835,0.017,-1.044,-0.083,14.381245800000002,21.6578124,-3.7815227999999994,86.43071429999998,-2.42934192,12.09514338
8.36,836,0.037000000000000005,-1.064,-0.095,14.7823164,16.501190400000002,-3.2085648,86.5453059,-2.3491277999999998,12.261301200000002
8.37,837,0.048,-1.069,-0.105,14.7250206,11.2872726,-2.3491278,86.68854540000002,-2.3204799,12.3758928
8.38,838,0.049,-1.064,-0.116,15.126091199999998,6.016058999999999,-1.432395,86.83751448000002,-2.30329116,12.438918179999998
8.39,839,0.043,-1.054,-0.117,15.9282324,1.145916,-0.9167328,86.99794272,-2.2918320000000003,12.45037734
8.4,840,0.042,-1.038,-0.113,15.9282324,-2.1772404,-1.3178034,87.15837096,-2.2746432600000004,12.42745902
8.41,841,0.044,-1.025,-0.105,14.32395,-4.9847345999999995,-2.0626488000000003,87.25004424,-2.18869956,12.38735196
8.42,842,0.049,-1.022,-0.102,12.7196676,-7.9641161999999985,-2.4637194,87.38755416000002,-2.1657812400000003,12.30713784
8.43,843,0.051,-1.032,-0.09,11.3445684,-10.9434978,-2.291832,87.50787534,-2.14286292,12.19827582
8.44,844,0.041,-1.044,-0.08800000000000001,10.4278356,-13.6364004,-1.5469866,87.61673736,-2.12567418,12.0607659
8.45,845,0.004,-1.045,-0.09,10.4851314,-15.9282324,-0.4010706,87.73132896,-2.12567418,11.90606724
8.459999999999999,846,-0.042,-1.026,-0.08199999999999999,10.8289062,-17.5325148,0.8021411999999999,87.81727266,-2.14286292,11.73417984
8.47,847,-0.075,-0.997,-0.066,10.6570188,-17.0741484,0.8021411999999999,87.93759384,-2.1485925000000003,11.56802202
8.48,848,-0.091,-0.973,-0.056,9.2819196,-15.4125702,0.0,88.03499670000002,-2.15432208,11.41332336
8.49,849,-0.094,-0.958,-0.051,7.161975,-13.0634424,-1.0886202,88.11521081999999,-2.14286292,11.2872726
8.5,850,-0.08199999999999999,-0.957,-0.052000000000000005,5.042030400000002,-10.1413566,-2.4064236,88.17250662000002,-2.11421502,11.18414016
8.51,851,-0.06,-0.966,-0.059,2.7501984,-7.161975,-3.4950437999999995,88.13239956,-2.09702628,11.109655620000002
8.52,852,-0.035,-0.979,-0.069,0.9167328,-4.8128472,-4.0680017999999984,88.14385872,-2.05691922,11.06381898
8.53,853,-0.01,-1.002,-0.081,-0.11459160000000004,-3.151269,-3.8388186,88.14385872,-2.01681216,11.0294415
8.54,854,0.008,-1.022,-0.091,-0.4583664000000001,-2.0053530000000004,-2.7501984,88.14385872,-1.99389384,11.00652318
8.55,855,0.015,-1.03,-0.092,0.0,-1.3178034,-1.4896908000000002,88.14385872,-1.9767051,10.99506402
8.56,856,0.011,-1.026,-0.084,1.6042823999999998,-0.8594370000000001,-0.4010706,87.81727266,-1.7475218999999995,11.0007936
8.57,857,0.0,-1.014,-0.07,3.4950437999999995,-0.1718874,0.3437748,87.85737972,-1.7475218999999995,11.0007936
8.58,858,-0.012,-1.003,-0.049,5.0993262,0.6302538000000001,0.4583664000000001,87.90894594,-1.75325148,11.00652318
8.59,859,-0.027000000000000003,-0.995,-0.028,5.72958,1.7761698,0.057295800000000015,87.96624174,-1.75325148,11.0294415
8.6,860,-0.037000000000000005,-0.994,-0.013,5.5576926,3.380452200000001,-0.6302538000000001,88.01780796,-1.7475218999999995,11.06381898
8.61,861,-0.036000000000000004,-0.999,-0.009000000000000001,4.9274388,5.0993262,-1.432395,88.06937418,-1.73033316,11.1153852
8.62,862,-0.026,-1.002,-0.011,4.010706000000001,7.1046792000000005,-2.578311,88.10948124000002,-1.7074148399999998,11.18414016
8.63,863,-0.01,-1.005,-0.016,3.8388186,8.59437,-3.0939732,88.14385872,-1.67303736,11.27008386
8.64,864,0.004,-1.009,-0.022,4.0680017999999984,9.224623800000002,-3.2085648,88.17823620000001,-1.6386598799999998,11.36175714
8.65,865,0.013,-1.01,-0.023,4.6982556,9.1100322,-2.9220857999999996,88.22407283999998,-1.61001198,11.44770084
8.66,866,0.015,-1.008,-0.022,5.3858052,8.59437,-2.4637194,88.25845032,-1.5412570200000002,11.53937412
8.67,867,0.014,-1.008,-0.022,5.72958,8.479778399999999,-1.8907613999999997,88.31574612,-1.5183387000000002,11.62531782
8.68,868,0.012,-1.007,-0.024,5.5576926,8.880849000000003,-1.3750992,88.36731234,-1.50687954,11.71126152
8.69,869,0.009000000000000001,-1.009,-0.023,4.9274388,9.1100322,-1.2032118,88.41314897999996,-1.4896908000000002,11.8029348
8.7,870,0.008,-1.014,-0.024,3.724227,9.1100322,-1.0313244,88.44752645999998,-1.48396122,11.8888785
8.71,871,0.009000000000000001,-1.018,-0.032,2.6929026,9.167328,-0.9167328,88.43606729999998,-1.4209358399999998,11.98628136
8.72,872,0.01,-1.02,-0.039,1.8907613999999997,9.6829902,-0.7448454000000001,88.45325604000001,-1.40947668,12.08368422
8.73,873,0.012,-1.017,-0.047,1.4896908000000002,10.1413566,-0.8021411999999999,88.4647152,-1.4037471,12.18108708
8.74,874,0.013,-1.014,-0.053,1.432395,10.4278356,-0.8021411999999999,88.47617436,-1.39228794,12.2899491
8.75,875,0.015,-1.008,-0.056,1.4896908000000002,10.313244,-1.0886202,88.48763352,-1.38082878,12.38735196
8.76,876,0.014,-1.005,-0.055,1.8907613999999997,9.740286,-1.3178034,88.44179688,-1.3178034,12.4904844
8.77,877,0.011,-1.002,-0.05,2.5210152000000003,8.9381448,-1.432395,88.4647152,-1.30061466,12.5764281
8.78,878,0.006999999999999999,-0.998,-0.044,3.724227,7.7922288,-1.7188740000000002,88.49909268,-1.28342592,12.65664222
8.79,879,0.006,-0.997,-0.034,4.4690724,7.333862400000001,-2.0053530000000004,88.53919973999999,-1.26623718,12.72539718
8.8,880,0.003,-0.996,-0.027000000000000003,4.8701430000000006,7.2192707999999985,-2.1772404,88.58503637999998,-1.24331886,12.79988172
8.81,881,0.0,-0.996,-0.021,5.2712136,7.5630456000000015,-2.4064236,88.61941386,-1.19748222,12.87436626
8.82,882,-0.005,-0.999,-0.016,5.72958,8.3651868,-2.578311,88.67670966,-1.1688343199999998,12.96030996
8.83,883,-0.012,-1.001,-0.009000000000000001,6.016058999999999,9.224623800000002,-2.6929026,88.73400546,-1.1459160000000002,13.051983240000002
8.84,884,-0.015,-1.004,-0.006999999999999999,6.130650599999999,10.4278356,-2.86479,88.79130126,-1.1172681,13.15511568
8.85,885,-0.014,-1.007,-0.006,5.9014674000000005,11.5737516,-2.9220857999999996,88.84859706,-1.0886202,13.26970728
8.86,886,-0.009000000000000001,-1.009,-0.006999999999999999,5.1566220000000005,13.2353298,-2.9220857999999996,88.88870412,-1.04851314,13.40148762
8.87,887,-0.004,-1.012,-0.011,4.583664,14.32395,-2.7501984,88.93454076,-1.01986524,13.54472712
8.88,888,0.003,-1.016,-0.015,4.1252976000000015,15.126091199999998,-2.5210152000000003,88.96891824000002,-0.9969469199999998,13.6936962
8.89,889,0.009000000000000001,-1.02,-0.019,3.8961144,15.756345000000001,-2.2345362,89.00329572000004,-0.9740286,13.84839486
8.9,890,0.014,-1.021,-0.024,3.7815227999999994,16.042824000000003,-1.8907613999999997,89.03767320000001,-0.95683986,14.008823099999995
8.91,891,0.016,-1.022,-0.028,3.9534102,15.9282324,-1.432395,89.04913236,-0.9167328000000001,14.16925134
8.92,892,0.018000000000000002,-1.018,-0.028,3.8961144,15.6417534,-1.0313244,89.08350984,-0.90527364,14.32395
8.93,893,0.021,-1.017,-0.029,3.7815227999999994,15.2406828,-0.8594370000000001,89.11788732,-0.89954406,14.47291908
8.94,894,0.022,-1.014,-0.031,3.3231564,14.5531332,-0.6875496,89.1522648,-0.89381448,14.62188816
8.95,895,0.024,-1.014,-0.032,3.2085648,13.9228794,-0.7448454000000001,89.1809127,-0.8880849000000001,14.75939808
8.96,896,0.024,-1.013,-0.036000000000000004,2.9793816000000004,13.464512999999998,-0.6875496,89.16372396,-0.8422482600000001,14.89117842
8.97,897,0.025,-1.012,-0.037000000000000005,2.8074942000000003,12.7769634,-0.8021411999999999,89.18664228,-0.83651868,15.02295876
8.98,898,0.024,-1.008,-0.034,2.8074942000000003,11.8029348,-0.8021411999999999,89.20956059999996,-0.8250595199999999,15.13755036
8.99,899,0.022,-1.007,-0.032,2.7501984,10.6570188,-0.9167328,89.2382085,-0.8193299399999999,15.240682800000002
9.0,900,0.021,-1.005,-0.03,2.8074942000000003,10.026765,-0.8594370000000001,89.26112682,-0.8078707799999998,15.34381524
9.01,901,0.02,-1.006,-0.03,2.9220857999999996,9.8548776,-0.9740286,89.24393807999998,-0.76203414,15.4412181
9.02,902,0.017,-1.009,-0.032,3.0366774,9.6256944,-1.2605076000000002,89.27258598,-0.7448454000000001,15.53862096
9.03,903,0.014,-1.007,-0.031,3.151269,9.167328,-1.6615782,89.30696345999998,-0.73338624,15.63029424
9.04,904,0.016,-1.007,-0.029,3.2658606,8.651665800000002,-1.8907613999999997,89.33561136,-0.7161975,15.71623794
9.05,905,0.015,-1.005,-0.027000000000000003,3.3231564,8.250595200000001,-2.0053530000000004,89.36998884,-0.69327918,15.796452060000002
9.06,906,0.019,-1.006,-0.027000000000000003,3.380452200000001,7.7922288,-1.8907613999999997,89.3528001,-0.6302538000000001,15.876666179999996
9.07,907,0.021,-1.008,-0.027000000000000003,3.380452200000001,7.5057497999999985,-1.6615782,89.38717758,-0.61879464,15.951150719999998
9.08,908,0.022,-1.009,-0.025,3.6096354,7.2765666,-1.3750992,89.42155505999996,-0.6016058999999999,16.02563526
9.09,909,0.02,-1.008,-0.024,3.7815227999999994,6.990087599999999,-1.0886202,89.45593253999998,-0.59587632,16.09439022
9.1,910,0.019,-1.006,-0.027000000000000003,3.4950437999999995,6.589017,-1.0886202,89.49031002000002,-0.5844171599999999,16.1574156
9.11,911,0.017,-1.004,-0.029,3.2658606,6.703608600000001,-1.0886202,89.46739170000002,-0.53285094,16.22617056
9.12,912,0.013,-1.005,-0.029,3.0939732,6.6463128000000005,-1.145916,89.49603959999996,-0.52139178,16.29492552
9.13,913,0.01,-1.007,-0.032,2.9220857999999996,6.703608600000001,-1.0886202,89.5246875,-0.5099326200000001,16.3579509
9.14,914,0.01,-1.012,-0.035,2.6356068,6.703608600000001,-1.145916,89.54760582,-0.5042030399999999,16.426705860000002
9.15,915,0.011,-1.01,-0.043,2.5210152000000003,6.4744254,-0.9740286,89.57625372,-0.49274388,16.48973124
9.16,916,0.011,-1.009,-0.039,2.6929026,5.5576926,-0.8021411999999999,89.50749876,-0.44690724,16.541297460000006
9.17,917,0.006999999999999999,-1.003,-0.03,2.4064236,4.7555514,-0.8021411999999999,89.53041707999998,-0.43544808,16.59286368
9.18,918,0.006,-0.996,-0.031,2.9793816000000004,3.380452200000001,-1.0313244,89.56479456,-0.4297185000000001,16.621511579999996
9.19,919,0.008,-0.996,-0.027000000000000003,3.9534102,2.0626488000000003,-1.145916,89.60490161999998,-0.41825934,16.6444299
9.2,920,0.009000000000000001,-1.002,-0.01,4.0680017999999984,1.3178034,-1.0313244,89.64500868,-0.40680018,16.66161864
9.21,921,0.008,-1.014,0.003,3.0366774,1.145916,-1.0313244,89.65073826,-0.33231564,16.678807380000002
9.22,922,0.006,-1.021,0.016,1.7761698,0.7448454000000001,-1.145916,89.66792699999998,-0.32085648,16.68453696
9.23,923,0.009000000000000001,-1.026,0.02,0.11459160000000004,0.7448454000000001,-1.0313244,89.66792699999998,-0.30939732,16.69026654
9.24,924,0.011,-1.024,0.02,-0.9740286,0.9740286,-0.7448454000000001,89.66219742,-0.30366774,16.701725699999994
9.25,925,0.009000000000000001,-1.027,0.028,-1.5469866,0.9740286,-0.4583664000000001,89.64500868,-0.29793816,16.71318486
9.26,926,0.002,-1.029,0.031,-2.5210152000000003,1.145916,-0.286479,89.66792699999998,-0.25783110000000004,16.7303736
9.27,927,-0.001,-1.032,0.032,-3.2085648,1.432395,-0.11459160000000004,89.63354952,-0.25783110000000004,16.747562339999998
9.28,928,-0.004,-1.029,0.028,-3.7815227999999994,1.7188740000000002,-0.11459160000000004,89.59344246,-0.25783110000000004,16.764751080000003
9.29,929,-0.003,-1.022,0.025,-4.0680017999999984,2.1772404,0.0,89.55333540000002,-0.25783110000000004,16.787669400000002
9.3,930,-0.003,-1.013,0.02,-4.0680017999999984,2.3491278,0.057295800000000015,89.51322834,-0.25783110000000004,16.81058772
9.31,931,-0.001,-1.005,0.014,-3.8388186,2.4064236,0.1718874,89.47312128,-0.24637194,16.83350604
9.32,932,0.0,-0.996,0.009000000000000001,-3.4377480000000005,2.6356068,0.11459160000000004,89.4387438,-0.24637194,16.86215394
9.33,933,0.0,-0.986,0.004,-2.9793816000000004,2.6929026,0.11459160000000004,89.40436632,-0.24637194,16.88507226
9.34,934,0.0,-0.981,-0.001,-2.4637194,2.8074942000000003,0.11459160000000004,89.38144799999998,-0.25210152,16.91372016
9.35,935,0.0,-0.978,-0.006,-1.7761698,3.0366774,0.2291832000000001,89.35852968,-0.25210152,16.94809764
9.36,936,0.0,-0.976,-0.006999999999999999,-1.0886202,3.2085648,0.11459160000000004,89.30123388000001,-0.23491278,16.976745540000003
9.37,937,-0.001,-0.978,-0.006,-0.4583664000000001,3.4950437999999995,0.0,89.29550429999998,-0.23491278,17.01112302
9.38,938,-0.003,-0.983,-0.008,0.057295800000000015,3.6669312000000014,0.0,89.29550429999998,-0.23491278,17.0455005
9.39,939,-0.003,-0.988,-0.006999999999999999,0.5156622000000001,3.9534102,0.0,89.30123388000001,-0.23491278,17.085607560000003
9.4,940,-0.003,-0.994,-0.003,0.8594370000000001,4.2398892,0.0,89.30696345999998,-0.23491278,17.12571462
9.41,941,-0.004,-1.001,-0.001,1.2032118,4.0680017999999984,0.057295800000000015,89.28404514,-0.2291832000000001,17.16582168
9.42,942,-0.003,-1.006,-0.001,1.5469866,4.0680017999999984,0.057295800000000015,89.30123388000001,-0.2291832000000001,17.20592874
9.43,943,-0.001,-1.009,-0.002,1.8334656000000005,4.1252976000000015,0.1718874,89.31842262,-0.23491278,17.246035799999998
9.44,944,0.001,-1.011,0.0,2.291832,4.1252976000000015,0.286479,89.34134094,-0.23491278,17.29187244
9.45,945,0.002,-1.014,0.005,2.9220857999999996,3.8961144,0.4010706,89.36998884,-0.24064236,17.326249920000002
9.46,946,0.002,-1.015,0.006999999999999999,3.380452200000001,3.6096354,0.6302538000000001,89.39863674,-0.2291832000000001,17.36635698
9.47,947,0.001,-1.015,0.009000000000000001,3.5523396000000003,3.2085648,0.7448454000000001,89.43301421999998,-0.23491278,17.40073446
9.48,948,0.001,-1.011,0.009000000000000001,3.6669312000000014,3.0366774,0.8594370000000001,89.47312128,-0.24637194,17.429382359999998
9.49,949,0.003,-1.001,0.01,3.7815227999999994,2.6356068,0.9740286,89.50749876,-0.25783110000000004,17.45803026
9.5,950,0.002,-0.998,0.013,3.6096354,2.1772404,1.0313244,89.54760582,-0.26356068,17.48094858
9.51,951,0.001,-0.999,0.011,3.3231564,1.7761698,1.0313244,89.57052414,-0.25210152,17.498137319999998
9.52,952,0.0,-1.002,0.004,2.9220857999999996,1.432395,1.0313244,89.59917204,-0.26356068,17.51532606
9.53,953,0.001,-1.005,-0.002,2.86479,1.2032118,0.9167328,89.62781994000002,-0.26929026,17.52678522
9.54,954,0.002,-1.004,-0.006,3.151269,0.9740286,0.8594370000000001,89.66219742,-0.28074942,17.538244380000002
9.55,955,0.003,-1.003,-0.005,3.4950437999999995,0.572958,0.7448454000000001,89.6965749,-0.28647900000000004,17.54397396
9.56,956,0.003,-1.002,-0.006999999999999999,3.4950437999999995,0.3437748,0.7448454000000001,89.65646783999998,-0.25783110000000004,17.54397396
9.57,957,0.005,-1.004,-0.009000000000000001,3.2085648,0.286479,0.6875496,89.69084532,-0.26356068,17.549703540000007
9.58,958,0.004,-1.008,-0.01,2.9220857999999996,-0.057295800000000015,0.6875496,89.71949322,-0.26929026,17.549703540000007
9.59,959,0.004,-1.011,-0.013,2.6929026,-0.2291832000000001,0.572958,89.74814112,-0.27501984,17.54397396
9.6,960,0.002,-1.013,-0.012,2.5210152000000003,-0.4583664000000001,0.4583664000000001,89.77678902,-0.28074942,17.54397396
9.61,961,0.0,-1.013,-0.01,2.5210152000000003,-0.6875496,0.4010706,89.70803406,-0.25210152,17.52678522
9.62,962,0.0,-1.014,-0.006,2.3491278,-0.6875496,0.2291832000000001,89.73095237999998,-0.25210152,17.52105564
9.63,963,-0.002,-1.014,-0.006999999999999999,2.0053530000000004,-0.6875496,0.2291832000000001,89.74814112,-0.25783110000000004,17.51532606
9.64,964,-0.002,-1.012,-0.008,1.7761698,-0.6302538000000001,0.1718874,89.77105944,-0.25783110000000004,17.50959648
9.65,965,0.0,-1.006,-0.009000000000000001,1.7761698,-0.6875496,0.057295800000000015,89.78824818,-0.25783110000000004,17.5038669
9.66,966,0.0,-1.001,-0.012,1.7188740000000002,-0.8594370000000001,0.1718874,89.67365658,-0.21772404,17.48667816
9.67,967,0.001,-0.998,-0.015,1.6615782,-1.145916,0.11459160000000004,89.69084532,-0.21772404,17.475219
9.68,968,0.0,-0.998,-0.014,1.7188740000000002,-1.2605076000000002,0.4010706,89.70803406,-0.22345362,17.46375984
9.69,969,0.0,-1.002,-0.011,1.8334656000000005,-1.6042823999999998,0.4583664000000001,89.72522280000004,-0.22345362,17.4465711
9.7,970,-0.003,-1.011,-0.008,1.7188740000000002,-2.1772404,0.4583664000000001,89.74814112,-0.2291832000000001,17.42365278
9.71,971,-0.003,-1.016,-0.008,1.2605076000000002,-2.8074942000000003,0.4010706,89.68511574,-0.21772404,17.3892753
9.72,972,-0.004,-1.019,-0.012,1.2032118,-3.2085648,0.286479,89.70230448,-0.22345362,17.3606274
9.73,973,-0.002,-1.018,-0.014,0.9740286,-3.0939732,0.286479,89.71376364,-0.22345362,17.326249920000002
9.74,974,-0.001,-1.011,-0.013,1.0313244,-3.724227,0.286479,89.72522280000004,-0.2291832000000001,17.29187244
9.75,975,-0.002,-1.006,-0.013,1.3178034,-4.6409598,0.3437748,89.73668196000001,-0.2291832000000001,17.246035799999998
9.76,976,-0.002,-1.003,-0.011,1.6042823999999998,-4.9847345999999995,0.572958,89.70803406,-0.22345362,17.188740000000006
9.77,977,-0.004,-1.002,-0.008,1.8907613999999997,-5.0993262,0.6875496,89.72522280000004,-0.2291832000000001,17.13717378
9.78,978,-0.006,-1.005,-0.005,1.9480572,-5.2712136,0.6875496,89.74814112,-0.23491278,17.085607560000003
9.79,979,-0.009000000000000001,-1.01,-0.001,1.7761698,-5.6149884000000005,0.572958,89.76532986,-0.24064236,17.034041339999998
9.8,980,-0.014,-1.013,-0.001,1.2605076000000002,-5.958763200000001,0.572958,89.7825186,-0.24637194,16.97101596
9.81,981,-0.013,-1.012,-0.004,0.8021411999999999,-5.9014674000000005,0.4583664000000001,89.74814112,-0.25783110000000004,16.90799058
9.82,982,-0.012,-1.009,-0.006999999999999999,0.4583664000000001,-6.3025379999999975,0.3437748,89.75387070000002,-0.25783110000000004,16.844965199999994
9.83,983,-0.011,-1.007,-0.008,0.5156622000000001,-6.2452422,0.2291832000000001,89.75960028,-0.25783110000000004,16.781939819999998
9.84,984,-0.011,-1.005,-0.009000000000000001,0.7448454000000001,-6.3025379999999975,0.11459160000000004,89.77105944,-0.25783110000000004,16.71891444
9.85,985,-0.012,-1.005,-0.008,0.9167328,-6.3025379999999975,0.0,89.7825186,-0.25783110000000004,16.66161864
9.86,986,-0.014,-1.005,-0.006999999999999999,1.0313244,-6.130650599999999,-0.057295800000000015,89.74814112,-0.26929026,16.59286368
9.87,987,-0.019,-1.005,-0.003,1.2605076000000002,-5.958763200000001,-0.11459160000000004,89.76532986,-0.26356068,16.5298383
9.88,988,-0.021,-1.007,0.0,1.145916,-5.6722842,-0.1718874,89.77678902,-0.26356068,16.47827208
9.89,989,-0.021,-1.009,-0.003,0.7448454000000001,-5.3858052,-0.057295800000000015,89.7825186,-0.25783110000000004,16.420976279999998
9.9,990,-0.019,-1.008,-0.003,0.3437748,-4.9847345999999995,-0.057295800000000015,89.78824818,-0.25783110000000004,16.37513964
9.91,991,-0.018000000000000002,-1.01,-0.006,0.1718874,-4.8701430000000006,-0.1718874,89.73668196000001,-0.27501984,16.317843840000002
9.92,992,-0.02,-1.007,-0.008,0.057295800000000015,-4.583664,-0.2291832000000001,89.73668196000001,-0.26929026,16.272007199999994
9.93,993,-0.02,-1.006,-0.009000000000000001,0.057295800000000015,-3.9534102,-0.2291832000000001,89.73668196000001,-0.26356068,16.23190014
9.94,994,-0.019,-1.006,-0.009000000000000001,0.3437748,-3.380452200000001,-0.11459160000000004,89.74241154,-0.26356068,16.197522659999994
9.95,995,-0.019,-1.009,-0.005,0.8594370000000001,-3.2658606,0.0,89.75387070000002,-0.26356068,16.16314518
9.96,996,-0.015,-1.014,-0.002,1.0313244,-3.0939732,0.057295800000000015,89.71376364,-0.28074942,16.12303812
9.97,997,-0.014,-1.015,0.001,0.7448454000000001,-2.9793816000000004,0.11459160000000004,89.71949322,-0.28074942,16.09439022
9.98,998,-0.013,-1.013,0.0,0.1718874,-2.9220857999999996,0.1718874,89.72522280000004,-0.28074942,16.06574232
9.99,999,-0.012,-1.01,-0.003,0.0,-2.7501984,0.1718874,89.72522280000004,-0.28074942,16.03709442
10.0,1000,-0.014,-1.006,-0.005,-0.1718874,-2.6356068,0.2291832000000001,89.71949322,-0.28074942,16.0141761
10.01,1001,-0.016,-1.003,-0.006,-0.1718874,-2.4637194,0.286479,89.63354952,-0.31512690000000004,15.974069039999998
10.02,1002,-0.018000000000000002,-1.002,-0.006,-0.1718874,-2.291832,0.286479,89.62781994000002,-0.32085648,15.951150719999998
10.03,1003,-0.02,-1.004,-0.004,-0.2291832000000001,-2.0053530000000004,0.2291832000000001,89.62781994000002,-0.32085648,15.928232399999999
10.04,1004,-0.02,-1.006,-0.002,-0.11459160000000004,-1.6042823999999998,0.2291832000000001,89.62781994000002,-0.32658606,15.91104366
10.05,1005,-0.02,-1.008,-0.002,-0.057295800000000015,-1.3178034,0.1718874,89.62781994000002,-0.32658606,15.8995845
10.06,1006,-0.021,-1.009,-0.004,-0.11459160000000004,-0.9740286,0.1718874,89.45593253999998,-0.4010706000000001,15.859477439999996
10.07,1007,-0.019,-1.009,-0.005,-0.2291832000000001,-0.572958,0.1718874,89.45593253999998,-0.40680018,15.85374786
10.08,1008,-0.018000000000000002,-1.009,-0.005,-0.286479,-0.4583664000000001,0.057295800000000015,89.45020296,-0.40680018,15.84801828
10.09,1009,-0.016,-1.008,-0.006,-0.4010706,-0.3437748,0.057295800000000015,89.45020296,-0.40680018,15.8422887
10.1,1010,-0.016,-1.008,-0.009000000000000001,-0.6302538000000001,-0.1718874,0.0,89.4387438,-0.40680018,15.8422887
10.11,1011,-0.015,-1.008,-0.008,-0.6302538000000001,0.057295800000000015,0.0,89.19237186000002,-0.4526368200000001,15.80791122
10.12,1012,-0.014,-1.01,-0.006,-0.5156622000000001,0.1718874,0.0,89.18664228,-0.4526368200000001,15.813640799999998
10.13,1013,-0.015,-1.009,-0.006999999999999999,-0.5156622000000001,0.2291832000000001,0.0,89.1809127,-0.4526368200000001,15.813640799999998
10.14,1014,-0.014,-1.012,-0.003,-0.5156622000000001,0.4010706,-0.057295800000000015,89.17518312,-0.4526368200000001,15.81937038
10.15,1015,-0.014,-1.015,-0.001,-0.572958,0.3437748,0.0,89.16945354,-0.4526368200000001,15.82509996
10.16,1016,-0.014,-1.013,-0.004,-0.6875496,0.4010706,0.11459160000000004,89.08350984,-0.46982556,15.81937038
10.17,1017,-0.015,-1.008,-0.005,-0.6875496,0.5156622000000001,0.1718874,89.07778026000004,-0.46982556,15.82509996
10.18,1018,-0.015,-1.006,-0.008,-0.572958,0.572958,0.2291832000000001,89.07205067999998,-0.47555514,15.83082954
10.19,1019,-0.015,-1.005,-0.008,-0.5156622000000001,0.6875496,0.286479,89.06632110000002,-0.47555514,15.83655912
10.2,1020,-0.015,-1.004,-0.009000000000000001,-0.4583664000000001,0.572958,0.1718874,89.06059152,-0.48128472,15.8422887
10.21,1021,-0.014,-1.004,-0.013,-0.4010706,0.7448454000000001,0.1718874,88.92881118,-0.4870143000000001,15.83655912
10.22,1022,-0.014,-1.002,-0.013,-0.2291832000000001,0.572958,0.11459160000000004,88.92881118,-0.4870143000000001,15.8422887
10.23,1023,-0.014,-1.004,-0.011,0.0,0.1718874,0.0,88.92881118,-0.4870143000000001,15.84801828
