TimeStamp(s),FrameCounter,AccX,AccY,AccZ,GyrX,GyrY,GyrZ,EulerX,EulerY,EulerZ
0.01,1,-0.052000000000000005,-0.995,0.195,-0.1718874,0.6875496,0.0,99.88949772,-2.6356068,-20.07644832
0.02,2,-0.051,-0.993,0.195,-0.286479,0.9167328000000001,-0.057295800000000015,99.88376814,-2.6356068,-20.06498916
0.03,3,-0.049,-0.9890000000000001,0.195,-0.3437748,0.9740286,-0.057295800000000015,99.87803856,-2.6413363800000003,-20.05353
0.04,4,-0.046,-0.9890000000000001,0.193,-0.40107059999999994,0.9167328000000001,-0.057295800000000015,99.87230898,-2.6413363800000003,-20.04780042
0.05,5,-0.045,-0.9890000000000001,0.192,-0.572958,0.9167328000000001,-0.057295800000000015,99.8665794,-2.62414764,-20.04207084
0.060000000000000005,6,-0.044000000000000004,-0.9890000000000001,0.191,-0.5156622000000001,0.6875496,-0.11459160000000004,99.86084981999998,-2.62414764,-20.03634126
0.06999999999999999,7,-0.043,-0.9890000000000001,0.191,-0.5156622000000001,0.5156622000000001,-0.057295800000000015,99.85512024,-2.62414764,-20.03061168
0.08,8,-0.043,-0.988,0.191,-0.6302538000000001,0.286479,0.0,99.84366108,-2.62414764,-20.024882100000006
0.09,9,-0.044000000000000004,-0.986,0.192,-0.6302538000000001,0.0,0.0,99.8379315,-2.62414764,-20.024882100000006
0.09999999999999999,10,-0.047,-0.985,0.192,-0.572958,-0.11459160000000004,0.0,99.83220192,-2.61841806,-20.03061168
0.11,11,-0.049,-0.985,0.192,-0.5156622000000001,-0.1718874,0.0,99.82647233999998,-2.61841806,-20.03061168
0.12,12,-0.051,-0.986,0.191,-0.3437748,0.057295800000000015,-0.11459160000000004,99.82647233999998,-2.61841806,-20.03061168
0.13,13,-0.053,-0.986,0.192,-0.286479,0.286479,-0.1718874,99.82074276,-2.61841806,-20.03061168
0.14,14,-0.051,-0.987,0.192,-0.1718874,0.4583664000000001,-0.1718874,99.82074276,-2.61841806,-20.024882100000006
0.15000000000000002,15,-0.05,-0.988,0.193,-0.057295800000000015,0.6875496,-0.057295800000000015,99.82074276,-2.61268848,-20.01915252
0.16,16,-0.049,-0.987,0.193,0.0,0.6875496,0.0,99.82074276,-2.61268848,-20.01342294
0.17,17,-0.049,-0.986,0.193,0.057295800000000015,0.5156622000000001,0.057295800000000015,99.82074276,-2.61841806,-20.00769336
0.18000000000000002,18,-0.048,-0.985,0.195,0.11459160000000004,0.6302538000000001,0.057295800000000015,99.82074276,-2.61841806,-20.00196378
0.19,19,-0.047,-0.985,0.198,0.3437748,0.8594370000000001,0.11459160000000004,99.82647233999998,-2.62414764,-19.99050462
0.2,20,-0.046,-0.986,0.19699999999999998,0.40107059999999994,1.0313244000000001,0.1718874,99.8379315,-2.61268848,-19.98477504
0.21000000000000002,21,-0.045,-0.987,0.198,0.4583664000000001,0.9740286,0.286479,99.8379315,-2.61841806,-19.97904546
0.22,22,-0.045,-0.991,0.198,0.286479,0.7448454000000001,0.3437748,99.84366108,-2.62414764,-19.9675863
0.23,23,-0.044000000000000004,-0.993,0.198,0.057295800000000015,0.4583664000000001,0.2291832000000001,99.84366108,-2.62987722,-19.9675863
0.24000000000000002,24,-0.045,-0.9940000000000001,0.198,0.11459160000000004,0.286479,0.2291832000000001,99.84366108,-2.62987722,-19.96185672
0.25,25,-0.045,-0.993,0.19899999999999998,0.11459160000000004,0.2291832000000001,0.2291832000000001,99.87803856,-2.6012293200000003,-19.97331588
0.26,26,-0.046,-0.992,0.19899999999999998,0.11459160000000004,0.286479,0.2291832000000001,99.87803856,-2.6012293200000003,-19.97331588
0.27,27,-0.045,-0.99,0.19899999999999998,0.2291832000000001,0.40107059999999994,0.057295800000000015,99.87803856,-2.6069589,-19.9675863
0.28,28,-0.046,-0.99,0.2,0.057295800000000015,0.4583664000000001,0.057295800000000015,99.87803856,-2.6069589,-19.96185672
0.29000000000000004,29,-0.046,-0.991,0.2,0.057295800000000015,0.5156622000000001,0.057295800000000015,99.88376814,-2.6069589,-19.95612714
0.3,30,-0.046,-0.992,0.2,0.057295800000000015,0.572958,0.11459160000000004,99.90095688,-2.58977016,-19.96185672
0.31,31,-0.045,-0.991,0.201,0.11459160000000004,0.4583664000000001,0.1718874,99.90095688,-2.58977016,-19.95612714
0.32,32,-0.043,-0.991,0.2,0.0,0.40107059999999994,0.1718874,99.90095688,-2.58977016,-19.950397560000006
0.33,33,-0.042,-0.9890000000000001,0.201,0.0,0.286479,0.1718874,99.90095688,-2.59549974,-19.950397560000006
0.34,34,-0.042,-0.988,0.201,0.0,0.11459160000000004,0.11459160000000004,99.90095688,-2.59549974,-19.950397560000006
0.35000000000000003,35,-0.043,-0.9890000000000001,0.2,-0.11459160000000004,0.0,0.286479,99.93533436,-2.5496631,-19.9675863
0.36000000000000004,36,-0.044000000000000004,-0.988,0.2,-0.1718874,0.0,0.2291832000000001,99.93533436,-2.55539268,-19.9675863
0.37,37,-0.045,-0.9890000000000001,0.2,-0.11459160000000004,-0.057295800000000015,0.2291832000000001,99.93533436,-2.55539268,-19.9675863
0.38,38,-0.046,-0.987,0.201,-0.1718874,-0.11459160000000004,0.286479,99.92960478,-2.5611222600000003,-19.97331588
0.39,39,-0.047,-0.987,0.2,-0.11459160000000004,-0.1718874,0.286479,99.92960478,-2.5611222600000003,-19.97331588
0.4,40,-0.047,-0.985,0.201,-0.057295800000000015,-0.11459160000000004,0.286479,99.981171,-2.55539268,-19.97904546
0.41000000000000003,41,-0.048,-0.986,0.2,-0.11459160000000004,-0.11459160000000004,0.286479,99.981171,-2.55539268,-19.98477504
0.42000000000000004,42,-0.048,-0.986,0.201,-0.057295800000000015,-0.3437748,0.11459160000000004,99.981171,-2.55539268,-19.99050462
0.43,43,-0.049,-0.987,0.20199999999999999,0.0,-0.3437748,0.057295800000000015,99.981171,-2.55539268,-19.99050462
0.44,44,-0.049,-0.986,0.20199999999999999,-0.057295800000000015,-0.286479,0.057295800000000015,99.981171,-2.55539268,-19.9962342
0.45,45,-0.049,-0.987,0.201,-0.11459160000000004,-0.286479,0.11459160000000004,100.0098189,-2.55539268,-20.00196378
0.46,46,-0.05,-0.988,0.20199999999999999,0.0,-0.1718874,0.11459160000000004,100.0098189,-2.55539268,-20.00196378
0.47000000000000003,47,-0.049,-0.987,0.201,0.0,-0.2291832000000001,0.1718874,100.0098189,-2.55539268,-20.00769336
0.48000000000000004,48,-0.048,-0.988,0.20199999999999999,0.0,-0.2291832000000001,0.1718874,100.0098189,-2.5611222600000003,-20.00769336
0.49,49,-0.048,-0.9890000000000001,0.20199999999999999,-0.11459160000000004,-0.2291832000000001,0.1718874,100.0098189,-2.5611222600000003,-20.01342294
0.5,50,-0.048,-0.988,0.20199999999999999,0.0,-0.2291832000000001,0.2291832000000001,100.0384668,-2.55539268,-20.01915252
0.51,51,-0.049,-0.9890000000000001,0.20199999999999999,0.0,-0.2291832000000001,0.1718874,100.0384668,-2.5611222600000003,-20.01915252
0.52,52,-0.05,-0.99,0.201,0.0,0.0,0.11459160000000004,100.0384668,-2.5611222600000003,-20.01915252
0.53,53,-0.05,-0.9890000000000001,0.201,0.0,0.057295800000000015,0.057295800000000015,100.0384668,-2.5611222600000003,-20.01915252
0.54,54,-0.05,-0.99,0.203,0.0,0.11459160000000004,0.11459160000000004,100.0384668,-2.5611222600000003,-20.01915252
0.55,55,-0.05,-0.99,0.20199999999999999,-0.11459160000000004,0.11459160000000004,0.057295800000000015,100.09003302,-2.55539268,-20.024882100000006
0.56,56,-0.05,-0.99,0.20199999999999999,-0.1718874,0.11459160000000004,0.1718874,100.08430344,-2.55539268,-20.024882100000006
0.5700000000000001,57,-0.049,-0.991,0.2,-0.1718874,0.1718874,0.286479,100.08430344,-2.5611222600000003,-20.01915252
0.5800000000000001,58,-0.048,-0.991,0.201,-0.1718874,0.11459160000000004,0.2291832000000001,100.08430344,-2.5611222600000003,-20.01915252
0.59,59,-0.048,-0.99,0.20199999999999999,-0.1718874,0.057295800000000015,0.1718874,100.07857386,-2.56685184,-20.01915252
0.6,60,-0.049,-0.988,0.2,-0.286479,0.11459160000000004,0.2291832000000001,100.09003302,-2.5611222600000003,-20.01915252
0.61,61,-0.049,-0.986,0.2,-0.286479,0.1718874,0.2291832000000001,100.08430344,-2.56685184,-20.01915252
0.62,62,-0.05,-0.986,0.20199999999999999,-0.2291832000000001,0.1718874,0.1718874,100.08430344,-2.56685184,-20.01915252
0.63,63,-0.05,-0.985,0.20199999999999999,-0.1718874,0.2291832000000001,0.057295800000000015,100.07857386,-2.57258142,-20.01342294
0.64,64,-0.05,-0.9840000000000001,0.203,-0.057295800000000015,0.1718874,0.11459160000000004,100.07857386,-2.57258142,-20.01342294
0.65,65,-0.05,-0.9840000000000001,0.20199999999999999,-0.1718874,0.286479,0.0,100.11295134,-2.57258142,-20.01342294
0.66,66,-0.049,-0.9840000000000001,0.203,-0.1718874,0.4583664000000001,0.0,100.10722176,-2.578311,-20.00769336
0.67,67,-0.048,-0.985,0.203,0.0,0.6875496,-0.057295800000000015,100.10722176,-2.578311,-20.00196378
0.68,68,-0.046,-0.986,0.203,0.057295800000000015,0.7448454000000001,-0.11459160000000004,100.10722176,-2.578311,-19.99050462
0.6900000000000001,69,-0.045,-0.988,0.204,0.1718874,0.7448454000000001,-0.11459160000000004,100.11295134,-2.578311,-19.98477504
0.7000000000000001,70,-0.043,-0.9890000000000001,0.204,0.2291832000000001,0.6875496,-0.2291832000000001,100.1244105,-2.5611222600000003,-19.98477504
0.7100000000000001,71,-0.044000000000000004,-0.99,0.205,0.2291832000000001,0.8021411999999999,-0.3437748,100.13014008,-2.5611222600000003,-19.97331588
0.72,72,-0.042,-0.992,0.203,0.2291832000000001,0.9740286,-0.3437748,100.13014008,-2.5611222600000003,-19.96185672
0.73,73,-0.040999999999999995,-0.992,0.205,0.1718874,0.4583664000000001,-0.1718874,100.13014008,-2.55539268,-19.95612714
0.74,74,-0.042,-0.99,0.20600000000000002,0.11459160000000004,0.11459160000000004,-0.057295800000000015,100.13014008,-2.55539268,-19.95612714
0.75,75,-0.043,-0.988,0.20600000000000002,0.11459160000000004,0.057295800000000015,0.0,100.19316546,-2.50382646,-19.97331588
0.76,76,-0.044000000000000004,-0.9890000000000001,0.205,0.0,0.057295800000000015,0.2291832000000001,100.19316546,-2.50955604,-19.97331588
0.77,77,-0.045,-0.99,0.203,-0.057295800000000015,0.057295800000000015,0.3437748,100.19316546,-2.50955604,-19.97331588
0.78,78,-0.045,-0.991,0.205,-0.2291832000000001,-0.3437748,0.5156622000000001,100.18743588,-2.51528562,-19.97904546
0.79,79,-0.046,-0.992,0.20600000000000002,-0.5156622000000001,-0.9167328000000001,0.572958,100.1817063,-2.5210152000000003,-19.99050462
0.8,80,-0.047,-0.991,0.205,-0.572958,-1.3750992,0.5156622000000001,100.18743588,-2.5210152000000003,-20.00196378
0.81,81,-0.049,-0.987,0.205,-0.572958,-1.3750992,0.3437748,100.1817063,-2.5210152000000003,-20.01915252
0.8200000000000001,82,-0.052000000000000005,-0.985,0.20600000000000002,-0.40107059999999994,-1.0313244000000001,0.2291832000000001,100.17597672,-2.5210152000000003,-20.03061168
0.8300000000000001,83,-0.053,-0.983,0.207,-0.11459160000000004,-0.8594370000000001,0.1718874,100.17597672,-2.5210152000000003,-20.03634126
0.8400000000000001,84,-0.052000000000000005,-0.9840000000000001,0.20800000000000002,0.0,-0.4583664000000001,0.11459160000000004,100.17597672,-2.5210152000000003,-20.04207084
0.85,85,-0.05,-0.9840000000000001,0.209,0.0,-0.1718874,0.057295800000000015,100.22754294,-2.5210152000000003,-20.04780042
0.86,86,-0.047,-0.986,0.20800000000000002,0.0,-0.1718874,0.1718874,100.22754294,-2.52674478,-20.04780042
0.87,87,-0.044000000000000004,-0.987,0.20800000000000002,0.0,-0.2291832000000001,0.1718874,100.22754294,-2.52674478,-20.05353
0.88,88,-0.042,-0.987,0.209,0.0,-0.1718874,0.1718874,100.22754294,-2.52674478,-20.05353
0.89,89,-0.040999999999999995,-0.987,0.207,-0.11459160000000004,-0.2291832000000001,0.1718874,100.22754294,-2.52674478,-20.05925958
0.9,90,-0.042,-0.986,0.20600000000000002,0.0,-0.4583664000000001,0.1718874,100.26192042,-2.50382646,-20.07071874
0.91,91,-0.043,-0.985,0.207,0.0,-0.572958,0.11459160000000004,100.26192042,-2.50382646,-20.07644832
0.92,92,-0.043,-0.9840000000000001,0.207,0.0,-0.9167328000000001,0.057295800000000015,100.26192042,-2.50382646,-20.08790748
0.93,93,-0.045,-0.9840000000000001,0.207,0.0,-1.0313244000000001,0.0,100.26192042,-2.50382646,-20.09936664
0.9400000000000001,94,-0.047,-0.983,0.20600000000000002,0.057295800000000015,-1.0313244000000001,-0.057295800000000015,100.26765,-2.49809688,-20.10509622
0.9500000000000001,95,-0.05,-0.985,0.20600000000000002,0.1718874,-1.0313244000000001,-0.1718874,100.27910916,-2.49809688,-20.11655538
0.9600000000000001,96,-0.052000000000000005,-0.985,0.209,0.2291832000000001,-0.9167328000000001,-0.1718874,100.28483874,-2.4923672999999997,-20.12801454
0.97,97,-0.051,-0.986,0.20800000000000002,0.1718874,-0.8594370000000001,-0.2291832000000001,100.28483874,-2.48663772,-20.13374412
0.98,98,-0.051,-0.987,0.209,0.1718874,-0.6875496,-0.2291832000000001,100.29056832,-2.48663772,-20.139473700000003
0.99,99,-0.05,-0.988,0.209,0.1718874,-0.7448454000000001,-0.11459160000000004,100.29056832,-2.48090814,-20.14520328
1.0,100,-0.05,-0.987,0.209,0.057295800000000015,-0.9740286,0.0,100.31348664,-2.48663772,-20.15666244
1.01,101,-0.051,-0.987,0.20800000000000002,0.0,-0.6302538000000001,-0.057295800000000015,100.31348664,-2.48663772,-20.16239202
1.02,102,-0.051,-0.9890000000000001,0.209,0.1718874,-0.40107059999999994,0.0,100.31348664,-2.48663772,-20.168121600000006
1.03,103,-0.046,-0.987,0.221,0.40107059999999994,-0.11459160000000004,0.0,100.31921622,-2.48663772,-20.168121600000006
1.04,104,-0.042,-0.978,0.217,0.1718874,0.2291832000000001,-0.1718874,100.31921622,-2.48090814,-20.16239202
1.05,105,-0.045,-0.973,0.207,-0.1718874,0.11459160000000004,-0.40107059999999994,100.3535937,-2.47517856,-20.16239202
1.06,106,-0.045,-0.98,0.21100000000000002,0.3437748,-0.11459160000000004,-0.40107059999999994,100.35932327999998,-2.46944898,-20.168121600000006
1.07,107,-0.052000000000000005,-1.002,0.209,0.11459160000000004,-0.40107059999999994,-0.40107059999999994,100.35932327999998,-2.4637194,-20.168121600000006
1.08,108,-0.053,-1.015,0.20800000000000002,-0.3437748,-0.4583664000000001,-0.1718874,100.3535937,-2.45798982,-20.17385118
1.09,109,-0.048,-1.0070000000000001,0.207,-0.572958,-0.1718874,-0.1718874,100.34786412,-2.45798982,-20.17385118
1.1,110,-0.042,-0.986,0.205,-0.5156622000000001,0.057295800000000015,-0.286479,100.35932327999998,-2.4350715000000003,-20.17958076
1.11,111,-0.04,-0.976,0.209,0.0,0.11459160000000004,-0.40107059999999994,100.35932327999998,-2.4350715000000003,-20.17958076
1.12,112,-0.043,-0.9790000000000001,0.21,0.0,-0.1718874,-0.572958,100.35932327999998,-2.42934192,-20.17958076
1.1300000000000001,113,-0.049,-0.991,0.21,-0.40107059999999994,-0.572958,-0.6875496,100.3535937,-2.41788276,-20.17958076
1.1400000000000001,114,-0.054000000000000006,-1.0,0.20800000000000002,-0.8594370000000001,-0.7448454000000001,-0.6302538000000001,100.34786412,-2.41215318,-20.19103992
1.1500000000000001,115,-0.053,-0.9990000000000001,0.20600000000000002,-1.0886202,-0.5156622000000001,-0.6302538000000001,100.33640496,-2.4064236,-20.19103992
1.1600000000000001,116,-0.05,-0.991,0.20800000000000002,-1.0313244000000001,-0.057295800000000015,-0.5156622000000001,100.3249458,-2.40069402,-20.19103992
1.17,117,-0.049,-0.986,0.21,-0.9740286,0.057295800000000015,-0.286479,100.31348664,-2.40069402,-20.19103992
1.18,118,-0.05,-0.986,0.21,-1.145916,0.0,-0.057295800000000015,100.30202748,-2.40069402,-20.19103992
1.19,119,-0.052000000000000005,-0.986,0.21100000000000002,-1.3178034,0.0,0.0,100.29056832,-2.40069402,-20.19103992
1.2,120,-0.052000000000000005,-0.985,0.21,-1.3178034,0.0,0.0,100.29629789999998,-2.4064236,-20.19103992
1.21,121,-0.052000000000000005,-0.983,0.21100000000000002,-1.145916,0.0,0.0,100.28483874,-2.4064236,-20.19103992
1.22,122,-0.05,-0.981,0.21100000000000002,-1.0886202,0.0,0.057295800000000015,100.27337958,-2.4064236,-20.19103992
1.23,123,-0.049,-0.982,0.212,-1.0313244000000001,0.11459160000000004,0.11459160000000004,100.26192042,-2.41215318,-20.18531034
1.24,124,-0.049,-0.982,0.213,-0.8594370000000001,0.3437748,0.057295800000000015,100.25619084000002,-2.41215318,-20.18531034
1.25,125,-0.048,-0.981,0.214,-0.8594370000000001,0.40107059999999994,0.0,100.26765,-2.41215318,-20.17958076
1.26,126,-0.048,-0.982,0.214,-0.8021411999999999,0.6875496,-0.1718874,100.26192042,-2.41215318,-20.17385118
1.27,127,-0.047,-0.982,0.213,-0.6302538000000001,0.7448454000000001,-0.1718874,100.25619084000002,-2.41215318,-20.168121600000006
1.28,128,-0.045,-0.985,0.213,-0.572958,0.6875496,-0.11459160000000004,100.25046126,-2.41215318,-20.15666244
1.29,129,-0.045,-0.986,0.213,-0.6302538000000001,0.572958,0.0,100.2390021,-2.41215318,-20.15093286
1.3,130,-0.043,-0.988,0.212,-0.5156622000000001,0.4583664000000001,0.057295800000000015,100.26192042,-2.4064236,-20.15093286
1.31,131,-0.043,-0.9890000000000001,0.213,-0.5156622000000001,0.3437748,0.057295800000000015,100.25619084000002,-2.4064236,-20.15093286
1.32,132,-0.044000000000000004,-0.99,0.212,-0.572958,0.2291832000000001,0.0,100.25046126,-2.41215318,-20.14520328
1.33,133,-0.043,-0.992,0.213,-0.5156622000000001,0.11459160000000004,0.0,100.24473168,-2.41215318,-20.14520328
1.34,134,-0.043,-0.993,0.214,-0.572958,0.057295800000000015,0.0,100.2390021,-2.41215318,-20.14520328
1.35,135,-0.044000000000000004,-0.991,0.212,-0.7448454000000001,-0.057295800000000015,0.0,100.25619084000002,-2.40069402,-20.15093286
1.36,136,-0.046,-0.991,0.21100000000000002,-0.8594370000000001,-0.11459160000000004,-0.057295800000000015,100.24473168,-2.39496444,-20.15093286
1.37,137,-0.047,-0.991,0.212,-0.9167328000000001,-0.286479,-0.1718874,100.2390021,-2.39496444,-20.15093286
1.3800000000000001,138,-0.049,-0.991,0.21100000000000002,-1.0313244000000001,-0.286479,-0.2291832000000001,100.22754294,-2.38923486,-20.15666244
1.3900000000000001,139,-0.049,-0.991,0.21100000000000002,-1.0886202,-0.1718874,-0.1718874,100.21608378,-2.38923486,-20.15666244
1.4000000000000001,140,-0.048,-0.99,0.21,-1.0886202,-0.11459160000000004,-0.11459160000000004,100.22181336,-2.38923486,-20.15666244
1.4100000000000001,141,-0.045,-0.9890000000000001,0.21100000000000002,-1.2032118,-0.1718874,-0.057295800000000015,100.2103542,-2.38923486,-20.16239202
1.42,142,-0.044000000000000004,-0.988,0.21,-1.2605076000000002,-0.1718874,0.057295800000000015,100.19889504,-2.38923486,-20.16239202
1.43,143,-0.044000000000000004,-0.987,0.21,-1.2605076000000002,-0.3437748,0.0,100.18743588,-2.38923486,-20.168121600000006
1.44,144,-0.044000000000000004,-0.987,0.209,-1.3178034,-0.4583664000000001,0.0,100.17024714,-2.38350528,-20.17385118
1.45,145,-0.045,-0.985,0.21,-1.2605076000000002,-0.572958,0.057295800000000015,100.17597672,-2.38350528,-20.17958076
1.46,146,-0.046,-0.983,0.21,-0.286479,-0.6302538000000001,0.0,100.17597672,-2.38350528,-20.18531034
1.47,147,-0.048,-0.9840000000000001,0.21,-0.2291832000000001,-0.5156622000000001,0.0,100.17024714,-2.38350528,-20.19103992
1.48,148,-0.048,-0.985,0.21,-0.286479,-0.572958,0.0,100.17024714,-2.3777757,-20.196769500000002
1.49,149,-0.048,-0.985,0.21,-0.3437748,-0.4583664000000001,0.0,100.16451756,-2.3777757,-20.20249908
1.5,150,-0.047,-0.986,0.21,-0.286479,-0.572958,0.0,100.19316546,-2.38350528,-20.20822866
1.51,151,-0.047,-0.988,0.21,-0.286479,-0.5156622000000001,0.0,100.18743588,-2.3777757,-20.21395824
1.52,152,-0.045,-0.987,0.209,-0.40107059999999994,-0.6302538000000001,0.0,100.18743588,-2.3777757,-20.21968782
1.53,153,-0.043,-0.988,0.21,-0.3437748,-0.4583664000000001,0.057295800000000015,100.1817063,-2.3777757,-20.2254174
1.54,154,-0.043,-0.987,0.21,-0.2291832000000001,-0.40107059999999994,0.057295800000000015,100.1817063,-2.3777757,-20.23114698
1.55,155,-0.045,-0.986,0.21,-0.286479,-0.6302538000000001,0.0,100.22181336,-2.38350528,-20.23687656
1.56,156,-0.046,-0.987,0.21,-0.286479,-0.286479,-0.11459160000000004,100.21608378,-2.3777757,-20.23687656
1.57,157,-0.046,-0.9890000000000001,0.209,-0.11459160000000004,-0.11459160000000004,0.0,100.21608378,-2.3777757,-20.24260614
1.58,158,-0.044000000000000004,-0.988,0.20800000000000002,-0.11459160000000004,-0.286479,0.057295800000000015,100.21608378,-2.3777757,-20.24260614
1.59,159,-0.045,-0.987,0.20800000000000002,-0.1718874,-0.3437748,0.2291832000000001,100.2103542,-2.38350528,-20.24833572
1.6,160,-0.046,-0.986,0.21,-0.11459160000000004,-0.3437748,0.2291832000000001,100.2390021,-2.38350528,-20.2540653
1.61,161,-0.047,-0.986,0.21,-0.11459160000000004,-0.1718874,0.1718874,100.2390021,-2.38350528,-20.2540653
1.62,162,-0.048,-0.988,0.209,-0.286479,0.057295800000000015,0.2291832000000001,100.2390021,-2.38350528,-20.2540653
1.6300000000000001,163,-0.047,-0.991,0.20800000000000002,-0.3437748,-0.057295800000000015,0.1718874,100.23327252,-2.38923486,-20.2540653
1.6400000000000001,164,-0.047,-0.9940000000000001,0.209,-0.572958,-0.40107059999999994,0.1718874,100.22754294,-2.38923486,-20.25979488
1.6500000000000001,165,-0.047,-0.9940000000000001,0.20800000000000002,-0.7448454000000001,-0.6302538000000001,0.1718874,100.23327252,-2.38923486,-20.26552446
1.6600000000000001,166,-0.048,-0.992,0.207,-0.572958,-0.572958,0.1718874,100.22754294,-2.38923486,-20.276983620000006
1.6700000000000002,167,-0.047,-0.99,0.207,-0.2291832000000001,-0.11459160000000004,0.2291832000000001,100.22181336,-2.39496444,-20.276983620000006
1.68,168,-0.047,-0.988,0.21,-0.057295800000000015,0.0,0.286479,100.22181336,-2.39496444,-20.276983620000006
1.69,169,-0.046,-0.986,0.21,-0.057295800000000015,0.057295800000000015,0.40107059999999994,100.22181336,-2.40069402,-20.276983620000006
1.7,170,-0.047,-0.9840000000000001,0.21,-0.2291832000000001,0.2291832000000001,0.40107059999999994,100.25046126,-2.4064236,-20.276983620000006
1.71,171,-0.047,-0.9840000000000001,0.20800000000000002,-0.286479,0.1718874,0.40107059999999994,100.24473168,-2.41215318,-20.276983620000006
1.72,172,-0.047,-0.985,0.20800000000000002,-0.286479,0.1718874,0.40107059999999994,100.2390021,-2.41788276,-20.27125404
1.73,173,-0.048,-0.9840000000000001,0.207,-0.2291832000000001,0.2291832000000001,0.40107059999999994,100.2390021,-2.41788276,-20.27125404
1.74,174,-0.047,-0.987,0.20600000000000002,-0.1718874,0.2291832000000001,0.40107059999999994,100.2390021,-2.42361234,-20.27125404
1.75,175,-0.048,-0.985,0.20600000000000002,-0.11459160000000004,0.286479,0.40107059999999994,100.25619084000002,-2.4350715000000003,-20.26552446
1.76,176,-0.047,-0.982,0.204,0.0,0.2291832000000001,0.286479,100.25619084000002,-2.4350715000000003,-20.26552446
1.77,177,-0.048,-0.9840000000000001,0.203,0.3437748,0.286479,0.1718874,100.25619084000002,-2.44080108,-20.26552446
1.78,178,-0.049,-0.983,0.204,0.40107059999999994,0.11459160000000004,0.1718874,100.26192042,-2.44080108,-20.25979488
1.79,179,-0.049,-0.983,0.204,0.6302538000000001,0.1718874,0.1718874,100.26765,-2.44653066,-20.25979488
1.8,180,-0.05,-0.985,0.203,0.572958,0.057295800000000015,0.1718874,100.28483874,-2.45226024,-20.25979488
1.81,181,-0.051,-0.986,0.204,0.7448454000000001,0.057295800000000015,0.057295800000000015,100.29629789999998,-2.45226024,-20.25979488
1.82,182,-0.051,-0.986,0.204,0.572958,0.11459160000000004,0.0,100.30202748,-2.45226024,-20.2540653
1.83,183,-0.051,-0.986,0.204,0.572958,0.11459160000000004,0.0,100.30775706,-2.45226024,-20.2540653
1.84,184,-0.051,-0.9890000000000001,0.204,0.5156622000000001,0.1718874,-0.11459160000000004,100.31348664,-2.45226024,-20.2540653
1.85,185,-0.051,-0.9890000000000001,0.204,0.5156622000000001,0.057295800000000015,-0.1718874,100.33067538,-2.46944898,-20.24833572
1.86,186,-0.052000000000000005,-0.9890000000000001,0.205,0.40107059999999994,0.1718874,-0.1718874,100.33640496,-2.4637194,-20.24833572
1.87,187,-0.051,-0.9890000000000001,0.203,0.286479,0.4583664000000001,-0.1718874,100.33640496,-2.4637194,-20.24260614
1.8800000000000001,188,-0.049,-0.9890000000000001,0.203,0.40107059999999994,0.6875496,-0.1718874,100.34213454,-2.4637194,-20.23687656
1.8900000000000001,189,-0.047,-0.99,0.205,0.286479,0.7448454000000001,-0.11459160000000004,100.34786412,-2.4637194,-20.2254174
1.9000000000000001,190,-0.046,-0.992,0.205,0.40107059999999994,0.6302538000000001,-0.057295800000000015,100.35932327999998,-2.45226024,-20.2254174
1.9100000000000001,191,-0.045,-0.992,0.207,0.057295800000000015,0.40107059999999994,0.0,100.35932327999998,-2.45226024,-20.21968782
1.9200000000000002,192,-0.044000000000000004,-0.992,0.20800000000000002,0.0,0.3437748,0.0,100.35932327999998,-2.45226024,-20.21395824
1.93,193,-0.044000000000000004,-0.992,0.207,-0.11459160000000004,0.286479,0.0,100.35932327999998,-2.45226024,-20.21395824
1.94,194,-0.044000000000000004,-0.991,0.20600000000000002,-0.1718874,0.2291832000000001,-0.11459160000000004,100.3535937,-2.45226024,-20.20822866
1.95,195,-0.043,-0.991,0.207,-0.1718874,0.286479,-0.057295800000000015,100.3822416,-2.42361234,-20.21395824
1.96,196,-0.044000000000000004,-0.988,0.20800000000000002,-0.2291832000000001,0.0,-0.11459160000000004,100.37651202,-2.42361234,-20.21395824
1.97,197,-0.045,-0.986,0.207,-0.286479,-0.2291832000000001,-0.2291832000000001,100.37651202,-2.42361234,-20.21395824
1.98,198,-0.046,-0.9840000000000001,0.20800000000000002,-0.2291832000000001,-0.286479,-0.2291832000000001,100.37078244,-2.41788276,-20.21395824
1.99,199,-0.046,-0.982,0.207,-0.2291832000000001,-0.2291832000000001,-0.2291832000000001,100.37078244,-2.41788276,-20.21968782
2.0,200,-0.047,-0.981,0.20800000000000002,-0.11459160000000004,-0.2291832000000001,-0.2291832000000001,100.39370076,-2.41215318,-20.21968782
2.01,201,-0.047,-0.982,0.20800000000000002,0.0,-0.2291832000000001,-0.1718874,100.39370076,-2.4064236,-20.2254174
2.02,202,-0.048,-0.982,0.21,0.057295800000000015,-0.2291832000000001,-0.2291832000000001,100.39370076,-2.4064236,-20.2254174
2.03,203,-0.048,-0.983,0.207,0.0,-0.286479,-0.11459160000000004,100.39370076,-2.40069402,-20.23114698
2.04,204,-0.049,-0.9840000000000001,0.207,0.0,-0.5156622000000001,-0.11459160000000004,100.39370076,-2.40069402,-20.23114698
2.05,205,-0.05,-0.9840000000000001,0.207,-0.057295800000000015,-0.572958,-0.057295800000000015,100.4108895,-2.41215318,-20.23687656
2.0599999999999996,206,-0.05,-0.987,0.207,-0.11459160000000004,-0.3437748,-0.11459160000000004,100.40515992,-2.41215318,-20.24260614
2.07,207,-0.048,-0.988,0.20800000000000002,-0.286479,-0.286479,-0.057295800000000015,100.40515992,-2.4064236,-20.24260614
2.0799999999999996,208,-0.049,-0.99,0.207,-0.3437748,-0.057295800000000015,0.0,100.39943034,-2.4064236,-20.24260614
2.09,209,-0.05,-0.992,0.20800000000000002,-0.4583664000000001,0.057295800000000015,0.0,100.39370076,-2.4064236,-20.24260614
2.0999999999999996,210,-0.05,-0.992,0.209,-0.6302538000000001,0.1718874,0.0,100.39943034,-2.41788276,-20.24260614
2.11,211,-0.051,-0.993,0.209,-1.0886202,0.2291832000000001,0.11459160000000004,100.38797118,-2.41788276,-20.24260614
2.1199999999999997,212,-0.05,-0.995,0.209,-1.3178034,0.1718874,0.11459160000000004,100.37651202,-2.41788276,-20.23687656
2.13,213,-0.048,-0.997,0.209,-1.5469866,0.3437748,0.11459160000000004,100.35932327999998,-2.42361234,-20.23687656
2.1399999999999997,214,-0.048,-0.9990000000000001,0.20800000000000002,-2.0626488000000003,0.572958,0.11459160000000004,100.33640496,-2.42361234,-20.23114698
2.15,215,-0.048,-1.001,0.20800000000000002,-2.4637194,0.7448454000000001,0.1718874,100.31348664,-2.42934192,-20.2254174
2.1599999999999997,216,-0.047,-1.004,0.205,-2.86479,1.145916,0.11459160000000004,100.28483874,-2.42934192,-20.21395824
2.17,217,-0.046,-1.004,0.207,-3.0939732,1.3178034,0.057295800000000015,100.25046126,-2.4350715000000003,-20.20249908
2.1799999999999997,218,-0.049,-1.004,0.204,-3.380452200000001,1.2032118,0.0,100.21608378,-2.44080108,-20.19103992
2.19,219,-0.051,-1.0,0.204,-3.7242269999999995,0.8594370000000001,0.0,100.17597672,-2.44080108,-20.17958076
2.1999999999999997,220,-0.052000000000000005,-0.997,0.204,-3.7815228,0.572958,0.0,100.14159924,-2.44653066,-20.17385118
2.21,221,-0.052000000000000005,-0.996,0.20600000000000002,-4.1825934,0.286479,-0.11459160000000004,100.10149218,-2.44653066,-20.17385118
2.2199999999999998,222,-0.053,-0.991,0.21,-4.4117766,0.0,0.0,100.05565554,-2.44653066,-20.17385118
2.23,223,-0.057,-0.9890000000000001,0.215,-4.8128472,-0.4583664000000001,0.057295800000000015,100.00408932,-2.44653066,-20.17958076
2.2399999999999998,224,-0.057999999999999996,-0.9890000000000001,0.212,-5.5003968,-0.40107059999999994,-0.057295800000000015,99.94679352,-2.44653066,-20.18531034
2.25,225,-0.055,-0.991,0.20600000000000002,-5.844171599999999,-0.2291832000000001,-0.11459160000000004,99.8952273,-2.44653066,-20.18531034
2.26,226,-0.05,-0.996,0.20199999999999999,-5.958763200000001,0.1718874,-0.1718874,99.83220192,-2.44080108,-20.18531034
2.27,227,-0.049,-1.006,0.198,-6.1879464,0.6302538000000001,-0.2291832000000001,99.76917654,-2.44080108,-20.17958076
2.28,228,-0.049,-1.011,0.196,-6.417129599999999,0.9740286,-0.2291832000000001,99.70615116,-2.44080108,-20.168121600000006
2.29,229,-0.05,-1.0090000000000001,0.198,-6.7609043999999985,1.145916,-0.057295800000000015,99.63166662,-2.44080108,-20.15666244
2.3,230,-0.051,-1.004,0.201,-6.990087599999999,1.145916,0.11459160000000004,99.56864124,-2.44653066,-20.14520328
2.31,231,-0.052000000000000005,-1.001,0.205,-7.1046792000000005,0.9740286,0.057295800000000015,99.4941567,-2.45226024,-20.139473700000003
2.32,232,-0.05,-0.996,0.207,-7.448453999999999,0.9740286,0.11459160000000004,99.41967216,-2.45798982,-20.12801454
2.3299999999999996,233,-0.046,-0.9940000000000001,0.207,-7.6203414,0.9740286,0.2291832000000001,99.33945804,-2.4637194,-20.12228496
2.34,234,-0.043,-0.995,0.205,-8.078707799999998,0.9167328000000001,0.286479,99.25351434,-2.4637194,-20.11655538
2.3499999999999996,235,-0.044000000000000004,-0.9940000000000001,0.20199999999999999,-8.651665800000002,0.6302538000000001,0.3437748,99.17330022000002,-2.46944898,-20.1108258
2.36,236,-0.045,-0.9940000000000001,0.2,-9.0527364,0.5156622000000001,0.4583664000000001,99.08162694,-2.47517856,-20.10509622
2.3699999999999997,237,-0.047,-0.995,0.2,-9.2819196,0.4583664000000001,0.40107059999999994,98.98422408,-2.48090814,-20.10509622
2.38,238,-0.05,-0.996,0.201,-9.740286,0.6302538000000001,0.2291832000000001,98.88682122,-2.48663772,-20.09936664
2.3899999999999997,239,-0.052000000000000005,-0.998,0.19699999999999998,-10.084060800000001,0.8594370000000001,0.0,98.78368878,-2.48663772,-20.09363706
2.4,240,-0.052000000000000005,-1.001,0.193,-10.657018800000001,0.9167328000000001,-0.057295800000000015,98.68055634,-2.4923672999999997,-20.0821779
2.4099999999999997,241,-0.052000000000000005,-1.006,0.19399999999999998,-11.2872726,0.8021411999999999,-0.057295800000000015,98.56596474,-2.4923672999999997,-20.07644832
2.42,242,-0.051,-1.0070000000000001,0.196,-11.8602306,0.8594370000000001,0.0,98.43991398,-2.49809688,-20.07071874
2.4299999999999997,243,-0.051,-1.0090000000000001,0.193,-12.6623718,1.0886202,0.0,98.31386322,-2.49809688,-20.05925958
2.44,244,-0.05,-1.013,0.191,-13.464512999999998,1.3178034,0.0,98.17635329999999,-2.50382646,-20.04780042
2.4499999999999997,245,-0.049,-1.02,0.188,-14.1520626,1.5469866,0.057295800000000015,98.0331138,-2.50382646,-20.03634126
2.46,246,-0.048,-1.026,0.187,-14.9542038,1.3750992,0.0,97.88414472,-2.50955604,-20.024882100000006
2.4699999999999998,247,-0.049,-1.031,0.182,-16.2147114,1.145916,0.0,97.7179869,-2.50955604,-20.01342294
2.48,248,-0.052000000000000005,-1.032,0.174,-17.3606274,1.0313244000000001,0.0,97.54036992,-2.51528562,-20.00769336
2.4899999999999998,249,-0.054000000000000006,-1.028,0.168,-17.8189938,1.3178034,0.057295800000000015,97.35702336,-2.5210152000000003,-19.9962342
2.5,250,-0.059000000000000004,-1.022,0.166,-18.2200644,1.7761698000000001,0.057295800000000015,97.1736768,-2.52674478,-19.97904546
2.51,251,-0.062,-1.014,0.162,-18.907614,2.291832,0.0,96.97887108,-2.52674478,-19.96185672
2.52,252,-0.06,-1.0070000000000001,0.159,-19.308684600000007,2.6929026,0.0,96.78406536,-2.53247436,-19.93320882
2.53,253,-0.057999999999999996,-1.003,0.153,-19.652459399999998,2.9793816000000004,0.0,96.58353006,-2.53820394,-19.9102905
2.54,254,-0.057999999999999996,-1.004,0.147,-19.8243468,3.0939732,0.286479,96.37726518,-2.5496631,-19.8816426
2.55,255,-0.055999999999999994,-1.005,0.14800000000000002,-19.8243468,2.9793816000000004,0.8021411999999999,96.17672988,-2.5611222600000003,-19.8529947
2.56,256,-0.054000000000000006,-1.006,0.14800000000000002,-19.9389384,2.8074942000000003,1.145916,95.97619458,-2.578311,-19.83007638
2.57,257,-0.05,-1.006,0.146,-20.05353,2.86479,1.3750992,95.7699297,-2.59549974,-19.80715806
2.5799999999999996,258,-0.049,-1.01,0.13699999999999998,-20.2827132,3.0366774,1.5469866,95.55793524,-2.61841806,-19.77851016
2.59,259,-0.045,-1.016,0.129,-20.912967000000002,3.2658606,1.6042823999999998,95.34594078,-2.6413363800000003,-19.74986226
2.5999999999999996,260,-0.042,-1.0170000000000001,0.124,-21.657812399999997,3.2658606,1.6615782,95.12821674,-2.6642547000000003,-19.72121436
2.61,261,-0.040999999999999995,-1.016,0.11800000000000001,-21.829699800000004,3.2658606,1.8907614,94.89903354,-2.68717302,-19.69829604
2.6199999999999997,262,-0.038,-1.023,0.125,-22.5745452,3.4950437999999995,2.0053530000000004,94.66985034,-2.71009134,-19.66391856
2.63,263,-0.04,-1.0270000000000001,0.133,-24.694489800000003,2.9793816000000004,2.1199446,94.41774882,-2.73873924,-19.64100024
2.6399999999999997,264,-0.045,-1.028,0.131,-26.929026,2.4064236,2.2345362,94.14272898,-2.76165756,-19.6238115
2.65,265,-0.049,-1.03,0.128,-29.1062664,2.1772404,2.1772404,93.85052040000001,-2.79030546,-19.60662276
2.6599999999999997,266,-0.05,-1.036,0.121,-30.7105488,2.0626488000000003,2.1199446,93.53539350000001,-2.81322378,-19.58943402
2.67,267,-0.052000000000000005,-1.048,0.11900000000000001,-32.830493399999995,1.432395,2.1199446,93.20307786,-2.84187168,-19.57797486
2.6799999999999997,268,-0.053,-1.053,0.113,-34.7212548,1.2032118,1.8907614,92.8478439,-2.86479,-19.57224528
2.69,269,-0.048,-1.056,0.10800000000000001,-35.8671708,1.9480572,1.9480572,92.48688036,-2.88770832,-19.56078612
2.6999999999999997,270,-0.049,-1.058,0.113,-37.24227,2.9220858,1.9480572,92.10872808,-2.91062664,-19.5378678
2.71,271,-0.055999999999999994,-1.054,0.12,-39.247623,3.4377480000000005,1.8907614,91.70765748,-2.93354496,-19.5092199
2.7199999999999998,272,-0.062,-1.055,0.121,-41.9405256,3.3231564,1.8334656000000005,91.27793898,-2.9564632800000004,-19.480572
2.73,273,-0.065,-1.056,0.11599999999999999,-44.977203,2.86479,1.6615782,90.81957258,-2.9793816000000004,-19.45765368
2.7399999999999998,274,-0.069,-1.062,0.109,-47.3836266,2.4064236,1.4896908000000002,90.33828786,-2.9965703400000003,-19.44046494
2.75,275,-0.068,-1.073,0.10099999999999999,-49.847346,2.4064236,1.145916,89.83981440000002,-3.0137590800000003,-19.41754662
2.76,276,-0.066,-1.0759999999999998,0.098,-51.5089242,2.6929026,0.9167328000000001,89.31269304,-3.03094782,-19.40035788
2.77,277,-0.064,-1.075,0.095,-52.7694318,2.9793816000000004,0.6875496,88.77411251999996,-3.04240698,-19.37170998
2.78,278,-0.068,-1.075,0.09,-54.4883058,3.2085647999999996,0.40107059999999994,88.21834326000004,-3.05386614,-19.34879166
2.79,279,-0.066,-1.08,0.076,-56.5509546,4.1252976000000015,0.286479,87.64538526,-3.05959572,-19.31441418
2.8,280,-0.07,-1.081,0.07400000000000001,-58.67089920000001,4.7555514,0.3437748,87.04950894,-3.0653253000000005,-19.27430712
2.81,281,-0.08199999999999999,-1.07,0.07,-61.4210976,5.0993262,0.6875496,86.42498472,-3.07678446,-19.22847048
2.82,282,-0.087,-1.055,0.063,-64.3431834,5.3285094000000015,0.9167328000000001,85.76608302,-3.0939732,-19.18263384
2.8299999999999996,283,-0.079,-1.0490000000000002,0.061,-67.26526919999999,5.2139178,1.145916,85.07853342,-3.1054323600000004,-19.1367972
2.84,284,-0.071,-1.046,0.054000000000000006,-69.32791800000001,4.8701430000000006,1.6042823999999998,84.37379508000002,-3.12835068,-19.09669014
2.8499999999999996,285,-0.065,-1.05,0.048,-71.5051584,4.2398892,2.2345362,83.65186800000002,-3.1512689999999997,-19.056583080000006
2.86,286,-0.057,-1.052,0.036000000000000004,-73.79699040000001,3.5523396000000003,3.0366774,82.90129302,-3.18564648,-19.02793518
2.8699999999999997,287,-0.053,-1.055,0.021,-75.8596392,2.6929026,3.7815228,82.12779972,-3.2257535399999995,-19.00501686
2.88,288,-0.047,-1.061,0.016,-78.03687959999998,1.5469866,4.297185,81.33711767999998,-3.27731976,-18.98782812
2.8899999999999997,289,-0.045,-1.053,-0.01,-79.92764100000002,0.3437748,4.6409598,80.52351732,-3.32888598,-18.98782812
2.9,290,-0.053,-1.043,-0.043,-80.8443738,0.286479,4.8128472,79.70991696000002,-3.38618178,-18.982098540000006
2.9099999999999997,291,-0.062,-1.033,-0.039,-81.47462759999998,1.145916,4.4117766,78.87912786,-3.43201842,-18.97063938
2.92,292,-0.069,-1.034,0.016,-83.0216142,0.9740286,3.7242269999999995,78.03687959999998,-3.47785506,-18.9649098
2.9299999999999997,293,-0.07200000000000001,-1.016,0.0,-87.26150340000002,0.057295800000000015,2.86479,77.14879470000002,-3.5122325400000003,-18.9649098
2.94,294,-0.075,-1.005,-0.067,-90.7565472,1.5469866,2.3491277999999998,76.23206189999998,-3.54088044,-18.95345064
2.9499999999999997,295,-0.07,-1.001,-0.067,-92.07435059999999,4.4117766,2.1772404,75.29814036,-3.56379876,-18.91334358
2.96,296,-0.064,-1.015,-0.036000000000000004,-91.6159842,5.72958,2.4637194,74.36421881999998,-3.58671708,-18.86177736
2.9699999999999998,297,-0.042,-1.0390000000000001,-0.17600000000000002,-92.93378759999999,3.8961144,3.3231564,73.41883812,-3.61536498,-18.8216703
2.98,298,-0.025,-1.063,-0.19699999999999998,-92.93378759999999,1.432395,4.3544808,72.47345742,-3.666931200000001,-18.80448156
2.9899999999999998,299,-0.048,-1.115,-0.17800000000000002,-91.5586884,-3.7242269999999995,5.72958,71.54526546,-3.74141574,-18.82739988
3.0,300,-0.10099999999999999,-1.147,-0.226,-96.7153104,-6.990087599999999,6.589017,70.57123686,-3.83308902,-18.878966100000003
3.01,301,-0.106,-1.1740000000000002,-0.322,-99.2936214,-7.333862400000001,7.3911582,69.56856035999999,-3.93622146,-18.93053232
3.02,302,-0.105,-1.183,-0.359,-103.3043274,-7.906820400000001,7.7922288,68.52577679999999,-4.05081306,-18.98782812
3.03,303,-0.10400000000000001,-1.185,-0.45799999999999996,-103.5908064,-5.1566220000000005,7.906820400000001,67.47726365999999,-4.1539455,-19.01647602
3.04,304,-0.106,-1.1909999999999998,-0.525,-100.61142480000001,-0.9167328000000001,7.5630456000000015,66.45739842,-4.2398892,-18.99928728
3.05,305,-0.10300000000000001,-1.214,-0.542,-95.2829154,3.0366774,7.1046792000000005,65.48336982,-4.30291458,-18.95345064
3.06,306,-0.10099999999999999,-1.205,-0.517,-91.10032199999999,6.4744254,4.8128472,64.55517785999999,-4.3315624800000005,-18.878966100000003
3.07,307,-0.10300000000000001,-1.162,-0.522,-87.49068659999998,8.3651868,2.9793816000000004,63.6556338,-4.33729206,-18.7930224
3.08,308,-0.105,-1.113,-0.5429999999999999,-84.91237559999998,8.021412000000002,2.6929026,62.79046722,-4.33729206,-18.71853786
3.09,309,-0.111,-1.053,-0.578,-82.90702259999998,7.0473834,2.5210152000000003,61.94248938,-4.33729206,-18.64405332
3.0999999999999996,310,-0.114,-1.0070000000000001,-0.602,-79.18279559999998,6.589017,1.8907614,61.12888902000001,-4.33729206,-18.58102794
3.11,311,-0.102,-0.9940000000000001,-0.607,-74.88561059999998,6.1879464,1.6042823999999998,60.36685487999999,-4.3315624800000005,-18.52373214
3.1199999999999997,312,-0.087,-0.973,-0.625,-71.04679200000002,5.5576926,1.5469866,59.63919822,-4.325832900000001,-18.47216592
3.13,313,-0.076,-0.94,-0.64,-67.1506776,5.1566220000000005,1.8334656000000005,58.95164862,-4.325832900000001,-18.4205997
3.1399999999999997,314,-0.069,-0.892,-0.639,-61.8221682,5.3858052,2.5210152000000003,58.32139482,-4.3315624800000005,-18.36903348
3.15,315,-0.061,-0.855,-0.648,-54.8320806,5.6149884000000005,3.8388186,57.74843682000001,-4.34302164,-18.30027852
3.1599999999999997,316,-0.067,-0.852,-0.636,-47.498218200000004,5.443101,4.8701430000000006,57.26142252,-4.36021038,-18.23152356
3.17,317,-0.079,-0.875,-0.617,-41.3675676,5.3285094000000015,5.2712136,56.837433600000004,-4.3831287,-18.15703902
3.1799999999999997,318,-0.091,-0.9009999999999999,-0.604,-37.013086799999996,5.3285094000000015,5.0993262,56.45355174,-4.40031744,-18.08828406
3.19,319,-0.099,-0.929,-0.596,-33.518043,5.844171599999999,4.8128472,56.10404736,-4.41750618,-18.01379952
3.1999999999999997,320,-0.105,-0.9570000000000001,-0.589,-30.882436199999997,6.417129599999999,4.4690724,55.78892046,-4.42323576,-17.9335854
3.21,321,-0.114,-0.958,-0.584,-29.5646328,6.990087599999999,4.0680017999999984,55.47952314000001,-4.42323576,-17.85337128
3.2199999999999998,322,-0.11199999999999999,-0.91,-0.575,-28.6479,7.9641161999999985,3.5523396000000003,55.18158498,-4.4117766000000005,-17.77315716
3.23,323,-0.106,-0.858,-0.59,-26.929026,8.880849000000003,3.1512689999999997,54.90083556,-4.39458786,-17.68148388
3.2399999999999998,324,-0.09699999999999999,-0.8170000000000001,-0.5920000000000001,-24.522602399999997,9.682990199999999,2.6356068,54.64300446000001,-4.36593996,-17.58408102
3.25,325,-0.083,-0.7909999999999999,-0.588,-22.345361999999998,9.9121734,2.1199446,54.40236209999999,-4.3315624800000005,-17.492407739999994
3.26,326,-0.076,-0.772,-0.56,-19.4232762,9.9121734,1.4896908000000002,54.19609722,-4.29145542,-17.40073446
3.27,327,-0.069,-0.758,-0.5529999999999999,-17.131444199999994,9.7975818,0.6302538000000001,54.01275066,-4.24561878,-17.32052034
3.28,328,-0.062,-0.741,-0.541,-14.8396122,9.396511199999999,-0.11459160000000004,53.858052,-4.19405256,-17.246035799999998
3.29,329,-0.065,-0.7340000000000001,-0.528,-12.318597,8.8235532,-0.572958,53.72627166000001,-4.13675676,-17.17728084
3.3,330,-0.066,-0.732,-0.528,-9.9121734,7.7922288,-0.9167328000000001,53.61740964000001,-4.09092012,-17.11998504
3.31,331,-0.063,-0.7290000000000001,-0.496,-7.161975,6.5317212,-1.145916,53.54292510000001,-4.04508348,-17.0741484
3.32,332,-0.057,-0.7240000000000001,-0.512,-5.7868758000000025,5.9014674000000005,-1.2032118,53.47989972000001,-3.99924684,-17.02831176
3.33,333,-0.055999999999999994,-0.71,-0.4970000000000001,-3.6096353999999997,4.9847346,-1.4896908000000002,53.43979266,-3.95913978,-16.999663860000002
3.34,334,-0.061,-0.7020000000000001,-0.499,-1.5469866,4.1252976000000015,-1.6042823999999998,53.42260391999999,-3.9247623,-16.976745540000003
3.3499999999999996,335,-0.069,-0.691,-0.48200000000000004,0.9167328000000001,3.6669312000000014,-2.1199446,53.4283335,-3.89038482,-16.959556799999998
3.36,336,-0.07400000000000001,-0.684,-0.47700000000000004,2.8074942000000003,3.7815228,-2.7501984,53.456981400000004,-3.84454818,-16.94236806
3.3699999999999997,337,-0.077,-0.6829999999999999,-0.493,4.8128472,3.7242269999999995,-3.2085647999999996,53.50281804,-3.79871154,-16.9309089
3.38,338,-0.079,-0.691,-0.486,6.4744254,3.7242269999999995,-3.6096353999999997,53.571573,-3.74714532,-16.919449739999994
3.3899999999999997,339,-0.079,-0.698,-0.483,8.7089616,4.297185,-3.4950437999999995,53.6575167,-3.6955791,-16.90799058
3.4,340,-0.075,-0.7090000000000001,-0.473,10.026765,4.4117766,-3.1512689999999997,53.76064914,-3.644012880000001,-16.89080184
3.4099999999999997,341,-0.076,-0.7190000000000001,-0.462,10.313244000000001,4.010706000000001,-2.9220858,53.86378158,-3.59817624,-16.873613100000004
3.42,342,-0.08,-0.726,-0.46399999999999997,10.7716104,3.2658606,-2.6356068,53.97264360000001,-3.5580691799999995,-16.86215394
3.4299999999999997,343,-0.078,-0.7340000000000001,-0.48,11.172680999999999,3.2085647999999996,-2.5210152000000003,54.08723520000001,-3.51796212,-16.850694779999998
3.44,344,-0.071,-0.737,-0.462,11.2872726,3.4377480000000005,-2.1772404,54.19609722,-3.47785506,-16.83350604
3.4499999999999997,345,-0.061,-0.748,-0.48100000000000004,11.5164558,3.4377480000000005,-1.6042823999999998,54.3164184,-3.44347758,-16.8163173
3.46,346,-0.059000000000000004,-0.759,-0.485,11.2299768,3.7242269999999995,-1.2605076000000002,54.43101,-3.4148296799999995,-16.787669400000002
3.4699999999999998,347,-0.061,-0.77,-0.462,11.5164558,4.2398892,-1.0313244000000001,54.54560160000001,-3.380452200000001,-16.7590215
3.48,348,-0.063,-0.769,-0.47600000000000003,11.172680999999999,4.2398892,-1.145916,54.65446362,-3.34607472,-16.7303736
3.4899999999999998,349,-0.06,-0.762,-0.48,11.0580894,4.583664,-1.4896908000000002,54.76332563999999,-3.3059676599999994,-16.701725699999994
3.5,350,-0.062,-0.765,-0.488,11.45916,4.4690724,-1.7761698000000001,54.88364682,-3.2658606,-16.6730778
3.51,351,-0.055,-0.773,-0.478,11.2299768,4.6409598,-1.6042823999999998,54.99823841999999,-3.2257535399999995,-16.6444299
3.52,352,-0.05,-0.772,-0.465,10.828906199999999,4.8701430000000006,-1.0313244000000001,55.10137086000001,-3.1913760600000005,-16.61005242
3.53,353,-0.048,-0.7809999999999999,-0.4920000000000001,9.7975818,5.6149884000000005,-0.7448454000000001,55.19877372,-3.1512689999999997,-16.56421578
3.54,354,-0.046,-0.787,-0.48200000000000004,9.5111028,6.130650599999999,-0.4583664000000001,55.29617658,-3.11116194,-16.51837914
3.55,355,-0.045,-0.7979999999999999,-0.467,9.2819196,6.6463128000000005,-0.11459160000000004,55.39357944,-3.07105488,-16.461083340000002
3.56,356,-0.048,-0.8029999999999999,-0.508,8.479778399999999,6.8182002000000015,-0.057295800000000015,55.47379356,-3.0366774000000003,-16.40378754
3.57,357,-0.052000000000000005,-0.807,-0.48700000000000004,8.7662574,6.703608600000001,0.0,55.55973726,-2.9965703400000003,-16.35222132
3.58,358,-0.048,-0.815,-0.47200000000000003,8.9381448,6.9327918,0.1718874,55.64568095999999,-2.96219286,-16.28919594
3.59,359,-0.046,-0.812,-0.47,8.59437,6.7609043999999985,0.572958,55.73162466,-2.92781538,-16.23190014
3.5999999999999996,360,-0.045,-0.81,-0.45899999999999996,8.4224826,6.6463128000000005,0.8021411999999999,55.82329794,-2.89916748,-16.16887476
3.61,361,-0.046,-0.81,-0.45799999999999996,8.136003599999999,6.990087599999999,1.3178034,55.90351206,-2.87051958,-16.105849380000002
3.6199999999999997,362,-0.032,-0.792,-0.439,7.9641161999999985,7.5057497999999985,1.7761698000000001,55.977996600000004,-2.84187168,-16.031364840000002
3.63,363,-0.024,-0.78,-0.445,7.5057497999999985,7.9641161999999985,1.2605076000000002,56.05248114,-2.81322378,-15.956880300000002
3.6399999999999997,364,-0.02,-0.769,-0.43799999999999994,7.6776372,7.7922288,0.6302538000000001,56.12696568,-2.77311672,-15.888125340000002
3.65,365,-0.022000000000000002,-0.7659999999999999,-0.442,7.734933000000002,7.3911582,0.0,56.20717980000001,-2.72728008,-15.82509996
3.6599999999999997,366,-0.028999999999999998,-0.758,-0.439,8.193299399999999,7.161975,-0.2291832000000001,56.28739392,-2.68717302,-15.76780416
3.67,367,-0.031,-0.7509999999999999,-0.419,8.8235532,6.875496000000001,-0.057295800000000015,56.37333762000001,-2.65279554,-15.704778780000002
3.6799999999999997,368,-0.036000000000000004,-0.7509999999999999,-0.41600000000000004,8.7089616,6.990087599999999,0.1718874,56.45928131999999,-2.61268848,-15.647482979999998
3.69,369,-0.036000000000000004,-0.75,-0.405,8.8235532,8.021412000000002,0.286479,56.53949544,-2.57258142,-15.57872802
3.6999999999999997,370,-0.040999999999999995,-0.763,-0.4,8.9381448,8.479778399999999,0.4583664000000001,56.64262788,-2.53247436,-15.50424348
3.71,371,-0.051,-0.774,-0.391,7.5057497999999985,8.078707799999998,0.6875496,56.71138284,-2.49809688,-15.42975894
3.7199999999999998,372,-0.061,-0.7929999999999999,-0.39299999999999996,6.8182002000000015,7.1046792000000005,1.0313244000000001,56.78013780000001,-2.46944898,-15.36673356
3.73,373,-0.064,-0.7959999999999999,-0.386,6.130650599999999,6.4744254,1.8907614,56.837433600000004,-2.44653066,-15.2979786
3.7399999999999998,374,-0.064,-0.805,-0.375,5.042030400000002,6.3598338,2.6356068,56.88327024,-2.4350715000000003,-15.22922364
3.75,375,-0.064,-0.8009999999999999,-0.368,3.8388186,6.130650599999999,2.8074942000000003,56.94629562,-2.4350715000000003,-15.166198259999998
3.76,376,-0.055999999999999994,-0.802,-0.34600000000000003,3.6096353999999997,6.0733548,2.4064236,56.9806731,-2.42361234,-15.097443299999998
3.77,377,-0.052000000000000005,-0.7979999999999999,-0.379,1.8907614,5.9014674000000005,2.1199446,56.99786184000001,-2.41215318,-15.0401475
3.78,378,-0.054000000000000006,-0.795,-0.345,2.5783110000000002,5.958763200000001,1.8907614,57.02078016,-2.39496444,-14.97712212
3.79,379,-0.059000000000000004,-0.797,-0.364,2.1772404,6.3025379999999975,1.4896908000000002,57.0379689,-2.37204612,-14.914096740000002
3.8,380,-0.063,-0.799,-0.36,2.4064236,7.2765666,1.2605076000000002,57.08953512000001,-2.35485738,-14.845341780000002
3.81,381,-0.064,-0.815,-0.342,2.86479,7.9641161999999985,1.0886202,57.11245344,-2.3204799,-14.770857239999998
3.82,382,-0.068,-0.8240000000000001,-0.35,2.1772404,8.078707799999998,1.0313244000000001,57.13537176,-2.28610242,-14.696372699999998
3.83,383,-0.07,-0.825,-0.34600000000000003,2.1772404,8.3651868,1.3178034,57.15256049999999,-2.25745452,-14.62188816
3.84,384,-0.07400000000000001,-0.8290000000000001,-0.34,2.0053530000000004,8.59437,1.7761698000000001,57.16974924,-2.22880662,-14.53594446
3.8499999999999996,385,-0.07200000000000001,-0.8340000000000001,-0.342,1.8334656000000005,9.2819196,2.291832,57.22131546000001,-2.2058883,-14.450000759999998
3.86,386,-0.068,-0.836,-0.326,1.8907614,9.224623800000002,2.6929026,57.23277462000001,-2.18296998,-14.3525979
3.8699999999999997,387,-0.062,-0.833,-0.318,1.4896908000000002,9.568398599999998,3.6096353999999997,57.24423378,-2.1657812400000003,-14.25519504
3.88,388,-0.054000000000000006,-0.8320000000000001,-0.33,0.286479,9.682990199999999,4.2398892,57.24423378,-2.1485925000000003,-14.14633302
3.8899999999999997,389,-0.052000000000000005,-0.8290000000000001,-0.311,0.3437748,9.5111028,4.8701430000000006,57.24423378,-2.14286292,-14.04320058
3.9,390,-0.052000000000000005,-0.833,-0.312,-0.3437748,9.396511199999999,4.9847346,57.27288168,-2.14286292,-13.93433856
3.9099999999999997,391,-0.05,-0.838,-0.312,-0.8594370000000001,9.224623800000002,4.6982555999999995,57.25569294,-2.13140376,-13.83120612
3.92,392,-0.047,-0.843,-0.297,-1.4896908000000002,9.5111028,4.1825934,57.2385042,-2.1199446,-13.72807368
3.9299999999999997,393,-0.047,-0.8490000000000001,-0.308,-1.9480572,10.084060800000001,3.6669312000000014,57.2098563,-2.09702628,-13.624941240000002
3.94,394,-0.046,-0.853,-0.312,-2.3491277999999998,9.9121734,3.0939732,57.1812084,-2.07410796,-13.52753838
3.9499999999999997,395,-0.045,-0.858,-0.299,-2.4637194,10.1413566,2.5783110000000002,57.20412672,-2.04546006,-13.42440594
3.96,396,-0.046,-0.86,-0.292,-3.6669312000000014,9.7975818,2.3491277999999998,57.15829008000001,-2.01681216,-13.33273266
3.9699999999999998,397,-0.040999999999999995,-0.857,-0.282,-4.583664,10.026765,2.2345362,57.10672386,-1.98816426,-13.2353298
3.98,398,-0.036000000000000004,-0.8440000000000001,-0.282,-4.9274388,9.682990199999999,2.3491277999999998,57.05515764,-1.95378678,-13.13792694
3.9899999999999998,399,-0.031,-0.838,-0.28300000000000003,-6.130650599999999,8.651665800000002,2.6356068,56.98640268000001,-1.93659804,-13.051983240000002
4.0,400,-0.026000000000000002,-0.841,-0.264,-6.9327918,7.5057497999999985,2.86479,56.95775478,-1.9194093000000003,-12.977498700000002
4.01,401,-0.025,-0.847,-0.271,-8.4224826,7.333862400000001,3.0939732,56.86608150000001,-1.90795014,-12.89728458
4.02,402,-0.021,-0.85,-0.293,-10.5424272,6.3025379999999975,2.7501984,56.75721948,-1.90222056,-12.82852962
4.03,403,-0.02,-0.855,-0.273,-11.2872726,5.844171599999999,1.8907614,56.64262788,-1.88503182,-12.77123382
4.04,404,-0.018000000000000002,-0.866,-0.282,-13.0061466,4.8701430000000006,1.145916,56.50511795999999,-1.87357266,-12.72539718
4.05,405,-0.016,-0.8590000000000001,-0.304,-14.438541599999999,4.297185,0.40107059999999994,56.40198552,-1.85065434,-12.68529012
4.06,406,-0.015,-0.852,-0.278,-14.209358400000001,4.0680017999999984,-0.11459160000000004,56.25301644,-1.8334656000000005,-12.65664222
4.07,407,-0.018000000000000002,-0.8490000000000001,-0.27899999999999997,-15.068795399999999,3.6096353999999997,-0.7448454000000001,56.10404736,-1.81054728,-12.62799432
4.08,408,-0.018000000000000002,-0.836,-0.29,-17.131444199999994,3.4950437999999995,-1.0886202,55.92643038,-1.78189938,-12.605075999999999
4.09,409,-0.02,-0.825,-0.265,-17.475219,4.0680017999999984,-1.145916,55.748813399999996,-1.75325148,-12.58215768
4.1,410,-0.027000000000000003,-0.82,-0.248,-19.0222056,3.3231564,-0.9740286,55.58838516,-1.73033316,-12.55923936
4.109999999999999,411,-0.036000000000000004,-0.816,-0.264,-21.371333399999997,2.7501984,-0.9167328000000001,55.37066112,-1.7074148399999998,-12.54205062
4.12,412,-0.040999999999999995,-0.8109999999999999,-0.235,-21.944291399999997,3.7242269999999995,-0.9167328000000001,55.14720749999999,-1.6844965200000002,-12.5191323
4.13,413,-0.05,-0.82,-0.22399999999999998,-23.204798999999998,3.7815228,-0.6875496,54.91229472,-1.6615782,-12.49621398
4.14,414,-0.054000000000000006,-0.818,-0.235,-24.522602399999997,3.7242269999999995,-0.2291832000000001,54.6601932,-1.64438946,-12.46756608
4.1499999999999995,415,-0.051,-0.8,-0.209,-23.9496444,3.1512689999999997,0.286479,54.45392832,-1.6329303,-12.438918179999998
4.16,416,-0.044000000000000004,-0.8,-0.182,-24.694489800000003,1.9480572,0.6302538000000001,54.201826800000006,-1.6329303,-12.421729440000002
4.17,417,-0.040999999999999995,-0.784,-0.187,-26.814434400000003,2.0626488000000003,0.8594370000000001,53.92680696,-1.6329303,-12.39881112
4.18,418,-0.042,-0.768,-0.165,-27.4446882,1.8334656000000005,0.8594370000000001,53.65178712000001,-1.6329303,-12.38162238
4.1899999999999995,419,-0.047,-0.764,-0.14,-29.4500412,1.9480572,0.6875496,53.34811938,-1.6272007199999998,-12.36443364
4.2,420,-0.049,-0.748,-0.157,-31.6845774,2.6356068,0.286479,53.05591080000001,-1.62147114,-12.34151532
4.21,421,-0.051,-0.738,-0.14300000000000002,-32.4294228,3.6096353999999997,-0.2291832000000001,52.72359516,-1.6042824000000002,-12.31286742
4.22,422,-0.057999999999999996,-0.728,-0.131,-34.5493674,4.8128472,-1.0313244000000001,52.37409078,-1.5756344999999998,-12.28421952
4.2299999999999995,423,-0.066,-0.716,-0.125,-36.1536498,5.72958,-1.9480572,52.00166808,-1.52979786,-12.24984204
4.24,424,-0.07400000000000001,-0.7020000000000001,-0.08800000000000001,-37.299565799999996,6.990087599999999,-2.7501984,51.62351579999999,-1.47250206,-12.21546456
4.25,425,-0.07400000000000001,-0.684,-0.091,-39.7059894,8.250595200000001,-3.7815228,51.23963394,-1.4037471000000001,-12.1753575
4.26,426,-0.054000000000000006,-0.667,-0.08199999999999999,-41.76863820000001,8.9954406,-4.2398892,50.81564502,-1.3178034,-12.12952086
4.27,427,-0.044000000000000004,-0.669,-0.07200000000000001,-44.404245,7.1046792000000005,-3.9534102,50.3630082,-1.24904844,-12.10087296
4.28,428,-0.045,-0.65,-0.099,-46.925260200000004,4.6409598,-2.86479,49.88172348,-1.20894138,-12.08368422
4.29,429,-0.051,-0.621,-0.138,-48.3003594,2.5783110000000002,-2.0626488000000003,49.39470918,-1.18029348,-12.07795464
4.3,430,-0.048,-0.585,-0.128,-47.0398518,1.8334656000000005,-1.7188740000000002,48.9306132,-1.16310474,-12.07795464
4.31,431,-0.03,-0.5489999999999999,-0.10099999999999999,-45.9512316,2.8074942000000003,-1.5469866,48.46078764,-1.14018642,-12.07222506
4.32,432,-0.013000000000000001,-0.503,-0.094,-47.4409224,3.2658606,-1.8907614,47.97950292,-1.11153852,-12.0607659
4.33,433,-0.003,-0.45299999999999996,-0.075,-50.305712400000004,4.3544808,-2.4064236,47.4695703,-1.07143146,-12.04357716
4.34,434,0.009000000000000001,-0.42,-0.107,-54.8320806,6.2452422,-2.86479,46.91380104,-1.01986524,-12.02065884
4.35,435,0.018000000000000002,-0.435,-0.16,-60.5616606,6.589017,-4.5263682,46.30073598,-0.95111028,-12.0034701
4.36,436,0.027999999999999997,-0.462,-0.19,-63.59833800000001,6.5317212,-7.0473834,45.65329344,-0.86516658,-12.0034701
4.37,437,0.035,-0.493,-0.15,-63.9421128,8.250595200000001,-9.7975818,45.0058509,-0.7448454000000001,-12.01492926
4.38,438,0.045,-0.518,-0.11,-63.1972674,9.682990199999999,-11.688343199999998,44.36413794,-0.6073354799999999,-12.032117999999999
4.39,439,0.06,-0.496,-0.075,-65.94746579999999,8.479778399999999,-12.6623718,43.69377708,-0.46982556,-12.0607659
4.3999999999999995,440,0.084,-0.441,0.016,-67.66633979999999,8.651665800000002,-13.2353298,43.01768664,-0.32658606,-12.10087296
4.41,441,0.11,-0.39299999999999996,0.017,-70.9894962,9.3392154,-14.5531332,42.29575956,-0.16615782,-12.14098002
4.42,442,0.141,-0.32,-0.02,-79.18279559999998,9.682990199999999,-16.902261,41.48788878,0.0,-12.2040054
4.43,443,0.175,-0.22399999999999998,-0.06,-86.05829159999998,12.0894138,-18.6784308,40.61699262000001,0.19480572,-12.261301200000002
4.4399999999999995,444,0.179,-0.158,-0.12,-90.9857304,16.042824000000003,-19.5378678,39.68880066,0.42398892,-12.30713784
4.45,445,0.16,-0.078,-0.22899999999999998,-97.5747474,17.0741484,-19.308684600000007,38.68612416,0.6703608600000001,-12.347244899999998
4.46,446,0.11800000000000001,0.01,-0.284,-103.41891899999999,17.131444199999994,-17.475219,37.63761102,0.89381448,-12.3758928
4.47,447,0.10400000000000001,0.105,-0.268,-107.20044180000001,19.7097552,-13.5791046,36.54326124,1.11153852,-12.35870406
4.4799999999999995,448,0.034,0.195,-0.22899999999999998,-115.73751599999999,17.475219,-11.688343199999998,35.36869734,1.30061466,-12.347244899999998
4.49,449,-0.066,0.23600000000000002,-0.147,-123.98811119999999,12.834259199999998,-12.776963400000001,34.10818974,1.45531332,-12.3758928
4.5,450,-0.114,0.21100000000000002,-0.037000000000000005,-130.8636072,6.7609043999999985,-17.4179232,32.76746802,1.5870936600000003,-12.48475482
4.51,451,-0.114,0.193,0.07200000000000001,-143.58327480000003,0.11459160000000004,-22.2307704,31.30642512,1.6844965200000002,-12.66810138
4.52,452,-0.038,0.239,-0.027999999999999997,-156.3029424,-4.7555514,-23.4339822,29.71360188,1.74179232,-12.891555
4.53,453,0.065,0.36,-0.115,-151.26091200000005,-10.4851314,-21.0848544,28.17234486,1.73033316,-13.12646778
4.54,454,0.153,0.332,-0.054000000000000006,-142.2081756,-6.2452422,-16.501190400000002,26.722761119999994,1.73606274,-13.29835518
4.55,455,0.187,0.313,-0.239,-140.2601184,5.6149884000000005,-10.5424272,25.27890696,1.81627686,-13.36711014
4.56,456,0.006,0.303,-0.628,-150.0577002,17.131444199999994,-7.2192707999999985,23.75483868,1.9767051,-13.349921400000001
4.57,457,-0.146,-0.085,-2.271,-190.0501686,35.122325399999994,-6.589017,21.82397022,2.2918320000000003,-13.263977700000002
4.58,458,-0.094,-0.58,-3.98,-281.9526318,29.5646328,-14.4958374,18.95918022,2.578311,-13.275436860000005
4.59,459,-0.41,-0.8220000000000001,-3.9960000000000004,-281.49426539999996,27.100913399999996,-28.0176462,16.088660639999997,2.87624916,-13.44159468
4.6,460,0.006,-0.29100000000000004,-3.9960000000000004,-265.7952162,39.47680620000001,-32.31483119999999,13.372839720000002,3.30023808,-13.63067082
4.61,461,0.474,0.419,-3.9960000000000004,-236.918133,29.507337,-26.69984280000001,10.95495696,3.6096354,-13.8082878
4.62,462,0.237,0.4370000000000001,-3.9960000000000004,-189.5918022,24.2361234,-26.642546999999997,9.01262934,3.8674665,-14.008823099999995
4.63,463,0.171,0.868,-3.9960000000000004,-119.1179682,37.0703826,-19.308684600000007,7.792228800000001,4.2398892,-14.12914428
4.64,464,0.135,1.469,-3.951,-112.3570638,40.680018,-12.0894138,6.640583220000001,4.6409598,-14.180710500000002
4.6499999999999995,465,-0.134,1.63,-3.18,-126.45183059999998,46.5814854,-16.157415599999997,5.3456981400000005,5.0993262,-14.272383780000002
4.66,466,-0.278,1.379,-2.248,-102.7886652,45.3782736,-27.903054600000004,4.27426668,5.5519630200000005,-14.49010782
4.67,467,-0.20800000000000002,0.7090000000000001,-1.5,-79.6984578,42.05511720000001,-40.5081306,3.42055926,5.9874111,-14.85107136
4.68,468,0.095,0.075,-1.119,-56.9520252,32.658606,-47.498218200000004,2.79030546,6.3311859,-15.29224902
4.6899999999999995,469,0.304,-0.599,-0.7509999999999999,-28.0176462,27.559279800000002,-37.52874900000001,2.4637194,6.6176648999999985,-15.647482979999998
4.7,470,0.511,-0.932,-0.69,-25.0382646,19.308684600000007,-22.1734746,2.21734746,6.83538894,-15.84801828
4.71,471,0.639,-0.645,-0.585,-33.231564,8.3651868,-11.172680999999999,1.86784308,6.9156030600000005,-15.951150719999998
4.72,472,0.61,0.09699999999999999,-0.551,-36.6120162,3.8388186,-6.3598338,1.4896908000000002,6.955710119999999,-16.0141761
4.7299999999999995,473,0.49,0.7709999999999999,-0.5670000000000001,-38.8465524,0.286479,-6.875496000000001,1.0886202,6.955710119999999,-16.07720148
4.74,474,0.38799999999999996,1.119,-0.603,-45.550160999999996,-2.5783110000000002,-12.318597,0.6073354799999999,6.9270622200000025,-16.197522659999994
4.75,475,0.322,1.0290000000000001,-0.613,-48.2430636,-4.6982555999999995,-16.4438946,0.04583664,6.8869551599999985,-16.36941006
4.76,476,0.273,0.7709999999999999,-0.616,-44.175061799999995,-3.8961144,-15.870936600000002,-0.41825934,6.8468481,-16.524108719999994
4.77,477,0.222,0.514,-0.667,-42.2270046,-1.9480572,-11.0580894,-0.8594370000000001,6.8182002000000015,-16.632970739999998
4.78,478,0.18100000000000002,0.348,-0.69,-42.398892,-0.4583664000000001,-4.6982555999999995,-1.29488508,6.80674104,-16.678807380000002
4.79,479,0.17600000000000002,0.259,-0.68,-39.47680620000001,0.1718874,0.40107059999999994,-1.6959556799999995,6.80674104,-16.66734822
4.8,480,0.184,0.215,-0.6759999999999999,-35.695283399999994,0.6875496,2.8074942000000003,-2.07410796,6.8182002000000015,-16.638700319999998
4.81,481,0.151,0.2,-0.69,-31.054323600000004,-0.6302538000000001,2.9793816000000004,-2.38350528,6.812470620000001,-16.61005242
4.82,482,0.121,0.209,-0.701,-24.694489800000003,-4.6982555999999995,1.9480572,-2.62987722,6.7609043999999985,-16.5871341
4.83,483,0.127,0.23399999999999999,-0.733,-20.7983754,-10.4278356,1.6615782,-2.8361421,6.65777196,-16.56421578
4.84,484,0.154,0.264,-0.742,-16.7303736,-16.386598799999998,1.7761698000000001,-3.00229992,6.49161414,-16.541297460000006
4.85,485,0.166,0.281,-0.7759999999999999,-13.3499214,-20.5118964,2.291832,-3.16845774,6.29680842,-16.51837914
4.86,486,0.122,0.303,-0.8109999999999999,-12.9488508,-24.2934192,3.0939732,-3.2945085,6.05616606,-16.47827208
4.87,487,0.141,0.325,-0.8809999999999999,-12.834259199999998,-26.41336380000001,4.1252976000000015,-3.4148296799999995,5.79833496,-16.426705860000002
4.88,488,0.195,0.32899999999999996,-0.94,-12.3758928,-28.9916748,6.3025379999999975,-3.52942128,5.51185596,-16.35222132
4.89,489,0.198,0.295,-0.976,-11.5164558,-32.658606,8.59437,-3.63255372,5.19672906,-16.254818460000006
4.8999999999999995,490,0.162,0.235,-1.043,-9.5111028,-35.5806918,11.8602306,-3.7299565800000014,4.85295426,-16.12303812
4.91,491,0.126,0.17300000000000001,-1.107,-4.583664,-36.03905820000001,14.667724800000002,-3.75860448,4.50344988,-15.96260988
4.92,492,0.111,0.127,-1.102,-0.5156622000000001,-35.7525792,16.042824000000003,-3.74141574,4.16540466,-15.79072248
4.93,493,0.07400000000000001,0.11199999999999999,-1.117,1.0313244000000001,-33.74722620000001,15.126091199999998,-3.71849742,3.8388186000000006,-15.63029424
4.9399999999999995,494,0.045,0.13,-1.114,2.9220858,-29.163562199999998,12.6623718,-3.67266078,3.5580691799999995,-15.492784320000002
4.95,495,0.042,0.162,-1.12,5.042030400000002,-24.7517856,9.568398599999998,-3.62682414,3.31742682,-15.38965188
4.96,496,0.05,0.203,-1.115,8.7089616,-20.168121600000006,6.2452422,-3.52942128,3.1226211000000004,-15.32089692
4.97,497,0.045,0.226,-1.094,12.776963400000001,-15.870936600000002,3.0366774,-3.39764094,2.96792244,-15.28651944
4.9799999999999995,498,0.024,0.22899999999999998,-1.101,14.4958374,-10.7143146,0.1718874,-3.2486718599999995,2.86479,-15.28078986
4.99,499,0.013000000000000001,0.223,-1.117,15.6417534,-3.7815228,-0.9740286,-3.08824362,2.83041252,-15.29224902
5.0,500,0.013999999999999999,0.20800000000000002,-1.163,16.558486199999994,-1.5469866,-2.0053530000000004,-2.93927454,2.8074942000000003,-15.31516734
5.01,501,-0.01,0.18600000000000005,-1.148,19.5378678,-4.010706000000001,-3.0939732,-2.74446882,2.76738714,-15.34381524
5.02,502,0.001,0.172,-1.099,25.7258142,-1.7188740000000002,-4.5263682,-2.48663772,2.7501984,-15.39538146
5.03,503,0.013999999999999999,0.126,-1.01,34.66395900000001,0.9740286,-5.844171599999999,-2.13713334,2.76165756,-15.452677260000002
5.04,504,0.035,0.086,-0.9109999999999999,42.05511720000001,0.1718874,-6.8182002000000015,-1.71314442,2.76738714,-15.527161799999998
5.05,505,0.039,0.066,-0.8370000000000001,47.498218200000004,-3.2658606,-7.0473834,-1.23758928,2.73300966,-15.60164634
5.06,506,0.027999999999999997,0.069,-0.7490000000000001,53.68616460000001,-5.3285094000000015,-5.3285094000000015,-0.69900876,2.68717302,-15.65894214
5.07,507,0.003,0.057999999999999996,-0.728,52.139178,-8.136003599999999,-2.0053530000000004,-0.16615782,2.61268848,-15.68759004
5.08,508,-0.005,0.045,-0.784,43.831286999999996,-10.3705398,0.9167328000000001,0.27501984,2.51528562,-15.68186046
5.09,509,-0.025,0.025,-0.9,30.8251404,-9.9121734,2.2345362,0.59014674,2.41788276,-15.66467172
5.1,510,-0.006,-0.013000000000000001,-1.025,17.0168526,-7.8495246,1.7188740000000002,0.76203414,2.33193906,-15.65321256
5.11,511,0.016,-0.068,-1.082,6.5317212,-5.2712136,-0.6302538000000001,0.8307891,2.28037284,-15.65894214
5.12,512,0.049,-0.14800000000000002,-1.104,-0.8594370000000001,-1.3750992,-4.297185,0.8193299399999999,2.2631841,-15.704778780000002
5.13,513,0.087,-0.23600000000000002,-1.157,-9.0527364,3.8388186,-8.250595200000001,0.72192708,2.30329116,-15.7849929
5.14,514,0.10800000000000001,-0.313,-1.19,-21.2567418,5.0993262,-11.0007936,0.4984734599999999,2.35485738,-15.888125340000002
5.1499999999999995,515,0.049,-0.231,-1.021,-23.7204612,-5.6149884000000005,-13.0061466,0.29220857999999994,2.2918320000000003,-16.01990568
5.16,516,0.043,-0.20199999999999999,-0.884,-10.313244000000001,3.4377480000000005,-10.886202,0.18334656,2.32620948,-16.12303812
5.17,517,0.046,-0.069,-0.818,-7.448453999999999,2.5210152000000003,-5.72958,0.10313244,2.3491278,-16.18033392
5.18,518,0.005,0.015,-0.7879999999999999,-3.4950437999999995,-5.9014674000000005,-1.7761698000000001,0.06875496,2.2918320000000003,-16.197522659999994
5.1899999999999995,519,-0.006999999999999999,-0.034,-0.777,-0.6875496,-5.3858052,1.7761698000000001,0.06302537999999999,2.2345362,-16.1860635
5.2,520,-0.013999999999999999,-0.07200000000000001,-0.8059999999999999,-7.5630456000000015,-5.0993262,3.7815228,0.0,2.1772404,-16.14595644
5.21,521,-0.006,-0.113,-0.823,-13.6936962,-9.7975818,4.010706000000001,-0.13178034,2.07410796,-16.105849380000002
5.22,522,0.006,-0.195,-0.83,-14.1520626,-13.8655836,3.2085647999999996,-0.27501984,1.93659804,-16.07720148
5.2299999999999995,523,0.033,-0.27,-0.884,-12.5477802,-14.1520626,2.0053530000000004,-0.39534102,1.7933585399999998,-16.060012739999998
5.24,524,0.052000000000000005,-0.299,-0.963,-10.313244000000001,-13.120738199999998,0.40107059999999994,-0.4984734599999999,1.6673077799999998,-16.05428316
5.25,525,0.046,-0.28300000000000003,-1.022,-9.396511199999999,-13.2353298,-1.4896908000000002,-0.5443101,1.53552744,-16.071471900000002
5.26,526,0.03,-0.23399999999999999,-1.06,-9.396511199999999,-14.1520626,-3.1512689999999997,-0.63598338,1.39228794,-16.105849380000002
5.27,527,0.006,-0.179,-1.07,-8.479778399999999,-14.266654199999998,-3.5523396000000003,-0.72192708,1.24904844,-16.140226860000002
5.28,528,-0.008,-0.126,-1.073,-8.021412000000002,-12.834259199999998,-2.9793816000000004,-0.8021412000000001,1.12299768,-16.17460434
5.29,529,-0.021,-0.068,-1.071,-7.906820400000001,-10.1986524,-2.1199446,-0.8823553199999999,1.01986524,-16.197522659999994
5.3,530,-0.032,-0.024,-1.052,-6.417129599999999,-7.7922288,-1.3750992,-0.9453807,0.91100322,-16.208981819999998
5.31,531,-0.047,0.013999999999999999,-1.023,-3.5523396000000003,-5.2139178,-0.8021411999999999,-0.98548776,0.8594370000000001,-16.214711400000002
5.32,532,-0.055999999999999994,0.039,-0.9940000000000001,-1.4896908000000002,-1.9480572,-0.2291832000000001,-0.9969469199999998,0.8422482600000001,-16.22044098
5.33,533,-0.059000000000000004,0.059000000000000004,-0.965,-0.8021411999999999,2.6356068,0.6875496,-1.00840608,0.87089616,-16.208981819999998
5.34,534,-0.044000000000000004,0.08199999999999999,-0.963,-0.572958,6.417129599999999,1.9480572,-1.01413566,0.93392154,-16.19179308
5.35,535,-0.028999999999999998,0.10300000000000001,-0.98,0.572958,5.6722842,2.86479,-1.10007936,0.9453807,-16.1574156
5.36,536,-0.019,0.124,-0.975,-0.40107059999999994,2.6356068,2.6929026,-1.10007936,0.9740286,-16.134497279999998
5.37,537,-0.013000000000000001,0.16699999999999998,-0.998,-0.6302538000000001,1.7761698000000001,1.7761698000000001,-1.11153852,0.9912173399999998,-16.117308540000003
5.38,538,0.0,0.195,-1.014,1.6615782,4.8128472,0.5156622000000001,-1.09434978,1.03705398,-16.11157896
5.39,539,0.011000000000000001,0.21,-1.021,2.8074942000000003,6.417129599999999,-0.9167328000000001,-1.06570188,1.10580894,-16.117308540000003
5.3999999999999995,540,0.012,0.212,-1.024,3.380452200000001,4.6982555999999995,-2.0053530000000004,-1.1459160000000002,1.14018642,-16.140226860000002
5.41,541,0.011000000000000001,0.19899999999999998,-1.021,4.1252976000000015,3.0939732,-2.8074942000000003,-1.10007936,1.1688343199999998,-16.16887476
5.42,542,0.013000000000000001,0.18,-1.0070000000000001,3.7815228,2.4064236,-2.8074942000000003,-1.06570188,1.19748222,-16.197522659999994
5.43,543,0.016,0.159,-0.9990000000000001,3.1512689999999997,1.8907614,-2.0626488000000003,-1.0313244000000001,1.21467096,-16.214711400000002
5.4399999999999995,544,0.016,0.128,-0.985,3.0366774,1.6615782,-1.0313244000000001,-1.0026765,1.2318597,-16.22617056
5.45,545,0.019,0.09,-0.9740000000000001,3.3231564,1.9480572,-0.11459160000000004,-1.05424272,1.24331886,-16.23190014
5.46,546,0.021,0.064,-0.971,4.3544808,2.1772404,0.6302538000000001,-1.00840608,1.26623718,-16.22617056
5.47,547,0.024,0.059000000000000004,-0.97,5.6149884000000005,2.0626488000000003,1.3178034,-0.95111028,1.28342592,-16.208981819999998
5.4799999999999995,548,0.031,0.065,-0.9740000000000001,5.844171599999999,2.1772404,1.7188740000000002,-0.8880849000000001,1.30634424,-16.19179308
5.49,549,0.045,0.07200000000000001,-0.98,5.5003968,2.4637194,1.8907614,-0.83651868,1.3349921400000002,-16.17460434
5.5,550,0.055999999999999994,0.071,-0.985,4.8128472,2.9793816000000004,1.7761698000000001,-0.83651868,1.38655836,-16.1574156
5.51,551,0.068,0.066,-0.995,3.7815228,3.3231564,1.5469866,-0.8021412000000001,1.4209358399999998,-16.14595644
5.52,552,0.07400000000000001,0.054000000000000006,-1.003,2.6356068,3.380452200000001,1.2605076000000002,-0.7734933,1.44958374,-16.1287677
5.53,553,0.077,0.037000000000000005,-1.012,1.2032118,3.2085647999999996,0.9167328000000001,-0.76203414,1.48396122,-16.12303812
5.54,554,0.07400000000000001,0.019,-1.016,0.0,2.86479,0.6875496,-0.76203414,1.51260912,-16.11157896
5.55,555,0.07,0.002,-1.0170000000000001,-0.572958,2.291832,0.6875496,-0.7734933,1.59282324,-16.11157896
5.56,556,0.064,-0.012,-1.0170000000000001,-0.40107059999999994,1.8907614,0.572958,-0.7792228800000001,1.61001198,-16.105849380000002
5.57,557,0.06,-0.022000000000000002,-1.012,0.057295800000000015,1.5469866,0.6302538000000001,-0.7734933,1.6272007199999998,-16.09439022
5.58,558,0.055999999999999994,-0.027999999999999997,-1.006,0.8594370000000001,1.3750992,0.572958,-0.76776372,1.6386598799999998,-16.088660639999997
5.59,559,0.055999999999999994,-0.03,-0.998,1.4896908000000002,1.145916,0.6875496,-0.75057498,1.65011904,-16.08293106
5.6,560,0.055,-0.027000000000000003,-0.988,1.8334656000000005,0.8594370000000001,0.8021411999999999,-0.69900876,1.6902260999999998,-16.07720148
5.61,561,0.054000000000000006,-0.025,-0.978,2.1199446,0.40107059999999994,1.0313244000000001,-0.67609044,1.6959556799999995,-16.06574232
5.62,562,0.052000000000000005,-0.022000000000000002,-0.97,2.0626488000000003,0.0,1.0313244000000001,-0.6589017,1.6959556799999995,-16.05428316
5.63,563,0.05,-0.02,-0.963,1.6615782,-0.6875496,1.0313244000000001,-0.64171296,1.6902260999999998,-16.042824
5.64,564,0.046,-0.019,-0.9620000000000001,1.145916,-1.3178034,0.6875496,-0.62452422,1.6787669399999998,-16.03709442
5.6499999999999995,565,0.040999999999999995,-0.019,-0.963,0.8594370000000001,-1.8907614,0.40107059999999994,-0.6016058999999999,1.6673077799999998,-16.03709442
5.66,566,0.039,-0.018000000000000002,-0.9690000000000001,0.7448454000000001,-2.2345362,0.057295800000000015,-0.59587632,1.64438946,-16.031364840000002
5.67,567,0.037000000000000005,-0.013000000000000001,-0.976,0.8021411999999999,-2.5783110000000002,-0.3437748,-0.5844171599999999,1.6157415599999996,-16.03709442
5.68,568,0.034,-0.006,-0.982,0.8594370000000001,-2.9220858,-0.8594370000000001,-0.5786875800000001,1.5870936600000003,-16.04855358
5.6899999999999995,569,0.03,0.001,-0.9840000000000001,0.6875496,-3.0366774,-1.3750992,-0.56722842,1.55844576,-16.060012739999998
5.7,570,0.026000000000000002,0.01,-0.986,0.4583664000000001,-2.9793816000000004,-1.6615782,-0.59014674,1.5183387000000002,-16.08293106
5.71,571,0.023,0.016,-0.987,0.057295800000000015,-2.9220858,-1.7761698000000001,-0.59014674,1.4896908000000002,-16.1001198
5.72,572,0.019,0.021,-0.992,-0.3437748,-2.86479,-1.6615782,-0.59587632,1.4610428999999998,-16.117308540000003
5.7299999999999995,573,0.016,0.027999999999999997,-0.998,-0.40107059999999994,-2.5783110000000002,-1.432395,-0.6016058999999999,1.432395,-16.1287677
5.74,574,0.015,0.036000000000000004,-1.0,-0.1718874,-2.1772404,-1.0886202,-0.6016058999999999,1.40947668,-16.140226860000002
5.75,575,0.016,0.038,-0.996,-0.286479,-1.7188740000000002,-0.7448454000000001,-0.72192708,1.35218088,-16.15168602
5.76,576,0.013999999999999999,0.04,-0.995,-0.6302538000000001,-1.3178034,-0.4583664000000001,-0.72765666,1.34072172,-16.1574156
5.77,577,0.012,0.044000000000000004,-0.99,-0.40107059999999994,-1.5469866,-0.3437748,-0.73338624,1.32353298,-16.1574156
5.78,578,0.011000000000000001,0.049,-0.987,0.286479,-1.6042823999999998,-0.3437748,-0.73338624,1.30634424,-16.16314518
5.79,579,0.011000000000000001,0.053,-0.988,0.4583664000000001,-1.3178034,-0.3437748,-0.72765666,1.29488508,-16.16887476
5.8,580,0.01,0.057999999999999996,-0.992,0.286479,-1.145916,-0.286479,-0.97975818,1.2032117999999998,-16.16887476
5.81,581,0.008,0.061,-0.993,0.1718874,-0.9167328000000001,-0.1718874,-0.97975818,1.19748222,-16.17460434
5.82,582,0.008,0.057999999999999996,-0.993,0.1718874,-0.6875496,-0.057295800000000015,-0.9740286,1.19175264,-16.17460434
5.83,583,0.006999999999999999,0.051,-0.992,0.286479,-0.40107059999999994,0.0,-0.9740286,1.18602306,-16.17460434
5.84,584,0.006999999999999999,0.043,-0.993,0.2291832000000001,-0.2291832000000001,0.0,-0.96829902,1.18029348,-16.17460434
5.85,585,0.006999999999999999,0.038,-0.993,0.2291832000000001,-0.11459160000000004,0.11459160000000004,-1.34072172,0.9969469199999998,-16.16887476
5.86,586,0.01,0.035,-0.995,0.286479,0.057295800000000015,0.2291832000000001,-1.34072172,0.9969469199999998,-16.16314518
5.87,587,0.013000000000000001,0.03,-0.995,0.1718874,0.11459160000000004,0.3437748,-1.3349921400000002,1.0026765,-16.16314518
5.88,588,0.016,0.027000000000000003,-0.995,0.2291832000000001,0.057295800000000015,0.40107059999999994,-1.3349921400000002,1.0026765,-16.1574156
5.89,589,0.019,0.024,-0.996,0.286479,0.0,0.40107059999999994,-1.32926256,1.0026765,-16.15168602
5.8999999999999995,590,0.022000000000000002,0.022000000000000002,-0.997,0.3437748,0.0,0.4583664000000001,-1.4209358399999998,0.9969469199999998,-16.15168602
5.91,591,0.024,0.019,-0.9940000000000001,0.3437748,0.0,0.4583664000000001,-1.4209358399999998,0.9969469199999998,-16.14595644
5.92,592,0.026000000000000002,0.016,-0.993,0.4583664000000001,0.0,0.3437748,-1.41520626,0.9969469199999998,-16.140226860000002
5.93,593,0.025,0.013000000000000001,-0.99,0.40107059999999994,0.1718874,0.286479,-1.40947668,1.0026765,-16.140226860000002
5.9399999999999995,594,0.027000000000000003,0.011000000000000001,-0.9890000000000001,0.40107059999999994,0.3437748,0.2291832000000001,-1.4037471000000001,1.0026765,-16.134497279999998
5.95,595,0.028999999999999998,0.01,-0.9890000000000001,0.4583664000000001,0.572958,0.11459160000000004,-1.4209358399999998,1.01986524,-16.134497279999998
5.96,596,0.03,0.008,-0.988,0.40107059999999994,0.7448454000000001,0.1718874,-1.41520626,1.0313244000000001,-16.134497279999998
5.97,597,0.03,0.009000000000000001,-0.988,0.4583664000000001,0.7448454000000001,0.11459160000000004,-1.41520626,1.03705398,-16.134497279999998
5.9799999999999995,598,0.031,0.009000000000000001,-0.988,0.5156622000000001,0.8021411999999999,0.11459160000000004,-1.40947668,1.04278356,-16.1287677
5.99,599,0.031,0.01,-0.987,0.6302538000000001,0.6875496,0.057295800000000015,-1.39801752,1.05424272,-16.1287677
6.0,600,0.031,0.013999999999999999,-0.987,0.6302538000000001,0.6875496,0.057295800000000015,-1.43812458,1.07716104,-16.1287677
6.01,601,0.031,0.017,-0.986,0.6875496,0.6875496,0.057295800000000015,-1.432395,1.08289062,-16.1287677
6.02,602,0.03,0.019,-0.987,0.5156622000000001,0.6302538000000001,0.0,-1.42666542,1.0886202,-16.1287677
6.03,603,0.03,0.019,-0.986,0.40107059999999994,0.5156622000000001,-0.057295800000000015,-1.4209358399999998,1.09434978,-16.1287677
6.04,604,0.031,0.02,-0.985,0.286479,0.40107059999999994,-0.11459160000000004,-1.4209358399999998,1.10007936,-16.1287677
6.05,605,0.032,0.022000000000000002,-0.986,0.1718874,0.3437748,-0.1718874,-1.52979786,1.13445684,-16.134497279999998
6.06,606,0.032,0.026000000000000002,-0.9890000000000001,0.2291832000000001,0.286479,-0.1718874,-1.52979786,1.13445684,-16.140226860000002
6.07,607,0.033,0.027999999999999997,-0.99,0.3437748,0.286479,-0.286479,-1.52406828,1.14018642,-16.140226860000002
6.08,608,0.033,0.028999999999999998,-0.992,0.572958,0.3437748,-0.286479,-1.5183387000000002,1.14018642,-16.14595644
6.09,609,0.033,0.031,-0.992,0.7448454000000001,0.286479,-0.286479,-1.51260912,1.1459160000000002,-16.14595644
6.1,610,0.033,0.03,-0.993,0.8021411999999999,0.3437748,-0.2291832000000001,-1.5813640800000002,1.1688343199999998,-16.15168602
6.11,611,0.032,0.032,-0.995,0.8021411999999999,0.3437748,-0.2291832000000001,-1.5756344999999998,1.1688343199999998,-16.15168602
6.12,612,0.03,0.031,-0.9940000000000001,0.8594370000000001,0.1718874,-0.11459160000000004,-1.56417534,1.1745639,-16.1574156
6.13,613,0.028999999999999998,0.031,-0.993,0.7448454000000001,0.1718874,-0.11459160000000004,-1.55844576,1.1745639,-16.1574156
6.14,614,0.027000000000000003,0.027999999999999997,-0.993,0.7448454000000001,0.11459160000000004,0.0,-1.5527161800000002,1.1745639,-16.1574156
6.15,615,0.027000000000000003,0.027999999999999997,-0.992,0.8021411999999999,0.11459160000000004,0.0,-1.6329303,1.1745639,-16.1574156
6.16,616,0.027000000000000003,0.027999999999999997,-0.992,0.8021411999999999,0.057295800000000015,-0.057295800000000015,-1.6272007199999998,1.1745639,-16.1574156
6.17,617,0.027000000000000003,0.026000000000000002,-0.992,0.8594370000000001,0.0,-0.11459160000000004,-1.6157415599999996,1.1745639,-16.16314518
6.18,618,0.026000000000000002,0.026000000000000002,-0.991,0.9167328000000001,-0.1718874,0.0,-1.6042824000000002,1.1745639,-16.16314518
6.1899999999999995,619,0.024,0.024,-0.99,0.8594370000000001,-0.286479,0.0,-1.59855282,1.1688343199999998,-16.16314518
6.2,620,0.024,0.023,-0.99,0.8021411999999999,-0.286479,0.0,-1.64438946,1.1573751600000002,-16.16314518
6.21,621,0.022000000000000002,0.02,-0.988,0.6302538000000001,-0.2291832000000001,0.0,-1.6386598799999998,1.15164558,-16.16314518
6.22,622,0.023,0.019,-0.9890000000000001,0.2291832000000001,-0.40107059999999994,0.0,-1.6386598799999998,1.1459160000000002,-16.16314518
6.2299999999999995,623,0.022000000000000002,0.017,-0.988,-0.11459160000000004,-0.6302538000000001,0.057295800000000015,-1.6386598799999998,1.14018642,-16.16314518
6.24,624,0.022000000000000002,0.017,-0.988,-0.1718874,-0.572958,0.057295800000000015,-1.6386598799999998,1.13445684,-16.16314518
6.25,625,0.021,0.018000000000000002,-0.9890000000000001,-0.1718874,-0.6875496,0.057295800000000015,-1.6902260999999998,1.09434978,-16.16314518
6.26,626,0.022000000000000002,0.018000000000000002,-0.99,-0.1718874,-0.8021411999999999,0.0,-1.6902260999999998,1.0886202,-16.16314518
6.27,627,0.021,0.019,-0.988,-0.11459160000000004,-0.8021411999999999,-0.057295800000000015,-1.6902260999999998,1.07716104,-16.16314518
6.28,628,0.022000000000000002,0.019,-0.988,0.0,-0.7448454000000001,-0.057295800000000015,-1.6902260999999998,1.07143146,-16.16314518
6.29,629,0.022000000000000002,0.017,-0.987,-0.057295800000000015,-0.6875496,-0.057295800000000015,-1.6902260999999998,1.06570188,-16.16314518
6.3,630,0.023,0.018000000000000002,-0.987,-0.057295800000000015,-0.8021411999999999,-0.057295800000000015,-1.73033316,1.04278356,-16.16314518
6.31,631,0.022000000000000002,0.019,-0.988,-0.057295800000000015,-0.7448454000000001,0.0,-1.73033316,1.03705398,-16.16314518
6.32,632,0.023,0.021,-0.991,-0.057295800000000015,-0.572958,-0.057295800000000015,-1.73606274,1.0313244000000001,-16.16314518
6.33,633,0.021,0.022000000000000002,-0.991,-0.057295800000000015,-0.286479,0.0,-1.73606274,1.0255948199999998,-16.16314518
6.34,634,0.021,0.022000000000000002,-0.991,-0.057295800000000015,-0.286479,0.057295800000000015,-1.73606274,1.0255948199999998,-16.16314518
6.35,635,0.02,0.021,-0.992,0.0,-0.2291832000000001,0.057295800000000015,-1.87357266,0.95683986,-16.16314518
6.36,636,0.021,0.019,-0.99,-0.2291832000000001,-0.057295800000000015,0.057295800000000015,-1.87357266,0.95683986,-16.16314518
6.37,637,0.022000000000000002,0.021,-0.991,-0.4583664000000001,-0.057295800000000015,0.0,-1.87930224,0.95683986,-16.16314518
6.38,638,0.024,0.022000000000000002,-0.992,-0.5156622000000001,-0.286479,0.0,-1.88503182,0.95111028,-16.16314518
6.39,639,0.026000000000000002,0.023,-0.9940000000000001,-0.572958,-0.1718874,0.0,-1.8907614,0.95111028,-16.16314518
6.4,640,0.027000000000000003,0.024,-0.991,-0.5156622000000001,0.0,0.0,-1.9595163600000003,0.95683986,-16.16314518
6.41,641,0.027000000000000003,0.022000000000000002,-0.9840000000000001,-0.8021411999999999,0.11459160000000004,-0.057295800000000015,-1.96524594,0.96256944,-16.16314518
6.42,642,0.026000000000000002,0.02,-0.982,-1.145916,0.1718874,-0.057295800000000015,-1.9767051,0.96256944,-16.16314518
6.43,643,0.027000000000000003,0.021,-0.982,-1.0313244000000001,0.2291832000000001,-0.11459160000000004,-1.98816426,0.96256944,-16.16314518
6.4399999999999995,644,0.028999999999999998,0.022000000000000002,-0.982,-0.9740286,0.40107059999999994,-0.11459160000000004,-1.99962342,0.96829902,-16.16887476
6.45,645,0.028999999999999998,0.025,-0.988,-1.145916,0.5156622000000001,0.0,-2.03973048,0.98548776,-16.16887476
6.46,646,0.028999999999999998,0.027000000000000003,-0.991,-0.9740286,0.40107059999999994,0.0,-2.05118964,0.9912173399999998,-16.16887476
6.47,647,0.028999999999999998,0.027000000000000003,-0.993,-0.6302538000000001,0.2291832000000001,0.0,-2.05691922,0.9912173399999998,-16.16887476
6.4799999999999995,648,0.027999999999999997,0.024,-0.9940000000000001,-0.40107059999999994,0.11459160000000004,-0.057295800000000015,-2.0626488000000003,0.9912173399999998,-16.16887476
6.49,649,0.027000000000000003,0.022000000000000002,-0.9940000000000001,-0.286479,0.1718874,-0.057295800000000015,-2.0626488000000003,0.9969469199999998,-16.16887476
6.5,650,0.027000000000000003,0.023,-0.993,-0.1718874,0.1718874,-0.057295800000000015,-2.14286292,0.9969469199999998,-16.16887476
6.51,651,0.026000000000000002,0.023,-0.992,-0.11459160000000004,0.3437748,0.0,-2.14286292,1.0026765,-16.16887476
6.52,652,0.024,0.023,-0.992,-0.1718874,0.3437748,0.0,-2.1485925000000003,1.0026765,-16.16887476
6.53,653,0.025,0.021,-0.9940000000000001,-0.286479,0.286479,0.0,-2.1485925000000003,1.00840608,-16.16887476
6.54,654,0.026000000000000002,0.021,-0.9940000000000001,-0.286479,0.2291832000000001,0.0,-2.15432208,1.00840608,-16.16887476
6.55,655,0.026000000000000002,0.021,-0.995,-0.3437748,0.1718874,0.0,-2.18296998,1.01986524,-16.16887476
6.56,656,0.026000000000000002,0.021,-0.9940000000000001,-0.1718874,0.057295800000000015,-0.11459160000000004,-2.18296998,1.01986524,-16.17460434
6.57,657,0.025,0.021,-0.991,0.0,-0.057295800000000015,-0.057295800000000015,-2.18296998,1.01986524,-16.17460434
6.58,658,0.025,0.021,-0.992,0.0,0.0,-0.11459160000000004,-2.18296998,1.01986524,-16.17460434
6.59,659,0.024,0.022000000000000002,-0.9890000000000001,-0.057295800000000015,0.0,-0.057295800000000015,-2.18296998,1.01986524,-16.17460434
6.6,660,0.025,0.023,-0.9890000000000001,0.0,0.057295800000000015,0.0,-2.2345362,1.01413566,-16.17460434
6.61,661,0.024,0.024,-0.9890000000000001,-0.057295800000000015,0.1718874,0.0,-2.2345362,1.01413566,-16.17460434
6.62,662,0.025,0.02,-0.988,-0.6302538000000001,0.3437748,0.0,-2.24026578,1.01986524,-16.17460434
6.63,663,0.026000000000000002,0.018000000000000002,-0.986,-2.0053530000000004,0.286479,0.057295800000000015,-2.2631841,1.01986524,-16.17460434
6.64,664,0.027999999999999997,0.009000000000000001,-0.975,-4.8128472,0.9167328000000001,0.286479,-2.30902074,1.0313244000000001,-16.17460434
6.65,665,0.03,0.012,-0.971,-8.021412000000002,1.2605076000000002,0.4583664000000001,-2.38923486,1.04278356,-16.16887476
6.66,666,0.028999999999999998,0.025,-0.977,-9.0527364,1.2605076000000002,0.4583664000000001,-2.48090814,1.05424272,-16.16314518
6.67,667,0.028999999999999998,0.033,-0.9840000000000001,-7.906820400000001,1.145916,0.40107059999999994,-2.5611222600000003,1.06570188,-16.1574156
6.68,668,0.027999999999999997,0.038,-0.9890000000000001,-6.7609043999999985,1.2032118,0.40107059999999994,-2.62987722,1.07716104,-16.15168602
6.6899999999999995,669,0.027000000000000003,0.038,-0.993,-6.0160589999999985,0.9167328000000001,0.40107059999999994,-2.6929026,1.0886202,-16.14595644
6.7,670,0.026000000000000002,0.035,-0.997,-5.3285094000000015,0.8021411999999999,0.3437748,-2.7501984,1.09434978,-16.14595644
6.71,671,0.026000000000000002,0.032,-0.998,-4.4690724,0.8021411999999999,0.4583664000000001,-2.79603504,1.10007936,-16.140226860000002
6.72,672,0.026000000000000002,0.032,-0.997,-3.5523396000000003,0.6875496,0.3437748,-2.8361421,1.11153852,-16.134497279999998
6.7299999999999995,673,0.027000000000000003,0.032,-0.997,-2.7501984,0.5156622000000001,0.1718874,-2.86479,1.1172681,-16.134497279999998
6.74,674,0.027999999999999997,0.035,-0.9940000000000001,-1.7761698000000001,0.286479,0.11459160000000004,-2.88197874,1.1172681,-16.1287677
6.75,675,0.028999999999999998,0.034,-0.9940000000000001,-1.2032118,0.0,0.057295800000000015,-2.90489706,1.1172681,-16.1287677
6.76,676,0.027999999999999997,0.035,-0.993,-0.8021411999999999,-0.1718874,0.057295800000000015,-2.91635622,1.1172681,-16.1287677
6.77,677,0.027999999999999997,0.037000000000000005,-0.992,-0.4583664000000001,-0.286479,0.057295800000000015,-2.91635622,1.11153852,-16.1287677
6.78,678,0.027000000000000003,0.037000000000000005,-0.992,-0.1718874,-0.40107059999999994,0.0,-2.9220857999999996,1.11153852,-16.1287677
6.79,679,0.026000000000000002,0.035,-0.993,0.0,-0.40107059999999994,-0.057295800000000015,-2.9220857999999996,1.10580894,-16.1287677
6.8,680,0.026000000000000002,0.036000000000000004,-0.993,0.4583664000000001,-0.3437748,0.0,-2.93354496,1.10007936,-16.1287677
6.81,681,0.024,0.035,-0.99,0.8021411999999999,-0.1718874,-0.057295800000000015,-2.9220857999999996,1.10007936,-16.1287677
6.82,682,0.025,0.035,-0.99,1.0886202,-0.3437748,0.0,-2.91062664,1.09434978,-16.1287677
6.83,683,0.024,0.033,-0.9890000000000001,1.0886202,-0.5156622000000001,-0.057295800000000015,-2.89916748,1.0886202,-16.1287677
6.84,684,0.025,0.032,-0.991,0.8594370000000001,-0.572958,0.0,-2.8934379,1.08289062,-16.1287677
6.85,685,0.025,0.034,-0.991,0.8021411999999999,-0.4583664000000001,0.0,-2.8934379,1.07716104,-16.134497279999998
6.86,686,0.026000000000000002,0.034,-0.99,0.8021411999999999,-0.40107059999999994,0.0,-2.88770832,1.07143146,-16.134497279999998
6.87,687,0.026000000000000002,0.034,-0.991,1.0313244000000001,-0.4583664000000001,-0.057295800000000015,-2.87624916,1.06570188,-16.134497279999998
6.88,688,0.026000000000000002,0.034,-0.988,0.9740286,-0.3437748,-0.11459160000000004,-2.86479,1.06570188,-16.134497279999998
6.89,689,0.025,0.036000000000000004,-0.9890000000000001,0.9740286,-0.11459160000000004,-0.11459160000000004,-2.85333084,1.0599723,-16.134497279999998
6.9,690,0.026000000000000002,0.035,-0.988,1.145916,-0.1718874,-0.1718874,-2.85906042,1.0599723,-16.140226860000002
6.91,691,0.027000000000000003,0.035,-0.988,1.2032118,-0.2291832000000001,-0.1718874,-2.84760126,1.0599723,-16.140226860000002
6.92,692,0.026000000000000002,0.034,-0.988,1.3178034,-0.1718874,-0.11459160000000004,-2.8361421,1.05424272,-16.140226860000002
6.93,693,0.027999999999999997,0.033,-0.9890000000000001,1.2605076000000002,-0.2291832000000001,-0.057295800000000015,-2.81895336,1.05424272,-16.14595644
6.9399999999999995,694,0.027999999999999997,0.032,-0.99,1.3750992,-0.3437748,-0.057295800000000015,-2.8074942000000003,1.04851314,-16.14595644
6.95,695,0.028999999999999998,0.032,-0.991,1.432395,-0.3437748,0.0,-2.79603504,1.04851314,-16.14595644
6.96,696,0.027000000000000003,0.032,-0.993,1.5469866,-0.3437748,0.057295800000000015,-2.78457588,1.04851314,-16.14595644
6.97,697,0.026000000000000002,0.032,-0.995,1.7188740000000002,-0.40107059999999994,0.057295800000000015,-2.76165756,1.04278356,-16.140226860000002
6.9799999999999995,698,0.025,0.032,-0.996,1.7761698000000001,-0.3437748,0.11459160000000004,-2.74446882,1.03705398,-16.140226860000002
6.99,699,0.024,0.03,-0.995,1.7761698000000001,-0.1718874,0.057295800000000015,-2.72728008,1.03705398,-16.140226860000002
7.0,700,0.025,0.028999999999999998,-0.992,1.7761698000000001,0.0,0.057295800000000015,-2.71009134,1.03705398,-16.140226860000002
7.01,701,0.026000000000000002,0.027000000000000003,-0.991,1.5469866,0.11459160000000004,0.057295800000000015,-2.69863218,1.04278356,-16.140226860000002
7.02,702,0.025,0.027000000000000003,-0.992,1.4896908000000002,0.0,0.0,-2.68144344,1.04278356,-16.140226860000002
7.03,703,0.027000000000000003,0.027000000000000003,-0.992,1.432395,0.0,-0.057295800000000015,-2.6642547000000003,1.04278356,-16.140226860000002
7.04,704,0.027999999999999997,0.027000000000000003,-0.992,1.4896908000000002,0.0,-0.057295800000000015,-2.65279554,1.04278356,-16.140226860000002
7.05,705,0.027000000000000003,0.025,-0.986,1.3178034,0.1718874,-0.057295800000000015,-2.6356068,1.04278356,-16.140226860000002
7.06,706,0.026000000000000002,0.025,-0.982,0.8594370000000001,0.1718874,-0.1718874,-2.62987722,1.04851314,-16.14595644
7.07,707,0.026000000000000002,0.026000000000000002,-0.98,0.9167328000000001,-0.1718874,-0.11459160000000004,-2.61841806,1.04278356,-16.14595644
7.08,708,0.027000000000000003,0.027000000000000003,-0.981,0.8021411999999999,-0.1718874,-0.1718874,-2.61268848,1.04278356,-16.14595644
7.09,709,0.027999999999999997,0.031,-0.9840000000000001,0.5156622000000001,0.0,-0.1718874,-2.6069589,1.04278356,-16.15168602
7.1,710,0.027000000000000003,0.033,-0.9890000000000001,0.3437748,-0.057295800000000015,-0.057295800000000015,-2.64706596,1.04851314,-16.15168602
7.11,711,0.027000000000000003,0.033,-0.992,0.40107059999999994,-0.11459160000000004,-0.057295800000000015,-2.6413363800000003,1.04851314,-16.15168602
7.12,712,0.027999999999999997,0.03,-0.993,0.6302538000000001,-0.2291832000000001,0.0,-2.6356068,1.04278356,-16.15168602
7.13,713,0.027000000000000003,0.026000000000000002,-0.993,0.6302538000000001,-0.286479,0.0,-2.62987722,1.04278356,-16.15168602
7.14,714,0.026000000000000002,0.027000000000000003,-0.993,0.40107059999999994,0.0,0.0,-2.62414764,1.04278356,-16.15168602
7.15,715,0.025,0.026000000000000002,-0.992,0.057295800000000015,0.057295800000000015,0.0,-2.65852512,1.00840608,-16.15168602
7.16,716,0.024,0.026000000000000002,-0.992,-0.2291832000000001,0.11459160000000004,0.0,-2.65852512,1.00840608,-16.15168602
7.17,717,0.023,0.025,-0.99,-0.572958,0.057295800000000015,0.0,-2.6642547000000003,1.00840608,-16.15168602
7.18,718,0.025,0.026000000000000002,-0.99,-1.0313244000000001,0.0,-0.057295800000000015,-2.67571386,1.00840608,-16.15168602
7.1899999999999995,719,0.025,0.027000000000000003,-0.99,-1.2605076000000002,-0.11459160000000004,-0.057295800000000015,-2.68717302,1.00840608,-16.15168602
7.2,720,0.025,0.027999999999999997,-0.988,-1.3750992,-0.11459160000000004,0.0,-2.70436176,1.0026765,-16.15168602
7.21,721,0.024,0.03,-0.991,-1.3750992,-0.3437748,-0.057295800000000015,-2.7215505,0.9969469199999998,-16.15168602
7.22,722,0.024,0.032,-0.9890000000000001,-1.3178034,-0.286479,0.0,-2.73300966,0.9969469199999998,-16.15168602
7.2299999999999995,723,0.025,0.033,-0.9890000000000001,-1.0886202,-0.1718874,0.057295800000000015,-2.74446882,0.9969469199999998,-16.15168602
7.24,724,0.024,0.034,-0.9890000000000001,-0.9167328000000001,-0.1718874,0.057295800000000015,-2.75592798,0.9912173399999998,-16.15168602
7.25,725,0.025,0.034,-0.99,-0.7448454000000001,-0.11459160000000004,0.0,-2.79030546,0.9912173399999998,-16.15168602
7.26,726,0.024,0.033,-0.991,-0.4583664000000001,-0.057295800000000015,0.0,-2.79603504,0.9912173399999998,-16.15168602
7.27,727,0.025,0.032,-0.991,-0.11459160000000004,-0.057295800000000015,0.0,-2.79603504,0.9912173399999998,-16.15168602
7.28,728,0.024,0.028999999999999998,-0.992,0.0,0.0,0.057295800000000015,-2.79603504,0.9912173399999998,-16.15168602
7.29,729,0.025,0.03,-0.993,0.11459160000000004,0.0,0.0,-2.79603504,0.9912173399999998,-16.15168602
7.3,730,0.025,0.028999999999999998,-0.993,0.286479,0.0,0.057295800000000015,-2.79603504,0.98548776,-16.14595644
7.31,731,0.024,0.027000000000000003,-0.992,0.286479,-0.057295800000000015,0.0,-2.79603504,0.98548776,-16.14595644
7.32,732,0.023,0.027000000000000003,-0.9890000000000001,0.1718874,0.057295800000000015,0.0,-2.79030546,0.98548776,-16.14595644
7.33,733,0.024,0.026000000000000002,-0.987,0.11459160000000004,0.1718874,0.0,-2.79030546,0.9912173399999998,-16.14595644
7.34,734,0.025,0.026000000000000002,-0.988,-0.057295800000000015,0.1718874,-0.057295800000000015,-2.79030546,0.9912173399999998,-16.14595644
7.35,735,0.025,0.026000000000000002,-0.988,-0.11459160000000004,0.11459160000000004,0.0,-2.78457588,1.0026765,-16.15168602
7.36,736,0.026000000000000002,0.027999999999999997,-0.9890000000000001,0.0,0.057295800000000015,0.0,-2.79030546,1.0026765,-16.15168602
7.37,737,0.026000000000000002,0.028999999999999998,-0.99,0.057295800000000015,0.0,-0.057295800000000015,-2.78457588,1.0026765,-16.15168602
7.38,738,0.025,0.03,-0.99,0.1718874,0.0,0.0,-2.78457588,1.0026765,-16.15168602
7.39,739,0.026000000000000002,0.03,-0.99,0.3437748,0.0,-0.057295800000000015,-2.7788463,1.0026765,-16.15168602
7.4,740,0.025,0.031,-0.991,0.5156622000000001,0.0,0.0,-2.78457588,1.0026765,-16.15168602
7.41,741,0.025,0.03,-0.99,0.4583664000000001,0.0,0.0,-2.78457588,1.0026765,-16.15168602
7.42,742,0.024,0.028999999999999998,-0.988,0.0,0.11459160000000004,0.0,-2.78457588,1.00840608,-16.15168602
7.43,743,0.024,0.028999999999999998,-0.9890000000000001,-0.286479,0.1718874,0.0,-2.78457588,1.00840608,-16.15168602
7.4399999999999995,744,0.024,0.03,-0.99,-0.286479,0.2291832000000001,-0.057295800000000015,-2.79030546,1.00840608,-16.15168602
7.45,745,0.024,0.028999999999999998,-0.991,-0.3437748,0.286479,-0.11459160000000004,-2.79603504,1.00840608,-16.1574156
7.46,746,0.025,0.031,-0.99,-0.2291832000000001,0.286479,-0.11459160000000004,-2.80176462,1.01413566,-16.1574156
7.47,747,0.026000000000000002,0.031,-0.991,-0.057295800000000015,0.286479,-0.11459160000000004,-2.80176462,1.01413566,-16.1574156
7.4799999999999995,748,0.026000000000000002,0.031,-0.992,0.0,0.286479,-0.057295800000000015,-2.80176462,1.01986524,-16.1574156
7.49,749,0.025,0.031,-0.991,0.11459160000000004,0.2291832000000001,0.0,-2.80176462,1.01986524,-16.1574156
7.5,750,0.024,0.031,-0.991,0.1718874,0.286479,-0.057295800000000015,-2.8074942000000003,1.01413566,-16.16314518
7.51,751,0.023,0.031,-0.99,0.1718874,0.3437748,0.0,-2.8074942000000003,1.01986524,-16.16314518
7.52,752,0.023,0.031,-0.9890000000000001,0.1718874,0.40107059999999994,0.0,-2.8074942000000003,1.0255948199999998,-16.16314518
7.53,753,0.025,0.031,-0.99,0.057295800000000015,0.572958,0.0,-2.80176462,1.0313244000000001,-16.16314518
7.54,754,0.025,0.03,-0.99,0.0,0.4583664000000001,0.0,-2.80176462,1.0313244000000001,-16.1574156
7.55,755,0.025,0.03,-0.991,-0.057295800000000015,0.40107059999999994,0.0,-2.81895336,1.0313244000000001,-16.16314518
7.56,756,0.027000000000000003,0.028999999999999998,-0.991,0.0,0.286479,0.0,-2.81895336,1.03705398,-16.16314518
7.57,757,0.026000000000000002,0.03,-0.99,0.0,0.1718874,0.0,-2.81895336,1.03705398,-16.1574156
7.58,758,0.027000000000000003,0.03,-0.9890000000000001,0.057295800000000015,0.057295800000000015,0.0,-2.81895336,1.03705398,-16.1574156
7.59,759,0.027000000000000003,0.028999999999999998,-0.987,0.11459160000000004,0.0,-0.057295800000000015,-2.81895336,1.03705398,-16.16314518
7.6,760,0.027000000000000003,0.03,-0.988,0.11459160000000004,0.057295800000000015,-0.11459160000000004,-2.82468294,1.05424272,-16.16314518
7.61,761,0.027000000000000003,0.027999999999999997,-0.9890000000000001,0.057295800000000015,0.057295800000000015,0.0,-2.82468294,1.05424272,-16.16314518
7.62,762,0.027000000000000003,0.028999999999999998,-0.9890000000000001,0.11459160000000004,0.0,0.0,-2.82468294,1.05424272,-16.16314518
7.63,763,0.027000000000000003,0.03,-0.99,0.2291832000000001,0.0,0.0,-2.81895336,1.05424272,-16.16314518
7.64,764,0.026000000000000002,0.03,-0.991,0.3437748,-0.1718874,0.0,-2.81895336,1.04851314,-16.16314518
7.65,765,0.026000000000000002,0.031,-0.992,0.286479,-0.11459160000000004,0.0,-2.83041252,1.04851314,-16.16314518
7.66,766,0.027000000000000003,0.03,-0.991,0.3437748,0.0,0.0,-2.82468294,1.04851314,-16.16314518
7.67,767,0.025,0.03,-0.99,0.286479,0.2291832000000001,0.057295800000000015,-2.81895336,1.05424272,-16.16314518
7.68,768,0.025,0.028999999999999998,-0.9890000000000001,0.1718874,0.2291832000000001,-0.057295800000000015,-2.81895336,1.05424272,-16.16314518
7.6899999999999995,769,0.027000000000000003,0.028999999999999998,-0.988,0.0,0.2291832000000001,0.0,-2.81895336,1.0599723,-16.16314518
7.7,770,0.027999999999999997,0.028999999999999998,-0.99,-0.057295800000000015,0.11459160000000004,-0.057295800000000015,-2.83041252,1.06570188,-16.16887476
7.71,771,0.027000000000000003,0.028999999999999998,-0.988,-0.057295800000000015,0.1718874,-0.057295800000000015,-2.83041252,1.06570188,-16.16887476
7.72,772,0.027000000000000003,0.027999999999999997,-0.986,-0.057295800000000015,0.1718874,0.0,-2.83041252,1.07143146,-16.16887476
7.7299999999999995,773,0.026000000000000002,0.026000000000000002,-0.9840000000000001,-0.3437748,0.2291832000000001,0.0,-2.8361421,1.07143146,-16.16887476
7.74,774,0.025,0.025,-0.981,-0.4583664000000001,-0.1718874,-0.1718874,-2.84187168,1.07143146,-16.16887476
7.75,775,0.026000000000000002,0.027000000000000003,-0.982,-0.1718874,-0.40107059999999994,-0.1718874,-2.84187168,1.06570188,-16.16887476
7.76,776,0.027999999999999997,0.028999999999999998,-0.986,-0.40107059999999994,-0.1718874,-0.1718874,-2.84760126,1.06570188,-16.17460434
7.77,777,0.027999999999999997,0.033,-0.99,-0.572958,-0.2291832000000001,-0.057295800000000015,-2.85333084,1.0599723,-16.17460434
7.78,778,0.027000000000000003,0.035,-0.995,-0.286479,-0.40107059999999994,0.0,-2.85906042,1.0599723,-16.17460434
7.79,779,0.027999999999999997,0.033,-0.9940000000000001,0.0,-0.4583664000000001,0.0,-2.85906042,1.05424272,-16.17460434
7.8,780,0.027000000000000003,0.031,-0.995,0.11459160000000004,-0.5156622000000001,0.0,-2.85906042,1.04851314,-16.17460434
7.81,781,0.027000000000000003,0.031,-0.9940000000000001,0.2291832000000001,-0.4583664000000001,0.0,-2.85333084,1.04278356,-16.17460434
7.82,782,0.025,0.031,-0.9940000000000001,0.2291832000000001,-0.3437748,0.057295800000000015,-2.85333084,1.04278356,-16.17460434
7.83,783,0.025,0.032,-0.9940000000000001,0.40107059999999994,-0.2291832000000001,0.1718874,-2.84760126,1.03705398,-16.16887476
7.84,784,0.025,0.031,-0.993,0.286479,-0.1718874,0.11459160000000004,-2.84187168,1.03705398,-16.16887476
7.85,785,0.026000000000000002,0.031,-0.993,0.1718874,-0.1718874,0.057295800000000015,-2.84760126,1.03705398,-16.16887476
7.86,786,0.026000000000000002,0.03,-0.992,0.11459160000000004,-0.1718874,0.057295800000000015,-2.84760126,1.0313244000000001,-16.16887476
7.87,787,0.026000000000000002,0.03,-0.991,0.11459160000000004,-0.11459160000000004,0.0,-2.84760126,1.0313244000000001,-16.16887476
7.88,788,0.025,0.03,-0.992,0.11459160000000004,-0.057295800000000015,0.0,-2.84760126,1.0313244000000001,-16.16887476
7.89,789,0.025,0.031,-0.991,0.11459160000000004,0.0,0.0,-2.84187168,1.0313244000000001,-16.16887476
7.9,790,0.025,0.032,-0.991,0.1718874,0.0,0.0,-2.87051958,1.0313244000000001,-16.16887476
7.91,791,0.025,0.032,-0.9890000000000001,0.057295800000000015,0.057295800000000015,0.0,-2.87051958,1.0313244000000001,-16.16314518
7.92,792,0.027000000000000003,0.031,-0.9890000000000001,0.0,0.057295800000000015,0.0,-2.86479,1.0313244000000001,-16.16314518
7.93,793,0.027000000000000003,0.031,-0.988,0.057295800000000015,0.057295800000000015,0.0,-2.86479,1.0313244000000001,-16.16314518
7.94,794,0.026000000000000002,0.03,-0.9890000000000001,0.11459160000000004,-0.11459160000000004,0.11459160000000004,-2.86479,1.0313244000000001,-16.16314518
