TimeStamp(s),FrameCounter,AccX,AccY,AccZ,GyrX,GyrY,GyrZ,EulerX,EulerY,EulerZ
0.01,1,-0.104,-1.0,-0.012,0.8021411999999999,0.286479,-0.057295800000000015,88.63660259999996,-5.27694318,-41.57383248
0.02,2,-0.103,-0.999,-0.018000000000000002,1.2032118,0.11459160000000004,-0.057295800000000015,88.64806175999998,-5.27694318,-41.57383248
0.03,3,-0.103,-1.001,-0.018000000000000002,1.3750992,0.1718874,-0.057295800000000015,88.6652505,-5.2712136,-41.5681029
0.04,4,-0.103,-1.001,-0.018000000000000002,1.6042823999999998,0.1718874,0.0,88.68243924,-5.2712136,-41.5681029
0.05,5,-0.105,-1.001,-0.017,1.8907613999999997,0.1718874,0.0,88.67670966,-5.28840234,-41.55664374
0.060000000000000005,6,-0.106,-1.001,-0.013,1.8334656000000005,0.057295800000000015,0.0,88.69389840000002,-5.2826727600000005,-41.55091416
0.06999999999999999,7,-0.107,-1.003,-0.008,1.2032118,0.1718874,-0.11459160000000004,88.70535756,-5.2826727600000005,-41.55091416
0.08,8,-0.105,-1.003,-0.008,0.6302538000000001,0.4583664000000001,-0.11459160000000004,88.71108714,-5.2826727600000005,-41.54518458
0.09,9,-0.103,-1.005,-0.01,0.286479,0.8594370000000001,0.0,88.71681672,-5.2826727600000005,-41.539455
0.09999999999999999,10,-0.101,-1.006,-0.009000000000000001,0.1718874,0.9167328,0.057295800000000015,88.69389840000002,-5.29413192,-41.51653668
0.11,11,-0.099,-1.007,-0.008,0.3437748,0.7448454000000001,0.0,88.69389840000002,-5.29413192,-41.50507752
0.12,12,-0.099,-1.006,-0.009000000000000001,0.5156622000000001,0.1718874,-0.11459160000000004,88.69962798,-5.29413192,-41.50507752
0.13,13,-0.099,-1.001,-0.008,0.572958,0.057295800000000015,-0.1718874,88.70535756,-5.28840234,-41.50507752
0.14,14,-0.1,-0.998,-0.009000000000000001,0.6875496,-0.1718874,-0.1718874,88.71108714,-5.28840234,-41.50507752
0.15000000000000002,15,-0.1,-0.995,-0.011,0.7448454000000001,-0.11459160000000004,-0.057295800000000015,88.67098008,-5.311320660000002,-41.4821592
0.16,16,-0.1,-0.997,-0.014,0.6875496,-0.057295800000000015,0.0,88.67670966,-5.311320660000002,-41.4821592
0.17,17,-0.101,-0.998,-0.015,0.8594370000000001,-0.057295800000000015,0.0,88.68243924,-5.311320660000002,-41.48788878
0.18000000000000002,18,-0.101,-0.999,-0.014,1.0886202,-0.057295800000000015,0.057295800000000015,88.69389840000002,-5.31705024,-41.48788878
0.19,19,-0.102,-1.0,-0.016,1.145916,-0.1718874,0.057295800000000015,88.71108714,-5.31705024,-41.48788878
0.2,20,-0.102,-1.002,-0.016,1.2032118,-0.4010706,0.057295800000000015,88.68816882,-5.32277982,-41.47642962
0.21000000000000002,21,-0.1,-1.0,-0.017,1.3178034,-0.572958,0.0,88.70535756,-5.32277982,-41.4821592
0.22,22,-0.099,-1.0,-0.015,0.4583664000000001,-0.9167328,-0.057295800000000015,88.71108714,-5.32277982,-41.48788878
0.23,23,-0.1,-1.001,-0.012,0.4010706,-1.145916,-0.11459160000000004,88.71681672,-5.32277982,-41.49934794
0.24000000000000002,24,-0.102,-1.002,-0.01,0.11459160000000004,-1.3178034,-0.11459160000000004,88.71681672,-5.31705024,-41.51653668
0.25,25,-0.102,-1.002,-0.009000000000000001,0.0,-1.3178034,-0.057295800000000015,88.69962798,-5.3285094000000015,-41.52226626
0.26,26,-0.103,-1.002,-0.01,-0.057295800000000015,-1.2605076000000002,-0.2291832000000001,88.69962798,-5.3285094000000015,-41.53372542
0.27,27,-0.102,-1.0,-0.01,0.0,-1.2605076000000002,-0.2291832000000001,88.69962798,-5.32277982,-41.54518458
0.28,28,-0.104,-0.999,-0.009000000000000001,0.11459160000000004,-1.145916,-0.286479,88.70535756,-5.32277982,-41.55664374
0.29000000000000004,29,-0.105,-1.0,-0.01,0.1718874,-1.145916,-0.3437748,88.70535756,-5.31705024,-41.5681029
0.3,30,-0.106,-1.0,-0.006999999999999999,0.11459160000000004,-1.0313244,-0.3437748,88.68816882,-5.33423898,-41.57383248
0.31,31,-0.108,-1.003,-0.006999999999999999,-0.11459160000000004,-0.8021411999999999,-0.286479,88.68816882,-5.3285094000000015,-41.57956206
0.32,32,-0.107,-1.004,-0.008,-0.572958,-0.3437748,-0.1718874,88.68243924,-5.3285094000000015,-41.58529164
0.33,33,-0.106,-1.004,-0.01,-0.9740286,0.0,-0.1718874,88.67098008,-5.3285094000000015,-41.58529164
0.34,34,-0.106,-1.004,-0.012,-1.145916,0.0,-0.1718874,88.65952092,-5.32277982,-41.58529164
0.35000000000000003,35,-0.103,-1.001,-0.014,-1.0313244,-0.11459160000000004,-0.286479,88.61941386,-5.3285094000000015,-41.57383248
0.36000000000000004,36,-0.099,-0.996,-0.02,-0.8021411999999999,-0.5156622000000001,-0.6875496,88.60795470000002,-5.32277982,-41.57383248
0.37,37,-0.096,-0.995,-0.022,-0.4583664000000001,-0.9740286,-0.9740286,88.60795470000002,-5.311320660000002,-41.58529164
0.38,38,-0.096,-0.994,-0.022,-0.1718874,-1.2605076000000002,-1.3178034,88.60795470000002,-5.2998615,-41.60248038
0.39,39,-0.099,-0.997,-0.024,-0.286479,-1.3178034,-1.6042823999999998,88.60222512,-5.2826727600000005,-41.61393954
0.4,40,-0.09,-0.998,-0.033,-0.9740286,-1.5469866,-1.9480572,88.56784764,-5.25975444,-41.61393954
0.41000000000000003,41,-0.07200000000000001,-1.001,-0.047,-1.3178034,-2.578311,-2.2345362,88.56211806,-5.23683612,-41.636857860000006
0.42000000000000004,42,-0.058,-1.008,-0.061,-1.3750992,-4.583664,-2.578311,88.5506589,-5.20818822,-41.682694500000004
0.43,43,-0.045,-1.014,-0.077,-1.5469866,-7.333862400000001,-2.86479,88.53919973999999,-5.17954032,-41.75717904
0.44,44,-0.036000000000000004,-1.019,-0.094,-1.5469866,-10.886202,-3.151269,88.53919973999999,-5.15089242,-41.86604106
0.45,45,-0.034,-1.019,-0.105,-1.5469866,-15.183387000000002,-3.6096354,88.52201099999998,-5.10505578,-42.00928055999999
0.46,46,-0.041,-1.024,-0.105,-1.6042823999999998,-17.7044022,-4.0680017999999984,88.52201099999998,-5.05921914,-42.18689754
0.47000000000000003,47,-0.052000000000000005,-1.032,-0.1,-2.578311,-18.7930224,-4.4117766,88.51055184,-5.01911208,-42.37597368
0.48000000000000004,48,-0.06,-1.043,-0.102,-4.6982556,-19.1367972,-4.7555514,88.48190394,-4.96754586,-42.56504982
0.49,49,-0.059,-1.05,-0.108,-6.5317212,-19.9962342,-5.2712136,88.43606729999998,-4.91597964,-42.76558512
0.5,50,-0.045,-1.053,-0.11,-7.9641161999999985,-21.6005166,-5.6149884000000005,88.36731234,-4.858683839999999,-42.97757958
0.51,51,-0.036000000000000004,-1.064,-0.109,-10.313244,-23.14750320000001,-5.3858052,88.28709822,-4.80711762,-43.20676278000001
0.52,52,-0.029,-1.073,-0.12,-15.6990492,-23.376686399999997,-4.9274388,88.14958829999998,-4.7555514,-43.44167556
0.53,53,-0.021,-1.0590000000000002,-0.14,-22.173474600000002,-23.0902074,-4.583664,87.94332342,-4.71544434,-43.67658834
0.54,54,-0.011,-1.031,-0.161,-24.2361234,-23.5485738,-4.5263682,87.7198698,-4.675337279999999,-43.91723070000001
0.55,55,-0.008,-1.004,-0.18,-24.4653066,-25.0382646,-5.2139178,87.48495702,-4.62377106,-44.16360264
0.56,56,-0.006,-0.988,-0.18600000000000005,-24.923673,-27.3873924,-6.9327918,87.26150340000002,-4.56074568,-44.43862248000001
0.5700000000000001,57,0.003,-0.986,-0.18600000000000005,-25.496631,-30.252182399999995,-9.3392154,87.02659062000002,-4.4748019800000005,-44.748019799999994
0.5800000000000001,58,0.014,-1.007,-0.177,-27.1582092,-32.8877892,-11.8602306,86.78021868,-4.37166954,-45.08033544
0.59,59,0.022,-1.031,-0.17600000000000002,-31.054323600000004,-34.2055926,-13.9228794,86.49946926,-4.24561878,-45.42983982
0.6,60,0.032,-1.041,-0.193,-34.7212548,-35.695283399999994,-15.756345000000001,86.17288319999999,-4.102379279999999,-45.79653294000001
0.61,61,0.04,-1.036,-0.213,-37.7006364,-39.3622146,-17.18874,85.82337881999999,-3.94768062,-46.20333312
0.62,62,0.042,-1.012,-0.225,-39.877876799999996,-43.8885828,-18.5065434,85.45095612,-3.79298196,-46.65024036
0.63,63,0.049,-0.983,-0.222,-41.19568020000001,-47.67010560000001,-19.938938399999998,85.07280384,-3.62109456,-47.14298424
0.64,64,0.057,-0.957,-0.209,-41.6540466,-49.6754586,-21.7151082,84.68892198,-3.44347758,-47.65864644
0.65,65,0.059,-0.943,-0.195,-43.77399120000001,-50.420304,-23.2620948,84.27639222,-3.24294228,-48.18003822000001
0.66,66,0.063,-0.921,-0.173,-45.779344200000004,-50.706783,-24.2361234,83.84667372,-3.04813656,-48.71288916
0.67,67,0.079,-0.899,-0.158,-46.753372799999994,-50.9359662,-24.694489800000003,83.40549606,-2.84760126,-49.245740100000006
0.68,68,0.093,-0.901,-0.14800000000000002,-50.133825,-51.10785360000001,-24.5226024,82.92994092,-2.65852512,-49.78432062
0.6900000000000001,69,0.107,-0.917,-0.136,-55.1758554,-52.2537696,-23.835052800000003,82.40281956,-2.48090814,-50.33436029999999
0.7000000000000001,70,0.124,-0.923,-0.149,-59.30115299999999,-53.39968560000001,-22.2880662,81.82986156,-2.3204799,-50.89012956
0.7100000000000001,71,0.142,-0.904,-0.174,-61.6502808,-54.08723520000001,-20.05353,81.22825566,-2.19442914,-51.45735798
0.72,72,0.175,-0.8909999999999999,-0.206,-62.7961968,-57.58227899999999,-18.048177,80.62092018,-2.09702628,-52.05896388
0.73,73,0.22,-0.898,-0.232,-64.457775,-64.28588760000001,-17.4179232,80.00212554,-2.02254174,-52.72359516
0.74,74,0.268,-0.919,-0.251,-65.4890994,-74.82831479999999,-18.6784308,79.37187173999997,-1.9595163600000003,-53.49135888000001
0.75,75,0.312,-0.947,-0.231,-65.2599162,-85.7145168,-21.772404,78.74734751999998,-1.87930224,-54.37371420000001
0.76,76,0.331,-0.959,-0.16899999999999998,-68.01011460000001,-94.70995740000001,-26.7571386,78.09990497999998,-1.78762896,-55.35920196000001
0.77,77,0.278,-0.986,-0.1,-70.473834,-102.6167778,-32.486718599999996,77.43527370000002,-1.6673077799999998,-56.43063342000001
0.78,78,0.222,-1.046,-0.031,-73.79699040000001,-108.7474284,-39.47680620000001,76.73053536,-1.50687954,-57.57654941999999
0.79,79,0.142,-1.071,-0.013,-83.5945722,-113.159205,-45.6647526,75.92839416000002,-1.30634424,-58.78549080000001
0.8,80,0.051,-1.044,-0.077,-91.959759,-109.721457,-49.4462754,75.03457968000002,-1.08289062,-59.97724344
0.81,81,-0.013,-1.015,-0.135,-97.2309726,-103.4762148,-51.68081160000001,74.07773982,-0.8422482600000001,-61.11170028
0.8200000000000001,82,-0.052000000000000005,-0.986,-0.19,-101.70004499999999,-99.694692,-52.712136,73.06933374,-0.6016058999999999,-62.22323879999999
0.8300000000000001,83,-0.07200000000000001,-0.937,-0.249,-101.2989744,-99.408213,-52.3683612,72.06665724,-0.38961144,-63.32904774000001
0.8400000000000001,84,-0.091,-0.888,-0.261,-98.0904096,-100.8979038,-51.279741,71.08689906,-0.20053530000000008,-64.45204542
0.85,85,-0.085,-0.8320000000000001,-0.17600000000000002,-95.0537322,-96.9444936,-50.6494872,70.14151836,-0.03437748,-65.54066562
0.86,86,-0.11,-0.78,-0.099,-90.9857304,-88.4074194,-49.1025006,69.22478556000002,0.12605075999999998,-66.54334212
0.87,87,-0.155,-0.807,-0.064,-90.813843,-79.0109082,-46.6387812,68.31378234,0.28647900000000004,-67.45434534
0.88,88,-0.179,-0.89,-0.016,-92.6473086,-73.1667366,-43.8885828,67.37413122000001,0.42398892,-68.30232318
0.89,89,-0.177,-0.923,-0.042,-96.829902,-71.79163740000001,-42.2270046,66.39437303999999,0.53858052,-69.13311228
0.9,90,-0.189,-0.853,-0.14400000000000002,-100.0957626,-69.21332640000001,-42.5707794,65.38023738,0.64744254,-69.94671264
0.91,91,-0.192,-0.754,-0.215,-99.0071424,-64.744254,-45.0917946,64.3718313,0.7849524600000001,-70.72593552
0.92,92,-0.185,-0.674,-0.237,-91.67328,-58.0979412,-50.133825,63.43790975999999,0.98548776,-71.47651049999997
0.93,93,-0.168,-0.644,-0.251,-81.8756982,-50.24841660000001,-57.4103916,62.60139108,1.27196676,-72.18697842
0.9400000000000001,94,-0.138,-0.647,-0.205,-74.771019,-42.2270046,-60.6189564,61.82789778,1.61001198,-72.84588012
0.9500000000000001,95,-0.18,-0.662,-0.071,-69.4425096,-32.486718599999996,-58.5563076,61.11742986,1.9595163600000003,-73.41883812
0.9600000000000001,96,-0.223,-0.644,-0.052000000000000005,-64.744254,-23.204799,-52.3683612,60.44706899999999,2.30329116,-73.87720451999998
0.97,97,-0.267,-0.631,-0.065,-63.88481700000001,-14.495837400000001,-45.9512316,59.78243772,2.62414764,-74.23816806
0.98,98,-0.25,-0.667,-0.154,-58.44171600000001,-9.0527364,-41.19568020000001,59.17510224,2.9220858,-74.52464705999998
0.99,99,-0.197,-0.763,-0.292,-54.717489,-8.136003599999999,-36.5547204,58.60787382,3.1913760600000005,-74.78820774
1.0,100,-0.068,-0.857,-0.387,-48.987909,-12.4904844,-30.3094782,58.0979412,3.37472262,-75.057498
1.01,101,0.025,-0.894,-0.416,-45.779344200000004,-18.5638392,-27.1582092,57.62238606,3.50077338,-75.36116574
1.02,102,0.086,-0.862,-0.405,-46.4668938,-21.3713334,-27.2728008,57.12964218,3.61536498,-75.68775179999999
1.03,103,0.091,-0.773,-0.378,-51.0505578,-24.0069402,-30.65325300000001,56.59106166,3.74141574,-76.0601745
1.04,104,0.087,-0.688,-0.34600000000000003,-53.9726436,-22.4026578,-36.2109456,56.01810366,3.91330314,-76.44978594
1.05,105,0.062,-0.579,-0.266,-53.571573,-23.4339822,-41.9405256,55.45087524,4.131027179999999,-76.88523402000001
1.06,106,0.034,-0.503,-0.302,-54.3164184,-20.798375399999998,-51.9099948,54.86645808000001,4.43469492,-77.35505958
1.07,107,0.042,-0.525,-0.35700000000000004,-48.0138804,-13.980175199999998,-61.30650600000001,54.33933671999999,4.84722468,-77.82488514
1.08,108,0.017,-0.645,-0.449,-42.398892,-10.9434978,-62.96808420000001,53.86951115999999,5.28840234,-78.28325154000002
1.09,109,0.008,-0.71,-0.444,-35.695283399999994,-10.0840608,-59.30115299999999,53.46271098,5.7009320999999975,-78.71869962000002
1.1,110,0.003,-0.743,-0.423,-31.4553942,-9.969469199999999,-55.86340500000001,53.10747702,6.079084379999999,-79.13695895999999
1.11,111,-0.035,-0.752,-0.41,-28.5906042,-9.1100322,-52.6548402,52.77516138,6.4400479200000005,-79.5265704
1.12,112,-0.065,-0.753,-0.408,-26.298772200000002,-7.161975,-50.0192334,52.46576406000001,6.79528188,-79.88753394
1.1300000000000001,113,-0.083,-0.722,-0.423,-24.923673,-4.7555514,-48.7587258,52.17355548000001,7.144786260000001,-80.22557916000002
1.1400000000000001,114,-0.08199999999999999,-0.685,-0.424,-23.835052800000003,-1.8334656000000005,-48.4722468,51.88707648,7.51147938,-80.54070606
1.1500000000000001,115,-0.057,-0.649,-0.5,-22.5172494,1.3750992,-48.1857678,51.617786220000006,7.88390208,-80.82718506
1.1600000000000001,116,0.009000000000000001,-0.6609999999999999,-0.485,-16.558486199999994,4.2398892,-47.9565846,51.41152134,8.28497268,-81.09074574
1.17,117,0.067,-0.6859999999999999,-0.462,-14.2093584,5.7868758000000025,-47.67010560000001,51.22817478,8.68604328,-81.34284726
1.18,118,0.132,-0.679,-0.472,-13.464512999999998,6.3025379999999975,-46.8106686,51.0505578,9.081384300000002,-81.5892192
1.19,119,0.17600000000000002,-0.6809999999999999,-0.457,-9.969469199999999,6.130650599999999,-45.6074568,50.91304787999999,9.47099574,-81.82413198
1.2,120,0.183,-0.6759999999999999,-0.475,-8.9954406,5.958763200000001,-44.8626114,50.78126754,9.8548776,-82.06477434
1.21,121,0.174,-0.685,-0.469,-5.3285094000000015,6.2452422,-43.831287,50.68386468,10.23302988,-82.29395754
1.22,122,0.16399999999999998,-0.72,-0.514,-4.1252976000000015,6.4744254,-42.112413,50.60365056000001,10.59399342,-82.51168158
1.23,123,0.173,-0.765,-0.55,-1.9480572,8.250595200000001,-39.3622146,50.54635476,10.94922738,-82.69502814
1.24,124,0.192,-0.812,-0.55,0.057295800000000015,9.0527364,-35.6379876,50.51197728,11.27581344,-82.85545637999998
1.25,125,0.194,-0.831,-0.583,0.5156622000000001,9.740286,-32.4294228,50.49478854,11.58521076,-82.98723672
1.26,126,0.202,-0.833,-0.5710000000000001,1.8907613999999997,9.797581800000001,-30.65325300000001,50.48905896,11.87741934,-83.1075579
1.27,127,0.206,-0.816,-0.555,1.3750992,11.3445684,-30.5959572,50.48332938,12.186816659999998,-83.21069034
1.28,128,0.214,-0.799,-0.55,0.8021411999999999,13.0061466,-31.741873200000004,50.46614064,12.507673139999998,-83.31382278
1.29,129,0.221,-0.792,-0.564,1.9480572,14.2093584,-32.7731976,50.46041106,12.84571836,-83.41122564
1.3,130,0.24,-0.7909999999999999,-0.602,2.1772404,14.9542038,-32.830493399999995,50.46041106,13.18949316,-83.50289891999998
1.31,131,0.241,-0.809,-0.636,4.9274388,14.9542038,-31.913760600000003,50.48905896,13.52753838,-83.58884262000002
1.32,132,0.246,-0.823,-0.649,5.958763200000001,14.8396122,-30.080295,50.52916602000001,13.84839486,-83.66332716000002
1.33,133,0.279,-0.852,-0.628,8.8235532,13.120738199999998,-27.501984000000004,50.59792098,14.14060344,-83.73781170000002
1.34,134,0.295,-0.8540000000000001,-0.634,10.9434978,10.255948199999999,-23.6631654,50.68959425999999,14.38697538,-83.80656666
1.35,135,0.294,-0.8540000000000001,-0.616,14.7823164,7.7349330000000025,-20.9702628,50.827104180000006,14.59896984,-83.8810512
1.36,136,0.28,-0.845,-0.604,16.1001198,5.9014674000000005,-19.480572,50.97034368,14.78804598,-83.95553574
1.37,137,0.254,-0.816,-0.595,18.2773602,5.7868758000000025,-18.334656,51.1365015,14.96566296,-84.03002028
1.3800000000000001,138,0.236,-0.8,-0.594,19.938938399999998,7.2765666,-17.589810600000003,51.32557764000001,15.149009520000002,-84.0815865
1.3900000000000001,139,0.209,-0.7959999999999999,-0.628,22.6891368,9.969469199999999,-17.18874,51.54330168,15.34954482,-84.11023440000002
1.4000000000000001,140,0.197,-0.82,-0.616,27.215505,12.4904844,-15.813640800000002,51.8240511,15.54435054,-84.10450482
1.4100000000000001,141,0.201,-0.8640000000000001,-0.625,31.22621100000001,14.495837400000001,-13.750992000000002,52.14490758000001,15.739156259999998,-84.07012734
1.42,142,0.205,-0.899,-0.624,33.1742682,15.4125702,-12.0894138,52.49441196,15.928232399999999,-84.01856111999999
1.43,143,0.238,-0.907,-0.61,33.5753388,16.2147114,-10.0840608,52.8553755,16.105849380000002,-83.94407658
1.44,144,0.251,-0.8859999999999999,-0.598,33.4607472,17.9908812,-8.7089616,53.21633904,16.28346636,-83.84667372
1.45,145,0.224,-0.888,-0.596,34.8931422,19.6524594,-8.3651868,53.60595048,16.461083340000002,-83.72635254
1.46,146,0.199,-0.8809999999999999,-0.5770000000000001,34.8358464,22.058883,-8.651665800000002,53.99556192,16.66161864,-83.5945722
1.47,147,0.18,-0.875,-0.575,35.0650296,24.4080108,-8.9381448,54.39090294,16.873613100000004,-83.43414396
1.48,148,0.168,-0.8759999999999999,-0.5760000000000001,36.8411994,28.361421000000004,-9.3392154,54.81489186,17.108525880000002,-83.24506782
1.49,149,0.16699999999999998,-0.884,-0.5720000000000001,39.591397799999996,33.002380800000005,-8.59437,55.28471741999999,17.36635698,-83.01015504
1.5,150,0.18,-0.921,-0.565,41.825934,36.03905820000001,-7.8495246,55.78892046,17.6184585,-82.74086478000002
1.51,151,0.207,-0.974,-0.54,43.9458786,37.81522800000001,-8.4224826,56.31604182,17.89347834,-82.45438578
1.52,152,0.224,-0.995,-0.508,42.97185,38.90384820000001,-8.59437,56.8374336,18.17422776,-82.15644762000002
1.53,153,0.232,-0.972,-0.515,42.112413,39.9924684,-7.8495246,57.35882538,18.45497718,-81.8470503
1.54,154,0.255,-0.963,-0.498,43.4302164,41.1383844,-7.1046792000000005,57.8974059,18.72426744,-81.51473466
1.55,155,0.266,-0.948,-0.505,43.258329,41.4821592,-5.6149884000000005,58.44744558,18.982098540000006,-81.16523028
1.56,156,0.278,-0.961,-0.509,46.065823200000004,41.825934,-3.7815227999999994,59.02613315999999,19.222740899999998,-80.80426674
1.57,157,0.29,-0.984,-0.511,47.0398518,41.1383844,-1.3750992,59.62200948000001,19.44046494,-80.43184404
1.58,158,0.305,-0.971,-0.498,47.3263308,40.2789474,0.5156622000000001,60.22361538,19.63527066,-80.05369175999998
1.59,159,0.325,-0.968,-0.493,48.0138804,39.534102,2.0053530000000004,60.83668044,19.80142848,-79.67553948
1.6,160,0.358,-0.981,-0.489,46.982556,38.5600734,3.6669312000000014,61.43828634000001,19.950397560000006,-79.29165762
1.61,161,0.378,-0.981,-0.493,46.352302200000004,37.0703826,6.2452422,62.03416266000001,20.06498916,-78.90777576
1.62,162,0.387,-1.01,-0.4970000000000001,48.3003594,35.0650296,8.479778399999999,62.64722772,20.15093286,-78.53535306
1.6300000000000001,163,0.345,-1.005,-0.48,45.206386200000004,33.6326346,10.3705398,63.23164488,20.20822866,-78.15720078000003
1.6400000000000001,164,0.3,-0.943,-0.473,42.91455420000001,33.9764094,12.2040054,63.798873300000004,20.24260614,-77.77331892
1.6500000000000001,165,0.269,-0.948,-0.434,45.0917946,35.52339600000001,11.3445684,64.38902004,20.28844278,-77.3779779
1.6600000000000001,166,0.249,-0.959,-0.4370000000000001,41.7113424,38.27359439999999,9.9121734,64.95051888,20.35719774,-76.95971856
1.6700000000000002,167,0.245,-0.936,-0.436,39.877876799999996,40.2216516,8.9381448,65.50055856,20.43741186,-76.53000005999998
1.68,168,0.232,-0.924,-0.443,40.164355799999996,41.8832298,7.906820400000001,66.06205739999999,20.52908514,-76.08309282
1.69,169,0.223,-0.923,-0.425,38.7892566,45.0917946,6.1879464,66.61209708,20.64367674,-75.61326726
1.7,170,0.212,-0.93,-0.4270000000000001,37.6433406,48.0711762,3.8961144,67.16213676,20.78118666,-75.12052338000002
1.71,171,0.201,-0.982,-0.4,39.3622146,50.993262,1.2032118,67.73509476,20.95307406,-74.60486118
1.72,172,0.177,-0.974,-0.374,36.4401288,55.06126379999999,-0.057295800000000015,68.2965936,21.14787978,-74.06055108000002
1.73,173,0.19,-0.949,-0.353,36.4401288,57.52498320000001,-0.8594370000000001,68.86382202,21.35414466,-73.4818635
1.74,174,0.21600000000000005,-0.96,-0.331,37.81522800000001,58.5563076,-1.0313244,69.45396876,21.55467996,-72.89744634
1.75,175,0.25,-0.948,-0.321,36.5547204,60.16059,0.286479,70.0441155,21.7437561,-72.28438128
1.76,176,0.263,-0.948,-0.328,36.2682414,61.07732280000001,2.0053530000000004,70.63999182,21.9156435,-71.65985706000002
1.77,177,0.254,-0.93,-0.331,33.74722620000001,62.5097178,4.1252976000000015,71.21867940000001,22.06461258,-71.00668494
1.78,178,0.276,-0.949,-0.319,34.4347758,63.7702254,4.6409598,71.81455572,22.20785208,-70.33632408
1.79,179,0.264,-0.922,-0.294,31.340802600000004,64.8015498,4.7555514,72.38178414,22.345362,-69.64877448000001
1.8,180,0.28600000000000003,-0.897,-0.277,31.6845774,65.4318036,4.9847345999999995,72.95474214000002,22.47141276,-68.96122488
1.81,181,0.316,-0.917,-0.244,35.2942128,65.66098679999999,5.3285094000000015,73.57353678,22.59746352,-68.26221611999999
1.82,182,0.334,-0.905,-0.218,34.37748,66.3485364,6.3598338,74.18660184000002,22.70632554,-67.55174819999999
1.83,183,0.35100000000000003,-0.875,-0.2,34.1482968,66.9214944,7.8495246,74.80539647999998,22.792269240000003,-66.82982111999999
1.84,184,0.373,-0.863,-0.195,34.950438,67.5517482,9.3965112,75.43565028,22.85529462,-66.09643487999999
1.85,185,0.4320000000000001,-0.944,-0.183,41.7113424,67.9528188,8.5370742,76.14038862,22.92977916,-65.35731906
1.86,186,0.34600000000000003,-0.924,-0.19,34.37748,69.61439700000001,11.0580894,76.77637200000002,22.96415664,-64.59528492
1.87,187,0.363,-0.901,-0.18,29.1062664,70.87490460000002,12.834259199999998,77.36651874,22.98134538,-63.81606204
1.8800000000000001,188,0.373,-0.918,-0.171,32.7731976,72.3645954,13.521808800000002,78.00250212,22.98707496,-63.01392083999999
1.8900000000000001,189,0.404,-0.96,-0.16399999999999998,31.6845774,71.7343416,13.349921400000001,78.62129675999998,22.98707496,-62.22323879999999
1.9000000000000001,190,0.449,-0.992,-0.15,30.8251404,69.72898860000001,13.349921400000001,79.22863224,22.9756158,-61.45547508000001
1.9100000000000001,191,0.471,-0.995,-0.13,30.7105488,67.2079734,14.7250206,79.82450856,22.93550874,-60.71062968
1.9200000000000002,192,0.482,-0.97,-0.114,28.1322378,66.2912406,16.7876694,80.3860074,22.866753780000003,-59.97151386
1.93,193,0.482,-0.949,-0.106,26.1268848,66.5204238,18.3919518,80.9303175,22.78081008,-59.23239804
1.94,194,0.462,-0.915,-0.112,24.637194,66.9787902,19.9962342,81.46316844,22.66621848,-58.48182306
1.95,195,0.435,-0.931,-0.124,25.3820394,67.609044,21.1421502,82.00174896,22.54016772,-57.73124808
1.96,196,0.403,-0.952,-0.121,23.835052800000003,67.5517482,22.345362,82.52314074,22.39692822,-56.97494352
1.97,197,0.404,-0.961,-0.112,18.334656,64.8015498,23.7204612,82.97577756,22.22504082,-56.25301644
1.98,198,0.402,-0.96,-0.105,17.5325148,62.16594300000001,24.8663772,83.40549606,22.03596468,-55.55973726
1.99,199,0.4370000000000001,-1.002,-0.096,18.907614000000002,57.63957480000001,26.1268848,83.82948498,21.829699800000004,-54.91229472
2.0,200,0.449,-1.008,-0.07,13.2926256,53.5142772,28.6479,84.18471894,21.58905744,-54.31068882
2.01,201,0.466,-0.968,-0.07200000000000001,7.6203414,49.560867,31.8564648,84.45973878,21.3140376,-53.75491956
2.02,202,0.454,-0.906,-0.104,6.130650599999999,44.8626114,34.4920716,84.70038114,20.9989107,-53.24498694
2.03,203,0.404,-0.875,-0.107,8.078707799999998,42.398892,37.0703826,84.94675308000002,20.66086548,-52.76370221999999
2.04,204,0.348,-0.826,-0.102,5.0993262,39.7632852,38.61736920000001,85.15301796,20.29990194,-52.3110654
2.05,205,0.302,-0.7959999999999999,-0.07400000000000001,7.1046792000000005,38.4454818,39.0184398,85.370742,19.9389384,-51.86988774
2.0599999999999996,206,0.287,-0.784,-0.025,10.9434978,38.0444112,38.5600734,85.62857310000003,19.57797486,-51.44016924
2.07,207,0.275,-0.76,-0.013,12.4331886,36.4974246,38.1590028,85.8864042,19.21701132,-51.02763948000001
2.0799999999999996,208,0.292,-0.7809999999999999,0.015,16.558486199999994,36.4401288,38.0444112,86.18434235999996,18.85604778,-50.61510972
2.09,209,0.29100000000000004,-0.778,0.023,20.626488,35.122325399999994,38.0444112,86.51665799999998,18.48935466,-50.22549828
2.0999999999999996,210,0.29600000000000004,-0.823,0.053,24.2361234,35.0650296,37.8725238,86.88335112,18.12839112,-49.83588684
2.11,211,0.292,-0.852,0.052000000000000005,23.4339822,37.4714532,38.1590028,87.24431466,17.761698000000006,-49.42335708
2.1199999999999997,212,0.28,-0.845,0.023,23.5485738,35.4088044,40.164355799999996,87.59954862,17.37208656,-49.03374564
2.13,213,0.261,-0.858,0.083,26.7571386,37.1849742,42.28430039999999,87.98343048000002,16.959556799999998,-48.63267504
2.1399999999999997,214,0.258,-0.853,0.067,25.3247436,36.7839036,42.8572584,88.35012359999996,16.53556788,-48.23733402000001
2.15,215,0.239,-0.8440000000000001,0.062,29.1062664,35.52339600000001,42.7426668,88.75692378,16.11157896,-47.85345216
2.1599999999999997,216,0.238,-0.847,0.113,30.8824362,37.24227,41.7113424,89.16945354,15.6990492,-47.46384072
2.17,217,0.256,-0.8640000000000001,0.099,34.1482968,37.0130868,41.3675676,89.61636078000002,15.28078986,-47.07422928
2.1799999999999997,218,0.249,-0.898,0.13,38.8465524,36.7839036,41.76863820000001,90.10910466,14.862530519999998,-46.696077
2.19,219,0.273,-0.8909999999999999,0.18,36.4974246,39.9351726,41.3675676,90.57893022,14.438541599999999,-46.28354724
2.1999999999999997,220,0.298,-0.861,0.14400000000000002,38.7319608,38.5027776,40.2789474,91.06594452,14.03174142,-45.893935799999994
2.21,221,0.27,-0.868,0.149,42.62807520000001,39.6486936,38.38818600000001,91.59306588,13.63067082,-45.49859478
2.2199999999999998,222,0.285,-0.917,0.174,42.7426668,41.4821592,37.7006364,92.11445766,13.2353298,-45.08606502
2.23,223,0.246,-0.943,0.138,43.0291458,42.112413,37.8725238,92.64157902,12.834259200000002,-44.66780568
2.2399999999999998,224,0.232,-0.961,0.153,44.2323576,42.62807520000001,38.5027776,93.17442996,12.421729440000002,-44.25527592
2.25,225,0.193,-0.977,0.16699999999999998,46.00852740000001,40.90920120000001,39.6486936,93.72446964,11.99774052,-43.86566448
2.26,226,0.149,-0.975,0.13,44.06047020000001,41.76863820000001,39.6486936,94.251591,11.56802202,-43.46459388
2.27,227,0.14,-1.007,0.119,43.8885828,44.51883660000001,38.38818600000001,94.77298278,11.1440331,-43.04633454
2.28,228,0.14400000000000002,-1.073,0.071,45.263682,47.7274014,37.9298196,95.31156330000002,10.7143146,-42.5994273
2.29,229,0.14400000000000002,-1.087,0.053,40.8519054,51.4516284,37.4714532,95.80430718,10.2845961,-42.11814258
2.3,230,0.145,-1.053,0.059,37.757932200000006,52.8840234,35.9817624,96.26840316,9.86060718,-41.62539870000001
2.31,231,0.134,-0.938,0.056,36.38283300000001,52.3110654,34.4920716,96.70958082,9.453807,-41.1383844
2.32,232,0.14300000000000002,-0.943,0.019,40.164355799999996,54.029939399999996,29.793816,97.19086554,9.081384300000002,-40.63991094
2.3299999999999996,233,0.165,-0.906,0.078,47.1544434,57.2958,25.3820394,97.7466348,8.74333908,-40.10133042
2.34,234,0.294,-0.968,0.041,48.3003594,63.4264506,29.621928600000004,98.3195928,8.353727639999999,-39.51118368
2.3499999999999996,235,0.382,-1.1740000000000002,0.238,78.09417540000003,71.21867940000001,57.1812084,99.19048896,7.6719076200000025,-38.88665946
2.36,236,0.293,-1.202,0.489,75.74504759999998,76.9482594,61.9940556,100.03273722,6.92133264,-38.23348734
2.3699999999999997,237,0.245,-1.253,0.7440000000000001,91.2722094,74.0834694,49.847346,101.02395456,6.285349259999999,-37.59177438
2.38,238,0.337,-1.4269999999999998,0.882,102.5021862,72.9948492,25.84040580000001,102.12403392000002,5.87854908,-36.92141352
2.3899999999999997,239,0.44,-1.696,0.966,134.8170174,66.463128,11.1153852,103.55069934,5.6149884000000005,-36.29115972
2.4,240,0.509,-1.779,0.985,126.96749280000002,54.6601932,8.8235532,104.87996189999998,5.39153478,-35.77549752
2.4099999999999997,241,0.485,-1.587,0.84,90.24088499999999,44.117766,5.2712136,105.83107218,5.2139178,-35.35723818
2.42,242,0.416,-1.331,0.669,79.0109082,34.66395900000001,0.11459160000000004,106.6561317,5.11078536,-35.01919296
2.4299999999999997,243,0.327,-1.16,0.621,82.90702259999998,26.2414764,-1.9480572,107.52129828,5.05348956,-34.75563228
2.44,244,0.279,-1.062,0.491,59.186561399999995,20.05353,0.286479,108.13436334,4.9847346,-34.560826559999995
2.4499999999999997,245,0.197,-0.915,0.496,47.7274014,16.8449652,4.3544808,108.65002554,4.893061319999998,-34.41185748
2.46,246,0.048,-0.843,0.511,54.94667220000001,14.266654199999998,7.5630456000000015,109.21152438,4.77846972,-34.29726588
2.4699999999999998,247,-0.032,-0.848,0.458,58.78549079999999,11.3445684,9.224623800000002,109.81885986,4.65241896,-34.217051760000004
2.48,248,-0.055,-0.845,0.597,60.50436480000001,6.9327918,8.651665800000002,110.43192492,4.549286520000001,-34.17121512000001
2.4899999999999998,249,-0.046,-0.879,0.6729999999999999,58.2125328,4.1825934,7.5630456000000015,111.02780124,4.46334282,-34.15402638
2.5,250,-0.003,-0.914,0.625,51.3943326,5.0993262,5.5003968,111.56638176,4.38885828,-34.12537848
2.51,251,0.006999999999999999,-0.928,0.624,48.8733174,7.0473834,2.1199446,112.06485522,4.34302164,-34.0623531
2.52,252,-0.036000000000000004,-0.935,0.6629999999999999,47.0398518,11.3445684,-0.6875496,112.55186952,4.30864416,-33.9477615
2.53,253,-0.083,-0.933,0.6920000000000001,43.544808,16.157415599999997,-1.145916,113.00450634,4.25134836,-33.79306284
2.54,254,-0.136,-0.933,0.685,38.3308902,19.5378678,0.5156622000000001,113.40557694,4.16540466,-33.61544586
2.55,255,-0.116,-0.906,0.6629999999999999,29.335449600000004,24.2361234,3.2658606,113.73789258,4.022165159999999,-33.41491056
2.56,256,-0.04,-0.867,0.696,25.496631,26.5279554,6.130650599999999,114.00718284,3.85600734,-33.197186519999995
2.57,257,-0.003,-0.903,0.5820000000000001,23.6631654,26.814434400000003,10.1986524,114.25355478,3.64974246,-32.996651220000004
2.5799999999999996,258,0.006,-0.941,0.5589999999999999,22.6891368,29.507337,13.5791046,114.49419714,3.39764094,-32.784656760000004
2.59,259,-0.027000000000000003,-0.977,0.599,18.2200644,30.5386614,15.870936600000002,114.68900286,3.1226211000000004,-32.57839188
2.5999999999999996,260,-0.078,-0.962,0.4920000000000001,10.026765,31.3980984,17.7044022,114.79786488,2.8074942000000003,-32.37785658
2.61,261,-0.091,-0.916,0.52,10.255948199999999,31.741873200000004,17.9908812,114.91245648000002,2.50955604,-32.1715917
2.6199999999999997,262,-0.053,-0.911,0.589,10.5424272,30.366774000000003,15.870936600000002,115.0213185,2.22880662,-31.965326819999994
2.63,263,0.003,-0.93,0.555,8.3651868,27.7311672,13.0061466,115.11299178000002,1.99389384,-31.776250680000004
2.6399999999999997,264,0.053,-0.946,0.537,6.9327918,26.298772200000002,9.6256944,115.18174674000002,1.78762896,-31.58144496
2.65,265,0.081,-0.951,0.5539999999999999,3.3231564,24.8663772,6.417129599999999,115.23331296,1.6272007199999998,-31.39236882
2.6599999999999997,266,0.071,-0.955,0.486,-0.4583664000000001,23.204799,4.9847345999999995,115.22758338,1.4782316400000002,-31.20902226
2.67,267,0.067,-0.967,0.434,-2.0626488000000003,21.027558600000006,6.3598338,115.21039464,1.32926256,-31.04859402
2.6799999999999997,268,0.087,-0.983,0.463,-3.0939732,17.761698000000006,8.4224826,115.17601716,1.1745638999999999,-30.92827284
2.69,269,0.093,-1.019,0.415,-5.3858052,14.5531332,8.9381448,115.12445094,1.0255948199999998,-30.83659956
2.6999999999999997,270,0.087,-1.031,0.4270000000000001,-5.1566220000000005,12.5477802,7.906820400000001,115.06142556,0.91100322,-30.75638544000001
2.71,271,0.078,-1.051,0.475,-6.760904399999999,10.599723,6.130650599999999,114.9926706,0.8136003599999999,-30.68763048000001
2.7199999999999998,272,0.057,-1.072,0.451,-12.2040054,7.7349330000000025,5.0993262,114.86661984,0.72765666,-30.64179384
2.73,273,0.038,-1.084,0.41,-16.1001198,4.1825934,4.9847345999999995,114.70619159999998,0.66463128,-30.63033468
2.7399999999999998,274,0.049,-1.084,0.43,-18.6784308,-1.2032118,4.6982556,114.51711546,0.6302538000000001,-30.66471216
2.75,275,0.076,-1.067,0.428,-23.0902074,-6.703608600000001,4.5263682,114.27074352,0.62452422,-30.7391967
2.76,276,0.1,-1.033,0.416,-26.5279554,-12.4331886,5.5576926,114.00145326,0.62452422,-30.87670662
2.77,277,0.105,-1.007,0.418,-28.361421000000004,-15.870936600000002,7.2192707999999985,113.71497426,0.6302538000000001,-31.054323600000004
2.78,278,0.085,-1.005,0.395,-30.194886600000004,-18.048177,8.307891,113.40557694,0.6302538000000001,-31.2548589
2.79,279,0.049,-1.009,0.397,-32.372127,-19.1367972,8.59437,113.07899088,0.6302538000000001,-31.46112378
2.8,280,0.01,-1.016,0.3720000000000001,-34.950438,-19.938938399999998,8.7089616,112.71802733999998,0.62452422,-31.67884782
2.81,281,-0.033,-1.004,0.359,-35.7525792,-20.511896399999998,9.3392154,112.3570638,0.62452422,-31.90803102
2.82,282,-0.033,-0.979,0.383,-36.32553720000001,-21.3140376,10.1986524,111.9846411,0.61306506,-32.142943800000005
2.8299999999999996,283,-0.022,-0.949,0.36,-36.4401288,-22.058883,11.4018642,111.61794798,0.59587632,-32.389315739999994
2.84,284,-0.008,-0.931,0.3720000000000001,-35.17962120000001,-23.491278,12.605076,111.25698444,0.56722842,-32.658606000000006
2.8499999999999996,285,0.006,-0.909,0.403,-34.8358464,-25.0382646,13.464512999999998,110.91320964000002,0.53858052,-32.93935542
2.86,286,-0.006,-0.87,0.454,-32.257535399999995,-25.55392680000001,14.266654199999998,110.58662358,0.4984734599999999,-33.22583442
2.8699999999999997,287,-0.055,-0.841,0.4920000000000001,-29.8511118,-23.777757,15.183387000000002,110.28295584,0.44690724,-33.506583840000005
2.88,288,-0.114,-0.861,0.446,-31.5699858,-18.6784308,16.272007199999994,109.96209936,0.36096354,-33.73576704
2.8899999999999997,289,-0.15,-0.8740000000000001,0.459,-33.2888598,-12.4904844,16.7876694,109.62405414,0.24637194,-33.913384019999995
2.9,290,-0.173,-0.843,0.487,-34.8931422,-9.568398599999998,16.386598799999998,109.28027934,0.10886202,-34.06808268
2.9099999999999997,291,-0.139,-0.8240000000000001,0.368,-37.9871154,-4.4117766,14.896907999999998,108.89639748,-0.01145916,-34.16548554000001
2.92,292,-0.093,-0.826,0.402,-33.9764094,-1.6615782,12.0894138,108.55262268,-0.12032118,-34.22278134
2.9299999999999997,293,-0.016,-0.805,0.429,-32.372127,-4.6982556,9.5111028,108.22030704,-0.20053530000000008,-34.30299546
2.94,294,0.028,-0.7809999999999999,0.406,-25.1528562,-10.0840608,8.307891,107.96820552,-0.24637194,-34.42331664
2.9499999999999997,295,0.07400000000000001,-0.775,0.477,-17.5325148,-11.2872726,7.6776372,107.83642518000002,-0.26356068,-34.56655614
2.96,296,0.099,-0.7809999999999999,0.546,-16.558486199999994,-10.4278356,7.5057497999999985,107.67026736,-0.29793816,-34.68687732
2.9699999999999998,297,0.079,-0.794,0.522,-18.7357266,-9.740286,8.078707799999998,107.48119122,-0.3437748,-34.8071985
2.98,298,0.041,-0.825,0.431,-18.449247600000003,-10.4851314,8.3651868,107.29784466,-0.38961144,-34.933249260000004
2.9899999999999998,299,0.01,-0.8759999999999999,0.457,-14.381245800000002,-10.9434978,6.3598338,107.15460516,-0.41825934,-35.05357044
3.0,300,-0.035,-0.933,0.468,-12.2040054,-13.521808800000002,3.0939732,107.06293188,-0.41252976,-35.20253952
3.01,301,-0.059,-0.963,0.444,-14.037471,-12.0894138,0.5156622000000001,106.91969238,-0.37815228,-35.31713112
3.02,302,-0.094,-0.968,0.45,-15.2979786,-10.1986524,-1.6042823999999998,106.7707233,-0.33231564,-35.41453398
3.03,303,-0.118,-0.972,0.46,-15.126091199999998,-7.5630456000000015,-3.6096354,106.61602464,-0.27501984,-35.47755936
3.04,304,-0.141,-0.983,0.451,-15.469866,-5.042030400000002,-4.3544808,106.46132598,-0.21772404,-35.51193684000001
3.05,305,-0.147,-0.987,0.415,-16.8449652,-1.432395,-3.8388186,106.31808648,-0.21772404,-35.53485516
3.06,306,-0.14,-0.983,0.405,-17.0168526,0.2291832000000001,-2.8074942000000003,106.14619908,-0.18907614,-35.52339600000001
3.07,307,-0.11,-1.0,0.362,-17.9908812,0.572958,-1.0313244,105.96285252,-0.18334656,-35.51766642
3.08,308,-0.077,-1.032,0.311,-19.767051,0.1718874,1.6042823999999998,105.76231722,-0.20053530000000008,-35.52339600000001
3.09,309,-0.042,-1.069,0.249,-20.1108258,-1.2605076000000002,4.583664,105.55605234,-0.24064236,-35.5520439
3.0999999999999996,310,-0.017,-1.096,0.253,-19.480572,-3.3231564,7.7349330000000025,105.34978746,-0.30939732,-35.60361012
3.11,311,-0.018000000000000002,-1.096,0.257,-21.6005166,-4.9847345999999995,10.255948199999999,105.13206342,-0.38961144,-35.68382424
3.1199999999999997,312,-0.034,-1.075,0.205,-24.5798982,-5.0993262,11.745639,104.88569148000002,-0.49274388,-35.76403836
3.13,313,-0.052000000000000005,-1.033,0.218,-26.41336380000001,-4.1252976000000015,11.1153852,104.61640122,-0.59014674,-35.83279331999999
3.1399999999999997,314,-0.065,-0.993,0.233,-29.621928600000004,-2.8074942000000003,8.479778399999999,104.31846306,-0.66463128,-35.88435954
3.15,315,-0.084,-0.957,0.223,-31.22621100000001,-0.9167328,5.844171599999999,103.991877,-0.73338624,-35.91300744
3.1599999999999997,316,-0.097,-0.942,0.183,-32.0283522,1.8907613999999997,4.5263682,103.67102052,-0.7849524600000001,-35.91300744
3.17,317,-0.106,-0.954,0.173,-29.9657034,2.4064236,3.8388186,103.36162319999998,-0.8307891,-35.90154828
3.1799999999999997,318,-0.104,-0.979,0.168,-30.1375908,2.0626488000000003,3.8388186,103.05795546,-0.87089616,-35.89581869999999
3.19,319,-0.1,-0.983,0.141,-29.9084076,1.2605076000000002,3.9534102,102.75428772,-0.9167328000000001,-35.89581869999999
3.1999999999999997,320,-0.078,-0.976,0.151,-28.991674800000002,0.5156622000000001,3.2658606,102.4448904,-0.96256944,-35.90154828
3.21,321,-0.056,-0.952,0.166,-28.074942,-0.286479,1.4896908000000002,102.1584114,-0.9740286,-35.90727786
3.2199999999999998,322,-0.027000000000000003,-0.938,0.17800000000000002,-26.5279554,-0.11459160000000004,-0.7448454000000001,101.88912114,-0.96829902,-35.91300744
3.23,323,-0.005,-0.937,0.2,-25.210152,0.6302538000000001,-3.151269,101.63129004,-0.93965112,-35.90154828
3.2399999999999998,324,-0.005,-0.953,0.184,-24.350715,1.2032118,-5.2139178,101.3849181,-0.89381448,-35.88435954
3.25,325,0.0,-0.979,0.188,-23.835052800000003,1.7761698,-5.3858052,101.13281658,-0.8422482600000001,-35.85571164
3.26,326,-0.015,-1.005,0.187,-23.204799,1.0313244,-4.5263682,100.8979038,-0.8021412000000001,-35.8385229
3.27,327,-0.029,-1.014,0.189,-23.3193906,0.7448454000000001,-3.6669312000000014,100.66299102,-0.76776372,-35.82706374
3.28,328,-0.035,-1.017,0.189,-23.376686399999997,0.4010706,-3.151269,100.42234866,-0.7391158200000001,-35.82133416
3.29,329,-0.032,-1.017,0.18,-24.064235999999998,0.1718874,-2.8074942000000003,100.1817063,-0.7161975,-35.81560458
3.3,330,-0.017,-0.998,0.188,-24.4080108,-0.057295800000000015,-2.9220857999999996,99.92960478,-0.6875496,-35.81560458
3.31,331,-0.001,-0.968,0.197,-23.6058696,-0.8594370000000001,-3.2658606,99.694692,-0.65317212,-35.82133416
3.32,332,0.01,-0.949,0.201,-23.5485738,-1.0886202,-3.8961144,99.45404964,-0.61306506,-35.82706374
3.33,333,0.016,-0.933,0.197,-24.0069402,-1.4896908000000002,-4.1825934,99.2076777,-0.5729580000000001,-35.8385229
3.34,334,0.003,-0.928,0.202,-21.2567418,-1.7761698,-4.4117766,98.99568324,-0.52712136,-35.84998205999999
3.3499999999999996,335,-0.018000000000000002,-0.943,0.208,-20.454600600000006,-1.2032118,-4.583664,98.79514794,-0.48128472,-35.86144122
3.36,336,-0.032,-0.958,0.199,-21.027558600000006,-0.7448454000000001,-4.4117766,98.58315348,-0.44117766,-35.8671708
3.3699999999999997,337,-0.036000000000000004,-0.967,0.191,-20.511896399999998,-0.11459160000000004,-3.9534102,98.3768886,-0.4010706000000001,-35.86144122
3.38,338,-0.03,-0.98,0.197,-18.907614000000002,0.0,-3.380452200000001,98.18208288,-0.36669312,-35.86144122
3.3899999999999997,339,-0.029,-0.983,0.198,-18.162768600000003,0.0,-2.4637194,97.99873632,-0.3437748,-35.86144122
3.4,340,-0.023,-0.968,0.205,-17.475219,0.1718874,-1.6042823999999998,97.83830808,-0.33231564,-35.86144122
3.4099999999999997,341,-0.014,-0.959,0.194,-16.272007199999994,0.3437748,-1.3178034,97.67215026,-0.32085648,-35.86144122
3.42,342,0.0,-0.96,0.18600000000000005,-14.4385416,0.6302538000000001,-1.2032118,97.52891076,-0.31512690000000004,-35.85571164
3.4299999999999997,343,0.001,-0.961,0.184,-13.349921400000001,0.3437748,-0.9167328,97.39140084,-0.30366774,-35.84998205999999
3.44,344,-0.005,-0.954,0.17800000000000002,-13.0061466,0.286479,-0.5156622000000001,97.2596205,-0.29793816,-35.84998205999999
3.4499999999999997,345,-0.01,-0.951,0.16399999999999998,-11.45916,0.1718874,-0.3437748,97.15648806,-0.29793816,-35.84998205999999
3.46,346,-0.012,-0.954,0.161,-9.969469199999999,0.1718874,-0.1718874,97.05335562,-0.29793816,-35.84998205999999
3.4699999999999998,347,-0.014,-0.959,0.157,-8.880849000000003,0.2291832000000001,-0.2291832000000001,96.96168234,-0.29793816,-35.84998205999999
3.48,348,-0.02,-0.97,0.154,-7.7922288,0.1718874,-0.057295800000000015,96.88146822,-0.29793816,-35.84425248
3.4899999999999998,349,-0.023,-0.974,0.155,-7.0473834,0.0,-0.1718874,96.81271325999998,-0.29220857999999994,-35.84998205999999
3.5,350,-0.026,-0.979,0.154,-6.2452422,-0.4583664000000001,-0.1718874,96.76114704,-0.30939732,-35.86144122
3.51,351,-0.023,-0.984,0.146,-5.7868758000000025,-0.572958,0.0,96.70385124,-0.30939732,-35.8671708
3.52,352,-0.016,-0.987,0.14300000000000002,-5.1566220000000005,-0.7448454000000001,0.286479,96.65228502,-0.30939732,-35.87290038
3.53,353,-0.017,-0.986,0.14400000000000002,-4.5263682,-1.145916,0.6875496,96.60644838,-0.31512690000000004,-35.89008912
3.54,354,-0.022,-0.984,0.14400000000000002,-3.9534102,-1.3178034,0.9167328,96.56634132,-0.32658606,-35.90154828
3.55,355,-0.024,-0.982,0.14400000000000002,-3.380452200000001,-1.3178034,0.9167328,96.53769342,-0.34950438,-35.9244666
3.56,356,-0.026,-0.982,0.141,-3.0939732,-1.145916,0.8594370000000001,96.50904552,-0.36096354,-35.93592576
3.57,357,-0.03,-0.98,0.142,-2.7501984,-1.0886202,0.6875496,96.48039762,-0.36669312,-35.94738492000001
3.58,358,-0.036000000000000004,-0.981,0.138,-2.6929026,-1.0886202,0.7448454000000001,96.45174972,-0.3724227000000001,-35.95884408
3.59,359,-0.035,-0.985,0.136,-2.4637194,-1.0886202,0.7448454000000001,96.4288314,-0.37815228,-35.97030324
3.5999999999999996,360,-0.029,-0.988,0.141,-1.9480572,-1.0886202,0.7448454000000001,96.4288314,-0.41252976,-35.99322156
3.61,361,-0.027000000000000003,-0.992,0.14400000000000002,-1.7188740000000002,-1.432395,0.7448454000000001,96.41164266,-0.41825934,-36.01041030000001
3.6199999999999997,362,-0.026,-0.995,0.145,-1.432395,-1.7761698,0.6302538000000001,96.4001835,-0.42398892,-36.02759904
3.63,363,-0.027000000000000003,-0.997,0.147,-1.0886202,-2.1199446,0.6302538000000001,96.38872434,-0.42398892,-36.05051736
3.6399999999999997,364,-0.031,-0.997,0.15,-0.9167328,-2.2345362,0.7448454000000001,96.37726518,-0.4297185000000001,-36.07343568
3.65,365,-0.033,-0.997,0.154,-1.2032118,-2.0626488000000003,0.8021411999999999,96.40591308,-0.46982556,-36.10781315999999
3.6599999999999997,366,-0.037000000000000005,-0.994,0.158,-1.0886202,-1.6615782,0.8594370000000001,96.39445392000002,-0.48128472,-36.13073148
3.67,367,-0.04,-0.99,0.162,-0.8594370000000001,-1.2605076000000002,0.9167328,96.38872434,-0.4870143000000001,-36.14219064
3.6799999999999997,368,-0.039,-0.988,0.162,-0.8021411999999999,-0.7448454000000001,0.8594370000000001,96.38299476,-0.49274388,-36.14792022
3.69,369,-0.039,-0.987,0.16,-0.6875496,-0.572958,0.9167328,96.3715356,-0.5042030399999999,-36.15937938
3.6999999999999997,370,-0.036000000000000004,-0.984,0.161,-0.572958,-0.4583664000000001,0.9740286,96.46320888,-0.5786875800000001,-36.19948644
3.71,371,-0.034,-0.983,0.163,-0.1718874,-0.4583664000000001,1.0313244,96.4574793,-0.59014674,-36.20521602
3.7199999999999998,372,-0.033,-0.979,0.16399999999999998,0.4583664000000001,-0.4583664000000001,1.0313244,96.46320888,-0.59587632,-36.2109456
3.73,373,-0.032,-0.977,0.16399999999999998,0.8594370000000001,-0.6302538000000001,1.0313244,96.47466804,-0.6073354799999999,-36.21667518
3.7399999999999998,374,-0.033,-0.977,0.165,1.3750992,-0.6302538000000001,0.9740286,96.4861272,-0.61879464,-36.22240476
3.75,375,-0.037000000000000005,-0.977,0.16899999999999998,1.7761698,-0.4010706,0.8021411999999999,96.58925964,-0.6703608600000001,-36.25678224
3.76,376,-0.038,-0.979,0.173,2.1199446,-0.3437748,0.7448454000000001,96.61217795999998,-0.67609044,-36.26251182
3.77,377,-0.04,-0.982,0.171,2.6356068,-0.1718874,0.7448454000000001,96.64082586,-0.68182002,-36.26251182
3.78,378,-0.039,-0.984,0.177,3.2085648,0.057295800000000015,0.7448454000000001,96.66947376,-0.69327918,-36.26251182
3.79,379,-0.037000000000000005,-0.986,0.181,3.7815227999999994,0.1718874,0.6875496,96.70958082,-0.69900876,-36.26251182
3.8,380,-0.036000000000000004,-0.987,0.185,4.2398892,0.286479,0.572958,96.81271325999998,-0.72765666,-36.27970056
3.81,381,-0.038,-0.988,0.181,4.4117766,0.572958,0.4583664000000001,96.85282032,-0.73338624,-36.27397098
3.82,382,-0.038,-0.989,0.17600000000000002,4.5263682,0.6302538000000001,0.4010706,96.89865696,-0.7391158200000001,-36.2682414
3.83,383,-0.035,-0.989,0.17600000000000002,4.6982556,0.5156622000000001,0.286479,96.95022318,-0.7448454000000001,-36.26251182
3.84,384,-0.035,-0.989,0.177,4.8128472,0.4583664000000001,0.11459160000000004,96.99605982,-0.7448454000000001,-36.25678224
3.8499999999999996,385,-0.034,-0.987,0.174,4.8701430000000006,0.6302538000000001,0.0,97.0877331,-0.76203414,-36.26251182
3.86,386,-0.031,-0.983,0.17600000000000002,5.1566220000000005,0.8021411999999999,-0.057295800000000015,97.13929932,-0.76203414,-36.25105266
3.8699999999999997,387,-0.032,-0.979,0.17600000000000002,6.130650599999999,1.0313244,-0.2291832000000001,97.20232469999999,-0.76203414,-36.2395935
3.88,388,-0.037000000000000005,-0.976,0.177,7.2192707999999985,1.2032118,-0.3437748,97.27680924,-0.76203414,-36.22813434
3.8899999999999997,389,-0.036000000000000004,-0.963,0.172,9.224623800000002,0.6875496,-0.9167328,97.36848252,-0.75057498,-36.21667518
3.9,390,-0.036000000000000004,-0.967,0.199,11.516455800000001,1.145916,-1.8907613999999997,97.51172202,-0.7448454000000001,-36.2109456
3.9099999999999997,391,-0.038,-0.965,0.192,10.255948199999999,1.7188740000000002,-2.3491278,97.61485446,-0.72192708,-36.18802728
3.92,392,-0.035,-0.948,0.174,14.0947668,2.1772404,-2.6356068,97.75809396,-0.69900876,-36.15937938
3.9299999999999997,393,-0.03,-0.973,0.205,17.7044022,2.9220857999999996,-2.6929026,97.93571094,-0.67609044,-36.1250019
3.94,394,-0.036000000000000004,-0.971,0.201,14.495837400000001,3.2658606,-2.4637194,98.08468002,-0.65317212,-36.09062442
3.9499999999999997,395,-0.045,-0.956,0.182,14.7823164,4.8701430000000006,-2.3491278,98.2336491,-0.65317212,-36.03905820000001
3.96,396,-0.065,-0.937,0.177,18.162768600000003,6.2452422,-2.9220857999999996,98.41699566,-0.6302538000000001,-35.97030324
3.9699999999999998,397,-0.066,-0.932,0.179,21.1421502,7.7349330000000025,-4.1825934,98.62899012,-0.6016058999999999,-35.88435954
3.98,398,-0.066,-0.921,0.153,21.199446,8.136003599999999,-5.1566220000000005,98.84671416,-0.56722842,-35.79841584000001
3.9899999999999998,399,-0.062,-0.883,0.175,23.8923486,9.0527364,-5.844171599999999,99.08735652,-0.52139178,-35.695283399999994
4.0,400,-0.058,-0.863,0.191,26.356068,9.8548776,-7.1046792000000005,99.35664678,-0.47555514,-35.58642138000001
4.01,401,-0.045,-0.8590000000000001,0.219,27.3300966,12.032117999999999,-8.5370742,99.63166662,-0.41252976,-35.45464104
4.02,402,-0.053,-0.906,0.202,29.2781538,13.6936962,-9.224623800000002,99.9238752,-0.34950438,-35.29994238
4.03,403,-0.065,-0.961,0.18600000000000005,31.340802600000004,15.0114996,-8.307891,100.2390021,-0.29220857999999994,-35.133784559999995
4.04,404,-0.061,-1.0,0.182,32.486718599999996,15.9282324,-6.417129599999999,100.56558816,-0.26356068,-34.96762674
4.05,405,-0.053,-1.028,0.16399999999999998,33.1742682,15.9282324,-4.8128472,100.89217422000002,-0.25210152,-34.79573934
4.06,406,-0.037000000000000005,-1.032,0.158,31.111619399999995,17.761698000000006,-4.2398892,101.20730112,-0.24637194,-34.61239278000001
4.07,407,-0.011,-1.006,0.147,28.934379,19.9962342,-5.2712136,101.4995097,-0.23491278,-34.4061279
4.08,408,-0.001,-0.978,0.135,30.0229992,20.912967,-6.6463128000000005,101.79744786,-0.21772404,-34.18840386
4.09,409,0.0,-0.959,0.149,32.945085,20.798375399999998,-7.6776372,102.1297635,-0.18907614,-33.96495024
4.1,410,0.004,-0.954,0.161,35.2942128,20.168121600000006,-7.8495246,102.47926788,-0.16042824,-33.74722620000001
4.109999999999999,411,0.01,-0.954,0.182,37.7006364,18.9649098,-7.0473834,102.85742016000002,-0.13178034,-33.5466909
4.12,412,0.008,-0.957,0.2,38.961144,17.761698000000006,-5.3285094000000015,103.2470316,-0.12605075999999998,-33.357614760000004
4.13,413,0.017,-0.959,0.215,38.61736920000001,16.8449652,-2.86479,103.63664304,-0.13750992,-33.18572736
4.14,414,0.004,-0.961,0.21600000000000005,39.19032720000001,15.527161800000002,0.286479,104.03771364000002,-0.17761697999999998,-33.03675828
4.1499999999999995,415,-0.011,-0.952,0.217,39.534102,14.5531332,3.6669312000000014,104.42732508,-0.25210152,-32.89924836
4.16,416,-0.012,-0.934,0.25,39.7632852,14.4385416,6.1879464,104.82839568,-0.34950438,-32.7731976
4.17,417,-0.03,-0.935,0.251,39.591397799999996,14.667724800000002,8.078707799999998,105.22946628,-0.46982556,-32.647146840000005
4.18,418,-0.048,-0.942,0.255,39.247623,15.183387000000002,9.3965112,105.6248073,-0.6016058999999999,-32.52682566
4.1899999999999995,419,-0.054000000000000006,-0.94,0.278,38.67466500000001,14.9542038,9.797581800000001,106.01441874,-0.73338624,-32.40650448
4.2,420,-0.046,-0.929,0.285,37.7006364,14.037471,8.880849000000003,106.39257102,-0.86516658,-32.29191288
4.21,421,-0.026,-0.916,0.285,37.81522800000001,11.8602306,7.448453999999999,106.77645288,-0.96829902,-32.19451002
4.22,422,0.008,-0.916,0.29600000000000004,38.61736920000001,9.3392154,5.7868758000000025,107.16606432,-1.05424272,-32.120025479999995
4.2299999999999995,423,0.038,-0.921,0.326,39.820581,6.3598338,4.297185,107.56713492000002,-1.11153852,-32.068459260000004
4.24,424,0.042,-0.931,0.334,40.4508348,2.6356068,3.380452200000001,107.97966468,-1.15164558,-32.05127052
4.25,425,0.04,-0.936,0.339,40.90920120000001,-0.2291832000000001,1.8907613999999997,108.39219444,-1.1573751600000002,-32.05127052
4.26,426,0.042,-0.949,0.355,41.8832298,-2.5210152000000003,-0.572958,108.82191294,-1.14018642,-32.068459260000004
4.27,427,0.025,-0.955,0.3720000000000001,41.596750799999995,-4.8701430000000006,-3.380452200000001,109.24590186,-1.0886202,-32.09710716
4.28,428,-0.001,-0.94,0.393,40.8519054,-6.760904399999999,-6.417129599999999,109.65843162,-1.0026765,-32.13148464
4.29,429,-0.041,-0.936,0.394,40.737313799999995,-7.5057497999999985,-9.3392154,110.07669096,-0.8880849000000001,-32.16586212
4.3,430,-0.065,-0.949,0.439,39.820581,-6.990087599999999,-12.2040054,110.48922072,-0.75057498,-32.183050859999994
4.31,431,-0.08800000000000001,-0.971,0.48,37.1276784,-6.589017,-15.183387000000002,110.867373,-0.5844171599999999,-32.183050859999994
4.32,432,-0.104,-0.991,0.48,33.116972399999995,-3.8961144,-17.8762896,111.20541822,-0.4010706000000001,-32.15440296
4.33,433,-0.105,-0.99,0.4970000000000001,29.67922440000001,-0.9167328,-21.772404,111.50335638,-0.19480572,-32.07991842
4.34,434,-0.109,-0.975,0.478,25.9549974,0.8021411999999999,-26.7571386,111.76691706,0.04010706,-31.965326819999994
4.35,435,-0.099,-0.972,0.475,26.0122932,1.6615782,-31.054323600000004,112.03620732,0.30939732,-31.83354648000001
4.36,436,-0.096,-0.99,0.504,26.69984280000001,2.7501984,-33.1742682,112.31122716,0.6073354799999999,-31.67884782
4.37,437,-0.105,-1.018,0.502,24.694489800000003,4.5263682,-33.002380800000005,112.56332868,0.89381448,-31.51269000000001
4.38,438,-0.121,-1.028,0.504,22.345362,7.333862400000001,-31.8564648,112.79251188,1.15164558,-31.31788428
4.39,439,-0.134,-1.027,0.5379999999999999,19.5378678,9.1100322,-30.4813656,112.99304718,1.39801752,-31.11734898000001
4.3999999999999995,440,-0.14400000000000002,-1.027,0.528,14.7823164,10.1413566,-28.81978740000001,113.15347542,1.59855282,-30.9110841
4.41,441,-0.125,-1.013,0.519,10.7716104,11.688343199999998,-27.6165756,113.26806702,1.8048176999999999,-30.69908964
4.42,442,-0.116,-0.997,0.503,7.6776372,11.0580894,-26.642547,113.34828114,1.99962342,-30.49282476
4.43,443,-0.108,-0.99,0.478,5.5576926,10.026765,-25.496631,113.41130652,2.19442914,-30.298019040000003
4.4399999999999995,444,-0.098,-0.991,0.465,4.0680017999999984,9.2819196,-24.2361234,113.45714316,2.37204612,-30.12040206
4.45,445,-0.096,-1.002,0.451,2.86479,8.3651868,-23.14750320000001,113.49152064,2.52674478,-29.95424424
4.46,446,-0.093,-1.017,0.462,1.3750992,8.9954406,-22.8037284,113.51443896,2.6929026,-29.78235684
4.47,447,-0.119,-1.017,0.459,-2.2345362,9.797581800000001,-22.91832,113.49725022,2.86479,-29.599010280000005
4.4799999999999995,448,-0.117,-0.989,0.464,-6.417129599999999,12.318597,-23.14750320000001,113.43995442,3.01948866,-29.398474980000003
4.49,449,-0.119,-0.948,0.484,-7.7922288,13.8655836,-22.9756158,113.37119946,3.1741873200000006,-29.186480520000003
4.5,450,-0.119,-0.889,0.4970000000000001,-9.9121734,16.1001198,-22.173474600000002,113.29098534,3.28304934,-28.95729732
4.51,451,-0.091,-0.835,0.504,-10.313244,20.5691922,-21.7151082,113.19931206,3.3919113599999995,-28.68800706
4.52,452,-0.064,-0.8009999999999999,0.505,-7.3911582,23.6058696,-21.829699800000004,113.14201626,3.4950437999999995,-28.39006890000001
4.53,453,-0.065,-0.8079999999999999,0.527,-3.6096354,28.074942,-23.7204612,113.11909794,3.59817624,-28.0462941
4.54,454,-0.068,-0.852,0.565,-2.1199446,33.0596766,-28.7051958,113.11909794,3.724227,-27.63949392
4.55,455,-0.062,-0.875,0.561,-4.8128472,36.6120162,-34.4920716,113.11336836,3.873196080000002,-27.17539794
4.56,456,-0.046,-0.8590000000000001,0.5489999999999999,-8.651665800000002,38.38818600000001,-40.10706,113.05034298,4.0794609600000005,-26.6711949
4.57,457,-0.017,-0.858,0.579,-7.0473834,37.81522800000001,-44.4615408,113.01023592,4.3315624800000005,-26.16126228
4.58,458,0.048,-0.8540000000000001,0.606,-6.589017,34.8931422,-46.065823200000004,112.97585844,4.60658232,-25.66278882000001
4.59,459,0.127,-0.828,0.621,-11.745639,33.002380800000005,-46.1804148,112.88991474,4.893061319999998,-25.18723368
4.6,460,0.19,-0.83,0.619,-13.349921400000001,29.7365202,-45.1490904,112.80970062,5.19099948,-24.74605602
4.61,461,0.213,-0.857,0.614,-11.4018642,26.2414764,-43.1437374,112.7294865,5.48320806,-24.34498542
4.62,462,0.218,-0.89,0.632,-12.4331886,23.3193906,-40.8519054,112.63208364,5.7582279000000005,-23.9782923
4.63,463,0.201,-0.906,0.609,-17.9335854,19.938938399999998,-38.3308902,112.48311456000002,6.0275181600000005,-23.65170624000001
4.64,464,0.205,-0.889,0.593,-19.0222056,17.0741484,-36.6120162,112.31695674,6.29680842,-23.35376808
4.6499999999999995,465,0.149,-1.011,0.593,-13.0634424,13.0061466,-34.091001,112.21955388,6.560369099999999,-23.10739614
4.66,466,0.168,-0.972,0.611,-18.907614000000002,9.1100322,-32.7159018,112.04766648,6.82392978,-22.90686084
4.67,467,0.209,-1.035,0.555,-22.91832,2.1772404,-30.1375908,111.82994244,7.09322004,-22.7750805
4.68,468,0.234,-1.014,0.499,-28.0176462,-5.042030400000002,-28.8770832,111.55492259999998,7.37969904,-22.7177847
4.6899999999999995,469,0.292,-1.075,0.498,-25.2674478,-14.152062599999999,-25.78311,111.29136192,7.6719076200000025,-22.75789176
4.7,470,0.335,-1.041,0.504,-35.5806918,-23.14750320000001,-24.5798982,110.91893922,7.9927641,-22.88394252
4.71,471,0.334,-1.137,0.513,-32.0283522,-31.627281600000003,-18.8503182,110.56370526,8.28497268,-23.11312572
4.72,472,0.354,-1.11,0.569,-40.4508348,-38.3308902,-17.7044022,110.11679802,8.58864042,-23.41106388
4.7299999999999995,473,0.322,-1.134,0.5660000000000001,-46.6387812,-44.117766,-12.7769634,109.58967665999998,8.86938984,-23.78348658
4.74,474,0.295,-1.095,0.594,-49.3316838,-49.3316838,-10.7716104,109.02817782,9.138680099999998,-24.21893466
4.75,475,0.297,-1.079,0.603,-54.08723520000001,-51.9099948,-8.4224826,108.42084234,9.40224078,-24.68303064
4.76,476,0.293,-1.063,0.569,-59.98870260000001,-56.4936588,-7.1046792000000005,107.73329274,9.6543423,-25.20442242
4.77,477,0.278,-1.052,0.562,-59.1292656,-59.8168152,-3.8961144,107.04574313999998,9.883525500000001,-25.76592126
4.78,478,0.32,-1.033,0.642,-67.1506776,-63.25456320000001,-3.7815227999999994,106.26652026,10.1127087,-26.36752716
4.79,479,0.441,-1.0,0.746,-76.77637200000002,-61.134618599999996,-1.9480572,105.38989451999998,10.30751442,-26.96340348
4.8,480,0.472,-0.961,0.8079999999999999,-77.062851,-55.86340500000001,-0.4010706,104.5361871,10.47367224,-27.50771358
4.81,481,0.425,-0.93,0.754,-72.3645954,-48.0138804,-0.8594370000000001,103.72258674000004,10.60545258,-27.98326872
4.82,482,0.35200000000000004,-0.956,0.342,-60.6189564,-55.06126379999999,1.3750992,103.01211882,10.73150334,-28.52757882
4.83,483,0.28800000000000003,-0.993,0.47,-37.41415739999999,-62.7961968,5.443101,102.52510452,10.828906199999999,-29.157832620000004
4.84,484,0.262,-0.994,0.353,-43.77399120000001,-66.80690279999999,8.880849000000003,101.9578761,10.89766116,-29.83392306
4.85,485,0.255,-0.916,0.2,-43.831287,-67.43715660000001,12.4904844,101.39637726,10.932038639999998,-30.52720224
4.86,486,0.242,-0.846,0.257,-30.93973200000001,-65.7182826,17.18874,100.96092918,10.90912032,-31.21475184
4.87,487,0.224,-0.807,0.224,-22.058883,-61.5356892,21.199446,100.62288396,10.828906199999999,-31.86219438
4.88,488,0.22,-0.755,0.183,-11.688343199999998,-57.58227899999999,23.376686399999997,100.39370076,10.72004418,-32.47525944
4.89,489,0.258,-0.6920000000000001,0.221,2.7501984,-51.6235158,21.2567418,100.33067538,10.61691174,-33.01956954
4.8999999999999995,490,0.269,-0.6829999999999999,0.247,14.4385416,-48.3003594,16.329303,100.39943034,10.571075099999998,-33.52377258
4.91,491,0.265,-0.703,0.289,34.0337052,-48.8160216,5.3858052,100.66299102,10.62264132,-34.01078688
4.92,492,0.277,-0.74,0.29600000000000004,42.4561878,-50.706783,-6.990087599999999,101.0124954,10.8002583,-34.48634202
4.93,493,0.261,-0.853,0.29,54.6601932,-50.76407879999999,-15.5844576,101.48805054,11.06381898,-34.950438
4.9399999999999995,494,0.246,-1.084,0.301,63.82752120000001,-47.9565846,-20.168121600000006,102.06100854,11.3732163,-35.36869734
4.95,495,0.232,-1.3730000000000002,0.319,65.2026204,-44.2896534,-23.7204612,102.65115528,11.71126152,-35.74112004000001
4.96,496,0.26,-1.598,0.379,56.5509546,-41.3675676,-28.5906042,103.16108789999998,12.09514338,-36.07343568
4.97,497,0.336,-1.648,0.409,38.1590028,-39.7059894,-33.2888598,103.48767396,12.5191323,-36.37710342000001
4.9799999999999995,498,0.39,-1.494,0.416,21.6578124,-37.9871154,-36.8411994,103.65383178,12.977498700000002,-36.65785284
4.99,499,0.381,-1.308,0.41,13.120738199999998,-36.7266078,-40.33624320000001,103.72831632,13.45878342,-36.91568394
5.0,500,0.324,-1.1740000000000002,0.425,11.1153852,-37.24227,-44.7480198,103.79707128,13.99163436,-37.17351504
5.01,501,0.28300000000000003,-1.0659999999999998,0.408,7.9641161999999985,-38.3308902,-49.7327544,103.8199896,14.57032194,-37.42561656
5.02,502,0.265,-0.982,0.385,8.078707799999998,-42.28430039999999,-53.1705024,103.83144876,15.19484616,-37.70636598
5.03,503,0.282,-0.953,0.397,10.313244,-48.2430636,-53.8007562,103.8486375,15.8422887,-38.05014078
5.04,504,0.28,-0.954,0.411,8.651665800000002,-51.852699,-52.3110654,103.83717834,16.484001659999997,-38.43402264
5.05,505,0.279,-0.969,0.373,4.6409598,-53.285094,-49.4462754,103.78561212,17.09706672,-38.83509324
5.06,506,0.259,-0.972,0.425,3.5523396000000003,-54.14453099999999,-44.8626114,103.69966842,17.67002472,-39.26481174
5.07,507,0.224,-0.988,0.408,0.4010706,-54.029939399999996,-38.7319608,103.57361766,18.18568692,-39.71171898
5.08,508,0.207,-0.982,0.397,-3.0366774,-53.7434604,-34.0337052,103.40173026,18.65551248,-40.17008538
5.09,509,0.198,-0.963,0.382,-8.8235532,-54.889376399999996,-30.1375908,103.16108789999998,19.08523098,-40.6513701
5.1,510,0.204,-0.931,0.325,-17.7044022,-56.2071798,-27.3300966,102.82877226,19.480572,-41.15557314
5.11,511,0.234,-0.897,0.254,-24.5798982,-58.2125328,-24.2361234,102.40478334000002,19.8529947,-41.69415366
5.12,512,0.259,-0.8759999999999999,0.17,-28.81978740000001,-62.10864720000001,-20.454600600000006,101.91776904,20.1967695,-42.29002998
5.13,513,0.315,-0.8490000000000001,0.124,-32.7159018,-66.9787902,-16.4438946,101.36772936,20.50616682,-42.94893168
5.14,514,0.393,-0.82,0.13,-35.9817624,-69.6716928,-13.2926256,100.76612346,20.78691624,-43.64221086
5.1499999999999995,515,0.43,-0.8109999999999999,0.093,-41.19568020000001,-73.10944079999999,-11.172681,100.08430344,21.05047692,-44.38132668
5.16,516,0.477,-0.8240000000000001,0.114,-44.6334282,-73.79699040000001,-10.026765,99.36810594,21.29111928,-45.13763124000001
5.17,517,0.521,-0.8590000000000001,0.141,-48.3576552,-75.4012728,-8.8235532,98.6060718,21.50884332,-45.91685412
5.18,518,0.5660000000000001,-0.883,0.227,-54.3737142,-75.4012728,-6.3598338,97.76955312,21.69791946,-46.70753616
5.1899999999999995,519,0.58,-0.86,0.264,-64.5723666,-76.03152659999998,-2.1199446,96.829902,21.829699800000004,-47.50967736
5.2,520,0.462,-0.779,0.234,-72.9948492,-79.92764100000002,1.6615782,95.78711844,21.92137308,-48.36338478
5.21,521,0.317,-0.652,0.282,-81.3027402,-79.81304940000003,1.8334656000000005,94.6526616,21.99012804,-49.22282178
5.22,522,0.113,-0.417,0.434,-81.7038108,-76.9482594,-3.8388186,93.52393434,22.09899006,-50.04788129999999
5.2299999999999995,523,-0.104,-0.353,0.455,-76.9482594,-64.744254,-13.349921400000001,92.48688036,22.27660704,-50.7354309
5.24,524,-0.202,-0.443,0.35200000000000004,-72.5364828,-48.987909,-14.8396122,91.55868840000001,22.44849444,-51.26255225999999
5.25,525,-0.131,-0.507,0.084,-70.7030172,-44.977203,-4.8701430000000006,90.65914434,22.50006066,-51.75529614
5.26,526,0.06,-0.392,-0.064,-68.0674104,-50.82137460000001,9.0527364,89.76532986,22.41984654,-52.30533582
5.27,527,0.263,-0.28800000000000003,-0.114,-58.2125328,-61.8221682,22.1161788,88.92881118,22.2021225,-52.9699671
5.28,528,0.371,-0.287,-0.065,-44.2323576,-66.80690279999999,33.231564,88.22407283999998,21.86980686,-53.68043501999999
5.29,529,0.3670000000000001,-0.4320000000000001,0.084,-30.7105488,-60.332477399999995,43.3729206,87.68549232000002,21.43435878,-54.31068882
5.3,530,0.273,-0.836,0.245,-21.1421502,-48.6441342,51.0505578,87.32452878000002,20.90723742,-54.8034327
5.31,531,0.123,-1.124,0.268,-27.1582092,-36.2109456,51.0505578,86.92345818,20.39157522,-55.16439624
5.32,532,-0.003,-1.083,0.152,-44.690724,-30.4813656,47.9565846,86.37341849999999,19.89883134,-55.4623344
5.33,533,-0.021,-0.89,0.039,-55.00396800000001,-25.6112226,44.404245,85.73743512,19.44619452,-55.708706340000006
5.34,534,0.052000000000000005,-0.757,-0.083,-56.0352924,-23.9496444,43.3729206,85.10145173999999,18.99928728,-55.93215996
5.35,535,0.146,-0.7979999999999999,-0.174,-51.6235158,-26.356068,46.982556,84.49411626,18.5065434,-56.16707274
5.36,536,0.261,-0.947,-0.145,-50.133825,-30.7105488,54.25912260000001,83.90396952,17.94504456,-56.43636299999999
5.37,537,0.334,-1.074,-0.134,-54.25912260000001,-34.950438,61.24921020000001,83.27371572000001,17.303331600000003,-56.73430116
5.38,538,0.361,-1.164,-0.141,-58.613603399999995,-37.0130868,67.609044,82.59189570000002,16.598593259999998,-57.0379689
5.39,539,0.407,-1.243,-0.207,-59.0719698,-40.2789474,71.39056679999999,81.91007568,15.84801828,-57.35882538
5.3999999999999995,540,0.419,-1.308,-0.251,-58.49901179999999,-43.1437374,71.9635248,81.23398524000002,15.08598414,-57.70260018000001
5.41,541,0.4,-1.384,-0.173,-64.5723666,-39.6486936,70.1300592,80.50632858,14.335409159999998,-57.99480876
5.42,542,0.349,-1.429,-0.159,-61.07732280000001,-33.2888598,67.9528188,79.84169729999998,13.61921166,-58.22399196
5.43,543,0.189,-1.511,-0.251,-55.80610920000001,-27.788463,66.23394479999999,79.24009140000003,12.925932479999995,-58.38442020000001
5.4399999999999995,544,0.071,-1.604,-0.343,-61.592985,-18.7930224,63.88481700000001,78.60410802,12.26703078,-58.45890474
5.45,545,0.02,-1.706,-0.339,-66.176649,-12.834259199999998,62.9107884,77.93374716000002,11.61958824,-58.46463432
5.46,546,0.009000000000000001,-1.843,-0.439,-70.5311298,-9.9121734,63.02538000000001,77.22327924,10.98360486,-58.43025684000001
5.47,547,0.062,-1.843,-0.431,-78.03687959999998,-6.875496000000001,62.22323879999999,76.44405636,10.35908064,-58.36723145999999
5.4799999999999995,548,0.14,-1.7990000000000002,-0.46,-83.0216142,-5.6722842,59.4157446,75.61899684,9.76320432,-58.28701734
5.49,549,0.21600000000000005,-1.766,-0.446,-84.68319240000002,-1.5469866,54.8320806,74.77674858,9.224623800000002,-58.17242574000001
5.5,550,0.28,-1.734,-0.438,-86.1728832,1.7761698,50.9359662,73.92877074,8.73187992,-58.02345666
5.51,551,0.258,-1.704,-0.4270000000000001,-86.91772859999998,4.8128472,49.9619376,73.07506332,8.25632478,-57.84583968000001
5.52,552,0.195,-1.681,-0.436,-89.8971102,7.0473834,50.76407879999999,72.18697842,7.78649922,-57.63384522
5.53,553,0.172,-1.646,-0.441,-89.7825186,6.875496000000001,52.8840234,71.31035268,7.29948492,-57.4103916
5.54,554,0.156,-1.577,-0.438,-88.4647152,4.6982556,57.00932099999999,70.43945652,6.76663398,-57.18693798
5.55,555,0.141,-1.493,-0.429,-84.39671340000002,4.1825934,61.4210976,69.60866741999999,6.19367598,-56.94629562
5.56,556,0.117,-1.43,-0.414,-78.2660628,4.8701430000000006,63.6556338,68.8409037,5.60925882,-56.68273494
5.57,557,0.105,-1.375,-0.407,-76.03152659999998,6.3598338,64.5723666,68.09605830000001,5.02484166,-56.39052636
5.58,558,0.087,-1.291,-0.35700000000000004,-73.5678072,8.9954406,64.457775,67.37986079999999,4.45188366,-56.07539946000001
5.59,559,0.073,-1.207,-0.35200000000000004,-70.35924240000001,11.4018642,63.48374640000001,66.68658162,3.90757356,-55.72589508000001
5.6,560,0.046,-1.142,-0.364,-66.749607,13.6364004,61.4210976,66.03913908,3.38618178,-55.36493154
5.61,561,0.039,-1.085,-0.354,-62.6243094,15.183387000000002,58.0406454,65.42034444,2.91062664,-54.992508840000006
5.62,562,0.042,-1.005,-0.318,-58.15523699999999,18.162768600000003,52.9413192,64.84738644000001,2.49809688,-54.61435656
5.63,563,0.048,-0.947,-0.35700000000000004,-55.4623344,21.772404,47.4409224,64.29734676,2.15432208,-54.21901554
5.64,564,0.053,-0.907,-0.37,-48.0138804,22.9756158,43.20103320000001,63.82179162,1.85065434,-53.8294041
5.6499999999999995,565,0.059,-0.923,-0.349,-38.8465524,23.204799,39.47680620000001,63.44363934,1.59855282,-53.45125182
5.66,566,0.057,-0.96,-0.377,-32.830493399999995,22.6891368,36.669312,63.11705328000001,1.36364004,-53.0845587
5.67,567,0.062,-0.988,-0.365,-26.1841806,21.5432208,34.66395900000001,62.85922218,1.14018642,-52.7407839
5.68,568,0.054000000000000006,-1.012,-0.343,-20.1108258,20.05353,33.3461556,62.65868688000001,0.92819196,-52.40846826000001
5.6899999999999995,569,0.057,-1.03,-0.32,-15.5844576,19.6524594,32.6013102,62.49825864,0.72765666,-52.08761178
5.7,570,0.048,-1.029,-0.33,-13.0061466,19.308684600000007,32.31483119999999,62.38939661999999,0.52712136,-51.77248488
5.71,571,0.028,-1.01,-0.341,-10.886202,19.767051,32.31483119999999,62.27480502,0.32658606,-51.44589881999999
5.72,572,0.012,-0.991,-0.334,-6.9327918,20.2254174,31.5699858,62.20605006,0.13750992,-51.12504234
5.7299999999999995,573,-0.01,-0.976,-0.368,-3.380452200000001,21.027558600000006,29.9657034,62.16594299999999,-0.028647900000000007,-50.79845628
5.74,574,-0.022,-0.938,-0.343,1.0886202,22.345362,27.3873924,62.17740216,-0.1718874,-50.47187021999999
5.75,575,-0.032,-0.908,-0.325,6.9327918,23.7204612,24.350715,62.26334586,-0.28647900000000004,-50.15674332
5.76,576,-0.044,-0.897,-0.315,13.980175199999998,25.1528562,21.199446,62.40085577999999,-0.36096354,-49.83588684
5.77,577,-0.041,-0.908,-0.294,17.9335854,26.814434400000003,18.7930224,62.57274318,-0.40680018,-49.50930078
5.78,578,-0.029,-0.924,-0.304,18.162768600000003,28.1895336,18.2200644,62.75608973999999,-0.44690724,-49.17125556000001
5.79,579,-0.011,-0.926,-0.3,18.8503182,28.0176462,18.2773602,62.9394363,-0.4870143000000001,-48.83893992
5.8,580,-0.017,-0.926,-0.316,19.6524594,27.1009134,18.2200644,63.14570118,-0.53285094,-48.51808344
5.81,581,-0.009000000000000001,-0.8959999999999999,-0.319,19.194093,26.356068,18.449247600000003,63.33477732,-0.5844171599999999,-48.19722696000001
5.82,582,0.001,-0.8540000000000001,-0.303,20.3973048,24.694489800000003,18.8503182,63.53531262,-0.64744254,-47.89355922
5.83,583,0.008,-0.8079999999999999,-0.257,23.2620948,23.8923486,18.6784308,63.7702254,-0.7104679199999999,-47.58989147999999
5.84,584,0.019,-0.762,-0.206,27.215505,25.0382646,18.162768600000003,64.03951565999999,-0.76776372,-47.28622374
5.85,585,0.009000000000000001,-0.7440000000000001,-0.154,31.5699858,27.043617600000005,17.475219,64.36610171999999,-0.8078707799999998,-46.97109684
5.86,586,-0.022,-0.745,-0.18600000000000005,31.3980984,31.741873200000004,18.449247600000003,64.67549904,-0.8422482600000001,-46.59867414
5.87,587,-0.048,-0.713,-0.202,30.5959572,36.32553720000001,20.8556712,64.97916677999999,-0.8823553199999999,-46.18041480000001
5.88,588,-0.056,-0.6779999999999999,-0.188,32.257535399999995,38.8465524,21.6578124,65.29429368000001,-0.92246238,-45.73923714
5.89,589,-0.067,-0.639,-0.214,30.7678446,41.252976,21.6578124,65.59223184,-0.95683986,-45.26941158
5.8999999999999995,590,-0.075,-0.5760000000000001,-0.205,31.2835068,41.4821592,21.6578124,65.90162916,-0.9969469199999998,-44.79958602
5.91,591,-0.068,-0.517,-0.106,35.236917,39.877876799999996,21.772404,66.24540396,-1.04278356,-44.34694920000001
5.92,592,-0.039,-0.468,-0.098,34.8358464,36.669312,21.9442914,66.58344918,-1.10007936,-43.92296028
5.93,593,-0.008,-0.426,-0.113,35.695283399999994,33.4607472,21.2567418,66.93868314,-1.1688343199999998,-43.52761926
5.9399999999999995,594,0.025,-0.409,-0.096,38.2162986,32.7731976,19.0222056,67.31110584,-1.22040054,-43.14946698
5.95,595,0.047,-0.398,-0.083,40.737313799999995,33.9764094,16.7303736,67.71790602000002,-1.24331886,-42.77131470000001
5.96,596,0.053,-0.403,-0.127,41.76863820000001,37.6433406,15.183387000000002,68.13043578,-1.24904844,-42.36451452
5.97,597,0.052000000000000005,-0.394,-0.162,44.7480198,41.252976,13.8655836,68.56588386000001,-1.2318597,-41.92333686
5.9799999999999995,598,0.03,-0.387,-0.153,52.139178,41.4821592,12.0894138,69.08154606000001,-1.2032117999999998,-41.49361836
5.99,599,0.008,-0.415,-0.18,57.811462199999994,39.247623,10.7143146,69.65450406,-1.1688343199999998,-41.0810886
6.0,600,-0.023,-0.454,-0.232,57.92605379999999,36.38283300000001,9.453807000000001,70.22173248,-1.14018642,-40.70293632
6.01,601,-0.013,-0.489,-0.233,56.9520252,33.2888598,8.7662574,70.7889609,-1.11153852,-40.35916152
6.02,602,0.035,-0.5479999999999999,-0.208,54.43101,27.903054600000004,10.0840608,71.333271,-1.1172681,-40.05549378
6.03,603,0.101,-0.604,-0.189,49.90464179999999,19.8243468,13.2353298,71.83747404,-1.18029348,-39.820581
6.04,604,0.131,-0.6579999999999999,-0.222,45.4928652,12.605076,17.9908812,72.29011086,-1.31207382,-39.64296402
6.05,605,0.157,-0.7090000000000001,-0.189,44.8053156,7.161975,22.2307704,72.74847725999999,-1.4782316400000002,-39.5054541
6.06,606,0.163,-0.77,-0.136,43.0864416,4.010706000000001,24.5226024,73.17819576000002,-1.6959556799999995,-39.39659208
6.07,607,0.119,-0.8079999999999999,-0.151,41.1383844,0.057295800000000015,24.2934192,73.5964551,-1.9194093000000003,-39.32210754000001
6.08,608,0.047,-0.802,-0.152,41.539455,-2.4637194,23.204799,74.01471444,-2.14286292,-39.2762709
6.09,609,0.0,-0.757,-0.162,43.6021038,-5.3858052,22.5172494,74.46162168000002,-2.36631654,-39.26481174
6.1,610,-0.044,-0.706,-0.142,45.779344200000004,-6.5317212,21.027558600000006,74.93144724,-2.58404058,-39.27054132
6.11,611,-0.085,-0.664,-0.123,44.404245,-6.417129599999999,18.621135,75.38408405999998,-2.77311672,-39.28200048
6.12,612,-0.125,-0.637,-0.14,42.5707794,-5.72958,15.9282324,75.81953214,-2.93354496,-39.29345964
6.13,613,-0.159,-0.635,-0.149,39.820581,-3.0939732,14.2093584,76.22060274,-3.07105488,-39.28773006
6.14,614,-0.182,-0.642,-0.153,37.1276784,0.6875496,13.407217200000002,76.59875502,-3.19710564,-39.247623
6.15,615,-0.201,-0.644,-0.156,33.3461556,6.016058999999999,12.6623718,76.92534108,-3.3231564,-39.15594972
6.16,616,-0.205,-0.657,-0.154,29.5646328,12.5477802,11.0580894,77.21754966,-3.40337052,-39.00698064
6.17,617,-0.208,-0.664,-0.161,24.4080108,19.4232762,8.9954406,77.44673286,-3.45493674,-38.79498618
6.18,618,-0.196,-0.66,-0.185,22.6891368,22.7464326,8.4224826,77.66445689999998,-3.48931422,-38.55434382
6.1899999999999995,619,-0.187,-0.682,-0.228,22.345362,23.204799,9.0527364,77.87072178,-3.5351508600000003,-38.30797188
6.2,620,-0.179,-0.715,-0.257,19.8243468,23.835052800000003,9.797581800000001,78.03115002,-3.60390582,-38.05014078
6.21,621,-0.152,-0.743,-0.265,17.0168526,24.4080108,10.7143146,78.18584868,-3.66120162,-37.7865801
6.22,622,-0.114,-0.775,-0.245,16.501190400000002,23.204799,10.9434978,78.33481775999998,-3.7299565800000014,-37.54020816
6.2299999999999995,623,-0.076,-0.82,-0.219,16.673077799999998,20.798375399999998,9.9121734,78.48951642,-3.78725238,-37.31675454
6.24,624,-0.04,-0.865,-0.181,17.303331600000003,17.8189938,8.5370742,78.64994466,-3.8388186000000006,-37.12194882
6.25,625,-0.023,-0.91,-0.155,18.334656,14.8396122,7.5630456000000015,78.82183205999998,-3.873196080000002,-36.96152058
6.26,626,-0.035,-0.968,-0.154,16.959556799999998,14.896907999999998,6.0733548,78.98226030000002,-3.90757356,-36.80109234
6.27,627,-0.055,-0.995,-0.163,16.2147114,16.386598799999998,4.1825934,79.13695895999999,-3.9190327200000006,-36.62920494
6.28,628,-0.066,-1.015,-0.17,17.0741484,16.501190400000002,2.291832,79.2973872,-3.91330314,-36.46304712
6.29,629,-0.058,-1.035,-0.16899999999999998,15.985528200000001,15.5844576,0.8021411999999999,79.44635628,-3.896114400000001,-36.30834846
6.3,630,-0.04,-1.064,-0.18,14.5531332,13.349921400000001,-0.11459160000000004,79.57813662,-3.86173692,-36.17656812
6.31,631,-0.029,-1.107,-0.179,14.0947668,10.5424272,-0.6875496,79.71564654,-3.8388186000000006,-36.07343568
6.32,632,-0.033,-1.153,-0.18600000000000005,12.1467096,7.161975,-0.5156622000000001,79.83023813999998,-3.82162986,-35.99895114
6.33,633,-0.037000000000000005,-1.176,-0.189,10.7716104,2.6929026,0.2291832000000001,79.93910016,-3.81590028,-35.97030324
6.34,634,-0.047,-1.162,-0.172,12.6623718,-2.7501984,0.8594370000000001,80.0708805,-3.82735944,-35.99895114
6.35,635,-0.07200000000000001,-1.107,-0.146,15.183387000000002,-7.3911582,0.572958,80.23703832,-3.84454818,-36.067706099999995
6.36,636,-0.098,-1.028,-0.126,16.558486199999994,-8.5370742,-0.4010706,80.41465529999998,-3.85027776,-36.1536498
6.37,637,-0.127,-0.955,-0.116,19.0795014,-8.193299399999999,-1.7761698,80.61519059999998,-3.84454818,-36.23386392
6.38,638,-0.162,-0.903,-0.098,21.3713334,-7.9641161999999985,-3.0366774,80.83864422,-3.82162986,-36.31407804
6.39,639,-0.183,-0.88,-0.08,22.345362,-6.5317212,-3.380452200000001,81.06782741999999,-3.79298196,-36.38283300000001
6.4,640,-0.197,-0.889,-0.07,22.173474600000002,-4.1825934,-3.151269,81.31419936,-3.810170700000002,-36.43439922
6.41,641,-0.196,-0.917,-0.07200000000000001,21.5432208,-2.2345362,-2.3491278,81.53192340000003,-3.78725238,-36.45731754000001
6.42,642,-0.185,-0.948,-0.078,21.199446,-0.9740286,-1.3178034,81.74964744,-3.77579322,-36.46877670000001
6.43,643,-0.16,-0.981,-0.079,21.6578124,-1.4896908000000002,-0.4010706,81.96737148,-3.77006364,-36.48023586
6.4399999999999995,644,-0.141,-1.007,-0.078,21.6578124,-1.2605076000000002,-0.4010706,82.19082510000001,-3.76433406,-36.49169502
6.45,645,-0.127,-1.022,-0.07400000000000001,20.340009,-0.4010706,-0.3437748,82.41427872,-3.7815227999999994,-36.4974246
6.46,646,-0.113,-1.035,-0.07,19.0222056,0.0,-0.572958,82.60908443999998,-3.77006364,-36.4974246
6.47,647,-0.104,-1.04,-0.073,18.162768600000003,-0.11459160000000004,-0.8021411999999999,82.79243100000002,-3.76433406,-36.4974246
6.4799999999999995,648,-0.097,-1.0490000000000002,-0.07,18.1054728,-0.9167328,-1.3178034,82.98150714,-3.74714532,-36.50888376
6.49,649,-0.092,-1.062,-0.069,17.589810600000003,-2.4064236,-1.9480572,83.15912412,-3.7299565800000014,-36.53180208
6.5,650,-0.095,-1.065,-0.067,16.959556799999998,-4.1252976000000015,-2.4064236,83.34820026,-3.71849742,-36.57763872
6.51,651,-0.096,-1.0659999999999998,-0.062,16.157415599999997,-5.844171599999999,-2.7501984,83.51435808,-3.68984952,-36.63493452
6.52,652,-0.094,-1.062,-0.065,14.610429000000002,-6.760904399999999,-2.5210152000000003,83.66905674,-3.67266078,-36.70368948
6.53,653,-0.08800000000000001,-1.055,-0.069,13.120738199999998,-8.136003599999999,-1.8907613999999997,83.81229624,-3.65547204,-36.78963318
6.54,654,-0.081,-1.048,-0.067,12.032117999999999,-10.3705398,-1.4896908000000002,83.938347,-3.64974246,-36.89276562
6.55,655,-0.069,-1.051,-0.07400000000000001,11.229976800000001,-12.318597,-1.2605076000000002,84.06439776,-3.6440128800000013,-37.0130868
6.56,656,-0.057,-1.05,-0.086,9.8548776,-13.5791046,-1.2605076000000002,84.17325978,-3.6382833,-37.14486714
6.57,657,-0.048,-1.035,-0.091,9.167328,-15.126091199999998,-1.2032118,84.2821218,-3.6382833,-37.299565799999996
6.58,658,-0.046,-1.015,-0.09,8.880849000000003,-16.615782,-1.0313244,84.38525424,-3.6382833,-37.45999404000001
6.59,659,-0.048,-0.996,-0.079,8.7089616,-17.4179232,-0.572958,84.48838668,-3.6440128800000013,-37.63188144
6.6,660,-0.052000000000000005,-0.989,-0.07,7.6776372,-17.9335854,-0.057295800000000015,84.58005996,-3.64974246,-37.80949842
6.61,661,-0.056,-0.981,-0.061,6.6463128000000005,-18.334656,0.4583664000000001,84.66027408,-3.66120162,-37.99284498
6.62,662,-0.062,-0.976,-0.049,5.6722842,-18.2773602,0.6875496,84.73475862000002,-3.68411994,-38.17046196
6.63,663,-0.068,-0.977,-0.043,4.8128472,-17.8189938,0.6875496,84.79778400000002,-3.70130868,-38.34807894
6.64,664,-0.069,-0.985,-0.041,4.1825934,-17.3606274,0.4583664000000001,84.84935021999998,-3.71276784,-38.51996634
6.65,665,-0.07,-0.996,-0.04,4.297185,-17.0168526,0.7448454000000001,84.91810518,-3.7299565800000014,-38.68612416
6.66,666,-0.065,-1.002,-0.036000000000000004,4.8701430000000006,-16.615782,1.0313244,84.98113056000003,-3.752874900000001,-38.85228198
6.67,667,-0.056,-1.006,-0.031,4.9847345999999995,-16.042824000000003,1.3178034,85.04415594,-3.77579322,-39.00698064
6.68,668,-0.053,-1.004,-0.025,4.4690724,-15.126091199999998,1.6042823999999998,85.10145173999999,-3.79871154,-39.15594972
6.6899999999999995,669,-0.053,-1.0,-0.021,4.0680017999999984,-13.8082878,1.8334656000000005,85.15874754000002,-3.82735944,-39.29345964
6.7,670,-0.053,-0.999,-0.02,4.297185,-12.7196676,1.7761698,85.23323208,-3.8388186000000006,-39.4195104
6.71,671,-0.056,-1.001,-0.013,4.3544808,-11.8029348,1.3750992,85.29052787999998,-3.86173692,-39.534102000000004
6.72,672,-0.06,-1.006,-0.006999999999999999,4.3544808,-11.0580894,1.0313244,85.3420941,-3.87892566,-39.64296402
6.7299999999999995,673,-0.065,-1.011,-0.005,4.3544808,-10.4851314,0.8021411999999999,85.39366032000002,-3.89038482,-39.74609646
6.74,674,-0.067,-1.014,-0.005,4.4690724,-10.026765,0.5156622000000001,85.45095612,-3.90184398,-39.84349932
6.75,675,-0.063,-1.009,-0.003,4.297185,-9.3392154,0.11459160000000004,85.54262940000002,-3.90184398,-39.94663176
6.76,676,-0.066,-1.001,0.005,4.297185,-8.59437,-0.057295800000000015,85.58846604,-3.90184398,-40.03257546
6.77,677,-0.065,-0.993,0.011,4.1825934,-7.5630456000000015,-0.057295800000000015,85.64003226,-3.90184398,-40.10706
6.78,678,-0.063,-0.993,0.017,4.010706000000001,-6.875496000000001,-0.057295800000000015,85.6858689,-3.90757356,-40.17581496
6.79,679,-0.06,-0.999,0.017,3.4377480000000005,-6.130650599999999,-0.057295800000000015,85.72597596,-3.90757356,-40.23311076
6.8,680,-0.059,-1.008,0.019,2.7501984,-5.3858052,-0.057295800000000015,85.84629714,-3.896114400000001,-40.31332488
6.81,681,-0.059,-1.022,0.025,1.8907613999999997,-4.5263682,-0.11459160000000004,85.86921545999998,-3.896114400000001,-40.35343194
6.82,682,-0.06,-1.031,0.02,0.0,-3.6096354,-0.057295800000000015,85.87494504,-3.896114400000001,-40.393539
6.83,683,-0.061,-1.031,0.009000000000000001,-1.7761698,-2.6929026,0.11459160000000004,85.85775629999998,-3.90184398,-40.41645732
6.84,684,-0.063,-1.024,-0.001,-2.9793816000000004,-2.1199446,0.4583664000000001,85.82910840000002,-3.90757356,-40.43937564
6.85,685,-0.062,-1.016,-0.009000000000000001,-3.4950437999999995,-2.0626488000000003,0.6875496,85.85202672,-3.896114400000001,-40.47375312
6.86,686,-0.064,-1.011,-0.013,-3.7815227999999994,-1.9480572,1.0313244,85.81764924000002,-3.90757356,-40.49667144
6.87,687,-0.067,-1.01,-0.014,-4.010706000000001,-1.7761698,1.2605076000000002,85.77754218,-3.9247623,-40.51386018
6.88,688,-0.065,-1.01,-0.013,-4.2398892,-1.432395,1.0313244,85.73170554,-3.93622146,-40.52531934
6.89,689,-0.066,-1.009,-0.008,-4.4690724,-0.9740286,0.4010706,85.69159848,-3.94195104,-40.5367785
6.9,690,-0.065,-1.011,-0.006,-4.583664,-0.6302538000000001,-0.11459160000000004,85.72597596,-3.9247623,-40.5654264
6.91,691,-0.063,-1.015,-0.006999999999999999,-4.8701430000000006,-0.7448454000000001,-0.572958,85.67440974,-3.9190327200000006,-40.57115598
6.92,692,-0.062,-1.016,-0.008,-5.042030400000002,-0.9167328,-1.0313244,85.62857310000003,-3.90757356,-40.58261514
6.93,693,-0.061,-1.017,-0.008,-4.8701430000000006,-1.0313244,-1.3750992,85.57700688,-3.896114400000001,-40.5940743
6.9399999999999995,694,-0.06,-1.016,-0.006999999999999999,-4.6409598,-0.9740286,-1.432395,85.53117024000002,-3.87892566,-40.60553346
6.95,695,-0.06,-1.01,-0.005,-4.0680017999999984,-0.9740286,-1.432395,85.56554772,-3.85027776,-40.63418136
6.96,696,-0.062,-1.006,-0.004,-3.6096354,-1.5469866,-1.3178034,85.53117024000002,-3.8388186000000006,-40.6513701
6.97,697,-0.062,-1.002,-0.004,-3.2085648,-2.0053530000000004,-1.3178034,85.49679276,-3.82735944,-40.67428842
6.9799999999999995,698,-0.061,-0.997,-0.005,-2.6929026,-2.8074942000000003,-0.9740286,85.47387444,-3.82162986,-40.70293632
6.99,699,-0.063,-0.993,-0.001,-2.1199446,-3.2658606,-0.6302538000000001,85.45668570000002,-3.81590028,-40.7373138
7.0,700,-0.066,-0.993,0.001,-1.145916,-3.724227,-0.3437748,85.55981814,-3.810170700000002,-40.80033918
7.01,701,-0.071,-0.995,0.005,-0.5156622000000001,-3.4950437999999995,-0.3437748,85.55408856,-3.810170700000002,-40.83471666
7.02,702,-0.073,-0.997,0.009000000000000001,0.1718874,-2.6929026,-0.4583664000000001,85.55981814,-3.80444112,-40.86336456
7.03,703,-0.073,-0.998,0.006999999999999999,1.0313244,-2.0053530000000004,-0.5156622000000001,85.57127729999998,-3.79871154,-40.8805533
7.04,704,-0.073,-0.997,0.008,1.7188740000000002,-1.4896908000000002,-0.3437748,85.59419562000002,-3.79871154,-40.89774204
7.05,705,-0.076,-1.001,0.01,2.4637194,-1.0313244,-0.2291832000000001,85.77181259999998,-3.810170700000002,-40.94357868
7.06,706,-0.08,-1.004,0.006999999999999999,2.4637194,-0.5156622000000001,-0.4583664000000001,85.79473092,-3.80444112,-40.94930826
7.07,707,-0.085,-1.004,0.002,2.2345362,0.1718874,-0.6875496,85.81764924000002,-3.79871154,-40.94930826
7.08,708,-0.08800000000000001,-1.006,-0.002,2.291832,0.8021411999999999,-0.8594370000000001,85.84056756,-3.79298196,-40.94357868
7.09,709,-0.08800000000000001,-1.003,-0.003,2.0626488000000003,1.4896908000000002,-1.0886202,85.86348588000001,-3.77579322,-40.92638994
7.1,710,-0.084,-1.0,-0.005,1.432395,2.1772404,-1.4896908000000002,85.95515916000002,-3.78725238,-40.92066036
7.11,711,-0.081,-0.999,-0.006999999999999999,0.9740286,2.6356068,-1.7188740000000002,85.96088874,-3.77006364,-40.89774204
7.12,712,-0.081,-0.999,-0.008,0.572958,2.8074942000000003,-1.8907613999999997,85.96661832,-3.752874900000001,-40.86909414
7.13,713,-0.077,-1.001,-0.012,0.572958,2.9220857999999996,-1.7761698,85.96661832,-3.7299565800000014,-40.84044624
7.14,714,-0.073,-1.002,-0.012,0.6302538000000001,3.0939732,-1.7761698,85.9723479,-3.71276784,-40.81179834
7.15,715,-0.07,-1.004,-0.004,0.4583664000000001,3.3231564,-1.5469866,86.05829159999998,-3.6955791,-40.80033918
7.16,716,-0.07,-1.009,0.0,-0.4583664000000001,3.6669312000000014,-1.0886202,86.05256202000002,-3.68411994,-40.76596170000001
7.17,717,-0.07200000000000001,-1.014,0.0,-1.2605076000000002,3.7815227999999994,-0.572958,86.03537328,-3.67266078,-40.72585464
7.18,718,-0.073,-1.015,-0.003,-1.6615782,3.8388186,-0.2291832000000001,86.01818454000002,-3.67266078,-40.69147716
