TimeStamp(s),FrameCounter,AccX,AccY,AccZ,GyrX,GyrY,GyrZ,EulerX,EulerY,EulerZ
0.01,1,-0.041,-0.981,-0.069,1.6615782,5.5576926,-1.7761698,85.18739544,-3.2486718599999995,-38.02149288
0.02,2,-0.039,-0.985,-0.065,1.7761698,4.297185,-2.3491278,85.20458418000003,-3.22002396,-37.98138582
0.03,3,-0.037000000000000005,-0.997,-0.062,2.0626488000000003,3.2085648,-2.291832,85.22177292,-3.19710564,-37.95273792
0.04,4,-0.04,-1.004,-0.055,2.4064236,2.2345362,-1.8334656000000005,85.24469124,-3.1799169000000003,-37.9298196
0.05,5,-0.045,-1.008,-0.052000000000000005,2.86479,1.8907613999999997,-1.432395,85.27333913999998,-3.1627281600000003,-37.91263086
0.060000000000000005,6,-0.048,-1.013,-0.049,3.4377480000000005,1.6615782,-1.0313244,85.33063494000002,-3.1226211000000004,-37.89544212
0.06999999999999999,7,-0.049,-1.012,-0.045,4.1252976000000015,1.3750992,-0.572958,85.370742,-3.11689152,-37.88398296
0.08,8,-0.051,-1.009,-0.041,4.583664,0.8021411999999999,0.0,85.41657864,-3.11689152,-37.872523799999996
0.09,9,-0.059,-1.005,-0.037000000000000005,5.1566220000000005,0.6302538000000001,0.11459160000000004,85.47387444,-3.11689152,-37.86679422
0.09999999999999999,10,-0.066,-1.006,-0.033,5.5576926,0.9167328,0.0,85.52544065999999,-3.11689152,-37.85533506
0.11,11,-0.07200000000000001,-1.01,-0.032,5.3285094000000015,1.145916,0.0,85.63430267999998,-3.14553942,-37.84387589999999
0.12,12,-0.07200000000000001,-1.012,-0.033,4.5263682,1.0886202,0.0,85.68013932,-3.14553942,-37.83241674
0.13,13,-0.07,-1.016,-0.036000000000000004,3.8388186,0.8021411999999999,0.1718874,85.72024638,-3.151269,-37.82668716
0.14,14,-0.066,-1.015,-0.037000000000000005,3.3231564,0.3437748,0.4583664000000001,85.75462386000002,-3.151269,-37.82095758
0.15000000000000002,15,-0.061,-1.013,-0.037000000000000005,2.9220857999999996,0.0,0.8021411999999999,85.78327176,-3.1627281600000003,-37.82095758
0.16,16,-0.057,-1.006,-0.038,2.578311,-0.572958,0.9740286,85.85202672,-3.15699858,-37.82668716
0.17,17,-0.054000000000000006,-1.004,-0.035,2.4637194,-1.2605076000000002,1.0886202,85.88067462000002,-3.16845774,-37.83814632
0.18000000000000002,18,-0.054000000000000006,-1.007,-0.033,1.9480572,-1.9480572,1.145916,85.90359294,-3.18564648,-37.86106464
0.19,19,-0.058,-1.007,-0.035,1.5469866,-2.291832,1.2032118,85.92078168,-3.19710564,-37.87825338
0.2,20,-0.062,-1.008,-0.039,1.3750992,-2.4637194,1.432395,85.93224083999998,-3.214294380000001,-37.901171700000006
0.21000000000000002,21,-0.066,-1.007,-0.042,1.5469866,-2.6929026,1.7188740000000002,85.96661832,-3.2486718599999995,-37.9298196
0.22,22,-0.068,-1.003,-0.043,1.6615782,-2.9793816000000004,2.0053530000000004,85.98380705999998,-3.2658606,-37.9584675
0.23,23,-0.071,-0.998,-0.043,1.6615782,-3.151269,2.0053530000000004,86.0009958,-3.28877892,-37.9871154
0.24000000000000002,24,-0.07200000000000001,-0.999,-0.04,1.7188740000000002,-3.2658606,2.0626488000000003,86.02391412,-3.3116972399999995,-38.02149288
0.25,25,-0.076,-1.002,-0.039,1.3750992,-3.151269,1.8907613999999997,86.04110286,-3.33461556,-38.05014078
0.26,26,-0.075,-1.007,-0.042,1.0313244,-2.86479,1.8334656000000005,86.05829159999998,-3.38618178,-38.07878868
0.27,27,-0.076,-1.003,-0.047,0.8594370000000001,-2.6929026,1.7761698,86.06402118000004,-3.4091001000000003,-38.10170700000001
0.28,28,-0.076,-0.998,-0.045,0.8594370000000001,-2.4064236,1.8334656000000005,86.07548034,-3.42628884,-38.12462532
0.29000000000000004,29,-0.073,-0.999,-0.041,0.7448454000000001,-2.291832,1.8334656000000005,86.0869395,-3.44347758,-38.14754364
0.3,30,-0.073,-1.002,-0.043,0.286479,-2.291832,1.8334656000000005,86.09266908,-3.4663959,-38.17046196
0.31,31,-0.07400000000000001,-1.005,-0.045,0.11459160000000004,-2.291832,1.8334656000000005,86.08120991999998,-3.51796212,-38.187650700000006
0.32,32,-0.075,-1.007,-0.048,0.1718874,-2.0053530000000004,1.8907613999999997,86.0869395,-3.5351508600000003,-38.21056902
0.33,33,-0.076,-1.007,-0.044,0.4010706,-1.6615782,1.8907613999999997,86.09266908,-3.5580691799999995,-38.22202818
0.34,34,-0.073,-1.009,-0.037000000000000005,0.11459160000000004,-1.432395,1.7761698,86.09266908,-3.57525792,-38.23921692
0.35000000000000003,35,-0.07400000000000001,-1.014,-0.032,-0.11459160000000004,-1.7188740000000002,1.7188740000000002,86.09266908,-3.59244666,-38.25640566
0.36000000000000004,36,-0.076,-1.019,-0.035,-0.2291832000000001,-1.8334656000000005,1.6042823999999998,86.12704656,-3.63255372,-38.27359439999999
0.37,37,-0.07400000000000001,-1.018,-0.036000000000000004,-0.3437748,-1.8334656000000005,1.6615782,86.12704656,-3.64974246,-38.29078314
0.38,38,-0.075,-1.01,-0.035,-0.4010706,-1.7188740000000002,1.8334656000000005,86.12131698,-3.67266078,-38.30797188
0.39,39,-0.077,-1.004,-0.032,-0.4583664000000001,-1.4896908000000002,1.8334656000000005,86.12131698,-3.68984952,-38.31943104
0.4,40,-0.078,-1.003,-0.033,-0.5156622000000001,-1.145916,2.0053530000000004,86.11558740000002,-3.71276784,-38.330890200000006
0.41000000000000003,41,-0.079,-1.003,-0.03,-0.5156622000000001,-0.572958,1.9480572,86.19007194,-3.7815227999999994,-38.34234936
0.42000000000000004,42,-0.078,-1.003,-0.03,-0.5156622000000001,0.0,1.8334656000000005,86.18434235999996,-3.79871154,-38.34234936
0.43,43,-0.079,-1.005,-0.033,-0.5156622000000001,0.1718874,1.6042823999999998,86.17861278000002,-3.81590028,-38.33661978
0.44,44,-0.079,-1.004,-0.036000000000000004,-0.572958,0.3437748,1.432395,86.17288319999999,-3.82735944,-38.330890200000006
0.45,45,-0.081,-1.002,-0.042,-0.4010706,0.572958,1.2605076000000002,86.16715362,-3.8388186000000006,-38.32516062000001
0.46,46,-0.08199999999999999,-0.999,-0.045,-0.11459160000000004,0.8021411999999999,1.2605076000000002,86.16142404,-3.9190327200000006,-38.31943104
0.47000000000000003,47,-0.083,-0.998,-0.043,0.1718874,1.2032118,1.2032118,86.16142404,-3.93049188,-38.3022423
0.48000000000000004,48,-0.08199999999999999,-0.999,-0.042,0.11459160000000004,1.7188740000000002,1.2032118,86.16142404,-3.94195104,-38.28505356
0.49,49,-0.08199999999999999,-0.999,-0.042,0.0,2.0053530000000004,1.3178034,86.16142404,-3.9534102,-38.26213524
0.5,50,-0.083,-1.0,-0.042,-0.1718874,2.2345362,1.4896908000000002,86.15569446,-3.97059894,-38.23921692
0.51,51,-0.083,-1.0,-0.043,-0.3437748,2.4637194,1.6615782,86.15569446,-4.01643558,-38.2162986
0.52,52,-0.083,-1.001,-0.046,-0.286479,2.7501984,1.7761698,86.14996488,-4.03362432,-38.187650700000006
0.53,53,-0.085,-0.999,-0.046,0.0,3.2085648,1.8334656000000005,86.1442353,-4.05081306,-38.15327322
0.54,54,-0.085,-1.0,-0.045,0.3437748,3.5523396000000003,1.8334656000000005,86.1442353,-4.0680017999999984,-38.11889574
0.55,55,-0.085,-1.0,-0.042,0.6302538000000001,4.1252976000000015,1.7188740000000002,86.14996488,-4.0794609600000005,-38.0730591
0.56,56,-0.08199999999999999,-1.003,-0.043,0.572958,4.3544808,1.6042823999999998,86.15569446,-4.10810886,-38.03295204
0.5700000000000001,57,-0.079,-1.004,-0.043,0.4010706,4.3544808,1.4896908000000002,86.15569446,-4.11956802,-37.9871154
0.5800000000000001,58,-0.078,-1.004,-0.044,0.3437748,4.2398892,1.6042823999999998,86.15569446,-4.131027179999999,-37.94127876
0.59,59,-0.077,-1.002,-0.041,0.286479,3.8961144,1.6615782,86.15569446,-4.14821592,-37.901171700000006
0.6,60,-0.076,-1.001,-0.041,0.0,3.6096354,1.7188740000000002,86.14996488,-4.16540466,-37.86679422
0.61,61,-0.077,-1.001,-0.039,-0.286479,3.4377480000000005,1.8334656000000005,86.15569446,-4.1825934,-37.83241674
0.62,62,-0.076,-1.002,-0.039,-0.286479,3.0366774,1.8334656000000005,86.14996488,-4.19978214,-37.79803926
0.63,63,-0.076,-1.004,-0.039,-0.286479,3.0366774,1.7188740000000002,86.1442353,-4.21697088,-37.76939136
0.64,64,-0.076,-1.008,-0.038,-0.11459160000000004,2.8074942000000003,1.6042823999999998,86.13850572,-4.22843004,-37.74074346
0.65,65,-0.076,-1.011,-0.037000000000000005,-0.1718874,2.5210152000000003,1.432395,86.13277614,-4.24561878,-37.71209556
0.66,66,-0.076,-1.01,-0.039,-0.057295800000000015,2.3491278,1.3750992,86.1442353,-4.25134836,-37.68917724000001
0.67,67,-0.08,-1.007,-0.041,-0.11459160000000004,2.1199446,1.3178034,86.13850572,-4.26280752,-37.66625892
0.68,68,-0.08199999999999999,-1.005,-0.04,-0.3437748,2.0053530000000004,1.432395,86.13850572,-4.27999626,-37.6433406
0.6900000000000001,69,-0.083,-1.002,-0.043,-0.572958,1.8907613999999997,1.432395,86.12704656,-4.29145542,-37.62615186
0.7000000000000001,70,-0.08199999999999999,-1.001,-0.044,-0.8021411999999999,1.6615782,1.4896908000000002,86.11558740000002,-4.30864416,-37.60896312
0.7100000000000001,71,-0.083,-0.999,-0.046,-1.0886202,1.5469866,1.6042823999999998,86.09839866,-4.3315624800000005,-37.59177438
0.72,72,-0.084,-0.999,-0.047,-1.0886202,1.3178034,1.7761698,86.0869395,-4.34875122,-37.57458564
0.73,73,-0.084,-0.999,-0.05,-1.0313244,1.2032118,1.8907613999999997,86.07548034,-4.36593996,-37.56312648
0.74,74,-0.085,-1.003,-0.051,-0.9740286,1.2605076000000002,1.9480572,86.06402118000004,-4.3831287,-37.55166732
0.75,75,-0.085,-1.004,-0.05,-0.9167328,1.2605076000000002,1.8334656000000005,86.05256202000002,-4.40031744,-37.53447858
0.76,76,-0.083,-1.003,-0.051,-1.2032118,1.0886202,1.6615782,86.02391412,-4.41750618,-37.52301942
0.77,77,-0.081,-1.001,-0.052000000000000005,-1.2605076000000002,0.8021411999999999,1.4896908000000002,86.01245496,-4.43469492,-37.51156026
0.78,78,-0.077,-1.004,-0.053,-1.2032118,0.4010706,1.3178034,86.0009958,-4.44615408,-37.50583068
0.79,79,-0.077,-1.005,-0.052000000000000005,-1.145916,0.0,1.2605076000000002,85.98953664,-4.46334282,-37.50583068
0.8,80,-0.079,-1.003,-0.05,-1.2032118,-0.5156622000000001,1.2605076000000002,85.9723479,-4.4748019800000005,-37.51156026
0.81,81,-0.079,-1.0,-0.049,-1.145916,-0.8021411999999999,1.3750992,85.95515916000002,-4.4748019800000005,-37.51728984
0.8200000000000001,82,-0.077,-1.0,-0.048,-1.2032118,-1.0313244,1.3178034,85.9437,-4.48626114,-37.528749
0.8300000000000001,83,-0.077,-0.998,-0.048,-1.2032118,-1.432395,1.3178034,85.93224083999998,-4.50344988,-37.54020816
0.8400000000000001,84,-0.079,-1.0,-0.048,-0.9740286,-1.7188740000000002,1.3750992,85.92078168,-4.51490904,-37.5573969
0.85,85,-0.08,-1.004,-0.047,-1.0886202,-2.0626488000000003,1.3178034,85.9150521,-4.53209778,-37.58031522
0.86,86,-0.08199999999999999,-1.003,-0.048,-1.4896908000000002,-2.2345362,1.3750992,85.90359294,-4.54355694,-37.59750396
0.87,87,-0.08199999999999999,-1.003,-0.048,-1.7188740000000002,-2.291832,1.2032118,85.8864042,-4.5550161000000005,-37.62042228
0.88,88,-0.081,-1.003,-0.05,-1.7761698,-2.4637194,1.145916,85.86921545999998,-4.57220484,-37.64907018
0.89,89,-0.081,-1.002,-0.049,-1.8334656000000005,-2.6929026,1.0886202,85.85202672,-4.5836640000000015,-37.67198850000001
0.9,90,-0.081,-0.999,-0.048,-1.8334656000000005,-2.9220857999999996,0.9740286,85.84056756,-4.59512316,-37.7006364
0.91,91,-0.083,-0.999,-0.047,-1.7188740000000002,-3.3231564,0.8594370000000001,85.82910840000002,-4.60658232,-37.73501388
0.92,92,-0.086,-1.002,-0.051,-1.6615782,-3.380452200000001,0.9740286,85.81191966,-4.6180414800000005,-37.76939136
0.93,93,-0.08800000000000001,-1.006,-0.045,-1.4896908000000002,-3.2085648,1.0886202,85.8004605,-4.629500640000002,-37.79803926
0.9400000000000001,94,-0.087,-1.01,-0.041,-2.1199446,-3.151269,1.3750992,85.78327176,-4.64668938,-37.83241674
0.9500000000000001,95,-0.087,-1.01,-0.042,-2.7501984,-3.2658606,1.432395,85.75462386000002,-4.65814854,-37.86106464
0.9600000000000001,96,-0.085,-1.011,-0.049,-2.6356068,-3.2658606,1.4896908000000002,85.73743512,-4.675337279999999,-37.89544212
0.97,97,-0.08199999999999999,-1.007,-0.048,-2.3491278,-3.3231564,1.4896908000000002,85.72024638,-4.69252602,-37.9298196
0.98,98,-0.083,-0.999,-0.05,-1.8907613999999997,-3.5523396000000003,1.4896908000000002,85.70305764,-4.703985179999999,-37.96419708000001
0.99,99,-0.085,-0.994,-0.052000000000000005,-1.432395,-3.6096354,1.4896908000000002,85.69159848,-4.72117392,-37.99857456
1.0,100,-0.08900000000000001,-0.995,-0.053,-1.0313244,-3.6096354,1.4896908000000002,85.68013932,-4.73836266,-38.03295204
1.01,101,-0.09,-0.995,-0.05,-0.6875496,-3.5523396000000003,1.6615782,85.68013932,-4.76701056,-38.06732952
1.02,102,-0.09,-0.995,-0.049,-0.572958,-3.6096354,1.6615782,85.68013932,-4.784199299999999,-38.10170700000001
1.03,103,-0.092,-0.998,-0.048,-0.5156622000000001,-3.8388186,1.6615782,85.68013932,-4.80138804,-38.14181406
1.04,104,-0.093,-0.998,-0.051,-0.572958,-3.7815227999999994,1.7188740000000002,85.67440974,-4.81857678,-38.17619154000001
1.05,105,-0.094,-0.999,-0.05,-0.4583664000000001,-3.6096354,1.6615782,85.67440974,-4.8414950999999995,-38.21056902
1.06,106,-0.095,-1.001,-0.051,-0.2291832000000001,-3.5523396000000003,1.6042823999999998,85.68013932,-4.87587258,-38.24494650000001
1.07,107,-0.099,-1.005,-0.052000000000000005,-0.057295800000000015,-3.3231564,1.432395,85.6858689,-4.893061319999998,-38.27932398
1.08,108,-0.096,-1.006,-0.051,0.057295800000000015,-3.380452200000001,1.3750992,85.6858689,-4.90452048,-38.31370146
1.09,109,-0.095,-1.008,-0.048,0.0,-3.380452200000001,1.6042823999999998,85.69159848,-4.921709219999999,-38.34234936
1.1,110,-0.08900000000000001,-1.009,-0.051,-0.3437748,-3.2085648,2.0626488000000003,85.69159848,-4.94462754,-38.37672684
1.11,111,-0.08900000000000001,-1.005,-0.048,-0.6302538000000001,-3.3231564,2.4064236,85.69732806,-4.96754586,-38.40537474
1.12,112,-0.08900000000000001,-1.005,-0.045,-1.0313244,-3.4950437999999995,2.4637194,85.69159848,-4.99619376,-38.43975222
1.1300000000000001,113,-0.091,-1.005,-0.043,-1.6042823999999998,-3.4377480000000005,2.7501984,85.68013932,-5.02484166,-38.4741297
1.1400000000000001,114,-0.092,-1.003,-0.043,-2.291832,-3.2658606,3.0939732,85.65722099999998,-5.05921914,-38.5027776
1.1500000000000001,115,-0.08900000000000001,-1.004,-0.044,-2.7501984,-2.8074942000000003,3.4377480000000005,85.63430267999998,-5.0935966200000005,-38.5314255
1.1600000000000001,116,-0.09,-1.002,-0.046,-3.2658606,-2.4637194,3.7815227999999994,85.60565478000002,-5.1279740999999985,-38.55434382
1.17,117,-0.091,-0.997,-0.048,-3.380452200000001,-2.4637194,3.8961144,85.57700688,-5.16808116,-38.57153256
1.18,118,-0.09,-0.994,-0.044,-2.9793816000000004,-2.6356068,3.8961144,85.54835898,-5.20818822,-38.60018046
1.19,119,-0.08900000000000001,-0.996,-0.042,-2.5210152000000003,-2.9793816000000004,3.8388186,85.52544065999999,-5.24829528,-38.62309878
1.2,120,-0.08800000000000001,-0.997,-0.042,-2.291832,-2.9793816000000004,3.4950437999999995,85.50252234,-5.2826727600000005,-38.65174668
1.21,121,-0.086,-0.996,-0.039,-1.8907613999999997,-2.9220857999999996,3.2658606,85.50825191999998,-5.311320660000002,-38.68039458
1.22,122,-0.08800000000000001,-0.994,-0.037000000000000005,-1.4896908000000002,-2.6929026,2.9793816000000004,85.49679276,-5.339968560000001,-38.70331289999999
1.23,123,-0.08900000000000001,-0.994,-0.036000000000000004,-0.9167328,-2.2345362,2.8074942000000003,85.49106318,-5.36861646,-38.72623122
1.24,124,-0.08900000000000001,-0.993,-0.034,-0.4583664000000001,-1.8334656000000005,2.6356068,85.48533359999998,-5.397264359999999,-38.74341996
1.25,125,-0.091,-0.992,-0.028,-0.4010706,-1.6042823999999998,2.291832,85.48533359999998,-5.42018268,-38.75487912000001
1.26,126,-0.092,-0.999,-0.029,-0.6302538000000001,-1.3750992,2.1772404,85.54262940000002,-5.42591226,-38.77779744
1.27,127,-0.094,-1.004,-0.032,-0.5156622000000001,-0.6302538000000001,2.1772404,85.53689982,-5.44883058,-38.77779744
1.28,128,-0.096,-1.007,-0.032,-0.3437748,0.1718874,2.4637194,85.53689982,-5.47747848,-38.77779744
1.29,129,-0.093,-1.005,-0.033,-0.286479,0.8021411999999999,2.6356068,85.53117024000002,-5.5003968,-38.76633828
1.3,130,-0.092,-1.001,-0.029,-0.286479,1.5469866,2.6929026,85.52544065999999,-5.5290447,-38.74914954000001
1.31,131,-0.091,-1.0,-0.031,-0.6302538000000001,2.2345362,2.6929026,85.55408856,-5.53477428,-38.72623122
1.32,132,-0.092,-1.001,-0.034,-0.7448454000000001,2.6929026,2.6929026,85.54262940000002,-5.5576926,-38.69758331999999
1.33,133,-0.086,-1.003,-0.034,-0.8594370000000001,3.0939732,2.4064236,85.53117024000002,-5.58061092,-38.66893542
1.34,134,-0.07400000000000001,-1.007,-0.034,-0.572958,2.86479,2.1772404,85.52544065999999,-5.603529239999999,-38.63455794
1.35,135,-0.07400000000000001,-1.013,-0.031,-0.286479,2.4064236,1.7188740000000002,85.51971108000002,-5.6149884000000005,-38.61163962
1.36,136,-0.083,-1.019,-0.025,-0.3437748,1.5469866,1.7188740000000002,85.59419562000002,-5.59207008,-38.60018046
1.37,137,-0.09,-1.021,-0.025,-0.4010706,1.432395,1.8907613999999997,85.58846604,-5.60925882,-38.5887213
1.3800000000000001,138,-0.086,-1.014,-0.026,-0.5156622000000001,1.7761698,2.0053530000000004,85.57700688,-5.62644756,-38.56580298
1.3900000000000001,139,-0.079,-1.01,-0.029,-0.8021411999999999,2.0626488000000003,1.8907613999999997,85.56554772,-5.64936588,-38.54288466000001
1.4000000000000001,140,-0.076,-1.003,-0.032,-0.9740286,2.2345362,1.7761698,85.55408856,-5.66655462,-38.51996634
1.4100000000000001,141,-0.073,-0.998,-0.03,-0.8594370000000001,2.4064236,1.5469866,85.59419562000002,-5.62644756,-38.5027776
1.42,142,-0.079,-1.0,-0.029,-1.0313244,2.7501984,1.2605076000000002,85.58273646,-5.63790672,-38.4741297
1.43,143,-0.085,-1.003,-0.035,-1.9480572,3.4950437999999995,1.0313244,85.55981814,-5.6436363,-38.43975222
1.44,144,-0.091,-1.008,-0.043,-2.9793816000000004,4.3544808,0.9740286,85.51971108000002,-5.65509546,-38.39391558
1.45,145,-0.08900000000000001,-1.01,-0.052000000000000005,-3.7815227999999994,5.0993262,1.0886202,85.47960402,-5.66082504,-38.34234936
1.46,146,-0.087,-1.01,-0.058,-4.1825934,5.5576926,1.4896908000000002,85.4280378,-5.66082504,-38.28505356
1.47,147,-0.087,-1.003,-0.062,-4.1825934,5.958763200000001,1.7761698,85.37647158,-5.67801378,-38.22775776
1.48,148,-0.087,-0.998,-0.062,-3.5523396000000003,6.703608600000001,1.9480572,85.33063494000002,-5.6952025200000005,-38.1590028
1.49,149,-0.091,-0.989,-0.059,-2.9793816000000004,7.5057497999999985,1.6042823999999998,85.29625746,-5.70666168,-38.08451826
1.5,150,-0.095,-0.985,-0.055,-2.7501984,7.9641161999999985,1.0313244,85.25615040000002,-5.71239126,-38.00430414
1.51,151,-0.098,-0.988,-0.052000000000000005,-3.4950437999999995,8.59437,0.2291832000000001,85.21604334,-5.70666168,-37.91836044
1.52,152,-0.095,-0.992,-0.055,-4.6982556,9.740286,-0.1718874,85.15874754000002,-5.7009320999999975,-37.82095758
1.53,153,-0.08800000000000001,-0.998,-0.054000000000000006,-6.0733548,10.7143146,-0.2291832000000001,85.08426299999998,-5.68947294,-37.71782514
1.54,154,-0.083,-1.002,-0.056,-7.9641161999999985,10.3705398,0.0,84.99258972,-5.68947294,-37.6146927
1.55,155,-0.073,-1.006,-0.067,-9.797581800000001,9.2819196,0.2291832000000001,84.8837277,-5.683743359999999,-37.52301942
1.56,156,-0.063,-1.011,-0.087,-11.5737516,7.9641161999999985,0.286479,84.74621778000002,-5.66082504,-37.4428053
1.57,157,-0.053,-1.01,-0.102,-13.2353298,6.417129599999999,0.4583664000000001,84.60297828,-5.66655462,-37.37977992
1.58,158,-0.049,-0.998,-0.115,-14.7250206,5.0993262,0.286479,84.44827962000002,-5.66655462,-37.33394328
1.59,159,-0.047,-0.98,-0.123,-15.5844576,4.0680017999999984,-0.11459160000000004,84.28785138,-5.66082504,-37.29383622
1.6,160,-0.051,-0.967,-0.126,-15.756345000000001,2.6929026,-0.3437748,84.12169356000003,-5.66082504,-37.2709179
1.61,161,-0.068,-0.967,-0.123,-16.2147114,0.9167328,-0.6875496,83.93261742,-5.63790672,-37.25945874
1.62,162,-0.08,-0.986,-0.135,-18.449247600000003,-1.4896908000000002,-1.3178034,83.74354128,-5.62644756,-37.27664748
1.6300000000000001,163,-0.091,-1.008,-0.146,-22.631841,-4.8701430000000006,-1.8907613999999997,83.52008766,-5.6149884000000005,-37.328213700000006
1.6400000000000001,164,-0.086,-1.02,-0.177,-28.1322378,-8.8235532,-2.0053530000000004,83.24506782,-5.603529239999999,-37.42561656
1.6500000000000001,165,-0.071,-1.027,-0.209,-32.830493399999995,-13.5791046,-1.432395,82.92994092,-5.60925882,-37.56312648
1.6600000000000001,166,-0.04,-1.035,-0.229,-35.6379876,-18.5065434,-0.572958,82.56897738,-5.60925882,-37.74647304
1.6700000000000002,167,-0.029,-1.039,-0.229,-36.6120162,-23.777757,0.0,82.219473,-5.63790672,-37.9871154
1.68,168,-0.035,-1.024,-0.209,-35.6379876,-28.1322378,-0.286479,81.89288694,-5.66655462,-38.26786482
1.69,169,-0.045,-0.995,-0.192,-34.2055926,-31.111619399999995,-2.0626488000000003,81.57776004,-5.68947294,-38.58299172
1.7,170,-0.084,-0.959,-0.16899999999999998,-31.741873200000004,-32.7731976,-4.6982556,81.29128104,-5.683743359999999,-38.91530736
1.71,171,-0.132,-0.902,-0.14,-28.8770832,-33.3461556,-7.5630456000000015,81.03917952,-5.66082504,-39.25908216000001
1.72,172,-0.184,-0.872,-0.113,-26.0122932,-33.231564,-9.3392154,80.80999632,-5.6149884000000005,-39.60285696
1.73,173,-0.234,-0.872,-0.086,-23.8923486,-31.741873200000004,-9.568398599999998,80.60373144,-5.56915176,-39.9351726
1.74,174,-0.26,-0.903,-0.038,-21.0848544,-28.81978740000001,-8.9954406,80.42038488,-5.51758554,-40.23311076
1.75,175,-0.261,-0.967,0.003,-16.8449652,-25.9549974,-7.7922288,80.28287496,-5.48320806,-40.50240102
1.76,176,-0.244,-1.05,0.037000000000000005,-14.152062599999999,-23.8923486,-6.0733548,80.20266084,-5.47747848,-40.75450254
1.77,177,-0.214,-1.148,0.055,-13.5791046,-23.14750320000001,-3.3231564,80.08806924,-5.48320806,-40.98941532
1.78,178,-0.18,-1.242,0.058,-14.4385416,-22.5172494,0.9167328,79.96774806,-5.52331512,-41.20713936
1.79,179,-0.15,-1.2919999999999998,0.055,-15.527161800000002,-20.9702628,5.9014674000000005,79.83023813999998,-5.6149884000000005,-41.40767466000001
1.8,180,-0.138,-1.27,0.051,-17.6471064,-18.8503182,9.8548776,79.66980989999998,-5.74103916,-41.57956206
1.81,181,-0.135,-1.202,0.038,-20.168121600000006,-17.7044022,12.0894138,79.51511124,-5.89000824,-41.73426072
1.82,182,-0.131,-1.128,0.02,-22.8037284,-17.9335854,13.2353298,79.2973872,-6.05043648,-41.88895938
1.83,183,-0.129,-1.074,0.009000000000000001,-24.8090814,-17.9335854,13.349921400000001,79.06820400000002,-6.210864720000001,-42.04365804
1.84,184,-0.12,-1.04,0.004,-27.215505,-17.3606274,12.9488508,78.8103729,-6.37129296,-42.19262712
1.85,185,-0.126,-1.011,0.002,-29.335449600000004,-16.272007199999994,12.3758928,78.52962348,-6.52026204,-42.33013704
1.86,186,-0.135,-0.983,-0.001,-30.7105488,-13.9228794,11.5737516,78.2660628,-6.66350154,-42.45045822
1.87,187,-0.151,-0.948,-0.003,-29.793816,-11.0007936,11.229976800000001,77.97385421999998,-6.79528188,-42.53640192
1.8800000000000001,188,-0.17800000000000002,-0.922,-0.004,-26.9863218,-8.250595200000001,11.172681,77.71029354,-6.92133264,-42.5994273
1.8900000000000001,189,-0.197,-0.904,0.01,-23.5485738,-5.7868758000000025,12.2040054,77.47538076,-7.05311298,-42.63380478
1.9000000000000001,190,-0.225,-0.895,0.009000000000000001,-22.5172494,-3.3231564,13.521808800000002,77.24619756,-7.19635248,-42.63953436
1.9100000000000001,191,-0.231,-0.898,0.003,-22.459953600000002,-2.2345362,14.5531332,77.062851,-7.36823988,-42.63380478
1.9200000000000002,192,-0.229,-0.889,-0.004,-21.6005166,-1.432395,15.2406828,76.84512696,-7.52293854,-42.61661604
1.93,193,-0.221,-0.883,-0.005,-19.595163600000006,-0.2291832000000001,15.3552744,76.63886208,-7.6719076200000025,-42.58796814
1.94,194,-0.212,-0.875,-0.018000000000000002,-18.334656,0.6302538000000001,14.7823164,76.44978594,-7.8151471200000024,-42.54786108
1.95,195,-0.18600000000000005,-0.87,-0.025,-15.5844576,1.6042823999999998,13.407217200000002,76.28362812,-7.94692746,-42.50202444
1.96,196,-0.157,-0.865,-0.004,-12.7196676,2.1199446,11.9748222,76.20341400000002,-8.067248639999999,-42.46191738
1.97,197,-0.128,-0.8640000000000001,0.0,-10.3705398,2.4637194,10.7716104,76.09455198,-8.164651500000002,-42.41035116
1.98,198,-0.104,-0.889,0.006999999999999999,-8.4224826,1.7761698,10.1986524,76.00287870000002,-8.262054359999999,-42.3702441
1.99,199,-0.079,-0.906,0.006999999999999999,-5.0993262,-0.057295800000000015,10.1413566,75.9455829,-8.35945722,-42.34732578
2.0,200,-0.066,-0.93,0.017,-1.3178034,-2.5210152000000003,9.8548776,75.93412373999998,-8.46258966,-42.34732578
2.01,201,-0.065,-0.949,0.026,0.7448454000000001,-4.9847345999999995,8.8235532,76.09455198,-8.51415588,-42.398892
2.02,202,-0.07400000000000001,-0.966,0.038,2.3491278,-7.5630456000000015,7.333862400000001,76.12892946000002,-8.60009958,-42.456187799999995
2.03,203,-0.083,-0.99,0.045,3.7815227999999994,-9.8548776,6.130650599999999,76.18049568,-8.6803137,-42.53640192
2.04,204,-0.093,-1.029,0.038,4.2398892,-11.6310474,5.443101,76.24352106,-8.75479824,-42.63380478
2.05,205,-0.108,-1.071,0.03,3.7815227999999994,-13.407217200000002,5.5003968,76.30081686,-8.84074194,-42.75412596
2.0599999999999996,206,-0.14400000000000002,-1.118,0.021,2.578311,-14.896907999999998,6.2452422,76.42113803999997,-8.92668564,-42.89736546
2.07,207,-0.183,-1.158,0.006999999999999999,0.057295800000000015,-14.2093584,7.2192707999999985,76.44405636,-9.0240885,-43.01768664
2.0799999999999996,208,-0.229,-1.195,-0.049,-3.4377480000000005,-12.834259199999998,7.906820400000001,76.42686762000002,-9.12722094,-43.12654866000001
2.09,209,-0.262,-1.222,-0.099,-6.1879464,-11.0580894,7.9641161999999985,76.38103097999998,-9.23035338,-43.21822194
2.0999999999999996,210,-0.303,-1.275,-0.249,-12.0894138,-11.1153852,7.8495246,76.27216896,-9.32775624,-43.30989522
2.11,211,-0.284,-1.351,-0.333,-15.527161800000002,-14.0947668,8.59437,76.13465904,-9.44234784,-43.42448682
2.1199999999999997,212,-0.237,-1.379,-0.362,-14.7250206,-17.131444199999994,9.8548776,76.01433786,-9.57985776,-43.573455900000006
2.13,213,-0.188,-1.393,-0.303,-11.745639,-19.0795014,10.5424272,75.92266457999997,-9.72309726,-43.73388414
2.1399999999999997,214,-0.184,-1.416,-0.258,-10.026765,-16.959556799999998,9.740286,75.84818004,-9.8548776,-43.87712364
2.15,215,-0.241,-1.475,-0.264,-9.8548776,-18.048177,6.1879464,75.77942508000002,-9.95228046,-44.04328146
2.1599999999999997,216,-0.284,-1.509,-0.298,-4.8701430000000006,-13.2353298,1.9480572,75.75650676000002,-10.00384668,-44.16933222
2.17,217,-0.313,-1.484,-0.29600000000000004,4.297185,-3.2085648,0.4010706,75.80234340000001,-10.01530584,-44.19798012
2.1799999999999997,218,-0.395,-1.486,-0.29600000000000004,6.5317212,3.6096354,-3.7815227999999994,75.86536878,-9.9694692,-44.16933222
2.19,219,-0.466,-1.443,-0.312,2.6929026,9.453807000000001,-8.4224826,75.87682794,-9.86633676,-44.10057726
2.1999999999999997,220,-0.483,-1.359,-0.3670000000000001,0.6302538000000001,20.2827132,-10.9434978,75.85390962,-9.71736768,-43.92868986
2.21,221,-0.483,-1.283,-0.375,-0.9740286,29.7365202,-14.152062599999999,75.79088424,-9.52829154,-43.67085876
2.2199999999999998,222,-0.417,-1.199,-0.371,-2.291832,33.6326346,-16.7303736,75.7163997,-9.29337876,-43.37865018
2.23,223,-0.314,-1.077,-0.394,-5.9014674000000005,36.7266078,-15.870936600000002,75.60180809999999,-9.06419556,-43.06352328
2.2399999999999998,224,-0.234,-0.927,-0.418,-7.3911582,37.6433406,-13.8655836,75.47002776000002,-8.84647152,-42.73120764
2.25,225,-0.17,-0.826,-0.415,-7.333862400000001,34.7212548,-12.6623718,75.34397700000002,-8.64593622,-42.42181032
2.26,226,-0.125,-0.754,-0.411,-6.760904399999999,32.085648000000006,-11.6310474,75.18354876,-8.46258966,-42.13533132
2.27,227,-0.071,-0.72,-0.396,-5.9014674000000005,30.93973200000001,-11.0580894,75.08041632,-8.28497268,-41.86031148
2.28,228,-0.034,-0.7440000000000001,-0.35200000000000004,-3.9534102,29.67922440000001,-11.8602306,74.99447262,-8.107355700000001,-41.60248038
2.29,229,-0.016,-0.7829999999999999,-0.332,-3.4950437999999995,28.5906042,-14.152062599999999,74.91998808000002,-7.906820399999999,-41.36183802
2.3,230,-0.011,-0.823,-0.3,-0.6875496,28.0176462,-15.6990492,74.87988102,-7.6890963600000015,-41.13265482
2.31,231,-0.029,-0.8540000000000001,-0.282,0.4010706,28.1895336,-15.813640800000002,74.83404438,-7.45418358,-40.89774204
2.32,232,-0.056,-0.892,-0.28,0.8021411999999999,29.8511118,-15.527161800000002,74.80539647999998,-7.2307299600000015,-40.6513701
2.3299999999999996,233,-0.081,-0.918,-0.28,1.6615782,31.79916900000001,-15.4125702,74.78820774,-7.01300592,-40.38207984
2.34,234,-0.103,-0.94,-0.268,3.380452200000001,32.7731976,-15.527161800000002,74.78247816,-6.783822719999999,-40.10133042
2.3499999999999996,235,-0.133,-0.949,-0.258,3.8961144,32.372127,-15.4125702,74.78820774,-6.560369099999999,-39.83204016
2.36,236,-0.149,-0.955,-0.248,3.8961144,31.6845774,-15.126091199999998,74.78820774,-6.348374640000001,-39.5627499
2.3699999999999997,237,-0.141,-0.947,-0.223,3.5523396000000003,31.741873200000004,-15.0687954,74.79393732,-6.130650600000001,-39.29345964
2.38,238,-0.122,-0.927,-0.217,2.3491278,33.2888598,-15.2979786,74.78247816,-5.90719698,-39.01271022
2.3899999999999997,239,-0.101,-0.905,-0.229,-0.11459160000000004,37.2995658,-15.527161800000002,74.74237109999999,-5.6722842,-38.69185374
2.4,240,-0.085,-0.899,-0.238,-2.0626488000000003,40.04976420000001,-15.870936600000002,74.68507530000002,-5.42591226,-38.34807894
2.4099999999999997,241,-0.07,-0.888,-0.24,-5.042030400000002,40.4508348,-15.870936600000002,74.58767244,-5.17381074,-37.99857456
2.42,242,-0.045,-0.87,-0.236,-8.307891,38.3308902,-15.0114996,74.47308084,-4.93889796,-37.66625892
2.4299999999999997,243,-0.02,-0.8590000000000001,-0.223,-11.172681,34.66395900000001,-14.4385416,74.32984134,-4.72117392,-37.37405034
2.44,244,0.016,-0.838,-0.218,-14.4385416,31.340802600000004,-14.5531332,74.15795394,-4.50344988,-37.11048966
2.4499999999999997,245,0.037000000000000005,-0.828,-0.223,-17.589810600000003,27.7311672,-15.6417534,73.95741863999999,-4.29145542,-36.89276562
2.46,246,0.047,-0.826,-0.223,-19.5378678,24.1788276,-17.131444199999994,73.73969459999998,-4.05081306,-36.70941906
2.4699999999999998,247,0.051,-0.818,-0.219,-21.5432208,19.7097552,-19.0795014,73.50478182,-3.82162986,-36.57190914
2.48,248,0.048,-0.812,-0.205,-22.4026578,16.501190400000002,-20.9702628,73.26986904,-3.5809875,-36.47450628
2.4899999999999998,249,0.036000000000000004,-0.82,-0.202,-22.7464326,14.037471,-22.5745452,73.03495626,-3.32888598,-36.40575132
2.5,250,0.025,-0.8420000000000001,-0.206,-23.2620948,12.891555,-23.3193906,72.79431389999998,-3.07678446,-36.3541851
2.51,251,0.03,-0.873,-0.213,-23.7204612,12.9488508,-23.3193906,72.55367154000002,-2.8074942000000003,-36.30261888
2.52,252,0.022,-0.889,-0.228,-23.14750320000001,13.9228794,-22.9756158,72.31302918,-2.55539268,-36.2395935
2.53,253,0.018000000000000002,-0.879,-0.213,-20.9702628,13.9228794,-22.2880662,72.09530514000002,-2.30902074,-36.17656812
2.54,254,0.001,-0.878,-0.21,-18.334656,15.4125702,-22.4026578,71.90049941999997,-2.05691922,-36.096354
2.55,255,-0.016,-0.883,-0.188,-14.0947668,18.334656,-22.91832,71.75153034,-1.78762896,-35.99895114
2.56,256,-0.034,-0.893,-0.181,-11.2872726,20.626488,-23.2620948,71.6483979,-1.51260912,-35.87290038
2.57,257,-0.051,-0.893,-0.165,-9.453807000000001,21.829699800000004,-23.9496444,71.54526546,-1.22613012,-35.74112004000001
2.5799999999999996,258,-0.07400000000000001,-0.8690000000000001,-0.149,-6.417129599999999,21.3713334,-24.350715,71.47651049999997,-0.93392154,-35.61506928
2.59,259,-0.063,-0.8420000000000001,-0.134,-3.380452200000001,19.6524594,-24.2361234,71.43640344,-0.65317212,-35.50620726000001
2.5999999999999996,260,-0.031,-0.831,-0.125,-0.1718874,17.3606274,-23.835052800000003,71.43067386,-0.37815228,-35.41453398
2.61,261,0.0,-0.831,-0.123,2.8074942000000003,15.4125702,-23.3193906,71.48796966,-0.10886202,-35.34577901999999
2.6199999999999997,262,0.033,-0.88,-0.126,6.5317212,13.2926256,-23.14750320000001,71.55099504,0.14323950000000002,-35.28848322
2.63,263,0.059,-0.951,-0.156,8.880849000000003,8.7662574,-20.8556712,71.64266832,0.36669312,-35.27129448
2.6399999999999997,264,0.1,-1.041,-0.202,7.2765666,7.5057497999999985,-18.5065434,71.71142327999998,0.56149884,-35.25410574
2.65,265,0.125,-1.125,-0.304,1.8334656000000005,6.875496000000001,-14.8396122,71.7343416,0.72192708,-35.236917
2.6599999999999997,266,0.123,-1.235,-0.449,-0.6302538000000001,10.4278356,-11.0580894,71.71715286,0.86516658,-35.17389162
2.67,267,0.065,-1.3330000000000002,-0.486,1.3750992,10.9434978,-10.3705398,71.72861202,0.9969469199999998,-35.09940708000001
2.6799999999999997,268,0.005,-1.355,-0.467,1.6615782,8.5370742,-15.4125702,71.74580076,1.16310474,-35.0650296
2.69,269,0.004,-1.274,-0.453,0.3437748,2.6356068,-19.1367972,71.75153034,1.35218088,-35.09940708000001
2.6999999999999997,270,0.058,-1.157,-0.443,2.291832,-5.2139178,-19.0222056,71.76871908,1.5183387000000002,-35.20826909999999
2.71,271,0.202,-1.064,-0.465,3.2085648,-15.469866,-12.9488508,71.76871908,1.64438946,-35.39734524
2.7199999999999998,272,0.273,-1.005,-0.502,1.9480572,-24.2361234,-4.6409598,71.78590782,1.6157415599999996,-35.63798759999999
2.73,273,0.267,-0.954,-0.518,2.578311,-30.7105488,1.7188740000000002,71.80882614,1.51260912,-35.9244666
2.7399999999999998,274,0.226,-0.942,-0.498,2.9220857999999996,-34.262888399999994,6.016058999999999,71.83174446000002,1.36364004,-36.23386392
2.75,275,0.119,-0.937,-0.486,2.9793816000000004,-33.9764094,9.453807000000001,71.86039236,1.1745638999999999,-36.5260725
2.76,276,-0.02,-0.921,-0.481,2.9793816000000004,-32.085648000000006,11.1153852,71.84320362,0.96256944,-36.79536276
2.77,277,-0.129,-0.897,-0.472,0.7448454000000001,-31.2835068,10.8289062,71.85466278,0.76776372,-37.05892344
2.78,278,-0.188,-0.867,-0.454,0.0,-31.627281600000003,9.797581800000001,71.85466278,0.59014674,-37.328213700000006
2.79,279,-0.184,-0.852,-0.409,-0.6875496,-33.5753388,9.2819196,71.8489332,0.40680018,-37.62042228
2.8,280,-0.152,-0.8540000000000001,-0.373,-0.4010706,-35.236917,9.568398599999998,71.8489332,0.21199446,-37.92409002
2.81,281,-0.113,-0.856,-0.35200000000000004,-1.145916,-37.0130868,9.969469199999999,71.8202853,0.0,-38.24494650000001
2.82,282,-0.087,-0.875,-0.336,-1.8907613999999997,-38.2162986,10.5424272,71.80882614,-0.21199446,-38.57153256
2.8299999999999996,283,-0.06,-0.904,-0.341,-2.86479,-37.8725238,11.8602306,71.78590782,-0.4297185000000001,-38.89811862
2.84,284,-0.043,-0.937,-0.341,-2.1772404,-36.38283300000001,13.9228794,71.77444865999998,-0.66463128,-39.20178636
2.8499999999999996,285,-0.037000000000000005,-0.987,-0.319,-0.057295800000000015,-34.1482968,16.1001198,71.78017824,-0.91100322,-39.47107662000001
2.86,286,-0.031,-1.02,-0.279,0.9167328,-31.971056400000002,18.2200644,71.80309656,-1.18029348,-39.72317814
2.8699999999999997,287,-0.042,-1.028,-0.267,0.0,-29.793816,20.511896399999998,71.81455572,-1.45531332,-39.94090218
2.88,288,-0.056,-1.022,-0.273,-3.151269,-29.5646328,22.2880662,71.79163739999998,-1.7475218999999995,-40.15289664
2.8899999999999997,289,-0.054000000000000006,-0.988,-0.263,-7.0473834,-29.2781538,23.777757,71.72861202,-2.05691922,-40.35916152
2.9,290,-0.04,-0.931,-0.275,-9.5111028,-29.507337,24.350715,71.6483979,-2.37204612,-40.55969682
2.9099999999999997,291,-0.026,-0.878,-0.279,-10.4851314,-29.9084076,24.8090814,71.55099504,-2.6929026,-40.77169128
2.92,292,-0.011,-0.8240000000000001,-0.263,-11.1153852,-29.335449600000004,24.8663772,71.45359218,-3.0080295,-40.97222658
2.9299999999999997,293,-0.011,-0.8029999999999999,-0.25,-12.4331886,-28.361421000000004,25.210152,71.33900058,-3.33461556,-41.16130272
2.94,294,-0.034,-0.794,-0.269,-15.2406828,-26.7571386,25.0382646,71.20149066,-3.64974246,-41.33319012
2.9499999999999997,295,-0.073,-0.7909999999999999,-0.265,-16.042824000000003,-23.7204612,24.064235999999998,71.05252157999998,-3.94768062,-41.4821592
2.96,296,-0.102,-0.79,-0.245,-15.6417534,-21.5432208,23.14750320000001,70.90928208,-4.2398892,-41.61393954
2.9699999999999998,297,-0.146,-0.7859999999999999,-0.242,-15.0114996,-19.938938399999998,22.2880662,70.76604258,-4.50917946,-41.73426072
2.98,298,-0.17600000000000002,-0.777,-0.241,-14.667724800000002,-18.2200644,21.3713334,70.62853265999998,-4.76701056,-41.83739316
2.9899999999999998,299,-0.188,-0.7709999999999999,-0.231,-13.8082878,-17.246035799999998,20.626488,70.49675232,-5.0133825000000005,-41.93479602
3.0,300,-0.192,-0.789,-0.22,-13.6364004,-16.615782,19.8816426,70.37070156,-5.25402486,-42.0264693
3.01,301,-0.18,-0.813,-0.222,-14.2093584,-15.469866,20.340009,70.25038038,-5.51185596,-42.10668342
3.02,302,-0.157,-0.826,-0.214,-13.407217200000002,-14.2093584,21.5432208,70.11860004,-5.7582279000000005,-42.1697088
3.03,303,-0.149,-0.836,-0.217,-10.4278356,-13.120738199999998,23.0902074,70.02119718,-6.0160589999999985,-42.21554544
3.04,304,-0.149,-0.863,-0.212,-7.3911582,-11.8029348,23.9496444,69.95244222,-6.2796196800000015,-42.24419334
3.05,305,-0.147,-0.87,-0.206,-5.3858052,-10.5424272,23.9496444,69.900876,-6.53745078,-42.26711166
3.06,306,-0.142,-0.889,-0.204,-2.7501984,-10.313244,22.8037284,69.90660558,-6.79528188,-42.29002998
3.07,307,-0.145,-0.915,-0.187,-0.8594370000000001,-10.8289062,21.1421502,69.90660558,-7.0244650800000015,-42.31867788
3.08,308,-0.14800000000000002,-0.931,-0.17800000000000002,-0.3437748,-11.745639,19.2513888,69.90660558,-7.242189120000001,-42.36451452
3.09,309,-0.153,-0.938,-0.168,0.057295800000000015,-12.605076,16.902261,69.91806474,-7.43699484,-42.4275399
3.0999999999999996,310,-0.163,-0.945,-0.183,0.4583664000000001,-13.178034,13.8082878,69.93525348,-7.60888224,-42.50202444
3.11,311,-0.174,-0.957,-0.202,1.432395,-12.834259199999998,9.453807000000001,70.02119718,-7.763580899999999,-42.5994273
3.1199999999999997,312,-0.183,-0.98,-0.214,2.9220857999999996,-12.032117999999999,5.7868758000000025,70.06703381999999,-7.85525418,-42.69110058
3.13,313,-0.184,-1.008,-0.224,4.9274388,-10.5424272,2.8074942000000003,70.1300592,-7.91254998,-42.78277386
3.1399999999999997,314,-0.18600000000000005,-1.048,-0.243,7.1046792000000005,-8.651665800000002,0.4583664000000001,70.2160029,-7.94119788,-42.86298798
3.15,315,-0.193,-1.124,-0.282,7.5057497999999985,-8.9381448,0.1718874,70.3019466,-7.96984578,-42.9432021
3.1599999999999997,316,-0.199,-1.199,-0.302,5.1566220000000005,-11.0007936,0.4583664000000001,70.38216072,-8.00995284,-43.05206412
3.17,317,-0.22,-1.278,-0.461,0.9740286,-13.178034,1.3750992,70.41080862,-8.067248639999999,-43.1723853
3.1799999999999997,318,-0.17600000000000002,-1.38,-0.565,4.010706000000001,-14.2093584,4.8701430000000006,70.46810442,-8.15319234,-43.2869769
3.19,319,-0.129,-1.393,-0.529,9.8548776,-15.0687954,6.417129599999999,70.58842560000002,-8.25632478,-43.41302766
3.1999999999999997,320,-0.153,-1.28,-0.487,7.3911582,-12.4331886,4.2398892,70.68009888,-8.3365389,-43.51616009999999
3.21,321,-0.19,-1.195,-0.521,7.2765666,-4.5263682,0.9740286,70.73739468,-8.35945722,-43.55053758
3.2199999999999998,322,-0.241,-1.168,-0.518,7.906820400000001,5.6149884000000005,-2.9793816000000004,70.81187922000002,-8.31362058,-43.50470094
3.23,323,-0.298,-1.148,-0.487,6.703608600000001,13.980175199999998,-7.5057497999999985,70.86344543999998,-8.19902898,-43.39583892
3.2399999999999998,324,-0.321,-1.121,-0.472,6.760904399999999,20.6837838,-10.9434978,70.90928208,-8.03287116,-43.23541068
3.25,325,-0.325,-1.067,-0.483,5.3285094000000015,24.7517856,-12.032117999999999,70.93220040000001,-7.8495246,-43.04060496
3.26,326,-0.305,-0.991,-0.514,3.0366774,26.4706596,-11.4018642,70.88636376,-7.6890963600000015,-42.81715134
3.27,327,-0.274,-0.906,-0.515,1.4896908000000002,27.3300966,-9.6256944,70.86917502,-7.51720896,-42.58796814
3.28,328,-0.224,-0.8590000000000001,-0.498,-0.8594370000000001,26.9863218,-7.906820400000001,70.82906796,-7.3625102999999985,-42.35878494
3.29,329,-0.173,-0.8220000000000001,-0.475,-2.7501984,26.2414764,-5.844171599999999,70.76604258,-7.2307299600000015,-42.12960174
3.3,330,-0.108,-0.836,-0.441,-3.2658606,23.6631654,-4.4117766,70.7030172,-7.116138359999999,-41.91760728
3.31,331,-0.038,-0.85,-0.407,-2.86479,22.345362,-4.4117766,70.59988476,-6.972898860000001,-41.71707198
3.32,332,0.015,-0.848,-0.379,-1.5469866,22.5172494,-5.2712136,70.5597777,-6.85257768,-41.52226626
3.33,333,0.043,-0.8320000000000001,-0.354,0.8021411999999999,23.0902074,-6.417129599999999,70.54258896,-6.72079734,-41.32173096
3.34,334,0.05,-0.8170000000000001,-0.322,2.4637194,22.86102420000001,-7.6203414,70.54258896,-6.58328742,-41.13265482
3.3499999999999996,335,0.043,-0.8029999999999999,-0.308,4.583664,21.1421502,-8.59437,70.56550728,-6.43431834,-40.95503784
3.36,336,0.041,-0.799,-0.29600000000000004,6.760904399999999,19.767051,-9.6256944,70.61134392,-6.25097178,-40.80033918
3.3699999999999997,337,0.005,-0.8109999999999999,-0.266,7.3911582,18.6784308,-11.6310474,70.66863972,-6.08481396,-40.66282926
3.38,338,-0.032,-0.8220000000000001,-0.252,9.2819196,18.3919518,-13.6936962,70.74312426,-5.895737819999999,-40.53104892
3.3899999999999997,339,-0.07,-0.861,-0.229,10.4851314,18.449247600000003,-15.870936600000002,70.83479754,-5.68947294,-40.40499816
3.4,340,-0.116,-0.894,-0.219,10.0840608,19.9962342,-18.2200644,70.92074124,-5.46028974,-40.27894740000001
3.4099999999999997,341,-0.14400000000000002,-0.909,-0.21600000000000005,9.167328,22.8037284,-19.8816426,71.0181441,-5.21964738,-40.12424874
3.42,342,-0.16699999999999998,-0.8959999999999999,-0.21600000000000005,7.2765666,26.1268848,-20.340009,71.06971032,-4.95035712,-39.94090218
3.4299999999999997,343,-0.173,-0.858,-0.225,4.6409598,31.1689152,-19.194093,71.09262864,-4.68106686,-39.7059894
3.44,344,-0.16399999999999998,-0.807,-0.218,2.1772404,34.091001,-16.959556799999998,71.08689906,-4.41750618,-39.43669914
3.4499999999999997,345,-0.14,-0.7609999999999999,-0.21600000000000005,0.572958,36.2682414,-14.266654199999998,71.06971032,-4.17686382,-39.13876098
3.46,346,-0.106,-0.7340000000000001,-0.21600000000000005,-1.2032118,37.4714532,-11.4018642,71.02960326,-3.9648693599999993,-38.82363408
3.4699999999999998,347,-0.071,-0.7170000000000001,-0.221,-2.8074942000000003,37.52874900000001,-9.224623800000002,70.97230746,-3.77006364,-38.49704802
3.48,348,-0.03,-0.7140000000000001,-0.222,-3.8961144,36.669312,-7.7922288,70.90928208,-3.58671708,-38.17619154000001
3.4899999999999998,349,0.006,-0.723,-0.219,-5.042030400000002,35.236917,-7.3911582,70.82906796,-3.4148296799999995,-37.86679422
3.5,350,0.05,-0.732,-0.22,-5.5576926,33.4607472,-8.307891,70.75458342,-3.2372127,-37.58031522
3.51,351,0.08900000000000001,-0.742,-0.229,-6.130650599999999,31.054323600000004,-10.026765,70.6743693,-3.01948866,-37.32248412
3.52,352,0.112,-0.747,-0.231,-5.958763200000001,28.8770832,-11.45916,70.59415518,-2.82468294,-37.08757134
3.53,353,0.112,-0.762,-0.232,-5.5576926,26.298772200000002,-12.7769634,70.52540022,-2.62987722,-36.88130646000001
3.54,354,0.107,-0.778,-0.236,-5.3285094000000015,23.9496444,-13.5791046,70.46237484,-2.42934192,-36.6979599
3.55,355,0.095,-0.794,-0.238,-4.583664,21.3713334,-14.0947668,70.40507904,-2.22880662,-36.54326124
3.56,356,0.086,-0.821,-0.242,-3.380452200000001,18.907614000000002,-14.610429000000002,70.37070156,-1.99962342,-36.41721048
3.57,357,0.07400000000000001,-0.862,-0.236,-1.7761698,16.558486199999994,-14.896907999999998,70.34778324,-1.81054728,-36.30834846
3.58,358,0.069,-0.919,-0.226,-0.5156622000000001,14.495837400000001,-15.0687954,70.33632408,-1.6272007199999998,-36.22240476
3.59,359,0.051,-0.948,-0.213,0.286479,12.6623718,-15.469866,70.33632408,-1.44385416,-36.1536498
3.5999999999999996,360,0.039,-0.951,-0.211,1.0313244,11.745639,-14.667724800000002,70.34205366,-1.26623718,-36.096354
3.61,361,0.023,-0.94,-0.206,2.5210152000000003,11.516455800000001,-13.8655836,70.40507904,-1.08289062,-36.03332862
3.6199999999999997,362,0.006999999999999999,-0.93,-0.19,4.010706000000001,11.6310474,-12.7196676,70.44518609999999,-0.92819196,-35.96457366
3.63,363,-0.005,-0.933,-0.166,5.958763200000001,11.9748222,-11.3445684,70.50248189999998,-0.7849524600000001,-35.89008912
3.6399999999999997,364,-0.021,-0.947,-0.17,6.703608600000001,13.2353298,-9.8548776,70.57123686,-0.65317212,-35.79268626
3.65,365,-0.037000000000000005,-0.966,-0.16399999999999998,8.078707799999998,14.0947668,-7.7349330000000025,70.6457214,-0.53285094,-35.68955382
3.6599999999999997,366,-0.034,-0.997,-0.162,9.224623800000002,14.610429000000002,-4.5263682,70.80042006,-0.4583664000000001,-35.56350306
3.67,367,-0.033,-1.02,-0.175,9.6256944,13.980175199999998,-0.572958,70.89782292,-0.40680018,-35.43172272
3.6799999999999997,368,-0.019,-1.052,-0.194,10.4851314,11.2872726,2.4637194,71.00095536,-0.39534102,-35.31713112
3.69,369,0.005,-1.084,-0.204,11.9748222,7.6203414,5.2712136,71.12127654,-0.42398892,-35.22545784
3.6999999999999997,370,0.035,-1.109,-0.223,15.2406828,4.2398892,7.7349330000000025,71.27597519999998,-0.48128472,-35.16243246
3.71,371,0.037000000000000005,-1.145,-0.247,19.4232762,2.2345362,9.224623800000002,71.49369924,-0.55003968,-35.11086624
3.7199999999999998,372,0.054000000000000006,-1.2009999999999998,-0.303,23.376686399999997,2.4637194,9.3965112,71.7343416,-0.6302538000000001,-35.05357044
3.73,373,0.032,-1.308,-0.392,22.7464326,9.453807000000001,8.479778399999999,71.9635248,-0.68182002,-34.933249260000004
3.7399999999999998,374,-0.028,-1.4680000000000002,-0.542,18.7357266,23.204799,5.7868758000000025,72.14687136,-0.6703608600000001,-34.69833648
3.75,375,-0.096,-1.496,-0.584,13.750992000000002,35.5806918,3.0939732,72.2786517,-0.6016058999999999,-34.3488321
3.76,376,-0.17600000000000002,-1.388,-0.531,12.834259199999998,33.2888598,4.1825934,72.3932433,-0.55576926,-34.016516460000005
3.77,377,-0.205,-1.264,-0.453,11.229976800000001,27.9603504,5.3285094000000015,72.50210532,-0.53285094,-33.73576704
3.78,378,-0.115,-1.181,-0.414,11.9748222,18.2773602,5.1566220000000005,72.6224265,-0.52712136,-33.54096132
3.79,379,0.046,-1.153,-0.442,10.4278356,8.307891,5.844171599999999,72.72555894,-0.56149884,-33.44355846
3.8,380,0.175,-1.147,-0.481,7.906820400000001,1.3178034,8.4224826,72.80577306,-0.63598338,-33.40918098
3.81,381,0.245,-1.116,-0.509,6.5317212,-0.572958,11.745639,72.83442096,-0.69900876,-33.38053308
3.82,382,0.228,-1.0590000000000002,-0.508,7.2192707999999985,-0.6302538000000001,14.610429000000002,72.9089055,-0.83651868,-33.3461556
3.83,383,0.161,-0.999,-0.488,10.7143146,-0.8021411999999999,16.7876694,73.01776751999998,-0.9969469199999998,-33.30031896000001
3.84,384,0.076,-0.934,-0.4970000000000001,12.5477802,-0.6302538000000001,18.048177,73.14381828,-1.1688343199999998,-33.25448232
3.8499999999999996,385,0.021,-0.885,-0.49,13.0634424,-0.6875496,19.480572,73.27559862,-1.3579104599999998,-33.208645680000004
3.86,386,-0.039,-0.8590000000000001,-0.472,11.5737516,0.6875496,21.3140376,73.3099761,-1.56990492,-33.13416114
3.8699999999999997,387,-0.086,-0.8320000000000001,-0.448,10.9434978,3.0366774,23.2620948,73.41883812,-1.78189938,-33.04248786
3.88,388,-0.129,-0.812,-0.4,12.5477802,6.130650599999999,25.0955604,73.53915930000002,-2.005353,-32.91070752
3.8899999999999997,389,-0.166,-0.7959999999999999,-0.363,13.0634424,9.167328,26.1841806,73.66521005999998,-2.22880662,-32.75027928
3.9,390,-0.187,-0.78,-0.328,12.4904844,12.261301199999998,25.55392680000001,73.78553124,-2.44080108,-32.56120314
3.9099999999999997,391,-0.184,-0.7709999999999999,-0.299,11.745639,16.2147114,22.8037284,73.87147494000001,-2.64706596,-32.33774952
3.92,392,-0.158,-0.773,-0.29,11.8029348,19.7097552,20.3973048,73.98033696,-2.79030546,-32.09137758
3.9299999999999997,393,-0.129,-0.7809999999999999,-0.262,12.9488508,23.204799,19.194093,74.09492856,-2.91635622,-31.81635774
3.94,394,-0.108,-0.7979999999999999,-0.24,14.037471,27.444688199999998,19.4232762,74.21524974,-3.03094782,-31.50123084
3.9499999999999997,395,-0.106,-0.831,-0.239,14.5531332,32.2002396,21.027558600000006,74.3413005,-3.15699858,-31.134537720000004
3.96,396,-0.109,-0.875,-0.236,14.32395,36.898495200000006,23.204799,74.4558921,-3.30023808,-30.71627838
3.9699999999999998,397,-0.121,-0.925,-0.232,14.0947668,40.33624320000001,25.7258142,74.57048370000003,-3.4492071599999994,-30.25791198
3.98,398,-0.129,-0.976,-0.232,12.4331886,42.28430039999999,28.1895336,74.66215697999998,-3.61536498,-29.77662726
3.9899999999999998,399,-0.121,-0.972,-0.228,10.1986524,43.1437374,30.4240698,74.72518235999998,-3.80444112,-29.28388338
4.0,400,-0.108,-0.94,-0.21,8.9954406,43.7166954,31.3980984,74.77674858,-4.00497642,-28.77968034
4.01,401,-0.096,-0.913,-0.199,7.333862400000001,45.0917946,30.93973200000001,74.81685564,-4.19978214,-28.26401814
4.02,402,-0.095,-0.865,-0.191,6.5317212,46.5814854,28.991674800000002,74.83404438,-4.36593996,-27.73689678
4.03,403,-0.096,-0.8340000000000001,-0.191,7.1046792000000005,48.7587258,26.8717302,74.86269228,-4.51490904,-27.19831626
4.04,404,-0.109,-0.8140000000000001,-0.183,7.7349330000000025,50.706783,25.4393352,74.89134018,-4.6409598,-26.642547
4.05,405,-0.136,-0.8059999999999999,-0.183,8.3651868,52.597544400000004,24.7517856,74.91998808000002,-4.7555514,-26.07531858
4.06,406,-0.159,-0.804,-0.181,8.880849000000003,54.6601932,25.0382646,74.95436556000001,-4.88160216,-25.47944226
4.07,407,-0.179,-0.8059999999999999,-0.177,9.5111028,57.06661679999999,26.642547,74.99447262,-5.001923339999999,-24.86064762
4.08,408,-0.194,-0.813,-0.17800000000000002,9.797581800000001,59.7595194,28.304125199999998,75.0288501,-5.13943326,-24.2074755
4.09,409,-0.203,-0.8190000000000001,-0.18,9.6256944,63.59833800000001,29.9657034,75.05176842,-5.27694318,-23.5199259
4.1,410,-0.212,-0.818,-0.17800000000000002,9.797581800000001,68.58307260000001,30.65325300000001,75.07468673999998,-5.414453099999999,-22.7750805
4.109999999999999,411,-0.221,-0.8220000000000001,-0.185,9.8548776,73.10944079999999,30.65325300000001,75.09187548,-5.5576926,-21.99012804
4.12,412,-0.232,-0.823,-0.189,10.886202,76.60448459999998,30.7105488,75.1147938,-5.67801378,-21.170798100000006
4.13,413,-0.239,-0.833,-0.172,12.318597,79.0109082,31.1689152,75.14344170000003,-5.79833496,-20.32854984
4.14,414,-0.233,-0.858,-0.168,12.3758928,80.1568242,32.486718599999996,75.17208959999998,-5.92438572,-19.46911284
4.1499999999999995,415,-0.21600000000000005,-0.89,-0.161,12.5477802,80.90166959999998,34.4347758,75.2007375,-6.0733548000000015,-18.59821668
4.16,416,-0.197,-0.934,-0.163,12.1467096,81.3027402,36.669312,75.22365582,-6.25097178,-17.715861359999995
4.17,417,-0.17600000000000002,-0.971,-0.179,11.745639,82.67783940000002,38.1590028,75.23511498,-6.428588760000001,-16.8163173
4.18,418,-0.163,-0.981,-0.16899999999999998,11.8029348,84.8550798,39.19032720000001,75.23511498,-6.611935319999999,-15.89385492
4.1899999999999995,419,-0.166,-0.981,-0.171,12.032117999999999,87.54798240000002,39.820581,75.23511498,-6.79528188,-14.94847422
4.2,420,-0.17800000000000002,-0.979,-0.17600000000000002,12.5477802,90.06899759999996,40.164355799999996,75.23511498,-6.97862844,-13.96871604
4.21,421,-0.191,-0.972,-0.16399999999999998,12.605076,92.1889422,40.2216516,75.23511498,-7.161975,-12.97176912
4.22,422,-0.202,-0.983,-0.165,12.3758928,93.3348582,39.9924684,75.22365582,-7.333862399999999,-11.96336304
4.2299999999999995,423,-0.219,-1.001,-0.151,11.917526400000002,95.0537322,39.3622146,75.2007375,-7.500020219999999,-10.9434978
4.24,424,-0.229,-1.012,-0.142,11.4018642,96.25694399999999,38.8465524,75.16636002,-7.65471888,-9.906443820000002
4.25,425,-0.245,-1.014,-0.127,11.172681,97.9185222,38.4454818,75.12625296,-7.79795838,-8.857930679999997
4.26,426,-0.251,-1.014,-0.122,10.6570188,99.694692,38.10170700000001,75.08614589999998,-7.94692746,-7.792228800000001
4.27,427,-0.25,-1.012,-0.114,10.886202,102.0438198,37.4714532,75.03457968000002,-8.07297822,-6.7036086
4.28,428,-0.25,-1.018,-0.105,10.886202,105.137793,36.32553720000001,74.97155430000002,-8.17611066,-5.59207008
4.29,429,-0.252,-1.026,-0.099,10.4278356,108.5182452,35.0650296,74.90279934,-8.262054359999999,-4.44615408
4.3,430,-0.252,-1.02,-0.098,9.9121734,112.3570638,33.5753388,74.81685564,-8.325079740000001,-3.2658606
4.31,431,-0.247,-1.013,-0.094,10.9434978,116.6542488,32.085648000000006,74.74810068,-8.3651868,-2.05118964
4.32,432,-0.239,-1.007,-0.091,11.8029348,119.461743,31.054323600000004,74.67361614000002,-8.382375540000002,-0.8078707799999998
4.33,433,-0.232,-0.996,-0.086,13.2926256,122.5557162,30.080295,74.60486118,-8.382375540000002,0.4583664000000001
4.34,434,-0.224,-0.99,-0.09,15.4125702,126.22264740000001,28.81978740000001,74.55902454,-8.35945722,1.75898106
4.35,435,-0.224,-0.997,-0.08800000000000001,17.475219,129.8322828,27.3873924,74.52464705999998,-8.31362058,3.0939732
4.36,436,-0.225,-1.018,-0.104,17.761698000000006,133.3273266,26.41336380000001,74.50172874,-8.250595200000001,4.45761324
4.37,437,-0.218,-1.047,-0.124,17.3606274,135.218088,26.41336380000001,74.46162168000002,-8.18184024,5.83844202
4.38,438,-0.218,-1.099,-0.174,14.667724800000002,133.9575804,27.903054600000004,74.3985963,-8.12454444,7.213541219999999
4.39,439,-0.162,-1.145,-0.257,9.797581800000001,129.20202899999998,29.392745399999995,74.29546386000001,-8.09589654,8.54853336
4.3999999999999995,440,-0.064,-1.217,-0.307,7.6203414,122.6703078,29.392745399999995,74.17514268,-8.0787078,9.81477054
4.41,441,0.07,-1.297,-0.338,8.193299399999999,114.70619159999998,30.080295,74.07773982,-8.07297822,11.00652318
4.42,442,0.192,-1.311,-0.31,13.0634424,108.7474284,31.627281600000003,74.03763276000002,-8.107355700000001,12.1467096
4.43,443,0.238,-1.264,-0.26,17.589810600000003,104.9086098,32.6013102,74.04336234,-8.158921920000001,13.25251854
4.4399999999999995,444,0.201,-1.198,-0.256,18.3919518,102.7313694,31.22621100000001,74.06628065999998,-8.204758559999998,14.32967958
4.45,445,0.09,-1.153,-0.29,18.5638392,100.6687206,27.903054600000004,74.08919897999998,-8.2219473,15.3839223
4.46,446,-0.042,-1.143,-0.31,18.3919518,98.8925508,23.5485738,74.11784688,-8.19902898,16.409517119999997
4.47,447,-0.115,-1.168,-0.317,19.1367972,97.3455642,19.767051,74.15795394,-8.14746276,17.40646404
4.4799999999999995,448,-0.166,-1.153,-0.3,18.2773602,97.2309726,17.246035799999998,74.19233141999999,-8.07297822,18.3919518
4.49,449,-0.19,-1.119,-0.29100000000000004,15.469866,98.4341844,15.0114996,74.198061,-7.975575359999999,19.38889872
4.5,450,-0.166,-1.086,-0.312,12.7196676,99.2936214,14.32395,74.17514268,-7.87244292,20.39157522
4.51,451,-0.134,-1.04,-0.306,12.9488508,100.3249458,14.152062599999999,74.15222436,-7.75785132,21.3999813
4.52,452,-0.11,-0.988,-0.28,12.834259199999998,102.7886652,14.9542038,74.12930604,-7.6489892999999975,22.43703528
4.53,453,-0.096,-0.941,-0.282,12.318597,106.570188,16.1001198,74.10065814,-7.545856859999999,23.50846674
4.54,454,-0.128,-0.906,-0.278,11.8602306,111.3257394,17.761698000000006,74.06055108000002,-7.4427244199999985,24.637194
4.55,455,-0.151,-0.903,-0.266,12.2040054,117.34179840000002,19.0795014,74.01471444,-7.333862399999999,25.82321706
4.56,456,-0.151,-0.894,-0.26,13.6936962,121.86816659999998,19.8816426,73.98033696,-7.225000379999999,27.05507676
4.57,457,-0.153,-0.893,-0.247,14.2093584,126.22264740000001,20.8556712,73.95168906,-7.11040878,28.332773100000004
4.58,458,-0.154,-0.873,-0.228,14.495837400000001,130.17605759999998,22.2880662,73.91731158,-7.001546759999999,29.6505765
4.59,459,-0.142,-0.862,-0.208,16.558486199999994,133.3273266,23.8923486,73.90585242,-6.898414319999999,31.00275738
4.6,460,-0.12,-0.855,-0.173,18.449247600000003,135.33267959999998,24.8090814,73.911582,-6.79528188,32.37785658
4.61,461,-0.077,-0.843,-0.142,19.1367972,136.82237039999998,25.210152,73.92877074,-6.69787902,33.76441494
4.62,462,-0.038,-0.843,-0.125,18.9649098,137.96828639999998,25.6112226,73.94595948,-6.5947465800000025,35.16816204
4.63,463,-0.008,-0.855,-0.132,17.5325148,140.0309352,26.69984280000001,73.94022989999998,-6.5030733,36.58909788
4.64,464,0.0,-0.872,-0.13,17.5325148,141.6352176,28.361421000000004,73.93450032,-6.4228591800000014,38.03295204
4.6499999999999995,465,0.001,-0.8909999999999999,-0.107,17.3606274,143.7551622,30.5959572,73.92877074,-6.3598338000000005,39.5054541
4.66,466,-0.003,-0.897,-0.109,16.386598799999998,145.7605152,32.7731976,73.92304116,-6.3025379999999975,41.00087448
4.67,467,-0.02,-0.8909999999999999,-0.123,16.386598799999998,145.93240260000005,34.7785506,73.90585242,-6.2738901,42.50202444
4.68,468,-0.029,-0.882,-0.114,17.7044022,144.671895,37.0703826,73.90585242,-6.26816052,43.99744482000001
4.6899999999999995,469,-0.036000000000000004,-0.872,-0.097,18.162768600000003,142.43735880000003,38.961144,73.90585242,-6.285349259999999,45.47567646
4.7,470,-0.043,-0.858,-0.112,17.3606274,139.6298646,40.04976420000001,73.90585242,-6.31972674,46.93671936
4.71,471,-0.022,-0.856,-0.111,18.048177,135.6191586,41.023792799999995,73.92304116,-6.3655633799999976,48.35192562
4.72,472,0.003,-0.857,-0.098,19.7097552,132.5251854,41.0810886,73.95168906,-6.428588760000001,49.74421356000001
4.7299999999999995,473,0.021,-0.86,-0.094,20.7410796,130.17605759999998,39.9351726,73.99179612,-6.49161414,51.10785360000001
4.74,474,0.033,-0.877,-0.094,21.485925,128.8009584,39.3622146,74.03763276000002,-6.54890994,52.46003448
4.75,475,0.044,-0.889,-0.104,22.459953600000002,128.22800039999998,39.3049188,74.09492856,-6.60620574,53.80648578
4.76,476,0.048,-0.8909999999999999,-0.114,23.835052800000003,128.45718359999998,39.534102,74.17514268,-6.65777196,55.15293708
4.77,477,0.047,-0.8909999999999999,-0.121,24.7517856,129.6030996,39.4195104,74.24962722000002,-6.7150677599999975,56.51084754
4.78,478,0.037000000000000005,-0.892,-0.135,25.2674478,131.2646778,39.0184398,74.32984134,-6.77236356,57.88594674
4.79,479,0.03,-0.8859999999999999,-0.14,25.9549974,134.0148762,38.3308902,74.41005546,-6.812470620000001,59.28396425999999
4.8,480,0.022,-0.877,-0.142,26.356068,136.93696200000002,37.8725238,74.49026957999997,-6.8468481,60.71062968
4.81,481,0.006999999999999999,-0.865,-0.157,25.8977016,140.08823099999998,37.757932200000006,74.56475412,-6.86976642,62.16594299999999
4.82,482,0.003,-0.8590000000000001,-0.162,27.501984000000004,143.1822042,38.61736920000001,74.65069782,-6.898414319999999,63.6556338
4.83,483,-0.006,-0.865,-0.154,29.5646328,145.64592359999997,39.4195104,74.74810068,-6.9270622200000025,65.16824292
4.84,484,-0.016,-0.882,-0.147,30.3094782,147.07831860000005,40.164355799999996,74.85123311999997,-6.96716928,66.69804078
4.85,485,-0.014,-0.907,-0.142,31.2835068,149.0836716,41.0810886,74.96009513999998,-7.018735500000001,68.25075696
4.86,486,-0.006999999999999999,-0.919,-0.14,32.6013102,151.9484616,41.4821592,75.08041632,-7.05884256,69.83212104
4.87,487,-0.005,-0.935,-0.142,33.5753388,156.3602382,41.539455,75.2007375,-7.098949620000001,71.45932176
4.88,488,-0.009000000000000001,-0.936,-0.155,33.804522,159.9698736,41.7113424,75.32105868,-7.1333271000000025,73.12089996
4.89,489,-0.025,-0.937,-0.162,33.9764094,162.54818459999996,41.596750799999995,75.43565028,-7.167704579999999,74.80539647999998
4.8999999999999995,490,-0.031,-0.935,-0.16899999999999998,34.2055926,164.09517119999995,41.252976,75.55024188,-7.20208206,76.50135216
4.91,491,-0.034,-0.939,-0.16399999999999998,34.0337052,164.43894600000004,40.7946096,75.6591039,-7.225000379999999,78.20303742
4.92,492,-0.019,-0.934,-0.16399999999999998,33.9764094,164.725425,40.393539,75.76796592000002,-7.25364828,79.90472267999998
4.93,493,0.0,-0.941,-0.16,35.0077338,164.78272080000005,39.591397799999996,75.88828709999999,-7.2765666,81.60640794
4.9399999999999995,494,0.01,-0.959,-0.165,35.7525792,165.1264956,38.3308902,76.01433786,-7.288025760000001,83.3080932
4.95,495,0.0,-0.969,-0.174,36.7839036,165.4702704,36.32553720000001,76.15184778,-7.282296179999999,85.00977845999998
4.96,496,-0.006999999999999999,-0.993,-0.18600000000000005,37.52874900000001,165.81404519999995,33.74722620000001,76.29508728,-7.25364828,86.71146372000004
4.97,497,-0.012,-1.016,-0.191,38.27359439999999,166.9599612,31.111619399999995,76.44978594,-7.20781164,88.41314897999996
4.9799999999999995,498,-0.012,-1.033,-0.192,38.90384820000001,167.590215,29.0489706,76.61021418,-7.144786260000001,90.12056382
4.99,499,-0.011,-1.039,-0.183,39.19032720000001,167.9339898,27.444688199999998,76.77637200000002,-7.06457214,91.82224908
5.0,500,-0.009000000000000001,-1.047,-0.181,39.247623,168.3923562,26.5279554,76.94252982,-6.98435802,93.52966392
5.01,501,-0.046,-1.05,-0.225,38.7892566,170.97066719999995,26.5279554,77.10295806,-6.9041438999999984,95.25999708
5.02,502,-0.096,-1.052,-0.202,39.19032720000001,174.35111940000004,26.069589,77.26911588,-6.8182002000000015,97.02470772
5.03,503,-0.155,-1.064,-0.14800000000000002,39.877876799999996,179.5077414,22.6891368,77.43527370000002,-6.69214944,98.82952542
5.04,504,-0.18600000000000005,-1.067,-0.092,40.33624320000001,181.5130944,18.162768600000003,77.61289067999998,-6.525991620000001,100.64580228
5.05,505,-0.183,-1.079,-0.033,40.90920120000001,179.622333,14.5531332,77.80196682,-6.3311859,102.43916082
5.06,506,-0.13,-1.068,0.023,40.2216516,173.5489782,13.750992000000002,78.01396128,-6.147839339999999,104.1637644
5.07,507,-0.042,-1.02,0.043,37.3568616,165.298383,16.329303,78.19730784,-6.01032942,105.81961302
5.08,508,0.048,-0.97,0.043,34.7212548,155.9591676,21.199446,78.36346566,-5.94157446,107.38951794
5.09,509,0.124,-0.938,0.043,32.830493399999995,145.4740362,25.4393352,78.52389389999998,-5.93584488,108.86774958
5.1,510,0.17800000000000002,-0.922,0.029,31.8564648,135.8483418,26.8717302,78.69005172,-5.97022236,110.25430794
5.11,511,0.195,-0.94,0.003,32.31483119999999,126.7383096,24.8663772,78.87912786,-5.97595194,111.54919302
5.12,512,0.179,-0.973,-0.015,32.7731976,119.8628136,20.8556712,79.06820400000002,-5.98168152,112.76386398
5.13,513,0.141,-1.004,-0.034,30.93973200000001,113.6748672,15.985528200000001,79.24582097999998,-5.953033619999999,113.91550956
5.14,514,0.095,-1.033,-0.047,27.9603504,108.1171746,11.8029348,79.40624921999998,-5.895737819999999,114.99840018
5.1499999999999995,515,0.048,-1.0490000000000002,-0.061,25.0382646,103.4762148,8.078707799999998,79.53802956,-5.815523699999999,116.02972458000002
5.16,516,0.01,-1.0490000000000002,-0.071,23.6631654,99.8665794,5.042030400000002,79.67553948,-5.7009320999999975,117.02094192
5.17,517,-0.035,-1.053,-0.073,22.9756158,96.829902,2.86479,79.80159024000002,-5.58061092,117.98351136
5.18,518,-0.08,-1.057,-0.07200000000000001,21.829699800000004,94.1942952,2.2345362,79.92191142,-5.466019319999999,118.91170332000002
5.1899999999999995,519,-0.129,-1.062,-0.071,20.9702628,90.8711388,3.3231564,80.04223259999998,-5.3628868800000005,119.81124738
5.2,520,-0.159,-1.06,-0.063,20.6837838,88.5793068,5.042030400000002,80.1568242,-5.2826727600000005,120.6936027
5.21,521,-0.179,-1.052,-0.049,20.626488,86.23017899999998,6.760904399999999,80.28860454,-5.23683612,121.5530397
5.22,522,-0.183,-1.038,-0.034,20.798375399999998,83.07891,8.307891,80.41465529999998,-5.2024586400000015,122.38382879999999
5.2299999999999995,523,-0.168,-1.02,-0.019,21.1421502,79.5838662,9.6829902,80.54643564,-5.1852699,123.18597
5.24,524,-0.134,-1.007,-0.006,21.485925,76.89096359999998,10.886202,80.68394556000001,-5.1852699,123.9594633
5.25,525,-0.101,-0.999,0.002,21.829699800000004,75.1147938,11.6310474,80.82718506,-5.2024586400000015,124.72149744
5.26,526,-0.078,-1.0,0.004,22.459953600000002,74.1407652,12.032117999999999,80.99334288,-5.21964738,125.47207242
5.27,527,-0.07400000000000001,-0.994,0.01,23.376686399999997,73.5678072,11.8029348,81.15377112,-5.23683612,126.21691782
5.28,528,-0.079,-0.981,0.02,23.6631654,73.5678072,11.516455800000001,81.31419936,-5.25975444,126.96176322
5.29,529,-0.098,-0.973,0.03,23.835052800000003,73.85428619999998,10.9434978,81.48035718,-5.27694318,127.70660862
5.3,530,-0.122,-0.966,0.03,23.032911600000002,73.6823988,10.6570188,81.63505583999998,-5.28840234,128.45145402
5.31,531,-0.13699999999999998,-0.978,0.017,21.1421502,72.93755340000001,10.8289062,81.7897545,-5.31705024,129.18484026000002
5.32,532,-0.139,-0.986,0.0,19.1367972,73.10944079999999,11.45916,81.90434609999998,-5.3456981400000005,129.92395607999998
5.33,533,-0.136,-0.984,-0.016,18.1054728,74.198061,12.605076,82.01320812,-5.385805199999999,130.67453106
5.34,534,-0.139,-0.978,-0.021,17.9335854,75.00020219999998,13.8655836,82.11061098,-5.43737142,131.43656520000002
5.35,535,-0.142,-0.967,-0.011,16.673077799999998,74.9429064,15.0114996,82.19655467999998,-5.50612638,132.19859934000002
5.36,536,-0.142,-0.957,-0.012,15.183387000000002,73.2240324,15.870936600000002,82.28249838,-5.5863405,132.94344474
5.37,537,-0.135,-0.956,-0.021,15.0114996,72.0208206,16.2147114,82.35698292000002,-5.6722842,133.67683098
5.38,538,-0.12,-0.962,-0.024,15.756345000000001,70.76031300000002,15.813640800000002,82.43146746,-5.75249832,134.39875806
5.39,539,-0.103,-0.966,-0.027000000000000003,16.8449652,68.9268474,14.896907999999998,82.52314074,-5.8269828599999975,135.09776682
5.3999999999999995,540,-0.075,-0.975,-0.029,17.6471064,66.4058322,13.2926256,82.62627318,-5.89000824,135.77385726
5.41,541,-0.049,-0.991,-0.031,17.8762896,62.9107884,11.688343199999998,82.74659436,-5.930115299999999,136.41557022
5.42,542,-0.022,-1.021,-0.035,16.7303736,59.53033620000001,10.4278356,82.84399721999998,-5.97595194,137.01717612
5.43,543,0.0,-1.052,-0.041,14.495837400000001,55.3477428,9.8548776,82.92421134,-6.0160589999999985,137.57867496
5.4399999999999995,544,0.009000000000000001,-1.071,-0.043,13.178034,51.68081160000001,10.4278356,82.99869588,-6.0733548000000015,138.10579632
5.45,545,0.003,-1.077,-0.046,12.1467096,47.4982182,11.6310474,83.06172126,-6.14210976,138.58708104
5.46,546,-0.01,-1.071,-0.044,10.7143146,42.685371,12.6623718,83.13047622,-6.205135139999999,139.02825869999998
5.47,547,-0.032,-1.064,-0.042,9.6256944,36.7839036,12.834259199999998,83.18204244,-6.29680842,139.40641097999998
5.4799999999999995,548,-0.043,-1.055,-0.041,8.193299399999999,30.9970278,12.0894138,83.22787908000002,-6.3884817000000025,139.72726746
5.49,549,-0.063,-1.039,-0.046,6.130650599999999,26.1268848,10.9434978,83.25652698,-6.474425399999999,140.00228729999998
5.5,550,-0.077,-1.026,-0.054000000000000006,4.6409598,22.345362,9.453807000000001,83.27371572000001,-6.54890994,140.2314705
5.51,551,-0.098,-1.001,-0.06,2.86479,18.6784308,7.448453999999999,83.29663404,-6.60047616,140.42627622
5.52,552,-0.115,-0.983,-0.061,1.6615782,15.813640800000002,6.016058999999999,83.29090446000002,-6.6463128,140.59243404
5.53,553,-0.134,-0.974,-0.054000000000000006,0.286479,13.349921400000001,4.6982556,83.27944529999998,-6.6806902799999985,140.72994396
5.54,554,-0.147,-0.979,-0.054000000000000006,-2.0626488000000003,11.229976800000001,3.9534102,83.23933824000002,-6.7093381800000005,140.84453556
5.55,555,-0.154,-0.991,-0.045,-5.9014674000000005,10.4851314,3.2658606,83.16485370000002,-6.7322565,140.95339758
5.56,556,-0.152,-0.988,-0.064,-10.3705398,10.3705398,3.0939732,83.05599168,-6.77236356,141.05653002
5.57,557,-0.147,-0.98,-0.098,-12.605076,9.568398599999998,3.151269,82.91848175999998,-6.79528188,141.15393288
5.58,558,-0.151,-0.967,-0.117,-13.178034,8.8235532,3.2085648,82.76951268,-6.8182002000000015,141.24560616000005
5.59,559,-0.152,-0.949,-0.141,-13.178034,9.3392154,2.9220857999999996,82.62054359999998,-6.8411185199999975,141.33727944
5.6,560,-0.158,-0.929,-0.159,-12.4331886,10.3705398,2.9220857999999996,82.48303368,-6.858307260000001,141.44614146
5.61,561,-0.16,-0.924,-0.179,-10.886202,11.4018642,3.2658606,82.31114628,-6.9041438999999984,141.56646264
5.62,562,-0.153,-0.925,-0.189,-9.3965112,12.5477802,3.7815227999999994,82.20228426,-6.9270622200000025,141.6925134
5.63,563,-0.152,-0.928,-0.182,-7.5630456000000015,14.5531332,4.6982556,82.1048814,-6.9614397000000015,141.84148248
5.64,564,-0.146,-0.947,-0.17800000000000002,-5.7868758000000025,17.131444199999994,6.2452422,82.0189377,-7.001546759999999,142.02482904
5.6499999999999995,565,-0.13,-0.967,-0.172,-4.8701430000000006,20.454600600000006,7.6776372,81.94445316,-7.05884256,142.2368235
5.66,566,-0.107,-0.985,-0.168,-6.2452422,24.064235999999998,8.250595200000001,81.82986156,-7.1046792000000005,142.48892501999995
5.67,567,-0.099,-0.994,-0.196,-9.224623800000002,27.788463,7.6776372,81.69235164,-7.144786260000001,142.76967444
5.68,568,-0.123,-0.995,-0.205,-11.1153852,30.1375908,6.703608600000001,81.53765297999998,-7.17916374,143.07907176
5.6899999999999995,569,-0.14300000000000002,-1.008,-0.201,-11.745639,31.741873200000004,5.844171599999999,81.37722474,-7.20208206,143.39992823999995
5.7,570,-0.138,-1.023,-0.187,-10.6570188,31.340802600000004,5.9014674000000005,81.22252608,-7.2192707999999985,143.72078472
5.71,571,-0.115,-1.03,-0.16899999999999998,-8.136003599999999,27.903054600000004,8.307891,81.09074574,-7.259377859999999,144.00726372
5.72,572,-0.08,-1.028,-0.141,-5.844171599999999,24.064235999999998,12.261301199999998,80.99907246000002,-7.35105114,144.26509482
5.7299999999999995,573,-0.036000000000000004,-1.003,-0.094,-4.5263682,20.2254174,16.902261,80.91885834,-7.4885610599999985,144.48854844
5.74,574,-0.006,-0.974,-0.061,-3.3231564,15.527161800000002,20.798375399999998,80.86156254,-7.677637200000001,144.67762458
5.75,575,0.013,-0.951,-0.03,-1.8907613999999997,9.3965112,21.772404,80.82145548,-7.878172500000002,144.80367533999996
5.76,576,0.034,-0.955,-0.005,0.286479,3.8388186,20.168121600000006,80.90166959999998,-7.9583866200000015,144.86097114
5.77,577,0.04,-1.002,0.027000000000000003,2.1772404,-1.2605076000000002,16.1001198,80.91885834,-8.11881486,144.87243030000005
5.78,578,0.014,-1.054,0.055,2.7501984,-5.1566220000000005,10.3705398,80.95323582,-8.22767688,144.83805282
5.79,579,-0.021,-1.096,0.073,2.6356068,-6.8182002000000015,4.5263682,80.99334288,-8.2792431,144.78075701999995
5.8,580,-0.055,-1.131,0.083,2.7501984,-7.333862400000001,-0.5156622000000001,81.03344994,-8.28497268,144.70627248
5.81,581,-0.081,-1.143,0.08800000000000001,1.9480572,-5.9014674000000005,-4.9847345999999995,81.18814859999998,-8.204758559999998,144.62032878
5.82,582,-0.112,-1.127,0.078,0.9740286,-3.0939732,-8.8235532,81.20533734,-8.12454444,144.58022172
5.83,583,-0.142,-1.093,0.068,0.4010706,0.3437748,-10.4851314,81.21106692,-8.021412,144.56303298
5.84,584,-0.163,-1.053,0.056,-0.057295800000000015,3.5523396000000003,-10.6570188,81.20533734,-7.91254998,144.58595129999995
5.85,585,-0.177,-1.011,0.038,-0.8021411999999999,6.8182002000000015,-9.9121734,81.18814859999998,-7.80368796,144.63751752000005
5.86,586,-0.182,-0.973,0.019,-1.7188740000000002,9.6256944,-8.8235532,81.25690356,-7.74066258,144.70627248
5.87,587,-0.172,-0.939,0.006,-2.5210152000000003,11.3445684,-7.6776372,81.21679650000002,-7.6489892999999975,144.80940492
5.88,588,-0.14300000000000002,-0.901,-0.004,-3.2658606,12.032117999999999,-6.3598338,81.16523028,-7.574504760000001,144.91826694
5.89,589,-0.102,-0.856,-0.014,-3.7815227999999994,11.8602306,-4.8701430000000006,81.10793448000003,-7.51147938,145.02712896
5.8999999999999995,590,-0.059,-0.821,-0.021,-4.1825934,10.6570188,-2.9220857999999996,81.05063868,-7.47137232,145.12453182
5.91,591,-0.025,-0.797,-0.037000000000000005,-4.9274388,8.193299399999999,-1.2032118,81.0162612,-7.408346939999999,145.20474594
5.92,592,0.006999999999999999,-0.777,-0.05,-4.8701430000000006,5.5576926,0.11459160000000004,80.95896540000003,-7.4026173600000025,145.25631216
5.93,593,0.029,-0.764,-0.057,-3.4950437999999995,2.3491278,1.2032118,80.91885834,-7.41407652,145.28496006
5.9399999999999995,594,0.043,-0.7509999999999999,-0.059,-2.4064236,-0.9740286,2.0626488000000003,80.89594002,-7.431265259999999,145.27350090000004
5.95,595,0.052000000000000005,-0.731,-0.056,-1.3750992,-4.4117766,3.2658606,80.88448086000002,-7.47137232,145.23912342
5.96,596,0.051,-0.698,-0.049,0.286479,-8.136003599999999,4.583664,80.91312875999998,-7.4885610599999985,145.16463887999996
5.97,597,0.036000000000000004,-0.657,-0.031,2.3491278,-11.8602306,5.9014674000000005,80.95323582,-7.5630456000000015,145.05577685999995
5.9799999999999995,598,0.017,-0.615,-0.01,3.8961144,-16.1001198,6.6463128000000005,81.0162612,-7.6489892999999975,144.90680778
5.99,599,-0.003,-0.586,0.003,4.7555514,-20.1108258,6.703608600000001,81.09074574,-7.74066258,144.71773163999995
6.0,600,-0.023,-0.58,0.005,4.2398892,-22.5745452,6.130650599999999,81.16523028,-7.82660628,144.50000759999998
6.01,601,-0.039,-0.589,0.005,2.3491278,-24.0069402,5.3858052,81.23971482,-7.906820399999999,144.27082439999995
6.02,602,-0.052000000000000005,-0.619,-0.006,-0.6302538000000001,-25.0382646,4.8701430000000006,81.26836272,-7.987034519999999,144.03018204
6.03,603,-0.05,-0.657,-0.029,-4.3544808,-25.496631,5.042030400000002,81.26263314,-8.067248639999999,143.78381009999995
6.04,604,-0.038,-0.6970000000000001,-0.041,-6.2452422,-26.642547,5.958763200000001,81.23971482,-8.158921920000001,143.53170858
6.05,605,-0.033,-0.742,-0.033,-7.161975,-28.762491600000004,7.5630456000000015,81.21106692,-8.26778394,143.25668874000004
6.06,606,-0.037000000000000005,-0.7879999999999999,-0.01,-8.479778399999999,-30.366774000000003,10.026765,81.19387818,-8.38810512,142.96448016000005
6.07,607,-0.045,-0.83,0.006999999999999999,-9.453807000000001,-31.054323600000004,11.688343199999998,81.14804154,-8.542803780000002,142.67227158
6.08,608,-0.047,-0.8809999999999999,0.012,-8.193299399999999,-31.22621100000001,13.120738199999998,81.10793448000003,-8.7089616,142.38006299999995
6.09,609,-0.046,-0.941,0.014,-5.6722842,-31.3980984,14.037471,81.10220489999998,-8.89230816,142.09358400000005
6.1,610,-0.052000000000000005,-0.994,0.015,-4.0680017999999984,-32.2002396,14.4385416,81.11366405999998,-9.06992514,141.79564584
6.11,611,-0.07200000000000001,-1.019,0.03,-3.0366774,-32.4294228,13.8655836,81.18241902,-9.224623800000002,141.48051894
6.12,612,-0.091,-1.022,0.03,-1.2605076000000002,-30.5959572,11.9748222,81.22252608,-9.37932246,141.19403993999995
6.13,613,-0.123,-1.032,-0.055,-0.4010706,-26.298772200000002,8.59437,81.26263314,-9.49964364,140.947668
6.14,614,-0.17,-1.069,-0.07200000000000001,0.0,-19.4232762,2.86479,81.29701062000002,-9.55120986,140.75859186
6.15,615,-0.266,-1.105,-0.11,-2.9220857999999996,-10.7143146,-3.3231564,81.28555146,-9.52829154,140.64400026
6.16,616,-0.302,-1.095,-0.182,-3.4377480000000005,-8.307891,-7.9641161999999985,81.25117398,-9.50537322,140.55232698
6.17,617,-0.289,-1.115,-0.206,-0.8021411999999999,-9.1100322,-11.8029348,81.25690356,-9.40224078,140.44346496
6.18,618,-0.248,-1.167,-0.239,-1.7188740000000002,-6.589017,-15.9282324,81.25690356,-9.2532717,140.35752126
6.1899999999999995,619,-0.22,-1.218,-0.316,-6.990087599999999,-0.9167328,-21.1421502,81.19387818,-9.04700682,140.31168462
6.2,620,-0.249,-1.263,-0.365,-10.026765,4.8701430000000006,-28.4760126,81.09074574,-8.76052782,140.31741419999997
6.21,621,-0.256,-1.308,-0.435,-6.990087599999999,9.568398599999998,-36.2109456,80.99334288,-8.393834700000001,140.35752126
6.22,622,-0.261,-1.3769999999999998,-0.473,-1.0886202,11.0007936,-41.19568020000001,80.97042456,-7.975575359999999,140.4033579
6.2299999999999995,623,-0.292,-1.422,-0.494,0.286479,10.1413566,-44.1750618,80.97042456,-7.5286681200000025,140.43773538
6.24,624,-0.34,-1.4340000000000002,-0.429,0.286479,11.2872726,-47.7274014,80.96469498,-7.0473833999999975,140.47784244
6.25,625,-0.309,-1.416,-0.292,3.8388186,9.568398599999998,-49.2170922,80.99907246000002,-6.554639519999999,140.49503118
6.26,626,-0.162,-1.36,-0.188,4.2398892,3.724227,-45.550161,81.04490909999998,-6.09627312,140.46065370000002
6.27,627,0.019,-1.3090000000000002,-0.126,5.5576926,-2.8074942000000003,-37.52874900000001,81.11366405999998,-5.72958,140.38043958
6.28,628,0.13699999999999998,-1.328,-0.081,5.6722842,-8.3651868,-28.1895336,81.18241902,-5.46028974,140.25438881999997
6.29,629,0.165,-1.375,-0.064,4.0680017999999984,-11.45916,-20.511896399999998,81.23971482,-5.27694318,140.11114932
6.3,630,0.11,-1.384,-0.064,2.0053530000000004,-11.6310474,-14.152062599999999,81.27409229999998,-5.15089242,139.9736394
6.31,631,0.016,-1.351,-0.062,0.6875496,-11.0580894,-9.0527364,81.30846978000002,-5.05921914,139.84758864
6.32,632,-0.096,-1.298,-0.071,-0.8594370000000001,-10.5424272,-4.9274388,81.30846978000002,-5.02484166,139.73872662
6.33,633,-0.19,-1.246,-0.085,-2.4064236,-11.0580894,-2.3491278,81.29701062000002,-5.0133825000000005,139.62413501999998
6.34,634,-0.238,-1.2009999999999998,-0.097,-4.8128472,-12.2040054,-1.432395,81.26263314,-5.0133825000000005,139.50381384
6.35,635,-0.244,-1.147,-0.091,-7.448453999999999,-13.407217200000002,-2.0053530000000004,81.19960776,-5.0133825000000005,139.36630392
6.36,636,-0.234,-1.09,-0.079,-9.797581800000001,-14.4385416,-3.380452200000001,81.14231196,-5.04775998,139.21733483999998
6.37,637,-0.21,-1.028,-0.056,-11.917526400000002,-14.7823164,-4.6982556,81.03344994,-5.02484166,139.06263618
6.38,638,-0.179,-0.966,-0.03,-14.32395,-14.381245800000002,-5.72958,80.90166959999998,-4.9847346,138.90793752
6.39,639,-0.152,-0.918,-0.021,-15.469866,-12.891555,-6.130650599999999,80.7584301,-4.94462754,138.77042759999998
6.4,640,-0.134,-0.8740000000000001,-0.03,-16.2147114,-10.6570188,-5.9014674000000005,80.60373144,-4.898790900000002,138.65583600000002
6.41,641,-0.134,-0.8270000000000001,-0.039,-16.042824000000003,-8.9381448,-4.8128472,80.48341026,-4.893061319999998,138.55270356
6.42,642,-0.146,-0.775,-0.032,-13.5791046,-7.2765666,-2.7501984,80.35162992,-4.87587258,138.47821902
6.43,643,-0.156,-0.721,-0.03,-10.7143146,-5.7868758000000025,-0.4010706,80.24849748,-4.88160216,138.41519364
6.4399999999999995,644,-0.165,-0.677,-0.004,-6.703608600000001,-3.4950437999999995,1.3178034,80.17974252,-4.898790900000002,138.38654574
6.45,645,-0.173,-0.642,0.02,-3.0366774,0.1718874,1.9480572,80.15109462000002,-4.921709219999999,138.39227532
6.46,646,-0.172,-0.613,0.03,1.5469866,5.72958,1.3750992,80.18547209999998,-4.95035712,138.44384154
6.47,647,-0.159,-0.581,0.034,5.9014674000000005,12.2040054,0.057295800000000015,80.23703832,-4.93316838,138.56989230000002
6.4799999999999995,648,-0.142,-0.545,0.036000000000000004,10.4851314,16.902261,-1.6042823999999998,80.32298202,-4.893061319999998,138.73032054
6.49,649,-0.122,-0.508,0.048,15.3552744,20.626488,-3.5523396000000003,80.46049194,-4.83003594,138.93085584
6.5,650,-0.114,-0.488,0.048,18.334656,23.14750320000001,-5.2139178,80.62664975999998,-4.74409224,139.15430945999998
6.51,651,-0.117,-0.487,0.037000000000000005,18.6784308,24.2361234,-6.703608600000001,80.80999632,-4.65814854,139.38349266
6.52,652,-0.121,-0.504,0.029,17.8189938,24.064235999999998,-7.5057497999999985,80.96469498,-4.549286520000001,139.60694628
6.53,653,-0.112,-0.545,0.008,17.0168526,22.631841,-8.021412000000002,81.11939364,-4.4404245000000016,139.81894074
6.54,654,-0.085,-0.596,-0.003,16.959556799999998,20.3973048,-8.3651868,81.27409229999998,-4.3315624800000005,140.00801688
6.55,655,-0.052000000000000005,-0.6409999999999999,-0.004,17.3606274,16.902261,-8.9381448,81.43452054,-4.22270046,140.16844512
6.56,656,-0.027000000000000003,-0.6729999999999999,0.001,17.6471064,13.0634424,-9.6256944,81.62359668,-4.102379279999999,140.28303672
6.57,657,-0.01,-0.7040000000000001,0.014,18.162768600000003,8.7662574,-10.5424272,81.80121366,-3.98778768,140.35752126
6.58,658,-0.003,-0.748,0.022,18.3919518,5.0993262,-12.0894138,81.98456021999998,-3.86173692,140.39189874000002
6.59,659,-0.015,-0.8029999999999999,0.031,18.8503182,1.8334656000000005,-13.980175199999998,82.17936594,-3.71849742,140.39189874000002
6.6,660,-0.038,-0.877,0.033,20.05353,-0.4010706,-15.985528200000001,82.38563081999997,-3.5580691799999995,140.36898042
6.61,661,-0.081,-0.969,0.028,20.798375399999998,-2.1772404,-17.6471064,82.64346192,-3.39764094,140.32314377999998
6.62,662,-0.114,-1.041,0.029,21.1421502,-4.2398892,-18.048177,82.86118596,-3.22002396,140.2601184
6.63,663,-0.11,-1.083,0.037000000000000005,21.3713334,-7.1046792000000005,-16.615782,83.08463958,-3.05959572,140.1741747
6.64,664,-0.104,-1.087,0.024,20.6837838,-9.2819196,-14.381245800000002,83.30236362,-2.92781538,140.07104225999998
6.65,665,-0.109,-1.092,-0.066,17.0168526,-12.6623718,-10.6570188,83.4799806,-2.83041252,139.93353234
6.66,666,-0.097,-1.127,-0.125,12.605076,-19.2513888,-4.6409598,83.60603136,-2.80176462,139.73872662
6.67,667,-0.03,-1.185,-0.222,3.6096354,-29.1062664,2.2345362,83.66332716000002,-2.84760126,139.45797720000002
6.68,668,0.075,-1.245,-0.321,-6.703608600000001,-37.7006364,9.224623800000002,83.61749052,-2.9736520200000003,139.09128407999998
6.6899999999999995,669,0.161,-1.286,-0.383,-10.8289062,-42.685371,14.7823164,83.53154682,-3.15699858,138.68448389999998
6.7,670,0.13699999999999998,-1.311,-0.421,-10.886202,-44.919907200000004,17.0741484,83.45133270000002,-3.36326346,138.26049498
6.71,671,0.09,-1.325,-0.417,-11.1153852,-40.33624320000001,17.7044022,83.34820026,-3.56379876,137.88234269999998
6.72,672,0.053,-1.3030000000000002,-0.383,-4.010706000000001,-33.6899304,19.595163600000006,83.33101152,-3.78725238,137.57294538
6.7299999999999995,673,-0.099,-1.267,-0.321,-0.057295800000000015,-26.069589,21.1421502,83.34820026,-4.01643558,137.3380326
6.74,674,-0.217,-1.186,-0.212,1.2032118,-17.5325148,21.9442914,83.37684816,-4.25134836,137.18906352
6.75,675,-0.321,-1.077,-0.119,3.4377480000000005,-10.255948199999999,21.7151082,83.41695522,-4.4748019800000005,137.11457898
6.76,676,-0.4320000000000001,-1.027,-0.118,1.8907613999999997,-5.72958,21.1421502,83.42841438,-4.812847199999998,137.0802015
6.77,677,-0.4,-1.138,-0.21,-6.016058999999999,-9.1100322,22.5172494,83.37111858,-5.042030400000002,137.01717612
6.78,678,-0.224,-1.3219999999999998,-0.221,-8.4224826,-20.2827132,26.929026,83.3080932,-5.3285094000000015,136.84528872
6.79,679,0.019,-1.508,-0.106,1.2032118,-28.361421000000004,32.2002396,83.34820026,-5.66655462,136.59891678000002
6.8,680,0.064,-1.58,0.02,9.1100322,-23.9496444,34.8931422,83.46279186000002,-6.0332477399999975,136.40411106
6.81,681,-0.023,-1.541,0.073,8.8235532,-15.527161800000002,33.0596766,83.57738346,-6.3655633799999976,136.28378988000003
6.82,682,-0.129,-1.476,0.057,8.136003599999999,-9.453807000000001,28.7051958,83.66905674,-6.65777196,136.2207645
6.83,683,-0.194,-1.398,0.027000000000000003,6.9327918,-7.161975,23.6631654,83.74927086,-6.898414319999999,136.17492786
6.84,684,-0.211,-1.33,0.011,5.2712136,-5.6149884000000005,17.4179232,83.80656666,-7.0703017200000025,136.14055037999998
6.85,685,-0.232,-1.281,0.013,4.0680017999999984,-2.0626488000000003,9.969469199999999,83.85240329999998,-7.1734341599999984,136.12909122000002
6.86,686,-0.249,-1.273,0.018000000000000002,1.4896908000000002,3.8388186,3.724227,83.88678078000002,-7.225000379999999,136.16919828
6.87,687,-0.246,-1.256,0.019,-4.1252976000000015,11.229976800000001,-0.572958,83.82948498,-7.20781164,136.27806030000002
6.88,688,-0.21600000000000005,-1.196,0.0,-10.0840608,16.8449652,-1.8334656000000005,83.70343421999998,-7.17916374,136.44421812000002
6.89,689,-0.179,-1.103,-0.02,-14.7250206,20.454600600000006,-2.1199446,83.52581724,-7.144786260000001,136.64475342
6.9,690,-0.146,-1.0,-0.045,-17.9908812,22.7464326,-2.8074942000000003,83.31382278,-7.09322004,136.86247745999998
6.91,691,-0.114,-0.899,-0.073,-19.8243468,23.4339822,-4.297185,83.08463958,-7.030194660000001,137.09166066
6.92,692,-0.077,-0.8240000000000001,-0.084,-20.6837838,22.345362,-6.016058999999999,82.84399721999998,-6.955710119999999,137.30365511999997
6.93,693,-0.012,-0.7659999999999999,-0.086,-20.454600600000006,19.480572,-7.3911582,82.60908443999998,-6.86403684,137.48700168
6.9399999999999995,694,0.047,-0.738,-0.08,-19.8243468,15.2979786,-7.6776372,82.39136040000002,-6.77236356,137.6245116
6.95,695,0.115,-0.733,-0.08199999999999999,-19.595163600000006,10.886202,-6.875496000000001,82.17936594,-6.69787902,137.72191446
6.96,696,0.16,-0.718,-0.07400000000000001,-18.8503182,6.875496000000001,-4.9274388,81.97883064,-6.566098679999999,137.77921026
6.97,697,0.177,-0.6920000000000001,-0.07,-17.4179232,2.4637194,-2.0053530000000004,81.80121366,-6.54890994,137.80212858
6.9799999999999995,698,0.17,-0.652,-0.067,-14.266654199999998,-2.291832,0.4583664000000001,81.65797416000002,-6.554639519999999,137.77921026
6.99,699,0.151,-0.608,-0.048,-9.8548776,-8.078707799999998,1.8907613999999997,81.56630088,-6.58328742,137.69899614000002
7.0,700,0.124,-0.564,-0.036000000000000004,-4.9274388,-13.5791046,2.1199446,81.53192340000003,-6.623394479999999,137.5672158
7.01,701,0.098,-0.5379999999999999,-0.019,-0.286479,-19.480572,1.6615782,81.56630088,-6.63485364,137.37241007999998
7.02,702,0.087,-0.537,0.006999999999999999,4.1825934,-25.78311,1.2032118,81.64078542,-6.6749607000000015,137.12030855999998
7.03,703,0.081,-0.585,0.023,7.7922288,-31.79916900000001,1.8334656000000005,81.76110659999998,-6.7322565,136.81091124
7.04,704,0.067,-0.6559999999999999,0.018000000000000002,9.6256944,-33.8618178,3.724227,81.90434609999998,-6.80674104,136.4785956
7.05,705,0.03,-0.741,-0.011,11.1153852,-32.372127,7.161975,82.05904475999998,-6.90987348,136.16919828
7.06,706,-0.02,-0.7979999999999999,-0.017,12.9488508,-29.5646328,11.0580894,82.2481209,-7.03592424,135.89417844
7.07,707,-0.077,-0.8290000000000001,-0.006,13.750992000000002,-27.3300966,14.2093584,82.42000829999998,-7.20208206,135.64207692
7.08,708,-0.138,-0.845,0.003,12.4904844,-24.8663772,15.813640800000002,82.58043654000002,-7.385428619999999,135.4186233
7.09,709,-0.196,-0.8270000000000001,0.018000000000000002,10.6570188,-21.4286292,15.0687954,82.71794646,-7.551586439999999,135.22381758
7.1,710,-0.215,-0.804,0.031,10.599723,-16.959556799999998,12.2040054,82.84399721999998,-7.6890963600000015,135.06911892
7.11,711,-0.201,-0.794,0.035,11.45916,-13.521808800000002,8.3651868,83.0216142,-7.80941754,134.94306816
7.12,712,-0.16899999999999998,-0.815,0.024,11.3445684,-10.5424272,4.4690724,83.15339454,-7.860983760000001,134.8456653
7.13,713,-0.13699999999999998,-0.878,-0.059,7.6203414,-4.0680017999999984,1.9480572,83.23360865999999,-7.88390208,134.80555823999998
7.14,714,-0.122,-0.992,-0.116,3.3231564,7.0473834,-0.8594370000000001,83.25652698,-7.87244292,134.87431320000002
7.15,715,-0.208,-1.126,-0.193,-3.5523396000000003,20.8556712,-5.958763200000001,83.19350159999998,-7.792228800000001,135.07484849999997
7.16,716,-0.315,-1.187,-0.25,-8.078707799999998,29.1635622,-10.4278356,83.0502621,-7.68336678,135.35559791999998
7.17,717,-0.302,-1.22,-0.272,-8.880849000000003,26.1841806,-11.0580894,82.92421134,-7.551586439999999,135.60196986
7.18,718,-0.243,-1.233,-0.335,-10.313244,19.7097552,-10.026765,82.79243100000002,-7.43699484,135.78531642000002
7.1899999999999995,719,-0.195,-1.219,-0.387,-9.568398599999998,16.959556799999998,-13.178034,82.67210982,-7.288025760000001,135.93428550000002
7.2,720,-0.17800000000000002,-1.19,-0.391,-9.8548776,17.6471064,-20.3973048,82.55178864,-7.0703017200000025,136.08325458000002
7.21,721,-0.152,-1.149,-0.401,-6.5317212,16.902261,-29.5646328,82.42000829999998,-6.760904399999999,136.2207645
7.22,722,-0.08,-1.136,-0.35,0.6875496,12.3758928,-37.4714532,82.42000829999998,-6.382752120000001,136.29524904
7.2299999999999995,723,0.012,-1.143,-0.267,2.86479,7.8495246,-40.33624320000001,82.44292662,-5.97595194,136.31816736000002
7.24,724,0.06,-1.1740000000000002,-0.244,2.578311,6.3598338,-38.27359439999999,82.46584494,-5.59207008,136.3353561
7.25,725,0.017,-1.319,-0.298,2.578311,10.026765,-34.8358464,82.48303368,-5.23683612,136.38692232
7.26,726,-0.16399999999999998,-1.504,-0.297,6.589017,24.0069402,-36.38283300000001,82.52887032,-4.858683839999999,136.58172804
7.27,727,-0.413,-1.633,-0.211,15.9282324,36.955791,-42.2270046,82.66065066,-4.40604702,136.89685494
7.28,728,-0.518,-1.6230000000000002,-0.084,16.2147114,34.0337052,-43.4302164,82.79816058,-3.94195104,137.17760436
7.29,729,-0.398,-1.4980000000000002,-0.057,6.130650599999999,26.069589,-35.9817624,82.84399721999998,-3.5580691799999995,137.39532839999998
7.3,730,-0.198,-1.376,-0.067,1.8334656000000005,18.5065434,-21.772404,82.84972680000001,-3.32888598,137.55002706
7.31,731,-0.037000000000000005,-1.327,-0.071,2.1199446,11.4018642,-6.3025379999999975,82.87264512,-3.2372127,137.6531595
7.32,732,0.054000000000000006,-1.31,-0.086,-1.2605076000000002,5.2139178,5.443101,82.85545637999998,-3.28877892,137.71045529999998
7.33,733,0.075,-1.26,-0.097,-5.443101,-0.1718874,12.834259199999998,82.80389016000002,-3.4148296799999995,137.72764404
7.34,734,0.052000000000000005,-1.205,-0.105,-8.4224826,-4.7555514,16.2147114,82.71794646,-3.5809875,137.69899614000002
7.35,735,0.023,-1.149,-0.091,-10.1986524,-8.021412000000002,15.813640800000002,82.62054359999998,-3.74714532,137.63597076
7.36,736,-0.01,-1.092,-0.073,-11.5737516,-9.6256944,13.2353298,82.52887032,-3.8674665,137.55575664
7.37,737,-0.051,-1.024,-0.068,-13.407217200000002,-10.3705398,10.026765,82.39708998,-3.97632852,137.46408336
7.38,738,-0.085,-0.947,-0.063,-14.2093584,-10.6570188,6.875496000000001,82.25958005999998,-4.05654264,137.3666805
7.39,739,-0.114,-0.884,-0.07,-14.152062599999999,-10.5424272,4.1825934,82.12779972,-4.11383844,137.26927763999998
7.4,740,-0.135,-0.843,-0.077,-14.7823164,-9.8548776,2.0626488000000003,81.98456021999998,-4.14248634,137.17187478
7.41,741,-0.163,-0.79,-0.059,-13.8082878,-7.5630456000000015,-0.057295800000000015,81.86423904,-4.19978214,137.09166066
7.42,742,-0.2,-0.74,-0.052000000000000005,-12.318597,-4.2398892,-2.1199446,81.74391786,-4.1883229800000015,137.04582402
7.43,743,-0.238,-0.696,-0.045,-10.9434978,0.057295800000000015,-3.4950437999999995,81.63505583999998,-4.1539455,137.04009444
7.4399999999999995,744,-0.262,-0.655,-0.036000000000000004,-9.797581800000001,5.443101,-4.2398892,81.52619381999997,-4.102379279999999,137.08593108
7.45,745,-0.273,-0.626,-0.02,-7.1046792000000005,12.032117999999999,-4.4117766,81.4459797,-4.04508348,137.20052268
7.46,746,-0.272,-0.599,-0.011,-3.4950437999999995,19.3659804,-4.1825934,81.41160221999998,-4.03362432,137.38386924000002
7.47,747,-0.259,-0.565,0.006,1.3750992,26.929026,-3.5523396000000003,81.40014306,-3.9648693599999993,137.64170034
7.4799999999999995,748,-0.241,-0.532,0.027000000000000003,7.3911582,34.0337052,-3.3231564,81.45170928,-3.89038482,137.97401598
7.49,749,-0.214,-0.513,0.04,12.891555,40.393539,-3.6669312000000014,81.54911214,-3.80444112,138.36935699999998
7.5,750,-0.191,-0.521,0.031,15.813640800000002,45.263682,-4.4117766,81.6751629,-3.70703826,138.81053466
7.51,751,-0.16399999999999998,-0.545,0.029,17.0741484,47.2117392,-5.1566220000000005,81.82986156,-3.62109456,139.26890106
7.52,752,-0.149,-0.575,0.031,18.2773602,46.00852740000001,-5.3858052,81.97883064,-3.5122325400000003,139.71580830000002
7.53,753,-0.098,-0.606,0.029,19.3659804,41.825934,-4.8701430000000006,82.14498846000002,-3.4148296799999995,140.12260848
7.54,754,-0.036000000000000004,-0.632,0.027000000000000003,19.3659804,36.096354,-4.2398892,82.31687586000002,-3.33461556,140.47211285999998
7.55,755,0.039,-0.6659999999999999,0.0,18.2200644,30.7105488,-3.4377480000000005,82.48303368,-3.2658606,140.77578060000005
7.56,756,0.095,-0.701,-0.022,17.6471064,26.2414764,-2.7501984,82.6491915,-3.1741873200000006,141.02788212000004
7.57,757,0.112,-0.742,-0.041,17.6471064,23.032911600000002,-1.4896908000000002,82.81534932000002,-3.13408026,141.25706531999995
7.58,758,0.078,-0.77,-0.036000000000000004,19.767051,19.595163600000006,-0.8594370000000001,83.00442546000002,-3.1054323600000004,141.45187104
7.59,759,0.012,-0.8,-0.015,23.376686399999997,16.7876694,-1.7761698,83.22787908000002,-3.07105488,141.61802885999995
7.6,760,-0.065,-0.8240000000000001,0.0,25.55392680000001,13.407217200000002,-4.0680017999999984,83.4799806,-3.01948866,141.7498092
7.61,761,-0.124,-0.8370000000000001,0.023,24.8090814,8.7089616,-7.333862400000001,83.76073002,-2.96792244,141.82429374
7.62,762,-0.14300000000000002,-0.872,-0.076,20.7410796,3.8388186,-8.9954406,83.9669949,-2.87051958,141.85867122
7.63,763,-0.135,-0.942,-0.214,13.120738199999998,-5.042030400000002,-5.958763200000001,84.10450482,-2.81322378,141.80137542
7.64,764,-0.035,-1.045,-0.295,5.7868758000000025,-19.0222056,2.9220857999999996,84.17898936,-2.85906042,141.61802885999995
7.65,765,0.246,-1.159,-0.336,-3.4950437999999995,-31.627281600000003,15.9282324,84.16180062,-3.0366774000000003,141.32009069999995
7.66,766,0.364,-1.216,-0.307,-3.724227,-32.4294228,28.8770832,84.12169356000003,-3.3116972399999995,141.02788212000004
7.67,767,0.321,-1.317,-0.35600000000000004,-3.6669312000000014,-26.69984280000001,40.10706,84.10450482,-3.724227,140.8044285
7.68,768,0.179,-1.339,-0.412,-3.2085648,-23.0902074,47.7846972,84.08731608000002,-4.21697088,140.62108194
7.6899999999999995,769,0.056,-1.286,-0.386,4.4117766,-23.4339822,49.6754586,84.15034145999998,-4.7269035000000015,140.44346496
7.7,770,-0.033,-1.216,-0.274,8.4224826,-23.835052800000003,45.72204840000001,84.25347389999997,-5.19099948,140.24865924
7.71,771,-0.159,-1.124,-0.207,7.2192707999999985,-21.9442914,37.757932200000006,84.32795844,-5.59779966,140.07104225999998
7.72,772,-0.287,-1.146,-0.252,6.3598338,-24.0069402,29.5646328,84.41963172,-5.90719698,139.86477738000002
7.7299999999999995,773,-0.264,-1.349,-0.29600000000000004,6.417129599999999,-30.252182399999995,23.0902074,84.51703458,-6.1592985,139.58402796
7.74,774,-0.104,-1.5930000000000002,-0.205,16.329303,-36.2682414,20.5691922,84.72902904,-6.382752120000001,139.24598274
7.75,775,0.012,-1.776,0.03,27.3873924,-31.3980984,22.2307704,85.04415594,-6.617664899999999,138.95377416
7.76,776,-0.106,-1.742,0.119,22.9756158,-15.985528200000001,24.350715,85.30198704,-6.86976642,138.81626424
7.77,777,-0.318,-1.6130000000000002,0.122,20.5691922,-0.6875496,21.5432208,85.50825191999998,-7.08176088,138.82772340000002
7.78,778,-0.444,-1.5119999999999998,0.112,17.131444199999994,10.9434978,15.0114996,85.66868016,-7.2192707999999985,138.95377416
7.79,779,-0.45,-1.442,0.036000000000000004,10.4851314,18.5638392,8.250595200000001,85.74889427999999,-7.29375534,139.14285030000002
7.8,780,-0.381,-1.382,-0.003,8.021412000000002,23.491278,2.6929026,85.79473092,-7.31094408,139.38349266
7.81,781,-0.287,-1.36,0.006,9.167328,29.335449600000004,0.0,85.85775629999998,-7.29948492,139.67570124
7.82,782,-0.224,-1.366,0.023,9.224623800000002,37.0703826,1.7188740000000002,85.89786336,-7.305214500000001,140.04239436
7.83,783,-0.18,-1.338,0.026,4.6982556,44.6334282,5.844171599999999,85.88067462000002,-7.33959198,140.49503118
7.84,784,-0.142,-1.263,0.009000000000000001,-1.2032118,49.61816279999999,9.3965112,85.8004605,-7.41407652,140.99350464
7.85,785,-0.106,-1.157,-0.006999999999999999,-6.016058999999999,52.597544400000004,11.5737516,85.66295058,-7.505749800000001,141.52635558
7.86,786,-0.07400000000000001,-1.06,-0.025,-9.0527364,53.571573,11.8029348,85.49679276,-7.58023434,142.0649361
7.87,787,-0.041,-0.984,-0.053,-11.688343199999998,53.39968560000001,10.599723,85.29625746,-7.66044846,142.60351662
7.88,788,-0.006999999999999999,-0.917,-0.075,-13.980175199999998,51.9099948,8.880849000000003,85.07853342,-7.717744259999999,143.13063798000005
7.89,789,0.042,-0.848,-0.08900000000000001,-15.126091199999998,48.8733174,6.875496000000001,84.8550798,-7.75785132,143.61765228
7.9,790,0.084,-0.799,-0.08900000000000001,-14.7250206,43.4302164,5.5003968,84.63735576,-7.78649922,144.05882994
7.91,791,0.109,-0.743,-0.065,-13.349921400000001,36.669312,5.2139178,84.44827962000002,-7.76931048,144.42552306
7.92,792,0.119,-0.7040000000000001,-0.036000000000000004,-11.3445684,30.8251404,5.6722842,84.2821218,-7.80941754,144.73492038
7.93,793,0.112,-0.6779999999999999,-0.011,-9.740286,26.4706596,6.2452422,84.14461188,-7.8495246,145.00421064
7.94,794,0.086,-0.653,-0.013,-8.5370742,25.2674478,7.161975,84.01856111999999,-7.90109082,145.26204174000003
7.95,795,0.048,-0.611,-0.006,-6.130650599999999,24.8663772,8.5370742,83.92115826,-7.96984578,145.51987284
7.96,796,0.001,-0.5670000000000001,-0.006,-3.0366774,24.0069402,10.026765,83.85813288,-8.03860074,145.76624478
7.97,797,-0.043,-0.514,-0.008,-0.9740286,21.7151082,11.6310474,83.81229624,-8.136003599999999,145.99542798
7.9799999999999995,798,-0.052000000000000005,-0.4970000000000001,-0.004,0.9740286,19.2513888,13.178034,83.78937792,-8.250595200000001,146.20169286
7.99,799,-0.035,-0.523,-0.009000000000000001,2.291832,17.4179232,14.667724800000002,83.78364833999998,-8.382375540000002,146.390769
8.0,800,-0.003,-0.588,-0.022,3.2658606,16.272007199999994,16.558486199999994,83.78937792,-8.5370742,146.56838598
8.01,801,0.022,-0.675,-0.023,5.2712136,17.0168526,19.4232762,83.81802582,-8.6803137,146.75746212
8.02,802,0.028,-0.7559999999999999,-0.009000000000000001,8.7089616,20.168121600000006,23.2620948,83.86959204,-8.89230816,146.98664532
8.03,803,0.003,-0.802,0.006999999999999999,11.9748222,25.55392680000001,27.444688199999998,83.94407658,-9.14440968,147.27312432000005
8.04,804,-0.059,-0.807,0.026,13.750992000000002,31.971056400000002,30.9970278,84.0242907,-9.4251591,147.62262869999995
8.05,805,-0.145,-0.778,0.041,14.5531332,37.81522800000001,33.002380800000005,84.09877524000002,-9.72309726,148.04088804
8.06,806,-0.215,-0.733,0.058,15.5844576,45.206386200000004,32.658606,84.19044852,-10.026765,148.52217276000005
8.07,807,-0.266,-0.691,0.073,17.303331600000003,51.9099948,29.507337,84.25920348,-10.27886652,149.07221244
8.08,808,-0.301,-0.688,0.066,18.6784308,58.9573782,24.2361234,84.33368802,-10.47940182,149.69100708000005
8.09,809,-0.324,-0.73,0.046,18.449247600000003,66.6350154,18.449247600000003,84.38525424,-10.61118216,150.37855668
8.1,810,-0.32299999999999995,-0.807,0.01,18.1054728,74.1407652,14.037471,84.41963172,-10.69712586,151.14059082
8.11,811,-0.295,-0.897,-0.024,18.621135,80.78707800000002,12.3758928,84.44827962000002,-10.77733998,151.95992076
8.12,812,-0.275,-0.985,-0.086,17.8189938,90.3554766,12.2040054,84.44255003999999,-10.83463578,152.88238314
8.13,813,-0.33,-1.055,-0.134,15.9282324,102.845961,12.261301199999998,84.39098382,-10.88047242,153.93089628
8.14,814,-0.399,-1.08,-0.15,11.3445684,116.99802359999998,11.6310474,84.27066264,-10.914849900000002,155.11691934
8.15,815,-0.477,-1.058,-0.183,7.906820400000001,123.1286742,9.0527364,84.09877524000002,-10.914849900000002,156.36596778
8.16,816,-0.472,-1.042,-0.191,8.9381448,123.3005616,3.7815227999999994,83.92688783999998,-10.88047242,157.60928664
8.17,817,-0.383,-1.085,-0.208,11.688343199999998,122.6703078,-4.9274388,83.80083708,-10.73150334,158.83541676
8.18,818,-0.293,-1.159,-0.232,18.162768600000003,122.09734979999999,-15.813640800000002,83.74354128,-10.47940182,160.04435814
8.19,819,-0.231,-1.253,-0.231,26.9863218,120.95143380000002,-27.8457588,83.78937792,-10.10124954,161.23038119999995
8.2,820,-0.159,-1.315,-0.21600000000000005,33.9191136,116.76884040000002,-38.90384820000001,83.92688783999998,-9.6256944,162.35910846
8.209999999999999,821,-0.043,-1.344,-0.212,35.0077338,112.1851764,-45.550161,84.0815865,-9.07565472,163.43626949999995
8.22,822,0.046,-1.376,-0.207,30.7105488,108.002583,-45.9512316,84.22482600000002,-8.5370742,164.47332348
8.23,823,0.028,-1.482,-0.23,29.9657034,110.867373,-43.0864416,84.35660634000001,-8.03287116,165.53902536
8.24,824,-0.114,-1.6130000000000002,-0.262,32.31483119999999,120.3784758,-41.3675676,84.51130500000002,-7.54012728,166.7021301
8.25,825,-0.284,-1.696,-0.207,35.0077338,126.1080558,-41.023792799999995,84.69465156,-7.0473833999999975,167.92253064
8.26,826,-0.382,-1.719,-0.111,30.7678446,124.5610692,-38.10170700000001,84.84362064,-6.589017,169.13147202
8.27,827,-0.378,-1.64,-0.07,21.4286292,120.8368422,-29.392745399999995,84.91810518,-6.22232388,170.30603592
8.28,828,-0.314,-1.527,-0.051,18.048177,119.17526399999998,-17.761698000000006,84.95821224,-5.97595194,171.47487024
8.29,829,-0.21600000000000005,-1.446,-0.058,16.615782,118.315827,-7.448453999999999,84.99258972,-5.83271244,172.64370456
8.3,830,-0.158,-1.41,-0.066,10.886202,119.00337659999998,1.9480572,84.96967140000002,-5.781146219999999,173.82972762
8.31,831,-0.14400000000000002,-1.36,-0.063,5.1566220000000005,122.2119414,7.2765666,84.8837277,-5.77541664,175.05012816
8.32,832,-0.149,-1.31,-0.051,1.4896908000000002,127.36856340000001,10.0840608,84.75194736,-5.79833496,176.32209491999996
8.33,833,-0.173,-1.265,-0.035,-2.0626488000000003,133.90028460000002,11.5737516,84.58005996,-5.8269828599999975,177.65708706
8.34,834,-0.215,-1.21,-0.025,-6.875496000000001,140.2601184,12.4904844,84.34514718,-5.85563076,179.06083415999996
8.35,835,-0.255,-1.15,-0.03,-11.745639,146.3334732,13.407217200000002,84.05866818,-5.88427866,-179.47336392000003
8.36,836,-0.279,-1.084,-0.045,-14.495837400000001,152.80789860000004,14.5531332,83.73781170000002,-5.92438572,-177.94356606
8.37,837,-0.281,-1.016,-0.042,-15.870936600000002,159.51150719999995,15.6990492,83.38830732,-5.9473040400000015,-176.35074282
8.38,838,-0.274,-0.953,-0.041,-15.9282324,170.3977092,17.131444199999994,83.02734378,-5.96449278,-174.64332798
8.39,839,-0.28,-0.903,-0.043,-14.7250206,180.5390658,18.2773602,82.66638024,-5.97022236,-172.83851027999995
8.4,840,-0.29100000000000004,-0.867,-0.031,-13.464512999999998,189.7636896,19.8816426,82.3054167,-5.97595194,-170.93628972
8.41,841,-0.309,-0.851,-0.02,-13.0061466,198.7018344,22.345362,81.94445316,-5.99887026,-168.94812545999997
8.42,842,-0.328,-0.8490000000000001,-0.01,-12.261301199999998,207.5826834,25.0955604,81.57776004,-6.01032942,-166.86255834000005
8.43,843,-0.341,-0.8490000000000001,-0.005,-10.7716104,215.2603206,27.9603504,81.21106692,-6.0275181600000005,-164.70250668
8.44,844,-0.324,-0.8490000000000001,0.01,-8.9954406,222.0785208,30.7678446,80.85583296,-6.0447069,-162.4622409
8.45,845,-0.273,-0.8540000000000001,0.036000000000000004,-7.2192707999999985,227.69350919999997,33.3461556,80.50632858,-6.0733548000000015,-160.17040889999996
8.459999999999999,846,-0.208,-0.87,0.039,-6.1879464,233.5949766,35.122325399999994,80.17401294,-6.09627312,-157.81555152
8.47,847,-0.145,-0.882,0.044,-5.2712136,237.1473162,35.52339600000001,79.83596772,-6.1020027,-155.42058708
8.48,848,-0.092,-0.893,0.038,-3.4950437999999995,239.6110356,34.37748,79.51511124,-6.079084379999999,-153.00843390000003
8.49,849,-0.04,-0.901,0.018000000000000002,-0.9740286,240.5277684,32.142943800000005,79.21717308,-6.02178858,-150.58482156
8.5,850,-0.01,-0.91,-0.01,0.5156622000000001,239.6110356,29.507337,78.94215324000002,-5.92438572,-148.18412754
8.51,851,0.009000000000000001,-0.931,-0.042,0.8021411999999999,236.97542880000003,27.1009134,78.67859256,-5.79260538,-145.81208142
8.52,852,0.029,-0.964,-0.071,0.7448454000000001,233.0220186,25.6685184,78.42649104,-5.6436363,-143.48014236
8.53,853,0.039,-1.009,-0.116,0.7448454000000001,228.9540168,26.0122932,78.1801191,-5.5003968,-141.18831036
8.54,854,0.028,-1.038,-0.117,2.1199446,225.458973,27.9603504,77.95666548,-5.37434604,-138.93085584
8.55,855,-0.01,-1.044,-0.11,3.0939732,224.0838738,30.1375908,77.75040059999998,-5.25975444,-136.67913090000002
8.56,856,-0.076,-1.041,-0.101,3.4377480000000005,224.0838738,32.486718599999996,77.56132446000002,-5.16235158,-134.42740596
8.57,857,-0.151,-1.03,-0.084,4.010706000000001,225.4016772,34.8358464,77.36651874,-5.07640788,-132.1527627
8.58,858,-0.221,-1.013,-0.043,5.2139178,227.23514280000003,37.0703826,77.18890176,-5.001923339999999,-129.86093069999998
8.59,859,-0.28,-0.989,0.0,6.3598338,228.7248336,39.0184398,77.02274394,-4.93889796,-127.54618037999998
8.6,860,-0.306,-0.972,0.049,7.9641161999999985,229.87074959999998,40.5081306,76.87377486,-4.87587258,-125.2199709
8.61,861,-0.28600000000000003,-0.979,0.087,8.9954406,231.0166656,41.539455,76.75918326,-4.83003594,-122.88230226
8.62,862,-0.262,-1.001,0.08,8.880849000000003,232.33446899999998,41.023792799999995,76.62167334,-4.76128098,-120.53317445999998
8.63,863,-0.221,-1.009,0.065,7.333862400000001,231.93339840000002,39.7632852,76.47270426,-4.669607699999999,-118.18977624
8.64,864,-0.141,-1.017,0.036000000000000004,4.0680017999999984,230.9593698,37.3568616,76.29508728,-4.5550161000000005,-115.86356676
8.65,865,-0.022,-1.038,-0.023,0.6302538000000001,229.81345380000002,33.3461556,76.0888224,-4.40031744,-113.55454602
8.66,866,0.121,-1.091,-0.08800000000000001,-3.2658606,226.60488900000001,29.335449600000004,75.86536878,-4.1883229800000015,-111.29136192
8.67,867,0.257,-1.146,-0.126,-6.417129599999999,219.8439846,27.3873924,75.61326726,-3.97632852,-109.10266236
8.68,868,0.32299999999999995,-1.169,-0.136,-9.5111028,210.6193608,28.2468294,75.34970658,-3.7815227999999994,-106.9999065
8.69,869,0.312,-1.141,-0.114,-10.7143146,202.0249908,31.111619399999995,75.08041632,-3.62682414,-104.97163518
8.7,870,0.27,-1.105,-0.1,-7.9641161999999985,191.5971552,35.46610020000001,74.8569627,-3.52942128,-103.04076672
8.71,871,0.197,-1.0590000000000002,-0.099,-5.0993262,182.5444188,38.61736920000001,74.67934572,-3.45493674,-101.1843828
8.72,872,0.113,-0.998,-0.07,-0.8021411999999999,173.77816140000004,40.7946096,74.5418358,-3.4377480000000005,-99.40248342
8.73,873,0.059,-0.931,-0.038,3.0939732,167.36103179999995,41.3102718,74.44443294,-3.4377480000000005,-97.68360942
8.74,874,0.031,-0.867,-0.025,6.760904399999999,161.860635,40.680018,74.39286672,-3.4377480000000005,-96.02203122
8.75,875,0.014,-0.833,-0.022,10.7143146,157.276971,39.4195104,74.38713714000002,-3.4377480000000005,-94.40628966
8.76,876,0.02,-0.847,-0.028,14.32395,153.15167340000005,37.9298196,74.43297378,-3.42628884,-92.83638474
8.77,877,0.023,-0.921,-0.042,17.246035799999998,150.5160666,35.6379876,74.49599916000003,-3.40337052,-91.28939814
8.78,878,0.0,-1.016,-0.042,19.0795014,150.97443299999995,32.085648000000006,74.58194286,-3.3518043,-89.75387070000002
8.79,879,-0.041,-1.083,-0.028,19.308684600000007,153.6100398,29.1062664,74.66788656,-3.2658606,-88.20115452
8.8,880,-0.083,-1.112,-0.014,19.194093,156.8186046,26.814434400000003,74.75383026,-3.15699858,-86.61979044
8.81,881,-0.106,-1.097,0.003,19.6524594,159.282324,25.3820394,74.86269228,-3.03094782,-85.02123762
8.82,882,-0.107,-1.045,0.021,21.3140376,161.00119800000004,24.7517856,74.97728388,-2.8934379,-83.40549606
8.83,883,-0.083,-0.984,0.053,23.6631654,161.6314518,24.8090814,75.1147938,-2.76165756,-81.78402492
8.84,884,-0.039,-0.942,0.081,25.2674478,161.34497280000005,24.8090814,75.27522203999997,-2.6356068,-80.16255378
8.85,885,0.027000000000000003,-0.928,0.08800000000000001,25.8977016,160.5428316,24.923673,75.44710943999998,-2.50955604,-78.5525418
8.86,886,0.085,-0.935,0.083,26.1841806,158.48018280000005,25.3247436,75.64764474,-2.38923486,-76.95971856
8.87,887,0.123,-0.954,0.078,27.1009134,156.5321256,25.496631,75.83672088,-2.29756158,-75.38408405999998
8.88,888,0.154,-0.977,0.079,28.2468294,154.2402936,25.210152,76.04298576,-2.2058883,-73.83136787999999
8.89,889,0.179,-1.003,0.067,28.7051958,151.89116579999995,24.350715,76.25498022,-2.1199446,-72.30157002
8.9,890,0.201,-1.022,0.054000000000000006,28.7051958,148.5680094,23.5485738,76.47270426,-2.03973048,-70.80614964
8.91,891,0.227,-1.038,0.044,28.4760126,144.27082439999995,22.91832,76.71334662,-1.94232762,-69.35656589999999
8.92,892,0.25,-1.047,0.026,27.1009134,139.6298646,22.4026578,76.92534108,-1.87930224,-67.9528188
8.93,893,0.265,-1.044,0.01,25.2674478,134.8170174,21.8869956,77.12014680000001,-1.82773602,-66.59490833999999
8.94,894,0.255,-1.047,-0.012,22.459953600000002,127.2539718,21.485925,77.28630462,-1.78762896,-65.31148241999999
8.95,895,0.227,-1.052,-0.029,19.8816426,121.2379128,20.912967,77.43527370000002,-1.75898106,-64.0853523
8.96,896,0.199,-1.054,-0.046,17.6471064,115.68022020000001,20.168121600000006,77.58424278,-1.71314442,-62.91651798
8.97,897,0.172,-1.055,-0.054000000000000006,15.469866,110.0652318,19.194093,77.6931048,-1.6959556799999995,-61.80497946000001
8.98,898,0.157,-1.057,-0.066,12.834259199999998,105.4815678,18.1054728,77.7790485,-1.6787669399999998,-60.73927758000001
8.99,899,0.14800000000000002,-1.063,-0.084,9.6829902,102.1584114,17.4179232,77.83061472,-1.6615782,-59.71368276000001
9.0,900,0.138,-1.0659999999999998,-0.104,6.417129599999999,99.0644382,17.246035799999998,77.85353303999999,-1.64438946,-58.71100626
9.01,901,0.13,-1.056,-0.127,4.3544808,95.3402112,17.8762896,77.87072178,-1.6272007199999998,-57.74843682000001
9.02,902,0.125,-1.051,-0.118,2.6929026,90.24088499999999,19.0795014,77.85926262000002,-1.65011904,-56.83170402
9.03,903,0.127,-1.044,-0.128,1.5469866,86.51665799999998,19.8243468,77.83634430000002,-1.6844965200000002,-55.94934870000001
9.04,904,0.12,-1.041,-0.142,0.7448454000000001,82.2767688,20.2827132,77.8076964,-1.73033316,-55.10710044
9.05,905,0.114,-1.037,-0.141,-0.572958,78.781725,20.454600600000006,77.76758934,-1.78762896,-54.29922966
9.06,906,0.117,-1.023,-0.14800000000000002,-2.9220857999999996,75.5731602,20.3973048,77.71029354,-1.82200644,-53.52000678
9.07,907,0.138,-1.009,-0.155,-4.5263682,72.5364828,19.9962342,77.63007941999999,-1.88503182,-52.77516138
9.08,908,0.138,-0.992,-0.182,-5.72958,70.1300592,19.2513888,77.53840613999998,-1.94232762,-52.05323430000001
9.09,909,0.101,-0.96,-0.194,-5.042030400000002,66.9787902,18.7930224,77.45819202,-1.99962342,-51.3656847
9.1,910,0.059,-0.928,-0.196,-0.7448454000000001,62.16594300000001,18.5638392,77.41808496,-2.0626488000000003,-50.71824216
9.11,911,0.022,-0.921,-0.195,2.4637194,60.2751816,18.449247600000003,77.40662579999999,-2.11421502,-50.09371794
9.12,912,-0.031,-0.926,-0.213,5.1566220000000005,59.35844880000001,18.5638392,77.42954411999997,-2.18296998,-49.47492329999999
9.13,913,-0.076,-0.934,-0.2,7.906820400000001,58.5563076,18.334656,77.48111034,-2.25172494,-48.86758782
9.14,914,-0.106,-0.956,-0.16899999999999998,7.8495246,59.98870260000001,17.8189938,77.52694698,-2.30902074,-48.24879317999999
9.15,915,-0.116,-0.983,-0.16399999999999998,7.0473834,62.45242200000001,16.959556799999998,77.56705404,-2.36058696,-47.60135064
9.16,916,-0.114,-1.01,-0.165,5.6722842,64.62966239999999,15.813640800000002,77.58997236,-2.4064236,-46.94244894
9.17,917,-0.1,-1.019,-0.166,5.1566220000000005,66.23394479999999,15.0114996,77.60716109999998,-2.42934192,-46.2663585
9.18,918,-0.071,-1.009,-0.158,6.0733548,66.4058322,15.126091199999998,77.63007941999999,-2.45226024,-45.59026806
9.19,919,-0.034,-0.989,-0.152,6.4744254,64.97343719999999,15.9282324,77.65872732,-2.48663772,-44.9199072
9.2,920,0.003,-0.97,-0.136,6.760904399999999,61.9940556,16.959556799999998,77.6931048,-2.53247436,-44.28392382
9.21,921,0.035,-0.957,-0.125,7.0473834,58.3271244,17.4179232,77.74467102000001,-2.5783110000000002,-43.67658834
9.22,922,0.054000000000000006,-0.953,-0.122,7.448453999999999,54.6601932,17.3606274,77.78477808,-2.64706596,-43.10935992
9.23,923,0.07200000000000001,-0.955,-0.123,8.307891,51.2224452,16.959556799999998,77.84207388,-2.71582092,-42.57650898
9.24,924,0.076,-0.961,-0.122,9.568398599999998,47.841993,16.042824000000003,77.90509926,-2.78457588,-42.07230594
9.25,925,0.062,-0.971,-0.118,10.9434978,44.977203,14.667724800000002,77.99104296,-2.84760126,-41.60820996
9.26,926,0.036000000000000004,-0.983,-0.114,12.0894138,41.4821592,12.7769634,78.10563456,-2.87624916,-41.17276188
9.27,927,0.016,-0.995,-0.121,13.120738199999998,39.1330314,11.0007936,78.21449658,-2.91062664,-40.77169128
9.28,928,-0.003,-1.001,-0.132,14.152062599999999,37.3568616,9.2819196,78.32908818,-2.93354496,-40.38780942
9.29,929,-0.024,-1.0,-0.14300000000000002,15.2406828,35.9817624,7.7922288,78.46086852,-2.9507337,-40.0211163
9.3,930,-0.05,-1.006,-0.177,15.2979786,33.804522,6.760904399999999,78.59264886000003,-2.9564632800000004,-39.67161192
9.31,931,-0.045,-1.029,-0.154,15.0687954,30.93973200000001,6.8182002000000015,78.73588836,-2.96219286,-39.35648502
9.32,932,-0.021,-1.072,-0.156,14.266654199999998,27.5592798,8.9954406,78.86193912,-3.00229992,-39.07000602
9.33,933,-0.029,-1.075,-0.171,12.1467096,25.6685184,12.891555,78.97080113999998,-3.0825140400000004,-38.79498618
9.34,934,-0.042,-1.057,-0.201,8.9954406,23.14750320000001,16.8449652,79.04528567999998,-3.2085648000000004,-38.53715508000001
9.35,935,-0.051,-1.02,-0.223,7.6776372,21.6578124,18.3919518,79.10258148,-3.35753388,-38.29078314
9.36,936,-0.059,-0.975,-0.223,8.078707799999998,19.4232762,18.8503182,79.14841812,-3.50650296,-38.06159994
9.37,937,-0.06,-0.948,-0.232,7.9641161999999985,16.902261,17.8762896,79.2114435,-3.65547204,-37.86106464
9.38,938,-0.061,-0.931,-0.239,7.6203414,14.667724800000002,16.2147114,79.28019846,-3.78725238,-37.68917724000001
9.39,939,-0.076,-0.927,-0.226,7.333862400000001,12.6623718,14.152062599999999,79.34322384000002,-3.90757356,-37.53447858
9.4,940,-0.073,-0.937,-0.229,6.703608600000001,11.0580894,12.2040054,79.40051964,-4.010706,-37.40842782
9.41,941,-0.078,-0.958,-0.208,6.1879464,9.3392154,10.886202,79.42343796,-4.102379279999999,-37.29383622
9.42,942,-0.093,-0.986,-0.193,6.3025379999999975,7.0473834,9.797581800000001,79.48073375999998,-4.1883229800000015,-37.20216294
9.43,943,-0.104,-1.008,-0.179,6.1879464,6.4744254,9.3965112,79.53229998,-4.2685371,-37.12194882
9.44,944,-0.117,-1.021,-0.165,6.5317212,6.2452422,9.453807000000001,79.59532535999998,-4.3544808,-37.0417347
9.45,945,-0.126,-1.032,-0.157,6.8182002000000015,6.0733548,9.6256944,79.65835074,-4.43469492,-36.96725016
9.46,946,-0.129,-1.041,-0.14800000000000002,7.333862400000001,5.9014674000000005,9.8548776,79.73856486,-4.549286520000001,-36.89276562
9.47,947,-0.128,-1.0490000000000002,-0.136,8.3651868,5.72958,10.1986524,79.81877897999998,-4.6409598,-36.81828108000001
9.48,948,-0.127,-1.046,-0.122,9.5111028,5.7868758000000025,10.4851314,79.91045226,-4.73263308,-36.73806696
9.49,949,-0.13,-1.031,-0.109,9.969469199999999,5.6722842,10.4278356,80.00212554,-4.83003594,-36.66358242
9.5,950,-0.128,-1.01,-0.106,9.568398599999998,5.2712136,9.8548776,80.09379881999998,-4.91597964,-36.59482746
9.51,951,-0.133,-0.995,-0.108,9.224623800000002,4.583664,9.2819196,80.20839042,-5.03057124,-36.53753166
9.52,952,-0.138,-0.984,-0.115,8.7662574,3.7815227999999994,8.3651868,80.28860454,-5.11078536,-36.48596544
9.53,953,-0.146,-0.975,-0.118,8.59437,2.9793816000000004,7.448453999999999,80.37454824,-5.17954032,-36.4401288
9.54,954,-0.15,-0.969,-0.122,8.3651868,2.2345362,6.417129599999999,80.45476235999998,-5.23683612,-36.40575132
9.55,955,-0.14300000000000002,-0.962,-0.141,7.3911582,1.7761698,5.3285094000000015,80.5292469,-5.28840234,-36.38283300000001
9.56,956,-0.135,-0.968,-0.14,7.333862400000001,1.2032118,4.3544808,80.59227228,-5.37434604,-36.35991468
9.57,957,-0.125,-0.99,-0.14300000000000002,7.3911582,0.0,4.2398892,80.66675682,-5.414453099999999,-36.3541851
9.58,958,-0.122,-0.996,-0.135,7.2765666,-1.5469866,4.6982556,80.74697094,-5.466019319999999,-36.35991468
9.59,959,-0.124,-0.989,-0.124,7.161975,-2.5210152000000003,5.0993262,80.82145548,-5.51758554,-36.37710342000001
9.6,960,-0.134,-0.964,-0.121,6.875496000000001,-3.151269,4.5263682,80.89021044,-5.56342218,-36.40002174
9.61,961,-0.146,-0.931,-0.116,7.161975,-3.380452200000001,3.0366774,80.98188372,-5.66082504,-36.42866964
9.62,962,-0.159,-0.912,-0.11,8.193299399999999,-3.2658606,1.2032118,81.06782741999999,-5.67801378,-36.45731754000001
9.63,963,-0.16899999999999998,-0.911,-0.108,9.167328,-2.9793816000000004,-0.7448454000000001,81.16523028,-5.6722842,-36.48596544
9.64,964,-0.16699999999999998,-0.923,-0.109,9.969469199999999,-2.578311,-2.5210152000000003,81.26836272,-5.64936588,-36.51461334
9.65,965,-0.156,-0.949,-0.11,11.1153852,-2.6929026,-3.724227,81.3886839,-5.6149884000000005,-36.54899082
9.66,966,-0.139,-0.976,-0.112,12.261301199999998,-3.9534102,-4.3544808,81.52046424,-5.59779966,-36.59482746
9.67,967,-0.117,-1.007,-0.12,13.178034,-5.3285094000000015,-4.1825934,81.66370374,-5.56342218,-36.65212326
9.68,968,-0.095,-1.026,-0.125,13.6936962,-6.5317212,-3.6096354,81.80694324,-5.53477428,-36.72087822
9.69,969,-0.073,-1.041,-0.124,13.5791046,-8.021412000000002,-2.8074942000000003,81.95591232000002,-5.51185596,-36.80109234
9.7,970,-0.054000000000000006,-1.045,-0.124,12.7196676,-9.9121734,-2.0053530000000004,82.09342224,-5.50612638,-36.898495200000006
9.71,971,-0.04,-1.037,-0.123,11.6310474,-12.4904844,-1.5469866,82.22520258,-5.46028974,-37.02454596
9.72,972,-0.036000000000000004,-1.028,-0.124,11.172681,-14.8396122,-1.2032118,82.35125334,-5.466019319999999,-37.17351504
9.73,973,-0.045,-1.019,-0.124,10.3705398,-16.902261,-0.6302538000000001,82.4773041,-5.47747848,-37.33967286
9.74,974,-0.064,-1.015,-0.122,9.6829902,-18.8503182,0.286479,82.59762528,-5.4946672199999975,-37.52301942
9.75,975,-0.08900000000000001,-1.006,-0.121,9.568398599999998,-19.1367972,0.572958,82.71221688,-5.52331512,-37.71209556
9.76,976,-0.107,-0.994,-0.12,9.224623800000002,-18.7930224,0.2291832000000001,82.81534932000002,-5.54623344,-37.89544212
9.77,977,-0.119,-0.986,-0.123,8.307891,-18.2773602,-0.6875496,82.91848175999998,-5.5576926,-38.0730591
9.78,978,-0.129,-0.98,-0.126,7.161975,-17.7044022,-1.5469866,83.01588462000002,-5.5576926,-38.25067608
9.79,979,-0.13699999999999998,-0.976,-0.128,6.4744254,-17.18874,-1.9480572,83.09609874,-5.5519630200000005,-38.42256348
9.8,980,-0.138,-0.983,-0.126,6.1879464,-16.673077799999998,-2.0053530000000004,83.18204244,-5.54623344,-38.5887213
9.81,981,-0.131,-0.989,-0.123,5.72958,-15.813640800000002,-1.7761698,83.23360865999999,-5.56342218,-38.74914954000001
9.82,982,-0.125,-0.995,-0.122,5.6722842,-14.8396122,-1.5469866,83.3080932,-5.5576926,-38.89811862
9.83,983,-0.116,-0.99,-0.119,6.0733548,-13.750992000000002,-1.7188740000000002,83.38830732,-5.5519630200000005,-39.03562854
9.84,984,-0.108,-0.982,-0.111,6.3598338,-12.4904844,-2.0626488000000003,83.46279186000002,-5.54623344,-39.161679299999996
9.85,985,-0.101,-0.985,-0.109,6.760904399999999,-11.229976800000001,-2.291832,83.54873556,-5.5290447,-39.27054132
9.86,986,-0.095,-0.987,-0.107,6.9327918,-10.0840608,-2.6356068,83.61176094,-5.50612638,-39.37367376
9.87,987,-0.08800000000000001,-0.992,-0.1,7.161975,-9.167328,-2.8074942000000003,83.69770464000001,-5.48320806,-39.46534704
9.88,988,-0.085,-0.999,-0.093,7.1046792000000005,-8.479778399999999,-3.0939732,83.77791876,-5.46028974,-39.55129074
9.89,989,-0.086,-1.008,-0.09,6.875496000000001,-7.7349330000000025,-3.2658606,83.85813288,-5.4316418399999975,-39.63150486
9.9,990,-0.087,-1.017,-0.087,6.703608600000001,-7.3911582,-2.9793816000000004,83.93261742,-5.40872352,-39.7059894
9.91,991,-0.087,-1.017,-0.083,6.6463128000000005,-7.333862400000001,-2.6356068,84.01283154000002,-5.37434604,-39.78047393999999
9.92,992,-0.086,-1.015,-0.078,6.417129599999999,-7.2192707999999985,-2.5210152000000003,84.0815865,-5.3571573,-39.85495848000001
9.93,993,-0.08800000000000001,-1.009,-0.07200000000000001,6.016058999999999,-7.0473834,-2.4064236,84.15034145999998,-5.33423898,-39.92944302
9.94,994,-0.085,-1.003,-0.07,5.844171599999999,-6.875496000000001,-2.1772404,84.21909642,-5.31705024,-39.99819798
9.95,995,-0.085,-1.0,-0.069,5.0993262,-6.5317212,-2.0053530000000004,84.27639222,-5.30559108,-40.06695294000001
9.96,996,-0.083,-0.997,-0.064,4.2398892,-6.130650599999999,-1.9480572,84.34514718,-5.2712136,-40.12997832
9.97,997,-0.087,-1.0,-0.061,3.2085648,-5.958763200000001,-2.0626488000000003,84.38525424,-5.25402486,-40.18727412
9.98,998,-0.08900000000000001,-1.008,-0.063,2.2345362,-5.5576926,-1.7188740000000002,84.41390214,-5.2425657,-40.24456992
9.99,999,-0.08800000000000001,-1.019,-0.062,1.7188740000000002,-4.9847345999999995,-1.3178034,84.43682046,-5.231106540000001,-40.29613614
10.0,1000,-0.084,-1.025,-0.059,0.8021411999999999,-4.297185,-1.0313244,84.44827962000002,-5.22537696,-40.341972780000006
10.01,1001,-0.08,-1.027,-0.057,-0.2291832000000001,-3.8961144,-0.6302538000000001,84.50557542,-5.16235158,-40.38780942
10.02,1002,-0.075,-1.027,-0.058,-0.572958,-4.1252976000000015,-0.4010706,84.50557542,-5.1566220000000005,-40.42791648
10.03,1003,-0.07,-1.026,-0.064,-1.2605076000000002,-4.2398892,-0.286479,84.49411626,-5.1566220000000005,-40.46802354
10.04,1004,-0.065,-1.016,-0.066,-1.7761698,-4.4117766,-0.3437748,84.4826571,-5.1566220000000005,-40.51386018
10.05,1005,-0.071,-1.002,-0.068,-1.7188740000000002,-4.3544808,-0.6302538000000001,84.46546836,-5.1566220000000005,-40.55969682
10.06,1006,-0.081,-0.993,-0.07,-1.7188740000000002,-4.3544808,-0.6875496,84.45973878,-5.13370368,-40.60553346
10.07,1007,-0.09,-0.991,-0.067,-1.7188740000000002,-4.2398892,-0.4583664000000001,84.44827962000002,-5.1279740999999985,-40.64564052
10.08,1008,-0.094,-0.992,-0.066,-2.0626488000000003,-3.380452200000001,-0.057295800000000015,84.43109088,-5.13370368,-40.680018
10.09,1009,-0.099,-0.992,-0.066,-2.2345362,-2.6929026,0.1718874,84.40817256,-5.13370368,-40.7086659
10.1,1010,-0.103,-0.994,-0.066,-2.1772404,-1.7761698,0.3437748,84.39098382,-5.13943326,-40.72585464
10.11,1011,-0.103,-0.994,-0.068,-1.9480572,-0.8021411999999999,0.286479,84.41390214,-5.2024586400000015,-40.7373138
10.12,1012,-0.103,-0.994,-0.067,-1.7761698,0.2291832000000001,0.1718874,84.39098382,-5.2024586400000015,-40.7373138
10.13,1013,-0.099,-0.992,-0.07,-1.7761698,1.3750992,-0.1718874,84.37379508000002,-5.19672906,-40.72012506
10.14,1014,-0.097,-0.996,-0.075,-1.8334656000000005,2.3491278,-0.2291832000000001,84.35087675999998,-5.19672906,-40.69720674
