TimeStamp(s),FrameCounter,AccX,AccY,AccZ,GyrX,GyrY,GyrZ,EulerX,EulerY,EulerZ
0.01,1,-0.086,-1.005,0.107,5.72958,-1.145916,-2.9220857999999996,94.20002478,-3.15699858,95.44334364
0.02,2,-0.081,-1.001,0.109,5.5576926,-0.6875496,-2.4637194,94.25732058,-3.12835068,95.43761406
0.03,3,-0.07400000000000001,-0.997,0.11,5.443101,-0.6302538000000001,-2.0626488000000003,94.33180511999998,-3.12835068,95.43188448
0.04,4,-0.067,-0.994,0.111,5.3858052,-1.0313244,-1.8334656000000005,94.38910092,-3.1054323600000004,95.4261549
0.05,5,-0.063,-0.999,0.111,5.0993262,-1.5469866,-1.5469866,94.44066714,-3.08824362,95.40896616
0.060000000000000005,6,-0.06,-1.003,0.11,4.5263682,-2.291832,-1.432395,94.48650378,-3.07105488,95.39177742
0.06999999999999999,7,-0.058,-1.008,0.111,4.297185,-3.0366774,-1.3178034,94.53234042,-3.05386614,95.36312952
0.08,8,-0.059,-1.009,0.113,4.5263682,-3.6669312000000014,-1.3178034,94.5953658,-3.04240698,95.32875204
0.09,9,-0.061,-1.011,0.113,4.7555514,-4.297185,-1.3178034,94.64693201999998,-3.01948866,95.28864498
0.09999999999999999,10,-0.065,-1.008,0.114,4.8701430000000006,-4.8701430000000006,-1.3178034,94.69849824,-3.00229992,95.23707876
0.11,11,-0.068,-1.004,0.116,4.4690724,-5.2712136,-1.4896908000000002,94.75006446,-2.9793816000000004,95.19124212
0.12,12,-0.07200000000000001,-1.004,0.115,3.9534102,-5.5003968,-1.7188740000000002,94.79017152,-2.9564632800000004,95.1396759
0.13,13,-0.07400000000000001,-1.005,0.112,3.7815227999999994,-5.844171599999999,-1.8907613999999997,94.83600816,-2.9507337,95.0823801
0.14,14,-0.078,-1.008,0.114,3.0939732,-6.1879464,-2.0626488000000003,94.87611522,-2.9220858,95.0250843
0.15000000000000002,15,-0.078,-1.009,0.116,2.1772404,-6.5317212,-2.0053530000000004,94.89903354,-2.89916748,94.96205892
0.16,16,-0.077,-1.01,0.116,2.2345362,-6.875496000000001,-1.8907613999999997,94.92768144,-2.87051958,94.89330396
0.17,17,-0.076,-1.007,0.115,2.3491278,-6.875496000000001,-1.9480572,94.95632934,-2.84187168,94.83027858
0.18000000000000002,18,-0.076,-1.008,0.112,1.7761698,-6.5317212,-1.9480572,94.98497724,-2.84187168,94.7672532
0.19,19,-0.078,-1.009,0.113,2.1772404,-6.016058999999999,-1.9480572,95.00789556,-2.81895336,94.70995740000001
0.2,20,-0.08,-1.006,0.113,2.1199446,-5.443101,-1.9480572,95.03654346,-2.79030546,94.65839118
0.21000000000000002,21,-0.083,-1.006,0.116,1.9480572,-4.6982556,-1.8907613999999997,95.0537322,-2.76738714,94.61255454
0.22,22,-0.081,-1.006,0.117,1.3178034,-3.9534102,-1.8334656000000005,95.07092094,-2.74446882,94.57817706
0.23,23,-0.08,-1.003,0.115,0.8021411999999999,-3.380452200000001,-1.7188740000000002,95.08810968,-2.7788463,94.54952916
0.24000000000000002,24,-0.07400000000000001,-1.002,0.117,0.7448454000000001,-3.0939732,-1.432395,95.09956884,-2.76165756,94.52088126
0.25,25,-0.069,-1.002,0.117,0.9167328,-3.380452200000001,-1.3750992,95.111028,-2.74446882,94.48650378
0.26,26,-0.065,-1.002,0.116,0.8594370000000001,-3.6669312000000014,-1.2032118,95.12248716,-2.72728008,94.4521263
0.27,27,-0.065,-1.003,0.119,0.8021411999999999,-4.010706000000001,-1.145916,95.13394632,-2.71009134,94.41201924
0.28,28,-0.066,-1.003,0.12,1.145916,-4.2398892,-1.2605076000000002,95.16259422,-2.7215505,94.37191218
0.29000000000000004,29,-0.068,-1.003,0.12,1.5469866,-4.4117766,-1.4896908000000002,95.17978295999998,-2.69863218,94.33180511999998
0.3,30,-0.071,-1.001,0.123,1.9480572,-4.4690724,-1.7761698,95.20270128,-2.67571386,94.28596848
0.31,31,-0.07200000000000001,-1.002,0.124,1.7188740000000002,-4.2398892,-2.1199446,95.2256196,-2.64706596,94.251591
0.32,32,-0.07200000000000001,-1.004,0.125,1.145916,-3.9534102,-2.4064236,95.23707876,-2.61841806,94.21148394
0.33,33,-0.07400000000000001,-1.006,0.125,0.7448454000000001,-3.6669312000000014,-2.578311,95.27145624,-2.62414764,94.18283604
0.34,34,-0.07200000000000001,-1.01,0.126,0.1718874,-3.2085648,-2.5210152000000003,95.27145624,-2.59549974,94.14845856
0.35000000000000003,35,-0.073,-1.014,0.125,-0.3437748,-2.7501984,-2.4064236,95.27145624,-2.57258142,94.12554024
0.36000000000000004,36,-0.07200000000000001,-1.016,0.127,-0.7448454000000001,-2.4064236,-2.291832,95.26572666,-2.54393352,94.10262192
0.37,37,-0.068,-1.017,0.127,-1.0886202,-2.5210152000000003,-2.0626488000000003,95.2542675,-2.5210152000000003,94.0797036
0.38,38,-0.066,-1.015,0.125,-1.145916,-2.578311,-1.9480572,95.26572666,-2.52674478,94.05678528
0.39,39,-0.062,-1.016,0.125,-0.7448454000000001,-2.6356068,-1.7761698,95.2542675,-2.50955604,94.03386695999998
0.4,40,-0.06,-1.008,0.125,-1.432395,-2.6356068,-1.7188740000000002,95.24280834,-2.48663772,94.01094864
0.41000000000000003,41,-0.059,-1.009,0.125,-1.6042823999999998,-2.578311,-1.7188740000000002,95.2256196,-2.4637194,93.98803032
0.42000000000000004,42,-0.06,-1.01,0.122,-2.291832,-2.2345362,-1.9480572,95.20843086,-2.44653066,93.965112
0.43,43,-0.061,-1.007,0.125,-3.2085648,-1.6615782,-2.0626488000000003,95.1969717,-2.44653066,93.94792326
0.44,44,-0.062,-1.005,0.126,-3.6669312000000014,-0.9740286,-2.1199446,95.15686464,-2.42361234,93.94219368
0.45,45,-0.065,-1.004,0.123,-3.8388186,-0.2291832000000001,-2.0626488000000003,95.11675757999998,-2.40069402,93.94219368
0.46,46,-0.066,-1.007,0.119,-4.1252976000000015,0.572958,-2.0053530000000004,95.07665052000002,-2.38350528,93.94792326
0.47000000000000003,47,-0.062,-1.007,0.118,-4.4117766,1.2032118,-2.0053530000000004,95.03081388,-2.36631654,93.95938242
0.48000000000000004,48,-0.06,-1.007,0.117,-4.6409598,1.6615782,-1.9480572,94.99070682,-2.36058696,93.98230074
0.49,49,-0.054000000000000006,-1.006,0.113,-5.1566220000000005,2.1199446,-1.9480572,94.9391406,-2.34339822,93.99948948
0.5,50,-0.049,-1.004,0.107,-5.6722842,2.578311,-1.8907613999999997,94.88184479999998,-2.33193906,94.02813738
0.51,51,-0.045,-1.004,0.108,-5.844171599999999,2.5210152000000003,-1.7188740000000002,94.81881942,-2.3147503200000004,94.05678528
0.52,52,-0.041,-1.007,0.112,-6.2452422,2.0626488000000003,-1.6042823999999998,94.75579404,-2.30329116,94.07397402
0.53,53,-0.037000000000000005,-1.011,0.118,-6.589017,1.6042823999999998,-1.7188740000000002,94.70422782,-2.2746432600000004,94.09116276
0.54,54,-0.037000000000000005,-1.015,0.122,-6.875496000000001,1.3178034,-2.291832,94.63547286,-2.25745452,94.1083515
0.55,55,-0.037000000000000005,-1.021,0.122,-7.0473834,1.6615782,-2.9220857999999996,94.56098832,-2.22880662,94.12554024
0.56,56,-0.037000000000000005,-1.021,0.119,-7.333862400000001,2.6356068,-3.6096354,94.48650378,-2.19442914,94.15418814
0.5700000000000001,57,-0.033,-1.017,0.113,-7.6203414,3.4950437999999995,-4.010706000000001,94.40628966,-2.16005166,94.18856562
0.5800000000000001,58,-0.03,-1.012,0.11,-7.8495246,4.1825934,-4.1252976000000015,94.33180511999998,-2.11421502,94.23440226
0.59,59,-0.026,-1.011,0.109,-7.7922288,4.6982556,-3.8388186,94.24586142,-2.07983754,94.2802389
0.6,60,-0.024,-1.009,0.106,-7.5057497999999985,4.7555514,-3.2085648,94.17137688,-2.05691922,94.33180511999998
0.61,61,-0.021,-1.013,0.105,-7.6203414,4.2398892,-2.578311,94.09116276,-2.0340008999999997,94.37191218
0.62,62,-0.019,-1.023,0.114,-8.5370742,3.151269,-1.8334656000000005,93.99948948,-2.01681216,94.40628966
0.63,63,-0.02,-1.028,0.127,-9.797581800000001,1.9480572,-1.3178034,93.93073452,-1.99389384,94.4234784
0.64,64,-0.022,-1.026,0.13699999999999998,-10.8289062,1.5469866,-0.9740286,93.8218725,-1.98243468,94.44066714
0.65,65,-0.022,-1.024,0.139,-11.5737516,2.3491278,-0.7448454000000001,93.70155132,-1.98243468,94.46358546
0.66,66,-0.02,-1.015,0.136,-11.917526400000002,3.8961144,-0.8021411999999999,93.58123014,-1.9767051,94.49796294
0.67,67,-0.023,-1.01,0.128,-12.2040054,6.130650599999999,-1.145916,93.4494498,-1.97097552,94.56098832
0.68,68,-0.031,-1.005,0.112,-11.8029348,8.880849000000003,-1.3178034,93.34058778,-1.96524594,94.64693201999998
0.6900000000000001,69,-0.035,-1.009,0.099,-11.8602306,11.4018642,-1.145916,93.21453702,-1.96524594,94.75579404
0.7000000000000001,70,-0.033,-1.012,0.097,-12.3758928,13.2353298,-0.4583664000000001,93.08275668,-1.97097552,94.88757438
0.7100000000000001,71,-0.024,-1.015,0.095,-12.6623718,14.152062599999999,0.4010706,92.94524676,-1.98816426,95.0250843
0.72,72,-0.014,-1.015,0.087,-13.2926256,14.32395,1.3750992,92.80773684,-2.01108258,95.1683238
0.73,73,-0.001,-1.008,0.079,-13.464512999999998,14.0947668,2.291832,92.66449734,-2.02827132,95.30010414
0.74,74,0.011,-0.994,0.075,-12.9488508,13.521808800000002,3.0366774,92.52698742,-2.06837838,95.43188448
0.75,75,0.013,-0.979,0.07400000000000001,-12.2040054,12.7196676,3.4377480000000005,92.39520708,-2.11421502,95.55220566
0.76,76,0.01,-0.965,0.073,-11.4018642,11.9748222,3.6669312000000014,92.2748859,-2.16005166,95.66679726
0.77,77,0.003,-0.958,0.07200000000000001,-10.6570188,11.1153852,3.5523396000000003,92.1602943,-2.2058883,95.77565928
0.78,78,-0.004,-0.96,0.07200000000000001,-9.9121734,10.5424272,3.3231564,92.06289144000002,-2.22880662,95.87879172
0.79,79,-0.011,-0.968,0.07200000000000001,-9.3392154,10.0840608,3.0366774,91.96548857999998,-2.26891368,95.97619458
0.8,80,-0.015,-0.981,0.073,-8.8235532,10.1413566,2.6356068,91.86808572,-2.29756158,96.07359744
0.81,81,-0.019,-0.997,0.073,-8.021412000000002,10.0840608,2.4064236,91.78214202,-2.33193906,96.1710003
0.8200000000000001,82,-0.022,-1.008,0.07400000000000001,-7.5057497999999985,9.797581800000001,2.291832,91.69619832,-2.36058696,96.26840316
0.8300000000000001,83,-0.024,-1.015,0.076,-7.6203414,9.0527364,2.3491278,91.63317294,-2.3777757,96.35434686
0.8400000000000001,84,-0.027000000000000003,-1.013,0.084,-7.6203414,8.651665800000002,2.7501984,91.55295882,-2.4064236,96.44029056
0.85,85,-0.031,-1.014,0.092,-7.7922288,8.7089616,3.2085648,91.46701512,-2.44653066,96.52050468
0.86,86,-0.033,-1.017,0.094,-8.7089616,9.2819196,3.6669312000000014,91.37534184,-2.48663772,96.61217795999998
0.87,87,-0.037000000000000005,-1.02,0.1,-10.0840608,10.3705398,4.2398892,91.26647982,-2.53820394,96.7153104
0.88,88,-0.039,-1.018,0.097,-10.313244,11.2872726,5.0993262,91.17480654,-2.58977016,96.82417242
0.89,89,-0.037000000000000005,-1.021,0.059,-9.3965112,10.9434978,6.1879464,91.0716741,-2.65279554,96.92730486
0.9,90,-0.034,-1.028,0.01,-8.8235532,8.651665800000002,7.448453999999999,90.97427124,-2.73300966,97.01324856
0.91,91,-0.032,-1.033,0.0,-9.453807000000001,3.7815227999999994,9.167328,90.87686838,-2.83041252,97.04762603999998
0.92,92,-0.038,-1.026,0.015,-10.7716104,0.4010706,10.3705398,90.76800636,-2.93354496,97.04762603999998
0.93,93,-0.039,-1.022,0.028,-12.7196676,-2.1772404,11.6310474,90.6419556,-3.04240698,97.01897814
0.9400000000000001,94,-0.037000000000000005,-1.023,0.038,-14.381245800000002,-5.042030400000002,12.3758928,90.4987161,-3.1627281600000003,96.96741192
0.9500000000000001,95,-0.028,-1.036,0.026,-15.985528200000001,-7.6776372,12.318597,90.34401744,-3.28304934,96.8871978
0.9600000000000001,96,-0.017,-1.045,0.002,-17.9908812,-10.886202,12.0894138,90.16640046,-3.40337052,96.77833578
0.97,97,-0.001,-1.041,-0.001,-19.595163600000006,-13.9228794,11.9748222,89.97732432000002,-3.51796212,96.63509628
0.98,98,0.01,-1.039,0.011,-20.1108258,-17.18874,12.261301199999998,89.78824818,-3.62109456,96.46320888
0.99,99,0.004,-1.042,0.031,-20.168121600000006,-21.9442914,13.0634424,89.59917204,-3.74714532,96.24548484
1.0,100,-0.015,-1.053,0.061,-21.027558600000006,-24.4080108,13.750992000000002,89.40436632,-3.87892566,95.99911290000001
1.01,101,-0.038,-1.055,0.073,-23.3193906,-25.9549974,14.037471,89.19237186000002,-4.01643558,95.7412818
1.02,102,-0.068,-1.04,0.073,-24.8663772,-27.501984000000004,14.037471,88.96318865999999,-4.15967508,95.46626196
1.03,103,-0.107,-1.019,0.067,-24.4080108,-29.1062664,14.152062599999999,88.7511942,-4.30291458,95.17978295999998
1.04,104,-0.141,-1.008,0.07200000000000001,-23.14750320000001,-30.5959572,14.9542038,88.54492932000002,-4.45761324,94.87611522
1.05,105,-0.163,-1.0,0.08,-22.5745452,-30.8251404,15.870936600000002,88.34439402000002,-4.612311900000001,94.57244748
1.06,106,-0.182,-0.998,0.085,-21.8869956,-29.7365202,16.042824000000003,88.14958829999998,-4.77846972,94.2802389
1.07,107,-0.17800000000000002,-1.012,0.09,-23.0902074,-27.215505,15.9282324,87.93759384,-4.93889796,94.01094864
1.08,108,-0.166,-1.026,0.08,-22.459953600000002,-25.6685184,15.870936600000002,87.75424728,-5.11078536,93.75884712
1.09,109,-0.16,-1.0490000000000002,0.099,-20.798375399999998,-24.4080108,16.042824000000003,87.57090072000004,-5.27694318,93.51820476
1.1,110,-0.16,-1.053,0.111,-20.2254174,-23.491278,16.8449652,87.38755416000002,-5.44883058,93.28902156
1.11,111,-0.162,-1.035,0.102,-20.3973048,-23.032911600000002,17.9335854,87.20420759999998,-5.63217714,93.06556794
1.12,112,-0.16399999999999998,-1.011,0.083,-20.1108258,-23.204799,19.3659804,87.02659062000002,-5.83271244,92.84211432
1.1300000000000001,113,-0.158,-0.999,0.083,-18.621135,-22.86102420000001,20.626488,86.88908070000002,-6.05616606,92.62439028
1.1400000000000001,114,-0.155,-1.003,0.095,-17.303331600000003,-21.4286292,21.772404,86.74011162,-6.2796196800000015,92.4181254
1.1500000000000001,115,-0.154,-1.008,0.101,-16.7876694,-19.194093,22.173474600000002,86.59114253999998,-6.5030733,92.24050842
1.1600000000000001,116,-0.155,-0.997,0.109,-17.131444199999994,-17.0168526,21.6578124,86.43644388,-6.72652692,92.08008018
1.17,117,-0.156,-0.987,0.109,-17.0168526,-15.183387000000002,20.798375399999998,86.28174521999998,-6.93852138,91.94257026
1.18,118,-0.162,-0.979,0.106,-16.7876694,-13.2353298,19.767051,86.16715362,-7.15051584,91.8165195
1.19,119,-0.173,-0.975,0.095,-16.501190400000002,-11.1153852,18.907614000000002,86.01245496,-7.34532156,91.71338706000002
1.2,120,-0.187,-0.974,0.077,-15.813640800000002,-9.6256944,18.2773602,85.86348588000001,-7.534397699999999,91.63317294
1.21,121,-0.203,-0.972,0.069,-15.0114996,-8.651665800000002,17.8762896,85.72597596,-7.717744259999999,91.55295882
1.22,122,-0.214,-0.977,0.071,-14.0947668,-7.5630456000000015,17.5325148,85.58846604,-7.89536124,91.48993344
1.23,123,-0.215,-0.98,0.07,-14.152062599999999,-4.8701430000000006,17.303331600000003,85.49679276,-8.09589654,91.44982638
1.24,124,-0.205,-0.979,0.07,-14.32395,-2.578311,17.246035799999998,85.35355326,-8.26778394,91.43836722
1.25,125,-0.191,-0.968,0.071,-14.381245800000002,-0.11459160000000004,17.131444199999994,85.20458418000003,-8.43967134,91.44982638
1.26,126,-0.188,-0.956,0.075,-13.750992000000002,1.9480572,16.558486199999994,85.06134468,-8.60009958,91.47847428
1.27,127,-0.187,-0.942,0.067,-13.8082878,3.3231564,16.1001198,84.91237559999998,-8.76052782,91.52431092
1.28,128,-0.195,-0.932,0.07400000000000001,-14.32395,4.1825934,15.5844576,84.80924316,-8.93241522,91.57587714
1.29,129,-0.201,-0.931,0.084,-14.32395,5.0993262,15.183387000000002,84.64881491999998,-9.081384300000002,91.63890252
1.3,130,-0.206,-0.937,0.087,-14.9542038,6.130650599999999,14.7250206,84.48838668,-9.224623800000002,91.71338706000002
1.31,131,-0.208,-0.948,0.08800000000000001,-15.813640800000002,7.906820400000001,14.32395,84.31076970000002,-9.36213372,91.80506034
1.32,132,-0.211,-0.954,0.079,-16.673077799999998,8.651665800000002,13.750992000000002,84.12169356000003,-9.49391406,91.9024632
1.33,133,-0.21600000000000005,-0.961,0.067,-16.4438946,8.8235532,13.0634424,83.98418364,-9.63142398,91.99986606
1.34,134,-0.221,-0.968,0.076,-16.042824000000003,8.7662574,12.032117999999999,83.80656666,-9.746015580000002,92.09726892
1.35,135,-0.21600000000000005,-0.966,0.079,-16.157415599999997,8.5370742,10.9434978,83.62322009999998,-9.84914802,92.19467178
1.36,136,-0.202,-0.955,0.087,-16.157415599999997,7.906820400000001,9.453807000000001,83.44560312,-9.9408213,92.28061548
1.37,137,-0.188,-0.943,0.092,-15.126091199999998,7.9641161999999985,7.5057497999999985,83.27371572000001,-10.00957626,92.36655918
1.3800000000000001,138,-0.18,-0.935,0.083,-13.980175199999998,8.307891,5.2139178,83.19350159999998,-10.06114248,92.4467733
1.3900000000000001,139,-0.181,-0.935,0.092,-11.4018642,8.651665800000002,2.578311,83.06172126,-10.07833122,92.532717
1.4000000000000001,140,-0.189,-0.946,0.106,-9.5111028,8.479778399999999,0.572958,82.94712966,-10.07833122,92.6186607
1.4100000000000001,141,-0.192,-0.952,0.102,-9.167328,7.1046792000000005,-1.2032118,82.84399721999998,-10.06114248,92.68741566
1.42,142,-0.206,-0.951,0.105,-9.3392154,6.016058999999999,-2.6929026,82.7351352,-10.026765,92.74471146
1.43,143,-0.22,-0.953,0.098,-8.880849000000003,5.2712136,-4.010706000000001,82.76378309999998,-10.02103542,92.77908894
1.44,144,-0.239,-0.957,0.08800000000000001,-8.5370742,4.6409598,-5.443101,82.66638024,-9.963739620000002,92.819196
1.45,145,-0.26,-0.969,0.083,-7.6776372,5.042030400000002,-7.1046792000000005,82.58043654000002,-9.88925508,92.85930306
1.46,146,-0.275,-0.99,0.076,-6.6463128000000005,6.3025379999999975,-9.167328,82.50595200000002,-9.79185222,92.91086928
1.47,147,-0.28800000000000003,-1.006,0.059,-5.6149884000000005,8.5370742,-11.516455800000001,82.43146746,-9.67153104,92.97962424
1.48,148,-0.299,-1.014,0.044,-4.9847345999999995,10.886202,-13.120738199999998,82.42000829999998,-9.57412818,93.06556794
1.49,149,-0.304,-1.021,0.039,-3.6669312000000014,14.381245800000002,-14.381245800000002,82.3627125,-9.41942952,93.1916187
1.5,150,-0.303,-1.037,0.037000000000000005,-3.4377480000000005,18.3919518,-15.2406828,82.29968712,-9.2532717,93.35204694
1.51,151,-0.305,-1.068,0.032,-6.3025379999999975,22.5172494,-15.5844576,82.19655467999998,-9.07565472,93.55831182
1.52,152,-0.324,-1.125,-0.028,-12.7196676,22.86102420000001,-15.0114996,82.03612644,-8.90376732,93.7645767
1.53,153,-0.331,-1.217,-0.195,-21.772404,19.7097552,-14.037471,81.77256575999998,-8.75479824,93.94219368
1.54,154,-0.334,-1.3869999999999998,-0.469,-28.5906042,13.9228794,-10.7143146,81.46316844,-8.634477059999998,94.06251486
1.55,155,-0.316,-1.612,-0.465,-18.9649098,3.3231564,-3.6669312000000014,81.26263314,-8.594370000000001,94.08543318
1.56,156,-0.179,-1.694,-0.268,-6.5317212,9.5111028,-0.057295800000000015,81.18241902,-8.58291084,94.17710646
1.57,157,0.028,-1.5419999999999998,-0.081,-8.880849000000003,17.5325148,-2.1199446,81.06782741999999,-8.542803780000002,94.34899386
1.58,158,0.064,-1.3090000000000002,0.023,-19.9962342,21.0848544,-4.9274388,80.85010338000002,-8.44540092,94.54379958
1.59,159,-0.093,-1.128,-0.069,-30.7105488,26.298772200000002,-8.193299399999999,80.500599,-8.33080932,94.79017152
1.6,160,-0.273,-1.0759999999999998,-0.155,-26.8717302,30.7105488,-17.7044022,80.18547209999998,-8.11881486,95.05946178
1.61,161,-0.38,-1.18,-0.21,-15.2979786,36.6120162,-32.486718599999996,79.97920722,-7.746392160000001,95.36312952
1.62,162,-0.441,-1.301,-0.263,-11.1153852,41.3102718,-46.29500640000001,79.81877897999998,-7.23645954,95.68971558
1.6300000000000001,163,-0.436,-1.35,-0.287,-9.568398599999998,42.05511720000001,-50.3630082,79.67553948,-6.69214944,96.01630164
1.6400000000000001,164,-0.35200000000000004,-1.335,-0.28,-8.8235532,42.5134836,-44.690724,79.53802956,-6.19367598,96.35434686
1.6500000000000001,165,-0.242,-1.294,-0.273,-11.229976800000001,45.550161,-35.9817624,79.37760132,-5.76968706,96.73822872
1.6600000000000001,166,-0.152,-1.229,-0.297,-15.0687954,48.529542600000006,-27.9603504,79.17706602000001,-5.42018268,97.16221764
1.6700000000000002,167,-0.108,-1.13,-0.328,-16.501190400000002,50.420304,-22.058883,78.95934198,-5.1279740999999985,97.61485446
1.68,168,-0.08900000000000001,-1.031,-0.333,-14.32395,52.2537696,-18.2773602,78.74734751999998,-4.86441342,98.09040960000002
1.69,169,-0.076,-0.949,-0.314,-13.8655836,52.82672760000001,-15.6417534,78.55827138,-4.62377106,98.57169432
1.7,170,-0.051,-0.8809999999999999,-0.305,-14.381245800000002,51.852699,-14.037471,78.36346566,-4.40031744,99.05297904
1.71,171,0.005,-0.8270000000000001,-0.271,-14.4385416,51.2224452,-13.2353298,78.17438952,-4.1825934,99.5228046
1.72,172,0.063,-0.813,-0.241,-15.126091199999998,50.8786704,-13.0634424,77.9795838,-3.97059894,99.99263016
1.73,173,0.101,-0.8290000000000001,-0.234,-17.475219,49.4462754,-13.349921400000001,77.75613018,-3.724227,100.44526698
1.74,174,0.117,-0.8440000000000001,-0.231,-20.2254174,47.4409224,-13.6936962,77.51548782,-3.50650296,100.87498548
1.75,175,0.115,-0.8740000000000001,-0.22,-21.3140376,44.8053156,-14.495837400000001,77.26911588,-3.28304934,101.27605608
1.76,176,0.098,-0.913,-0.204,-21.9442914,40.5654264,-15.2979786,77.02274394,-3.05959572,101.63701962
1.77,177,0.066,-0.952,-0.203,-22.1161788,35.9817624,-15.870936600000002,76.77637200000002,-2.8361421,101.94641694
1.78,178,0.031,-0.991,-0.212,-22.4026578,32.7731976,-16.615782,76.53000005999998,-2.59549974,102.22143678
1.79,179,0.003,-1.019,-0.2,-21.6578124,32.0283522,-17.6471064,76.29508728,-2.36058696,102.49072704
1.8,180,-0.001,-1.016,-0.183,-22.86102420000001,32.372127,-17.9908812,76.04871534,-2.12567418,102.7600173
1.81,181,-0.005,-0.984,-0.175,-24.1215318,34.4347758,-17.8189938,75.78515466,-1.87930224,103.0464963
1.82,182,-0.013,-0.944,-0.166,-26.069589,37.4714532,-16.959556799999998,75.50440524000003,-1.6386598799999998,103.36735278
1.83,183,-0.034,-0.91,-0.13,-26.2414764,39.591397799999996,-16.558486199999994,75.24084456,-1.39228794,103.70539800000002
1.84,184,-0.041,-0.9,-0.08800000000000001,-29.5646328,44.0031744,-15.756345000000001,74.92571766,-1.1459160000000002,104.08355028
1.85,185,-0.031,-0.873,-0.091,-32.830493399999995,49.7327544,-14.896907999999998,74.57621328,-0.89381448,104.52472794
1.86,186,0.006,-0.83,-0.121,-31.913760600000003,53.456981400000004,-13.0061466,74.23816806,-0.64171296,105.00028308
1.87,187,0.033,-0.825,-0.142,-28.8770832,55.6342218,-10.5424272,73.93450032,-0.40680018,105.49875654
1.8800000000000001,188,0.05,-0.8290000000000001,-0.134,-28.8770832,56.4936588,-8.59437,73.64229173999998,-0.17761697999999998,106.01441874
1.8900000000000001,189,0.058,-0.823,-0.128,-30.4813656,55.576926,-6.990087599999999,73.32143526,0.02291832,106.52435136
1.9000000000000001,190,0.06,-0.8079999999999999,-0.131,-30.7678446,52.998615,-5.844171599999999,73.00630836,0.21199446,107.01136566
1.9100000000000001,191,0.051,-0.802,-0.13,-29.335449600000004,50.76407879999999,-5.3858052,72.70264062,0.39534102,107.47546164
1.9200000000000002,192,0.044,-0.799,-0.129,-27.215505,49.1025006,-5.0993262,72.4218912,0.5729580000000001,107.92236888
1.93,193,0.049,-0.797,-0.129,-24.8090814,49.2170922,-5.2712136,72.18697842,0.76203414,108.3750057
1.94,194,0.057,-0.7909999999999999,-0.13,-23.376686399999997,50.5348956,-5.844171599999999,71.94633606,0.95683986,108.83337209999999
1.95,195,0.065,-0.799,-0.158,-21.8869956,51.1651494,-6.130650599999999,71.72861202,1.1573751600000002,109.29746808
1.96,196,0.073,-0.821,-0.16399999999999998,-19.5378678,52.6548402,-6.990087599999999,71.52807672,1.36936962,109.77302322
1.97,197,0.068,-0.85,-0.128,-16.042824000000003,53.39968560000001,-8.5370742,71.37337806000002,1.6042824000000002,110.24857836
1.98,198,0.06,-0.88,-0.108,-12.891555,53.9153478,-9.568398599999998,71.27597519999998,1.85638392,110.72986308
1.99,199,0.063,-0.898,-0.123,-10.5424272,54.08723520000001,-9.224623800000002,71.17857234,2.09702628,111.2111478
2.0,200,0.075,-0.91,-0.134,-6.760904399999999,52.998615,-7.161975,71.12127654,2.3204799,111.68670294
2.01,201,0.085,-0.93,-0.117,-1.4896908000000002,51.56622,-3.8961144,71.11554696,2.50955604,112.16225808
2.02,202,0.101,-0.947,-0.069,4.7555514,48.987909,0.4010706,71.17857234,2.64706596,112.62635406
2.03,203,0.139,-0.942,-0.059,10.9434978,45.263682,6.8182002000000015,71.35045973999998,2.73873924,113.07899088
2.04,204,0.195,-0.93,-0.08199999999999999,16.902261,41.3102718,13.6364004,71.53953588,2.73300966,113.51443896
2.05,205,0.251,-0.921,-0.112,25.0382646,34.950438,20.5691922,71.80882614,2.6413363800000003,113.90977998
2.0599999999999996,206,0.293,-0.933,-0.132,34.091001,25.1528562,26.929026,72.16406009999999,2.45798982,114.23636603999998
2.07,207,0.312,-0.987,-0.117,41.6540466,12.3758928,32.257535399999995,72.5937786,2.19442914,114.45409008
2.0799999999999996,208,0.344,-1.065,-0.282,39.7632852,1.2605076000000002,35.0077338,73.00057878,1.90222056,114.56868167999998
2.09,209,0.35200000000000004,-1.182,-0.495,33.231564,-6.130650599999999,33.2888598,73.33862400000002,1.5756344999999998,114.60305916
2.0999999999999996,210,0.359,-1.475,-0.705,22.6891368,1.0886202,24.0069402,73.57353678,1.35218088,114.68327327999998
2.11,211,0.304,-1.6969999999999998,-0.755,17.3606274,0.0,6.1879464,73.74542418,1.29488508,114.70619159999998
2.1199999999999997,212,0.126,-1.806,-0.665,21.7151082,-13.6364004,-9.6256944,73.96887779999999,1.35218088,114.55149293999996
2.13,213,-0.111,-1.689,-0.568,23.9496444,-32.31483119999999,-13.120738199999998,74.20379058,1.39801752,114.20771814
2.1399999999999997,214,-0.189,-1.388,-0.45,22.91832,-47.555514,-3.7815227999999994,74.43297378,1.32353298,113.74362216
2.15,215,0.065,-1.139,-0.406,24.8090814,-55.6915176,11.4018642,74.67934572,1.08289062,113.23941912
2.1599999999999997,216,0.328,-1.02,-0.409,27.3873924,-56.3217714,27.6738714,74.96009513999998,0.6875496,112.76959356
2.17,217,0.429,-0.959,-0.441,25.78311,-53.0559108,39.6486936,75.22365582,0.18907614,112.36279338
2.1799999999999997,218,0.374,-0.873,-0.392,19.6524594,-52.8840234,44.06047020000001,75.41273196,-0.30366774,111.96172278
2.19,219,0.272,-0.823,-0.35200000000000004,13.5791046,-53.39968560000001,38.7892566,75.56170104,-0.79641162,111.54346344
2.1999999999999997,220,0.173,-0.828,-0.33,8.9381448,-54.3737142,27.8457588,75.67056306,-1.18029348,111.08509704
2.21,221,0.093,-0.898,-0.305,7.5057497999999985,-54.3737142,15.985528200000001,75.76223634,-1.44958374,110.60381232
2.2199999999999998,222,0.014,-0.983,-0.271,8.59437,-52.48295279999999,5.72958,75.87109836,-1.62147114,110.11106844
2.23,223,-0.038,-1.026,-0.294,5.7868758000000025,-50.47759979999999,-0.1718874,75.93985332,-1.73033316,109.62405414
2.2399999999999998,224,-0.08,-1.04,-0.28800000000000003,5.3285094000000015,-54.25912260000001,-0.1718874,76.02006744,-1.84492476,109.09693278
2.25,225,-0.104,-1.025,-0.214,5.5003968,-56.8947294,4.010706000000001,76.10028156,-1.99962342,108.55835226
2.26,226,-0.103,-0.952,-0.207,1.9480572,-57.7541664,9.568398599999998,76.14611819999998,-2.21734746,108.02550132
2.27,227,-0.117,-0.862,-0.218,-1.6615782,-59.7022236,16.329303,76.16330694,-2.49809688,107.48119122
2.28,228,-0.139,-0.782,-0.166,-0.7448454000000001,-58.9573782,19.8816426,76.18622526,-2.83041252,106.95979944
2.29,229,-0.156,-0.737,-0.133,-0.057295800000000015,-56.436363,20.454600600000006,76.22060274,-3.14553942,106.46132598
2.3,230,-0.172,-0.715,-0.14300000000000002,-1.3750992,-55.748813399999996,19.8243468,76.24352106,-3.45493674,105.9685821
2.31,231,-0.197,-0.705,-0.142,-3.2658606,-55.290447,18.334656,76.24925064,-3.74714532,105.47583822
2.32,232,-0.212,-0.711,-0.127,-3.8388186,-53.456981400000004,17.0168526,76.24925064,-4.022165159999999,105.00028308
2.3299999999999996,233,-0.218,-0.74,-0.125,-1.9480572,-51.0505578,16.501190400000002,76.27789854,-4.320103319999999,104.54191668
2.34,234,-0.221,-0.8009999999999999,-0.153,-0.572958,-48.1857678,17.9335854,76.30654644,-4.58939358,104.11792776
2.3499999999999996,235,-0.202,-0.857,-0.174,0.5156622000000001,-46.00852740000001,20.798375399999998,76.35238308000002,-4.88733174,103.72258674000004
2.36,236,-0.166,-0.899,-0.172,4.2398892,-44.06047020000001,23.8923486,76.43832678,-5.20818822,103.35016404
2.3699999999999997,237,-0.122,-0.908,-0.122,6.703608600000001,-40.8519054,26.7571386,76.54145922000002,-5.5519630200000005,103.01211882
2.38,238,-0.079,-0.882,-0.087,8.7089616,-36.4974246,26.4706596,76.68469872,-5.872819499999999,102.71991024000002
2.3899999999999997,239,-0.075,-0.8340000000000001,-0.049,8.651665800000002,-33.231564,24.694489800000003,76.80501989999998,-6.18221682,102.45061998
2.4,240,-0.104,-0.7829999999999999,-0.045,5.7868758000000025,-33.1742682,22.173474600000002,76.90242276000002,-6.45723666,102.17560014
2.4099999999999997,241,-0.157,-0.76,-0.056,6.0733548,-34.0337052,18.907614000000002,76.99982562,-6.7093381800000005,101.88912114
2.42,242,-0.231,-0.7609999999999999,-0.077,5.2712136,-34.5493674,14.8396122,77.09722848,-6.92133264,101.5854534
2.4299999999999997,243,-0.281,-0.7709999999999999,-0.081,6.875496000000001,-33.6326346,10.1986524,77.22327924,-7.12759752,101.28178566
2.44,244,-0.292,-0.7859999999999999,-0.073,7.1046792000000005,-33.4607472,6.875496000000001,77.34360042,-7.259377859999999,100.96665876
2.4499999999999997,245,-0.282,-0.782,-0.071,8.078707799999998,-33.8618178,5.2712136,77.46965118,-7.37396946,100.65153186
2.46,246,-0.254,-0.77,-0.067,10.255948199999999,-33.116972399999995,4.5263682,77.61862026,-7.477101899999999,100.33640496
2.4699999999999998,247,-0.223,-0.764,-0.039,13.2353298,-31.5699858,4.8128472,77.79623724,-7.58023434,100.0384668
2.48,248,-0.177,-0.773,-0.023,13.178034,-28.1895336,4.3544808,77.99677254,-7.6890963600000015,99.76917654
2.4899999999999998,249,-0.158,-0.76,-0.01,15.3552744,-22.345362,3.4377480000000005,78.18584868,-7.75785132,99.55718208
2.5,250,-0.154,-0.768,-0.011,17.761698000000006,-16.1001198,1.7761698,78.38638397999998,-7.80368796,99.40821300000002
2.51,251,-0.16399999999999998,-0.784,-0.004,21.4286292,-9.2819196,-0.6302538000000001,78.62129675999998,-7.80941754,99.31653972
2.52,252,-0.196,-0.792,0.015,26.814434400000003,-5.7868758000000025,-3.0939732,78.90204618,-7.78649922,99.25351434
2.53,253,-0.245,-0.807,0.057,32.0283522,-3.724227,-5.7868758000000025,79.28592804,-7.7750400599999985,99.2076777
2.54,254,-0.307,-0.818,0.085,35.6379876,-1.8907613999999997,-8.5370742,79.65262116,-7.6890963600000015,99.1790298
2.55,255,-0.364,-0.836,0.083,39.247623,0.7448454000000001,-10.9434978,80.05369175999998,-7.58023434,99.17330022000002
2.56,256,-0.401,-0.878,0.086,43.258329,5.443101,-13.2353298,80.48341026,-7.43699484,99.2076777
2.57,257,-0.425,-0.965,0.056,44.06047020000001,9.568398599999998,-15.0114996,80.92458792,-7.270837019999999,99.28216224
2.5799999999999996,258,-0.442,-1.15,-0.13,35.46610020000001,11.688343199999998,-16.673077799999998,81.26263314,-7.11040878,99.3795651
2.59,259,-0.466,-1.429,-0.415,18.2200644,2.5210152000000003,-15.5844576,81.4459797,-6.955710119999999,99.38529468
2.5999999999999996,260,-0.458,-1.754,-0.529,4.1825934,-8.136003599999999,-11.1153852,81.5032755,-6.85257768,99.28789182
2.61,261,-0.284,-1.95,-0.395,10.886202,-5.2139178,-5.6149884000000005,81.6178671,-6.80674104,99.22486644
2.6199999999999997,262,0.122,-1.832,-0.213,31.3980984,7.2765666,-5.0993262,81.92726442,-6.743715660000001,99.2936214
2.63,263,0.434,-1.477,-0.14800000000000002,24.9809688,17.589810600000003,-8.193299399999999,82.1621772,-6.60047616,99.45977922
2.6399999999999997,264,0.329,-1.133,-0.228,13.750992000000002,21.027558600000006,-4.583664,82.2767688,-6.5317212,99.66031452
2.65,265,0.07200000000000001,-0.97,-0.303,13.5791046,22.2880662,-2.9793816000000004,82.38563081999997,-6.474425399999999,99.87803856
2.6599999999999997,266,-0.184,-0.826,-0.334,12.2040054,20.9702628,-8.136003599999999,82.48303368,-6.37129296,100.07857386
2.67,267,-0.305,-0.848,-0.295,15.5844576,19.0795014,-17.4179232,82.62054359999998,-6.18221682,100.24473168
2.6799999999999997,268,-0.339,-0.946,-0.253,21.9442914,17.761698000000006,-25.210152,82.79816058,-5.953033619999999,100.39943034
2.69,269,-0.298,-1.0590000000000002,-0.263,17.5325148,21.1421502,-28.4760126,82.95285924,-5.64936588,100.57704732
2.6999999999999997,270,-0.248,-1.173,-0.3,13.0061466,21.9442914,-26.69984280000001,83.06745083999998,-5.3628868800000005,100.76039388
2.71,271,-0.182,-1.273,-0.28,11.45916,23.4339822,-22.2880662,83.15912412,-5.1222445200000015,100.96665876
2.7199999999999998,272,-0.13,-1.279,-0.242,8.479778399999999,25.6685184,-17.18874,83.2221495,-4.9274388,101.20157154
2.73,273,-0.099,-1.24,-0.204,5.042030400000002,26.5279554,-12.9488508,83.23933824000002,-4.77274014,101.45367306
2.7399999999999998,274,-0.086,-1.168,-0.171,-0.1718874,25.6112226,-10.313244,83.21069034,-4.65241896,101.69431542
2.75,275,-0.086,-1.096,-0.141,-4.6982556,22.4026578,-9.740286,83.14766496,-4.53209778,101.9005803
2.76,276,-0.076,-1.063,-0.108,-2.8074942000000003,21.2567418,-10.0840608,83.09609874,-4.41750618,102.1011156
2.77,277,-0.039,-1.061,-0.064,-7.8495246,20.6837838,-11.917526400000002,82.99869588,-4.27999626,102.29019174
2.78,278,0.008,-1.05,-0.08,-18.2200644,21.2567418,-14.7250206,82.80389016000002,-4.09092012,102.47926788
2.79,279,0.042,-1.019,-0.109,-21.3713334,22.631841,-17.761698000000006,82.56897738,-3.896114400000001,102.67980318
2.8,280,0.063,-0.979,-0.116,-20.3973048,23.4339822,-20.798375399999998,82.34552376,-3.6669312000000014,102.88033848
2.81,281,0.037000000000000005,-0.934,-0.13,-19.7097552,25.4393352,-23.835052800000003,82.12779972,-3.4091001000000003,103.09806252
2.82,282,0.017,-0.93,-0.136,-22.345362,28.6479,-27.1009134,81.88142778,-3.11116194,103.33870488
2.8299999999999996,283,-0.01,-0.923,-0.127,-27.788463,30.8251404,-28.934379,81.57776004,-2.79030546,103.60226556
2.84,284,-0.006,-0.91,-0.121,-29.9084076,31.111619399999995,-28.934379,81.26263314,-2.46944898,103.86009666
2.8499999999999996,285,0.011,-0.904,-0.14,-29.5646328,30.3094782,-27.444688199999998,80.94750624,-2.1657812400000003,104.11219818
2.86,286,0.045,-0.883,-0.15,-27.6165756,26.8717302,-25.3820394,80.64956808000002,-1.88503182,104.3356518
2.8699999999999997,287,0.08199999999999999,-0.873,-0.129,-27.043617600000005,22.345362,-24.0069402,80.36881866,-1.62147114,104.51326878
2.88,288,0.108,-0.8640000000000001,-0.1,-28.074942,17.7044022,-23.7204612,80.08233966,-1.34072172,104.63931954000002
2.8899999999999997,289,0.116,-0.856,-0.07200000000000001,-28.5333084,14.2093584,-25.6112226,79.79013108000002,-1.07143146,104.7367224
2.9,290,0.124,-0.8270000000000001,-0.052000000000000005,-30.65325300000001,11.688343199999998,-28.4187168,79.47500418000001,-0.7792228800000001,104.7940182
2.9099999999999997,291,0.103,-0.794,-0.077,-38.0444112,8.479778399999999,-30.080295,79.08539274,-0.47555514,104.82266610000002
2.92,292,0.064,-0.763,-0.116,-36.955791,9.740286,-31.51269000000001,78.70724046000002,-0.15469866,104.851314
2.9299999999999997,293,0.04,-0.784,-0.1,-29.4500412,12.1467096,-32.31483119999999,78.42076146,0.17761697999999998,104.90288022
2.94,294,0.01,-0.821,-0.058,-30.8251404,16.7303736,-32.4294228,78.10563456,0.5156622000000001,105.00028308
2.9499999999999997,295,-0.023,-0.8390000000000001,-0.037000000000000005,-33.1742682,20.168121600000006,-31.4553942,77.76758934,0.8594370000000001,105.13206342
2.96,296,-0.054000000000000006,-0.816,-0.043,-30.8824362,22.173474600000002,-29.9084076,77.45246244,1.18602306,105.2810325
2.9699999999999998,297,-0.071,-0.802,-0.027000000000000003,-23.5485738,22.9756158,-28.4187168,77.21182008000002,1.50114996,105.44146074
2.98,298,-0.07,-0.7959999999999999,0.011,-17.4179232,21.4286292,-25.55392680000001,77.06858058,1.77044022,105.59042981999998
2.9899999999999998,299,-0.054000000000000006,-0.797,0.029,-13.407217200000002,21.199446,-21.199446,76.93680024,2.01681216,105.75085806
3.0,300,-0.025,-0.8079999999999999,0.041,-8.7662574,22.631841,-16.673077799999998,76.85085654000002,2.22307704,105.93420462000002
3.01,301,0.023,-0.836,0.041,-3.8961144,23.491278,-11.6310474,76.81647905999998,2.38350528,106.13473992000002
3.02,302,0.096,-0.858,0.034,-1.145916,22.9756158,-6.130650599999999,76.81074948,2.48663772,106.3410048
3.03,303,0.16899999999999998,-0.89,0.022,1.3750992,20.912967,-0.286479,76.92534108,2.61268848,106.54154009999998
3.04,304,0.23,-0.94,-0.035,6.760904399999999,16.042824000000003,5.0993262,76.99982562,2.59549974,106.7134275
3.05,305,0.279,-1.036,-0.086,14.9542038,4.6409598,10.313244,77.15452428,2.50382646,106.78218246000002
3.06,306,0.319,-1.221,-0.077,20.8556712,-11.45916,16.1001198,77.36651874,2.33193906,106.70769792
3.07,307,0.337,-1.391,-0.269,11.45916,-25.1528562,20.798375399999998,77.48111034,2.07983754,106.50716262
3.08,308,0.319,-1.555,-0.478,3.0366774,-24.1215318,21.829699800000004,77.50402865999997,1.82773602,106.31808648
3.09,309,0.256,-1.766,-0.639,-1.145916,-20.626488,15.985528200000001,77.48683992,1.6329303,106.15192866
3.0999999999999996,310,0.18,-1.864,-0.7040000000000001,-0.7448454000000001,-17.246035799999998,4.6982556,77.48111034,1.55844576,105.99150042
3.11,311,0.003,-1.822,-0.6829999999999999,6.760904399999999,-26.1268848,-6.990087599999999,77.54413572000001,1.5756344999999998,105.72221016
3.1199999999999997,312,-0.28,-1.621,-0.584,13.980175199999998,-38.961144,-11.0007936,77.68164564,1.6157415599999996,105.32686914
3.13,313,-0.383,-1.3219999999999998,-0.412,18.048177,-42.34159620000001,-5.958763200000001,77.84207388,1.55844576,104.90288022
3.1399999999999997,314,-0.11,-1.073,-0.284,16.157415599999997,-43.3156248,7.8495246,78.00250212,1.4037471,104.50180962
3.15,315,0.124,-0.925,-0.3,10.4278356,-42.62807520000001,25.6112226,78.10563456,1.08289062,104.14084608
3.1599999999999997,316,0.215,-0.836,-0.337,8.250595200000001,-40.164355799999996,39.0757356,78.19157826,0.6302538000000001,103.82571918
3.17,317,0.197,-0.821,-0.32,4.8128472,-37.52874900000001,46.065823200000004,78.24887406,0.12032118,103.55642892
3.1799999999999997,318,0.135,-0.8270000000000001,-0.293,-0.4010706,-34.60666320000001,44.51883660000001,78.22022616,-0.34950438,103.3043274
3.19,319,0.071,-0.871,-0.297,-3.151269,-33.116972399999995,36.955791,78.19730784,-0.76776372,103.05222588
3.1999999999999997,320,0.015,-0.958,-0.297,-2.9220857999999996,-30.9970278,26.41336380000001,78.17438952,-1.07716104,102.80585394
3.21,321,0.001,-1.062,-0.29600000000000004,-0.4010706,-28.1322378,16.615782,78.1801191,-1.2891555000000001,102.56521158
3.2199999999999998,322,-0.006999999999999999,-1.104,-0.301,-0.9167328,-29.220858000000003,11.4018642,78.1801191,-1.44958374,102.3016509
3.23,323,-0.038,-1.062,-0.275,-1.145916,-34.7785506,12.834259199999998,78.16865994000003,-1.6386598799999998,101.99225357999998
3.2399999999999998,324,-0.054000000000000006,-0.981,-0.255,1.0886202,-39.247623,17.8189938,78.19157826,-1.88503182,101.6427492
3.25,325,-0.053,-0.8859999999999999,-0.228,2.4637194,-41.7113424,23.14750320000001,78.2374149,-2.18296998,101.28178566
3.26,326,-0.057,-0.8220000000000001,-0.163,3.2658606,-41.4821592,26.642547,78.29471070000002,-2.51528562,100.93228128
3.27,327,-0.067,-0.787,-0.132,0.3437748,-40.33624320000001,27.3873924,78.31762902,-2.84760126,100.59423606
3.28,328,-0.084,-0.75,-0.118,-4.7555514,-40.7946096,25.210152,78.29471070000002,-3.1741873200000006,100.24473168
3.29,329,-0.102,-0.701,-0.119,-9.568398599999998,-40.33624320000001,21.5432208,78.22595574,-3.45493674,99.89522729999999
3.3,330,-0.134,-0.659,-0.127,-11.2872726,-39.3622146,18.1054728,78.14001204,-3.70130868,99.54572292
3.31,331,-0.173,-0.652,-0.13,-10.1986524,-38.3308902,15.813640800000002,78.05979792000002,-3.9247623,99.20194812
3.32,332,-0.194,-0.68,-0.134,-8.59437,-36.955791,16.673077799999998,78.00250212,-4.1539455,98.87536206
3.33,333,-0.187,-0.7340000000000001,-0.157,-5.5576926,-36.1536498,19.5378678,77.96812464000001,-4.43469492,98.56596474
3.34,334,-0.166,-0.7859999999999999,-0.152,-1.145916,-35.0077338,23.376686399999997,77.98531338000002,-4.72117392,98.27375616
3.3499999999999996,335,-0.141,-0.8170000000000001,-0.147,3.3231564,-33.002380800000005,27.5592798,78.04833876000002,-5.04775998,98.0044659
3.36,336,-0.104,-0.8220000000000001,-0.121,8.021412000000002,-30.194886600000004,31.1689152,78.15720078000003,-5.40299394,97.7752827
3.3699999999999997,337,-0.071,-0.8059999999999999,-0.08199999999999999,12.605076,-26.7571386,32.658606,78.30616986,-5.76968706,97.58047698
3.38,338,-0.052000000000000005,-0.7609999999999999,-0.061,10.7143146,-25.78311,32.830493399999995,78.44940936,-6.12492102,97.39140084
3.3899999999999997,339,-0.065,-0.701,-0.078,8.59437,-26.69984280000001,31.054323600000004,78.56400096,-6.474425399999999,97.19086554
3.4,340,-0.081,-0.677,-0.065,7.0473834,-28.5906042,28.762491600000004,78.6671334,-6.8010114600000025,96.96741192
3.4099999999999997,341,-0.115,-0.667,-0.073,5.1566220000000005,-30.8251404,26.069589,78.7530771,-7.1046792000000005,96.7153104
3.42,342,-0.13699999999999998,-0.6859999999999999,-0.057,4.010706000000001,-33.0596766,23.6631654,78.83329122,-7.3911582,96.43456098
3.4299999999999997,343,-0.135,-0.721,-0.037000000000000005,1.3178034,-35.6379876,20.8556712,78.91350534,-7.66044846,96.12516366
3.44,344,-0.12,-0.758,-0.037000000000000005,-1.5469866,-37.52874900000001,17.3606274,78.94788281999998,-7.889631660000001,95.78711844
3.4499999999999997,345,-0.102,-0.7829999999999999,-0.06,-4.3544808,-39.1330314,13.9228794,78.95934198,-8.09016696,95.4261549
3.46,346,-0.093,-0.8059999999999999,-0.067,-4.9847345999999995,-40.8519054,11.0007936,78.96507156,-8.262054359999999,95.04800262
3.4699999999999998,347,-0.093,-0.818,-0.047,-4.9274388,-40.966497,7.5630456000000015,78.97653072,-8.40529386,94.65839118
3.48,348,-0.107,-0.8270000000000001,-0.059,-4.4117766,-41.9978214,6.3598338,79.01663778,-8.53134462,94.251591
3.4899999999999998,349,-0.133,-0.843,-0.05,-3.0366774,-42.2270046,5.6722842,79.05101526000001,-8.65739538,93.84479082
3.5,350,-0.162,-0.8690000000000001,-0.039,-3.2658606,-39.877876799999996,4.4117766,79.08539274,-8.7662574,93.46090896
3.51,351,-0.198,-0.904,-0.057,-4.010706000000001,-36.4974246,2.5210152000000003,79.10258148,-8.84647152,93.09994542
3.52,352,-0.244,-0.948,-0.065,-2.6929026,-33.2888598,0.0,79.13122938000002,-8.90376732,92.77335936
3.53,353,-0.302,-0.986,-0.051,0.8021411999999999,-30.8251404,-2.7501984,79.23436182,-8.98398144,92.46396204
3.54,354,-0.358,-1.01,-0.036000000000000004,4.8128472,-28.934379,-5.5003968,79.33176468,-8.97252228,92.16602387999998
3.55,355,-0.381,-1.02,-0.038,8.59437,-27.2728008,-8.193299399999999,79.46927459999998,-8.93241522,91.88527446
3.56,356,-0.35700000000000004,-1.031,-0.018000000000000002,10.1413566,-25.1528562,-9.3392154,79.61824368,-8.880849000000003,91.62171378
3.57,357,-0.303,-1.041,0.002,11.172681,-23.204799,-10.7143146,79.77294234,-8.81209404,91.36961226
3.58,358,-0.252,-1.044,0.021,10.3705398,-22.345362,-12.5477802,79.96774806,-8.7376095,91.12324032
3.59,359,-0.211,-1.052,0.032,9.8548776,-20.454600600000006,-14.896907999999998,80.10525798,-8.623017899999999,90.8997867
3.5999999999999996,360,-0.203,-1.094,-0.083,5.443101,-22.91832,-17.131444199999994,80.20266084,-8.48550798,90.6419556
3.61,361,-0.196,-1.18,-0.279,-3.4377480000000005,-24.9809688,-19.308684600000007,80.20839042,-8.33080932,90.36120618
3.6199999999999997,362,-0.189,-1.3330000000000002,-0.46,-10.886202,-33.1742682,-18.5638392,80.1568242,-8.19902898,90.00024264
3.63,363,-0.16699999999999998,-1.577,-0.545,-17.8189938,-49.7327544,-13.6936962,80.04796218,-8.136003599999999,89.48458044
3.6399999999999997,364,-0.056,-1.761,-0.482,-17.6471064,-56.0352924,-8.307891,79.9562889,-8.136003599999999,88.91735202
3.65,365,0.201,-1.791,-0.29600000000000004,-10.4278356,-56.3790672,-6.130650599999999,79.93910016,-8.158921920000001,88.34439402000002
3.6599999999999997,366,0.39,-1.547,-0.12,-14.2093584,-54.25912260000001,-10.5424272,79.88180436,-8.136003599999999,87.78862475999998
3.67,367,0.255,-1.218,-0.084,-24.5798982,-50.133825,-16.272007199999994,79.70991696000002,-8.05578948,87.26723297999996
3.6799999999999997,368,-0.032,-1.027,-0.156,-24.7517856,-44.51883660000001,-24.064235999999998,79.53229998,-7.88390208,86.78021868
3.69,369,-0.277,-0.959,-0.225,-16.902261,-37.0703826,-35.695283399999994,79.42343796,-7.59742308,86.35050018
3.6999999999999997,370,-0.456,-0.986,-0.298,-9.568398599999998,-30.4240698,-48.3003594,79.37760132,-7.1734341599999984,85.96088874
3.71,371,-0.5329999999999999,-1.023,-0.314,-2.9793816000000004,-26.69984280000001,-54.20182679999999,79.39479005999998,-6.686419860000001,85.5999252
3.7199999999999998,372,-0.54,-1.033,-0.292,1.2605076000000002,-26.069589,-51.6235158,79.44635628,-6.22232388,85.25042082
3.73,373,-0.498,-0.982,-0.299,2.8074942000000003,-27.788463,-42.685371,79.49219292000002,-5.9014674000000005,84.90664602000003
3.7399999999999998,374,-0.436,-0.941,-0.28800000000000003,4.6409598,-29.335449600000004,-29.7365202,79.57813662,-5.65509546,84.56287122
3.75,375,-0.34700000000000003,-0.906,-0.293,2.0626488000000003,-28.934379,-16.7876694,79.63543242,-5.53477428,84.24774432000002
3.76,376,-0.252,-0.901,-0.31,0.5156622000000001,-28.7051958,-6.6463128000000005,79.66980989999998,-5.51758554,83.95553574
3.77,377,-0.16,-0.8909999999999999,-0.305,-0.8594370000000001,-28.2468294,-0.11459160000000004,79.69272822,-5.5576926,83.6805159
3.78,378,-0.065,-0.8490000000000001,-0.287,-1.2032118,-24.5798982,2.1772404,79.63543242,-5.5863405,83.43987354000002
3.79,379,0.013,-0.7909999999999999,-0.262,3.6669312000000014,-20.798375399999998,0.11459160000000004,79.69272822,-5.62071798,83.23933824000002
3.8,380,0.093,-0.725,-0.231,7.3911582,-20.3973048,-3.4950437999999995,79.79013108000002,-5.6149884000000005,83.03307336
3.81,381,0.165,-0.687,-0.233,8.9954406,-22.6891368,-7.333862400000001,79.91045226,-5.574881339999999,82.79816058
3.82,382,0.23,-0.675,-0.237,9.1100322,-26.41336380000001,-10.0840608,80.03077343999998,-5.51185596,82.52314074
3.83,383,0.269,-0.6970000000000001,-0.22,8.880849000000003,-32.4294228,-11.917526400000002,80.13390588000001,-5.36861646,82.17936594
3.84,384,0.274,-0.752,-0.199,8.4224826,-39.9924684,-13.0061466,80.26568621999998,-5.29413192,81.76110659999998
3.8499999999999996,385,0.237,-0.8340000000000001,-0.192,7.8495246,-47.67010560000001,-14.5531332,80.39746656,-5.21964738,81.27409229999998
3.86,386,0.18600000000000005,-0.91,-0.182,8.136003599999999,-54.6601932,-16.902261,80.53497648,-5.1279740999999985,80.70686388
3.8699999999999997,387,0.11,-1.008,-0.168,9.797581800000001,-59.93140680000001,-20.3973048,80.70113429999998,-5.00765292,80.08806924
3.88,388,0.028,-1.106,-0.166,8.8235532,-62.22323879999999,-25.8977016,80.85010338000002,-4.82430636,79.43489712
3.8899999999999997,389,-0.037000000000000005,-1.137,-0.162,8.479778399999999,-64.28588760000001,-30.252182399999995,80.99907246000002,-4.60658232,78.7530771
3.9,390,-0.08199999999999999,-1.122,-0.156,7.8495246,-65.2026204,-31.971056400000002,81.14231196,-4.37166954,78.0655275
3.9099999999999997,391,-0.102,-1.07,-0.15,6.5317212,-66.4058322,-31.5699858,81.26836272,-4.14821592,77.36651874
3.92,392,-0.095,-1.013,-0.131,5.443101,-69.041439,-29.621928600000004,81.38295432,-3.93622146,76.64459166
3.9299999999999997,393,-0.067,-0.946,-0.135,1.7761698,-71.21867940000001,-27.215505,81.45743886,-3.752874900000001,75.90547584
3.94,394,-0.03,-0.89,-0.139,-0.3437748,-72.192708,-24.923673,81.50900508000002,-3.59244666,75.16063044
3.9499999999999997,395,0.003,-0.879,-0.127,-1.0313244,-72.9948492,-23.5485738,81.55484172,-3.4492071599999994,74.40432588
3.96,396,0.02,-0.8909999999999999,-0.128,-2.6356068,-73.911582,-22.631841,81.58348962,-3.31742682,73.64802132
3.9699999999999998,397,0.041,-0.914,-0.129,-4.2398892,-75.343977,-21.8869956,81.59494878,-3.18564648,72.87452801999999
3.98,398,0.058,-0.94,-0.116,-7.1046792000000005,-78.2660628,-20.9702628,81.57776004,-3.05959572,72.07238682
3.9899999999999998,399,0.066,-0.959,-0.112,-10.9434978,-81.360036,-20.2254174,81.52046424,-2.9564632800000004,71.24159771999999
4.0,400,0.07400000000000001,-0.963,-0.135,-12.6623718,-83.19350159999998,-19.7097552,81.4459797,-2.86479,70.39361987999997
4.01,401,0.066,-0.962,-0.131,-11.172681,-84.96967140000002,-19.2513888,81.38295432,-2.7788463,69.5284533
4.02,402,0.053,-0.952,-0.122,-9.0527364,-85.54262940000002,-19.4232762,81.34284726,-2.6929026,68.65755714000001
4.03,403,0.038,-0.937,-0.115,-6.3598338,-86.63124959999998,-20.511896399999998,81.3313881,-2.58404058,67.77520182
4.04,404,0.03,-0.928,-0.091,-4.297185,-87.8917572,-22.1161788,81.34284726,-2.47517856,66.88138734
4.05,405,0.033,-0.929,-0.071,-3.2085648,-88.06364459999998,-23.835052800000003,81.35430642,-2.3491277999999998,65.98184327999999
4.06,406,0.04,-0.931,-0.068,-3.2085648,-88.52201099999998,-24.9809688,81.37149516,-2.21161788,65.07656964
4.07,407,0.048,-0.933,-0.065,-3.6096354,-88.9230816,-25.2674478,81.37722474,-2.06837838,64.16556641999999
4.08,408,0.048,-0.929,-0.041,-5.1566220000000005,-91.0430262,-24.637194,81.38295432,-1.92513888,63.23164488
4.09,409,0.043,-0.914,-0.032,-7.0473834,-92.70460440000001,-23.2620948,81.35430642,-1.81054728,62.28626418
4.1,410,0.04,-0.89,-0.059,-5.3858052,-93.7932246,-20.7410796,81.34284726,-1.7246035799999997,61.3351539
4.109999999999999,411,0.042,-0.878,-0.049,-1.7761698,-97.4601558,-18.2200644,81.36576558,-1.6615782,60.35539572
4.12,412,0.049,-0.8740000000000001,-0.04,0.7448454000000001,-101.0697912,-15.813640800000002,81.41160221999998,-1.6272007199999998,59.33553048
4.13,413,0.063,-0.871,-0.055,3.2658606,-105.65345520000001,-13.464512999999998,81.49754592000002,-1.61001198,58.28128776
4.14,414,0.084,-0.866,-0.052000000000000005,5.844171599999999,-110.6954856,-11.229976800000001,81.60067836,-1.6272007199999998,57.1812084
4.1499999999999995,415,0.112,-0.8590000000000001,-0.043,7.5057497999999985,-115.2791496,-9.1100322,81.72672911999999,-1.67303736,56.03529239999999
4.16,416,0.139,-0.845,-0.051,8.7662574,-118.9460808,-7.0473834,81.86423904,-1.73606274,54.85499892
4.17,417,0.159,-0.836,-0.049,10.313244,-122.4984204,-5.5003968,82.02466728,-1.81627686,53.64605754
4.18,418,0.16399999999999998,-0.841,-0.043,11.516455800000001,-126.3945348,-4.2398892,82.20801384,-1.8907613999999997,52.39700910000001
4.1899999999999995,419,0.158,-0.8690000000000001,-0.05,11.229976800000001,-129.94687439999998,-3.6669312000000014,82.37990124000002,-1.99389384,51.11358317999999
4.2,420,0.139,-0.916,-0.043,9.9121734,-132.1241148,-3.724227,82.54605906,-2.0912967,49.81296852000001
4.21,421,0.108,-0.988,-0.064,8.021412000000002,-134.072172,-4.2398892,82.69502814,-2.1772404,48.48943554
4.22,422,0.064,-1.061,-0.08199999999999999,5.0993262,-136.93696200000002,-5.2712136,82.81534932000002,-2.25745452,47.13152508
4.2299999999999995,423,0.006999999999999999,-1.141,-0.098,2.4637194,-140.60389320000002,-6.760904399999999,82.91848175999998,-2.32620948,45.73923714
4.24,424,-0.061,-1.224,-0.187,-0.11459160000000004,-145.4740362,-9.1100322,82.99296629999998,-2.37204612,44.29538298
4.25,425,-0.136,-1.335,-0.187,-4.583664,-145.30214880000003,-13.521808800000002,83.02734378,-2.37204612,42.85152882
4.26,426,-0.197,-1.47,-0.102,-7.9641161999999985,-136.93696200000002,-21.3713334,83.0216142,-2.2918320000000003,41.47642962
4.27,427,-0.223,-1.49,-0.08199999999999999,-11.3445684,-128.9728458,-25.55392680000001,82.97004798,-2.16005166,40.17581496
4.28,428,-0.242,-1.337,-0.106,-12.318597,-130.5198324,-21.772404,82.91275218,-2.07983754,38.85801156
4.29,429,-0.236,-1.125,-0.07400000000000001,-7.9641161999999985,-134.98890480000003,-14.32395,82.90129302,-2.06837838,37.51156026
4.3,430,-0.209,-0.974,-0.069,-4.297185,-137.79639899999998,-7.2765666,82.92421134,-2.12567418,36.14792022
4.31,431,-0.16399999999999998,-0.8740000000000001,-0.077,-2.2345362,-137.5672158,-1.145916,82.97004798,-2.24026578,34.79000976
4.32,432,-0.111,-0.8290000000000001,-0.049,-0.572958,-135.1034964,4.0680017999999984,83.03880294000002,-2.4064236,33.46647678
4.33,433,-0.056,-0.812,0.005,0.5156622000000001,-130.7490156,7.6203414,83.12474663999998,-2.6012293200000003,32.18878044
4.34,434,0.0,-0.812,0.04,0.8021411999999999,-125.764281,7.7922288,83.21069034,-2.79030546,30.95692074
4.35,435,0.04,-0.828,0.066,-1.5469866,-122.72760359999998,3.8961144,83.27371572000001,-2.93927454,29.74797936
4.36,436,0.047,-0.848,0.079,-5.7868758000000025,-123.2432658,-2.3491278,83.29090446000002,-3.02521824,28.53330840000001
4.37,437,0.029,-0.86,0.092,-7.6776372,-126.337239,-8.7089616,83.29663404,-3.05386614,27.27853038
4.38,438,-0.011,-0.8740000000000001,0.106,-6.1879464,-130.061466,-14.0947668,83.34247067999998,-3.02521824,25.97791572
4.39,439,-0.054000000000000006,-0.901,0.08900000000000001,-4.8701430000000006,-133.1554392,-18.449247600000003,83.37684816,-2.96219286,24.64292358
4.3999999999999995,440,-0.09,-0.917,0.076,-4.3544808,-135.27538380000001,-21.6005166,83.4226848,-2.86479,23.28501312
4.41,441,-0.096,-0.94,0.08,-2.7501984,-136.7650746,-22.86102420000001,83.4799806,-2.75592798,21.90991392
4.42,442,-0.083,-0.973,0.093,-0.4583664000000001,-138.94231499999998,-22.459953600000002,83.55446514,-2.65279554,20.51762598
4.43,443,-0.07,-0.999,0.107,0.1718874,-141.6352176,-21.6005166,83.65759758,-2.55539268,19.09669014
4.4399999999999995,444,-0.068,-1.008,0.109,0.057295800000000015,-143.0103168,-21.3140376,83.74354128,-2.4637194,17.66429514
4.45,445,-0.076,-1.014,0.12,0.286479,-143.4686832,-22.0015872,83.82375540000002,-2.36058696,16.22617056
4.46,446,-0.085,-1.022,0.133,-0.286479,-143.4113874,-23.491278,83.89823994000002,-2.24026578,14.78804598
4.47,447,-0.098,-1.02,0.124,-1.2605076000000002,-141.6925134,-25.0382646,83.95553574,-2.10275586,13.361380559999995
4.4799999999999995,448,-0.114,-1.014,0.124,-1.0313244,-138.7131318,-26.41336380000001,84.03002028,-1.95378678,11.96909262
4.49,449,-0.132,-1.007,0.136,0.6875496,-135.50456699999998,-27.5592798,84.09877524000002,-1.78189938,10.60545258
4.5,450,-0.138,-0.98,0.141,2.4064236,-132.75436860000002,-27.7311672,84.18471894,-1.6042824000000002,9.27046044
4.51,451,-0.142,-0.934,0.14400000000000002,4.6409598,-131.2646778,-26.814434400000003,84.2821218,-1.432395,7.94692746
4.52,452,-0.145,-0.897,0.146,7.161975,-129.8895786,-26.0122932,84.40244298,-1.26623718,6.640583220000001
4.53,453,-0.14800000000000002,-0.878,0.158,9.167328,-128.34259200000002,-25.4393352,84.56287122,-1.11153852,5.35142772
4.54,454,-0.15,-0.877,0.168,10.1413566,-127.0820844,-25.3247436,84.70611072,-0.9453806999999999,4.0794609600000005
4.55,455,-0.16,-0.8909999999999999,0.158,11.3445684,-124.9621398,-25.55392680000001,84.8550798,-0.76776372,2.82468294
4.56,456,-0.172,-0.919,0.125,12.032117999999999,-121.3525044,-26.1268848,85.00977845999998,-0.5844171599999999,1.6042824000000002
4.57,457,-0.187,-0.958,0.09,11.0580894,-120.2638842,-26.356068,85.14728838,-0.38961144,0.4010706000000001
4.58,458,-0.194,-1.013,0.081,10.7143146,-118.77419340000002,-26.1841806,85.2847983,-0.21199446,-0.7906820400000001
4.59,459,-0.18600000000000005,-1.085,-0.02,7.906820400000001,-115.7948118,-24.8663772,85.38793074,-0.02291832,-1.9480572000000005
4.6,460,-0.174,-1.14,-0.053,5.5576926,-118.6596018,-21.6578124,85.45668570000002,0.12032118,-3.1398098400000003
4.61,461,-0.151,-1.192,-0.056,5.2139178,-119.6909262,-17.303331600000003,85.51971108000002,0.23491278,-4.3315624800000005
4.62,462,-0.102,-1.23,-0.086,3.0366774,-116.023995,-11.9748222,85.55981814,0.29793816,-5.48893764
4.63,463,-0.028,-1.287,-0.166,-2.9220857999999996,-116.310474,-5.2139178,85.53689982,0.29220857999999994,-6.640583220000001
4.64,464,0.053,-1.367,-0.166,-4.6982556,-123.8162238,2.7501984,85.49679276,0.20053530000000008,-7.860983760000001
4.6499999999999995,465,0.146,-1.38,-0.08900000000000001,-0.9167328,-128.34259200000002,9.8548776,85.50252234,0.04010706,-9.12149136
4.66,466,0.182,-1.233,-0.04,-0.11459160000000004,-131.60845260000002,14.4385416,85.51971108000002,-0.16615782,-10.41064686
4.67,467,0.146,-0.982,0.004,1.2605076000000002,-137.22344099999998,17.131444199999994,85.55981814,-0.4010706000000001,-11.75136858
4.68,468,0.095,-0.8029999999999999,0.044,2.2345362,-140.4320058,17.0168526,85.62284352,-0.6302538000000001,-13.12646778
4.6899999999999995,469,0.047,-0.6859999999999999,0.079,-0.057295800000000015,-140.7757806,14.7823164,85.65722099999998,-0.8422482600000001,-14.501566980000002
4.7,470,0.001,-0.637,0.095,-2.8074942000000003,-138.1974696,11.2872726,85.67440974,-1.01986524,-15.859477439999996
4.71,471,-0.058,-0.6559999999999999,0.113,-3.6096354,-133.4419182,6.2452422,85.68013932,-1.1459160000000002,-17.17728084
4.72,472,-0.132,-0.752,0.147,-3.8961144,-125.70698519999999,-0.8021411999999999,85.68013932,-1.19748222,-18.41487012
4.7299999999999995,473,-0.21,-0.901,0.174,-5.7868758000000025,-117.1126152,-9.224623800000002,85.6858689,-1.18602306,-19.58370444
4.74,474,-0.279,-1.025,0.183,-8.9381448,-109.77875279999999,-16.4438946,85.63430267999998,-1.07716104,-20.67805422
4.75,475,-0.34700000000000003,-1.112,0.155,-10.0840608,-103.1897358,-19.480572,85.55981814,-0.93392154,-21.7151082
4.76,476,-0.394,-1.131,0.121,-7.3911582,-95.7985776,-15.756345000000001,85.5139815,-0.8250595199999999,-22.67194806
4.77,477,-0.3720000000000001,-1.137,0.08800000000000001,-2.6356068,-87.4333908,-7.7922288,85.50825191999998,-0.7906820400000001,-23.54284422
4.78,478,-0.285,-1.166,0.042,4.8128472,-78.6671334,2.0626488000000003,85.59419562000002,-0.87662574,-24.31633752
4.79,479,-0.13,-1.221,0.036000000000000004,10.313244,-69.55710119999999,10.4278356,85.72024638,-1.01413566,-24.99815754
4.8,480,0.035,-1.261,0.064,9.6829902,-60.9627312,15.5844576,85.83483798,-1.19175264,-25.58830428
4.81,481,0.146,-1.228,0.045,10.3705398,-54.54560160000001,16.501190400000002,85.96088874,-1.38082878,-26.11542564
4.82,482,0.179,-1.176,0.084,12.5477802,-52.2537696,13.0061466,86.10985782,-1.52979786,-26.61962868
4.83,483,0.182,-1.0590000000000002,0.092,4.4117766,-55.80610920000001,8.021412000000002,86.2015311,-1.5813640800000002,-27.163938779999995
4.84,484,0.158,-0.948,0.039,3.8961144,-61.5356892,4.1252976000000015,86.27028606,-1.64438946,-27.76554468
4.85,485,0.138,-0.89,0.034,11.0580894,-68.6976642,1.145916,86.40779597999996,-1.6787669399999998,-28.4473647
4.86,486,0.13699999999999998,-0.853,0.048,14.667724800000002,-76.48989300000002,0.0,86.59114253999998,-1.70168526,-29.19793968
4.87,487,0.157,-0.818,0.06,15.813640800000002,-83.7091638,0.5156622000000001,86.78594826,-1.73033316,-30.022999200000005
4.88,488,0.172,-0.8170000000000001,0.09,17.246035799999998,-90.3554766,2.8074942000000003,87.02086104,-1.75325148,-30.9110841
4.89,489,0.173,-0.8190000000000001,0.086,14.381245800000002,-93.392154,5.6149884000000005,87.20993718,-1.82773602,-31.83354648000001
4.8999999999999995,490,0.155,-0.8370000000000001,0.044,10.9434978,-98.4914802,8.880849000000003,87.36463583999998,-1.93659804,-32.8018455
4.91,491,0.114,-0.882,0.057,9.8548776,-107.4869208,12.6623718,87.5193345,-2.07983754,-33.85608822
4.92,492,0.068,-0.933,0.073,9.2819196,-111.49762679999999,15.2979786,87.66830358,-2.24599536,-34.95616758
4.93,493,0.042,-0.979,0.044,7.9641161999999985,-115.56562859999998,17.475219,87.81727266,-2.42361234,-36.09062442
4.9399999999999995,494,0.036000000000000004,-1.01,-0.034,0.1718874,-122.1546456,18.907614000000002,87.88602762000002,-2.61841806,-37.29383622
4.95,495,0.009000000000000001,-1.015,-0.104,-12.0894138,-129.54580380000002,18.2200644,87.84019098,-2.81322378,-38.57153256
4.96,496,-0.052000000000000005,-1.002,-0.022,-19.1367972,-129.1447332,13.2353298,87.73132896,-2.96219286,-39.84349932
4.97,497,-0.14,-0.995,0.118,-19.1367972,-122.040054,2.86479,87.61673736,-3.0080295,-41.0524407
4.9799999999999995,498,-0.248,-0.989,0.14800000000000002,-20.168121600000006,-108.5182452,-10.9434978,87.49641618000004,-2.94500412,-42.13533132
4.99,499,-0.35600000000000004,-0.96,0.12,-24.2361234,-86.7458412,-23.376686399999997,87.30734004,-2.72728008,-43.00622748
5.0,500,-0.411,-0.914,0.029,-29.1062664,-64.8015498,-31.4553942,87.04950894,-2.42934192,-43.66512918
5.01,501,-0.475,-0.885,-0.013,-31.971056400000002,-51.852699,-35.9244666,86.75157078,-2.0912967,-44.20370970000001
5.02,502,-0.484,-0.967,0.013,-22.2307704,-44.690724,-33.6326346,86.5453059,-1.77044022,-44.66780568
5.03,503,-0.484,-1.051,0.077,-10.1986524,-39.47680620000001,-26.2414764,86.48228051999996,-1.59282324,-45.08033544
5.04,504,-0.405,-1.158,0.057,-5.6722842,-33.518043,-14.7823164,86.43644388,-1.4610428999999998,-45.41838066
5.05,505,-0.264,-1.227,0.033,-5.6722842,-33.116972399999995,2.291832,86.39060724,-1.49542038,-45.74496672
5.06,506,-0.109,-1.255,0.052000000000000005,-3.2085648,-36.669312,20.1108258,86.37341849999999,-1.7074148399999998,-46.0944711
5.07,507,0.009000000000000001,-1.261,0.064,-0.4010706,-40.680018,32.8877892,86.39060724,-2.04546006,-46.47835296
5.08,508,0.064,-1.2,0.069,-0.9167328,-44.5761324,38.10170700000001,86.41925513999998,-2.42361234,-46.8966123
5.09,509,0.07,-1.103,0.09,-1.9480572,-48.6441342,36.4401288,86.42498472,-2.80176462,-47.354978700000004
5.1,510,0.071,-0.992,0.103,-0.3437748,-53.628868800000006,30.1375908,86.4593622,-3.11689152,-47.8706409
5.11,511,0.091,-0.8740000000000001,0.116,-0.2291832000000001,-59.53033620000001,21.8869956,86.49373968,-3.35753388,-48.4435989
5.12,512,0.107,-0.785,0.131,0.1718874,-65.3745078,13.0061466,86.5453059,-3.50650296,-49.08531186
5.13,513,0.113,-0.7559999999999999,0.131,0.286479,-68.6976642,3.2658606,86.63124959999998,-3.52942128,-49.7614023
5.14,514,0.094,-0.7809999999999999,0.125,-0.7448454000000001,-70.87490460000002,-6.5317212,86.67135666,-3.48358464,-50.46614064
5.1499999999999995,515,0.03,-0.841,0.134,-3.724227,-72.0208206,-14.7823164,86.68854540000002,-3.35753388,-51.18806772
5.16,516,-0.067,-0.8909999999999999,0.142,-6.589017,-69.7862844,-21.1421502,86.67135666,-3.1741873200000006,-51.89280606
5.17,517,-0.157,-0.906,0.135,-7.7349330000000025,-65.54639519999999,-24.637194,86.63697918,-2.94500412,-52.55743734
5.18,518,-0.252,-0.885,0.124,-5.0993262,-63.02538000000001,-23.777757,86.65416791999998,-2.7788463,-53.1991503
5.1899999999999995,519,-0.338,-0.8340000000000001,0.132,-1.6042823999999998,-61.4783934,-19.595163600000006,86.67135666,-2.6012293200000003,-53.81794494
5.2,520,-0.388,-0.762,0.122,2.5210152000000003,-59.7595194,-13.349921400000001,86.73438204,-2.48663772,-54.41382126
5.21,521,-0.413,-0.6679999999999999,0.139,5.72958,-56.78013780000001,-5.844171599999999,86.82032574,-2.44080108,-54.98104968
5.22,522,-0.414,-0.574,0.156,6.2452422,-50.0765292,0.8021411999999999,86.91199902000002,-2.4637194,-55.47379356
5.2299999999999995,523,-0.389,-0.503,0.171,8.9381448,-41.1383844,4.6409598,87.0609681,-2.58977016,-55.88059374000001
5.24,524,-0.366,-0.444,0.19,12.032117999999999,-33.518043,5.3858052,87.20420759999998,-2.64706596,-56.21290938
5.25,525,-0.327,-0.395,0.218,13.750992000000002,-25.1528562,3.380452200000001,87.35890626,-2.68717302,-56.45928131999999
5.26,526,-0.28600000000000003,-0.366,0.214,14.5531332,-16.673077799999998,-1.0886202,87.5193345,-2.67571386,-56.61970956
5.27,527,-0.247,-0.349,0.185,17.18874,-7.5630456000000015,-7.2765666,87.69695148,-2.6012293200000003,-56.69992368000001
5.28,528,-0.215,-0.35,0.147,21.772404,-2.1199446,-14.7823164,87.93759384,-2.48090814,-56.72284200000001
5.29,529,-0.179,-0.398,0.136,26.9863218,0.572958,-22.8037284,88.21261368,-2.25745452,-56.72284200000001
5.3,530,-0.14800000000000002,-0.455,0.156,29.335449600000004,2.2345362,-29.507337,88.51055184,-1.9595163600000003,-56.70565326
5.31,531,-0.105,-0.532,0.162,31.51269000000001,1.4896908000000002,-33.116972399999995,88.83140832000002,-1.6272007199999998,-56.69419409999999
5.32,532,-0.062,-0.621,0.13,31.6845774,-2.9220857999999996,-33.5753388,89.1522648,-1.2891555000000001,-56.72284200000001
5.33,533,-0.011,-0.721,0.111,32.257535399999995,-9.0527364,-31.8564648,89.50176918,-0.96829902,-56.80878570000001
5.34,534,0.06,-0.843,0.136,30.3094782,-10.1413566,-29.1062664,89.8111665,-0.6703608600000001,-56.91191814
5.35,535,0.159,-0.977,0.031,22.2307704,-6.4744254,-26.298772200000002,90.04034970000002,-0.40680018,-56.96921394
5.36,536,0.221,-1.08,-0.079,14.266654199999998,-14.381245800000002,-22.86102420000001,90.1835892,-0.17761697999999998,-57.11245344
5.37,537,0.267,-1.253,0.078,13.0061466,-27.7311672,-18.2200644,90.32109912,0.01145916,-57.3817437
5.38,538,0.343,-1.508,0.046,-3.7815227999999994,-26.298772200000002,-10.313244,90.28099206,0.13178034,-57.63957480000001
5.39,539,0.402,-1.794,-0.234,-33.6326346,-35.236917,4.8128472,89.94867642,0.09167328,-57.99480876
5.3999999999999995,540,0.443,-2.164,-0.5379999999999999,-56.3217714,-62.6243094,29.2781538,89.38144799999998,-0.18334656,-58.61933298
5.41,541,0.609,-2.397,-0.6629999999999999,-58.0406454,-78.38065440000003,49.388979600000006,88.80848999999998,-0.6703608600000001,-59.39282628
5.42,542,0.6559999999999999,-2.0380000000000003,-0.575,-40.737313799999995,-73.6823988,44.4615408,88.41887856000002,-1.11153852,-60.11475336000001
5.43,543,0.34600000000000003,-1.5630000000000002,-0.4320000000000001,-5.844171599999999,-69.72898860000001,24.5226024,88.36731234,-1.3464512999999998,-60.80230296
5.4399999999999995,544,-0.06,-1.371,-0.149,17.0741484,-69.15603060000001,4.297185,88.56784764,-1.38655836,-61.4783934
5.45,545,-0.475,-1.327,0.006999999999999999,13.0061466,-66.11935319999999,-13.980175199999998,88.7225463,-1.24331886,-62.1372951
5.46,546,-0.615,-1.296,0.12,0.1718874,-61.7648724,-25.8977016,88.74546462,-0.97975818,-62.75036016
5.47,547,-0.522,-1.243,0.133,-12.032117999999999,-54.7747848,-25.3820394,88.64233218000004,-0.72765666,-63.30039984
5.4799999999999995,548,-0.333,-1.186,0.071,-11.6310474,-48.5868384,-16.959556799999998,88.54492932000002,-0.59587632,-63.78741414
5.49,549,-0.152,-1.18,0.102,-7.906820400000001,-39.3622146,-4.7555514,88.47044478000002,-0.5443101,-64.17702557999999
5.5,550,-0.051,-1.181,0.13,-7.2192707999999985,-27.444688199999998,7.9641161999999985,88.40741940000002,-0.62452422,-64.45204542
5.51,551,-0.032,-1.209,0.119,-6.2452422,-15.870936600000002,19.0222056,88.34439402000002,-0.8136003599999999,-64.60101449999999
5.52,552,-0.052000000000000005,-1.227,0.079,-8.651665800000002,-5.7868758000000025,26.5852512,88.25845032,-1.08289062,-64.65258072
5.53,553,-0.056,-1.284,0.048,-6.760904399999999,4.583664,30.252182399999995,88.20115452,-1.38082878,-64.60101449999999
5.54,554,-0.011,-1.344,0.067,-5.72958,11.917526400000002,30.5959572,88.13812913999998,-1.6844965200000002,-64.47496373999999
5.55,555,0.043,-1.338,0.085,-13.8655836,12.9488508,29.1635622,87.98916005999996,-1.9767051,-64.33745382
5.56,556,0.073,-1.239,0.023,-23.376686399999997,9.6829902,24.8663772,87.74851770000002,-2.22307704,-64.23432138000001
5.57,557,0.12,-1.095,-0.047,-25.0955604,4.3544808,19.1367972,87.49068659999998,-2.41788276,-64.18848474
5.58,558,0.204,-0.972,-0.052000000000000005,-22.4026578,-2.6929026,12.6623718,87.25577381999999,-2.42361234,-64.20567348
5.59,559,0.304,-0.894,-0.039,-20.511896399999998,-12.0894138,5.5003968,87.04950894,-2.48090814,-64.32599466
5.6,560,0.383,-0.828,-0.04,-20.168121600000006,-20.2827132,0.0,86.8604328,-2.48663772,-64.52652996
5.61,561,0.393,-0.748,-0.059,-21.2567418,-28.0176462,-2.3491278,86.6598975,-2.47517856,-64.80727938
5.62,562,0.315,-0.7040000000000001,-0.043,-22.345362,-35.46610020000001,-2.7501984,86.45363262000002,-2.4637194,-65.16251334
5.63,563,0.183,-0.7170000000000001,0.015,-20.3973048,-40.164355799999996,-2.4637194,86.28174521999998,-2.41788276,-65.56358394
5.64,564,0.055,-0.767,0.056,-18.5065434,-41.19568020000001,-1.6615782,86.11558740000002,-2.41788276,-65.97611370000001
5.6499999999999995,565,-0.052000000000000005,-0.8140000000000001,0.048,-16.7303736,-38.5600734,-1.2605076000000002,85.96661832,-2.42361234,-66.35999556
5.66,566,-0.139,-0.861,0.047,-13.2353298,-33.9191136,-1.7761698,85.85202672,-2.42361234,-66.69804078
5.67,567,-0.189,-0.8740000000000001,0.085,-10.9434978,-29.0489706,-2.0053530000000004,85.75462386000002,-2.41788276,-66.98451978
5.68,568,-0.215,-0.813,0.085,-4.4690724,-24.923673,-1.3750992,85.77754218,-2.4923673,-67.24235088
5.6899999999999995,569,-0.207,-0.7290000000000001,0.103,8.078707799999998,-21.829699800000004,-0.4583664000000001,85.87494504,-2.49809688,-67.45434534
5.7,570,-0.159,-0.6659999999999999,0.15,17.18874,-19.767051,2.2345362,86.05829159999998,-2.52674478,-67.64915106
5.71,571,-0.105,-0.615,0.17800000000000002,18.621135,-18.9649098,6.2452422,86.2588269,-2.59549974,-67.83249762
5.72,572,-0.049,-0.579,0.166,22.2307704,-18.7357266,10.599723,86.49373968,-2.70436176,-68.0101146
5.7299999999999995,573,0.006,-0.575,0.162,28.4187168,-18.7357266,15.0687954,86.82605532,-2.84760126,-68.182002
5.74,574,0.062,-0.598,0.165,32.4294228,-19.9962342,19.194093,87.16983012,-3.0366774000000003,-68.36534856
5.75,575,0.118,-0.624,0.16699999999999998,33.6326346,-22.345362,22.459953600000002,87.52506408,-3.2658606,-68.57734302
5.76,576,0.16699999999999998,-0.647,0.17,34.1482968,-25.0955604,24.5798982,87.88602762000002,-3.50650296,-68.8122558
5.77,577,0.195,-0.6709999999999999,0.177,34.7212548,-28.1322378,25.496631,88.26417990000002,-3.75860448,-69.08154606000001
5.78,578,0.18,-0.69,0.174,36.096354,-34.2055926,25.55392680000001,88.68243924,-3.97632852,-69.40813212
5.79,579,0.139,-0.693,0.188,38.3308902,-40.04976420000001,25.210152,89.10642816,-4.22270046,-69.79774356
5.8,580,0.086,-0.675,0.187,41.8832298,-45.83664,24.5226024,89.57052414,-4.45188366,-70.24465079999999
5.81,581,0.044,-0.643,0.175,45.263682,-48.3576552,23.491278,90.07472718,-4.669607699999999,-70.72020594
5.82,582,0.025,-0.612,0.177,46.2377106,-47.67010560000001,22.173474600000002,90.59038938,-4.8701430000000006,-71.19003149999998
5.83,583,0.011,-0.6,0.19,46.352302200000004,-46.4668938,20.511896399999998,91.1289699,-5.042030400000002,-71.6483979
5.84,584,-0.008,-0.613,0.213,46.8106686,-44.4615408,18.3919518,91.65036168,-5.2024586400000015,-72.08957556
5.85,585,-0.075,-0.652,0.166,46.5814854,-44.51883660000001,16.272007199999994,92.17175346,-5.33423898,-72.53075322000002
5.86,586,-0.162,-0.72,0.086,43.65939960000001,-43.0864416,12.032117999999999,92.65876776,-5.42018268,-72.96047172
5.87,587,-0.269,-0.867,0.134,37.1276784,-28.6479,5.958763200000001,93.07129752,-5.45456016,-73.24122114
5.88,588,-0.385,-1.126,0.14,30.7105488,-4.3544808,-4.297185,93.38642442,-5.443101,-73.28132819999998
5.89,589,-0.542,-1.5419999999999998,-0.018000000000000002,13.6936962,20.6837838,-18.162768600000003,93.50101602,-5.27694318,-73.06360416
5.8999999999999995,590,-0.7609999999999999,-1.937,-0.348,-12.4904844,28.762491600000004,-33.116972399999995,93.34631736,-4.97327544,-72.75993642
5.91,591,-0.973,-2.112,-0.513,-14.0947668,15.9282324,-45.3209778,93.18015954,-4.53782736,-72.57658986
5.92,592,-0.996,-2.016,-0.464,-1.0313244,15.183387000000002,-47.8992888,93.15724122,-4.0794609600000005,-72.39897288
5.93,593,-0.65,-1.6980000000000002,-0.4270000000000001,4.1825934,28.5906042,-35.2942128,93.1629708,-3.75860448,-72.09530514000002
5.9399999999999995,594,-0.14400000000000002,-1.516,-0.34,12.1467096,41.6540466,-5.1566220000000005,93.24891449999998,-3.74141574,-71.6770458
5.95,595,0.152,-1.339,-0.273,15.985528200000001,31.913760600000003,16.673077799999998,93.392154,-3.93622146,-71.36764848
5.96,596,0.327,-1.3,-0.133,16.902261,29.1062664,25.9549974,93.54112308,-4.21697088,-71.09835822
5.97,597,0.374,-1.277,0.062,16.501190400000002,31.913760600000003,25.496631,93.67863300000002,-4.4977203,-70.79469048
5.9799999999999995,598,0.348,-1.301,0.233,10.255948199999999,32.945085,16.7876694,93.77030628,-4.65241896,-70.47956358
5.99,599,0.27,-1.321,0.201,-0.4010706,28.361421000000004,5.1566220000000005,93.7359288,-4.7269035000000015,-70.20454373999999
6.0,600,0.162,-1.284,0.11,-9.797581800000001,23.2620948,-5.443101,93.61560762,-4.69252602,-69.96963095999999
6.01,601,0.032,-1.1840000000000002,0.112,-9.797581800000001,19.1367972,-12.3758928,93.49528644,-4.58939358,-69.77482524000001
6.02,602,-0.065,-1.12,0.181,-2.9793816000000004,10.026765,-17.18874,93.45517938,-4.42896534,-69.66596322000001
6.03,603,-0.097,-1.111,0.234,0.9167328,2.0053530000000004,-16.4438946,93.52966392,-4.2685371,-69.63731532
6.04,604,-0.086,-1.187,0.172,-0.7448454000000001,-4.583664,-12.5477802,93.52393434,-4.13675676,-69.67742238
6.05,605,-0.08,-1.301,0.129,-2.0626488000000003,-10.7716104,-6.703608600000001,93.51247518,-4.06227222,-69.78055481999999
6.06,606,-0.075,-1.4069999999999998,0.18,-5.72958,-13.9228794,-2.1199446,93.46663854,-4.02789474,-69.91806474
6.07,607,-0.092,-1.4069999999999998,0.214,-9.3965112,-15.3552744,-2.4064236,93.38069484,-3.99351726,-70.06703381999999
6.08,608,-0.121,-1.305,0.211,-10.1413566,-15.985528200000001,-5.6722842,93.31193988,-3.93049188,-70.22746206
6.09,609,-0.163,-1.142,0.174,-9.9121734,-15.870936600000002,-8.307891,93.2202666,-3.8388186000000006,-70.37643114
6.1,610,-0.191,-1.013,0.157,-6.760904399999999,-12.7769634,-10.255948199999999,93.1629708,-3.724227,-70.49675232
6.11,611,-0.193,-0.928,0.153,-5.0993262,-10.313244,-10.0840608,93.11713416,-3.61536498,-70.59415518
6.12,612,-0.174,-0.8759999999999999,0.17,-4.0680017999999984,-8.651665800000002,-8.8235532,93.08275668,-3.5236917,-70.68009888
6.13,613,-0.155,-0.861,0.17800000000000002,-3.380452200000001,-6.3025379999999975,-6.3598338,93.14005248,-3.52942128,-70.74885384000002
6.14,614,-0.14300000000000002,-0.866,0.162,-3.3231564,-2.0626488000000003,-3.2085648,93.105675,-3.4950437999999995,-70.76604258
6.15,615,-0.14,-0.877,0.153,-3.0366774,3.7815227999999994,-0.286479,93.07129752,-3.4950437999999995,-70.72593552
6.16,616,-0.147,-0.89,0.151,-3.6669312000000014,9.6829902,0.9167328,93.02546088,-3.5122325400000003,-70.63426224
6.17,617,-0.168,-0.88,0.105,-6.130650599999999,15.0114996,0.0,92.95670592,-3.5236917,-70.48529316
6.18,618,-0.188,-0.82,0.079,-7.2765666,22.173474600000002,-2.3491278,92.87076222,-3.56952834,-70.26756911999999
6.1899999999999995,619,-0.2,-0.741,0.08,-4.010706000000001,25.6685184,-4.010706000000001,92.80773684,-3.5523396000000003,-70.0154676
6.2,620,-0.205,-0.662,0.096,0.2291832000000001,26.9863218,-4.583664,92.7905481,-3.5236917,-69.74617734
6.21,621,-0.202,-0.589,0.112,4.583664,27.1582092,-3.8388186,92.819196,-3.50650296,-69.47115749999999
6.22,622,-0.199,-0.529,0.135,8.7662574,27.8457588,-2.4637194,92.88795096,-3.50650296,-69.19613766
6.2299999999999995,623,-0.18600000000000005,-0.487,0.165,12.261301199999998,31.054323600000004,-1.3178034,93.00827214,-3.54088044,-68.89246992
6.24,624,-0.165,-0.451,0.168,14.32395,36.4974246,-0.9167328,93.12859332,-3.5580691799999995,-68.52577679999999
6.25,625,-0.134,-0.411,0.17600000000000002,15.756345000000001,41.9978214,-1.4896908000000002,93.26037366,-3.57525792,-68.10751746
6.26,626,-0.113,-0.379,0.177,17.7044022,46.352302200000004,-3.151269,93.40361316,-3.5809875,-67.64915106
6.27,627,-0.099,-0.366,0.16699999999999998,19.7097552,45.83664,-5.042030400000002,93.56977098,-3.56952834,-67.19078465999999
6.28,628,-0.086,-0.369,0.146,20.05353,42.7426668,-6.9327918,93.75311754,-3.54661002,-66.76106616
6.29,629,-0.07200000000000001,-0.395,0.131,19.767051,38.38818600000001,-8.5370742,93.92500494,-3.50077338,-66.37718430000001
6.3,630,-0.046,-0.448,0.126,19.1367972,34.7212548,-9.5111028,94.09689233999998,-3.4377480000000005,-66.02195034
6.31,631,-0.009000000000000001,-0.525,0.119,18.3919518,32.0283522,-10.1413566,94.25732058,-3.36326346,-65.70109386
6.32,632,0.04,-0.615,0.125,18.1054728,29.1635622,-10.0840608,94.41774882,-3.2945085,-65.40315569999999
6.33,633,0.102,-0.725,0.135,18.1054728,25.55392680000001,-9.0527364,94.60109538,-3.18564648,-65.13959502
6.34,634,0.161,-0.813,0.14,15.9282324,17.8189938,-7.0473834,94.75006446,-3.13408026,-64.95624846
6.35,635,0.194,-0.853,0.149,14.152062599999999,10.8289062,-5.0993262,94.88757438,-3.0997027800000003,-64.84165686
6.36,636,0.205,-0.866,0.174,13.178034,4.2398892,-3.4950437999999995,95.01362514,-3.0653253000000005,-64.79582022
6.37,637,0.211,-0.885,0.17600000000000002,8.479778399999999,1.7761698,-2.4637194,95.09956884,-3.04240698,-64.7729019
6.38,638,0.19,-0.924,0.079,-0.8021411999999999,-5.2139178,-1.0886202,95.0250843,-2.75592798,-64.81300896
6.39,639,0.181,-1.035,0.006999999999999999,-11.8029348,-16.157415599999997,0.8021411999999999,94.91622228,-2.7501984,-64.97343719999999
6.4,640,0.19,-1.224,-0.022,-20.798375399999998,-26.2414764,3.0939732,94.72141656,-2.7501984,-65.23699787999999
6.41,641,0.21600000000000005,-1.528,0.004,-25.78311,-35.695283399999994,7.333862400000001,94.4807742,-2.79030546,-65.59796142
6.42,642,0.193,-1.764,-0.07200000000000001,-37.52874900000001,-40.8519054,12.0894138,94.12554024,-2.87051958,-66.01622076
6.43,643,0.08900000000000001,-1.816,-0.241,-49.5035712,-37.0130868,11.8029348,93.63852594,-2.9507337,-66.39437303999999
6.4399999999999995,644,-0.054000000000000006,-1.747,-0.32299999999999995,-43.3729206,-31.8564648,11.5737516,93.2202666,-3.04240698,-66.72095909999999
6.45,645,-0.224,-1.707,-0.395,-33.9191136,-13.349921400000001,15.2979786,92.88795096,-3.18564648,-66.86419860000001
6.46,646,-0.315,-1.834,-0.496,-25.55392680000001,-9.969469199999999,29.2781538,92.63584944,-3.47212548,-66.97879019999999
6.47,647,-0.151,-2.157,-0.225,-15.9282324,-47.555514,49.7327544,92.50979868,-3.93049188,-67.47726365999999
6.4799999999999995,648,0.149,-2.188,0.041,-11.6310474,-60.7908438,52.139178,92.4467733,-4.40604702,-68.10178787999999
6.49,649,0.14300000000000002,-1.737,0.073,1.0886202,-47.3836266,40.737313799999995,92.5040691,-4.77274014,-68.58880218
6.5,650,-0.155,-1.321,0.23,12.1467096,-36.4401288,27.2728008,92.66449734,-5.01911208,-68.96122488
6.51,651,-0.392,-1.082,0.344,15.0687954,-28.7051958,16.386598799999998,92.8478439,-5.1566220000000005,-69.25343346
6.52,652,-0.488,-0.949,0.413,15.6990492,-12.605076,6.589017,93.0197313,-5.2139178,-69.37948422
6.53,653,-0.453,-0.91,0.398,14.4385416,7.5630456000000015,-3.0366774,93.28329198,-5.3285094000000015,-69.31645884000001
6.54,654,-0.364,-0.944,0.305,15.5844576,23.2620948,-12.5477802,93.4208019,-5.22537696,-69.07581647999999
6.55,655,-0.251,-1.0490000000000002,0.204,13.120738199999998,39.820581,-20.626488,93.51247518,-5.05348956,-68.6690163
6.56,656,-0.166,-1.204,0.166,3.6669312000000014,51.4516284,-26.2414764,93.49528644,-4.8414950999999995,-68.14189494000001
6.57,657,-0.119,-1.362,0.23,-7.6203414,56.436363,-27.3873924,93.3635061,-4.6180414800000005,-67.56893693999999
6.58,658,-0.071,-1.414,0.244,-19.194093,58.3271244,-20.6837838,93.11713416,-4.45761324,-66.98451978
6.59,659,-0.016,-1.352,0.193,-22.9756158,58.0979412,-10.0840608,92.83638474,-4.40604702,-66.40583219999999
6.6,660,0.045,-1.212,0.113,-19.8816426,53.8007562,-0.5156622000000001,92.58428322,-4.4404245000000016,-65.87871084
6.61,661,0.11,-1.061,0.07,-11.8602306,47.8992888,5.7868758000000025,92.4181254,-4.53209778,-65.40888528
6.62,662,0.145,-0.934,0.079,-5.5003968,42.5707794,8.59437,92.32645212,-4.64668938,-64.99062594
6.63,663,0.127,-0.823,0.08199999999999999,-3.380452200000001,37.0703826,8.9381448,92.26342674,-4.70971476,-64.62393282000001
6.64,664,0.1,-0.733,0.093,-2.4064236,31.5699858,7.333862400000001,92.21186052,-4.80138804,-64.3145355
6.65,665,0.08900000000000001,-0.643,0.099,-3.4377480000000005,25.9549974,3.8961144,92.14883514,-4.858683839999999,-64.06243398
6.66,666,0.09,-0.591,0.08900000000000001,-4.9847345999999995,16.959556799999998,-0.7448454000000001,92.08580976,-4.86441342,-63.89627615999999
6.67,667,0.11,-0.591,0.077,-5.844171599999999,13.2353298,-4.297185,92.01132522,-4.83003594,-63.76449582
6.68,668,0.112,-0.632,0.068,-5.3858052,10.886202,-6.1879464,91.95402942,-4.7269035000000015,-63.64990422
6.6899999999999995,669,0.109,-0.696,0.069,-2.7501984,7.5630456000000015,-5.5576926,91.91392236,-4.675337279999999,-63.57541968
6.7,670,0.111,-0.755,0.084,0.286479,3.724227,-2.578311,91.91392236,-4.65241896,-63.53531262
6.71,671,0.115,-0.794,0.101,3.151269,-0.4010706,1.2605076000000002,91.94829984,-4.66387812,-63.54104220000001
6.72,672,0.118,-0.784,0.122,3.2085648,-3.4377480000000005,4.6982556,91.98267732,-4.70971476,-63.57541968
6.7299999999999995,673,0.093,-0.7,0.121,1.2032118,-4.5263682,7.2765666,92.02851396,-4.73263308,-63.6269859
6.74,674,0.03,-0.61,0.14,12.4904844,-4.2398892,7.0473834,92.1602943,-4.80138804,-63.66709296000001
6.75,675,-0.006,-0.555,0.179,18.5638392,-1.4896908000000002,6.2452422,92.34937044,-4.858683839999999,-63.68428170000001
6.76,676,-0.042,-0.508,0.204,19.480572,0.6302538000000001,5.6722842,92.54990574,-4.91597964,-63.678552120000006
6.77,677,-0.081,-0.476,0.217,19.0795014,2.0053530000000004,5.1566220000000005,92.73898188,-4.96754586,-63.6556338
6.78,678,-0.094,-0.462,0.205,18.907614000000002,3.8388186,4.7555514,92.95670592,-5.02484166,-63.62125632
6.79,679,-0.096,-0.473,0.181,19.9962342,7.3911582,4.4690724,93.15151164,-5.07640788,-63.54677177999999
6.8,680,-0.09,-0.516,0.16699999999999998,23.2620948,11.0580894,4.297185,93.38069484,-5.1222445200000015,-63.43790975999999
6.81,681,-0.09,-0.586,0.154,25.9549974,13.8655836,4.0680017999999984,93.62706678,-5.17381074,-63.30039984
6.82,682,-0.098,-0.649,0.155,27.215505,17.3606274,3.8961144,93.88489788,-5.231106540000001,-63.12851244000001
6.83,683,-0.114,-0.688,0.14800000000000002,28.81978740000001,19.8243468,3.4950437999999995,94.17710646,-5.29413192,-62.93370672
6.84,684,-0.13,-0.7090000000000001,0.138,30.366774000000003,22.0015872,2.8074942000000003,94.46358546,-5.339968560000001,-62.71598268
6.85,685,-0.147,-0.713,0.113,31.340802600000004,20.912967,1.7188740000000002,94.75579404,-5.38007562,-62.50398822000001
6.86,686,-0.156,-0.726,0.08800000000000001,31.2835068,23.8923486,-0.9167328,95.04800262,-5.39153478,-62.26334586
6.87,687,-0.181,-0.7959999999999999,0.076,25.7258142,32.830493399999995,-5.5576926,95.27718582,-5.37434604,-61.93103021999999
6.88,688,-0.202,-0.8909999999999999,-0.002,12.2040054,41.4821592,-13.0061466,95.31156330000002,-5.3285094000000015,-61.50704129999999
6.89,689,-0.269,-1.038,-0.054000000000000006,-1.7761698,47.555514,-22.459953600000002,95.24280834,-5.16235158,-61.020027000000006
6.9,690,-0.414,-1.255,-0.032,-16.615782,56.8947294,-33.1742682,95.01362514,-4.898790900000002,-60.42988026
6.91,691,-0.5770000000000001,-1.505,-0.115,-12.0894138,61.134618599999996,-41.6540466,94.83027858,-4.5550161000000005,-59.79389688
6.92,692,-0.642,-1.809,-0.205,-0.3437748,67.322565,-47.3836266,94.76152362,-4.16540466,-59.08915854000001
6.93,693,-0.469,-1.857,-0.231,-3.151269,82.04758559999998,-44.7480198,94.6526616,-3.81590028,-58.2411807
6.9399999999999995,694,-0.13699999999999998,-1.513,-0.224,-0.057295800000000015,86.63124959999998,-30.8824362,94.58390664,-3.59817624,-57.35882538
6.95,695,0.126,-1.3090000000000002,-0.085,11.516455800000001,78.7244292,-16.4438946,94.64120244,-3.5236917,-56.56814333999999
6.96,696,0.259,-1.233,0.031,13.407217200000002,77.2920342,-12.4904844,94.71568698,-3.47785506,-55.80037962
6.97,697,0.271,-1.209,-0.001,10.886202,77.9795838,-15.0114996,94.77298278,-3.4148296799999995,-55.01542716
6.9799999999999995,698,0.155,-1.284,0.024,12.2040054,70.1300592,-21.829699800000004,94.83600816,-3.26013102,-54.30495924
6.99,699,0.006,-1.474,0.134,11.0007936,70.9894962,-31.627281600000003,94.89903354,-3.02521824,-53.57730258
7.0,700,-0.13,-1.631,0.12,7.906820400000001,67.895523,-39.0757356,94.93341102,-2.71582092,-52.87256424
7.01,701,-0.166,-1.638,0.09,5.2712136,58.15523699999999,-39.591397799999996,94.95632934,-2.38923486,-52.26522876
7.02,702,-0.106,-1.531,0.134,5.3285094000000015,47.8992888,-34.4347758,94.97924766,-2.10275586,-51.76675529999999
7.03,703,0.009000000000000001,-1.404,0.193,4.4690724,41.4821592,-24.8090814,95.01362514,-1.8907613999999997,-51.33130722
7.04,704,0.08900000000000001,-1.317,0.218,4.9274388,37.9871154,-14.495837400000001,95.04227304,-1.7933585399999998,-50.94742536
7.05,705,0.125,-1.296,0.244,7.5057497999999985,36.38283300000001,-6.0733548,95.10529842,-1.77044022,-50.58073224
7.06,706,0.102,-1.307,0.229,8.136003599999999,35.0077338,0.3437748,95.17405338,-1.81627686,-50.23695744000001
7.07,707,0.044,-1.291,0.208,8.5370742,32.0283522,2.291832,95.24280834,-1.87930224,-49.92183054
7.08,708,-0.019,-1.24,0.211,11.516455800000001,27.9603504,1.2032118,95.36312952,-1.9194093000000003,-49.6468107
7.09,709,-0.079,-1.178,0.222,16.042824000000003,24.2934192,-1.3750992,95.51782818,-1.93659804,-49.40616834
7.1,710,-0.124,-1.118,0.21600000000000005,17.9908812,21.3713334,-3.4377480000000005,95.68971558,-1.92513888,-49.1884443
7.11,711,-0.154,-1.062,0.203,16.558486199999994,20.05353,-3.724227,95.85014382,-1.91367972,-48.987909
7.12,712,-0.174,-1.006,0.18,14.2093584,20.8556712,-2.291832,95.98192416,-1.91367972,-48.78164412
7.13,713,-0.201,-0.962,0.157,12.3758928,24.0069402,-0.5156622000000001,96.10797492,-2.01681216,-48.54100175999999
7.14,714,-0.221,-0.945,0.141,8.9954406,29.2781538,0.7448454000000001,96.18245946,-2.0626488000000003,-48.25452276
7.15,715,-0.248,-0.924,0.141,7.9641161999999985,35.0077338,1.0313244,96.25121442,-2.1199446,-47.91074796
7.16,716,-0.264,-0.889,0.155,10.3705398,41.252976,0.0,96.33142854,-2.1772404,-47.50967736
7.17,717,-0.261,-0.8490000000000001,0.168,12.7196676,48.414951,-1.3750992,96.44029056,-2.22880662,-47.02839264
7.18,718,-0.248,-0.805,0.17,11.1153852,55.40503860000001,-2.3491278,96.53769342,-2.33193906,-46.48408254
7.1899999999999995,719,-0.226,-0.76,0.166,8.5370742,60.10329419999999,-2.6356068,96.58925964,-2.38923486,-45.88820622
7.2,720,-0.199,-0.727,0.155,7.1046792000000005,63.02538000000001,-2.3491278,96.6293667,-2.45226024,-45.26941158
7.21,721,-0.161,-0.695,0.147,6.3025379999999975,64.6869582,-2.0626488000000003,96.6580146,-2.52674478,-44.6334282
7.22,722,-0.129,-0.6759999999999999,0.155,5.72958,65.66098679999999,-1.6615782,96.67520334,-2.6012293200000003,-43.98598566
7.2299999999999995,723,-0.095,-0.667,0.163,5.844171599999999,66.00476160000001,-1.0886202,96.70958082,-2.6929026,-43.33854312
7.24,724,-0.07200000000000001,-0.654,0.156,4.8701430000000006,65.54639519999999,-0.8021411999999999,96.72103998,-2.7788463,-42.69683016000001
7.25,725,-0.066,-0.627,0.135,1.6042823999999998,64.97343719999999,-0.9740286,96.69812166,-2.86479,-42.05511720000001
7.26,726,-0.083,-0.595,0.095,-0.3437748,63.1972674,-1.432395,96.65228502,-2.93927454,-41.43632256
7.27,727,-0.11,-0.578,0.063,-1.3750992,59.64492779999999,-2.578311,96.6007188,-2.9965703400000003,-40.84617582
7.28,728,-0.126,-0.574,0.092,-1.9480572,57.35309579999999,-5.042030400000002,96.54915258,-3.04240698,-40.27894740000001
7.29,729,-0.105,-0.604,0.128,-2.4064236,58.0406454,-8.3651868,96.4861272,-3.04240698,-39.7059894
7.3,730,-0.061,-0.653,0.121,-3.8961144,59.8168152,-12.3758928,96.40591308,-3.00229992,-39.1043835
7.31,731,-0.013,-0.698,0.101,-5.0993262,61.36380179999999,-16.042824000000003,96.3142398,-2.92781538,-38.48558885999999
7.32,732,0.012,-0.73,0.097,-5.6722842,61.8221682,-19.3659804,96.21683694,-2.81895336,-37.85533506
7.33,733,0.021,-0.7340000000000001,0.13,-6.990087599999999,60.733548000000006,-21.485925,96.1137045,-2.68144344,-37.23654042
7.34,734,0.025,-0.7120000000000001,0.159,-9.5111028,57.00932099999999,-22.1161788,95.98192416,-2.53820394,-36.65785284
7.35,735,0.017,-0.691,0.13699999999999998,-12.1467096,49.2170922,-20.9702628,95.83295508,-2.39496444,-36.1536498
7.36,736,-0.001,-0.67,0.087,-14.7250206,38.1590028,-18.449247600000003,95.66106768,-2.2631841,-35.75830878
7.37,737,-0.028,-0.665,0.06,-16.2147114,28.7051958,-15.2979786,95.48345069999999,-2.1485925000000003,-35.46610020000001
7.38,738,-0.05,-0.687,0.062,-15.527161800000002,23.2620948,-13.6364004,95.30583372,-2.04546006,-35.22545784
7.39,739,-0.069,-0.722,0.068,-12.605076,23.032911600000002,-14.152062599999999,95.1683238,-1.93659804,-34.984815479999995
7.4,740,-0.092,-0.748,0.087,-8.9381448,23.6631654,-16.1001198,95.06519136,-1.8048176999999999,-34.73844354
7.41,741,-0.103,-0.75,0.153,-6.760904399999999,26.9863218,-18.7930224,94.98497724,-1.65011904,-34.45769412
7.42,742,-0.053,-0.731,0.141,-10.4278356,43.48751220000001,-23.204799,94.85892648,-1.46677248,-34.01078688
7.43,743,0.009000000000000001,-0.747,-0.044,-23.4339822,72.5937786,-29.9084076,94.5667179,-1.24904844,-33.27740064
7.4399999999999995,744,0.053,-0.848,-0.14300000000000002,-49.5035712,89.1522648,-35.236917,94.03386695999998,-0.9912173399999998,-32.37785658
7.45,745,-0.016,-1.2,0.134,-57.1239126,54.54560160000001,-28.074942,93.43799064,-0.76776372,-31.8278169
7.46,746,-0.13,-1.949,-0.07,-75.2866812,5.2139178,-2.4064236,92.67022692,-0.75630456,-31.78198026
7.47,747,-0.099,-2.352,-0.38,-109.2630906,-3.151269,30.0229992,91.56441798,-1.0599723,-31.839276060000003
7.4799999999999995,748,0.127,-2.229,-0.35100000000000003,-84.7404882,18.5065434,49.1025006,90.69352182,-1.55844576,-31.67884782
7.49,749,0.509,-2.167,-0.545,-59.53033620000001,43.831287,53.7434604,90.06899759999996,-2.11421502,-31.2548589
7.5,750,0.639,-2.143,-0.557,-69.0987348,37.6433406,62.3378304,89.3528001,-2.74446882,-30.88816578
7.51,751,0.952,-2.314,-0.5329999999999999,-58.49901179999999,10.0840608,75.17208959999998,88.7511942,-3.50077338,-30.78503334
7.52,752,1.221,-2.047,-0.443,-26.5279554,-5.042030400000002,59.874111,88.48763352,-4.0966497,-30.8251404
7.53,753,0.547,-1.267,-0.168,1.0886202,-13.2926256,24.2934192,88.48763352,-4.25134836,-30.95119116
7.54,754,-0.098,-1.185,-0.012,14.896907999999998,-20.1108258,-12.2040054,88.65379134000001,-4.1252976000000015,-31.15172646000001
7.55,755,-0.512,-1.158,0.151,5.958763200000001,-21.829699800000004,-41.4248634,88.73400546,-3.71276784,-31.37518008
7.56,756,-0.696,-1.084,0.224,-10.313244,-6.5317212,-59.0719698,88.63087302,-3.12835068,-31.44966462
7.57,757,-0.705,-1.039,0.162,-12.605076,12.318597,-64.4004792,88.49909268,-2.48663772,-31.346532180000004
7.58,758,-0.613,-1.061,0.085,10.5424272,30.0229992,-62.051351399999994,88.59649553999998,-1.9194093000000003,-31.06005318
7.59,759,-0.43,-1.257,0.114,31.3980984,48.1857678,-50.3057124,88.90016328,-1.4209358399999998,-30.59022762
7.6,760,-0.229,-1.544,0.184,36.2109456,63.942112800000004,-29.507337,89.24393807999998,-1.13445684,-29.95997382
7.61,761,-0.021,-1.726,0.274,17.0741484,78.89631659999998,-3.380452200000001,89.39290716000002,-1.11153852,-29.17502136
7.62,762,0.126,-1.592,0.209,-22.91832,93.9078162,17.0741484,89.12361690000002,-1.29488508,-28.2468294
7.63,763,0.171,-1.304,0.057,-36.096354,100.1530584,27.8457588,88.7225463,-1.56990492,-27.25561206
7.64,764,0.182,-1.002,-0.006999999999999999,-20.5691922,100.4395374,30.7105488,88.47044478000002,-1.87930224,-26.25866514
7.65,765,0.151,-0.809,-0.026,-5.6149884000000005,96.1423524,29.7365202,88.36731234,-2.17151082,-25.30182528000001
7.66,766,0.124,-0.695,-0.043,8.021412000000002,90.3554766,26.1841806,88.40168982,-2.42934192,-24.40228122000001
7.67,767,0.107,-0.616,-0.033,20.2827132,85.0269672,20.2254174,88.55638848,-2.62987722,-23.55430338
7.68,768,0.107,-0.5670000000000001,-0.006999999999999999,23.5485738,79.0109082,13.178034,88.7511942,-2.74446882,-22.76362134
7.6899999999999995,769,0.132,-0.516,0.006999999999999999,24.0069402,73.73969459999998,4.9274388,88.94599991999998,-2.79603504,-22.030235100000002
7.7,770,0.174,-0.51,0.006999999999999999,21.829699800000004,72.192708,-3.2085648,89.12361690000002,-2.77311672,-21.3140376
7.71,771,0.196,-0.5379999999999999,-0.002,20.798375399999998,71.67704579999999,-8.880849000000003,89.28977472,-2.6929026,-20.60356968
7.72,772,0.182,-0.5770000000000001,-0.024,17.8189938,70.87490460000002,-12.3758928,89.43301421999998,-2.5783110000000002,-19.89883134
7.7299999999999995,773,0.149,-0.649,-0.048,14.8396122,70.1300592,-12.605076,89.53041707999998,-2.4350715000000003,-19.20555216
7.74,774,0.111,-0.745,-0.068,13.464512999999998,68.9268474,-9.969469199999999,89.62781994000002,-2.3491277999999998,-18.52373214
7.75,775,0.062,-0.841,-0.069,12.4904844,67.322565,-5.1566220000000005,89.71949322,-2.3147503200000004,-17.85337128
7.76,776,0.011,-0.932,-0.061,13.0061466,66.176649,0.5156622000000001,89.81689608,-2.33193906,-17.20019916
7.77,777,-0.039,-0.992,-0.041,12.3758928,66.23394479999999,6.8182002000000015,89.90283978,-2.41788276,-16.541297460000006
7.78,778,-0.067,-0.987,-0.006999999999999999,12.5477802,67.5517482,11.4018642,89.99451306,-2.5496631,-15.8709366
7.79,779,-0.09,-0.954,0.018000000000000002,14.667724800000002,70.7030172,12.605076,90.0976455,-2.69863218,-15.17192784
7.8,780,-0.121,-0.922,0.03,17.9908812,75.45856859999998,12.0894138,90.23515542,-2.8361421,-14.42135286
7.81,781,-0.157,-0.915,0.039,21.6578124,81.2454444,11.2872726,90.40704282,-2.9736520200000003,-13.61921166
7.82,782,-0.184,-0.931,0.057,25.9549974,88.12094040000002,11.172681,90.6133077,-3.11689152,-12.74258592
7.83,783,-0.17800000000000002,-0.971,0.095,27.9603504,95.4548028,12.5477802,90.83676132,-3.28877892,-11.79720522
7.84,784,-0.14400000000000002,-0.998,0.109,28.4187168,102.5021862,15.4125702,91.05448536,-3.48358464,-10.78306956
7.85,785,-0.08,-1.043,0.119,29.507337,109.6641612,19.0222056,91.2722094,-3.724227,-9.70017894
7.86,786,-0.024,-1.056,0.101,28.934379,119.5190388,21.485925,91.46701512,-3.99924684,-8.519885460000001
7.87,787,-0.004,-1.058,0.08800000000000001,30.080295,128.2852962,21.8869956,91.66755042,-4.28572584,-7.25364828
7.88,788,-0.01,-1.0759999999999998,0.084,31.8564648,135.67645439999998,20.6837838,91.86808572,-4.56074568,-5.9129265600000025
7.89,789,-0.026,-1.094,0.092,33.2888598,141.6352176,18.5638392,92.0743506,-4.83003594,-4.51490904
7.9,790,-0.037000000000000005,-1.114,0.093,32.8877892,146.677248,15.985528200000001,92.26342674,-5.07640788,-3.0653253000000005
7.91,791,-0.037000000000000005,-1.133,0.083,32.2002396,150.28688340000005,13.120738199999998,92.43531414,-5.311320660000002,-1.5756344999999998
7.92,792,-0.02,-1.153,0.079,31.111619399999995,151.49009519999996,10.4851314,92.5900128,-5.51758554,-0.08021412
7.93,793,0.019,-1.172,0.068,28.934379,151.20361619999997,7.6203414,92.71606355999998,-5.68947294,1.41520626
7.94,794,0.034,-1.177,0.049,23.14750320000001,151.08902460000004,5.042030400000002,92.77908894,-5.85563076,2.91062664
7.95,795,0.048,-1.179,0.027000000000000003,17.9335854,150.8025456,2.6356068,92.7905481,-5.9931406800000016,4.40604702
7.96,796,0.045,-1.17,0.002,13.178034,148.9117842,0.1718874,92.75044104,-6.1077322800000005,5.88427866
7.97,797,0.015,-1.158,-0.005,10.4278356,147.07831860000005,-2.0053530000000004,92.6759565,-6.19367598,7.34532156
7.9799999999999995,798,-0.016,-1.159,-0.014,9.740286,145.7605152,-4.010706000000001,92.5900128,-6.25097178,8.794905300000002
7.99,799,-0.059,-1.158,-0.016,8.5370742,144.385416,-6.3598338,92.5040691,-6.29107884,10.2273003
8.0,800,-0.106,-1.164,-0.019,5.0993262,143.4113874,-9.224623800000002,92.37801834,-6.29680842,11.659695300000001
8.01,801,-0.149,-1.177,-0.011,-2.86479,143.4686832,-13.0634424,92.17175346,-6.26243094,13.086360719999998
8.02,802,-0.16699999999999998,-1.185,0.051,-11.45916,146.4480648,-17.8189938,91.87954488,-6.17648724,14.54740362
8.03,803,-0.159,-1.169,0.14,-19.4232762,151.7192784,-21.6578124,91.50712218,-6.05043648,16.05428316
8.04,804,-0.1,-1.118,0.16699999999999998,-24.4653066,157.3342668,-23.3193906,91.0716741,-5.9014674000000005,17.6184585
8.05,805,-0.028,-1.086,0.107,-22.2307704,161.5168602,-22.6891368,90.66487392,-5.746768739999999,19.222740899999998
8.06,806,0.017,-1.085,0.042,-16.2147114,162.720072,-21.6005166,90.31536954,-5.5863405,20.83848246
8.07,807,0.049,-1.058,0.05,-12.891555,161.4022686,-20.8556712,90.00597222,-5.4316418399999975,22.44276486
8.08,808,0.075,-0.985,0.107,-16.386598799999998,158.0218164,-20.1108258,89.68511574,-5.25402486,24.00694020000001
8.09,809,0.108,-0.904,0.127,-23.3193906,152.40682800000005,-18.6784308,89.28977472,-5.0993262,25.51954932
8.1,810,0.117,-0.892,0.052000000000000005,-27.1582092,141.00496379999996,-15.2979786,88.87151537999998,-4.96754586,26.91183726
8.11,811,0.098,-0.924,0.0,-26.41336380000001,125.3059146,-10.7143146,88.48190394,-4.8701430000000006,28.14942654
8.12,812,0.056,-0.967,0.036000000000000004,-23.9496444,109.0339074,-6.3598338,88.13239956,-4.80711762,29.22658758
8.13,813,-0.001,-0.995,0.108,-21.8869956,97.6320432,-3.9534102,87.84019098,-4.749821819999998,30.18915702
8.14,814,-0.034,-0.989,0.142,-21.2567418,91.0430262,-4.0680017999999984,87.53652324,-4.6982555999999995,31.08870108
8.15,815,-0.032,-0.956,0.153,-18.2773602,87.4333908,-5.6722842,87.26723297999996,-4.629500640000002,31.95386766
8.16,816,-0.015,-0.923,0.171,-13.349921400000001,84.51130500000002,-7.7922288,87.05523852,-4.53782736,32.784656760000004
8.17,817,0.025,-0.897,0.17800000000000002,-9.453807000000001,82.1621772,-10.4278356,86.88335112,-4.4117766000000005,33.592527540000006
8.18,818,0.063,-0.856,0.177,-9.0527364,80.32871159999998,-12.5477802,86.75730036,-4.2398892,34.38320958
8.19,819,0.101,-0.835,0.154,-9.1100322,78.38065440000003,-13.0634424,86.60260170000002,-4.08519054,35.1509733
8.2,820,0.121,-0.867,0.138,-6.9327918,74.42724419999998,-11.0580894,86.47082136,-3.9534102,35.87862996
8.209999999999999,821,0.111,-0.931,0.127,-4.0680017999999984,68.2965936,-7.7922288,86.37341849999999,-3.85027776,36.54899082
8.22,822,0.064,-1.004,0.097,-2.86479,61.30650600000001,-4.0680017999999984,86.29320437999998,-3.79298196,37.1563263
8.23,823,0.001,-1.072,0.067,-4.3544808,55.92070079999999,-0.7448454000000001,86.23017899999998,-3.752874900000001,37.70636598
8.24,824,-0.08199999999999999,-1.117,0.035,-7.6776372,52.48295279999999,0.7448454000000001,86.10985782,-3.74141574,38.22775776
8.25,825,-0.165,-1.131,0.01,-13.178034,50.0192334,1.0313244,85.93797042,-3.7299565800000014,38.72050164
8.26,826,-0.24,-1.106,-0.011,-14.381245800000002,50.5348956,0.572958,85.75462386000002,-3.71276784,39.2189751
8.27,827,-0.282,-1.069,-0.019,-17.3606274,53.8007562,0.286479,85.53117024000002,-3.6955791,39.75182604
8.28,828,-0.28800000000000003,-1.006,-0.049,-16.157415599999997,58.9573782,0.5156622000000001,85.32490535999997,-3.71849742,40.33624320000001
8.29,829,-0.258,-0.966,-0.031,-10.9434978,64.28588760000001,1.2605076000000002,85.16447712,-3.6955791,40.97222658
8.3,830,-0.207,-0.95,-0.004,-8.021412000000002,68.6403684,2.8074942000000003,85.03269678,-3.68411994,41.64831702
8.31,831,-0.146,-0.949,0.013,-5.9014674000000005,71.79163740000001,5.1566220000000005,84.91237559999998,-3.6955791,42.36451452
8.32,832,-0.078,-0.964,0.037000000000000005,-2.578311,73.96887779999999,8.250595200000001,84.83216148,-3.7299565800000014,43.10363034
8.33,833,-0.021,-0.988,0.054000000000000006,-0.1718874,74.9429064,11.4018642,84.79205442,-3.78725238,43.85420532
8.34,834,0.009000000000000001,-1.014,0.06,1.6042823999999998,75.1147938,15.2406828,84.75194736,-3.89038482,44.61050988
8.35,835,0.018000000000000002,-1.023,0.069,3.2658606,74.2553568,17.475219,84.72329946,-4.01643558,45.36108486
8.36,836,0.006,-1.026,0.076,4.5263682,72.4218912,18.7357266,84.70611072,-4.1539455,46.0944711
8.37,837,-0.019,-1.017,0.084,5.72958,69.6716928,19.0795014,84.70611072,-4.297185000000002,46.79920943999999
8.38,838,-0.05,-1.005,0.085,7.5630456000000015,66.5777196,18.1054728,84.75194736,-4.42896534,47.47529988
8.39,839,-0.079,-0.992,0.08199999999999999,9.167328,63.5410422,15.870936600000002,84.78632483999998,-4.549286520000001,48.11701284
8.4,840,-0.112,-0.982,0.077,9.6256944,60.5616606,12.7769634,84.8264319,-4.63523022,48.73007790000001
8.41,841,-0.14300000000000002,-0.975,0.079,10.1986524,57.58227899999999,9.453807000000001,84.87799812,-4.69252602,49.30876548
8.42,842,-0.16399999999999998,-0.977,0.094,10.5424272,55.06126379999999,5.6722842,84.92956434,-4.71544434,49.85880516
8.43,843,-0.174,-0.99,0.106,10.1413566,54.43101,3.4377480000000005,85.0269672,-4.73836266,50.40311526000001
8.44,844,-0.183,-1.001,0.099,8.880849000000003,54.889376399999996,2.0626488000000003,85.06707426,-4.7269035000000015,50.94742536
8.45,845,-0.191,-1.007,0.079,6.5317212,55.6342218,1.4896908000000002,85.07853342,-4.70971476,51.50319462
8.459999999999999,846,-0.204,-1.005,0.062,4.6409598,56.608250399999996,1.6615782,85.07280384,-4.69252602,52.06469346
8.47,847,-0.213,-0.999,0.06,3.5523396000000003,58.78549079999999,2.4637194,85.0556151,-4.68679644,52.64911062
8.48,848,-0.214,-0.993,0.044,2.9793816000000004,62.16594300000001,3.6096354,85.04988552,-4.71544434,53.26790526
8.49,849,-0.2,-0.983,0.019,2.4064236,64.51507079999999,4.6982556,85.01550804,-4.7269035000000015,53.90961822000001
8.5,850,-0.161,-0.975,0.003,2.1199446,66.463128,6.0733548,84.96967140000002,-4.749821819999998,54.57424949999999
8.51,851,-0.124,-0.977,0.002,2.6356068,67.3798608,6.589017,84.93529392,-4.77274014,55.25033994
8.52,852,-0.095,-0.985,0.006999999999999999,2.9793816000000004,66.9214944,6.990087599999999,84.90091644,-4.80138804,55.91497122000001
8.53,853,-0.067,-0.992,0.01,2.0626488000000003,64.6869582,7.2192707999999985,84.87799812,-4.82430636,56.56241376000001
8.54,854,-0.052000000000000005,-0.991,0.023,1.4896908000000002,61.6502808,6.8182002000000015,84.83216148,-4.858683839999999,57.1812084
8.55,855,-0.051,-0.991,0.037000000000000005,0.4583664000000001,58.72819499999999,6.016058999999999,84.78059526000001,-4.88160216,57.76562556
8.56,856,-0.054000000000000006,-0.979,0.033,-1.3178034,55.00396800000001,4.8701430000000006,84.71184029999998,-4.893061319999998,58.31566524000001
8.57,857,-0.069,-0.966,0.033,-1.6615782,51.3943326,3.2658606,84.64308534,-4.893061319999998,58.82559786
8.58,858,-0.09,-0.964,0.032,-0.9167328,47.6128098,0.9740286,84.62589659999998,-4.87587258,59.29542342
8.59,859,-0.111,-0.967,0.032,-0.3437748,45.3209778,-0.6302538000000001,84.58005996,-4.8414950999999995,59.74806024000001
8.6,860,-0.133,-0.974,0.034,0.057295800000000015,43.65939960000001,-2.3491278,84.5399529,-4.78992888,60.17777874
8.61,861,-0.152,-0.974,0.039,0.572958,43.1437374,-3.6096354,84.49984584,-4.72117392,60.60176765999999
8.62,862,-0.163,-0.971,0.037000000000000005,1.4896908000000002,43.0291458,-4.2398892,84.47692752,-4.65241896,61.020027000000006
8.63,863,-0.16399999999999998,-0.968,0.033,2.86479,43.0864416,-4.6982556,84.50557542,-4.60658232,61.44401592000001
8.64,864,-0.16,-0.965,0.035,4.4690724,43.3729206,-4.7555514,84.51130500000002,-4.53209778,61.86800484000001
8.65,865,-0.153,-0.965,0.044,5.958763200000001,44.117766,-4.583664,84.53422332,-4.45188366,62.30345292000001
8.66,866,-0.14400000000000002,-0.966,0.048,7.333862400000001,45.0344988,-4.2398892,84.56860079999998,-4.3831287,62.74463058
8.67,867,-0.141,-0.959,0.052000000000000005,8.7089616,45.0344988,-4.297185,84.61443744,-4.30864416,63.18580824000001
8.68,868,-0.141,-0.948,0.055,10.255948199999999,45.263682,-4.9274388,84.71756988,-4.25134836,63.6269859
8.69,869,-0.146,-0.932,0.047,11.688343199999998,45.4355694,-5.844171599999999,84.79778400000002,-4.16540466,64.07389314
8.7,870,-0.158,-0.922,0.041,13.980175199999998,44.8626114,-6.703608600000001,84.90091644,-4.0680017999999984,64.5150708
8.71,871,-0.165,-0.913,0.058,16.2147114,44.919907200000004,-7.7349330000000025,85.03269678,-3.9648693599999993,64.95624846
8.72,872,-0.168,-0.914,0.073,18.2773602,46.29500640000001,-8.9381448,85.18166586000002,-3.84454818,65.40888528
8.73,873,-0.168,-0.913,0.077,19.8816426,48.1857678,-10.4278356,85.37647158,-3.74141574,65.87871084
8.74,874,-0.172,-0.912,0.078,22.345362,50.133825,-11.688343199999998,85.56554772,-3.59817624,66.36572514000001
8.75,875,-0.181,-0.914,0.084,24.5226024,51.56622,-12.6623718,85.77181259999998,-3.44347758,66.86992818
8.76,876,-0.193,-0.916,0.08900000000000001,26.356068,53.34238979999999,-13.6936962,86.0009958,-3.28304934,67.39131996
8.77,877,-0.202,-0.923,0.08199999999999999,26.9863218,55.06126379999999,-14.266654199999998,86.24163816000002,-3.11689152,67.92990048
8.78,878,-0.206,-0.94,0.08900000000000001,27.903054600000004,56.149884,-14.32395,86.51092842,-2.9793816000000004,68.47994016
8.79,879,-0.199,-0.965,0.075,27.788463,58.15523699999999,-14.037471,86.75730036,-2.81895336,69.05289816
8.8,880,-0.16899999999999998,-1.013,0.051,25.6685184,60.38977320000001,-13.349921400000001,86.98075398,-2.6699842800000004,69.64304489999999
8.81,881,-0.108,-1.094,0.014,22.2880662,64.11400019999999,-12.261301199999998,87.16983012,-2.53247436,70.27902828
8.82,882,-0.037000000000000005,-1.183,-0.034,18.1054728,66.749607,-9.9121734,87.31879920000002,-2.41788276,70.93220040000001
8.83,883,0.042,-1.259,-0.042,15.5844576,68.46848100000001,-6.6463128000000005,87.43912037999998,-2.32620948,71.60829084
8.84,884,0.125,-1.286,-0.006999999999999999,10.7143146,65.030733,-1.6042823999999998,87.51360492,-2.29756158,72.25573338000002
8.85,885,0.177,-1.258,-0.002,7.6203414,56.4936588,4.0680017999999984,87.55944156000002,-2.32620948,72.81723222
8.86,886,0.192,-1.21,-0.019,8.307891,46.2377106,8.880849000000003,87.61673736,-2.4064236,73.27559862
8.87,887,0.16399999999999998,-1.144,-0.04,8.8235532,36.669312,11.5737516,87.68549232000002,-2.5210152000000003,73.64802132
8.88,888,0.091,-1.064,-0.07200000000000001,9.568398599999998,30.7678446,12.0894138,87.74278812,-2.6012293200000003,73.95741863999999
8.89,889,0.001,-0.987,-0.095,11.9748222,28.8770832,10.0840608,87.84592056,-2.69863218,74.24389764
8.9,890,-0.069,-0.946,-0.104,15.527161800000002,27.8457588,6.990087599999999,87.98916005999996,-2.76165756,74.52464705999998
8.91,891,-0.113,-0.937,-0.092,17.589810600000003,27.3300966,3.380452200000001,88.14958829999998,-2.79603504,74.7996669
8.92,892,-0.14400000000000002,-0.932,-0.08,16.157415599999997,27.1009134,-0.286479,88.29855738,-2.79030546,75.06895716
8.93,893,-0.16399999999999998,-0.946,-0.073,12.9488508,27.1582092,-4.0680017999999984,88.38450107999998,-2.79603504,75.34397700000002
8.94,894,-0.172,-0.973,-0.06,9.9121734,27.8457588,-7.5630456000000015,88.47044478000002,-2.7215505,75.61899684
8.95,895,-0.172,-1.005,-0.04,7.7922288,29.507337,-10.255948199999999,88.53347016000002,-2.61841806,75.91120542
8.96,896,-0.155,-1.036,-0.044,4.9847345999999995,31.51269000000001,-11.516455800000001,88.56211806,-2.50382646,76.22060274
8.97,897,-0.121,-1.0590000000000002,-0.053,2.2345362,34.4920716,-11.745639,88.56784764,-2.38923486,76.55864796
8.98,898,-0.083,-1.07,-0.057,0.6875496,37.757932200000006,-11.1153852,88.53347016000002,-2.28610242,76.93107066
8.99,899,-0.05,-1.069,-0.065,-0.5156622000000001,40.5654264,-10.1986524,88.51055184,-2.18869956,77.33214126
9.0,900,-0.019,-1.061,-0.071,-1.0313244,42.7426668,-9.1100322,88.47617436,-2.09702628,77.75040059999998
9.01,901,-0.002,-1.051,-0.069,-0.8021411999999999,44.2323576,-8.479778399999999,88.44752645999998,-2.01108258,78.18584868
9.02,902,0.012,-1.039,-0.066,-0.8594370000000001,46.123119,-7.906820400000001,88.41314897999996,-1.93659804,78.6384855
9.03,903,0.026,-1.025,-0.067,-1.432395,47.9565846,-7.2765666,88.35585318,-1.83919518,79.11404064
9.04,904,0.04,-1.009,-0.07,-2.291832,48.8733174,-6.5317212,88.31574612,-1.7761698,79.59532535999998
9.05,905,0.049,-0.988,-0.07,-3.0366774,48.0138804,-5.6149884000000005,88.25845032,-1.7188740000000002,80.06515092
9.06,906,0.054000000000000006,-0.965,-0.068,-3.724227,46.352302200000004,-5.2712136,88.20115452,-1.6673077799999998,80.52351732
9.07,907,0.051,-0.954,-0.07,-3.6669312000000014,44.8626114,-5.5003968,88.14385872,-1.61001198,80.96469498
9.08,908,0.05,-0.959,-0.064,-3.151269,42.7426668,-6.1879464,88.08083334,-1.51260912,81.3886839
9.09,909,0.055,-0.979,-0.053,-3.2658606,39.6486936,-7.2765666,88.02926712000001,-1.43812458,81.77829534
9.1,910,0.07200000000000001,-1.0,-0.038,-4.2398892,36.6120162,-8.59437,87.97197132,-1.35218088,82.13352929999998
9.11,911,0.099,-1.015,-0.026,-5.1566220000000005,33.9764094,-9.568398599999998,87.90894594,-1.25477802,82.46584494
9.12,912,0.123,-1.023,-0.015,-6.0733548,30.7105488,-10.026765,87.83446140000002,-1.15164558,82.76951268
9.13,913,0.138,-1.018,-0.012,-5.9014674000000005,26.5852512,-9.8548776,87.76570644,-0.9740286,83.0216142
9.14,914,0.146,-1.011,-0.008,-4.6409598,22.459953600000002,-9.0527364,87.71414021999998,-0.8823553199999999,83.24506782
9.15,915,0.149,-1.009,0.004,-3.0939732,18.907614000000002,-7.8495246,87.67976274,-0.8021412000000001,83.42841438
9.16,916,0.159,-1.009,0.016,-2.6929026,15.527161800000002,-6.760904399999999,87.64538526,-0.73338624,83.57738346
9.17,917,0.172,-1.011,0.021,-2.7501984,12.891555,-5.72958,87.61673736,-0.67609044,83.70343421999998
9.18,918,0.177,-1.014,0.02,-2.4064236,11.1153852,-5.2712136,87.62246694,-0.4297185000000001,83.80083708
9.19,919,0.16699999999999998,-1.019,0.014,-1.6615782,10.026765,-5.5576926,87.6052782,-0.3724227000000001,83.89823994000002
9.2,920,0.138,-1.023,0.006999999999999999,-1.7761698,9.9121734,-6.417129599999999,87.58235988,-0.30939732,83.9956428
9.21,921,0.101,-1.037,0.009000000000000001,-0.8594370000000001,10.5424272,-8.193299399999999,87.57090072000004,-0.22345362,84.09877524000002
9.22,922,0.063,-1.048,0.018000000000000002,0.8021411999999999,11.8602306,-9.3965112,87.58235988,-0.13178034,84.20763725999998
9.23,923,0.042,-1.04,0.017,1.6042823999999998,13.2353298,-9.6829902,87.61673736,0.0,84.3394176
9.24,924,0.032,-1.015,0.004,1.9480572,15.5844576,-9.0527364,87.63965568,0.0859437,84.48838668
9.25,925,0.037000000000000005,-0.976,-0.006999999999999999,3.2658606,17.9335854,-7.5630456000000015,87.66830358,0.16042824,84.66600365999999
9.26,926,0.051,-0.94,-0.012,5.1566220000000005,19.9962342,-5.958763200000001,87.7198698,0.22345362,84.86080938
9.27,927,0.063,-0.915,-0.015,6.703608600000001,22.2307704,-4.0680017999999984,87.78289518,0.26929026,85.07853342
9.28,928,0.051,-0.912,-0.073,6.3025379999999975,23.14750320000001,-2.1199446,87.78289518,0.31512690000000004,85.30771662
9.29,929,0.009000000000000001,-0.953,-0.16399999999999998,2.86479,23.6631654,-0.7448454000000001,87.81154308,0.32085648,85.54262940000002
9.3,930,-0.044,-1.03,-0.16399999999999998,1.432395,28.4760126,-1.145916,87.82300224,0.33804522,85.82337881999999
9.31,931,-0.106,-1.087,-0.019,5.72958,33.518043,-1.3750992,87.88029803999999,0.35523396,86.15569446
9.32,932,-0.168,-1.079,0.079,11.3445684,35.0077338,0.0,87.98916005999996,0.36096354,86.49946926
9.33,933,-0.177,-0.976,0.046,13.407217200000002,34.60666320000001,4.5263682,88.13239956,0.26356068,86.84897364
9.34,934,-0.095,-0.8809999999999999,-0.038,14.0947668,33.403451399999994,10.3705398,88.27563906,0.16042824,87.18701886
9.35,935,-0.009000000000000001,-0.863,-0.065,14.8396122,29.392745399999995,15.756345000000001,88.41887856000002,0.00572958,87.47922744
9.36,936,0.061,-0.91,-0.003,15.0114996,23.376686399999997,18.9649098,88.57357721999998,-0.1718874,87.7198698
9.37,937,0.125,-0.978,0.068,15.183387000000002,18.6784308,18.5065434,88.7225463,-0.35523396,87.90894594
9.38,938,0.16699999999999998,-1.03,0.104,13.8655836,13.464512999999998,15.0114996,88.90589286,-0.42398892,88.04645586000002
9.39,939,0.19,-1.064,0.08800000000000001,11.6310474,10.0840608,10.1413566,89.02048446,-0.52139178,88.14385872
9.4,940,0.196,-1.081,0.065,11.5737516,9.1100322,4.297185,89.13507606,-0.56722842,88.24126158
9.41,941,0.16699999999999998,-1.085,0.073,11.8029348,8.5370742,-0.572958,89.25539724,-0.56149884,88.3214757
9.42,942,0.112,-1.07,0.078,9.6829902,6.760904399999999,-3.4377480000000005,89.3528001,-0.52712136,88.39023066
9.43,943,0.066,-1.034,0.054000000000000006,8.479778399999999,4.6982556,-4.9274388,89.46739170000002,-0.41252976,88.43606729999998
9.44,944,0.037000000000000005,-0.993,0.035,10.1986524,2.6929026,-5.2139178,89.57052414,-0.36096354,88.4647152
9.45,945,0.011,-0.969,0.027000000000000003,12.891555,1.2605076000000002,-4.4117766,89.70230448,-0.31512690000000004,88.47617436
9.46,946,-0.013,-0.96,0.032,13.980175199999998,0.3437748,-3.0366774,89.84554397999999,-0.28647900000000004,88.48190394
9.47,947,-0.027000000000000003,-0.962,0.043,14.266654199999998,0.0,-1.9480572,89.98878348,-0.26356068,88.48763352
9.48,948,-0.044,-0.975,0.058,13.2926256,0.286479,-1.432395,90.16640046,-0.29793816,88.4933631
9.49,949,-0.058,-0.982,0.061,12.3758928,2.2345362,-1.2032118,90.29245122,-0.28074942,88.51628142
9.5,950,-0.069,-0.998,0.061,12.2040054,5.3285094000000015,-1.8334656000000005,90.4127724,-0.26356068,88.57357721999998
9.51,951,-0.07400000000000001,-1.021,0.059,11.8029348,8.307891,-2.9220857999999996,90.53309358,-0.23491278,88.65379134000001
9.52,952,-0.068,-1.042,0.054000000000000006,10.886202,10.9434978,-3.7815227999999994,90.6419556,-0.20053530000000008,88.76838294000002
9.53,953,-0.051,-1.062,0.044,9.969469199999999,13.8655836,-4.4690724,90.74508804,-0.18334656,88.90589286
9.54,954,-0.026,-1.062,0.038,10.0840608,16.157415599999997,-3.9534102,90.84249090000002,-0.14896908,89.06632110000002
9.55,955,0.002,-1.055,0.032,10.313244,16.673077799999998,-2.1199446,90.94562334,-0.13178034,89.23247891999998
9.56,956,0.034,-1.038,0.028,11.172681,15.870936600000002,0.057295800000000015,91.06021494,-0.13750992,89.39290716000002
9.57,957,0.067,-1.01,0.024,11.5737516,14.2093584,2.4064236,91.17480654,-0.1718874,89.53614666000001
9.58,958,0.091,-0.981,0.027000000000000003,11.5737516,12.032117999999999,4.297185,91.27793898,-0.14896908,89.65073826
9.59,959,0.104,-0.959,0.036000000000000004,10.9434978,9.6256944,5.6149884000000005,91.386801,-0.20626488,89.74241154
9.6,960,0.104,-0.948,0.047,8.9954406,7.2765666,6.2452422,91.47847428,-0.27501984,89.81689608
9.61,961,0.08800000000000001,-0.953,0.049,6.9327918,4.8701430000000006,5.958763200000001,91.54722924,-0.33231564,89.86273272
9.62,962,0.057,-0.973,0.049,5.042030400000002,2.6356068,4.8128472,91.59879546,-0.38388186,89.89138061999998
9.63,963,0.023,-0.999,0.046,4.0680017999999984,1.5469866,3.4377480000000005,91.62744336,-0.3724227000000001,89.90283978
9.64,964,-0.006999999999999999,-1.028,0.042,3.4377480000000005,1.2032118,2.0626488000000003,91.66182084,-0.38961144,89.91429894
9.65,965,-0.033,-1.057,0.036000000000000004,2.9220857999999996,1.3750992,0.9167328,91.69046874,-0.4010706000000001,89.93148768
9.66,966,-0.05,-1.071,0.035,2.2345362,1.9480572,0.057295800000000015,91.71338706000002,-0.40680018,89.94867642
9.67,967,-0.061,-1.069,0.033,2.1199446,3.0939732,-0.2291832000000001,91.73630538,-0.4010706000000001,89.97732432000002
9.68,968,-0.066,-1.055,0.04,2.7501984,4.6409598,-0.4010706,91.74203496,-0.4984734599999999,90.02889053999998
9.69,969,-0.064,-1.037,0.05,3.9534102,6.1879464,-0.5156622000000001,91.78214202,-0.4984734599999999,90.09191592
9.7,970,-0.053,-1.019,0.063,5.5003968,7.906820400000001,-0.4583664000000001,91.83943782,-0.4984734599999999,90.17213004
9.71,971,-0.039,-1.007,0.07200000000000001,6.3025379999999975,8.880849000000003,-0.2291832000000001,91.9024632,-0.4984734599999999,90.25807374
9.72,972,-0.021,-0.997,0.077,6.5317212,9.6829902,0.286479,91.96548857999998,-0.5099326200000001,90.3554766
9.73,973,-0.002,-0.991,0.084,6.3598338,10.313244,0.8594370000000001,92.05716186,-0.5042030399999999,90.45860904
9.74,974,0.016,-0.983,0.087,5.844171599999999,10.313244,1.5469866,92.11445766,-0.52712136,90.56174148
9.75,975,0.028,-0.985,0.087,5.2139178,9.8548776,2.5210152000000003,92.16602387999998,-0.55576926,90.65914434
9.76,976,0.035,-0.993,0.085,4.8701430000000006,8.8235532,3.4377480000000005,92.21186052,-0.59587632,90.74508804
9.77,977,0.033,-1.005,0.079,4.1825934,6.875496000000001,4.297185,92.25196758,-0.64171296,90.80811342
9.78,978,0.023,-1.024,0.071,3.8388186,4.8128472,4.5263682,92.29780422000002,-0.64171296,90.85395006
9.79,979,0.01,-1.034,0.065,2.9793816000000004,3.151269,3.8961144,92.3321817,-0.6875496,90.88259796
9.8,980,-0.006,-1.04,0.06,2.1199446,1.7188740000000002,2.9793816000000004,92.34937044,-0.7161975,90.8997867
9.81,981,-0.024,-1.042,0.055,1.3178034,0.5156622000000001,1.7188740000000002,92.36655918,-0.73338624,90.90551628
9.82,982,-0.038,-1.039,0.053,0.3437748,0.0,0.3437748,92.36655918,-0.7391158200000001,90.90551628
9.83,983,-0.049,-1.031,0.056,-0.286479,-0.2291832000000001,-0.6875496,92.32072254,-0.97975818,90.91124586
9.84,984,-0.056,-1.015,0.061,-0.7448454000000001,-0.11459160000000004,-1.4896908000000002,92.30926338,-0.96256944,90.91124586
9.85,985,-0.056,-0.999,0.064,-0.6302538000000001,0.4010706,-1.6615782,92.3035338,-0.95111028,90.91697544
9.86,986,-0.051,-0.984,0.069,-0.1718874,1.7188740000000002,-1.5469866,92.3035338,-0.93392154,90.93416418
9.87,987,-0.047,-0.975,0.077,0.4583664000000001,3.2658606,-1.0313244,92.3035338,-0.92246238,90.96854166
9.88,988,-0.043,-0.974,0.08,0.9740286,4.8701430000000006,-0.2291832000000001,92.35510002,-0.96829902,91.0143783
9.89,989,-0.037000000000000005,-0.979,0.079,1.5469866,6.3598338,0.6302538000000001,92.36655918,-0.97975818,91.07740368
9.9,990,-0.033,-0.987,0.076,1.6042823999999998,7.5630456000000015,1.4896908000000002,92.38374792,-1.0026765,91.15188822
9.91,991,-0.029,-0.998,0.077,1.6615782,8.250595200000001,2.1199446,92.39520708,-1.0255948199999998,91.23210234
9.92,992,-0.024,-1.013,0.08,1.6042823999999998,8.7662574,2.6356068,92.41239582,-1.0599723,91.31804604
9.93,993,-0.022,-1.022,0.079,1.3178034,8.7662574,3.0366774,92.44104372,-1.09434978,91.40398974
9.94,994,-0.02,-1.028,0.078,0.5156622000000001,7.8495246,3.0939732,92.44104372,-1.12872726,91.48420386
9.95,995,-0.02,-1.029,0.075,-0.057295800000000015,6.417129599999999,2.86479,92.44104372,-1.16310474,91.54722924
9.96,996,-0.021,-1.027,0.07400000000000001,-0.9167328,4.9847345999999995,2.5210152000000003,92.42958456,-1.19175264,91.59306588
9.97,997,-0.025,-1.023,0.075,-1.2605076000000002,3.8388186,2.0053530000000004,92.41239582,-1.21467096,91.62744336
9.98,998,-0.031,-1.016,0.081,-1.4896908000000002,2.8074942000000003,1.4896908000000002,92.44104372,-1.24331886,91.65609126
9.99,999,-0.032,-1.011,0.08199999999999999,-1.6615782,1.8334656000000005,0.9740286,92.42385498,-1.25477802,91.67328
10.0,1000,-0.032,-1.003,0.083,-1.3178034,1.0886202,0.6302538000000001,92.41239582,-1.26623718,91.68473916
10.01,1001,-0.031,-0.996,0.08199999999999999,-0.5156622000000001,0.572958,0.4010706,92.40666624,-1.26623718,91.69046874
10.02,1002,-0.03,-0.993,0.083,0.1718874,0.2291832000000001,0.3437748,92.40666624,-1.27196676,91.69046874
10.03,1003,-0.03,-0.993,0.086,0.6302538000000001,0.057295800000000015,0.4583664000000001,92.6186607,-1.32353298,91.69046874
10.04,1004,-0.034,-0.997,0.086,1.0886202,0.1718874,0.572958,92.63011986,-1.32926256,91.69046874
10.05,1005,-0.039,-1.004,0.085,1.2032118,0.4583664000000001,0.6302538000000001,92.64157902,-1.3349921400000002,91.69619832
10.06,1006,-0.043,-1.009,0.083,1.2032118,0.8594370000000001,0.5156622000000001,92.65876776,-1.34072172,91.70192790000002
10.07,1007,-0.048,-1.011,0.08199999999999999,1.5469866,1.145916,0.3437748,92.67022692,-1.3464512999999998,91.71338706000002
10.08,1008,-0.051,-1.008,0.083,1.7188740000000002,1.4896908000000002,0.0,92.74471146,-1.43812458,91.73630538
10.09,1009,-0.053,-1.006,0.081,2.0053530000000004,1.9480572,-0.057295800000000015,92.76762978,-1.43812458,91.75349412
10.1,1010,-0.052000000000000005,-1.006,0.078,2.3491278,2.0626488000000003,-0.1718874,92.7905481,-1.43812458,91.77641244
10.11,1011,-0.05,-1.005,0.075,2.1772404,2.1199446,-0.1718874,92.81346642,-1.43812458,91.79933076
10.12,1012,-0.047,-1.006,0.076,1.7761698,2.3491278,-0.11459160000000004,92.83065516000002,-1.43812458,91.82224908
10.13,1013,-0.043,-1.003,0.076,1.5469866,2.6929026,-0.057295800000000015,92.86503264,-1.4782316400000002,91.85089698
10.14,1014,-0.04,-0.998,0.077,1.5469866,2.9220857999999996,0.0,92.8764918,-1.4782316400000002,91.87954488
10.15,1015,-0.036000000000000004,-0.998,0.078,1.8907613999999997,2.8074942000000003,0.11459160000000004,92.89368054,-1.48396122,91.90819278
10.16,1016,-0.034,-0.997,0.079,2.1199446,2.3491278,0.11459160000000004,92.91659886,-1.48396122,91.9311111
10.17,1017,-0.033,-0.997,0.079,2.1199446,2.0626488000000003,0.3437748,92.93951718,-1.4896908000000002,91.95402942
10.18,1018,-0.037000000000000005,-0.997,0.08,2.1199446,1.9480572,0.572958,92.97389466,-1.5183387000000002,91.97121816
10.19,1019,-0.04,-0.997,0.078,2.1199446,1.9480572,0.5156622000000001,92.99681298,-1.52406828,91.99413648
10.2,1020,-0.043,-0.998,0.077,2.2345362,2.0053530000000004,0.3437748,93.0197313,-1.52979786,92.01132522
10.21,1021,-0.043,-1.001,0.077,2.4064236,1.9480572,0.1718874,93.04264962,-1.53552744,92.03424354
10.22,1022,-0.042,-1.003,0.079,2.5210152000000003,2.0053530000000004,0.057295800000000015,93.06556794,-1.53552744,92.05143228
10.23,1023,-0.04,-1.006,0.08199999999999999,2.4637194,1.9480572,0.1718874,93.11140458,-1.55844576,92.0743506
10.24,1024,-0.038,-1.005,0.085,2.4637194,1.6042823999999998,0.3437748,93.14005248,-1.56417534,92.08580976
10.25,1025,-0.034,-1.004,0.083,2.4064236,1.145916,0.6302538000000001,93.1629708,-1.56990492,92.09726892
10.26,1026,-0.028,-1.003,0.083,2.3491278,0.572958,0.8594370000000001,93.18588912,-1.5813640800000002,92.1029985
10.27,1027,-0.026,-1.005,0.09,2.4637194,0.057295800000000015,1.0886202,93.21453702,-1.59282324,92.10872808
10.28,1028,-0.026,-1.004,0.092,2.7501984,-0.286479,1.3178034,93.27756240000001,-1.59282324,92.09726892
10.29,1029,-0.028,-1.003,0.092,3.0366774,-0.7448454000000001,1.432395,93.3062103,-1.6042824000000002,92.09153934
10.3,1030,-0.033,-1.003,0.091,2.9793816000000004,-1.3178034,1.4896908000000002,93.34058778,-1.62147114,92.08008018
10.31,1031,-0.039,-1.003,0.094,2.86479,-1.8334656000000005,1.432395,93.36923568,-1.6329303,92.05716186
10.32,1032,-0.046,-1.004,0.1,2.9220857999999996,-1.8334656000000005,1.2032118,93.39788358,-1.64438946,92.03997312
10.33,1033,-0.051,-1.007,0.102,3.2085648,-1.7188740000000002,0.8594370000000001,93.4780977,-1.6902260999999998,92.02278438
