TimeStamp(s),FrameCounter,AccX,AccY,AccZ,GyrX,GyrY,GyrZ,EulerX,EulerY,EulerZ
0.01,1,0.019,-1.013,0.024,0.8021411999999999,-4.5263682,0.4010706,92.75044104,1.32926256,-41.80301568
0.02,2,0.016,-1.011,0.021,0.4583664000000001,-4.1252976000000015,0.3437748,92.75617062,1.32926256,-41.84312274
0.03,3,0.01,-1.009,0.018000000000000002,0.572958,-3.6669312000000014,0.1718874,92.7619002,1.32926256,-41.87750022
0.04,4,0.008,-1.008,0.016,0.4583664000000001,-3.0366774,0.0,92.76762978,1.32926256,-41.91187770000001
0.05,5,0.011,-1.009,0.018000000000000002,0.4010706,-2.2345362,-0.1718874,92.60147196,1.31207382,-41.95198476
0.060000000000000005,6,0.014,-1.013,0.026,0.4583664000000001,-2.1772404,-0.11459160000000004,92.60720154,1.3178034,-41.9691735
0.06999999999999999,7,0.015,-1.018,0.031,-0.057295800000000015,-1.8334656000000005,-0.11459160000000004,92.60720154,1.3178034,-41.99209182
0.08,8,0.018000000000000002,-1.018,0.03,-1.432395,-1.7761698,-0.2291832000000001,92.5900128,1.32353298,-42.00928055999999
0.09,9,0.031,-1.013,0.03,-3.5523396000000003,-2.1199446,0.0,92.55563532,1.32353298,-42.0264693
0.09999999999999999,10,0.03,-1.004,0.022,-4.0680017999999984,-2.0053530000000004,0.572958,92.44104372,1.32926256,-42.04365804
0.11,11,0.012,-1.0,0.013,-3.8388186,-1.8907613999999997,0.8594370000000001,92.40666624,1.32353298,-42.06084678000001
0.12,12,0.012,-1.002,0.016,-2.4637194,-1.6042823999999998,1.2605076000000002,92.37801834,1.31207382,-42.07803552
0.13,13,0.013,-1.02,0.01,-1.3750992,-1.4896908000000002,1.0886202,92.36655918,1.30061466,-42.09522426
0.14,14,0.009000000000000001,-1.034,-0.001,-0.7448454000000001,-1.5469866,-0.057295800000000015,92.35510002,1.30061466,-42.112413
0.15000000000000002,15,0.01,-1.014,-0.006,-0.7448454000000001,-1.6615782,-0.6875496,92.14883514,1.28342592,-42.14679048
0.16,16,0.003,-0.983,-0.012,-0.5156622000000001,-1.4896908000000002,-0.11459160000000004,92.14310556,1.2891555000000001,-42.16397922
0.17,17,0.001,-0.983,-0.011,-0.572958,-0.11459160000000004,0.572958,92.1316464,1.28342592,-42.16397922
0.18000000000000002,18,0.0,-1.0,-0.006999999999999999,0.0,0.3437748,0.4583664000000001,92.1316464,1.27769634,-42.16397922
0.19,19,-0.001,-1.008,-0.004,0.4583664000000001,0.572958,-0.057295800000000015,92.13737598,1.27769634,-42.15824964
0.2,20,0.0,-1.006,-0.002,0.8021411999999999,0.8021411999999999,-0.5156622000000001,91.9311111,1.22613012,-42.18689754
0.21000000000000002,21,0.005,-1.004,0.002,1.145916,1.0313244,-0.572958,91.94257026,1.2318597,-42.17543838
0.22,22,0.014,-1.009,0.006999999999999999,1.8907613999999997,1.2032118,-0.3437748,91.96548857999998,1.23758928,-42.16397922
0.23,23,0.022,-1.019,0.009000000000000001,1.8907613999999997,0.8594370000000001,-0.2291832000000001,91.98267732,1.23758928,-42.15252006
0.24000000000000002,24,0.023,-1.024,0.009000000000000001,1.8334656000000005,0.1718874,-0.11459160000000004,91.99986606,1.24331886,-42.15252006
0.25,25,0.018000000000000002,-1.022,0.013,1.6042823999999998,-0.3437748,-0.11459160000000004,91.85089698,1.24904844,-42.15252006
0.26,26,0.018000000000000002,-1.016,0.014,1.5469866,-0.7448454000000001,-0.2291832000000001,91.86808572,1.25477802,-42.15824964
0.27,27,0.019,-1.008,0.016,1.3178034,-1.4896908000000002,-0.3437748,91.87954488,1.25477802,-42.17543838
0.28,28,0.02,-1.004,0.015,1.0886202,-1.8907613999999997,-0.4010706,91.89100404,1.2605076000000002,-42.19262712
0.29000000000000004,29,0.022,-1.004,0.016,0.8021411999999999,-2.0626488000000003,-0.3437748,91.9024632,1.26623718,-42.21554544
0.3,30,0.023,-1.009,0.013,0.6875496,-2.3491278,-0.3437748,91.79933076,1.2891555000000001,-42.2270046
0.31,31,0.021,-1.013,0.009000000000000001,0.4010706,-2.5210152000000003,-0.286479,91.80506034,1.2891555000000001,-42.255652500000004
0.32,32,0.019,-1.018,0.006,0.2291832000000001,-2.6929026,-0.286479,91.80506034,1.29488508,-42.27857082
0.33,33,0.019,-1.019,0.004,-0.057295800000000015,-2.6356068,-0.1718874,91.80506034,1.30061466,-42.30721872
0.34,34,0.017,-1.017,-0.003,0.0,-2.8074942000000003,-0.11459160000000004,91.80506034,1.30061466,-42.33586662
0.35000000000000003,35,0.015,-1.017,-0.003,0.5156622000000001,-2.5210152000000003,-0.057295800000000015,91.65609126,1.30061466,-42.36451452
0.36000000000000004,36,0.015,-1.022,-0.003,0.6302538000000001,-1.7761698,0.0,91.66182084,1.30061466,-42.38170326
0.37,37,0.014,-1.023,-0.004,0.4583664000000001,-1.7188740000000002,0.0,91.66755042,1.30061466,-42.398892
0.38,38,0.013,-1.022,0.0,0.057295800000000015,-1.9480572,-0.057295800000000015,91.66755042,1.30061466,-42.42181032
0.39,39,0.016,-1.021,0.003,-1.0886202,-2.0626488000000003,-0.057295800000000015,91.65609126,1.30634424,-42.43899906
0.4,40,0.02,-1.022,0.004,-2.6929026,-2.4637194,0.0,91.57587714,1.31207382,-42.46191738
0.41000000000000003,41,0.026,-1.029,0.001,-5.443101,-3.380452200000001,0.0,91.51858134,1.31207382,-42.49629486
0.42000000000000004,42,0.028,-1.042,-0.01,-8.9954406,-4.1825934,0.2291832000000001,91.42690806,1.31207382,-42.5421315
0.43,43,0.021,-1.058,-0.023,-13.2353298,-5.1566220000000005,0.5156622000000001,91.28939814,1.30634424,-42.59369772
0.44,44,0.001,-1.081,-0.024,-18.6784308,-5.443101,0.6302538000000001,91.100322,1.30061466,-42.65099352
0.45,45,-0.014,-1.101,-0.04,-25.7258142,-3.3231564,0.5156622000000001,90.81957258,1.2891555000000001,-42.69110058
0.46,46,-0.022,-1.105,-0.08800000000000001,-33.002380800000005,-0.572958,0.2291832000000001,90.48152736,1.28342592,-42.70255974000001
0.47000000000000003,47,-0.027000000000000003,-1.087,-0.126,-35.9244666,0.9167328,0.1718874,90.12056382,1.27769634,-42.69683016000001
0.48000000000000004,48,-0.025,-1.074,-0.136,-36.2682414,1.6615782,0.4010706,89.74814112,1.27196676,-42.685371
0.49,49,-0.017,-1.07,-0.135,-37.9298196,2.291832,1.145916,89.36425926,1.25477802,-42.66245268
0.5,50,-0.005,-1.064,-0.134,-40.04976420000001,2.6356068,1.8907613999999997,88.93454076,1.22613012,-42.64526393999999
0.51,51,0.01,-1.058,-0.145,-42.7999626,2.86479,2.3491278,88.49909268,1.2032117999999998,-42.62234562
0.52,52,0.026,-1.052,-0.162,-46.9252602,3.151269,2.6929026,88.02353753999998,1.1688343199999998,-42.59369772
0.53,53,0.04,-1.041,-0.18,-51.56622,2.6929026,2.9220857999999996,87.50214575999998,1.13445684,-42.5707794
0.54,54,0.051,-1.036,-0.194,-55.11855960000001,1.2605076000000002,3.2658606,86.94064691999998,1.10007936,-42.56504982
0.55,55,0.055,-1.039,-0.217,-58.2698286,-0.5156622000000001,3.380452200000001,86.32758186,1.06570188,-42.5707794
0.56,56,0.045,-1.041,-0.245,-61.36380179999999,-2.4064236,3.0366774,85.70305764,1.0255948199999998,-42.5994273
0.5700000000000001,57,0.031,-1.04,-0.26,-62.45242200000001,-4.583664,2.3491278,85.06707426,0.9969469199999998,-42.65099352
0.5800000000000001,58,0.012,-1.04,-0.28,-61.7648724,-4.9847345999999995,1.6042823999999998,84.44255003999999,0.9740286,-42.70255974000001
0.59,59,0.006999999999999999,-1.03,-0.294,-58.2125328,-6.0733548,1.4896908000000002,83.85240329999998,0.9453806999999999,-42.77131470000001
0.6,60,0.006999999999999999,-1.022,-0.293,-54.029939399999996,-7.8495246,1.8907613999999997,83.27371572000001,0.9167328000000001,-42.85152882
0.61,61,0.006,-1.013,-0.29100000000000004,-52.3683612,-8.9954406,2.291832,82.74659436,0.87662574,-42.9432021
0.62,62,0.0,-1.003,-0.294,-53.571573,-8.9954406,2.86479,82.20228426,0.83651868,-43.03487538
0.63,63,-0.006999999999999999,-0.984,-0.29600000000000004,-56.2644756,-8.3651868,3.151269,81.62932626,0.7906820400000001,-43.1150895
0.64,64,-0.012,-0.962,-0.307,-60.7908438,-8.59437,3.0939732,81.01053162,0.7448454000000001,-43.20103320000001
0.65,65,-0.017,-0.952,-0.315,-67.7809314,-8.7662574,2.4064236,80.30579328,0.69900876,-43.29270648
0.66,66,-0.019,-0.94,-0.319,-75.05749800000002,-7.7922288,1.5469866,79.54375913999998,0.66463128,-43.3729206
0.67,67,-0.006,-0.921,-0.314,-80.61519059999998,-3.0939732,0.9740286,78.7244292,0.64171296,-43.41302766
0.68,68,0.0,-0.882,-0.304,-83.36538900000002,5.0993262,1.7188740000000002,77.87645136,0.62452422,-43.36719102
0.6900000000000001,69,0.012,-0.846,-0.266,-86.0009958,14.9542038,3.9534102,77.00555519999998,0.6073354799999999,-43.21822194
0.7000000000000001,70,0.01,-0.813,-0.174,-93.6213372,19.767051,5.844171599999999,76.05444492,0.5786875800000001,-43.02341622
0.7100000000000001,71,0.006999999999999999,-0.7829999999999999,-0.133,-105.08049720000001,19.1367972,6.875496000000001,74.98874304,0.5443101,-42.83434008
0.72,72,0.005,-0.75,-0.155,-109.148499,13.6364004,9.1100322,73.87720451999998,0.47555514,-42.685371
0.73,73,0.01,-0.71,-0.16399999999999998,-110.9819646,7.3911582,9.6256944,72.75420684000002,0.38961144,-42.5994273
0.74,74,0.006,-0.695,-0.163,-110.17982340000002,8.880849000000003,8.3651868,71.63693874,0.32658606,-42.49629486
0.75,75,0.016,-0.743,-0.22,-110.8100772,11.2872726,5.9014674000000005,70.50821148,0.29220857999999994,-42.38170326
0.76,76,0.03,-0.816,-0.304,-113.96134620000001,6.589017,3.7815227999999994,69.35083632,0.26356068,-42.3129483
0.77,77,0.039,-0.873,-0.35600000000000004,-115.68022020000001,-4.1252976000000015,1.6615782,68.17627242,0.21772404,-42.35878494
0.78,78,0.028,-0.8170000000000001,-0.22,-111.5549226,-14.037471,0.4010706,67.04754516,0.15469866,-42.49056528000001
0.79,79,0.045,-0.775,-0.168,-95.683986,-13.120738199999998,0.1718874,66.07924614,0.09167328,-42.62234562
0.8,80,0.055,-0.8690000000000001,-0.255,-99.5228046,-7.906820400000001,-0.4010706,65.07656964,0.057295800000000015,-42.69683016000001
0.81,81,0.038,-0.92,-0.331,-109.5495696,-4.6982556,-1.8334656000000005,63.965031120000006,0.04010706,-42.75412596
0.8200000000000001,82,0.015,-0.956,-0.404,-110.580894,-10.5424272,-2.86479,62.84203344,0.01145916,-42.86871756
0.8300000000000001,83,-0.015,-0.937,-0.446,-112.299768,-9.0527364,-2.9220857999999996,61.7075766,-0.01145916,-42.97185
0.8400000000000001,84,-0.027000000000000003,-0.87,-0.503,-113.9040504,-4.4690724,-2.6929026,60.55020144,-0.02291832,-43.029145799999995
0.85,85,-0.026,-0.835,-0.524,-118.60230599999998,4.1825934,-1.6615782,59.34698964,-0.00572958,-43.01195706
0.86,86,-0.033,-0.845,-0.44,-124.045407,13.349921400000001,-0.4010706,58.08648204,0.04010706,-42.90882462
0.87,87,-0.048,-0.7909999999999999,-0.364,-126.623718,14.037471,0.0,56.79732654000001,0.09740286,-42.79423302
0.88,88,-0.116,-0.732,-0.377,-129.8895786,11.172681,1.8334656000000005,55.47952314000001,0.12605075999999998,-42.69683016000001
0.89,89,-0.106,-0.684,-0.293,-117.8001648,7.7922288,2.0626488000000003,54.28204092,0.13178034,-42.62807520000001
0.9,90,-0.047,-0.762,-0.269,-109.148499,9.740286,-2.6356068,53.18769113999999,0.19480572,-42.5707794
0.91,91,-0.004,-0.769,-0.344,-112.3570638,11.45916,-5.5003968,52.04750471999999,0.28647900000000004,-42.5134836
0.92,92,0.04,-0.773,-0.458,-113.33109240000002,12.318597,-6.1879464,50.89585913999999,0.39534102,-42.46191738
0.93,93,0.08199999999999999,-0.775,-0.5720000000000001,-112.872726,12.261301199999998,-4.583664,49.74994314,0.4870143000000001,-42.398892
0.9400000000000001,94,0.104,-0.7559999999999999,-0.6,-109.77875279999999,10.6570188,-1.145916,48.63267504,0.55003968,-42.33013704
0.9500000000000001,95,0.097,-0.713,-0.618,-108.1171746,7.9641161999999985,2.5210152000000003,47.53259568,0.5729580000000001,-42.24992292
0.9600000000000001,96,0.08900000000000001,-0.674,-0.6,-105.8826384,4.6409598,4.2398892,46.46116422,0.56149884,-42.18689754
0.97,97,0.069,-0.6509999999999999,-0.417,-101.5281576,0.1718874,4.9847345999999995,45.42983982,0.5099326200000001,-42.15252006
0.98,98,0.033,-0.622,-0.249,-101.3562702,2.2345362,5.6722842,44.39851542,0.46982556,-42.10095384
0.99,99,0.029,-0.56,-0.438,-99.0644382,-3.7815227999999994,4.2398892,43.39583892,0.4010706000000001,-42.10095384
1.0,100,0.037000000000000005,-0.612,-0.561,-95.28291540000001,-8.193299399999999,3.6096354,42.43326947999999,0.30939732,-42.12960174
1.01,101,0.073,-0.674,-0.5670000000000001,-92.3608296,-10.599723,3.2085648,41.49934794,0.20053530000000008,-42.18116796
1.02,102,0.08,-0.693,-0.5870000000000001,-92.5900128,-10.255948199999999,2.291832,40.55969682,0.09740286,-42.23273418
1.03,103,0.069,-0.618,-0.617,-92.0170548,-9.2819196,1.5469866,39.625775280000006,0.00572958,-42.28430039999999
1.04,104,0.044,-0.511,-0.606,-88.7511942,-8.021412000000002,1.145916,38.72623122,-0.06875496,-42.32440746
1.05,105,0.024,-0.451,-0.606,-84.96967140000002,-5.6149884000000005,1.3178034,37.86106464,-0.13178034,-42.35305536
1.06,106,0.011,-0.412,-0.645,-80.50059900000002,-2.4637194,2.3491278,37.0417347,-0.1718874,-42.34732578
1.07,107,0.009000000000000001,-0.382,-0.6609999999999999,-74.5418358,0.4583664000000001,3.6096354,36.28543014,-0.20053530000000008,-42.31867788
1.08,108,0.012,-0.359,-0.721,-69.8435802,2.9793816000000004,3.8961144,35.57496222,-0.21199446,-42.26711166
1.09,109,0.019,-0.376,-0.7140000000000001,-62.853492599999996,5.042030400000002,4.1825934,34.93897884,-0.20626488,-42.20408628
1.1,110,0.019,-0.398,-0.654,-57.4103916,6.0733548,4.4117766,34.3488321,-0.18907614,-42.12960174
1.11,111,0.015,-0.409,-0.634,-52.597544400000004,4.9274388,3.7815227999999994,33.81598116,-0.17761697999999998,-42.06657636
1.12,112,0.006,-0.392,-0.606,-48.4722468,4.297185,4.010706000000001,33.32323728,-0.1718874,-42.00928055999999
1.1300000000000001,113,0.006,-0.378,-0.624,-44.690724,5.443101,4.5263682,32.86487088,-0.15469866,-41.9405256
1.1400000000000001,114,0.031,-0.374,-0.6579999999999999,-42.1697088,5.3858052,4.6409598,32.43515238,-0.14323950000000002,-41.87177064
1.1500000000000001,115,0.053,-0.373,-0.6659999999999999,-39.820581,4.0680017999999984,4.9274388,32.02262262000001,-0.13178034,-41.80301568
1.1600000000000001,116,0.06,-0.359,-0.6609999999999999,-36.955791,2.0626488000000003,4.583664,31.64447034,-0.14323950000000002,-41.75144946
1.17,117,0.063,-0.333,-0.705,-34.66395900000001,-0.11459160000000004,4.0680017999999984,31.294965959999995,-0.1718874,-41.71707198
1.18,118,0.065,-0.311,-0.718,-30.4813656,-2.1199446,4.1252976000000015,30.985568640000004,-0.21772404,-41.69415366
1.19,119,0.057,-0.31,-0.74,-26.1841806,-4.1252976000000015,4.1252976000000015,30.72200796000001,-0.27501984,-41.67696492
1.2,120,0.022,-0.313,-0.772,-21.9442914,-6.3598338,4.4117766,30.46417686,-0.35523396,-41.67123534
1.21,121,-0.023,-0.33,-0.7490000000000001,-16.615782,-5.042030400000002,3.7815227999999994,30.298019040000003,-0.41825934,-41.66550576
1.22,122,-0.065,-0.343,-0.743,-12.9488508,-0.6875496,2.3491278,30.166238699999997,-0.43544808,-41.6540466
1.23,123,-0.103,-0.336,-0.737,-9.167328,4.1252976000000015,0.9167328,30.07456542,-0.40680018,-41.61966912000001
1.24,124,-0.115,-0.319,-0.738,-4.9274388,8.078707799999998,-0.11459160000000004,30.022999200000005,-0.33804522,-41.57956206
1.25,125,-0.099,-0.299,-0.7390000000000001,-0.1718874,8.9954406,-0.1718874,29.9657034,-0.29793816,-41.55664374
1.26,126,-0.046,-0.294,-0.7559999999999999,4.1252976000000015,8.5370742,0.286479,30.00581046,-0.2291832000000001,-41.5108071
1.27,127,-0.005,-0.29100000000000004,-0.731,9.0527364,6.9327918,1.3178034,30.09748374,-0.17761697999999998,-41.46497046
1.28,128,0.003,-0.294,-0.713,13.8082878,5.958763200000001,2.291832,30.234993660000004,-0.13178034,-41.41340424
1.29,129,-0.026,-0.3,-0.7559999999999999,17.9335854,8.136003599999999,2.0626488000000003,30.41261064,-0.07448454,-41.35610844
1.3,130,-0.063,-0.306,-0.777,22.459953600000002,11.2872726,0.8594370000000001,30.61314594,0.0,-41.29881264
1.31,131,-0.081,-0.348,-0.7609999999999999,27.5592798,14.9542038,0.4583664000000001,30.88816578,0.12032118,-41.21286894
1.32,132,-0.075,-0.349,-0.774,31.6845774,17.5325148,-0.11459160000000004,31.20902226,0.27501984,-41.12119566
1.33,133,-0.066,-0.355,-0.769,36.898495200000006,18.6784308,-0.4583664000000001,31.58144496,0.43544808,-41.02952238
1.34,134,-0.05,-0.375,-0.736,41.9978214,19.308684600000007,-0.6875496,32.005433880000005,0.6073354799999999,-40.92638994
1.35,135,-0.022,-0.393,-0.727,46.00852740000001,19.7097552,-0.7448454000000001,32.46380028,0.7734933,-40.82898708000001
1.36,136,-0.003,-0.396,-0.7090000000000001,50.133825,18.2200644,-0.7448454000000001,32.968003319999994,0.93392154,-40.73158422
1.37,137,0.002,-0.417,-0.693,55.40503860000001,15.4125702,-0.11459160000000004,33.52950216000001,1.06570188,-40.64564052
1.3800000000000001,138,0.01,-0.43,-0.716,58.15523699999999,13.0061466,0.8021411999999999,34.1196489,1.1745638999999999,-40.5654264
1.3900000000000001,139,0.028,-0.449,-0.73,61.5356892,12.0894138,2.0053530000000004,34.7499027,1.27196676,-40.47948270000001
1.4000000000000001,140,0.051,-0.466,-0.716,66.0620574,12.834259199999998,2.9793816000000004,35.41453398,1.36936962,-40.37635026
1.4100000000000001,141,0.053,-0.478,-0.711,69.72898860000001,13.349921400000001,3.9534102,36.11927232,1.4610428999999998,-40.26175866
1.42,142,0.032,-0.47,-0.698,73.73969459999998,14.32395,4.7555514,36.869847299999996,1.5527161800000002,-40.1357079
1.43,143,0.017,-0.489,-0.682,78.32335859999998,15.469866,4.8701430000000006,37.66625892,1.6558486199999998,-40.00392756
1.44,144,-0.01,-0.5,-0.69,81.9902898,15.870936600000002,4.6982556,38.5027776,1.75898106,-39.86641764
1.45,145,-0.012,-0.522,-0.7090000000000001,85.54262940000002,12.3758928,4.7555514,39.36794418,1.82773602,-39.75182604
1.46,146,-0.001,-0.563,-0.7040000000000001,88.2928278,8.59437,5.443101,40.26748824,1.86784308,-39.65442318
1.47,147,0.028,-0.59,-0.7120000000000001,89.66792699999998,5.7868758000000025,6.1879464,41.17849146,1.88503182,-39.5627499
1.48,148,0.059,-0.598,-0.7240000000000001,91.1576178,4.297185,6.589017,42.10668342,1.88503182,-39.48253578
1.49,149,0.077,-0.61,-0.7190000000000001,93.7359288,2.5210152000000003,7.2192707999999985,43.05779370000001,1.86784308,-39.41378082
1.5,150,0.079,-0.619,-0.73,95.7412818,1.7761698,8.136003599999999,44.02609272,1.83919518,-39.33929628
1.51,151,0.061,-0.627,-0.732,97.975818,2.3491278,8.7662574,45.02303963999999,1.81054728,-39.25335258
1.52,152,0.015,-0.6559999999999999,-0.7240000000000001,101.127087,3.7815227999999994,8.9381448,46.04863446,1.78189938,-39.161679299999996
1.53,153,-0.003,-0.682,-0.727,103.705398,4.2398892,8.651665800000002,47.10860676,1.76471064,-39.07000602
1.54,154,0.006999999999999999,-0.7170000000000001,-0.76,105.3669762,2.7501984,8.078707799999998,48.18003822000001,1.73606274,-38.9897919
1.55,155,0.045,-0.7609999999999999,-0.765,107.3150334,0.6302538000000001,7.1046792000000005,49.26292884000001,1.7074148399999998,-38.93822568
1.56,156,0.086,-0.804,-0.764,108.575541,-2.4064236,6.6463128000000005,50.3630082,1.6558486199999998,-38.90957778
1.57,157,0.092,-0.8320000000000001,-0.762,109.2630906,-4.6982556,6.875496000000001,51.47454672,1.5870936600000003,-38.89811862
1.58,158,0.075,-0.858,-0.757,110.52359820000001,-3.7815227999999994,7.3911582,52.597544400000004,1.52406828,-38.88092988
1.59,159,0.038,-0.883,-0.742,112.0705848,-1.3178034,7.8495246,53.73773082,1.46677248,-38.83509324
1.6,160,-0.029,-0.915,-0.7290000000000001,113.84675459999998,1.432395,7.9641161999999985,54.8893764,1.4209358399999998,-38.77779744
1.61,161,-0.051,-0.945,-0.7340000000000001,114.878079,4.4690724,7.5630456000000015,56.05821072,1.39801752,-38.69185374
1.62,162,-0.019,-0.982,-0.722,115.56562859999998,5.2712136,6.6463128000000005,57.22704503999999,1.38655836,-38.60591004000001
1.6300000000000001,163,0.027000000000000003,-1.02,-0.695,115.737516,3.8388186,5.5576926,58.40733852000001,1.36936962,-38.53715508000001
1.6400000000000001,164,0.07400000000000001,-1.062,-0.6609999999999999,114.9926706,0.4010706,4.6409598,59.57617283999999,1.3464512999999998,-38.5027776
1.6500000000000001,165,0.093,-1.075,-0.6559999999999999,112.9873176,-3.5523396000000003,4.010706000000001,60.71635926,1.3178034,-38.5027776
1.6600000000000001,166,0.078,-1.094,-0.643,112.6435428,-5.6722842,3.4377480000000005,61.86227526,1.27196676,-38.5314255
1.6700000000000002,167,0.027000000000000003,-1.114,-0.631,112.4716554,-5.1566220000000005,3.4377480000000005,63.00246168,1.2318597,-38.55434382
1.68,168,-0.017,-1.133,-0.598,112.9300218,-2.6356068,4.3544808,64.14837768,1.19748222,-38.55434382
1.69,169,-0.018000000000000002,-1.16,-0.568,114.13323359999998,0.057295800000000015,5.1566220000000005,65.31148241999999,1.16310474,-38.51996634
1.7,170,0.003,-1.182,-0.545,114.2478252,0.4010706,5.2139178,66.46885758,1.13445684,-38.49131844
1.71,171,0.017,-1.203,-0.512,115.04996640000002,0.2291832000000001,4.5263682,67.63769190000001,1.10580894,-38.46267054
1.72,172,0.021,-1.229,-0.451,115.9094034,1.145916,2.6929026,68.8122558,1.10007936,-38.43402264
1.73,173,0.01,-1.238,-0.425,114.878079,2.0053530000000004,0.9740286,69.98109012,1.11153852,-38.39964516
1.74,174,-0.001,-1.24,-0.434,114.018642,2.1199446,0.11459160000000004,71.13846528,1.12872726,-38.37099726
1.75,175,-0.002,-1.24,-0.444,112.7008386,1.9480572,0.8021411999999999,72.2786517,1.14018642,-38.34234936
1.76,176,0.023,-1.24,-0.458,111.84140159999998,1.6042823999999998,2.3491278,73.41310854000002,1.12872726,-38.30797188
1.77,177,0.058,-1.235,-0.467,110.4663024,0.4583664000000001,4.4690724,74.53610622,1.10007936,-38.27932398
1.78,178,0.063,-1.237,-0.436,109.9506402,0.4583664000000001,5.844171599999999,75.65337432,1.0599723,-38.25067608
1.79,179,0.052000000000000005,-1.253,-0.403,109.3776822,0.7448454000000001,6.875496000000001,76.76491284,1.0026765,-38.2162986
1.8,180,0.031,-1.284,-0.3720000000000001,108.2317662,1.432395,7.3911582,77.85926262000002,0.9453806999999999,-38.17619154000001
1.81,181,-0.003,-1.3030000000000002,-0.341,106.2264132,2.5210152000000003,8.136003599999999,78.93642365999997,0.8823553199999999,-38.12462532
1.82,182,-0.021,-1.297,-0.353,102.7313694,4.010706000000001,9.797581800000001,79.97920722,0.8021412000000001,-38.06159994
1.83,183,-0.022,-1.277,-0.338,101.413566,4.8128472,11.8602306,81.01053162,0.70473834,-37.98138582
1.84,184,-0.013,-1.239,-0.324,99.8665794,5.042030400000002,13.2926256,82.02466728,0.59014674,-37.90690128
1.85,185,-0.001,-1.169,-0.318,97.6320432,5.6722842,13.464512999999998,83.00442546000002,0.46982556,-37.82095758
1.86,186,-0.002,-1.137,-0.266,98.262297,6.760904399999999,12.318597,84.00137237999998,0.36096354,-37.7292843
1.87,187,-0.031,-1.127,-0.224,97.8039306,7.7349330000000025,11.3445684,84.99258972,0.26356068,-37.63188144
1.8800000000000001,188,-0.059,-1.118,-0.16399999999999998,96.8871978,8.7662574,11.229976800000001,85.97807748,0.16615782,-37.528749
1.8900000000000001,189,-0.064,-1.082,-0.132,95.111028,9.5111028,13.8082878,86.94064691999998,0.04010706,-37.41415739999999
1.9000000000000001,190,-0.077,-1.082,-0.12,92.13164640000001,11.1153852,16.329303,87.86883888,-0.10886202,-37.29383622
1.9100000000000001,191,-0.046,-1.116,-0.091,88.8657858,14.152062599999999,15.813640800000002,88.76838294000002,-0.25783110000000004,-37.13913756
1.9200000000000002,192,-0.022,-1.167,-0.094,83.93834700000002,18.162768600000003,12.605076,89.61636078000002,-0.38388186,-36.94433184
1.93,193,-0.025,-1.192,-0.086,76.48989300000002,22.5172494,8.9381448,90.38985408,-0.46982556,-36.71514864
1.94,194,-0.084,-1.187,-0.071,71.61975,24.923673,8.5370742,91.10605158,-0.56149884,-36.46304712
1.95,195,-0.104,-1.166,-0.052000000000000005,67.1506776,27.5592798,8.880849000000003,91.77641244,-0.66463128,-36.18802728
1.96,196,-0.112,-1.145,-0.046,62.051351399999994,31.2835068,8.7662574,92.39520708,-0.76776372,-35.87290038
1.97,197,-0.109,-1.136,-0.04,58.15523699999999,34.7212548,8.021412000000002,92.97962424,-0.87089616,-35.52912558
1.98,198,-0.064,-1.13,-0.003,55.06126379999999,37.1276784,7.6776372,93.52393434,-0.9740286,-35.16243246
1.99,199,0.046,-1.121,0.024,51.68081160000001,36.6120162,8.021412000000002,94.03959654,-1.08289062,-34.80146892
2.0,200,0.093,-1.108,-0.011,48.0711762,33.6899304,8.307891,94.50369252,-1.18029348,-34.4634237
2.01,201,0.07200000000000001,-1.105,0.008,45.3209778,30.93973200000001,7.0473834,94.95059976,-1.28342592,-34.15975596
2.02,202,0.13699999999999998,-1.126,0.106,43.0291458,27.6738714,5.72958,95.38031826,-1.36936962,-33.8904657
2.03,203,0.117,-1.144,0.129,37.9871154,24.4653066,6.0733548,95.75847054,-1.45531332,-33.64982334
2.04,204,0.083,-1.153,0.124,32.7731976,23.204799,5.844171599999999,96.07932702,-1.5412570200000002,-33.42064014
2.05,205,0.083,-1.132,0.166,28.5906042,21.6578124,5.9014674000000005,96.36580602,-1.61001198,-33.2029161
2.0599999999999996,206,0.07400000000000001,-1.1,0.16699999999999998,24.4653066,18.162768600000003,6.703608600000001,96.60644838,-1.70168526,-33.03102869999999
2.07,207,0.086,-1.054,0.158,20.2827132,15.3552744,7.333862400000001,96.80698368,-1.7933585399999998,-32.88205962
2.0799999999999996,208,0.123,-1.025,0.172,18.2773602,9.6829902,7.2192707999999985,96.99033024,-1.87930224,-32.79611592
2.09,209,0.171,-1.01,0.196,16.7303736,1.9480572,6.760904399999999,97.16221764,-1.9480572000000005,-32.784656760000004
2.0999999999999996,210,0.229,-1.002,0.209,16.7303736,-6.3598338,5.958763200000001,97.35129378,-1.89649098,-32.79611592
2.11,211,0.281,-1.002,0.249,17.5325148,-13.6936962,5.443101,97.54036992,-1.93086846,-32.933625840000005
2.1199999999999997,212,0.278,-0.994,0.293,18.7357266,-23.032911600000002,6.130650599999999,97.74090522,-1.95378678,-33.16280904
2.13,213,0.25,-0.988,0.278,18.449247600000003,-29.9084076,7.0473834,97.94144052,-1.97097552,-33.4607472
2.1399999999999997,214,0.225,-0.96,0.248,18.048177,-36.5547204,7.5630456000000015,98.14197582,-1.98816426,-33.82744032
2.15,215,0.151,-0.941,0.226,18.5065434,-42.685371,8.3651868,98.35969986,-1.97097552,-34.23997008
2.1599999999999997,216,0.08800000000000001,-0.931,0.246,19.7097552,-46.8679644,9.2819196,98.58315348,-1.98243468,-34.70979564
2.17,217,0.021,-0.916,0.26,19.8243468,-50.0765292,9.2819196,98.81233668,-1.98243468,-35.20826909999999
2.1799999999999997,218,-0.023,-0.913,0.246,21.3140376,-51.2224452,8.880849000000003,99.05297904,-1.9767051,-35.71820172
2.19,219,-0.002,-0.927,0.263,22.5745452,-49.1597964,6.589017,99.30508056,-1.9480572000000005,-36.20521602
2.1999999999999997,220,0.014,-0.955,0.281,24.1788276,-49.90464179999999,3.8388186,99.58582998,-1.87930224,-36.68650074
2.21,221,0.016,-0.992,0.221,24.8090814,-49.847346,1.145916,99.86084981999998,-1.7933585399999998,-37.16778546
2.2199999999999998,222,0.023,-0.999,0.179,23.7204612,-47.8992888,-1.0886202,100.11868092,-1.6902260999999998,-37.62615186
2.23,223,-0.013,-1.01,0.175,22.7464326,-47.555514,-2.8074942000000003,100.37078244,-1.56417534,-38.07878868
2.2399999999999998,224,-0.06,-1.045,0.194,23.14750320000001,-45.83664,-4.1252976000000015,100.62288396,-1.42666542,-38.51423676
2.25,225,-0.086,-1.055,0.205,21.1421502,-43.77399120000001,-4.9274388,100.85206716,-1.29488508,-38.9324961
2.26,226,-0.084,-1.013,0.192,18.2200644,-43.7166954,-5.3285094000000015,101.05260246,-1.1459160000000002,-39.33929628
2.27,227,-0.056,-0.947,0.192,18.7357266,-46.123119,-5.443101,101.25313776,-0.9912173399999998,-39.76901478
2.28,228,-0.023,-0.901,0.205,22.8037284,-47.841993,-6.417129599999999,101.4995097,-0.8193299399999999,-40.21592202
2.29,229,-0.002,-0.8859999999999999,0.23,25.1528562,-48.70143,-7.7349330000000025,101.76879996,-0.6302538000000001,-40.66855884
2.3,230,-0.009000000000000001,-0.893,0.239,25.9549974,-48.5868384,-8.250595200000001,102.0438198,-0.44117766,-41.11546608
2.31,231,-0.021,-0.905,0.192,24.7517856,-48.987909,-7.1046792000000005,102.30738048,-0.25210152,-41.5681029
2.32,232,-0.03,-0.885,0.18,24.2361234,-51.852699,-4.9847345999999995,102.559482,-0.08021412,-42.04938762000001
2.3299999999999996,233,-0.03,-0.855,0.158,24.4653066,-56.436363,-3.151269,102.8173131,0.0859437,-42.58223856
2.34,234,-0.017,-0.821,0.146,27.6738714,-60.733548000000006,-2.8074942000000003,103.1037921,0.26356068,-43.14946698
2.3499999999999996,235,0.025,-0.856,0.157,30.93973200000001,-63.9994086,-4.6982556,103.41318942,0.47555514,-43.745343299999995
2.36,236,0.035,-0.912,0.132,31.2835068,-69.72898860000001,-6.3025379999999975,103.7340459,0.72192708,-44.39278584
2.3699999999999997,237,0.036000000000000004,-0.963,0.168,36.669312,-73.338624,-6.875496000000001,104.1064686,0.97975818,-45.06887628
2.38,238,0.032,-1.034,0.259,43.77399120000001,-72.07811640000001,-6.703608600000001,104.54764626,1.24331886,-45.73350756000001
2.3899999999999997,239,-0.006999999999999999,-1.115,0.328,47.3836266,-67.83822719999999,-4.583664,105.02320139999999,1.4782316400000002,-46.35803177999999
2.4,240,-0.076,-1.216,0.426,53.34238979999999,-61.5356892,-2.291832,105.56178192,1.67303736,-46.93098978
2.4099999999999997,241,-0.136,-1.278,0.541,57.811462199999994,-49.61816279999999,-0.1718874,106.1404695,1.82773602,-47.39508576
2.42,242,-0.175,-1.259,0.578,55.86340500000001,-39.4195104,2.8074942000000003,106.70196834,1.92513888,-47.76177888
2.4299999999999997,243,-0.217,-1.18,0.597,53.0559108,-32.945085,5.9014674000000005,107.23481928,1.97097552,-48.08263536
2.44,244,-0.221,-1.081,0.595,49.1025006,-24.923673,8.880849000000003,107.72756316,1.97097552,-48.34046646
2.4499999999999997,245,-0.225,-0.996,0.54,42.7999626,-16.615782,11.3445684,108.18019998,1.88503182,-48.54100175999999
2.46,246,-0.192,-0.959,0.482,35.809875,-8.250595200000001,11.688343199999998,108.54116351999998,1.8048176999999999,-48.64986378
2.4699999999999998,247,-0.139,-0.944,0.406,30.5959572,-4.1252976000000015,10.4278356,108.85056084,1.7188740000000002,-48.71861874
2.48,248,-0.079,-0.957,0.386,30.7678446,-5.6722842,7.6776372,109.15995816,1.6673077799999998,-48.79310328
2.4899999999999998,249,-0.017,-0.985,0.365,32.142943800000005,-7.0473834,5.443101,109.48654422,1.64438946,-48.8733174
2.5,250,0.017,-1.011,0.348,30.3094782,-8.250595200000001,4.1825934,109.7787528,1.6386598799999998,-48.959261100000006
2.51,251,0.026,-1.011,0.292,28.1322378,-8.250595200000001,3.6669312000000014,110.06523180000002,1.6329303,-49.04520480000001
2.52,252,-0.006,-0.98,0.28300000000000003,26.8717302,-9.2819196,4.0680017999999984,110.33452206,1.6329303,-49.13687808
2.53,253,-0.043,-0.963,0.302,25.78311,-7.7922288,4.7555514,110.59808274,1.6157415599999996,-49.22282178
2.54,254,-0.06,-0.95,0.321,26.1268848,-2.4064236,5.443101,110.86164342,1.5756344999999998,-49.26292884000001
2.55,255,-0.044,-0.967,0.344,27.1009134,0.6302538000000001,5.2712136,111.11947452,1.50687954,-49.28011758000001
2.56,256,-0.029,-1.019,0.303,25.78311,2.4637194,4.010706000000001,111.37730562,1.4610428999999998,-49.26865842
2.57,257,-0.029,-1.048,0.272,21.027558600000006,2.6929026,2.1772404,111.59502966,1.432395,-49.25146968
2.5799999999999996,258,-0.022,-1.047,0.311,16.902261,3.0939732,-0.2291832000000001,111.76691706,1.4209358399999998,-49.2170922
2.59,259,-0.017,-1.037,0.34600000000000003,15.2406828,3.4950437999999995,-2.1772404,111.92161572,1.42666542,-49.17698514
2.5999999999999996,260,-0.005,-1.032,0.336,12.318597,2.6356068,-3.2085648,111.99037068,1.432395,-49.14260766
2.61,261,-0.006,-1.006,0.331,9.740286,1.0886202,-3.2658606,112.08777354,1.4610428999999998,-49.11968934
2.6199999999999997,262,-0.001,-0.983,0.354,9.6829902,2.9220857999999996,-3.6096354,112.19090598,1.48396122,-49.07958228
2.63,263,-0.001,-0.975,0.35700000000000004,10.026765,6.1879464,-4.2398892,112.29403842,1.49542038,-49.00509774
2.6399999999999997,264,-0.002,-0.982,0.389,10.255948199999999,8.59437,-4.6409598,112.39717086,1.50687954,-48.90769488
2.65,265,0.0,-0.986,0.47,8.9954406,12.318597,-5.0993262,112.50603288,1.49542038,-48.77591454
2.6599999999999997,266,0.009000000000000001,-0.972,0.485,8.136003599999999,15.126091199999998,-5.1566220000000005,112.59197658,1.48396122,-48.62121588000001
2.67,267,0.014,-0.965,0.4970000000000001,5.042030400000002,13.0634424,-5.6722842,112.6435428,1.48396122,-48.47797638
2.6799999999999997,268,0.032,-0.951,0.474,2.1772404,14.667724800000002,-6.3025379999999975,112.66646112,1.4782316400000002,-48.32327771999999
2.69,269,0.045,-0.926,0.466,2.1199446,15.6417534,-6.016058999999999,112.69510902,1.47250206,-48.1571199
2.6999999999999997,270,0.046,-0.928,0.46,1.8907613999999997,15.4125702,-5.1566220000000005,112.73521608,1.46677248,-47.99096208
2.71,271,0.039,-0.943,0.445,2.6929026,15.6417534,-4.297185,112.76386398,1.44385416,-47.83626342
2.7199999999999998,272,0.034,-0.958,0.444,2.6929026,16.8449652,-3.7815227999999994,112.79251188,1.40947668,-47.66437602000001
2.73,273,0.022,-0.966,0.448,3.3231564,17.9908812,-4.010706000000001,112.82688936,1.3750992,-47.48675904
2.7399999999999998,274,0.014,-0.971,0.472,4.297185,18.907614000000002,-4.6409598,112.872726,1.34072172,-47.29768290000001
2.75,275,0.012,-0.956,0.465,3.4950437999999995,20.2827132,-5.2139178,112.9300218,1.30061466,-47.09714760000001
2.76,276,0.019,-0.939,0.459,2.1772404,21.6005166,-5.5003968,112.95294012,1.26623718,-46.879423560000006
2.77,277,0.035,-0.928,0.423,0.8594370000000001,22.9756158,-5.2139178,112.96439928,1.21467096,-46.65024036
2.78,278,0.045,-0.923,0.371,0.057295800000000015,22.8037284,-4.4690724,112.96439928,1.16310474,-46.43251632
2.79,279,0.038,-0.933,0.35200000000000004,-0.2291832000000001,21.772404,-3.4377480000000005,112.96439928,1.10580894,-46.22052186000001
2.8,280,0.02,-0.941,0.353,-1.6615782,23.6058696,-2.86479,112.91856263999998,1.03705398,-45.99706824
2.81,281,-0.011,-0.95,0.335,-1.2032118,26.356068,-2.6356068,112.90710348,0.95111028,-45.7506963
2.82,282,-0.036000000000000004,-0.961,0.355,0.5156622000000001,29.5646328,-2.9220857999999996,112.91283306,0.8537074199999999,-45.46994688
2.8299999999999996,283,-0.039,-0.969,0.408,2.0053530000000004,31.4553942,-3.2658606,112.93575138,0.75630456,-45.1777383
2.84,284,-0.016,-0.96,0.441,0.572958,33.0596766,-3.2658606,112.94148096,0.65317212,-44.86261140000001
2.8499999999999996,285,0.016,-0.936,0.393,-0.2291832000000001,30.93973200000001,-3.4377480000000005,112.92429222,0.56722842,-44.57040282
2.86,286,0.04,-0.906,0.375,-1.9480572,27.8457588,-3.8961144,112.9013739,0.4870143000000001,-44.30111256
2.8699999999999997,287,0.051,-0.875,0.366,-0.6875496,25.0955604,-3.6669312000000014,112.89564432,0.41825934,-44.06047020000001
2.88,288,0.024,-0.883,0.342,1.6615782,24.4080108,-1.8907613999999997,112.90710348,0.33231564,-43.83701658
2.8899999999999997,289,-0.019,-0.903,0.322,0.2291832000000001,26.8717302,-0.7448454000000001,112.90710348,0.2291832000000001,-43.59064464
2.9,290,-0.056,-0.939,0.311,-0.4010706,29.2781538,-0.11459160000000004,112.86699642,0.08021412,-43.34427270000001
2.9099999999999997,291,-0.07400000000000001,-0.945,0.337,-0.5156622000000001,29.507337,-0.572958,112.86126684,-0.028647900000000007,-43.07498244
2.92,292,-0.078,-0.979,0.332,-0.9740286,34.8931422,-0.9167328,112.8440781,-0.16042824,-42.75412596
2.9299999999999997,293,-0.043,-0.987,0.35,0.0,39.0184398,-0.8594370000000001,112.83834852,-0.31512690000000004,-42.40462158
2.94,294,0.0,-0.975,0.406,2.0053530000000004,36.096354,-0.572958,112.84980768,-0.4526368200000001,-42.07230594
2.9499999999999997,295,0.048,-0.98,0.4370000000000001,2.7501984,31.054323600000004,0.0,112.872726,-0.55003968,-41.77436778
2.96,296,0.116,-1.009,0.4,-1.2605076000000002,24.637194,0.11459160000000004,112.85553726,-0.64744254,-41.55664374
2.9699999999999998,297,0.196,-1.089,0.35600000000000004,-5.3858052,12.9488508,0.0,112.79251188,-0.70473834,-41.43632256
2.98,298,0.271,-1.153,0.34700000000000003,-8.880849000000003,1.3750992,-1.3750992,112.70656818,-0.69327918,-41.41913382
2.9899999999999998,299,0.258,-1.207,0.331,-10.7143146,-4.4117766,-2.291832,112.59770616,-0.6589017,-41.4535113
3.0,300,0.247,-1.235,0.358,-13.120738199999998,-7.1046792000000005,-1.0886202,112.44873708,-0.5844171599999999,-41.49934794
3.01,301,0.261,-1.252,0.407,-19.480572,-9.5111028,-0.057295800000000015,112.25393136,-0.55003968,-41.58529164
3.02,302,0.221,-1.232,0.421,-26.298772200000002,-12.3758928,-0.9740286,111.99037068,-0.49274388,-41.69988324
3.03,303,0.136,-1.1909999999999998,0.343,-33.002380800000005,-12.5477802,-4.5263682,111.65232546,-0.4010706000000001,-41.80301568
3.04,304,0.056,-1.113,0.3,-37.24227,-12.261301199999998,-9.2819196,111.27990276,-0.26929026,-41.883229799999995
3.05,305,-0.026,-1.072,0.261,-38.8465524,-13.6364004,-13.8082878,110.86164342,-0.09167328,-41.96344392
3.06,306,-0.016,-1.118,0.261,-37.9871154,-14.381245800000002,-15.2406828,110.47776156,0.09740286,-42.04938762000001
3.07,307,0.057,-1.187,0.268,-38.5600734,-15.985528200000001,-12.3758928,110.08815012,0.26929026,-42.15824964
3.08,308,0.112,-1.2819999999999998,0.28800000000000003,-35.695283399999994,-17.8762896,-7.161975,109.72718658,0.39534102,-42.30148914
3.09,309,0.136,-1.375,0.358,-37.8725238,-18.449247600000003,-2.291832,109.34330472,0.4870143000000001,-42.47337654
3.0999999999999996,310,0.146,-1.175,0.35200000000000004,-46.123119,-19.480572,0.0,108.86774958,0.5729580000000001,-42.64526393999999
3.11,311,0.113,-0.927,0.271,-49.560867,-22.5745452,-0.057295800000000015,108.36354654,0.64744254,-42.86298798
3.1199999999999997,312,0.031,-0.8320000000000001,0.208,-52.8840234,-22.058883,-0.8594370000000001,107.83069559999998,0.72765666,-43.07498244
3.13,313,-0.057,-0.81,0.207,-54.889376399999996,-20.511896399999998,-2.9220857999999996,107.26919676,0.8193299399999999,-43.26405858
3.1399999999999997,314,-0.157,-0.833,0.268,-55.576926,-16.1001198,-4.8701430000000006,106.70769792,0.91100322,-43.40729808
3.15,315,-0.187,-0.883,0.26,-56.8374336,-10.026765,-5.5576926,106.12328076,0.96256944,-43.51043052
3.1599999999999997,316,-0.14400000000000002,-0.873,0.24,-57.1812084,-6.8182002000000015,-5.6722842,105.54459318,1.03705398,-43.56772632000001
3.17,317,-0.106,-0.8290000000000001,0.248,-55.9779966,-5.1566220000000005,-5.5576926,104.97736476,1.10007936,-43.60783338
3.1799999999999997,318,-0.036000000000000004,-0.775,0.246,-53.9726436,-4.5263682,-5.5003968,104.42732508,1.16310474,-43.64794044
3.19,319,0.022,-0.696,0.241,-55.06126379999999,-8.880849000000003,-5.5003968,103.86582624,1.23758928,-43.72242498
3.1999999999999997,320,-0.003,-0.625,0.244,-53.68616460000001,-12.9488508,-6.3025379999999975,103.3329753,1.32926256,-43.84274616
3.21,321,-0.008,-0.614,0.295,-49.5035712,-13.750992000000002,-7.2765666,102.82877226,1.42666542,-43.96306734
3.2199999999999998,322,-0.017,-0.657,0.317,-48.1857678,-13.0634424,-6.4744254,102.34175796,1.5183387000000002,-44.07765894
3.23,323,-0.035,-0.6579999999999999,0.29100000000000004,-46.9252602,-11.917526400000002,-5.72958,101.86047324,1.6042824000000002,-44.18652096
3.2399999999999998,324,-0.062,-0.633,0.265,-44.8626114,-11.5737516,-5.3858052,101.40210684,1.6787669399999998,-44.29538298
3.25,325,-0.095,-0.618,0.266,-41.8832298,-9.9121734,-5.0993262,100.99530666,1.73033316,-44.39851542
3.26,326,-0.118,-0.622,0.251,-39.9351726,-6.1879464,-4.583664,100.58850648,1.78762896,-44.45581122
3.27,327,-0.13,-0.682,0.22,-36.38283300000001,-2.291832,-3.3231564,100.22181336,1.82200644,-44.47299996
3.28,328,-0.128,-0.823,0.198,-29.8511118,1.0886202,-0.1718874,99.91814562,1.81627686,-44.46727038
3.29,329,-0.08800000000000001,-1.006,0.179,-23.376686399999997,4.8701430000000006,5.042030400000002,99.67750326,1.75898106,-44.4328929
3.3,330,-0.032,-1.108,0.183,-18.2773602,6.990087599999999,8.479778399999999,99.48842712,1.65011904,-44.38705626
3.31,331,-0.003,-1.178,0.229,-11.6310474,5.7868758000000025,11.3445684,99.37383552,1.52979786,-44.34694920000001
3.32,332,-0.034,-1.211,0.277,-7.161975,3.8388186,13.2353298,99.29935098,1.39228794,-44.33549004
3.33,333,-0.087,-1.187,0.321,-7.333862400000001,4.4117766,14.8396122,99.22486644,1.23758928,-44.31257172
3.34,334,-0.115,-1.119,0.36,-9.224623800000002,4.4690724,15.0114996,99.13319316,1.07716104,-44.29538298
3.3499999999999996,335,-0.08800000000000001,-1.065,0.35100000000000003,-10.599723,4.8701430000000006,13.407217200000002,99.0644382,0.91100322,-44.28392382
3.36,336,-0.031,-1.041,0.262,-15.4125702,5.9014674000000005,13.521808800000002,98.90973954,0.76776372,-44.24954634
3.3699999999999997,337,0.03,-1.051,0.153,-21.1421502,5.6722842,15.0114996,98.6920155,0.61306506,-44.22089844
3.38,338,0.073,-1.079,0.118,-21.2567418,4.6409598,15.756345000000001,98.48002104,0.44690724,-44.20370970000001
3.3899999999999997,339,0.096,-1.08,0.125,-19.194093,0.7448454000000001,15.6417534,98.28521532,0.29220857999999994,-44.22089844
3.4,340,0.068,-1.045,0.129,-18.2773602,-2.3491278,14.8396122,98.08468002,0.16615782,-44.25527592
3.4099999999999997,341,0.023,-0.998,0.098,-19.194093,-0.8021411999999999,13.5791046,97.8898743,0.028647900000000007,-44.28965340000001
3.42,342,-0.02,-0.974,0.053,-21.0848544,1.8907613999999997,11.516455800000001,97.67215026,-0.08021412,-44.28965340000001
3.4299999999999997,343,-0.045,-0.953,0.018000000000000002,-23.14750320000001,4.9274388,8.9381448,97.43723748,-0.17761697999999998,-44.25527592
3.44,344,-0.04,-0.953,-0.023,-22.7464326,5.3858052,7.0473834,97.20805428,-0.25783110000000004,-44.21516886
3.4499999999999997,345,-0.016,-0.969,-0.06,-22.4026578,3.9534102,5.0993262,96.89865696,-0.31512690000000004,-44.18079138
3.46,346,0.014,-0.996,-0.028,-20.9702628,1.6615782,3.7815227999999994,96.6866625,-0.35523396,-44.16933222
3.4699999999999998,347,0.067,-1.014,0.063,-18.8503182,-0.7448454000000001,3.9534102,96.49758636,-0.39534102,-44.18652096
3.48,348,0.135,-1.01,0.07200000000000001,-17.131444199999994,-8.651665800000002,6.417129599999999,96.32569896,-0.44690724,-44.27819424
3.4899999999999998,349,0.149,-1.081,-0.201,-24.9809688,-16.386598799999998,8.021412000000002,96.07359744,-0.5099326200000001,-44.45008164
3.5,350,0.14300000000000002,-1.151,-0.192,-27.1009134,-16.2147114,8.193299399999999,95.76420011999998,-0.55003968,-44.61050988
3.51,351,0.102,-1.263,0.002,-20.5691922,-18.048177,7.2192707999999985,95.56366482,-0.59587632,-44.79958602
3.52,352,0.087,-1.285,0.031,-22.5745452,-22.2307704,6.1879464,95.33448162,-0.63598338,-45.02303963999999
3.53,353,0.08800000000000001,-1.213,0.01,-28.4760126,-25.496631,5.6722842,95.0537322,-0.66463128,-45.28660032
3.54,354,0.07400000000000001,-1.151,-0.011,-30.366774000000003,-25.84040580000001,4.1252976000000015,94.75006446,-0.67609044,-45.54443142
3.55,355,0.049,-1.124,-0.038,-30.8824362,-25.6112226,2.4064236,94.41774882,-0.66463128,-45.79653294000001
3.56,356,0.011,-1.097,-0.045,-32.544014399999995,-25.9549974,2.1772404,94.09689233999998,-0.66463128,-46.06009362
3.57,357,-0.018000000000000002,-1.042,-0.037000000000000005,-33.4607472,-25.55392680000001,3.2658606,93.7645767,-0.67609044,-46.31792471999999
3.58,358,-0.043,-0.993,-0.049,-33.9191136,-24.7517856,5.2139178,93.42653148,-0.7104679199999999,-46.57002624
3.59,359,-0.063,-0.95,-0.042,-34.37748,-22.058883,7.0473834,93.08275668,-0.76203414,-46.79347986
3.5999999999999996,360,-0.078,-0.935,-0.032,-34.3201842,-16.501190400000002,8.021412000000002,92.71606355999998,-0.8479778399999999,-46.97109684
3.61,361,-0.075,-0.916,-0.047,-33.804522,-11.745639,7.9641161999999985,92.37801834,-0.9167328000000001,-47.09141802
3.6199999999999997,362,-0.062,-0.898,-0.048,-31.971056400000002,-8.9381448,7.7922288,92.05143228,-0.9912173399999998,-47.18882088
3.63,363,-0.057,-0.878,-0.041,-30.4813656,-6.016058999999999,7.3911582,91.74776454000002,-1.06570188,-47.25184625999999
3.6399999999999997,364,-0.081,-0.877,-0.054000000000000006,-28.361421000000004,-2.291832,7.161975,91.46128554,-1.13445684,-47.28049416
3.65,365,-0.092,-0.88,-0.044,-25.7258142,1.6615782,6.9327918,91.17480654,-1.2318597,-47.28049416
3.6599999999999997,366,-0.101,-0.8909999999999999,-0.032,-22.4026578,6.0733548,6.589017,90.94562334,-1.30061466,-47.22319836000001
3.67,367,-0.11,-0.91,-0.025,-19.595163600000006,10.3705398,6.703608600000001,90.73935846,-1.3750992,-47.1257955
3.6799999999999997,368,-0.112,-0.917,-0.029,-16.2147114,14.266654199999998,7.0473834,90.57320064,-1.44958374,-46.98828558
3.69,369,-0.109,-0.911,-0.047,-13.750992000000002,16.7876694,7.2765666,90.42423156,-1.52979786,-46.82212776
3.6999999999999997,370,-0.091,-0.911,-0.055,-10.6570188,17.9908812,6.875496000000001,90.28099206,-1.6272007199999998,-46.65596994000001
3.71,371,-0.059,-0.913,-0.057,-7.2765666,17.8762896,6.0733548,90.20077794,-1.6902260999999998,-46.47835296
3.7199999999999998,372,-0.04,-0.919,-0.052000000000000005,-4.4117766,16.615782,4.583664,90.14921172,-1.74179232,-46.31792471999999
3.73,373,-0.037000000000000005,-0.928,-0.048,-2.291832,15.0687954,3.2085648,90.12056382,-1.78189938,-46.16895564
3.7399999999999998,374,-0.051,-0.963,-0.041,0.057295800000000015,13.8655836,1.8334656000000005,90.11483424,-1.8048176999999999,-46.03144572000001
3.75,375,-0.06,-0.987,-0.046,0.286479,12.9488508,-0.11459160000000004,90.05180886000002,-1.82773602,-45.91112454
3.76,376,-0.077,-1.01,-0.039,1.8334656000000005,12.0894138,-1.4896908000000002,90.06326802,-1.81627686,-45.79080336
3.77,377,-0.08800000000000001,-1.048,-0.035,2.6929026,10.886202,-1.432395,90.08618634,-1.8048176999999999,-45.68194134
3.78,378,-0.084,-1.062,-0.038,2.6356068,8.880849000000003,-0.7448454000000001,90.10910466,-1.8048176999999999,-45.59599764
3.79,379,-0.077,-1.069,-0.037000000000000005,2.7501984,7.6776372,-0.1718874,90.13202298,-1.8048176999999999,-45.51578352
3.8,380,-0.07,-1.062,-0.029,2.4637194,7.2765666,-0.1718874,90.0976455,-1.8334656000000005,-45.45848772
3.81,381,-0.07200000000000001,-1.051,-0.038,1.2605076000000002,8.250595200000001,-0.9740286,90.10910466,-1.82773602,-45.3782736
3.82,382,-0.077,-1.046,-0.046,0.6302538000000001,9.740286,-1.7761698,90.10910466,-1.81054728,-45.28087074
3.83,383,-0.073,-1.042,-0.039,0.4583664000000001,11.1153852,-2.291832,90.10910466,-1.7933585399999998,-45.16627914
3.84,384,-0.066,-1.036,-0.04,0.2291832000000001,12.3758928,-2.6929026,90.10910466,-1.77044022,-45.04595796
3.8499999999999996,385,-0.065,-1.03,-0.042,-0.1718874,13.6364004,-3.0366774,90.05180886000002,-1.75898106,-44.9199072
3.86,386,-0.059,-1.024,-0.051,-1.0886202,14.610429000000002,-3.2658606,90.03462012,-1.73033316,-44.77093812
3.8699999999999997,387,-0.051,-1.017,-0.06,-1.9480572,14.5531332,-3.2085648,90.0117018,-1.70168526,-44.62769862
3.88,388,-0.042,-1.008,-0.076,-2.6929026,13.407217200000002,-2.9220857999999996,89.97732432000002,-1.6787669399999998,-44.49591828
3.8899999999999997,389,-0.034,-0.998,-0.076,-3.151269,12.2040054,-2.8074942000000003,89.93721726,-1.6558486199999998,-44.3755971
3.9,390,-0.027000000000000003,-0.987,-0.07200000000000001,-3.4377480000000005,11.3445684,-2.6929026,89.83408482,-1.6272007199999998,-44.25527592
3.9099999999999997,391,-0.009000000000000001,-0.978,-0.069,-3.5523396000000003,10.1986524,-2.6356068,89.79397776,-1.59855282,-44.15787306
3.92,392,0.003,-0.97,-0.062,-3.4377480000000005,8.5370742,-2.8074942000000003,89.75387070000002,-1.5756344999999998,-44.07192936
3.9299999999999997,393,0.009000000000000001,-0.968,-0.061,-3.7815227999999994,7.0473834,-3.2085648,89.71376364,-1.5469866,-44.0031744
3.94,394,0.0,-0.97,-0.063,-3.6096354,5.6722842,-3.5523396000000003,89.67365658,-1.51260912,-43.9458786
3.9499999999999997,395,-0.014,-0.978,-0.05,-2.9220857999999996,4.583664,-3.724227,89.57625372,-1.46677248,-43.89431238
3.96,396,-0.036000000000000004,-0.982,-0.038,-2.578311,4.6982556,-3.6669312000000014,89.54760582,-1.432395,-43.84847574
3.9699999999999998,397,-0.043,-0.99,-0.053,-2.4064236,6.1879464,-3.2658606,89.51895792,-1.4037471,-43.79117994
3.98,398,-0.037000000000000005,-1.002,-0.066,-2.0626488000000003,7.448453999999999,-2.6356068,89.49603959999996,-1.3750992,-43.7166954
3.9899999999999998,399,-0.024,-1.022,-0.07200000000000001,-1.3750992,8.479778399999999,-2.1199446,89.47885086,-1.3579104599999998,-43.63075170000001
4.0,400,-0.009000000000000001,-1.037,-0.08900000000000001,-1.6615782,9.453807000000001,-2.0626488000000003,89.36998884,-1.3178034,-43.52188968
4.01,401,0.0,-1.035,-0.102,-2.4637194,10.4278356,-2.291832,89.34134094,-1.30061466,-43.41875724000001
4.02,402,0.009000000000000001,-1.026,-0.104,-2.6929026,11.172681,-2.6356068,89.31269304,-1.27196676,-43.30989522
4.03,403,0.014,-1.014,-0.098,-3.0366774,10.886202,-2.7501984,89.27831556,-1.24904844,-43.20103320000001
4.04,404,0.022,-0.997,-0.08900000000000001,-3.2658606,10.026765,-2.4637194,89.2382085,-1.22613012,-43.10363034
4.05,405,0.024,-0.991,-0.106,-3.8961144,8.193299399999999,-2.0626488000000003,89.08923942,-1.16310474,-42.99476832
4.06,406,0.016,-0.987,-0.116,-4.297185,6.1879464,-1.7188740000000002,89.04340278,-1.1459160000000002,-42.93747252
4.07,407,0.006999999999999999,-0.985,-0.11,-4.0680017999999984,5.042030400000002,-1.4896908000000002,88.99756613999998,-1.13445684,-42.8859063
4.08,408,0.003,-0.982,-0.11,-3.2658606,3.151269,-1.3178034,88.96318865999999,-1.1172681,-42.8572584
4.09,409,0.001,-0.974,-0.111,-2.3491278,1.2605076000000002,-1.145916,88.94027034,-1.10580894,-42.84579924
4.1,410,0.0,-0.967,-0.111,-1.3178034,-0.057295800000000015,-1.0886202,88.53347016000002,-1.0255948199999998,-42.79423302
4.109999999999999,411,-0.004,-0.97,-0.097,-0.2291832000000001,-1.0886202,-1.145916,88.53347016000002,-1.01413566,-42.80569218
4.12,412,-0.003,-0.971,-0.079,0.8594370000000001,-1.8334656000000005,-1.2032118,88.54492932000002,-1.0026765,-42.828610499999996
4.13,413,-0.005,-0.973,-0.071,1.6615782,-2.8074942000000003,-0.9740286,88.56211806,-0.9912173399999998,-42.8572584
4.14,414,-0.004,-0.98,-0.065,2.4637194,-3.2658606,-0.8594370000000001,88.58503637999998,-0.98548776,-42.8859063
4.1499999999999995,415,-0.009000000000000001,-0.992,-0.065,3.0939732,-3.6669312000000014,-0.6302538000000001,88.52774058,-0.96256944,-42.91455420000001
4.16,416,-0.013,-1.0,-0.065,3.724227,-3.6096354,-0.4583664000000001,88.56784764,-0.95683986,-42.94893168
4.17,417,-0.019,-1.002,-0.053,4.8128472,-2.9793816000000004,-0.3437748,88.61941386,-0.95111028,-42.97757958
4.18,418,-0.024,-0.994,-0.046,5.443101,-2.0626488000000003,-0.3437748,88.67670966,-0.9453806999999999,-43.0004979
4.1899999999999995,419,-0.028,-0.991,-0.037000000000000005,6.1879464,-0.9167328,-0.5156622000000001,88.73973504,-0.93965112,-43.00622748
4.2,420,-0.033,-0.992,-0.038,6.5317212,-0.057295800000000015,-0.4010706,88.73973504,-0.96256944,-43.01768664
4.21,421,-0.036000000000000004,-1.0,-0.041,6.6463128000000005,0.572958,0.0,88.80276042,-0.95683986,-43.01195706
4.22,422,-0.032,-1.003,-0.037000000000000005,6.990087599999999,1.2605076000000002,0.286479,88.87724496000001,-0.96256944,-43.0004979
4.2299999999999995,423,-0.023,-1.003,-0.027000000000000003,7.448453999999999,1.6615782,0.8594370000000001,88.9517295,-0.96829902,-42.98330916
4.24,424,-0.015,-1.0,-0.021,7.7922288,1.8907613999999997,1.145916,89.03194361999998,-0.97975818,-42.96039084
4.25,425,-0.01,-0.998,-0.017,7.9641161999999985,1.7188740000000002,1.2605076000000002,89.08923942,-0.97975818,-42.93747252
4.26,426,-0.013,-1.003,-0.018000000000000002,8.136003599999999,1.3178034,1.5469866,89.16945354,-0.9969469199999998,-42.92028378
4.27,427,-0.021,-1.011,-0.029,7.9641161999999985,1.2605076000000002,1.7188740000000002,89.24966766,-1.01413566,-42.90882462
4.28,428,-0.026,-1.015,-0.03,7.8495246,1.0313244,1.7188740000000002,89.32988178,-1.0313244,-42.89736546
4.29,429,-0.028,-1.014,-0.021,7.8495246,0.8594370000000001,1.7188740000000002,89.4100959,-1.04851314,-42.8859063
4.3,430,-0.03,-1.014,-0.026,7.5057497999999985,0.8021411999999999,1.7761698,89.44447338,-1.07716104,-42.88017672
4.31,431,-0.032,-1.017,-0.024,6.760904399999999,0.9740286,1.7188740000000002,89.51322834,-1.09434978,-42.86871756
4.32,432,-0.032,-1.022,-0.028,6.2452422,0.9167328,1.7761698,89.57625372,-1.11153852,-42.8572584
4.33,433,-0.033,-1.023,-0.029,5.6149884000000005,0.9740286,1.6615782,89.63354952,-1.12872726,-42.84579924
4.34,434,-0.027000000000000003,-1.025,-0.023,5.3285094000000015,1.3178034,1.4896908000000002,89.68511574,-1.14018642,-42.83434008
4.35,435,-0.023,-1.028,-0.03,4.6409598,0.9740286,1.432395,89.65073826,-1.15164558,-42.81715134
4.36,436,-0.02,-1.027,-0.039,3.8961144,0.572958,1.3750992,89.69084532,-1.16310474,-42.81142176
4.37,437,-0.018000000000000002,-1.024,-0.04,3.5523396000000003,0.057295800000000015,1.3178034,89.72522280000004,-1.18029348,-42.81142176
4.38,438,-0.022,-1.016,-0.035,3.380452200000001,-0.3437748,1.2032118,89.75960028,-1.19175264,-42.81715134
4.39,439,-0.024,-1.011,-0.024,2.9793816000000004,-0.3437748,1.145916,89.78824818,-1.2032117999999998,-42.81715134
4.3999999999999995,440,-0.026,-1.011,-0.03,2.6929026,-0.286479,1.2032118,89.66219742,-1.22040054,-42.82288092
4.41,441,-0.029,-1.015,-0.041,1.7188740000000002,-0.2291832000000001,1.0886202,89.67938615999998,-1.2318597,-42.82288092
4.42,442,-0.03,-1.011,-0.04,1.3750992,0.0,0.9740286,89.6965749,-1.24331886,-42.82288092
4.43,443,-0.031,-1.006,-0.043,1.2032118,0.1718874,0.9167328,89.70803406,-1.25477802,-42.82288092
4.4399999999999995,444,-0.026,-1.0,-0.042,1.432395,0.5156622000000001,0.8594370000000001,89.72522280000004,-1.2605076000000002,-42.81715134
4.45,445,-0.022,-0.994,-0.04,2.0626488000000003,0.6302538000000001,0.8594370000000001,89.58771288,-1.25477802,-42.7999626
4.46,446,-0.019,-0.99,-0.041,2.6356068,0.4583664000000001,0.8021411999999999,89.61636078000002,-1.26623718,-42.79423302
4.47,447,-0.022,-0.99,-0.04,3.2658606,0.1718874,0.8021411999999999,89.64500868,-1.27196676,-42.78850344
4.4799999999999995,448,-0.025,-0.994,-0.043,3.7815227999999994,0.286479,0.8594370000000001,89.68511574,-1.27769634,-42.78850344
4.49,449,-0.023,-0.994,-0.041,4.0680017999999984,0.6302538000000001,0.8594370000000001,89.72522280000004,-1.2891555000000001,-42.78277386
4.5,450,-0.021,-0.997,-0.039,4.4690724,0.7448454000000001,0.8594370000000001,89.67938615999998,-1.2891555000000001,-42.76558512
4.51,451,-0.021,-0.996,-0.041,4.7555514,0.286479,0.8594370000000001,89.72522280000004,-1.29488508,-42.75985554
4.52,452,-0.026,-0.995,-0.047,4.6409598,0.057295800000000015,0.6302538000000001,89.77678902,-1.30061466,-42.75985554
4.53,453,-0.033,-0.992,-0.046,4.8128472,-0.057295800000000015,0.4583664000000001,89.82262566,-1.30634424,-42.75985554
4.54,454,-0.03,-0.985,-0.036000000000000004,5.72958,0.4010706,0.2291832000000001,89.87992145999998,-1.31207382,-42.75412596
4.55,455,-0.025,-0.987,-0.038,6.2452422,0.8021411999999999,0.2291832000000001,89.86273272,-1.30634424,-42.7426668
4.56,456,-0.02,-0.987,-0.045,6.875496000000001,0.5156622000000001,0.4010706,89.93148768,-1.31207382,-42.73693722
4.57,457,-0.017,-0.992,-0.04,7.3911582,0.11459160000000004,0.4010706,90.00597222,-1.3178034,-42.73120764
4.58,458,-0.016,-0.998,-0.035,7.7922288,-0.3437748,0.3437748,90.08618634,-1.3178034,-42.73693722
4.59,459,-0.016,-1.003,-0.032,7.7349330000000025,-0.6875496,0.3437748,90.16640046,-1.32353298,-42.7426668
4.6,460,-0.019,-1.005,-0.031,7.2765666,-0.8021411999999999,0.11459160000000004,90.16640046,-1.3178034,-42.7426668
4.61,461,-0.024,-1.002,-0.036000000000000004,7.448453999999999,-0.6302538000000001,0.057295800000000015,90.240885,-1.3178034,-42.74839638
4.62,462,-0.032,-1.001,-0.038,8.307891,-1.0886202,-0.057295800000000015,90.3268287,-1.31207382,-42.75985554
4.63,463,-0.037000000000000005,-0.998,-0.034,8.9954406,-1.5469866,-0.11459160000000004,90.41850198,-1.31207382,-42.77131470000001
4.64,464,-0.042,-0.994,-0.037000000000000005,9.5111028,-1.5469866,-0.057295800000000015,90.51590484,-1.30634424,-42.78850344
4.6499999999999995,465,-0.035,-0.986,-0.034,10.255948199999999,-1.2605076000000002,0.0,90.56174148,-1.31207382,-42.7999626
4.66,466,-0.028,-0.982,-0.023,11.45916,-0.8021411999999999,-0.11459160000000004,90.68206266,-1.31207382,-42.80569218
4.67,467,-0.028,-0.981,-0.021,12.0894138,-1.0313244,-0.4010706,90.80238384,-1.30634424,-42.81715134
4.68,468,-0.03,-0.982,-0.025,12.7769634,-1.0313244,-0.6302538000000001,90.93416418,-1.29488508,-42.82288092
4.6899999999999995,469,-0.031,-0.988,-0.028,13.178034,-0.9167328,-0.7448454000000001,91.06594452,-1.28342592,-42.83434008
4.7,470,-0.031,-0.99,-0.025,13.8655836,-0.7448454000000001,-0.7448454000000001,91.16334738,-1.28342592,-42.84006966
4.71,471,-0.029,-0.99,-0.018000000000000002,14.266654199999998,-0.6302538000000001,-0.6302538000000001,91.31231646,-1.27196676,-42.84579924
4.72,472,-0.027000000000000003,-0.986,-0.018000000000000002,14.896907999999998,-0.7448454000000001,-0.6875496,91.46128554,-1.26623718,-42.85152882
4.7299999999999995,473,-0.029,-0.983,-0.027000000000000003,15.813640800000002,-1.3178034,-0.7448454000000001,91.62171378,-1.25477802,-42.86298798
4.74,474,-0.028,-0.978,-0.019,17.3606274,-1.2605076000000002,-0.8594370000000001,91.79933076,-1.24331886,-42.87444714
4.75,475,-0.028,-0.977,-0.019,18.334656,-1.145916,-0.9740286,91.94829984,-1.2318597,-42.88017672
4.76,476,-0.029,-0.972,-0.016,19.480572,-0.9740286,-1.0313244,92.14883514,-1.22040054,-42.89163588
4.77,477,-0.026,-0.97,-0.004,21.027558600000006,-1.145916,-1.0313244,92.36082960000002,-1.20894138,-42.89736546
4.78,478,-0.026,-0.969,0.003,22.058883,-1.3178034,-1.0886202,92.58428322,-1.19748222,-42.90882462
4.79,479,-0.026,-0.976,-0.001,22.86102420000001,-1.2605076000000002,-1.432395,92.819196,-1.18029348,-42.92028378
4.8,480,-0.032,-0.976,0.0,23.6058696,-1.432395,-1.8334656000000005,93.03119046,-1.16310474,-42.93174294000001
4.81,481,-0.036000000000000004,-0.977,-0.002,24.5798982,-1.432395,-2.2345362,93.27756240000001,-1.13445684,-42.9432021
4.82,482,-0.034,-0.975,0.006999999999999999,25.55392680000001,-0.8021411999999999,-2.4637194,93.54112308,-1.10580894,-42.9432021
4.83,483,-0.025,-0.974,0.01,26.5279554,-0.1718874,-2.6356068,93.81041334,-1.07716104,-42.9432021
4.84,484,-0.02,-0.974,0.005,27.444688199999998,-0.2291832000000001,-2.578311,94.08543318,-1.05424272,-42.93747252
4.85,485,-0.014,-0.977,0.006,28.4187168,-0.286479,-2.578311,94.34899386,-1.01986524,-42.93174294000001
4.86,486,-0.01,-0.975,0.013,29.507337,-0.3437748,-2.578311,94.64693201999998,-0.9912173399999998,-42.93174294000001
4.87,487,-0.012,-0.972,0.018000000000000002,30.93973200000001,-0.8594370000000001,-2.5210152000000003,94.96205892,-0.96256944,-42.93174294000001
4.88,488,-0.011,-0.969,0.033,33.0596766,-1.7188740000000002,-2.4064236,95.30010414,-0.93392154,-42.9432021
4.89,489,-0.008,-0.963,0.054000000000000006,34.7212548,-1.8334656000000005,-2.4637194,95.64960852,-0.90527364,-42.95466126
4.8999999999999995,490,-0.004,-0.964,0.06,36.32553720000001,-1.3750992,-2.578311,96.00484248,-0.87089616,-42.96039084
4.91,491,-0.006,-0.968,0.057,37.24227,-0.9740286,-3.0939732,96.38299476,-0.83651868,-42.96039084
4.92,492,-0.011,-0.976,0.067,38.5600734,-0.572958,-3.6669312000000014,96.7726062,-0.79641162,-42.96039084
4.93,493,-0.021,-0.985,0.071,39.4195104,0.0,-4.297185,97.1736768,-0.75057498,-42.94893168
4.9399999999999995,494,-0.033,-0.989,0.084,40.10706,0.572958,-4.9847345999999995,97.58047698,-0.69900876,-42.93174294000001
4.95,495,-0.034,-0.984,0.113,40.737313799999995,2.2345362,-6.0733548,97.98154758,-0.64744254,-42.89736546
4.96,496,-0.032,-0.978,0.12,41.1383844,4.7555514,-7.3911582,98.39980692,-0.5786875800000001,-42.83434008
4.97,497,-0.019,-0.986,0.111,41.3102718,5.5576926,-8.307891,98.81806626,-0.5042030399999999,-42.76558512
4.9799999999999995,498,-0.006,-1.0,0.114,40.6227222,5.042030400000002,-9.740286,99.23059602,-0.41252976,-42.69110058
4.99,499,-0.005,-1.001,0.128,39.9924684,4.583664,-11.2872726,99.63166662,-0.30939732,-42.62234562
5.0,500,0.0,-1.0,0.118,39.47680620000001,6.703608600000001,-12.9488508,100.01554848,-0.19480572,-42.53067234
5.01,501,0.0,-0.998,0.109,39.0184398,8.7089616,-15.0114996,100.4108895,-0.06302537999999999,-42.41608074
5.02,502,-0.009000000000000001,-0.991,0.125,39.3622146,9.969469199999999,-17.3606274,100.8119601,0.0859437,-42.27857082
5.03,503,-0.043,-0.981,0.163,40.10706,8.9954406,-18.6784308,101.21876028,0.25210152,-42.15252006
5.04,504,-0.067,-0.983,0.139,38.1590028,7.6203414,-18.3919518,101.60264214,0.41252976,-42.03792846
5.05,505,-0.054000000000000006,-0.975,0.098,36.898495200000006,6.417129599999999,-17.303331600000003,101.95214652,0.56149884,-41.9405256
5.06,506,-0.025,-0.959,0.081,35.7525792,4.010706000000001,-16.501190400000002,102.31311006,0.7104679199999999,-41.86031148
5.07,507,0.027000000000000003,-0.949,0.075,36.2109456,0.2291832000000001,-15.469866,102.68553276,0.86516658,-41.82020442
5.08,508,0.065,-0.958,0.087,37.757932200000006,-4.7555514,-14.495837400000001,103.06941462,1.01986524,-41.83166358
5.09,509,0.071,-0.96,0.128,39.7059894,-8.136003599999999,-13.5791046,103.47048522,1.1745638999999999,-41.87177064
5.1,510,0.048,-0.961,0.165,40.737313799999995,-10.7716104,-12.6623718,103.87155582,1.32926256,-41.9405256
5.11,511,0.026,-0.961,0.206,40.10706,-13.2926256,-11.0580894,104.278356,1.47250206,-42.03219888
5.12,512,0.0,-0.987,0.227,35.5806918,-13.750992000000002,-9.1100322,104.63931954000002,1.6042824000000002,-42.13533132
5.13,513,-0.024,-1.012,0.208,29.9657034,-12.9488508,-7.2765666,104.94298727999998,1.7074148399999998,-42.23846376
5.14,514,-0.039,-1.034,0.165,25.9549974,-12.032117999999999,-5.042030400000002,105.20081838000002,1.7933585399999998,-42.33586662
5.1499999999999995,515,-0.039,-1.079,0.135,25.3247436,-8.8235532,-4.4690724,105.41854242,1.85065434,-42.41608074
5.16,516,-0.033,-1.117,0.18,27.9603504,-7.2192707999999985,-4.4690724,105.70502142,1.91367972,-42.46764696
5.17,517,-0.015,-1.124,0.213,29.67922440000001,-6.016058999999999,-3.7815227999999994,106.00295958,1.97097552,-42.50775402
5.18,518,0.009000000000000001,-1.097,0.233,30.4240698,-5.5576926,-2.1772404,106.31235690000001,2.005353,-42.55359066
5.1899999999999995,519,0.032,-1.07,0.28300000000000003,29.2781538,-6.3598338,-0.572958,106.61029506,2.0340008999999997,-42.60515688
5.2,520,0.048,-1.067,0.343,28.5333084,-5.3285094000000015,-0.1718874,106.89677406,2.0626488000000003,-42.65099352
5.21,521,0.063,-1.0759999999999998,0.38,25.1528562,-4.2398892,-0.7448454000000001,107.15460516,2.07983754,-42.685371
5.22,522,0.043,-1.083,0.359,19.8243468,-4.5263682,-1.3750992,107.35514046,2.10848544,-42.71974848000001
5.2299999999999995,523,0.008,-1.079,0.285,14.152062599999999,-4.9847345999999995,-1.9480572,107.49837996,2.1485925000000003,-42.75985554
5.24,524,0.011,-1.088,0.242,10.886202,-1.9480572,-3.3231564,107.60724198,2.18296998,-42.76558512
5.25,525,0.015,-1.054,0.272,9.6829902,0.6875496,-2.4064236,107.67026736,2.19442914,-42.75985554
5.26,526,0.006,-1.015,0.274,9.969469199999999,0.4010706,-0.8021411999999999,107.77339979999999,2.20015872,-42.75412596
5.27,527,0.006999999999999999,-0.998,0.289,10.7143146,1.4896908000000002,-1.0313244,107.88226182,2.2058883,-42.73120764
5.28,528,0.052000000000000005,-1.002,0.308,11.0580894,5.9014674000000005,-2.1772404,107.99685342,2.2058883,-42.66818226
5.29,529,0.075,-1.033,0.305,11.172681,3.724227,-2.6929026,108.11144502,2.21734746,-42.62234562
5.3,530,0.084,-1.048,0.281,10.0840608,-1.4896908000000002,-1.8907613999999997,108.16874082,2.26891368,-42.61661604
5.31,531,0.092,-1.054,0.292,9.6829902,-6.6463128000000005,-0.3437748,108.26614368,2.29756158,-42.67391184
5.32,532,0.08800000000000001,-1.04,0.305,8.7662574,-8.136003599999999,-0.286479,108.35208738,2.32620948,-42.74839638
5.33,533,0.07200000000000001,-1.027,0.313,8.880849000000003,-7.333862400000001,-1.432395,108.43803108,2.36631654,-42.81142176
5.34,534,0.068,-0.984,0.34600000000000003,7.3911582,-5.958763200000001,-2.5210152000000003,108.51251562,2.41215318,-42.8572584
5.35,535,0.091,-0.946,0.435,7.448453999999999,-4.010706000000001,-2.8074942000000003,108.6614847,2.49809688,-42.8572584
5.36,536,0.099,-0.924,0.458,4.8701430000000006,-3.4950437999999995,-2.291832,108.70732134,2.53247436,-42.88017672
5.37,537,0.103,-0.913,0.507,3.7815227999999994,-0.9167328,-2.291832,108.74742840000002,2.55539268,-42.88017672
5.38,538,0.08900000000000001,-0.904,0.491,1.6042823999999998,-2.3491278,-1.6042823999999998,108.76461714,2.5783110000000002,-42.89736546
5.39,539,0.058,-0.905,0.435,0.11459160000000004,-2.8074942000000003,-0.5156622000000001,108.76461714,2.59549974,-42.92028378
5.3999999999999995,540,0.051,-0.88,0.395,-1.145916,-1.3750992,-0.057295800000000015,108.97088202,2.65279554,-42.89163588
5.41,541,0.069,-0.922,0.415,1.145916,-3.8961144,0.6302538000000001,108.98234118,2.65852512,-42.93174294000001
5.42,542,0.075,-0.946,0.408,1.432395,-7.1046792000000005,1.7761698,108.99380034,2.6642547000000003,-43.0004979
5.43,543,0.067,-0.976,0.469,2.291832,-8.078707799999998,3.151269,109.01098908,2.6642547000000003,-43.08644159999999
5.4399999999999995,544,0.034,-0.976,0.483,1.0313244,-7.448453999999999,4.1825934,109.02244824,2.65279554,-43.1723853
5.45,545,-0.003,-0.941,0.446,-1.3750992,-8.307891,4.297185,109.07974404,2.6012293200000003,-43.28124732
5.46,546,0.002,-0.909,0.451,-1.3178034,-7.6203414,3.380452200000001,109.06255530000001,2.59549974,-43.36146144
5.47,547,0.024,-0.912,0.44,-0.6875496,-6.0733548,3.2658606,109.05109614,2.58977016,-43.4302164
5.4799999999999995,548,0.049,-0.932,0.397,-1.6615782,-4.4690724,4.1252976000000015,109.0339074,2.56685184,-43.48751220000001
5.49,549,0.065,-0.944,0.391,-0.8021411999999999,-3.724227,5.0993262,109.02244824,2.52674478,-43.53907842
5.5,550,0.048,-0.954,0.393,0.11459160000000004,-2.291832,5.3858052,109.06828488,2.48090814,-43.57918548
5.51,551,0.013,-0.962,0.35700000000000004,-0.11459160000000004,0.1718874,4.8701430000000006,109.06828488,2.4350715000000003,-43.59064464
5.52,552,-0.019,-0.982,0.358,-0.11459160000000004,3.724227,4.0680017999999984,109.06828488,2.38350528,-43.56772632000001
5.53,553,-0.033,-0.998,0.332,-1.6615782,5.443101,3.7815227999999994,109.05109614,2.32620948,-43.53334884
5.54,554,-0.022,-1.018,0.314,-3.2085648,5.3858052,3.0939732,109.02244824,2.28037284,-43.49324178
5.55,555,0.009000000000000001,-1.024,0.266,-4.9847345999999995,3.9534102,2.3491278,108.86774958,2.2345362,-43.47032346
5.56,556,0.045,-1.04,0.238,-5.844171599999999,2.4064236,2.0626488000000003,108.80472419999998,2.2058883,-43.4588643
5.57,557,0.051,-1.0659999999999998,0.279,-6.1879464,1.145916,2.9220857999999996,108.74169881999998,2.1772404,-43.4588643
5.58,558,-0.002,-1.095,0.29600000000000004,-7.1046792000000005,1.0313244,4.583664,108.66721428,2.12567418,-43.46459388
5.59,559,-0.035,-1.115,0.312,-10.599723,3.724227,5.6722842,108.56408184,2.0626488000000003,-43.44740514
5.6,560,-0.051,-1.126,0.285,-16.902261,10.1413566,6.5317212,108.36927612000002,1.9480572000000005,-43.38437976
5.61,561,-0.022,-1.114,0.27,-21.0848544,12.1467096,6.3025379999999975,108.15728166,1.85065434,-43.29270648
5.62,562,0.014,-1.104,0.27,-24.2361234,12.1467096,4.8128472,107.91090972,1.76471064,-43.20103320000001
5.63,563,0.061,-1.12,0.247,-26.929026,10.5424272,2.9793816000000004,107.63588988,1.6959556799999995,-43.1150895
5.64,564,0.079,-1.106,0.237,-31.627281600000003,10.313244,0.8021411999999999,107.32076298,1.6558486199999998,-43.02341622
5.6499999999999995,565,0.106,-1.092,0.281,-33.804522,10.4278356,0.057295800000000015,106.96552902,1.6386598799999998,-42.92028378
5.66,566,0.126,-1.073,0.281,-36.7266078,9.453807000000001,1.4896908000000002,106.59310632,1.59282324,-42.84006966
5.67,567,0.13699999999999998,-1.0490000000000002,0.243,-40.393539,7.333862400000001,3.6096354,106.18630614,1.52979786,-42.78850344
5.68,568,0.16699999999999998,-1.043,0.284,-41.19568020000001,5.3858052,5.042030400000002,105.7680468,1.46677248,-42.75412596
5.6899999999999995,569,0.17800000000000002,-1.092,0.321,-44.51883660000001,5.2139178,7.3911582,105.31540998,1.3750992,-42.73120764
5.7,570,0.174,-1.103,0.275,-51.852699,3.2085648,9.5111028,104.78255904,1.29488508,-42.71974848000001
5.71,571,0.171,-1.06,0.244,-56.149884,-0.6302538000000001,8.479778399999999,104.20960103999998,1.21467096,-42.75985554
5.72,572,0.185,-1.025,0.227,-55.5196302,-4.8128472,4.6409598,103.6481022,1.1745638999999999,-42.82288092
5.7299999999999995,573,0.199,-1.008,0.273,-53.34238979999999,-9.1100322,-1.7761698,103.1037921,1.21467096,-42.90882462
5.74,574,0.232,-1.0659999999999998,0.424,-51.1651494,-9.568398599999998,-7.7922288,102.58240032,1.31207382,-42.99476832
5.75,575,0.23,-1.127,0.4,-53.571573,-10.7716104,-8.250595200000001,102.0438198,1.43812458,-43.07498244
5.76,576,0.245,-1.192,0.273,-48.987909,-19.8816426,0.4010706,101.54534634,1.47250206,-43.26978816
5.77,577,0.304,-1.295,0.328,-40.6227222,-29.67922440000001,15.0114996,101.127087,1.39228794,-43.59064464
5.78,578,0.279,-1.3730000000000002,0.394,-41.3675676,-39.820581,28.5333084,100.70309808,1.19748222,-44.03755188
5.79,579,0.061,-1.3090000000000002,0.381,-46.982556,-43.258329,33.116972399999995,100.22181336,0.95683986,-44.52456618
5.8,580,-0.129,-1.09,0.339,-44.977203,-42.2270046,26.929026,99.7806357,0.76203414,-44.99439174
5.81,581,-0.188,-0.96,0.322,-40.8519054,-36.898495200000006,18.6784308,99.36810594,0.64744254,-45.38973276
5.82,582,-0.199,-0.866,0.299,-34.3201842,-33.5753388,13.6364004,99.01860156,0.5729580000000001,-45.73923714
5.83,583,-0.153,-0.843,0.226,-28.7051958,-26.41336380000001,9.6256944,98.73212256,0.52139178,-46.01998656
5.84,584,-0.18600000000000005,-0.878,0.188,-19.3659804,-20.05353,8.479778399999999,98.53158726,0.46982556,-46.22625144
5.85,585,-0.255,-0.94,0.332,-7.6776372,-11.1153852,9.3392154,98.55450558,0.28074942,-46.42105716
5.86,586,-0.28300000000000003,-1.013,0.436,-2.1772404,-2.9220857999999996,8.078707799999998,98.53158726,0.20626488,-46.46116422
5.87,587,-0.32,-0.968,0.45,0.057295800000000015,3.6096354,3.9534102,98.53158726,0.16042824,-46.43251632
5.88,588,-0.27,-0.8859999999999999,0.429,3.151269,10.7143146,-2.4637194,98.56596474,0.16615782,-46.3236543
5.89,589,-0.145,-0.7859999999999999,0.399,5.2712136,15.0114996,-8.7089616,98.61753096,0.22345362,-46.16322606
5.8999999999999995,590,-0.019,-0.7020000000000001,0.331,8.4224826,14.8396122,-11.688343199999998,98.73785214,0.31512690000000004,-46.00279782
5.91,591,0.097,-0.662,0.294,11.45916,13.120738199999998,-10.886202,98.85244374,0.4010706000000001,-45.85382874
5.92,592,0.12,-0.675,0.258,13.5791046,9.740286,-7.9641161999999985,98.98995366,0.4583664000000001,-45.74496672
5.93,593,0.07400000000000001,-0.7040000000000001,0.166,12.4331886,5.2139178,-5.2712136,99.11600442,0.5042030399999999,-45.68194134
5.9399999999999995,594,-0.011,-0.688,0.194,11.745639,3.724227,-5.2139178,99.2363256,0.55003968,-45.6361047
5.95,595,-0.076,-0.642,0.228,10.0840608,3.2085648,-7.8495246,99.35664678,0.6016058999999999,-45.60172722
5.96,596,-0.117,-0.585,0.235,11.6310474,3.7815227999999994,-11.2872726,99.47696796,0.70473834,-45.54443142
5.97,597,-0.08800000000000001,-0.5760000000000001,0.26,14.9542038,7.333862400000001,-11.6310474,99.63166662,0.8078707799999998,-45.45275814
5.9799999999999995,598,-0.066,-0.617,0.235,18.3919518,9.1100322,-10.0840608,99.81501318,0.8880849000000001,-45.34389612
5.99,599,0.004,-0.6659999999999999,0.224,20.912967,10.0840608,-7.5630456000000015,100.03273722,0.9453806999999999,-45.22930452
6.0,600,0.035,-0.72,0.271,26.1268848,10.026765,-3.4377480000000005,100.33067538,0.96829902,-45.1204425
6.01,601,-0.004,-0.753,0.376,28.0176462,12.318597,-1.3750992,100.61715438,0.95683986,-44.99439174
6.02,602,-0.07,-0.7859999999999999,0.35100000000000003,26.9863218,16.673077799999998,-0.6875496,100.88644464,0.92819196,-44.82823392
6.03,603,-0.106,-0.825,0.294,25.8977016,18.9649098,0.0,101.15000532,0.8880849000000001,-44.64488736
6.04,604,-0.104,-0.919,0.28600000000000003,22.9756158,23.2620948,1.145916,101.3849181,0.8250595199999999,-44.42143374000001
6.05,605,-0.062,-1.01,0.242,18.048177,26.4706596,2.578311,101.56826466,0.7391158200000001,-44.16933222
6.06,606,0.057,-1.087,0.218,12.5477802,27.7311672,5.2712136,101.69431542,0.62452422,-43.91150112
6.07,607,0.131,-1.138,0.263,6.990087599999999,25.7258142,9.2819196,101.76879996,0.47555514,-43.68231792
6.08,608,0.096,-1.151,0.175,-1.5469866,24.1215318,11.6310474,101.75161122,0.30366774,-43.47605304
6.09,609,0.039,-1.14,0.141,-7.2765666,24.4653066,10.4278356,101.6713971,0.14896908,-43.26405858
6.1,610,-0.004,-1.107,0.156,-11.917526400000002,24.064235999999998,7.7349330000000025,101.5281576,0.01145916,-43.04633454
6.11,611,-0.066,-1.08,0.152,-16.902261,25.55392680000001,5.5003968,101.35627020000001,-0.09167328,-42.81715134
6.12,612,-0.077,-1.073,0.111,-23.7204612,28.991674800000002,3.7815227999999994,101.10989826,-0.19480572,-42.54786108
6.13,613,-0.062,-1.073,0.071,-28.762491600000004,28.8770832,2.1199446,100.8119601,-0.28074942,-42.27284124000001
6.14,614,-0.051,-1.08,0.051,-34.091001,28.5906042,0.8021411999999999,100.46245572,-0.34950438,-42.00355098
6.15,615,-0.033,-1.166,0.056,-39.0757356,28.5906042,0.0,100.0384668,-0.41252976,-41.73426072
6.16,616,-0.031,-1.227,0.047,-47.1544434,26.356068,-1.145916,99.55718208,-0.4526368200000001,-41.4821592
6.17,617,-0.014,-1.246,0.016,-52.9413192,22.345362,-2.6356068,99.01287198,-0.47555514,-41.27016474
6.18,618,-0.005,-1.25,0.023,-57.4103916,18.907614000000002,-4.5263682,98.42845481999998,-0.46409598,-41.0810886
6.1899999999999995,619,0.024,-1.291,0.027000000000000003,-63.02538000000001,16.8449652,-5.2712136,97.78101228,-0.44690724,-40.92066036
6.2,620,0.015,-1.345,0.04,-70.6457214,15.870936600000002,-4.7555514,97.05335562,-0.4297185000000001,-40.76596170000001
6.21,621,0.014,-1.389,0.033,-79.5838662,18.334656,-4.010706000000001,96.24548484,-0.41825934,-40.5940743
6.22,622,0.023,-1.396,-0.053,-86.91772859999998,17.6471064,-4.297185,95.35739994,-0.40680018,-40.4221869
6.2299999999999995,623,0.009000000000000001,-1.436,-0.069,-92.246238,15.2406828,-4.9274388,94.41774882,-0.37815228,-40.27894740000001
6.24,624,-0.017,-1.53,-0.067,-102.2157072,16.157415599999997,-4.010706000000001,93.37496526,-0.36096354,-40.12997832
6.25,625,0.01,-1.602,-0.059,-113.21650079999999,20.7410796,-2.2345362,92.22331968,-0.36096354,-39.94090218
6.26,626,0.068,-1.65,-0.159,-118.5450102,18.3919518,-0.6302538000000001,91.0143783,-0.37815228,-39.76901478
6.27,627,0.111,-1.6740000000000002,-0.305,-123.1286742,14.9542038,-0.572958,89.75960028,-0.38388186,-39.63723444
6.28,628,0.13,-1.722,-0.353,-125.53509779999999,10.7143146,-0.9740286,88.48763352,-0.38388186,-39.54556116
6.29,629,0.142,-1.777,-0.406,-134.4732426,3.3231564,-0.3437748,87.1182639,-0.39534102,-39.52837242
6.3,630,0.112,-1.776,-0.517,-146.4480648,-1.6042823999999998,-0.8594370000000001,85.62857310000003,-0.39534102,-39.55702032
6.31,631,0.069,-1.79,-0.578,-150.91713719999996,-3.4377480000000005,-2.578311,84.09877524000002,-0.38388186,-39.61431612
6.32,632,0.04,-1.779,-0.537,-152.8651944,-3.724227,-4.297185,82.54605906,-0.36096354,-39.67161192
6.33,633,0.041,-1.756,-0.495,-151.03172880000002,1.432395,-5.2712136,81.0162612,-0.32085648,-39.6773415
6.34,634,0.053,-1.715,-0.504,-149.7139254,3.0366774,-4.7555514,79.4979225,-0.28647900000000004,-39.67161192
6.35,635,0.097,-1.643,-0.504,-146.2761774,0.9167328,-4.8128472,78.00823170000002,-0.25210152,-39.68307108000001
6.36,636,0.091,-1.565,-0.49,-139.6298646,-0.572958,-6.4744254,76.59302543999998,-0.20053530000000008,-39.71744856
6.37,637,0.073,-1.4880000000000002,-0.464,-131.5511568,-2.8074942000000003,-8.193299399999999,75.2580333,-0.14323950000000002,-39.78047393999999
6.38,638,0.068,-1.42,-0.44,-125.3632104,-5.958763200000001,-8.479778399999999,73.98606654,-0.09167328,-39.86641764
6.39,639,0.06,-1.294,-0.464,-122.4411246,-8.9381448,-7.333862400000001,72.74274768000002,-0.057295800000000015,-39.98673882
6.4,640,0.046,-1.223,-0.474,-114.64889579999999,-13.2926256,-6.703608600000001,71.57391336,-0.04010706,-40.14143748
6.41,641,0.01,-1.167,-0.4920000000000001,-109.77875279999999,-15.9282324,-6.3025379999999975,70.46237484,-0.04010706,-40.31905446
6.42,642,-0.035,-1.104,-0.49,-105.3096804,-16.042824000000003,-5.9014674000000005,69.39667296,-0.04583664,-40.50240102
6.43,643,-0.059,-1.065,-0.476,-99.63739620000001,-14.896907999999998,-5.1566220000000005,68.38826688,-0.057295800000000015,-40.66282926
6.4399999999999995,644,-0.086,-1.044,-0.488,-94.9964364,-14.495837400000001,-4.1825934,67.42569744,-0.08021412,-40.8232575
6.45,645,-0.112,-1.006,-0.514,-89.7825186,-12.6623718,-3.380452200000001,66.50323506,-0.12032118,-40.966497
6.46,646,-0.125,-0.98,-0.537,-84.797784,-11.172681,-3.2658606,65.64952764,-0.14323950000000002,-41.08681818
6.47,647,-0.12,-0.921,-0.564,-78.95361240000003,-12.4904844,-3.724227,64.84738644000001,-0.16615782,-41.21859852
6.4799999999999995,648,-0.116,-0.858,-0.532,-68.9268474,-11.8029348,-3.2658606,64.14837768,-0.18907614,-41.34464928
6.49,649,-0.086,-0.7959999999999999,-0.49,-59.24385720000001,-11.229976800000001,-2.4637194,63.55250136000001,-0.22345362,-41.46497046
6.5,650,-0.068,-0.7659999999999999,-0.512,-52.712136,-11.5737516,-1.7761698,62.98527294,-0.27501984,-41.58529164
6.51,651,-0.044,-0.753,-0.515,-44.919907200000004,-8.9381448,-0.572958,62.53263611999999,-0.30939732,-41.67123534
6.52,652,-0.03,-0.758,-0.491,-37.8725238,-7.6776372,1.5469866,62.14875426,-0.36669312,-41.73426072
6.53,653,-0.026,-0.746,-0.475,-32.2002396,-7.161975,3.4950437999999995,61.8221682,-0.4297185000000001,-41.78009736
6.54,654,-0.019,-0.726,-0.501,-26.5852512,-7.2765666,4.6409598,61.55860752,-0.5042030399999999,-41.825934000000004
6.55,655,-0.02,-0.698,-0.486,-18.449247600000003,-5.2139178,5.2712136,61.3351539,-0.5844171599999999,-41.8545819
6.56,656,-0.038,-0.706,-0.484,-6.8182002000000015,-2.1772404,5.3858052,61.26639894,-0.64171296,-41.84312274
6.57,657,-0.055,-0.7140000000000001,-0.479,1.2605076000000002,-0.057295800000000015,4.4690724,61.2778581,-0.68182002,-41.825934000000004
6.58,658,-0.063,-0.7340000000000001,-0.472,8.3651868,0.286479,3.9534102,61.36380180000001,-0.7161975,-41.80301568
6.59,659,-0.054000000000000006,-0.759,-0.448,13.8082878,1.3750992,3.724227,61.50131172,-0.7391158200000001,-41.77436778
6.6,660,-0.036000000000000004,-0.741,-0.4370000000000001,18.1054728,2.7501984,3.151269,61.66173996,-0.76203414,-41.73426072
6.61,661,-0.032,-0.727,-0.458,24.4080108,3.4950437999999995,2.5210152000000003,61.908111899999994,-0.76203414,-41.68842408
6.62,662,-0.042,-0.732,-0.422,31.6845774,3.2658606,2.6356068,62.22896838000001,-0.76776372,-41.64831702
6.63,663,-0.073,-0.759,-0.416,36.38283300000001,4.010706000000001,3.7815227999999994,62.60139108,-0.7792228800000001,-41.59102122
6.64,664,-0.087,-0.768,-0.442,40.7946096,5.2139178,4.9847345999999995,63.01392083999999,-0.79641162,-41.51653668
6.65,665,-0.071,-0.7829999999999999,-0.435,44.117766,5.0993262,5.3858052,63.44363934,-0.8250595199999999,-41.4535113
6.66,666,-0.046,-0.802,-0.436,46.409598,4.8701430000000006,6.016058999999999,63.9134649,-0.8537074199999999,-41.37902676
6.67,667,-0.031,-0.807,-0.415,48.70143,3.8961144,6.3598338,64.41193836,-0.8880849000000001,-41.3102718
6.68,668,-0.019,-0.815,-0.388,50.706783,3.2658606,6.2452422,64.92187098,-0.92819196,-41.252976000000004
6.6899999999999995,669,-0.01,-0.818,-0.397,51.33703679999999,2.2345362,6.3025379999999975,65.44326276000001,-0.96829902,-41.20140978
6.7,670,-0.023,-0.825,-0.386,51.7381074,3.380452200000001,5.9014674000000005,65.95892496,-1.00840608,-41.14411398
6.71,671,-0.041,-0.818,-0.385,50.9359662,4.583664,4.8128472,66.47458716,-1.0255948199999998,-41.07535901999999
6.72,672,-0.042,-0.8079999999999999,-0.362,50.3630082,7.1046792000000005,3.8961144,66.98451978,-1.0313244,-40.9951449
6.7299999999999995,673,-0.045,-0.795,-0.364,49.4462754,7.3911582,3.3231564,67.48299324000001,-1.0313244,-40.90920120000001
6.74,674,-0.037000000000000005,-0.774,-0.355,49.388979600000006,9.0527364,3.151269,67.9814667,-1.01986524,-40.80606876
6.75,675,-0.02,-0.769,-0.32,49.04520479999999,9.5111028,3.151269,68.46848100000001,-1.01413566,-40.70293632
6.76,676,-0.01,-0.755,-0.328,46.753372799999994,10.255948199999999,3.151269,68.94403614,-1.0026765,-40.5940743
6.77,677,-0.003,-0.7190000000000001,-0.334,46.5241896,11.2872726,3.6096354,69.40813212,-0.9912173399999998,-40.47375312
6.78,678,-0.001,-0.6990000000000001,-0.285,48.2430636,10.5424272,4.4117766,69.89514642,-0.9969469199999998,-40.35343194
6.79,679,0.003,-0.6829999999999999,-0.29,48.3003594,10.313244,5.2712136,70.38216072,-1.00840608,-40.23311076
6.8,680,0.006999999999999999,-0.66,-0.264,49.274388,9.0527364,6.016058999999999,70.8749046,-1.0255948199999998,-40.12424874
6.81,681,0.019,-0.638,-0.242,49.6754586,8.9381448,5.844171599999999,71.37337806000002,-1.04851314,-40.01538672
6.82,682,0.039,-0.609,-0.27,49.61816279999999,11.1153852,5.3285094000000015,71.8775811,-1.06570188,-39.88933596
6.83,683,0.024,-0.594,-0.244,50.5921914,12.261301199999998,4.1252976000000015,72.38751372,-1.0599723,-39.75755562
6.84,684,0.018000000000000002,-0.589,-0.179,51.68081160000001,13.178034,2.9220857999999996,72.9089055,-1.04851314,-39.62004570000001
6.85,685,0.021,-0.5820000000000001,-0.18,51.3943326,12.9488508,2.4064236,73.41883812,-1.0313244,-39.48253578
6.86,686,0.03,-0.5760000000000001,-0.189,51.7954032,10.313244,2.1199446,73.94022989999998,-1.01986524,-39.37367376
6.87,687,0.04,-0.544,-0.192,52.19647379999999,9.453807000000001,1.4896908000000002,74.46735126,-1.0026765,-39.27054132
6.88,688,0.061,-0.518,-0.17800000000000002,53.858052,7.6203414,0.3437748,75.01166136,-0.98548776,-39.19032720000001
6.89,689,0.073,-0.524,-0.184,53.68616460000001,7.906820400000001,0.2291832000000001,75.55597146,-0.96256944,-39.11011308
6.9,690,0.086,-0.509,-0.206,53.9153478,10.7716104,1.432395,76.0888224,-0.93392154,-38.9897919
6.91,691,0.091,-0.5,-0.171,56.66554620000001,11.0580894,3.380452200000001,76.66178040000001,-0.93965112,-38.86947072
6.92,692,0.07400000000000001,-0.528,-0.152,59.8168152,6.875496000000001,5.958763200000001,77.26911588,-0.97975818,-38.7892566
6.93,693,0.054000000000000006,-0.584,-0.151,60.16059,3.4950437999999995,6.5317212,77.87645136,-1.0313244,-38.731960799999996
6.9399999999999995,694,0.05,-0.623,-0.139,59.186561399999995,1.2605076000000002,4.8701430000000006,78.47805725999999,-1.06570188,-38.70331289999999
6.95,695,0.053,-0.6579999999999999,-0.095,59.30115299999999,-0.572958,1.5469866,79.07966316,-1.06570188,-38.69758331999999
6.96,696,0.051,-0.6609999999999999,-0.134,56.2071798,-1.5469866,-0.4010706,79.65262116,-1.0599723,-38.70904248
6.97,697,0.057,-0.66,-0.155,54.54560160000001,-2.291832,-1.0886202,80.20266084,-1.04851314,-38.72623122
6.9799999999999995,698,0.062,-0.629,-0.16,52.2537696,-3.0366774,-1.7761698,80.73551178,-1.0313244,-38.75487912000001
6.99,699,0.058,-0.61,-0.151,50.76407879999999,-4.4117766,-2.4064236,81.25117398,-1.00840608,-38.79498618
7.0,700,0.06,-0.614,-0.153,49.7900502,-6.3598338,-2.4064236,81.74964744,-0.9740286,-38.85228198
7.01,701,0.06,-0.622,-0.136,49.388979600000006,-8.193299399999999,-1.6042823999999998,82.25385048,-0.96256944,-38.9324961
7.02,702,0.058,-0.647,-0.117,49.5035712,-11.229976800000001,-1.145916,82.75805352,-0.95683986,-39.03562854
7.03,703,0.056,-0.7070000000000001,-0.145,44.8626114,-15.3552744,-1.145916,83.21641991999998,-0.95683986,-39.18459762
7.04,704,0.061,-0.7070000000000001,-0.162,39.4195104,-18.907614000000002,-1.145916,83.62322009999998,-0.95683986,-39.36794418
7.05,705,0.06,-0.723,-0.16,38.27359439999999,-22.5745452,-1.9480572,84.00137237999998,-0.93965112,-39.58566822
7.06,706,0.059,-0.748,-0.185,37.1276784,-24.1788276,-3.3231564,84.38525424,-0.92246238,-39.820581
7.07,707,0.062,-0.759,-0.192,36.7839036,-26.356068,-4.6982556,84.7691361,-0.8880849000000001,-40.08414168
7.08,708,0.049,-0.7859999999999999,-0.163,33.804522,-26.356068,-4.9274388,85.11864048,-0.8537074199999999,-40.341972780000006
7.09,709,0.026,-0.8190000000000001,-0.179,30.7678446,-24.4080108,-5.042030400000002,85.43949696000001,-0.8136003599999999,-40.58834472
7.1,710,-0.003,-0.836,-0.199,29.220858000000003,-22.8037284,-4.3544808,85.70305764,-0.7792228800000001,-40.81179834
7.11,711,-0.034,-0.861,-0.199,28.5906042,-21.3713334,-3.7815227999999994,86.0009958,-0.7448454000000001,-41.0237928
7.12,712,-0.042,-0.877,-0.198,26.642547,-17.6471064,-3.7815227999999994,86.27601564,-0.7161975,-41.19568020000001
7.13,713,-0.028,-0.867,-0.208,25.0955604,-14.495837400000001,-4.5263682,86.53384674,-0.6703608600000001,-41.33891970000001
7.14,714,-0.036000000000000004,-0.873,-0.204,25.9549974,-14.0947668,-5.6722842,86.80313699999998,-0.61879464,-41.4821592
7.15,715,-0.037000000000000005,-0.903,-0.187,26.1841806,-14.7250206,-6.5317212,87.03232019999999,-0.56149884,-41.63112828
7.16,716,-0.029,-0.934,-0.181,25.2674478,-12.4904844,-7.161975,87.29015129999998,-0.4870143000000001,-41.75144946
7.17,717,-0.031,-0.947,-0.172,25.2674478,-11.172681,-7.2765666,87.54798240000002,-0.41825934,-41.86604106
7.18,718,-0.026,-0.945,-0.149,26.5279554,-11.6310474,-7.5057497999999985,87.81727266,-0.3437748,-41.98063266
7.1899999999999995,719,-0.028,-0.94,-0.117,29.9657034,-13.178034,-7.8495246,88.12666998,-0.26356068,-42.10668342
7.2,720,-0.011,-0.953,-0.064,29.9084076,-13.521808800000002,-7.2765666,88.41887856000002,-0.18334656,-42.23846376
7.21,721,0.008,-0.96,-0.08199999999999999,28.5906042,-13.6364004,-6.3025379999999975,88.71108714,-0.12032118,-42.37597368
7.22,722,0.021,-0.962,-0.106,28.2468294,-16.501190400000002,-4.9847345999999995,89.00329572000004,-0.06875496,-42.53640192
7.2299999999999995,723,0.032,-0.973,-0.101,29.335449600000004,-18.1054728,-3.7815227999999994,89.30123388000001,-0.02291832,-42.7140189
7.24,724,0.041,-0.999,-0.114,27.903054600000004,-18.2200644,-2.2345362,89.58771288,0.0,-42.8859063
7.25,725,0.049,-1.008,-0.126,26.1841806,-18.5638392,-0.8594370000000001,89.81689608,0.028647900000000007,-43.06352328
7.26,726,0.054000000000000006,-1.021,-0.145,23.835052800000003,-18.5638392,0.5156622000000001,90.06326802,0.028647900000000007,-43.24114026
7.27,727,0.057,-1.023,-0.166,21.027558600000006,-17.8189938,1.9480572,90.27526248,0.01718874,-43.41875724000001
7.28,728,0.04,-1.032,-0.17800000000000002,17.9908812,-19.1367972,3.0939732,90.46433862,0.0,-43.6021038
7.29,729,0.0,-1.064,-0.16699999999999998,14.037471,-19.5378678,2.5210152000000003,90.60757812,-0.01718874,-43.79690952
7.3,730,-0.061,-1.102,-0.156,9.9121734,-16.386598799999998,1.0313244,90.64768518,-0.05156622,-43.96879692
7.31,731,-0.131,-1.131,-0.141,7.333862400000001,-11.229976800000001,-1.4896908000000002,90.72216972,-0.028647900000000007,-44.08338852
7.32,732,-0.187,-1.139,-0.138,6.130650599999999,-4.8701430000000006,-4.0680017999999984,90.78519509999998,0.00572958,-44.12922516
7.33,733,-0.211,-1.124,-0.126,8.651665800000002,1.8334656000000005,-5.7868758000000025,90.87686838,0.06302537999999999,-44.10630684
7.34,734,-0.19,-1.089,-0.108,13.2926256,8.59437,-6.1879464,91.00864872,0.12605075999999998,-44.02036314
7.35,735,-0.13,-1.038,-0.095,17.9335854,13.2926256,-5.2139178,91.14615864,0.13750992,-43.90004196
7.36,736,-0.036000000000000004,-0.988,-0.063,23.9496444,13.8082878,-2.7501984,91.386801,0.16042824,-43.76253204
7.37,737,0.05,-0.953,-0.018000000000000002,24.8090814,12.5477802,-0.4010706,91.63890252,0.16042824,-43.63075170000001
7.38,738,0.117,-0.925,0.011,23.376686399999997,10.255948199999999,1.8334656000000005,91.8738153,0.13750992,-43.52761926
7.39,739,0.159,-0.91,0.025,21.2567418,5.5003968,3.4950437999999995,92.09153934,0.10313244,-43.47605304
7.4,740,0.163,-0.92,0.027000000000000003,17.8762896,-0.6875496,4.1825934,92.25769716,0.14323950000000002,-43.44167556
7.41,741,0.129,-0.949,0.026,15.0114996,-6.990087599999999,4.2398892,92.41239582,0.10313244,-43.51043052
7.42,742,0.067,-1.005,0.014,12.605076,-11.516455800000001,3.6669312000000014,92.53844658,0.08021412,-43.62502212
7.43,743,0.008,-1.043,-0.003,11.516455800000001,-13.8655836,2.3491278,92.65876776,0.06302537999999999,-43.76253204
7.4399999999999995,744,-0.03,-1.056,-0.006,12.0894138,-15.126091199999998,0.1718874,92.78481852,0.07448454,-43.90577154
7.45,745,-0.048,-1.04,-0.012,12.605076,-14.381245800000002,-0.9167328,92.8764918,0.07448454,-44.06047020000001
7.46,746,-0.05,-1.017,-0.008,12.7769634,-13.178034,-1.7188740000000002,93.00827214,0.10313244,-44.18652096
7.47,747,-0.053,-1.002,-0.002,13.6364004,-11.8029348,-2.5210152000000003,93.14578206000002,0.13750992,-44.30111256
7.4799999999999995,748,-0.057,-1.0,0.005,13.0634424,-9.5111028,-2.9793816000000004,93.28329198,0.17761697999999998,-44.38705626
7.49,749,-0.059,-0.999,0.005,11.9748222,-6.1879464,-3.4950437999999995,93.40361316,0.21772404,-44.45008164
7.5,750,-0.059,-1.009,0.005,11.2872726,-2.6929026,-3.8961144,93.46090896,0.21772404,-44.4901887
7.51,751,-0.054000000000000006,-1.023,0.0,10.026765,1.145916,-4.1825934,93.55831182,0.25783110000000004,-44.47299996
7.52,752,-0.047,-1.034,-0.005,8.307891,5.6722842,-4.1252976000000015,93.64425552,0.29793816,-44.41570416
7.53,753,-0.042,-1.036,-0.016,7.5057497999999985,8.479778399999999,-3.8961144,93.71874006,0.32658606,-44.32976046
7.54,754,-0.032,-1.036,-0.018000000000000002,7.6203414,10.4851314,-3.724227,93.79895417999998,0.35523396,-44.22089844
7.55,755,-0.018000000000000002,-1.039,-0.018000000000000002,7.7349330000000025,12.5477802,-3.6669312000000014,93.8218725,0.3724227000000001,-44.09484768
7.56,756,-0.003,-1.045,-0.019,7.6776372,13.0634424,-3.4950437999999995,93.89635704,0.39534102,-43.96306734
7.57,757,0.006999999999999999,-1.039,-0.004,7.2192707999999985,11.9748222,-3.151269,93.97084158,0.41825934,-43.84274616
7.58,758,0.013,-1.023,0.003,6.6463128000000005,11.4018642,-2.6929026,94.03959654,0.43544808,-43.72815455999999
7.59,759,0.024,-1.01,0.006999999999999999,6.016058999999999,10.1986524,-2.4064236,94.09689233999998,0.44690724,-43.62502212
7.6,760,0.026,-1.008,0.004,4.6982556,8.4224826,-2.2345362,94.06251486,0.48128472,-43.52761926
7.61,761,0.025,-1.007,-0.001,3.5523396000000003,7.6203414,-2.2345362,94.09689233999998,0.4984734599999999,-43.45313472
7.62,762,0.02,-1.009,-0.001,2.8074942000000003,7.1046792000000005,-2.3491278,94.12554024,0.5156622000000001,-43.37865018
7.63,763,0.013,-1.007,0.0,2.7501984,7.161975,-2.6356068,94.15418814,0.53285094,-43.30416564
7.64,764,0.008,-1.005,0.001,3.0939732,7.2192707999999985,-3.0939732,94.18283604,0.55576926,-43.23541068
7.65,765,0.008,-1.002,0.004,3.3231564,7.161975,-3.4950437999999995,94.13699940000001,0.59014674,-43.15519656
7.66,766,0.012,-1.003,0.004,2.9793816000000004,7.1046792000000005,-3.6669312000000014,94.1656473,0.61879464,-43.08644159999999
7.67,767,0.016,-1.007,0.0,1.8334656000000005,7.7922288,-3.0366774,94.18283604,0.64171296,-43.00622748
7.68,768,0.017,-1.008,-0.001,1.5469866,7.5630456000000015,-2.0053530000000004,94.20002478,0.65317212,-42.92601336
7.6899999999999995,769,0.017,-1.01,0.006999999999999999,2.2345362,6.2452422,-1.2032118,94.2229431,0.6589017,-42.86298798
7.7,770,0.022,-1.015,0.009000000000000001,2.578311,5.0993262,-0.6302538000000001,94.1083515,0.69327918,-42.7999626
7.71,771,0.029,-1.015,0.006,2.291832,3.724227,-0.3437748,94.13126982,0.69327918,-42.75985554
7.72,772,0.034,-1.008,0.01,2.5210152000000003,2.5210152000000003,-0.1718874,94.15418814,0.69327918,-42.73693722
7.7299999999999995,773,0.038,-1.002,0.02,3.0366774,1.2605076000000002,-0.11459160000000004,94.18856562,0.69327918,-42.72547806
7.74,774,0.044,-1.004,0.024,2.9220857999999996,0.0,-0.1718874,94.21721352,0.69327918,-42.72547806
7.75,775,0.044,-1.012,0.016,2.7501984,-1.6615782,0.0,94.07397402,0.7734933,-42.70255974000001
7.76,776,0.038,-1.021,0.028,2.9793816000000004,-4.6982556,0.4583664000000001,94.10262192,0.7734933,-42.74839638
7.77,777,0.034,-1.03,0.033,2.4637194,-6.8182002000000015,0.9167328,94.13126982,0.76776372,-42.81715134
7.78,778,0.028,-1.028,0.029,2.0053530000000004,-8.3651868,1.2605076000000002,94.14845856,0.76203414,-42.89736546
7.79,779,0.018000000000000002,-1.022,0.025,1.6615782,-9.9121734,1.3750992,94.1656473,0.76203414,-42.99476832
7.8,780,0.004,-1.013,0.023,1.4896908000000002,-10.8289062,1.145916,94.11981066,0.75057498,-43.10935992
7.81,781,-0.006,-1.005,0.029,0.9167328,-10.255948199999999,0.4583664000000001,94.12554024,0.75630456,-43.21249236
7.82,782,-0.013,-0.999,0.027000000000000003,0.5156622000000001,-8.8235532,-0.286479,94.13126982,0.76776372,-43.29843606
7.83,783,-0.013,-1.0,0.02,0.2291832000000001,-7.6203414,-0.8594370000000001,94.13699940000001,0.7849524600000001,-43.3729206
7.84,784,-0.006999999999999999,-1.003,0.026,0.1718874,-7.5630456000000015,-0.8021411999999999,94.13699940000001,0.8021412000000001,-43.44740514
7.85,785,-0.006,-1.01,0.035,0.5156622000000001,-7.448453999999999,-0.4010706,94.05678528,0.7906820400000001,-43.53334884
7.86,786,-0.005,-1.018,0.03,0.4010706,-6.703608600000001,-0.057295800000000015,94.06251486,0.79641162,-43.59637422
7.87,787,-0.002,-1.017,0.03,0.0,-6.5317212,0.286479,94.06251486,0.8021412000000001,-43.66512918
7.88,788,0.002,-1.011,0.026,0.1718874,-6.3025379999999975,0.4010706,94.06251486,0.8021412000000001,-43.72815455999999
7.89,789,0.003,-1.004,0.018000000000000002,0.4010706,-6.3025379999999975,0.3437748,94.06824444,0.8021412000000001,-43.79117994
7.9,790,0.0,-0.998,0.015,0.572958,-5.3858052,0.057295800000000015,93.91354578,0.7849524600000001,-43.85420532
7.91,791,-0.003,-0.998,0.02,0.4010706,-4.4690724,-0.1718874,93.91927536,0.7906820400000001,-43.90004196
7.92,792,-0.002,-0.999,0.028,0.286479,-4.0680017999999984,-0.4583664000000001,93.92500494,0.79641162,-43.94014901999999
7.93,793,0.003,-1.002,0.03,0.286479,-3.6669312000000014,-0.4583664000000001,93.92500494,0.8078707799999998,-43.9745265
7.94,794,0.01,-1.005,0.029,0.057295800000000015,-3.4377480000000005,-0.2291832000000001,93.92500494,0.8136003599999999,-44.00890398
7.95,795,0.013,-1.007,0.03,0.2291832000000001,-3.4377480000000005,-0.11459160000000004,93.75311754,0.8307891,-44.03755188
7.96,796,0.008,-1.007,0.031,0.5156622000000001,-3.0939732,-0.1718874,93.75884712,0.8307891,-44.06619978
7.97,797,0.001,-1.008,0.034,0.8021411999999999,-2.6929026,-0.11459160000000004,93.77030628,0.83651868,-44.09484768
7.9799999999999995,798,-0.003,-1.006,0.034,1.0313244,-2.4064236,0.0,93.78176544,0.83651868,-44.117766
7.99,799,-0.006,-1.006,0.031,0.9740286,-2.0626488000000003,0.0,93.78749502,0.8422482600000001,-44.14068432
8.0,800,-0.006999999999999999,-1.003,0.029,0.5156622000000001,-1.2605076000000002,0.0,93.4208019,0.72765666,-44.21516886
8.01,801,-0.005,-1.0,0.029,0.572958,-0.8594370000000001,0.0,93.42653148,0.72765666,-44.22662802000001
8.02,802,-0.005,-1.002,0.03,0.572958,-0.6302538000000001,0.11459160000000004,93.43226106,0.72765666,-44.2323576
8.03,803,-0.005,-1.003,0.031,0.6302538000000001,-0.7448454000000001,0.2291832000000001,93.43799064,0.72192708,-44.23808718
8.04,804,-0.006,-1.009,0.033,0.572958,-1.0313244,0.1718874,93.44372022,0.72192708,-44.24954634
8.05,805,-0.006,-1.013,0.03,0.057295800000000015,-0.7448454000000001,0.0,92.74471146,0.53858052,-44.35840836
8.06,806,-0.005,-1.012,0.032,0.286479,-0.3437748,-0.057295800000000015,92.75044104,0.53858052,-44.35840836
8.07,807,0.0,-1.01,0.035,0.9167328,0.0,-0.11459160000000004,92.7619002,0.53858052,-44.35840836
8.08,808,0.005,-1.006,0.032,1.2605076000000002,-0.1718874,0.0,92.77335936,0.53858052,-44.36413794
8.09,809,0.009000000000000001,-1.004,0.033,0.9740286,-0.286479,0.057295800000000015,92.78481852,0.53858052,-44.36413794
8.1,810,0.011,-1.003,0.031,0.5156622000000001,-0.057295800000000015,0.11459160000000004,92.26342674,0.6302538000000001,-44.28392382
8.11,811,0.011,-1.006,0.025,0.057295800000000015,0.057295800000000015,0.286479,92.26342674,0.6302538000000001,-44.28392382
8.12,812,0.006999999999999999,-1.012,0.02,-0.286479,0.0,0.5156622000000001,92.26342674,0.62452422,-44.28392382
8.13,813,0.002,-1.015,0.017,-0.572958,0.4010706,0.5156622000000001,92.25769716,0.61879464,-44.27819424
8.14,814,-0.005,-1.015,0.014,-0.4010706,0.8021411999999999,0.4010706,92.25196758,0.61306506,-44.27246466
8.15,815,-0.006,-1.014,0.017,-0.11459160000000004,1.2032118,0.286479,92.05143228,0.56149884,-44.28965340000001
8.16,816,-0.001,-1.011,0.021,0.057295800000000015,1.3178034,0.2291832000000001,92.05143228,0.55576926,-44.27819424
8.17,817,0.002,-1.009,0.02,-0.286479,1.432395,0.057295800000000015,92.05143228,0.55576926,-44.261005499999996
8.18,818,0.008,-1.005,0.022,-0.6302538000000001,1.432395,-0.1718874,92.0457027,0.55576926,-44.24381676
8.19,819,0.011,-1.003,0.025,-0.8021411999999999,1.0313244,-0.3437748,92.03424354,0.55576926,-44.23808718
8.2,820,0.011,-1.003,0.03,-0.8594370000000001,1.0886202,-0.3437748,91.93684068,0.5844171599999999,-44.20370970000001
8.209999999999999,821,0.012,-1.006,0.028,-0.6302538000000001,1.6042823999999998,-0.4010706,91.9311111,0.59014674,-44.18652096
8.22,822,0.014,-1.009,0.023,-0.9167328,2.0626488000000003,-0.3437748,91.91965194,0.59014674,-44.16933222
8.23,823,0.013,-1.011,0.021,-0.9740286,2.0626488000000003,-0.057295800000000015,91.90819278,0.59014674,-44.1464139
8.24,824,0.011,-1.013,0.019,-0.8594370000000001,1.9480572,0.057295800000000015,91.89673362,0.5844171599999999,-44.12922516
8.25,825,0.011,-1.012,0.017,-0.8594370000000001,1.8334656000000005,0.2291832000000001,91.78787159999999,0.6016058999999999,-44.09484768
8.26,826,0.009000000000000001,-1.009,0.017,-0.8594370000000001,1.4896908000000002,0.2291832000000001,91.77641244,0.59587632,-44.07765894
8.27,827,0.008,-1.006,0.02,-0.8594370000000001,1.4896908000000002,0.057295800000000015,91.76495328,0.59587632,-44.06619978
8.28,828,0.008,-1.005,0.021,-0.6875496,1.7188740000000002,-0.11459160000000004,91.7592237,0.59587632,-44.04901104
8.29,829,0.01,-1.005,0.02,-0.7448454000000001,1.8907613999999997,-0.2291832000000001,91.75349412,0.59587632,-44.02609272
8.3,830,0.011,-1.007,0.018000000000000002,-0.1718874,2.0626488000000003,-0.2291832000000001,91.63317294,0.61879464,-43.98598566
8.31,831,0.012,-1.011,0.017,0.1718874,1.6042823999999998,0.0,91.63317294,0.61879464,-43.9745265
8.32,832,0.013,-1.012,0.019,0.3437748,1.2032118,0.057295800000000015,91.63890252,0.61879464,-43.95733776
8.33,833,0.012,-1.011,0.017,0.3437748,1.0886202,0.057295800000000015,91.63890252,0.61306506,-43.95160818
8.34,834,0.012,-1.008,0.016,0.2291832000000001,0.8594370000000001,0.0,91.6446321,0.61306506,-43.94014901999999
8.35,835,0.009000000000000001,-1.004,0.011,0.2291832000000001,0.6302538000000001,-0.11459160000000004,91.36961226,0.61879464,-43.92296028
8.36,836,0.006999999999999999,-1.005,0.014,0.11459160000000004,0.6875496,-0.2291832000000001,91.36961226,0.62452422,-43.91723070000001
8.37,837,0.006999999999999999,-1.007,0.017,-0.11459160000000004,1.145916,-0.286479,91.36961226,0.62452422,-43.90577154
8.38,838,0.006999999999999999,-1.009,0.011,0.11459160000000004,1.2605076000000002,-0.286479,91.36961226,0.6302538000000001,-43.89431238
8.39,839,0.009000000000000001,-1.011,0.01,0.1718874,1.3750992,-0.11459160000000004,91.36961226,0.6302538000000001,-43.88285322
8.4,840,0.012,-1.008,0.009000000000000001,0.3437748,1.0886202,0.057295800000000015,91.22637276,0.66463128,-43.83701658
8.41,841,0.013,-1.006,0.013,0.6875496,0.8021411999999999,0.1718874,91.23210234,0.6589017,-43.831287
8.42,842,0.014,-1.007,0.017,0.7448454000000001,0.1718874,0.2291832000000001,91.2435615,0.6589017,-43.831287
8.43,843,0.016,-1.005,0.017,0.4010706,-0.5156622000000001,0.2291832000000001,91.2435615,0.65317212,-43.83701658
8.44,844,0.014,-1.005,0.016,-0.057295800000000015,-1.145916,0.2291832000000001,91.2435615,0.65317212,-43.84847574
8.45,845,0.009000000000000001,-1.009,0.011,-0.2291832000000001,-1.2032118,0.1718874,91.08313326,0.66463128,-43.84847574
8.459999999999999,846,0.006,-1.014,0.013,-0.286479,-0.7448454000000001,0.057295800000000015,91.07740368,0.66463128,-43.85420532
8.47,847,0.005,-1.016,0.021,-0.057295800000000015,-0.4010706,0.0,91.07740368,0.66463128,-43.8599349
8.48,848,0.008,-1.015,0.018000000000000002,-0.1718874,-0.3437748,-0.057295800000000015,91.07740368,0.66463128,-43.86566448
8.49,849,0.011,-1.01,0.01,-0.6875496,-0.8021411999999999,0.0,91.06594452,0.66463128,-43.87139406
8.5,850,0.013,-1.004,0.008,-0.9740286,-1.4896908000000002,-0.057295800000000015,90.9857304,0.68182002,-43.87712364
8.51,851,0.012,-1.002,0.004,-0.6875496,-1.8907613999999997,0.0,90.98000082,0.68182002,-43.89431238
