TimeStamp(s),FrameCounter,AccX,AccY,AccZ,GyrX,GyrY,GyrZ,EulerX,EulerY,EulerZ
0.01,1,-0.027999999999999997,-0.9620000000000001,0.321,0.8594370000000001,-1.8334656000000005,-0.057295800000000015,111.45179016000002,-0.79641162,12.25557162
0.02,2,-0.035,-0.973,0.29,0.7448454000000001,-3.2658606,0.0,111.46324932,-0.7792228800000001,12.226923719999998
0.03,3,-0.036000000000000004,-0.973,0.29,0.286479,-4.1252976000000015,-0.1718874,111.46324932,-0.76203414,12.19254624
0.04,4,-0.036000000000000004,-0.971,0.289,0.11459160000000004,-4.2398892,-0.3437748,111.46897889999998,-0.7448454000000001,12.15243918
0.05,5,-0.039,-0.971,0.287,0.057295800000000015,-4.1825934,-0.572958,111.34292814,-0.75630456,12.1467096
0.060000000000000005,6,-0.04,-0.97,0.289,0.1718874,-3.5523396000000003,-0.572958,111.34292814,-0.7391158200000001,12.118061700000002
0.06999999999999999,7,-0.039,-0.97,0.29,0.3437748,-3.2085647999999996,-0.40107059999999994,111.34865772,-0.72192708,12.0894138
0.08,8,-0.040999999999999995,-0.966,0.292,0.6302538000000001,-2.7501984,-0.1718874,111.36011688,-0.7104679199999999,12.06649548
0.09,9,-0.037000000000000005,-0.9640000000000001,0.289,0.9740286,-1.9480572,-0.2291832000000001,111.36584646,-0.69900876,12.049306740000002
0.09999999999999999,10,-0.034,-0.966,0.287,1.145916,-1.7761698000000001,-0.057295800000000015,111.1824999,-0.7391158200000001,12.07795464
0.11,11,-0.032,-0.968,0.28600000000000003,0.9740286,-1.8334656000000005,-0.057295800000000015,111.19395906,-0.73338624,12.0607659
0.12,12,-0.032,-0.9670000000000001,0.28800000000000003,1.0313244000000001,-1.9480572,0.0,111.20541822,-0.72765666,12.04357716
0.13,13,-0.034,-0.9640000000000001,0.29100000000000004,1.145916,-2.0053530000000004,0.0,111.21687738,-0.7161975,12.02638842
0.14,14,-0.034,-0.963,0.293,1.4896908000000002,-1.6042823999999998,-0.11459160000000004,111.23406612,-0.7104679199999999,12.00919968
0.15000000000000002,15,-0.035,-0.9640000000000001,0.292,1.7188740000000002,-1.4896908000000002,-0.2291832000000001,111.0965562,-0.7391158200000001,12.03784758
0.16,16,-0.033,-0.963,0.295,1.8334656000000005,-1.145916,-0.286479,111.11947452,-0.73338624,12.02638842
0.17,17,-0.032,-0.9640000000000001,0.29100000000000004,2.1199446,-0.8594370000000001,-0.286479,111.13666326,-0.72765666,12.02065884
0.18000000000000002,18,-0.033,-0.968,0.28800000000000003,2.4064236,-0.6875496,-0.286479,111.16531116000002,-0.72192708,12.01492926
0.19,19,-0.033,-0.9690000000000001,0.29100000000000004,2.4064236,-0.6302538000000001,-0.2291832000000001,111.18822948,-0.7161975,12.00919968
0.2,20,-0.032,-0.968,0.29,2.3491277999999998,-0.6302538000000001,-0.2291832000000001,111.06217872,-0.75057498,12.03784758
0.21000000000000002,21,-0.034,-0.968,0.287,2.291832,-0.8594370000000001,-0.40107059999999994,111.08509704,-0.7391158200000001,12.032117999999999
0.22,22,-0.036000000000000004,-0.9690000000000001,0.28800000000000003,2.1199446,-1.0886202,-0.5156622000000001,111.10801536,-0.73338624,12.02638842
0.23,23,-0.035,-0.973,0.29100000000000004,2.1772404,-1.2605076000000002,-0.5156622000000001,111.13093368,-0.72192708,12.01492926
0.24000000000000002,24,-0.036000000000000004,-0.972,0.292,2.1199446,-1.3178034,-0.4583664000000001,111.14812242,-0.7104679199999999,12.0034701
0.25,25,-0.037000000000000005,-0.973,0.294,2.0626488000000003,-1.3178034,-0.286479,111.01634208,-0.75057498,12.032117999999999
0.26,26,-0.04,-0.97,0.294,1.8334656000000005,-1.3178034,-0.2291832000000001,111.03353082,-0.7448454000000001,12.02065884
0.27,27,-0.04,-0.97,0.295,1.9480572,-1.2032118,-0.11459160000000004,111.05644914,-0.7391158200000001,12.00919968
0.28,28,-0.039,-0.9670000000000001,0.299,1.6615782,-1.0886202,-0.11459160000000004,111.07363788,-0.73338624,12.0034701
0.29000000000000004,29,-0.038,-0.965,0.294,1.7761698000000001,-0.7448454000000001,-0.1718874,111.09082662,-0.72765666,11.99774052
0.3,30,-0.037000000000000005,-0.965,0.292,1.9480572,-0.4583664000000001,-0.057295800000000015,110.90748005999998,-0.7792228800000001,12.03784758
0.31,31,-0.035,-0.966,0.29,2.0626488000000003,-0.2291832000000001,0.0,110.9246688,-0.7792228800000001,12.03784758
0.32,32,-0.034,-0.9670000000000001,0.29100000000000004,2.1772404,-0.286479,0.1718874,110.94758712,-0.7792228800000001,12.032117999999999
0.33,33,-0.035,-0.963,0.293,2.2345362,-0.286479,0.11459160000000004,110.97050543999998,-0.7792228800000001,12.032117999999999
0.34,34,-0.035,-0.96,0.298,2.4064236,-0.11459160000000004,-0.057295800000000015,110.99915334,-0.7792228800000001,12.02638842
0.35000000000000003,35,-0.033,-0.958,0.298,3.0366774,0.3437748,-0.40107059999999994,110.91893922,-0.8021412000000001,12.0607659
0.36000000000000004,36,-0.033,-0.961,0.294,3.4377480000000005,0.5156622000000001,-0.6875496,110.95331670000002,-0.79641162,12.06649548
0.37,37,-0.03,-0.9640000000000001,0.293,3.7242269999999995,0.4583664000000001,-0.6302538000000001,110.98769418,-0.7906820400000001,12.07222506
0.38,38,-0.026000000000000002,-0.965,0.295,3.5523396000000003,0.3437748,-0.572958,111.02780124,-0.7849524600000001,12.08368422
0.39,39,-0.026000000000000002,-0.963,0.295,3.5523396000000003,0.11459160000000004,-0.286479,111.06217872,-0.7849524600000001,12.08368422
0.4,40,-0.027000000000000003,-0.961,0.295,3.7242269999999995,0.11459160000000004,-0.286479,110.98769418,-0.8021412000000001,12.11233212
0.41000000000000003,41,-0.027999999999999997,-0.961,0.29600000000000004,3.6669312000000014,0.2291832000000001,-0.572958,111.02780124,-0.79641162,12.118061700000002
0.42000000000000004,42,-0.027000000000000003,-0.965,0.294,3.6096353999999997,0.0,-0.7448454000000001,111.06217872,-0.7906820400000001,12.118061700000002
0.43,43,-0.027999999999999997,-0.9690000000000001,0.29600000000000004,3.6096353999999997,-0.1718874,-0.6302538000000001,111.0965562,-0.7792228800000001,12.118061700000002
0.44,44,-0.026000000000000002,-0.9740000000000001,0.29600000000000004,3.7242269999999995,-0.057295800000000015,-0.4583664000000001,111.13666326,-0.7792228800000001,12.12379128
0.45,45,-0.024,-0.977,0.298,3.5523396000000003,-0.2291832000000001,-0.11459160000000004,111.05071956000002,-0.7906820400000001,12.1467096
0.46,46,-0.024,-0.977,0.299,2.9793816000000004,-0.7448454000000001,0.11459160000000004,111.07936746,-0.7906820400000001,12.14098002
0.47000000000000003,47,-0.024,-0.973,0.297,2.9220858,-1.0886202,0.2291832000000001,111.11374494,-0.7849524600000001,12.12952086
0.48000000000000004,48,-0.027999999999999997,-0.972,0.29600000000000004,3.0366774,-1.145916,0.11459160000000004,111.14239284,-0.7849524600000001,12.118061700000002
0.49,49,-0.03,-0.973,0.3,3.0366774,-1.0886202,0.0,111.17677032,-0.7792228800000001,12.11233212
0.5,50,-0.031,-0.97,0.303,2.9220858,-0.9740286,-0.11459160000000004,111.09082662,-0.79641162,12.12379128
0.51,51,-0.03,-0.966,0.302,2.7501984,-0.9740286,-0.057295800000000015,111.11947452,-0.7906820400000001,12.118061700000002
0.52,52,-0.03,-0.963,0.301,2.6929026,-1.0313244000000001,0.057295800000000015,111.14239284,-0.7906820400000001,12.10660254
0.53,53,-0.028999999999999998,-0.9640000000000001,0.298,2.5783110000000002,-1.145916,0.11459160000000004,111.17104074,-0.7849524600000001,12.09514338
0.54,54,-0.03,-0.9640000000000001,0.29600000000000004,2.4637194,-1.432395,0.11459160000000004,111.19968864,-0.7792228800000001,12.08368422
0.55,55,-0.031,-0.963,0.299,2.291832,-1.6042823999999998,0.1718874,111.10228578,-0.8021412000000001,12.09514338
0.56,56,-0.032,-0.9620000000000001,0.302,2.291832,-1.5469866,0.11459160000000004,111.1252041,-0.8021412000000001,12.07795464
0.5700000000000001,57,-0.033,-0.96,0.3,2.5783110000000002,-1.5469866,0.0,111.153852,-0.79641162,12.06649548
0.5800000000000001,58,-0.032,-0.9620000000000001,0.299,2.7501984,-1.6042823999999998,0.057295800000000015,111.1824999,-0.7906820400000001,12.049306740000002
0.59,59,-0.032,-0.9620000000000001,0.301,2.7501984,-1.7761698000000001,0.286479,111.21114779999999,-0.7849524600000001,12.032117999999999
0.6,60,-0.031,-0.963,0.302,2.6929026,-1.7761698000000001,0.286479,111.14239284,-0.8021412000000001,12.03784758
0.61,61,-0.033,-0.963,0.303,2.6929026,-1.7761698000000001,0.40107059999999994,111.17104074,-0.79641162,12.02065884
0.62,62,-0.033,-0.965,0.304,2.6929026,-1.8334656000000005,0.4583664000000001,111.19968864,-0.79641162,11.99774052
0.63,63,-0.034,-0.9670000000000001,0.308,2.5783110000000002,-1.8907614,0.4583664000000001,111.22833654000002,-0.7906820400000001,11.98055178
0.64,64,-0.033,-0.9640000000000001,0.308,2.5783110000000002,-1.8907614,0.572958,111.25125486000002,-0.7906820400000001,11.96336304
0.65,65,-0.032,-0.9640000000000001,0.308,2.6356068,-1.8334656000000005,0.572958,111.18822948,-0.8078707799999998,11.96336304
0.66,66,-0.032,-0.965,0.311,2.4064236,-1.7188740000000002,0.4583664000000001,111.21687738,-0.8078707799999998,11.946174300000001
0.67,67,-0.034,-0.9640000000000001,0.311,2.291832,-1.7761698000000001,0.5156622000000001,111.2397957,-0.8021412000000001,11.92898556
0.68,68,-0.034,-0.966,0.306,2.1772404,-1.7761698000000001,0.572958,111.26271402,-0.8021412000000001,11.91179682
0.6900000000000001,69,-0.035,-0.968,0.306,2.1199446,-1.6615782,0.6875496,111.28563233999998,-0.8021412000000001,11.8888785
0.7000000000000001,70,-0.034,-0.9690000000000001,0.308,1.8907614,-1.7188740000000002,0.572958,111.19395906,-0.8250595199999999,11.89460808
0.7100000000000001,71,-0.032,-0.9670000000000001,0.308,1.8907614,-1.9480572,0.4583664000000001,111.21687738,-0.8250595199999999,11.87741934
0.72,72,-0.03,-0.966,0.309,1.7761698000000001,-1.9480572,0.3437748,111.23406612,-0.8193299399999999,11.860230599999998
0.73,73,-0.03,-0.9690000000000001,0.311,1.7761698000000001,-2.1199446,0.2291832000000001,111.25125486000002,-0.8136003599999999,11.83731228
0.74,74,-0.032,-0.968,0.311,1.7188740000000002,-2.0626488000000003,0.2291832000000001,111.27417318,-0.8078707799999998,11.82012354
0.75,75,-0.031,-0.9670000000000001,0.309,1.7761698000000001,-2.0053530000000004,0.2291832000000001,111.17104074,-0.8250595199999999,11.82012354
0.76,76,-0.031,-0.966,0.308,1.6615782,-2.0053530000000004,0.286479,111.18822948,-0.8193299399999999,11.802934800000001
0.77,77,-0.032,-0.9640000000000001,0.309,1.4896908000000002,-2.1199446,0.286479,111.20541822,-0.8136003599999999,11.78001648
0.78,78,-0.032,-0.9620000000000001,0.31,1.3750992,-2.3491277999999998,0.286479,111.22260695999998,-0.8078707799999998,11.75709816
0.79,79,-0.032,-0.96,0.31,1.2032118,-2.5783110000000002,0.1718874,111.23406612,-0.8021412000000001,11.73417984
0.8,80,-0.032,-0.9590000000000001,0.314,1.0886202,-2.6356068,0.1718874,111.13666326,-0.8193299399999999,11.73417984
0.81,81,-0.031,-0.9570000000000001,0.315,1.145916,-2.3491277999999998,0.0,111.14812242,-0.8078707799999998,11.71126152
0.8200000000000001,82,-0.028999999999999998,-0.96,0.31,1.5469866,-2.0053530000000004,-0.057295800000000015,111.16531116000002,-0.8021412000000001,11.69407278
0.8300000000000001,83,-0.03,-0.9620000000000001,0.311,1.432395,-2.1772404,0.0,111.17677032,-0.79641162,11.67115446
0.8400000000000001,84,-0.032,-0.961,0.312,1.432395,-2.3491277999999998,0.11459160000000004,111.19395906,-0.7849524600000001,11.65396572
0.85,85,-0.033,-0.961,0.311,1.5469866,-2.2345362,0.057295800000000015,111.10228578,-0.8078707799999998,11.65396572
0.86,86,-0.034,-0.961,0.309,1.6615782,-2.1199446,0.0,111.11947452,-0.79641162,11.63677698
0.87,87,-0.035,-0.9620000000000001,0.312,1.7761698000000001,-2.1772404,0.0,111.14239284,-0.7849524600000001,11.613858660000002
0.88,88,-0.035,-0.9620000000000001,0.311,1.6042823999999998,-2.3491277999999998,-0.057295800000000015,111.15958158,-0.7792228800000001,11.59094034
0.89,89,-0.034,-0.961,0.31,1.7188740000000002,-2.291832,-0.057295800000000015,111.17677032,-0.76776372,11.5737516
0.9,90,-0.033,-0.963,0.312,1.7761698000000001,-2.2345362,0.0,111.08509704,-0.7849524600000001,11.5737516
0.91,91,-0.033,-0.961,0.312,1.7188740000000002,-2.1199446,0.0,111.10801536,-0.7792228800000001,11.55656286
0.92,92,-0.033,-0.9620000000000001,0.311,1.7761698000000001,-2.0626488000000003,0.0,111.1252041,-0.76776372,11.53364454
0.93,93,-0.033,-0.965,0.308,1.7761698000000001,-1.8334656000000005,0.0,111.14239284,-0.76203414,11.516455800000001
0.9400000000000001,94,-0.034,-0.968,0.308,1.7188740000000002,-1.8334656000000005,0.11459160000000004,111.15958158,-0.75630456,11.49926706
0.9500000000000001,95,-0.034,-0.966,0.308,1.6615782,-1.9480572,0.2291832000000001,111.06217872,-0.7792228800000001,11.50499664
0.9600000000000001,96,-0.034,-0.966,0.309,1.6615782,-2.0053530000000004,0.1718874,111.07936746,-0.7734933,11.4878079
0.97,97,-0.033,-0.966,0.31,1.4896908000000002,-1.7761698000000001,0.057295800000000015,111.09082662,-0.76776372,11.470619159999998
0.98,98,-0.032,-0.965,0.307,1.3178034,-1.7188740000000002,-0.057295800000000015,111.10801536,-0.76203414,11.45343042
0.99,99,-0.031,-0.965,0.307,1.2032118,-1.7761698000000001,-0.057295800000000015,111.11947452,-0.75630456,11.44197126
1.0,100,-0.031,-0.966,0.307,1.0313244000000001,-1.7188740000000002,-0.1718874,110.9819646,-0.7792228800000001,11.45343042
1.01,101,-0.031,-0.965,0.307,1.0313244000000001,-1.7761698000000001,-0.11459160000000004,110.99342376,-0.76776372,11.43624168
1.02,102,-0.031,-0.966,0.308,0.9167328000000001,-1.7761698000000001,-0.11459160000000004,111.00488292,-0.76203414,11.42478252
1.03,103,-0.033,-0.965,0.31,-0.1718874,-0.11459160000000004,-0.1718874,110.99915334,-0.75630456,11.42478252
1.04,104,-0.03,-0.963,0.311,-0.40107059999999994,0.7448454000000001,-0.286479,110.99342376,-0.75630456,11.4305121
1.05,105,-0.027999999999999997,-0.963,0.307,-0.2291832000000001,1.145916,-0.40107059999999994,110.77569972,-0.7906820400000001,11.48207832
1.06,106,-0.027000000000000003,-0.9640000000000001,0.306,-0.2291832000000001,1.0313244000000001,-0.4583664000000001,110.77569972,-0.7906820400000001,11.49353748
1.07,107,-0.028999999999999998,-0.965,0.305,-0.286479,0.6302538000000001,-0.3437748,110.76997013999998,-0.7906820400000001,11.50499664
1.08,108,-0.027999999999999997,-0.966,0.306,-0.286479,0.6875496,-0.2291832000000001,110.76424056,-0.7906820400000001,11.51072622
1.09,109,-0.026000000000000002,-0.965,0.307,-0.4583664000000001,0.7448454000000001,-0.11459160000000004,110.75851098,-0.7906820400000001,11.516455800000001
1.1,110,-0.026000000000000002,-0.96,0.302,-0.5156622000000001,0.6875496,-0.11459160000000004,110.42046576,-0.83651868,11.58521076
1.11,111,-0.026000000000000002,-0.96,0.304,-0.5156622000000001,0.40107059999999994,0.057295800000000015,110.41473618,-0.8422482600000001,11.59094034
1.12,112,-0.027000000000000003,-0.961,0.31,-0.8594370000000001,0.11459160000000004,0.057295800000000015,110.40327702,-0.8422482600000001,11.59094034
1.1300000000000001,113,-0.027000000000000003,-0.96,0.314,-0.8594370000000001,0.1718874,0.057295800000000015,110.39754744,-0.8422482600000001,11.59094034
1.1400000000000001,114,-0.024,-0.96,0.31,-0.2291832000000001,0.4583664000000001,0.11459160000000004,110.39181786,-0.8479778399999999,11.59666992
1.1500000000000001,115,-0.023,-0.9670000000000001,0.31,-0.11459160000000004,0.6302538000000001,0.2291832000000001,110.19128256,-0.86516658,11.63677698
1.1600000000000001,116,-0.024,-0.9690000000000001,0.315,-0.4583664000000001,0.40107059999999994,0.40107059999999994,110.18555298,-0.87089616,11.63677698
1.17,117,-0.024,-0.963,0.315,-0.572958,0.1718874,0.4583664000000001,110.17982340000002,-0.87662574,11.63677698
1.18,118,-0.024,-0.9620000000000001,0.317,-0.572958,0.2291832000000001,0.286479,110.17409381999998,-0.8823553199999999,11.64250656
1.19,119,-0.026000000000000002,-0.963,0.318,-0.5156622000000001,0.3437748,0.1718874,110.16836424,-0.8880849000000001,11.64250656
1.2,120,-0.027999999999999997,-0.9640000000000001,0.318,-0.40107059999999994,0.5156622000000001,0.1718874,109.9506402,-0.92819196,11.688343199999998
1.21,121,-0.027999999999999997,-0.966,0.316,-0.40107059999999994,0.8021411999999999,0.2291832000000001,109.94491062,-0.93392154,11.69407278
1.22,122,-0.027999999999999997,-0.9670000000000001,0.311,-0.40107059999999994,0.8021411999999999,0.4583664000000001,109.94491062,-0.93965112,11.699802359999998
1.23,123,-0.028999999999999998,-0.966,0.309,-0.3437748,0.4583664000000001,0.4583664000000001,109.93918104,-0.9453807,11.699802359999998
1.24,124,-0.028999999999999998,-0.9670000000000001,0.307,-0.3437748,0.40107059999999994,0.286479,109.93345146,-0.95111028,11.70553194
1.25,125,-0.03,-0.965,0.309,-0.5156622000000001,0.057295800000000015,0.3437748,109.6928091,-1.00840608,11.75136858
1.26,126,-0.031,-0.961,0.316,-0.7448454000000001,-0.057295800000000015,0.3437748,109.68134994,-1.00840608,11.745639
1.27,127,-0.034,-0.958,0.318,-0.8021411999999999,0.0,0.3437748,109.67562036,-1.01413566,11.745639
1.28,128,-0.035,-0.958,0.32,-0.8021411999999999,0.057295800000000015,0.286479,109.6641612,-1.01413566,11.745639
1.29,129,-0.037000000000000005,-0.9590000000000001,0.322,-0.7448454000000001,0.2291832000000001,0.2291832000000001,109.65843162,-1.01986524,11.745639
1.3,130,-0.033,-0.9640000000000001,0.32,-0.5156622000000001,0.4583664000000001,0.40107059999999994,109.50373295999998,-1.06570188,11.78001648
1.31,131,-0.03,-0.972,0.307,-0.572958,0.8594370000000001,0.40107059999999994,109.49800338,-1.07716104,11.78574606
1.32,132,-0.026000000000000002,-0.983,0.298,-0.8594370000000001,0.7448454000000001,0.5156622000000001,109.48654422,-1.08289062,11.791475639999998
1.33,133,-0.025,-0.988,0.297,-1.7188740000000002,0.4583664000000001,0.5156622000000001,109.46935548000002,-1.0886202,11.791475639999998
1.34,134,-0.027000000000000003,-0.978,0.297,-2.0053530000000004,-0.286479,0.3437748,109.44643716,-1.09434978,11.78574606
1.35,135,-0.03,-0.97,0.302,-2.2345362,-0.8021411999999999,0.3437748,109.34903429999999,-1.10580894,11.791475639999998
1.36,136,-0.034,-0.9640000000000001,0.312,-2.2345362,-0.7448454000000001,0.286479,109.32611597999998,-1.10580894,11.78574606
1.37,137,-0.034,-0.9570000000000001,0.31,-2.291832,-0.3437748,0.057295800000000015,109.30319766,-1.10580894,11.78001648
1.3800000000000001,138,-0.031,-0.9540000000000001,0.303,-1.8907614,0.11459160000000004,-0.057295800000000015,109.28600892,-1.10580894,11.78001648
1.3900000000000001,139,-0.027000000000000003,-0.958,0.298,-1.8334656000000005,0.11459160000000004,-0.057295800000000015,109.2630906,-1.10580894,11.78001648
1.4000000000000001,140,-0.026000000000000002,-0.961,0.297,-2.4064236,-0.2291832000000001,0.0,109.15995816,-1.11153852,11.79720522
1.4100000000000001,141,-0.025,-0.96,0.297,-2.86479,-0.6302538000000001,-0.057295800000000015,109.12558068,-1.10580894,11.78574606
1.42,142,-0.026000000000000002,-0.96,0.298,-3.0939732,-0.9740286,-0.1718874,109.09693278,-1.10007936,11.78001648
1.43,143,-0.028999999999999998,-0.961,0.299,-3.2658606,-1.0886202,-0.2291832000000001,109.0625553,-1.09434978,11.76855732
1.44,144,-0.031,-0.963,0.3,-3.3231564,-1.0886202,-0.286479,109.02817782,-1.0886202,11.75709816
1.45,145,-0.03,-0.963,0.304,-3.2658606,-0.9167328000000001,-0.2291832000000001,108.94796370000002,-1.0886202,11.75709816
1.46,146,-0.027000000000000003,-0.961,0.306,-3.380452200000001,-0.8594370000000001,-0.057295800000000015,108.91358622,-1.08289062,11.75136858
1.47,147,-0.027999999999999997,-0.958,0.31,-3.2085647999999996,-0.6875496,-0.1718874,108.87920874,-1.08289062,11.745639
1.48,148,-0.03,-0.9590000000000001,0.311,-3.2085647999999996,-0.8594370000000001,-0.1718874,108.85056084,-1.07716104,11.73417984
1.49,149,-0.03,-0.9620000000000001,0.31,-3.1512689999999997,-1.0313244000000001,-0.1718874,108.81618336,-1.07143146,11.72845026
1.5,150,-0.027999999999999997,-0.968,0.307,-3.0939732,-1.145916,-0.057295800000000015,108.74169881999998,-1.07143146,11.722720679999998
1.51,151,-0.026000000000000002,-0.972,0.305,-3.0939732,-1.3178034,0.11459160000000004,108.71305092,-1.06570188,11.71126152
1.52,152,-0.024,-0.9740000000000001,0.304,-3.4950437999999995,-1.6042823999999998,0.2291832000000001,108.67867343999998,-1.06570188,11.69407278
1.53,153,-0.026000000000000002,-0.9690000000000001,0.312,-3.380452200000001,-1.5469866,0.286479,108.64429596,-1.0599723,11.67688404
1.54,154,-0.027000000000000003,-0.966,0.312,-3.0939732,-1.0886202,0.11459160000000004,108.60991848,-1.0599723,11.66542488
1.55,155,-0.027000000000000003,-0.9670000000000001,0.307,-2.7501984,-0.7448454000000001,0.057295800000000015,108.53543394,-1.06570188,11.66542488
1.56,156,-0.027000000000000003,-0.968,0.309,-2.9793816000000004,-0.6302538000000001,0.1718874,108.50678604,-1.06570188,11.6596953
1.57,157,-0.028999999999999998,-0.9670000000000001,0.308,-2.9793816000000004,-0.5156622000000001,0.286479,108.47240856,-1.06570188,11.65396572
1.58,158,-0.03,-0.9670000000000001,0.304,-2.86479,-0.1718874,0.286479,108.44376066,-1.07143146,11.64823614
1.59,159,-0.028999999999999998,-0.971,0.299,-3.0366774,0.11459160000000004,0.286479,108.41511276,-1.07143146,11.64823614
1.6,160,-0.028999999999999998,-0.973,0.297,-3.2085647999999996,0.11459160000000004,0.286479,108.31770990000001,-1.08289062,11.6596953
1.61,161,-0.027999999999999997,-0.973,0.295,-3.3231564,0.0,0.2291832000000001,108.28333242,-1.08289062,11.6596953
1.62,162,-0.027999999999999997,-0.972,0.29600000000000004,-3.380452200000001,0.057295800000000015,0.2291832000000001,108.24895494,-1.0886202,11.6596953
1.6300000000000001,163,-0.03,-0.97,0.29600000000000004,-3.4950437999999995,0.0,0.3437748,108.21457746000002,-1.09434978,11.6596953
1.6400000000000001,164,-0.031,-0.97,0.293,-3.4950437999999995,0.0,0.4583664000000001,108.18019998,-1.09434978,11.65396572
1.6500000000000001,165,-0.033,-0.971,0.29,-3.5523396000000003,0.057295800000000015,0.572958,108.0885267,-1.1172681,11.66542488
1.6600000000000001,166,-0.034,-0.973,0.29100000000000004,-3.6096353999999997,0.286479,0.8021411999999999,108.05414922,-1.12299768,11.6596953
1.6700000000000002,167,-0.033,-0.9740000000000001,0.28800000000000003,-3.7815228,0.4583664000000001,0.8021411999999999,108.01404216,-1.13445684,11.66542488
1.68,168,-0.032,-0.975,0.285,-4.0680017999999984,0.6302538000000001,0.8021411999999999,107.9739351,-1.1459160000000002,11.66542488
1.69,169,-0.03,-0.9740000000000001,0.284,-4.297185,0.7448454000000001,0.8021411999999999,107.92809846,-1.15164558,11.67115446
1.7,170,-0.028999999999999998,-0.973,0.28,-4.4690724,0.6302538000000001,0.8021411999999999,107.83642518000002,-1.1688343199999998,11.68261362
1.71,171,-0.027999999999999997,-0.975,0.28,-4.3544808,0.40107059999999994,0.8594370000000001,107.79631812,-1.18029348,11.68261362
1.72,172,-0.026000000000000002,-0.975,0.27699999999999997,-4.6982555999999995,0.2291832000000001,0.9167328000000001,107.7447519,-1.18602306,11.68261362
1.73,173,-0.025,-0.973,0.27699999999999997,-4.9847346,0.0,1.0313244000000001,107.69318567999998,-1.19748222,11.67688404
1.74,174,-0.026000000000000002,-0.97,0.27699999999999997,-5.042030400000002,-0.286479,1.0886202,107.64161946,-1.20894138,11.67115446
1.75,175,-0.026000000000000002,-0.9690000000000001,0.27699999999999997,-5.2139178,-0.572958,1.0886202,107.55567576,-1.22040054,11.66542488
1.76,176,-0.028999999999999998,-0.9690000000000001,0.278,-5.2712136,-0.6875496,1.0313244000000001,107.50410954000002,-1.22613012,11.6596953
1.77,177,-0.028999999999999998,-0.971,0.276,-5.5003968,-1.0313244000000001,0.9740286,107.44681374,-1.2318597,11.64250656
1.78,178,-0.03,-0.9740000000000001,0.275,-6.0733548,-1.8907614,0.9740286,107.38378836,-1.23758928,11.61958824
1.79,179,-0.03,-0.9740000000000001,0.276,-6.990087599999999,-3.2658606,1.3178034,107.3150334,-1.23758928,11.58521076
1.8,180,-0.032,-0.971,0.282,-6.9327918,-3.8961144,1.432395,107.23481928,-1.24331886,11.545103700000002
1.81,181,-0.03,-0.971,0.29,-6.875496000000001,-3.6096353999999997,1.5469866,107.16606432,-1.24331886,11.50499664
1.82,182,-0.027000000000000003,-0.9690000000000001,0.284,-6.3598338,-3.1512689999999997,1.5469866,107.09730936,-1.24904844,11.470619159999998
1.83,183,-0.024,-0.971,0.281,-6.0733548,-2.7501984,1.5469866,107.04001356,-1.2605076000000002,11.43624168
1.84,184,-0.022000000000000002,-0.972,0.282,-5.958763200000001,-2.7501984,1.5469866,106.97698818,-1.26623718,11.40759378
1.85,185,-0.026000000000000002,-0.9740000000000001,0.27899999999999997,-5.443101,-2.6929026,1.4896908000000002,106.90250364,-1.27196676,11.37894588
1.86,186,-0.031,-0.978,0.27699999999999997,-4.9847346,-2.4637194,1.4896908000000002,106.856667,-1.27769634,11.35029798
1.87,187,-0.033,-0.9790000000000001,0.27899999999999997,-4.8128472,-2.1199446,1.5469866,106.80510078,-1.2891555,11.327379660000002
1.8800000000000001,188,-0.035,-0.975,0.285,-4.6409598,-1.8907614,1.432395,106.75926414,-1.29488508,11.30446134
1.8900000000000001,189,-0.033,-0.972,0.28300000000000003,-4.1825934,-1.2032118,1.3178034,106.71915708000002,-1.30634424,11.2872726
1.9000000000000001,190,-0.03,-0.973,0.278,-3.8388186,-0.7448454000000001,1.2605076000000002,106.64467254,-1.3178034,11.28154302
1.9100000000000001,191,-0.028999999999999998,-0.975,0.273,-3.7815228,-0.4583664000000001,1.432395,106.61029506,-1.32926256,11.27008386
1.9200000000000002,192,-0.03,-0.975,0.268,-3.6669312000000014,-0.286479,1.6042823999999998,106.57018799999999,-1.3464512999999998,11.26435428
1.93,193,-0.033,-0.972,0.268,-3.7815228,-0.40107059999999994,1.6615782,106.53581052,-1.3579104599999998,11.25289512
1.94,194,-0.034,-0.9670000000000001,0.266,-3.6669312000000014,-0.40107059999999994,1.432395,106.49570346,-1.36936962,11.24716554
1.95,195,-0.036000000000000004,-0.968,0.263,-3.6096353999999997,-0.4583664000000001,1.2032118,106.41548934,-1.39228794,11.24716554
1.96,196,-0.035,-0.972,0.261,-3.4377480000000005,-0.3437748,0.9740286,106.38111186,-1.39801752,11.23570638
1.97,197,-0.037000000000000005,-0.972,0.262,-3.380452200000001,-0.286479,0.8021411999999999,106.34673438,-1.4037471000000001,11.229976800000001
1.98,198,-0.039,-0.9690000000000001,0.265,-3.0939732,0.0,0.5156622000000001,106.31808648,-1.40947668,11.229976800000001
1.99,199,-0.038,-0.97,0.264,-2.6356068,0.5156622000000001,0.3437748,106.28943858,-1.41520626,11.23570638
2.0,200,-0.038,-0.973,0.26,-2.5210152000000003,0.572958,0.286479,106.20349488000002,-1.43812458,11.24716554
2.01,201,-0.04,-0.977,0.264,-2.7501984,0.6875496,0.5156622000000001,106.17484697999998,-1.44385416,11.25289512
2.02,202,-0.039,-0.975,0.266,-2.6929026,1.0886202,0.4583664000000001,106.14619908,-1.44958374,11.26435428
2.03,203,-0.039,-0.98,0.259,-2.7501984,1.2032118,0.5156622000000001,106.11755118,-1.4610428999999998,11.27008386
2.04,204,-0.04,-0.987,0.255,-3.1512689999999997,1.0886202,0.6302538000000001,106.08890328,-1.47250206,11.28154302
2.05,205,-0.04,-0.9890000000000001,0.254,-3.6096353999999997,1.0313244000000001,0.6875496,106.00295958,-1.4896908000000002,11.29300218
2.0599999999999996,206,-0.040999999999999995,-0.9890000000000001,0.252,-3.8388186,0.9167328000000001,0.6302538000000001,105.96285252,-1.50114996,11.30446134
2.07,207,-0.042,-0.986,0.252,-4.1825934,0.7448454000000001,0.5156622000000001,105.92274546,-1.50687954,11.30446134
2.0799999999999996,208,-0.043,-0.9840000000000001,0.253,-4.1825934,0.6302538000000001,0.3437748,105.87690882,-1.51260912,11.31019092
2.09,209,-0.044000000000000004,-0.982,0.257,-4.3544808,0.8021411999999999,0.1718874,105.83107218,-1.5183387000000002,11.3159205
2.0999999999999996,210,-0.042,-0.982,0.256,-4.3544808,1.2032118,0.2291832000000001,105.75658764,-1.52979786,11.33310924
2.11,211,-0.038,-0.98,0.257,-4.583664,1.2605076000000002,0.057295800000000015,105.70502142,-1.53552744,11.3445684
2.1199999999999997,212,-0.036000000000000004,-0.977,0.255,-4.7555514,1.0886202,0.057295800000000015,105.65918478,-1.5412570200000002,11.35602756
2.13,213,-0.034,-0.978,0.253,-4.9274388,0.8594370000000001,0.057295800000000015,105.60761856,-1.5469866,11.36175714
2.1399999999999997,214,-0.033,-0.978,0.255,-5.1566220000000005,0.8594370000000001,0.0,105.55605234,-1.5469866,11.3732163
2.15,215,-0.035,-0.978,0.254,-5.3285094000000015,1.0313244000000001,-0.2291832000000001,105.47010864,-1.5527161800000002,11.38467546
2.1599999999999997,216,-0.034,-0.982,0.25,-5.443101,1.0886202,-0.286479,105.41281284,-1.5527161800000002,11.396134620000002
2.17,217,-0.035,-0.982,0.24600000000000002,-5.6722842,0.9167328000000001,-0.40107059999999994,105.35551704000002,-1.5527161800000002,11.40759378
2.1799999999999997,218,-0.035,-0.982,0.245,-5.844171599999999,0.8021411999999999,-0.3437748,105.29249166,-1.5527161800000002,11.41332336
2.19,219,-0.035,-0.981,0.24600000000000002,-6.0733548,0.7448454000000001,-0.4583664000000001,105.23519586,-1.5469866,11.41905294
2.1999999999999997,220,-0.038,-0.9790000000000001,0.25,-6.1879464,0.572958,-0.4583664000000001,105.14352258,-1.5527161800000002,11.4305121
2.21,221,-0.037000000000000005,-0.976,0.258,-6.130650599999999,0.8021411999999999,-0.572958,105.08622678000002,-1.5469866,11.44197126
2.2199999999999998,222,-0.036000000000000004,-0.976,0.252,-6.0733548,1.0886202,-0.8021411999999999,105.0232014,-1.5412570200000002,11.45343042
2.23,223,-0.035,-0.98,0.249,-6.5317212,0.8594370000000001,-0.9167328000000001,104.95444644,-1.53552744,11.45916
2.2399999999999998,224,-0.034,-0.982,0.252,-6.990087599999999,0.572958,-0.8021411999999999,104.87996189999998,-1.52979786,11.470619159999998
2.25,225,-0.033,-0.981,0.252,-7.161975,0.286479,-0.6875496,104.78828862,-1.52406828,11.47634874
2.26,226,-0.033,-0.983,0.247,-7.448453999999999,0.2291832000000001,-0.7448454000000001,104.71380408,-1.5183387000000002,11.47634874
2.27,227,-0.033,-0.986,0.248,-7.6776372,0.1718874,-0.9740286,104.63358996,-1.51260912,11.48207832
2.28,228,-0.034,-0.9890000000000001,0.247,-7.906820400000001,0.3437748,-1.145916,104.55337584000002,-1.50114996,11.4878079
2.29,229,-0.036000000000000004,-0.991,0.244,-8.136003599999999,0.286479,-1.145916,104.47316172,-1.4896908000000002,11.49353748
2.3,230,-0.038,-0.993,0.244,-8.59437,0.1718874,-1.2605076000000002,104.37002928,-1.48396122,11.49926706
2.31,231,-0.039,-0.993,0.244,-9.1100322,0.3437748,-1.2605076000000002,104.278356,-1.47250206,11.50499664
2.32,232,-0.039,-0.992,0.244,-9.396511199999999,0.2291832000000001,-1.3750992,104.18095314,-1.4610428999999998,11.51072622
2.3299999999999996,233,-0.038,-0.991,0.245,-9.8548776,0.286479,-1.432395,104.0778207,-1.44958374,11.516455800000001
2.34,234,-0.038,-0.991,0.242,-10.313244000000001,0.40107059999999994,-1.432395,103.97468826,-1.432395,11.52218538
2.3499999999999996,235,-0.037000000000000005,-0.9940000000000001,0.23800000000000002,-10.7716104,0.5156622000000001,-1.3750992,103.85436708,-1.42666542,11.52791496
2.36,236,-0.034,-0.9940000000000001,0.23600000000000002,-11.3445684,0.40107059999999994,-1.4896908000000002,103.7340459,-1.41520626,11.53364454
2.3699999999999997,237,-0.034,-0.995,0.233,-12.0894138,0.11459160000000004,-1.4896908000000002,103.61372472,-1.39801752,11.53937412
2.38,238,-0.034,-0.993,0.235,-12.4331886,0.057295800000000015,-1.5469866,103.48767396,-1.38655836,11.53937412
2.3899999999999997,239,-0.035,-0.995,0.233,-12.776963400000001,0.057295800000000015,-1.6042823999999998,103.35589362,-1.36936962,11.545103700000002
2.4,240,-0.033,-0.9940000000000001,0.22699999999999998,-13.2926256,0.0,-1.7188740000000002,103.21265412,-1.35218088,11.55083328
2.4099999999999997,241,-0.032,-0.995,0.222,-13.8082878,0.0,-1.7761698000000001,103.06941462,-1.34072172,11.55083328
2.42,242,-0.032,-0.997,0.221,-14.438541599999999,-0.2291832000000001,-1.8334656000000005,102.92617512,-1.3178034,11.55083328
2.4299999999999997,243,-0.031,-0.995,0.223,-15.011499599999999,-0.4583664000000001,-1.8334656000000005,102.77147646,-1.30061466,11.55083328
2.44,244,-0.03,-0.996,0.21899999999999997,-15.2406828,-0.5156622000000001,-1.8907614,102.6167778,-1.28342592,11.545103700000002
2.4499999999999997,245,-0.03,-0.996,0.218,-15.6990492,-0.6302538000000001,-2.0053530000000004,102.45061998,-1.2605076000000002,11.53937412
2.46,246,-0.03,-0.9940000000000001,0.217,-16.2147114,-0.9167328000000001,-2.1199446,102.28446216,-1.24331886,11.53364454
2.4699999999999998,247,-0.028999999999999998,-0.9940000000000001,0.214,-16.501190400000002,-1.0886202,-2.3491277999999998,102.11830434,-1.21467096,11.52791496
2.48,248,-0.027999999999999997,-0.9990000000000001,0.20600000000000002,-17.131444199999994,-0.9740286,-2.4637194,101.94641694,-1.19175264,11.52218538
2.4899999999999998,249,-0.027999999999999997,-1.002,0.20199999999999999,-17.9335854,-1.3750992,-2.4064236,101.76307038,-1.16310474,11.51072622
2.5,250,-0.027999999999999997,-0.9990000000000001,0.205,-18.277360199999997,-1.7761698000000001,-2.5783110000000002,101.57399424000002,-1.13445684,11.49926706
2.51,251,-0.028999999999999998,-0.9990000000000001,0.204,-18.7357266,-1.8334656000000005,-2.7501984,101.3849181,-1.10580894,11.48207832
2.52,252,-0.027999999999999997,-1.002,0.196,-19.308684600000007,-1.6615782,-2.86479,101.1843828,-1.07716104,11.470619159999998
2.53,253,-0.025,-1.002,0.193,-20.1108258,-1.5469866,-2.8074942000000003,100.9838475,-1.04851314,11.45916
2.54,254,-0.023,-1.001,0.187,-20.7410796,-1.6042823999999998,-2.86479,100.77185304,-1.01413566,11.44197126
2.55,255,-0.02,-1.0,0.18600000000000005,-21.4286292,-1.7761698000000001,-3.0366774,100.54839942,-0.97975818,11.4305121
2.56,256,-0.022000000000000002,-0.9990000000000001,0.19,-21.886995600000002,-2.0626488000000003,-3.0366774,100.33067538,-0.95111028,11.41332336
2.57,257,-0.024,-0.9990000000000001,0.191,-22.058882999999998,-2.2345362,-3.1512689999999997,100.10722176,-0.9167328,11.396134620000002
2.5799999999999996,258,-0.027999999999999997,-1.004,0.187,-22.4026578,-2.5783110000000002,-3.2085647999999996,99.87803856,-0.8823553199999999,11.3732163
2.59,259,-0.028999999999999998,-1.0090000000000001,0.18899999999999997,-23.14750320000001,-2.9220858,-3.2085647999999996,99.64312578,-0.8422482600000001,11.3445684
2.5999999999999996,260,-0.027999999999999997,-1.01,0.184,-23.777757,-2.7501984,-3.2085647999999996,99.40248342,-0.8078707799999998,11.32165008
2.61,261,-0.027000000000000003,-1.012,0.17800000000000002,-24.4080108,-2.7501984,-3.3231564,99.15611148,-0.7734933,11.29873176
2.6199999999999997,262,-0.024,-1.011,0.174,-24.923673,-2.5210152000000003,-3.4377480000000005,98.90400996,-0.73338624,11.27581344
2.63,263,-0.023,-1.01,0.172,-25.496631,-2.3491277999999998,-3.6096353999999997,98.64617886,-0.69900876,11.25289512
2.6399999999999997,264,-0.023,-1.011,0.16699999999999998,-26.1268848,-2.1199446,-3.8388186,98.3768886,-0.6589017,11.23570638
2.65,265,-0.022000000000000002,-1.01,0.161,-26.814434400000003,-1.8334656000000005,-4.0680017999999984,98.10759834,-0.61879464,11.21851764
2.6599999999999997,266,-0.024,-1.01,0.156,-27.559279800000002,-1.5469866,-4.297185,97.82684892,-0.5729580000000001,11.20705848
2.67,267,-0.027000000000000003,-1.0070000000000001,0.153,-28.2468294,-1.2605076000000002,-4.583664,97.54036992,-0.52712136,11.19559932
2.6799999999999997,268,-0.023,-1.006,0.154,-28.81978740000001,-1.145916,-4.6982555999999995,97.24816134,-0.48128472,11.18986974
2.69,269,-0.02,-1.0070000000000001,0.147,-29.507337,-1.4896908000000002,-4.6982555999999995,96.94449360000002,-0.43544808,11.172680999999999
2.6999999999999997,270,-0.021,-1.0090000000000001,0.142,-30.3094782,-2.0626488000000003,-4.6409598,96.64082586,-0.38961144,11.15549226
2.71,271,-0.023,-1.0070000000000001,0.141,-30.997027799999998,-2.5783110000000002,-4.4690724,96.32569896,-0.3437748,11.13257394
2.7199999999999998,272,-0.021,-1.006,0.13699999999999998,-31.51269000000001,-2.5210152000000003,-4.4690724,96.00484248,-0.29793816,11.109655620000002
2.73,273,-0.022000000000000002,-1.011,0.12300000000000001,-32.142943800000005,-2.1772404,-4.6982555999999995,95.67825642,-0.25210152,11.086737300000001
2.7399999999999998,274,-0.021,-1.018,0.11900000000000001,-33.3461556,-1.6042823999999998,-4.8128472,95.34021120000001,-0.20053530000000008,11.06954856
2.75,275,-0.021,-1.021,0.11599999999999999,-34.66395900000001,-1.2605076000000002,-5.0993262,94.99070682,-0.15469866,11.0580894
2.76,276,-0.022000000000000002,-1.021,0.10800000000000001,-35.7525792,-0.6302538000000001,-5.3285094000000015,94.62401369999999,-0.10313244,11.05235982
2.77,277,-0.025,-1.02,0.099,-36.6120162,0.057295800000000015,-5.6149884000000005,94.251591,-0.05156622,11.05235982
2.78,278,-0.025,-1.022,0.096,-37.586044799999996,0.7448454000000001,-6.0160589999999985,93.87343872,0.0,11.06381898
2.79,279,-0.023,-1.023,0.094,-38.67466500000001,1.145916,-6.2452422,93.4780977,0.057295800000000015,11.07527814
2.8,280,-0.021,-1.024,0.092,-39.9924684,1.145916,-6.3598338,93.07129752,0.11459160000000003,11.086737300000001
2.81,281,-0.017,-1.022,0.084,-41.19568020000001,1.5469866,-6.2452422,92.65303818,0.1718874,11.09819646
2.82,282,-0.013000000000000001,-1.026,0.07,-42.398892,2.2345362,-6.3025379999999975,92.22331968,0.22918320000000006,11.12111478
2.8299999999999996,283,-0.011000000000000001,-1.0290000000000001,0.062,-44.117765999999996,2.4064236,-6.1879464,91.77641244,0.28647900000000004,11.13830352
2.84,284,-0.01,-1.03,0.05,-45.4928652,2.3491277999999998,-6.130650599999999,91.31231646,0.3437748,11.16122184
2.8499999999999996,285,-0.013000000000000001,-1.0290000000000001,0.047,-47.0971476,1.7761698000000001,-6.0160589999999985,90.83676132,0.4010706000000001,11.172680999999999
2.86,286,-0.015,-1.024,0.048,-48.6441342,1.432395,-6.0733548,90.34401744,0.4526368200000001,11.18414016
2.8699999999999997,287,-0.018000000000000002,-1.018,0.036000000000000004,-50.0192334,1.5469866,-6.3025379999999975,89.83408482,0.5099326200000001,11.19559932
2.88,288,-0.02,-1.023,0.027999999999999997,-51.33703679999999,2.2345362,-6.6463128000000005,89.31269304,0.5729580000000001,11.20705848
2.8899999999999997,289,-0.017,-1.024,0.023,-53.0559108,2.9793816000000004,-7.1046792000000005,88.77411251999996,0.64171296,11.229976800000001
2.9,290,-0.018000000000000002,-1.021,0.017,-54.6028974,3.2658606,-7.5630456000000015,88.22407283999998,0.7104679199999999,11.258624699999999
2.9099999999999997,291,-0.022000000000000002,-1.016,0.017,-56.264475600000004,3.6669312000000014,-7.7922288,87.65111484,0.7792228800000001,11.2872726
2.92,292,-0.019,-1.013,0.01,-57.52498320000001,5.042030400000002,-8.078707799999998,87.06669767999998,0.8594370000000001,11.327379660000002
2.9299999999999997,293,-0.01,-1.016,-0.005,-58.78549079999999,6.5317212,-8.193299399999999,86.47082136,0.93392154,11.37894588
2.94,294,0.006,-1.022,-0.006999999999999999,-60.5616606,6.9327918,-7.906820400000001,85.85202672,1.01413566,11.43624168
2.9499999999999997,295,0.023,-1.0170000000000001,-0.017,-61.994055599999996,5.9014674000000005,-7.2765666,85.2275025,1.08289062,11.48207832
2.96,296,0.026000000000000002,-1.01,-0.022000000000000002,-63.5410422,4.4117766,-6.990087599999999,84.58005996,1.15164558,11.51072622
2.9699999999999998,297,0.012,-1.001,-0.032,-65.7755784,3.6669312000000014,-7.5057497999999985,83.91542868,1.22040054,11.53364454
2.98,298,0.001,-1.006,-0.034,-67.7236356,3.4950437999999995,-8.7662574,83.22787908000002,1.30634424,11.55083328
2.9899999999999998,299,0.002,-1.0090000000000001,-0.025,-70.07276340000001,2.5210152000000003,-9.167328,82.51741116,1.39228794,11.562292439999998
3.0,300,0.003,-1.0,-0.032,-71.39056679999999,1.8334656000000005,-8.880849000000003,81.79548408,1.47250206,11.55656286
3.01,301,0.0,-0.992,-0.044000000000000004,-72.76566600000002,2.6929026,-8.651665800000002,81.05636826,1.5527161800000002,11.56802202
3.02,302,-0.006,-0.995,-0.05,-74.48454,4.3544808,-8.9954406,80.3000637,1.6386598799999998,11.58521076
3.03,303,0.002,-0.9990000000000001,-0.05,-76.77637200000002,6.0733548,-10.084060800000001,79.52084082,1.74179232,11.61958824
3.04,304,0.016,-0.996,-0.055,-78.7244292,6.875496000000001,-10.828906199999999,78.7244292,1.85065434,11.6596953
3.05,305,0.03,-0.986,-0.069,-80.5578948,7.333862400000001,-10.828906199999999,77.91082884,1.9595163600000003,11.70553194
3.06,306,0.033,-0.9790000000000001,-0.084,-82.7351352,7.8495246,-10.886202,77.07431016000002,2.07410796,11.745639
3.07,307,0.027000000000000003,-0.9890000000000001,-0.10400000000000001,-85.42803780000001,9.167328,-11.688343199999998,76.20341400000002,2.19442914,11.802934800000001
3.08,308,0.025,-1.004,-0.109,-88.23553199999998,9.7975818,-13.0061466,75.30959952,2.33193906,11.860230599999998
3.09,309,0.027999999999999997,-0.998,-0.10800000000000001,-91.10032199999999,8.5370742,-13.407217200000002,74.38713714000002,2.46944898,11.90033766
3.0999999999999996,310,0.026000000000000002,-0.973,-0.10300000000000001,-93.85052040000001,7.161975,-12.834259199999998,73.44175643999998,2.6012293200000003,11.92325598
3.11,311,0.024,-0.948,-0.10400000000000001,-95.7985776,6.875496000000001,-12.6623718,72.46772784,2.72728008,11.946174300000001
3.1199999999999997,312,0.026000000000000002,-0.941,-0.10400000000000001,-98.1477054,7.161975,-13.2353298,71.47078092000002,2.86479,11.96336304
3.13,313,0.03,-0.9440000000000001,-0.11,-100.61142480000001,7.2192707999999985,-14.32395,70.45091568,3.0080294999999997,11.9748222
3.1399999999999997,314,0.042,-0.946,-0.133,-103.4762148,9.9694692,-16.2147114,69.40240254,3.1799169000000003,12.00919968
3.15,315,0.053,-0.946,-0.153,-107.2577376,13.0061466,-17.475219,68.31951192,3.37472262,12.0607659
3.1599999999999997,316,0.057,-0.943,-0.146,-110.867373,12.834259199999998,-17.8762896,67.19651424,3.56952834,12.10087296
3.17,317,0.045,-0.9329999999999999,-0.151,-114.4197126,12.776963400000001,-17.9335854,66.03340949999999,3.77006364,12.14098002
3.1799999999999997,318,0.036000000000000004,-0.9259999999999999,-0.18899999999999997,-116.88343200000001,14.32395,-18.449247600000003,64.85311602,3.97632852,12.186816659999998
3.19,319,0.027999999999999997,-0.927,-0.192,-120.034701,14.8396122,-19.136797199999997,63.63271548,4.19405256,12.2326533
3.1999999999999997,320,0.027000000000000003,-0.92,-0.177,-124.2745902,12.891555,-19.308684600000007,62.38366704,4.40031744,12.24984204
3.21,321,0.044000000000000004,-0.9009999999999999,-0.231,-126.96749280000002,13.8082878,-20.1108258,61.09451154,4.62377106,12.27276036
3.2199999999999998,322,0.07,-0.9079999999999999,-0.245,-129.4312122,14.9542038,-20.6837838,59.77670814,4.8586838399999985,12.295678679999998
3.23,323,0.085,-0.9129999999999999,-0.25,-133.2700308,14.1520626,-20.1108258,58.42452725999999,5.08213746,12.30713784
3.2399999999999998,324,0.10800000000000001,-0.9129999999999999,-0.27899999999999997,-134.98890480000003,13.750992000000002,-19.308684600000007,57.05515764,5.29413192,12.31286742
3.25,325,0.11800000000000001,-0.919,-0.33399999999999996,-137.5672158,12.776963400000001,-18.793022399999998,55.6628697,5.5003968,12.31286742
3.26,326,0.11699999999999999,-0.9309999999999999,-0.366,-139.5725688,10.4851314,-18.621135,54.24193386,5.68947294,12.28421952
3.27,327,0.111,-0.9490000000000001,-0.39,-142.09358400000005,8.7089616,-18.793022399999998,52.79235012,5.8728194999999985,12.23838288
3.28,328,0.086,-0.958,-0.409,-144.671895,6.3598338,-18.9649098,51.31411848000001,6.03897732,12.16962792
3.29,329,0.05,-0.9640000000000001,-0.44,-147.1356144,5.2139178,-19.308684600000007,49.81296852000001,6.1994055600000015,12.08368422
3.3,330,0.040999999999999995,-0.968,-0.456,-149.48474219999997,5.3858052,-19.652459399999998,48.29462982,6.3598338000000005,11.99201094
3.31,331,0.057,-0.968,-0.49,-150.97443299999995,8.021412000000002,-20.168121600000006,46.753372799999994,6.53745078,11.91179682
3.32,332,0.08800000000000001,-0.9690000000000001,-0.514,-150.687954,10.026765,-21.199446,45.21211578,6.7379860800000015,11.831582699999998
3.33,333,0.106,-0.9790000000000001,-0.506,-150.401475,11.6310474,-21.657812399999997,43.67658834,6.94998054,11.75709816
3.34,334,0.098,-0.976,-0.506,-151.3182078,13.0634424,-21.944291399999997,42.12960174,7.167704579999999,11.688343199999998
3.3499999999999996,335,0.083,-0.9590000000000001,-0.535,-151.7192784,13.2926256,-23.319390600000002,40.58261514,7.39688778,11.59666992
3.36,336,0.043,-0.986,-0.545,-152.63601119999996,11.401864199999999,-23.605869600000002,39.0184398,7.60888224,11.49353748
3.3699999999999997,337,0.015,-0.9670000000000001,-0.5920000000000001,-154.69866000000005,9.740286,-23.3766864,37.43134614,7.80368796,11.36748672
3.38,338,0.013999999999999999,-0.9490000000000001,-0.601,-155.50080119999996,9.5111028,-22.2307704,35.8385229,7.9927641000000005,11.24716554
3.3899999999999997,339,0.040999999999999995,-0.9570000000000001,-0.565,-156.3029424,9.8548776,-20.6837838,34.23424050000001,8.164651500000002,11.13830352
3.4,340,0.083,-0.965,-0.611,-157.3342668,13.750992000000002,-20.340009,32.635687680000004,8.3651868,11.04663024
3.4099999999999997,341,0.133,-0.991,-0.643,-157.5061542,15.9855282,-21.7151082,31.01994612,8.58864042,10.95495696
3.42,342,0.156,-1.024,-0.636,-157.9645206,15.9855282,-23.14750320000001,29.39274540000001,8.81782362,10.84036536
3.4299999999999997,343,0.16,-1.048,-0.635,-159.51150719999995,14.9542038,-24.064236,27.75408552,9.04127724,10.70285544
3.44,344,0.154,-1.04,-0.619,-161.860635,14.266654199999998,-24.0069402,26.08677774,9.253271699999999,10.55961594
3.4499999999999997,345,0.134,-0.977,-0.613,-163.3503258,13.464512999999998,-23.0902074,24.41946996,9.44234784,10.41637644
3.46,346,0.124,-0.894,-0.591,-163.80869219999997,12.5477802,-22.803728399999997,22.72924386,9.6256944,10.26167778
3.4699999999999998,347,0.132,-0.845,-0.5429999999999999,-163.23573420000002,10.7716104,-23.892348600000002,21.03901776,9.79185222,10.08979038
3.48,348,0.163,-0.7879999999999999,-0.524,-161.74604340000005,9.2819196,-25.4393352,19.3659804,9.9408213,9.88925508
3.4899999999999998,349,0.19,-0.805,-0.47,-159.0531408,8.880849000000003,-27.272800800000002,17.71013178,10.08979038,9.66580146
3.5,350,0.233,-0.78,-0.439,-157.73533740000005,8.3651868,-29.220858000000003,16.08293106,10.23875946,9.41942952
3.51,351,0.249,-0.765,-0.408,-155.50080119999996,6.589017,-29.507337,14.46145992,10.35908064,9.16159842
3.52,352,0.245,-0.747,-0.33799999999999997,-155.0997306,2.1772404,-28.9916748,12.834259200000002,10.4278356,8.88657858
3.53,353,0.239,-0.718,-0.295,-155.558097,-1.7188740000000002,-28.5906042,11.20705848,10.45075392,8.61155874
3.54,354,0.24,-0.674,-0.268,-155.84457600000005,-4.4117766,-28.762491600000004,9.57412818,10.43929476,8.325079740000001
3.55,355,0.21100000000000002,-0.609,-0.217,-156.41753400000005,-5.9014674000000005,-29.4500412,7.95265704,10.41637644,8.03287116
3.56,356,0.18600000000000005,-0.589,-0.231,-155.3862096,-5.6149884000000005,-31.340802600000004,6.31972674,10.38199896,7.72347384
3.57,357,0.159,-0.556,-0.239,-156.3602382,-6.0160589999999985,-32.7159018,4.675337279999999,10.33043274,7.39688778
3.58,358,0.11,-0.47600000000000003,-0.2,-157.6780416,-6.589017,-32.7731976,3.01948866,10.27313694,7.0703017200000025
3.59,359,0.1,-0.414,-0.201,-158.422887,-3.5523396000000003,-34.8931422,1.3464512999999998,10.23302988,6.7322565
3.5999999999999996,360,0.052000000000000005,-0.33899999999999997,-0.16,-158.88125340000005,-2.1199446,-36.554720399999994,-0.30939732,10.1986524,6.3770225400000005
3.61,361,-0.004,-0.261,-0.063,-158.30829540000005,3.8388186,-40.33624320000001,-1.98816426,10.21011156,5.98168152
3.6199999999999997,362,-0.025,-0.134,-0.011000000000000001,-163.579509,13.0634424,-42.91455420000001,-3.7242269999999995,10.30178484,5.5576926
3.63,363,-0.018000000000000002,0.004,0.054000000000000006,-169.13720159999997,17.589810600000003,-43.4302164,-5.52331512,10.42210602,5.127974099999999
3.6399999999999997,364,0.028999999999999998,0.134,0.105,-175.038669,17.761698000000006,-43.9458786,-7.37969904,10.53096804,4.68679644
3.65,365,-0.018000000000000002,0.309,0.09,-170.1112302,20.3973048,-45.83664,-9.21316464,10.65128922,4.22270046
3.6599999999999997,366,0.006999999999999999,0.612,0.183,-163.63680480000005,24.694489800000003,-47.326330799999994,-10.972145699999999,10.79452872,3.7299565800000014
3.67,367,0.07,1.133,0.228,-155.9018718,16.8449652,-45.7793442,-12.64518306,10.85182452,3.26013102
3.6799999999999997,368,0.115,1.834,0.222,-131.493861,-0.9167328000000001,-39.1330314,-14.04893016,10.7429625,2.8934379
3.69,369,0.099,2.56,-0.21899999999999997,-78.4379502,-22.5745452,-34.8358464,-14.89117842,10.4278356,2.61268848
3.6999999999999997,370,0.17,3.013,-0.996,6.1879464,-39.0757356,-29.2781538,-14.862530519999998,9.98092836,2.41788276
3.71,371,0.504,3.3089999999999997,-2.654,137.79639899999998,-30.4240698,-13.8082878,-13.47024258,9.66580146,2.33193906
3.7199999999999998,372,1.0390000000000001,2.884,-3.944,273.1863744,-13.120738199999998,0.3437748,-10.69712586,9.56266902,2.33193906
3.73,373,1.6880000000000002,1.855,-3.9960000000000004,349.50438,-44.2323576,4.0680017999999984,-7.13905668,9.17305758,2.39496444
3.7399999999999998,374,1.8330000000000002,1.56,-3.898,398.1485142,-139.11420239999998,16.615782,-3.04813656,7.85525418,2.6012293200000003
3.75,375,0.8420000000000001,1.054,-2.688,359.76032819999995,-217.03649040000002,27.960350399999996,0.65317212,5.75249832,2.83041252
3.76,376,-0.19699999999999998,0.44299999999999995,-1.915,296.3338776,-226.94866380000002,27.100913399999996,3.70130868,3.54088044,2.93354496
3.77,377,-0.46399999999999997,-0.243,-0.905,287.911395,-181.1693196,25.7258142,6.6463128,1.77044022,2.9564632800000004
3.78,378,-0.5870000000000001,-0.636,-0.327,225.5162688,-141.00496379999996,15.5844576,8.95533354,0.40680018,2.87051958
3.79,379,-0.39899999999999997,0.14,-0.34,101.127087,-108.1171746,-7.2765666,9.9981171,-0.61306506,2.58404058
3.8,380,0.28800000000000003,1.13,-0.748,33.1742682,-127.0820844,-22.058882999999998,10.34762148,-1.7933585399999998,2.11421502
3.81,381,0.971,1.369,-0.907,38.5027776,-178.76289599999996,-19.4232762,10.78879914,-3.48358464,1.5469866
3.82,382,1.113,1.048,-0.633,75.68775179999999,-209.416149,-10.7716104,11.62531782,-5.4717489000000015,0.97975818
3.83,383,0.838,0.48,-0.401,60.275181599999996,-201.8531034,-6.130650599999999,12.32432658,-7.3911582,0.44117766
3.84,384,0.332,0.083,-0.34,16.272007199999994,-160.714719,-14.209358400000001,12.58788726,-8.89803774,-0.08021412
3.8499999999999996,385,-0.20199999999999999,-0.294,-0.586,23.319390600000002,-128.34259200000002,-25.210151999999997,12.9488508,-10.07833122,-0.65317212
3.86,386,-0.397,-0.47100000000000003,-0.747,46.696077,-99.5228046,-28.533308399999996,13.53326796,-10.95495696,-1.19175264
3.8699999999999997,387,-0.205,-0.46799999999999997,-0.755,48.5868384,-80.32871159999998,-24.7517856,14.123414699999998,-11.65396572,-1.65011904
3.88,388,-0.005,-0.222,-0.605,35.9817624,-78.49524600000002,-21.485925,14.593240260000002,-12.34151532,-2.08556712
3.8899999999999997,389,-0.032,0.183,-0.371,27.903054600000004,-80.78707800000002,-20.05353,14.97712212,-13.05771282,-2.51528562
3.9,390,-0.151,0.569,-0.124,25.84040580000001,-82.39136040000002,-20.912967000000002,15.31516734,-13.79109906,-2.94500412
3.9099999999999997,391,-0.342,0.82,0.059000000000000004,25.0955604,-81.1308528,-21.485925,15.69331962,-14.501566980000002,-3.40337052
3.92,392,-0.546,0.889,0.122,22.7464326,-74.198061,-22.4026578,16.04855358,-15.131820780000002,-3.85027776
3.9299999999999997,393,-0.69,0.772,0.0,21.829699800000004,-62.5670136,-23.777757,16.392328380000002,-15.65321256,-4.28572584
3.94,394,-0.703,0.546,-0.11199999999999999,20.912967000000002,-44.404245,-25.210151999999997,16.71891444,-15.99698736,-4.675337279999999
3.9499999999999997,395,-0.604,0.324,-0.308,17.589810600000003,-23.892348600000002,-27.272800800000002,16.959556799999998,-16.18033392,-5.00765292
3.96,396,-0.451,0.175,-0.493,12.4904844,-20.912967000000002,-29.9657034,17.188740000000006,-16.28919594,-5.37434604
3.9699999999999998,397,-0.36,0.015,-0.5589999999999999,2.3491277999999998,-29.163562199999998,-33.231564,17.33770908,-16.461083340000002,-5.79833496
3.98,398,-0.342,-0.085,-0.637,-19.7097552,-37.6433406,-35.3515086,17.2746837,-16.71318486,-6.2738901
3.9899999999999998,399,-0.355,-0.013000000000000001,-0.757,-18.793022399999998,-49.560867,-34.37748,17.24030622,-17.0741484,-6.77809314
4.0,400,-0.353,-0.11699999999999999,-1.031,6.0733548,-59.1865614,-27.8457588,17.44084152,-17.54397396,-7.25364828
4.01,401,-0.47200000000000003,-0.287,-1.33,8.7662574,-62.738901,-15.813640800000002,17.65283598,-18.08255448,-7.620341400000001
4.02,402,-0.8420000000000001,-0.3,-1.4080000000000001,4.9274388,-69.61439700000001,-2.291832,17.79607548,-18.72426744,-7.88390208
4.03,403,-1.25,-0.28800000000000003,-1.452,6.130650599999999,-66.23394479999999,3.6669312000000014,17.927855819999994,-19.35452124,-8.0787078
4.04,404,-1.386,-0.26899999999999996,-1.624,3.9534102,-36.7266078,10.599723,17.97942204,-19.72694394,-8.10162612
4.05,405,-1.371,-0.348,-1.8780000000000001,-5.72958,0.0,14.7250206,17.870560020000006,-19.77851016,-7.95265704
4.06,406,-1.264,-0.358,-1.982,-24.1788276,17.589810600000003,16.558486199999994,17.549703540000007,-19.66391856,-7.72347384
4.07,407,-1.095,-0.34700000000000003,-2.073,-42.91455420000001,25.7258142,19.480572,17.01112302,-19.48630158,-7.4427244199999985
4.08,408,-1.064,-0.3670000000000001,-2.103,-55.1758554,34.5493674,22.2307704,16.33503258,-19.23420006,-7.098949620000001
4.09,409,-1.206,-0.455,-1.9909999999999999,-45.3782736,35.6379876,18.793022399999998,15.77353374,-18.95918022,-6.79528188
4.1,410,-1.111,-0.47600000000000003,-1.712,-25.7258142,30.252182399999995,14.896907999999998,15.42975894,-18.71853786,-6.54890994
4.109999999999999,411,-0.938,-0.425,-1.3980000000000001,-9.6256944,33.116972399999995,7.161975,15.2693307,-18.42632928,-6.3770225400000005
4.12,412,-0.8270000000000001,-0.306,-1.147,1.9480572,35.7525792,4.297185,15.240682800000002,-18.09974322,-6.22232388
4.13,413,-0.82,-0.207,-0.884,9.568398599999998,29.793815999999996,7.448453999999999,15.28078986,-17.83618254,-6.06189564
4.14,414,-0.777,-0.102,-0.773,12.318597,29.392745399999995,10.084060800000001,15.34381524,-17.58408102,-5.8728194999999985
4.1499999999999995,415,-0.612,-0.037000000000000005,-0.764,14.438541599999999,38.5600734,11.745639,15.38965188,-17.280413279999998,-5.62644756
4.16,416,-0.41200000000000003,-0.04,-0.757,14.381245800000002,41.6540466,13.636400400000001,15.45840684,-16.919449739999994,-5.3628868800000005
4.17,417,-0.18899999999999997,-0.12300000000000001,-0.7709999999999999,13.8082878,36.096354,15.6990492,15.51570264,-16.621511579999996,-5.0993262
4.18,418,-0.098,-0.23,-0.775,12.5477802,26.8717302,16.2147114,15.57299844,-16.409517119999997,-4.85295426
4.1899999999999995,419,-0.08900000000000001,-0.335,-0.784,11.688343199999998,16.615782,15.5844576,15.63029424,-16.28919594,-4.64668938
4.2,420,-0.14300000000000002,-0.386,-0.8079999999999999,10.1986524,11.688343199999998,13.980175199999998,15.71623794,-16.197522659999994,-4.48626114
4.21,421,-0.195,-0.37,-0.818,10.3705398,9.396511199999999,12.3758928,15.779263320000002,-16.140226860000002,-4.33729206
4.22,422,-0.222,-0.32899999999999996,-0.815,10.886202,9.740286,9.453807,15.85374786,-16.071471900000002,-4.211241299999998
4.2299999999999995,423,-0.18600000000000005,-0.289,-0.863,11.9748222,13.9228794,5.958763200000001,15.94542114,-15.956880300000002,-4.10810886
4.24,424,-0.136,-0.285,-0.9129999999999999,12.834259199999998,19.8816426,4.0680017999999984,16.042824,-15.779263320000002,-4.00497642
4.25,425,-0.094,-0.293,-0.9540000000000001,10.084060800000001,22.4599536,2.291832,16.117308540000003,-15.527161799999998,-3.91330314
4.26,426,-0.065,-0.306,-0.986,6.4744254,22.7464326,0.057295800000000015,16.16314518,-15.30943776,-3.84454818
4.27,427,-0.036000000000000004,-0.322,-1.006,1.6042823999999998,22.91832,-2.0053530000000004,16.16314518,-15.08598414,-3.79298196
4.28,428,-0.013999999999999999,-0.311,-1.012,-2.291832,19.5378678,-3.7815228,16.1287677,-14.89117842,-3.77006364
4.29,429,-0.018000000000000002,-0.278,-1.0290000000000001,-4.3544808,14.266654199999998,-5.844171599999999,16.08293106,-14.74220934,-3.7815228
4.3,430,-0.035,-0.254,-1.056,-4.1825934,7.3911582,-7.2765666,16.02563526,-14.576051520000002,-3.82735944
4.31,431,-0.068,-0.244,-1.065,-1.2605076000000002,1.8334656000000005,-8.250595200000001,16.031364840000002,-14.53594446,-3.90184398
4.32,432,-0.11,-0.24600000000000002,-1.058,0.40107059999999994,-1.7188740000000002,-8.651665800000002,16.060012739999998,-14.53021488,-3.99351726
4.33,433,-0.132,-0.254,-1.015,1.432395,-4.1825934,-8.3651868,16.1001198,-14.541674039999998,-4.09092012
4.34,434,-0.146,-0.256,-0.9620000000000001,-0.6302538000000001,-6.5317212,-7.0473834,16.117308540000003,-14.58751068,-4.17686382
4.35,435,-0.16899999999999998,-0.221,-0.905,-6.3598338,-7.906820400000001,-5.9014674000000005,16.04855358,-14.62761774,-4.25134836
4.36,436,-0.2,-0.182,-0.88,-9.167328,-9.568398599999998,-4.1252976000000015,15.974069039999998,-14.707831860000002,-4.325832900000001
4.37,437,-0.245,-0.152,-0.875,-8.479778399999999,-11.401864199999999,-2.5783110000000002,15.90531408,-14.810964300000002,-4.3831287
4.38,438,-0.282,-0.133,-0.882,-2.9793816000000004,-11.688343199999998,-1.8907614,15.888125340000002,-14.914096740000002,-4.4404245000000016
4.39,439,-0.302,-0.15,-0.8909999999999999,2.7501984,-9.396511199999999,-2.4637194,15.93396198,-14.99431086,-4.49199072
4.3999999999999995,440,-0.306,-0.165,-0.87,4.9847346,-6.9327918,-4.4117766,15.956880300000002,-15.08025456,-4.54355694
4.41,441,-0.304,-0.16399999999999998,-0.8590000000000001,7.0473834,-5.6722842,-6.0160589999999985,16.04855358,-15.11463204,-4.6180414800000005
4.42,442,-0.311,-0.17,-0.856,8.5370742,-3.8388186,-6.8182002000000015,16.1574156,-15.131820780000002,-4.6982556
4.43,443,-0.325,-0.196,-0.8540000000000001,8.479778399999999,-1.5469866,-7.5057497999999985,16.26627762,-15.126091199999998,-4.77846972
4.4399999999999995,444,-0.32,-0.20800000000000002,-0.856,5.6722842,0.9740286,-7.7922288,16.34076216,-15.091713719999998,-4.85295426
4.45,445,-0.293,-0.20600000000000002,-0.856,1.7761698000000001,2.5783110000000002,-7.333862400000001,16.329303000000003,-15.08025456,-4.898790900000002
4.46,446,-0.259,-0.196,-0.84,-1.432395,1.3750992,-6.6463128000000005,16.329303000000003,-15.04587708,-4.96181628
4.47,447,-0.228,-0.201,-0.8109999999999999,-4.8128472,-1.9480572,-5.7868758000000025,16.29492552,-15.05160666,-5.02484166
4.4799999999999995,448,-0.222,-0.198,-0.75,-7.9641161999999985,-5.0993262,-4.3544808,16.23190014,-15.08598414,-5.08213746
4.49,449,-0.273,-0.17,-0.731,-7.906820400000001,-5.6722842,-2.5783110000000002,16.16314518,-15.13755036,-5.127974099999999
4.5,450,-0.32299999999999995,-0.11800000000000001,-0.868,1.2032118,1.432395,-2.4637194,16.1001198,-15.16046868,-5.1222445200000015
4.51,451,-0.35,-0.21600000000000005,-0.988,5.1566220000000005,8.59437,-2.8074942000000003,16.15168602,-15.0687954,-5.1222445200000015
4.52,452,-0.363,-0.41700000000000004,-1.005,5.72958,4.2398892,0.286479,16.208981819999998,-15.028688340000002,-5.10505578
4.53,453,-0.359,-0.514,-0.971,6.875496000000001,2.6356068,3.4950437999999995,16.26627762,-15.011499600000002,-5.06494872
4.54,454,-0.335,-0.475,-0.991,6.589017,7.8495246,3.2658606,16.317843840000002,-14.94847422,-5.00765292
4.55,455,-0.28800000000000003,-0.39899999999999997,-1.0090000000000001,7.0473834,10.828906199999999,1.0886202,16.392328380000002,-14.8396122,-4.96754586
4.56,456,-0.207,-0.331,-0.992,7.6776372,9.2819196,0.7448454000000001,16.45535376,-14.7536685,-4.9274388
4.57,457,-0.156,-0.267,-0.943,5.72958,5.0993262,1.3750992,16.50691998,-14.71356144,-4.898790900000002
4.58,458,-0.18,-0.214,-0.961,3.8388186,2.9220858,1.5469866,16.541297460000006,-14.684913540000002,-4.87587258
4.59,459,-0.261,-0.207,-0.987,0.5156622000000001,6.589017,1.7188740000000002,16.53556788,-14.62761774,-4.83576552
4.6,460,-0.319,-0.235,-0.985,-1.9480572,11.8602306,2.5210152000000003,16.47827208,-14.5531332,-4.76701056
4.61,461,-0.337,-0.272,-0.934,-4.4690724,13.2926256,4.1252976000000015,16.409517119999997,-14.4385416,-4.68106686
4.62,462,-0.317,-0.281,-0.883,-7.3911582,11.5164558,6.130650599999999,16.30638468,-14.3525979,-4.5836640000000015
4.63,463,-0.273,-0.242,-0.868,-7.3911582,10.1413566,6.5317212,16.208981819999998,-14.272383780000002,-4.48626114
4.64,464,-0.231,-0.2,-0.8590000000000001,-5.3285094000000015,6.3598338,5.6722842,16.134497279999998,-14.232276719999998,-4.4117766000000005
4.6499999999999995,465,-0.20600000000000002,-0.16899999999999998,-0.8270000000000001,-3.4950437999999995,0.7448454000000001,5.042030400000002,16.042824,-14.2380063,-4.34875122
4.66,466,-0.218,-0.153,-0.825,-2.9220858,-2.7501984,5.0993262,16.002716940000006,-14.27811336,-4.30291458
4.67,467,-0.244,-0.151,-0.8540000000000001,-1.3178034,-1.4896908000000002,5.1566220000000005,15.974069039999998,-14.306761259999998,-4.25707794
4.68,468,-0.261,-0.17600000000000002,-0.89,0.1718874,3.8388186,5.0993262,15.96260988,-14.28384294,-4.19405256
4.6899999999999995,469,-0.272,-0.209,-0.9229999999999999,1.7761698000000001,9.740286,4.6982555999999995,15.96260988,-14.20362882,-4.11956802
4.7,470,-0.265,-0.24,-0.922,2.0626488000000003,13.0634424,4.0680017999999984,15.94542114,-14.10622596,-4.03362432
4.71,471,-0.24600000000000002,-0.23800000000000002,-0.925,2.2345362,13.120738199999998,3.6669312000000014,15.94542114,-13.99163436,-3.9534102
4.72,472,-0.22899999999999998,-0.223,-0.938,1.8334656000000005,11.172680999999999,3.4950437999999995,15.94542114,-13.894231499999998,-3.88465524
4.7299999999999995,473,-0.22399999999999998,-0.209,-0.9640000000000001,0.0,10.4278356,3.3231564,15.9282324,-13.80255822,-3.82162986
4.74,474,-0.226,-0.20199999999999999,-0.992,-0.5156622000000001,10.4851314,2.9793816000000004,15.91104366,-13.71088494,-3.75860448
4.75,475,-0.226,-0.205,-1.006,1.3750992,9.2819196,2.2345362,15.859477439999996,-13.61921166,-3.6955791
4.76,476,-0.222,-0.22399999999999998,-1.02,4.010706000000001,7.6776372,1.145916,15.89385492,-13.550456700000002,-3.66120162
4.77,477,-0.221,-0.239,-1.03,5.5576926,7.2765666,0.3437748,15.93969156,-13.48170174,-3.63255372
4.78,478,-0.225,-0.252,-1.0090000000000001,7.161975,7.734933000000002,-0.1718874,16.00844652,-13.4072172,-3.6096354
4.79,479,-0.217,-0.27,-0.9840000000000001,7.448453999999999,7.7922288,-0.286479,16.07720148,-13.33273266,-3.59244666
4.8,480,-0.215,-0.265,-0.966,6.6463128000000005,7.448453999999999,-0.572958,16.117308540000003,-13.25251854,-3.56952834
4.81,481,-0.22,-0.242,-0.9540000000000001,4.7555514,6.0160589999999985,-1.0313244000000001,16.16314518,-13.18949316,-3.5580691799999995
4.82,482,-0.226,-0.23600000000000002,-0.948,3.2085647999999996,4.4117766,-0.8594370000000001,16.19179308,-13.1493861,-3.5580691799999995
4.83,483,-0.23800000000000002,-0.244,-0.94,2.1772404,3.8961144,0.0,16.214711400000002,-13.10927904,-3.54088044
4.84,484,-0.251,-0.259,-0.9279999999999999,1.7188740000000002,4.583664,0.9167328000000001,16.22617056,-13.069171980000002,-3.51796212
4.85,485,-0.255,-0.264,-0.91,0.3437748,5.72958,1.6042823999999998,16.20325224,-13.05771282,-3.47785506
4.86,486,-0.247,-0.257,-0.883,-0.8021411999999999,6.3598338,2.0053530000000004,16.18033392,-13.00041702,-3.4377480000000005
4.87,487,-0.23399999999999999,-0.237,-0.865,-1.7188740000000002,5.5576926,1.7188740000000002,16.1574156,-12.95458038,-3.40337052
4.88,488,-0.21600000000000005,-0.222,-0.86,-1.6615782,3.2085647999999996,1.4896908000000002,16.134497279999998,-12.93166206,-3.380452200000001
4.89,489,-0.203,-0.21899999999999997,-0.861,-2.8074942000000003,1.8907614,1.6615782,16.1001198,-12.91447332,-3.35753388
4.8999999999999995,490,-0.201,-0.22,-0.871,-3.7815228,2.4064236,2.3491277999999998,16.0141761,-12.903014159999998,-3.31742682
4.91,491,-0.204,-0.22,-0.894,-4.010706000000001,3.0366774,2.5783110000000002,15.96833946,-12.88009584,-3.27731976
4.92,492,-0.213,-0.22399999999999998,-0.9059999999999999,-3.8388186,3.4377480000000005,2.6356068,15.91677324,-12.857177520000002,-3.24294228
4.93,493,-0.218,-0.221,-0.9159999999999999,-3.2658606,4.2398892,2.6356068,15.876666179999996,-12.82280004,-3.20283522
4.9399999999999995,494,-0.21899999999999997,-0.218,-0.932,-2.0626488000000003,5.72958,2.3491277999999998,15.8422887,-12.776963400000001,-3.1627281600000003
4.95,495,-0.22,-0.214,-0.9520000000000001,-1.0313244000000001,6.7609043999999985,1.6042823999999998,15.756345000000001,-12.7196676,-3.1054323600000004
4.96,496,-0.21899999999999997,-0.21600000000000005,-0.961,-1.0313244000000001,5.958763200000001,0.6302538000000001,15.739156259999998,-12.66810138,-3.0825140400000004
4.97,497,-0.218,-0.217,-0.97,-1.145916,4.5263682,0.3437748,15.721967520000002,-12.62226474,-3.0653253000000005
4.9799999999999995,498,-0.223,-0.222,-0.9790000000000001,-0.2291832000000001,3.6669312000000014,0.2291832000000001,15.71623794,-12.58788726,-3.04813656
4.99,499,-0.23399999999999999,-0.23,-0.996,-0.057295800000000015,3.4377480000000005,-0.1718874,15.71050836,-12.55923936,-3.04240698
5.0,500,-0.24100000000000002,-0.23600000000000002,-1.008,1.3750992,3.380452200000001,-0.7448454000000001,15.6704013,-12.53632104,-3.02521824
5.01,501,-0.23600000000000002,-0.237,-1.0090000000000001,2.2345362,3.2658606,-1.7188740000000002,15.69331962,-12.50194356,-3.03094782
5.02,502,-0.221,-0.233,-1.021,4.8701430000000006,2.2345362,-2.6929026,15.74488584,-12.473295660000002,-3.04813656
5.03,503,-0.213,-0.247,-1.013,6.417129599999999,0.5156622000000001,-3.0939732,15.813640799999998,-12.45610692,-3.07678446
5.04,504,-0.21,-0.262,-0.985,5.844171599999999,-0.9740286,-2.5783110000000002,15.88239576,-12.4618365,-3.1054323600000004
5.05,505,-0.217,-0.262,-0.9390000000000001,4.4117766,-1.0886202,-1.9480572,15.888125340000002,-12.47902524,-3.11689152
5.06,506,-0.22399999999999998,-0.239,-0.9179999999999999,2.2345362,-0.057295800000000015,-1.3178034,15.91677324,-12.47902524,-3.13408026
5.07,507,-0.233,-0.217,-0.924,1.3178034,1.145916,-1.3750992,15.93396198,-12.4618365,-3.1398098400000003
5.08,508,-0.24,-0.223,-0.938,1.7761698000000001,1.432395,-1.5469866,15.951150719999998,-12.44464776,-3.1512689999999997
5.09,509,-0.24100000000000002,-0.245,-0.953,3.1512689999999997,1.7188740000000002,-1.3178034,15.985528200000001,-12.421729440000002,-3.1627281600000003
5.1,510,-0.23199999999999998,-0.267,-0.945,1.8334656000000005,1.7188740000000002,-0.9167328000000001,15.93969156,-12.45037734,-3.14553942
5.11,511,-0.213,-0.26899999999999996,-0.93,-1.5469866,0.572958,-0.057295800000000015,15.92250282,-12.44464776,-3.14553942
5.12,512,-0.201,-0.262,-0.892,-4.583664,-0.40107059999999994,1.2605076000000002,15.876666179999996,-12.45037734,-3.13408026
5.13,513,-0.21100000000000002,-0.242,-0.8490000000000001,-6.3025379999999975,-0.286479,2.4064236,15.80791122,-12.4618365,-3.11116194
5.14,514,-0.21899999999999997,-0.21899999999999997,-0.838,-6.7609043999999985,1.0886202,2.6929026,15.73342668,-12.4618365,-3.07678446
5.1499999999999995,515,-0.21100000000000002,-0.20199999999999999,-0.855,-6.3598338,2.4637194,2.6929026,15.61883508,-12.45037734,-3.0366774000000003
5.16,516,-0.20199999999999999,-0.196,-0.884,-5.2139178,2.86479,2.6356068,15.561539280000002,-12.4331886,-3.00229992
5.17,517,-0.19899999999999998,-0.2,-0.9079999999999999,-4.3544808,2.6929026,2.291832,15.509973059999998,-12.41599986,-2.96792244
5.18,518,-0.209,-0.20800000000000002,-0.934,-4.1825934,2.1199446,1.6615782,15.45840684,-12.39881112,-2.94500412
5.1899999999999995,519,-0.225,-0.22,-0.9440000000000001,-3.380452200000001,1.8334656000000005,0.8021411999999999,15.42402936,-12.38162238,-2.93354496
5.2,520,-0.23800000000000002,-0.222,-0.9540000000000001,-3.2085647999999996,1.7761698000000001,-0.057295800000000015,15.2979786,-12.404540699999998,-2.89916748
5.21,521,-0.244,-0.204,-0.9990000000000001,-2.291832,1.5469866,-0.7448454000000001,15.27506028,-12.38735196,-2.90489706
5.22,522,-0.25,-0.19899999999999998,-1.024,2.1199446,0.9740286,-1.5469866,15.2979786,-12.3758928,-2.91635622
5.2299999999999995,523,-0.23399999999999999,-0.218,-1.04,7.0473834,0.9740286,-2.4637194,15.37246314,-12.35870406,-2.93354496
5.24,524,-0.21899999999999997,-0.24600000000000002,-1.035,9.1100322,0.1718874,-2.8074942000000003,15.47559558,-12.347244899999998,-2.96219286
5.25,525,-0.20600000000000002,-0.27,-1.013,11.0580894,-0.40107059999999994,-3.2085647999999996,15.584457600000002,-12.33578574,-2.9965703400000003
5.26,526,-0.198,-0.284,-0.983,10.599723,0.057295800000000015,-3.5523396000000003,15.6990492,-12.32432658,-3.03094782
5.27,527,-0.19699999999999998,-0.275,-0.96,8.479778399999999,0.8021411999999999,-3.5523396000000003,15.79072248,-12.30140826,-3.0653253000000005
5.28,528,-0.21,-0.256,-0.971,7.2192707999999985,1.0313244000000001,-3.2658606,15.8709366,-12.28421952,-3.0939732
5.29,529,-0.231,-0.248,-0.981,6.0733548,0.6302538000000001,-3.0366774,15.93969156,-12.26703078,-3.1226211000000004
5.3,530,-0.231,-0.264,-0.96,4.7555514,0.11459160000000004,-2.0626488000000003,15.96833946,-12.278489939999998,-3.13408026
5.31,531,-0.212,-0.294,-0.912,1.5469866,-0.3437748,-0.572958,15.991257780000002,-12.278489939999998,-3.1398098400000003
5.32,532,-0.198,-0.299,-0.868,-2.5210152000000003,-0.572958,1.145916,15.96260988,-12.2899491,-3.13408026
5.33,533,-0.198,-0.27899999999999997,-0.831,-5.3858052,-0.4583664000000001,2.4064236,15.8995845,-12.30140826,-3.11116194
5.34,534,-0.207,-0.242,-0.8029999999999999,-7.1046792000000005,-0.8594370000000001,3.0939732,15.82509996,-12.318597,-3.0825140400000004
5.35,535,-0.218,-0.20600000000000002,-0.79,-8.250595200000001,-1.2605076000000002,3.7242269999999995,15.71623794,-12.35870406,-3.04240698
5.36,536,-0.21600000000000005,-0.177,-0.81,-7.448453999999999,-0.9740286,4.010706000000001,15.63029424,-12.38162238,-3.00229992
5.37,537,-0.213,-0.171,-0.856,-5.0993262,0.5156622000000001,3.5523396000000003,15.57299844,-12.38735196,-2.96792244
5.38,538,-0.217,-0.183,-0.902,-2.8074942000000003,3.8961144,2.4637194,15.53289138,-12.35297448,-2.93354496
5.39,539,-0.23800000000000002,-0.17800000000000002,-0.975,-0.572958,5.5003968,1.0886202,15.52143222,-12.30713784,-2.90489706
5.3999999999999995,540,-0.23199999999999998,-0.17600000000000002,-1.052,4.297185,2.8074942000000003,0.057295800000000015,15.498513899999999,-12.278489939999998,-2.87624916
5.41,541,-0.21899999999999997,-0.20800000000000002,-1.095,9.453807,-0.5156622000000001,-0.057295800000000015,15.59591676,-12.278489939999998,-2.88197874
5.42,542,-0.22,-0.258,-1.085,12.261301199999998,0.572958,-0.572958,15.721967520000002,-12.27276036,-2.88770832
5.43,543,-0.22399999999999998,-0.28,-1.088,13.980175199999998,3.7815228,-1.8907614,15.86520702,-12.226923719999998,-2.8934379
5.4399999999999995,544,-0.21100000000000002,-0.295,-1.063,15.527161800000002,3.8961144,-2.8074942000000003,16.02563526,-12.18108708,-2.91062664
5.45,545,-0.177,-0.29100000000000004,-0.981,13.178034,2.5210152000000003,-3.0939732,16.1574156,-12.12379128,-2.93354496
5.46,546,-0.165,-0.257,-0.965,10.599723,1.2032118,-3.2658606,16.26627762,-12.10087296,-2.96219286
5.47,547,-0.192,-0.23,-0.996,10.7143146,0.5156622000000001,-3.5523396000000003,16.386598799999998,-12.0894138,-2.99084076
5.4799999999999995,548,-0.218,-0.257,-0.988,10.599723,-0.4583664000000001,-3.4377480000000005,16.501190400000002,-12.07795464,-3.03094782
5.49,549,-0.205,-0.312,-0.935,7.448453999999999,-0.4583664000000001,-2.2345362,16.58140452,-12.07795464,-3.05386614
5.5,550,-0.182,-0.34299999999999997,-0.879,1.3178034,-0.4583664000000001,-0.5156622000000001,16.7590215,-12.04357716,-3.1054323600000004
5.51,551,-0.18,-0.32799999999999996,-0.823,-4.4690724,0.11459160000000004,1.2032118,16.707455279999998,-12.04357716,-3.0939732
5.52,552,-0.182,-0.284,-0.7659999999999999,-7.5057497999999985,-0.1718874,2.291832,16.62724116,-12.05503632,-3.07105488
5.53,553,-0.195,-0.20800000000000002,-0.763,-8.307891,-2.4064236,2.8074942000000003,16.541297460000006,-12.08368422,-3.04813656
5.54,554,-0.231,-0.15,-0.82,-5.0993262,-2.9220858,2.4637194,16.484001659999997,-12.12379128,-3.0366774000000003
5.55,555,-0.27,-0.128,-0.9109999999999999,0.8021411999999999,-0.572958,1.3750992,16.208981819999998,-12.26703078,-2.93927454
5.56,556,-0.273,-0.163,-0.9620000000000001,6.3025379999999975,-2.1199446,0.40107059999999994,16.27773678,-12.2899491,-2.94500412
5.57,557,-0.259,-0.21600000000000005,-0.9840000000000001,9.5111028,-2.6356068,0.6875496,16.37513964,-12.318597,-2.94500412
5.58,558,-0.25,-0.255,-1.028,11.3445684,0.11459160000000004,0.5156622000000001,16.48973124,-12.31286742,-2.93927454
5.59,559,-0.231,-0.293,-1.0490000000000002,13.0634424,4.1252976000000015,0.0,16.615782,-12.27276036,-2.92781538
5.6,560,-0.20199999999999999,-0.312,-1.018,11.401864199999999,5.958763200000001,-0.5156622000000001,16.72464402,-12.2040054,-2.91635622
5.61,561,-0.19,-0.28600000000000003,-1.014,9.3392154,6.0733548,-0.9740286,16.8163173,-12.14098002,-2.90489706
5.62,562,-0.204,-0.261,-1.038,9.7975818,6.0160589999999985,-1.7761698000000001,16.919449739999994,-12.07795464,-2.90489706
5.63,563,-0.203,-0.28600000000000003,-1.0090000000000001,8.5370742,5.6149884000000005,-1.6042823999999998,17.00539344,-12.02065884,-2.89916748
5.64,564,-0.161,-0.33399999999999996,-0.9420000000000001,1.9480572,5.0993262,-0.572958,17.0168526,-11.96909262,-2.8934379
5.6499999999999995,565,-0.133,-0.34299999999999997,-0.892,-5.042030400000002,3.5523396000000003,1.2605076000000002,16.9882047,-11.90606724,-2.87624916
5.66,566,-0.145,-0.308,-0.8270000000000001,-9.167328,1.3750992,2.291832,16.89080184,-11.90033766,-2.84760126
5.67,567,-0.165,-0.266,-0.768,-10.1986524,-2.8074942000000003,2.9220858,16.781939819999998,-11.934715140000002,-2.83041252
5.68,568,-0.193,-0.231,-0.757,-8.651665800000002,-6.703608600000001,3.3231564,16.69599612,-12.00919968,-2.81895336
5.6899999999999995,569,-0.226,-0.19,-0.82,-6.3025379999999975,-4.9847346,3.1512689999999997,16.62724116,-12.06649548,-2.80176462
5.7,570,-0.253,-0.152,-0.9159999999999999,-1.4896908000000002,-1.2032118,2.1199446,16.323573420000002,-12.19254624,-2.70436176
5.71,571,-0.263,-0.168,-0.972,4.4117766,-4.0680017999999984,1.5469866,16.36941006,-12.2326533,-2.69863218
5.72,572,-0.262,-0.191,-1.021,8.193299399999999,-6.0160589999999985,1.2605076000000002,16.45535376,-12.295678679999998,-2.71009134
5.7299999999999995,573,-0.253,-0.23199999999999998,-1.0979999999999999,14.32395,-2.0626488000000003,0.2291832000000001,16.604322840000002,-12.31286742,-2.71009134
5.74,574,-0.223,-0.29100000000000004,-1.125,17.3606274,2.4637194,-1.3750992,16.781939819999998,-12.28421952,-2.7215505
5.75,575,-0.17600000000000002,-0.321,-1.083,15.126091199999998,3.3231564,-1.8907614,16.92517932,-12.226923719999998,-2.72728008
5.76,576,-0.159,-0.29100000000000004,-1.072,14.7823164,2.9793816000000004,-2.6356068,17.07987798,-12.19254624,-2.74446882
5.77,577,-0.16699999999999998,-0.27899999999999997,-1.069,16.673077799999998,2.9793816000000004,-3.380452200000001,17.25749496,-12.15243918,-2.76738714
5.78,578,-0.192,-0.29600000000000004,-1.053,15.756345,2.6356068,-3.6096353999999997,17.4179232,-12.11233212,-2.79603504
5.79,579,-0.204,-0.331,-0.996,12.0894138,-0.057295800000000015,-3.6669312000000014,17.549703540000007,-12.10087296,-2.83041252
5.8,580,-0.191,-0.369,-0.897,5.0993262,-3.9534102,-1.7761698000000001,17.687213460000006,-12.11233212,-2.88197874
5.81,581,-0.185,-0.395,-0.8220000000000001,-3.0366774,-4.8701430000000006,1.9480572,17.65856556,-12.16962792,-2.88197874
5.82,582,-0.196,-0.375,-0.727,-11.9748222,-2.7501984,4.1252976000000015,17.52678522,-12.20973498,-2.84760126
5.83,583,-0.19399999999999998,-0.298,-0.6559999999999999,-17.8189938,-2.5783110000000002,4.2398892,17.33770908,-12.24984204,-2.81322378
5.84,584,-0.191,-0.248,-0.618,-18.621135,-3.8388186,6.0733548,17.14290336,-12.30140826,-2.76738714
5.85,585,-0.20199999999999999,-0.222,-0.611,-19.767051000000002,-4.1252976000000015,8.250595200000001,16.92517932,-12.3758928,-2.69863218
5.86,586,-0.205,-0.18899999999999997,-0.603,-22.517249399999997,-3.380452200000001,9.9121734,16.678807380000002,-12.44464776,-2.61268848
5.87,587,-0.213,-0.142,-0.631,-21.600516600000002,-3.1512689999999997,9.7975818,16.4438946,-12.50194356,-2.52674478
5.88,588,-0.214,-0.11900000000000001,-0.696,-16.558486199999994,-3.2658606,8.136003599999999,16.26054804,-12.55923936,-2.45798982
5.89,589,-0.215,-0.147,-0.7709999999999999,-11.745639,-2.0053530000000004,6.589017,16.1287677,-12.59934642,-2.39496444
5.8999999999999995,590,-0.226,-0.192,-0.8270000000000001,-9.8548776,1.3178034,5.6149884000000005,15.991257780000002,-12.61653516,-2.33193906
5.91,591,-0.23600000000000002,-0.214,-0.892,-9.224623800000002,5.2712136,4.8128472,15.88239576,-12.58215768,-2.2631841
5.92,592,-0.259,-0.196,-0.9790000000000001,-7.5057497999999985,7.734933000000002,3.6669312000000014,15.796452060000002,-12.5191323,-2.2058883
5.93,593,-0.25,-0.16399999999999998,-1.115,-1.7761698000000001,10.5424272,1.5469866,15.762074579999998,-12.42745902,-2.16005166
5.9399999999999995,594,-0.225,-0.182,-1.207,7.7922288,13.636400400000001,-1.145916,15.83655912,-12.2899491,-2.13140376
5.95,595,-0.192,-0.24100000000000002,-1.265,15.5844576,15.527161800000002,-3.6669312000000014,15.97979862,-12.12952086,-2.1199446
5.96,596,-0.18,-0.309,-1.2770000000000001,19.9962342,15.870936600000002,-5.6722842,16.1860635,-11.95763346,-2.12567418
5.97,597,-0.168,-0.382,-1.237,18.277360199999997,14.4958374,-6.4744254,16.36941006,-11.802934800000001,-2.14286292
5.9799999999999995,598,-0.155,-0.41100000000000003,-1.155,11.745639,12.7196676,-6.130650599999999,16.495460819999998,-11.66542488,-2.1657812400000003
5.99,599,-0.149,-0.37,-1.088,4.9847346,10.2559482,-5.958763200000001,16.54702704,-11.55083328,-2.18869956
6.0,600,-0.145,-0.309,-1.055,2.4637194,6.3598338,-5.72958,16.56421578,-11.44197126,-2.22307704
6.01,601,-0.141,-0.289,-0.998,2.1199446,1.3178034,-3.8961144,16.59286368,-11.41905294,-2.25745452
6.02,602,-0.152,-0.29600000000000004,-0.934,-1.6615782,-4.5263682,-0.1718874,16.58140452,-11.45916,-2.2746432600000004
6.03,603,-0.19699999999999998,-0.267,-0.848,-7.0473834,-9.6256944,2.86479,16.50691998,-11.562292439999998,-2.2746432600000004
6.04,604,-0.24,-0.217,-0.787,-8.9381448,-12.4331886,3.7815228,16.420976279999998,-11.688343199999998,-2.2746432600000004
6.05,605,-0.264,-0.182,-0.753,-8.078707799999998,-12.4331886,3.2658606,16.323573420000002,-11.84304186,-2.28037284
6.06,606,-0.26,-0.179,-0.748,-5.5576926,-10.2559482,2.9220858,16.272007199999994,-11.95190388,-2.28037284
6.07,607,-0.23800000000000002,-0.191,-0.7609999999999999,-4.1825934,-6.703608600000001,2.8074942000000003,16.22617056,-12.02065884,-2.2746432600000004
6.08,608,-0.21100000000000002,-0.192,-0.789,-3.8961144,-2.9793816000000004,2.8074942000000003,16.1860635,-12.0607659,-2.25745452
6.09,609,-0.201,-0.18600000000000005,-0.836,-3.5523396000000003,0.0,2.9220858,16.140226860000002,-12.06649548,-2.22880662
6.1,610,-0.205,-0.195,-0.87,-3.2085647999999996,1.9480572,2.86479,16.04855358,-12.07222506,-2.1772404
6.11,611,-0.20800000000000002,-0.212,-0.898,-3.2085647999999996,3.4950437999999995,2.4637194,16.002716940000006,-12.049306740000002,-2.14286292
6.12,612,-0.19899999999999998,-0.22899999999999998,-0.924,-2.9793816000000004,4.9274388,2.0626488000000003,15.96833946,-12.00919968,-2.10848544
6.13,613,-0.188,-0.251,-0.956,-2.0626488000000003,6.1879464,1.7188740000000002,15.93969156,-11.95190388,-2.07410796
6.14,614,-0.177,-0.268,-0.986,-1.2032118,7.0473834,1.145916,15.91677324,-11.8888785,-2.03973048
6.15,615,-0.171,-0.282,-1.01,-0.5156622000000001,6.990087599999999,0.572958,15.888125340000002,-11.791475639999998,-2.005353
6.16,616,-0.17,-0.287,-1.028,-0.40107059999999994,6.0160589999999985,-0.057295800000000015,15.876666179999996,-11.73417984,-1.98816426
6.17,617,-0.174,-0.282,-1.0490000000000002,0.6875496,4.5263682,-0.6302538000000001,15.88239576,-11.688343199999998,-1.98243468
6.18,618,-0.187,-0.272,-1.057,2.1199446,2.6929026,-1.0313244000000001,15.90531408,-11.6596953,-1.98243468
6.1899999999999995,619,-0.20199999999999999,-0.262,-1.068,3.6096353999999997,1.2032118,-1.5469866,15.94542114,-11.64823614,-1.99389384
6.2,620,-0.212,-0.26,-1.084,5.9014674000000005,-0.3437748,-2.0053530000000004,15.985528200000001,-11.63677698,-2.01108258
6.21,621,-0.218,-0.264,-1.081,8.9954406,-2.2345362,-2.7501984,16.08293106,-11.65396572,-2.04546006
6.22,622,-0.217,-0.284,-1.0390000000000001,10.084060800000001,-4.0680017999999984,-3.380452200000001,16.197522659999994,-11.68261362,-2.0912967
6.2299999999999995,623,-0.217,-0.304,-0.981,8.8235532,-4.4117766,-3.3231564,16.29492552,-11.71126152,-2.13713334
6.24,624,-0.213,-0.293,-0.9359999999999999,6.2452422,-3.1512689999999997,-2.9220858,16.36941006,-11.73417984,-2.1772404
6.25,625,-0.213,-0.257,-0.907,4.7555514,-1.6615782,-2.4064236,16.38086922,-11.76282774,-2.19442914
6.26,626,-0.215,-0.24,-0.892,3.6669312000000014,-0.2291832000000001,-1.7188740000000002,16.420976279999998,-11.76282774,-2.21161788
6.27,627,-0.215,-0.244,-0.873,2.1199446,0.2291832000000001,-0.6302538000000001,16.4438946,-11.75709816,-2.21734746
6.28,628,-0.20800000000000002,-0.251,-0.85,-0.6302538000000001,-0.572958,0.6302538000000001,16.438165020000003,-11.76282774,-2.21161788
6.29,629,-0.207,-0.24100000000000002,-0.821,-2.7501984,-1.5469866,1.9480572,16.409517119999997,-11.78574606,-2.20015872
6.3,630,-0.207,-0.222,-0.8029999999999999,-4.1252976000000015,-1.8334656000000005,2.5783110000000002,16.34076216,-11.82585312,-2.1772404
6.31,631,-0.20600000000000002,-0.20800000000000002,-0.807,-4.2398892,-0.7448454000000001,2.5210152000000003,16.29492552,-11.84304186,-2.15432208
6.32,632,-0.20199999999999999,-0.212,-0.835,-4.2398892,0.2291832000000001,2.291832,16.243359299999998,-11.84877144,-2.12567418
6.33,633,-0.18899999999999997,-0.233,-0.875,-4.010706000000001,1.2605076000000002,2.5210152000000003,16.197522659999994,-11.84304186,-2.09702628
6.34,634,-0.175,-0.251,-0.905,-4.1825934,2.6356068,2.5210152000000003,16.15168602,-11.82585312,-2.06837838
6.35,635,-0.16899999999999998,-0.257,-0.9309999999999999,-5.443101,4.4117766,2.4064236,16.060012739999998,-11.774286900000002,-2.02254174
6.36,636,-0.174,-0.24,-0.966,-5.6149884000000005,4.6409598,1.8907614,15.99698736,-11.73417984,-1.98816426
6.37,637,-0.187,-0.223,-1.01,-3.1512689999999997,2.9793816000000004,1.0886202,15.956880300000002,-11.71126152,-1.97097552
6.38,638,-0.203,-0.217,-1.062,-0.1718874,1.145916,0.2291832000000001,15.956880300000002,-11.699802359999998,-1.96524594
6.39,639,-0.214,-0.226,-1.109,3.1512689999999997,0.40107059999999994,-0.9167328000000001,15.991257780000002,-11.69407278,-1.97097552
6.4,640,-0.22,-0.251,-1.136,7.333862400000001,0.572958,-2.5783110000000002,16.04855358,-11.67688404,-1.98816426
6.41,641,-0.203,-0.29100000000000004,-1.123,10.7716104,0.4583664000000001,-3.6096353999999997,16.16887476,-11.6596953,-2.02254174
6.42,642,-0.184,-0.326,-1.063,12.834259199999998,0.057295800000000015,-4.3544808,16.30638468,-11.64250656,-2.06837838
6.43,643,-0.166,-0.325,-0.9740000000000001,10.084060800000001,-1.432395,-4.6409598,16.420976279999998,-11.64250656,-2.1199446
6.4399999999999995,644,-0.156,-0.29,-0.919,7.1046792000000005,-2.5783110000000002,-4.1825934,16.501190400000002,-11.65396572,-2.1657812400000003
6.45,645,-0.174,-0.244,-0.9159999999999999,6.417129599999999,-2.6356068,-3.7815228,16.53556788,-11.66542488,-2.20015872
6.46,646,-0.19399999999999998,-0.231,-0.9279999999999999,6.8182002000000015,-2.4064236,-3.5523396000000003,16.615782,-11.67688404,-2.24599536
6.47,647,-0.20600000000000002,-0.264,-0.903,5.443101,-2.6929026,-2.5210152000000003,16.678807380000002,-11.69407278,-2.28037284
6.4799999999999995,648,-0.203,-0.304,-0.8420000000000001,-0.11459160000000004,-4.010706000000001,-0.7448454000000001,16.678807380000002,-11.72845026,-2.29756158
6.49,649,-0.209,-0.29100000000000004,-0.782,-5.1566220000000005,-4.8701430000000006,1.3750992,16.62724116,-11.78001648,-2.30329116
6.5,650,-0.22399999999999998,-0.252,-0.742,-7.1046792000000005,-4.3544808,2.5783110000000002,16.55275662,-11.84877144,-2.28610242
6.51,651,-0.23,-0.21899999999999997,-0.737,-7.6203414,-3.0939732,2.5210152000000003,16.4725425,-11.8888785,-2.2746432600000004
6.52,652,-0.22,-0.2,-0.7659999999999999,-6.2452422,-1.4896908000000002,2.3491277999999998,16.409517119999997,-11.90606724,-2.25745452
6.53,653,-0.19699999999999998,-0.21,-0.812,-4.010706000000001,0.572958,2.5783110000000002,16.3579509,-11.91179682,-2.22880662
6.54,654,-0.19,-0.228,-0.87,-3.4377480000000005,3.9534102,2.7501984,16.317843840000002,-11.88314892,-2.18869956
6.55,655,-0.212,-0.22,-0.946,-2.3491277999999998,6.3025379999999975,2.1199446,16.208981819999998,-11.84304186,-2.12567418
6.56,656,-0.225,-0.203,-1.046,1.6042823999999998,5.844171599999999,1.6615782,16.22044098,-11.791475639999998,-2.0912967
6.57,657,-0.235,-0.215,-1.137,7.333862400000001,4.1252976000000015,1.0313244000000001,16.28919594,-11.75709816,-2.06837838
6.58,658,-0.23199999999999998,-0.258,-1.166,11.5737516,5.1566220000000005,-0.4583664000000001,16.40378754,-11.699802359999998,-2.05691922
6.59,659,-0.209,-0.322,-1.16,13.6936962,6.1879464,-1.8334656000000005,16.541297460000006,-11.63677698,-2.05691922
6.6,660,-0.162,-0.365,-1.082,10.828906199999999,4.0680017999999984,-2.6929026,16.66161864,-11.562292439999998,-2.07410796
6.61,661,-0.131,-0.345,-1.0170000000000001,6.1879464,1.145916,-2.9793816000000004,16.7303736,-11.545103700000002,-2.10275586
6.62,662,-0.141,-0.284,-1.014,4.6982555999999995,0.4583664000000001,-3.4950437999999995,16.787669400000002,-11.52791496,-2.13713334
6.63,663,-0.16,-0.26,-1.023,5.2139178,-0.11459160000000004,-3.380452200000001,16.844965199999994,-11.516455800000001,-2.1657812400000003
6.64,664,-0.165,-0.297,-0.9620000000000001,1.8334656000000005,-2.4637194,-2.1772404,16.873613100000004,-11.53364454,-2.20015872
6.65,665,-0.163,-0.327,-0.848,-5.9014674000000005,-6.3598338,-0.057295800000000015,16.83923562,-11.59094034,-2.22307704
6.66,666,-0.183,-0.298,-0.78,-11.5737516,-6.703608600000001,1.9480572,16.72464402,-11.66542488,-2.22880662
6.67,667,-0.213,-0.235,-0.726,-11.401864199999999,-5.5576926,2.4064236,16.604322840000002,-11.722720679999998,-2.21734746
6.68,668,-0.21600000000000005,-0.209,-0.69,-10.1986524,-7.1046792000000005,2.3491277999999998,16.501190400000002,-11.79720522,-2.21734746
6.6899999999999995,669,-0.204,-0.192,-0.696,-9.3392154,-7.6203414,2.9793816000000004,16.409517119999997,-11.88314892,-2.21161788
6.7,670,-0.18899999999999997,-0.179,-0.733,-6.4744254,-4.010706000000001,3.3231564,16.317843840000002,-11.934715140000002,-2.18869956
6.71,671,-0.187,-0.183,-0.7909999999999999,-5.042030400000002,1.3750992,2.5783110000000002,16.26054804,-11.934715140000002,-2.16005166
6.72,672,-0.196,-0.184,-0.873,-3.380452200000001,3.7242269999999995,1.6615782,16.22044098,-11.90033766,-2.13140376
6.7299999999999995,673,-0.20800000000000002,-0.17800000000000002,-0.992,-0.11459160000000004,2.0626488000000003,1.3750992,16.214711400000002,-11.8888785,-2.10848544
6.74,674,-0.214,-0.195,-1.077,4.6982555999999995,-0.2291832000000001,1.5469866,16.26054804,-11.89460808,-2.09702628
6.75,675,-0.223,-0.253,-1.119,8.59437,2.5783110000000002,0.0,16.329303000000003,-11.86596018,-2.08556712
6.76,676,-0.21899999999999997,-0.32799999999999996,-1.121,10.026765,6.875496000000001,-2.0053530000000004,16.43243544,-11.791475639999998,-2.07983754
6.77,677,-0.187,-0.3670000000000001,-1.082,7.734933000000002,8.59437,-3.3231564,16.50691998,-11.699802359999998,-2.08556712
6.78,678,-0.159,-0.335,-1.071,4.1252976000000015,6.990087599999999,-3.8388186,16.55275662,-11.62531782,-2.10275586
6.79,679,-0.162,-0.294,-1.085,3.4377480000000005,5.2712136,-3.9534102,16.59286368,-11.562292439999998,-2.12567418
6.8,680,-0.16699999999999998,-0.309,-1.054,1.7761698000000001,2.9793816000000004,-2.9220858,16.604322840000002,-11.48207832,-2.14286292
6.81,681,-0.166,-0.33399999999999996,-0.966,-4.1825934,-1.3750992,-0.6302538000000001,16.56421578,-11.49353748,-2.15432208
6.82,682,-0.18600000000000005,-0.304,-0.8859999999999999,-9.7975818,-3.6669312000000014,1.2032118,16.466812920000002,-11.53364454,-2.15432208
6.83,683,-0.20800000000000002,-0.259,-0.809,-11.172680999999999,-4.0680017999999984,1.432395,16.35222132,-11.579481179999998,-2.15432208
6.84,684,-0.217,-0.228,-0.769,-10.026765,-6.2452422,1.432395,16.254818460000006,-11.64250656,-2.15432208
6.85,685,-0.218,-0.218,-0.765,-7.448453999999999,-7.906820400000001,2.1772404,16.16887476,-11.73990942,-2.15432208
6.86,686,-0.21899999999999997,-0.21100000000000002,-0.78,-5.6149884000000005,-5.958763200000001,2.6929026,16.11157896,-11.80866438,-2.1485925000000003
6.87,687,-0.215,-0.195,-0.8059999999999999,-3.8961144,-2.0053530000000004,2.1199446,16.071471900000002,-11.831582699999998,-2.13140376
6.88,688,-0.215,-0.17300000000000001,-0.866,-1.6615782,0.3437748,1.3178034,16.04855358,-11.831582699999998,-2.1199446
6.89,689,-0.214,-0.155,-0.977,1.5469866,0.1718874,1.0313244000000001,16.06574232,-11.831582699999998,-2.10848544
6.9,690,-0.223,-0.16399999999999998,-1.048,6.1879464,-0.6875496,0.8021411999999999,16.060012739999998,-11.84304186,-2.08556712
6.91,691,-0.22899999999999998,-0.217,-1.111,10.886202,-0.286479,-0.5156622000000001,16.16887476,-11.84304186,-2.0912967
6.92,692,-0.217,-0.307,-1.124,13.0061466,3.0939732,-1.6042823999999998,16.30638468,-11.80866438,-2.09702628
6.93,693,-0.192,-0.354,-1.105,11.745639,5.7868758000000025,-3.0939732,16.426705860000002,-11.745639,-2.10848544
6.9399999999999995,694,-0.177,-0.335,-1.095,9.224623800000002,5.958763200000001,-4.0680017999999984,16.524108719999994,-11.67688404,-2.13140376
6.95,695,-0.182,-0.307,-1.094,8.59437,5.1566220000000005,-4.1825934,16.604322840000002,-11.602399499999999,-2.15432208
6.96,696,-0.18600000000000005,-0.307,-1.067,7.0473834,2.2345362,-3.8388186,16.678807380000002,-11.56802202,-2.18296998
6.97,697,-0.162,-0.33899999999999997,-0.9590000000000001,1.8334656000000005,-1.6042823999999998,-2.1199446,16.701725699999994,-11.579481179999998,-2.21161788
6.9799999999999995,698,-0.149,-0.348,-0.877,-5.5003968,-5.2139178,0.4583664000000001,16.650159480000006,-11.631047399999998,-2.22307704
6.99,699,-0.172,-0.315,-0.794,-11.9748222,-5.0993262,2.86479,16.5298383,-11.688343199999998,-2.21161788
7.0,700,-0.2,-0.254,-0.7290000000000001,-15.6417534,-4.0680017999999984,3.3231564,16.36368048,-11.75136858,-2.18869956
7.01,701,-0.19699999999999998,-0.21899999999999997,-0.6859999999999999,-15.469866,-6.3025379999999975,3.8388186,16.20325224,-11.82012354,-2.17151082
7.02,702,-0.19,-0.23,-0.65,-16.1001198,-8.651665800000002,5.5576926,16.03709442,-11.92325598,-2.14286292
7.03,703,-0.188,-0.205,-0.647,-18.048177,-6.990087599999999,7.1046792000000005,15.8422887,-12.00919968,-2.0912967
7.04,704,-0.19899999999999998,-0.152,-0.698,-14.8396122,-1.4896908000000002,5.9014674000000005,15.68186046,-12.04357716,-2.03973048
7.05,705,-0.196,-0.131,-0.792,-10.084060800000001,3.1512689999999997,3.4377480000000005,15.52143222,-12.032117999999999,-1.98243468
7.06,706,-0.192,-0.152,-0.8540000000000001,-5.844171599999999,3.6096353999999997,2.4064236,15.452677260000002,-12.0034701,-1.9480572000000005
7.07,707,-0.18600000000000005,-0.17800000000000002,-0.9329999999999999,-4.1825934,3.6669312000000014,2.2345362,15.40684062,-11.9748222,-1.91367972
7.08,708,-0.20600000000000002,-0.18100000000000002,-1.021,-2.291832,5.5003968,1.9480572,15.37246314,-11.92898556,-1.87930224
7.09,709,-0.218,-0.175,-1.137,2.3491277999999998,8.7662574,1.0313244000000001,15.38965188,-11.84877144,-1.84492476
7.1,710,-0.223,-0.196,-1.256,12.0894138,10.084060800000001,-1.432395,15.498513899999999,-11.745639,-1.82200644
7.11,711,-0.235,-0.254,-1.365,21.886995600000002,10.1413566,-4.4690724,15.721967520000002,-11.631047399999998,-1.83919518
7.12,712,-0.249,-0.33399999999999996,-1.371,24.350715,9.224623800000002,-7.0473834,15.974069039999998,-11.52218538,-1.87930224
7.13,713,-0.20600000000000002,-0.389,-1.2690000000000001,20.8556712,5.72958,-7.2192707999999985,16.197522659999994,-11.44770084,-1.93659804
7.14,714,-0.166,-0.38299999999999995,-1.167,16.4438946,1.9480572,-7.6203414,16.37513964,-11.401864199999999,-2.005353
7.15,715,-0.153,-0.35200000000000004,-1.087,13.2353298,-0.8594370000000001,-7.6776372,16.5298383,-11.3732163,-2.08556712
7.16,716,-0.17,-0.331,-1.037,13.2926256,-2.7501984,-6.417129599999999,16.678807380000002,-11.37894588,-2.15432208
7.17,717,-0.183,-0.316,-0.9740000000000001,11.1153852,-5.72958,-5.0993262,16.80485814,-11.41905294,-2.22307704
7.18,718,-0.19,-0.317,-0.8859999999999999,5.3858052,-9.1100322,-3.2658606,16.873613100000004,-11.49353748,-2.28610242
7.1899999999999995,719,-0.185,-0.319,-0.795,-1.8907614,-13.120738199999998,-0.286479,16.86215394,-11.613858660000002,-2.33193906
7.2,720,-0.19,-0.31,-0.703,-9.167328,-14.32395,3.0939732,16.787669400000002,-11.76855732,-2.3491278
7.21,721,-0.213,-0.253,-0.596,-14.037471,-13.521808800000002,4.2398892,16.650159480000006,-11.91179682,-2.3491278
7.22,722,-0.204,-0.192,-0.509,-18.8503182,-15.3552744,5.3285094000000015,16.461083340000002,-12.07222506,-2.34339822
7.2299999999999995,723,-0.191,-0.157,-0.511,-17.3606274,-13.120738199999998,7.6203414,16.27773678,-12.22119414,-2.30902074
7.24,724,-0.193,-0.138,-0.563,-13.8082878,-6.5317212,7.2192707999999985,16.1287677,-12.30713784,-2.25745452
7.25,725,-0.18600000000000005,-0.139,-0.652,-10.084060800000001,-0.8021411999999999,5.3858052,15.99698736,-12.33578574,-2.2058883
7.26,726,-0.191,-0.156,-0.721,-8.7089616,0.9167328000000001,4.4690724,15.8995845,-12.34151532,-2.16005166
7.27,727,-0.192,-0.17,-0.7829999999999999,-8.7662574,0.4583664000000001,4.4690724,15.80218164,-12.35297448,-2.10848544
7.28,728,-0.21100000000000002,-0.165,-0.861,-7.9641161999999985,1.7761698000000001,4.6409598,15.71050836,-12.347244899999998,-2.0626488000000003
7.29,729,-0.249,-0.149,-0.987,-5.2712136,6.2452422,3.8961144,15.6417534,-12.30140826,-1.99962342
7.3,730,-0.242,-0.17300000000000001,-1.153,3.0939732,13.5791046,1.5469866,15.6417534,-12.16962792,-1.94232762
7.31,731,-0.22,-0.242,-1.3090000000000002,12.834259199999998,17.7044022,-1.0313244000000001,15.756345000000001,-11.99774052,-1.89649098
7.32,732,-0.193,-0.332,-1.37,16.042824000000003,19.136797199999997,-3.6669312000000014,15.91677324,-11.80866438,-1.87930224
7.33,733,-0.145,-0.406,-1.3159999999999998,13.8082878,15.928232399999999,-5.1566220000000005,16.05428316,-11.64250656,-1.87930224
