TimeStamp(s),FrameCounter,AccX,AccY,AccZ,GyrX,GyrY,GyrZ,EulerX,EulerY,EulerZ
0.01,1,0.094,-0.976,0.231,0.286479,-0.4583664000000001,-0.2291832000000001,101.88339156,6.428588760000001,11.25289512
0.02,2,0.085,-0.975,0.237,0.1718874,-0.1718874,0.5156622000000001,101.88339156,6.428588760000001,11.25289512
0.03,3,0.085,-0.976,0.23800000000000002,0.1718874,0.11459160000000004,0.3437748,101.88912114,6.4228591800000014,11.25289512
0.04,4,0.085,-0.977,0.235,0.2291832000000001,0.1718874,0.286479,101.88912114,6.417129600000001,11.25289512
0.05,5,0.084,-0.98,0.235,0.286479,0.0,0.1718874,101.95214652,6.2796196800000015,11.25289512
0.060000000000000005,6,0.085,-0.981,0.23600000000000002,0.2291832000000001,0.0,0.11459160000000004,101.9578761,6.2796196800000015,11.25289512
0.06999999999999999,7,0.085,-0.983,0.23600000000000002,0.2291832000000001,0.0,0.057295800000000015,101.9578761,6.2738901,11.25289512
0.08,8,0.086,-0.983,0.235,0.2291832000000001,0.057295800000000015,0.11459160000000004,101.96360568,6.2738901,11.25289512
0.09,9,0.087,-0.983,0.235,0.1718874,0.0,0.11459160000000004,101.96360568,6.2738901,11.25289512
0.09999999999999999,10,0.086,-0.983,0.23399999999999999,0.2291832000000001,0.0,0.0,102.00371274,6.1020027,11.258624699999999
0.11,11,0.084,-0.983,0.235,0.2291832000000001,-0.057295800000000015,0.0,102.00944232,6.1020027,11.258624699999999
0.12,12,0.085,-0.981,0.23399999999999999,0.2291832000000001,-0.057295800000000015,-0.057295800000000015,102.00944232,6.1020027,11.258624699999999
0.13,13,0.084,-0.982,0.235,0.286479,-0.2291832000000001,-0.057295800000000015,102.0151719,6.1020027,11.258624699999999
0.14,14,0.085,-0.983,0.235,0.286479,-0.1718874,-0.057295800000000015,102.0151719,6.1020027,11.25289512
0.15000000000000002,15,0.085,-0.98,0.235,0.286479,0.0,-0.11459160000000004,102.05527896,6.016058999999999,11.25289512
0.16,16,0.086,-0.9790000000000001,0.235,0.286479,0.1718874,-0.057295800000000015,102.06100854,6.016058999999999,11.258624699999999
0.17,17,0.086,-0.9790000000000001,0.23600000000000002,0.2291832000000001,0.3437748,-0.11459160000000004,102.06100854,6.016058999999999,11.258624699999999
0.18000000000000002,18,0.087,-0.9790000000000001,0.237,0.286479,0.3437748,-0.1718874,102.06673812,6.016058999999999,11.26435428
0.19,19,0.087,-0.978,0.237,0.2291832000000001,0.11459160000000004,-0.286479,102.06673812,6.02178858,11.26435428
0.2,20,0.087,-0.977,0.239,0.286479,0.11459160000000004,-0.286479,102.11257476,5.96449278,11.26435428
0.21000000000000002,21,0.087,-0.976,0.237,0.286479,0.0,-0.40107059999999994,102.11257476,5.97022236,11.26435428
0.22,22,0.087,-0.976,0.23800000000000002,0.286479,0.0,-0.40107059999999994,102.11830434,5.97595194,11.26435428
0.23,23,0.08800000000000001,-0.9740000000000001,0.24,0.286479,0.11459160000000004,-0.3437748,102.12403392000002,5.97595194,11.27008386
0.24000000000000002,24,0.087,-0.973,0.24100000000000002,0.286479,0.0,-0.3437748,102.12403392000002,5.98168152,11.27008386
0.25,25,0.08800000000000001,-0.973,0.24,0.4583664000000001,0.057295800000000015,-0.40107059999999994,102.16414098,5.958763200000001,11.26435428
0.26,26,0.08800000000000001,-0.973,0.239,0.5156622000000001,0.057295800000000015,-0.5156622000000001,102.16987056,5.96449278,11.27008386
0.27,27,0.08900000000000001,-0.9740000000000001,0.239,0.572958,0.057295800000000015,-0.572958,102.17560014,5.97022236,11.27008386
0.28,28,0.08800000000000001,-0.9740000000000001,0.24,0.572958,0.0,-0.6302538000000001,102.18132972,5.97595194,11.27008386
0.29000000000000004,29,0.08900000000000001,-0.975,0.24100000000000002,0.572958,0.0,-0.6302538000000001,102.18705930000002,5.98168152,11.27581344
0.3,30,0.09,-0.976,0.242,0.572958,0.11459160000000004,-0.6875496,102.21570720000001,5.97022236,11.27581344
0.31,31,0.09,-0.977,0.24100000000000002,0.572958,0.2291832000000001,-0.6875496,102.22143678,5.98168152,11.27581344
0.32,32,0.09,-0.976,0.239,0.6302538000000001,0.057295800000000015,-0.6302538000000001,102.23289594,5.9874111,11.28154302
0.33,33,0.092,-0.978,0.24,0.6875496,-0.11459160000000004,-0.572958,102.23862552,5.9931406800000016,11.28154302
0.34,34,0.09300000000000001,-0.9790000000000001,0.242,0.6302538000000001,-0.3437748,-0.572958,102.2443551,5.99887026,11.27581344
0.35000000000000003,35,0.09300000000000001,-0.98,0.239,0.6302538000000001,-0.4583664000000001,-0.40107059999999994,102.26727342,5.9931406800000016,11.27008386
0.36000000000000004,36,0.092,-0.98,0.24,0.572958,-0.3437748,-0.5156622000000001,102.273003,5.99887026,11.27008386
0.37,37,0.091,-0.9790000000000001,0.239,0.4583664000000001,-0.4583664000000001,-0.572958,102.273003,6.00459984,11.26435428
0.38,38,0.091,-0.983,0.23800000000000002,0.4583664000000001,-0.7448454000000001,-0.5156622000000001,102.27873258,6.016058999999999,11.258624699999999
0.39,39,0.091,-0.9840000000000001,0.24,0.40107059999999994,-0.6875496,-0.4583664000000001,102.28446216,6.02178858,11.25289512
0.4,40,0.09,-0.983,0.23800000000000002,0.3437748,-0.4583664000000001,-0.286479,102.30165090000001,5.9874111,11.25289512
0.41000000000000003,41,0.08900000000000001,-0.98,0.23800000000000002,0.40107059999999994,-0.4583664000000001,-0.286479,102.30165090000001,5.9931406800000016,11.24716554
0.42000000000000004,42,0.09,-0.977,0.24100000000000002,0.057295800000000015,-0.4583664000000001,0.0,102.30165090000001,5.9931406800000016,11.24143596
0.43,43,0.092,-0.976,0.24100000000000002,-0.286479,-0.40107059999999994,0.057295800000000015,102.30165090000001,5.9931406800000016,11.23570638
0.44,44,0.09300000000000001,-0.976,0.242,-0.3437748,-0.3437748,0.11459160000000004,102.29592132,5.9931406800000016,11.23570638
0.45,45,0.095,-0.9790000000000001,0.24100000000000002,-0.3437748,-0.286479,0.057295800000000015,102.31883964,5.98168152,11.22424722
0.46,46,0.095,-0.981,0.242,-0.3437748,-0.6302538000000001,0.11459160000000004,102.31311006,5.9874111,11.21851764
0.47000000000000003,47,0.095,-0.982,0.242,-0.3437748,-0.9167328000000001,0.11459160000000004,102.31311006,5.9874111,11.20705848
0.48000000000000004,48,0.096,-0.981,0.242,-0.40107059999999994,-1.0313244000000001,0.2291832000000001,102.30738048,5.9874111,11.19559932
0.49,49,0.095,-0.978,0.242,-0.4583664000000001,-0.9740286,0.2291832000000001,102.30165090000001,5.9874111,11.18986974
0.5,50,0.09300000000000001,-0.978,0.24100000000000002,-0.4583664000000001,-0.7448454000000001,0.2291832000000001,102.31311006,5.97595194,11.17841058
0.51,51,0.09300000000000001,-0.976,0.243,-0.4583664000000001,-0.572958,0.1718874,102.30738048,5.97595194,11.172680999999999
0.52,52,0.09300000000000001,-0.9740000000000001,0.24100000000000002,-0.3437748,-0.40107059999999994,0.1718874,102.30738048,5.97022236,11.16695142
0.53,53,0.092,-0.9740000000000001,0.239,-0.2291832000000001,-0.11459160000000004,0.286479,102.30165090000001,5.97022236,11.16122184
0.54,54,0.09300000000000001,-0.975,0.237,-0.1718874,-0.057295800000000015,0.3437748,102.30165090000001,5.96449278,11.16122184
0.55,55,0.095,-0.9740000000000001,0.23800000000000002,-0.057295800000000015,-0.057295800000000015,0.5156622000000001,102.32456922,5.96449278,11.15549226
0.56,56,0.095,-0.973,0.237,0.0,-0.1718874,0.572958,102.32456922,5.958763200000001,11.149762679999998
0.5700000000000001,57,0.096,-0.972,0.23800000000000002,0.0,-0.3437748,0.6302538000000001,102.32456922,5.9530336199999985,11.1440331
0.5800000000000001,58,0.094,-0.971,0.239,0.057295800000000015,-0.572958,0.6302538000000001,102.32456922,5.9473040400000015,11.13830352
0.59,59,0.094,-0.972,0.24,0.057295800000000015,-0.5156622000000001,0.5156622000000001,102.32456922,5.94157446,11.13257394
0.6,60,0.095,-0.972,0.24,0.057295800000000015,-0.40107059999999994,0.5156622000000001,102.34748754,5.93584488,11.12111478
0.61,61,0.096,-0.9740000000000001,0.239,0.057295800000000015,-0.286479,0.5156622000000001,102.34748754,5.930115299999999,11.12111478
0.62,62,0.095,-0.975,0.23800000000000002,0.2291832000000001,-0.4583664000000001,0.5156622000000001,102.35321712,5.92438572,11.109655620000002
0.63,63,0.094,-0.976,0.24,0.3437748,-0.3437748,0.286479,102.35321712,5.92438572,11.109655620000002
0.64,64,0.092,-0.976,0.242,0.2291832000000001,-0.286479,0.1718874,102.3589467,5.92438572,11.10392604
0.65,65,0.09300000000000001,-0.977,0.239,0.1718874,-0.1718874,0.1718874,102.38186502,5.895737819999999,11.09819646
0.66,66,0.09300000000000001,-0.9790000000000001,0.24,0.3437748,-0.3437748,0.2291832000000001,102.3875946,5.895737819999999,11.09819646
0.67,67,0.09300000000000001,-0.982,0.239,0.40107059999999994,-0.5156622000000001,0.2291832000000001,102.3875946,5.895737819999999,11.09246688
0.68,68,0.095,-0.983,0.24,0.3437748,-0.5156622000000001,0.1718874,102.39332418,5.89000824,11.086737300000001
0.6900000000000001,69,0.095,-0.9840000000000001,0.24100000000000002,0.3437748,-0.6302538000000001,0.286479,102.39332418,5.89000824,11.07527814
0.7000000000000001,70,0.09699999999999999,-0.983,0.24,0.2291832000000001,-0.7448454000000001,0.3437748,102.40478334000002,5.89000824,11.06954856
0.7100000000000001,71,0.095,-0.983,0.24100000000000002,0.11459160000000004,-0.7448454000000001,0.286479,102.40478334000002,5.89000824,11.0580894
0.72,72,0.094,-0.981,0.242,0.057295800000000015,-0.8021411999999999,0.2291832000000001,102.40478334000002,5.89000824,11.05235982
0.73,73,0.092,-0.98,0.242,0.11459160000000004,-0.5156622000000001,0.0,102.40478334000002,5.89000824,11.04663024
0.74,74,0.08800000000000001,-0.978,0.24100000000000002,0.057295800000000015,-0.286479,-0.11459160000000004,102.40478334000002,5.89000824,11.04663024
0.75,75,0.087,-0.978,0.24100000000000002,0.0,-0.11459160000000004,-0.11459160000000004,102.48499746,5.77541664,11.03517108
0.76,76,0.08900000000000001,-0.977,0.24100000000000002,-0.057295800000000015,0.0,-0.1718874,102.48499746,5.77541664,11.04090066
0.77,77,0.08900000000000001,-0.976,0.242,0.0,0.0,-0.11459160000000004,102.48499746,5.781146219999999,11.04090066
0.78,78,0.09,-0.976,0.242,0.0,0.11459160000000004,-0.11459160000000004,102.48499746,5.781146219999999,11.04090066
0.79,79,0.09300000000000001,-0.975,0.243,0.0,0.1718874,-0.1718874,102.48499746,5.781146219999999,11.04090066
0.8,80,0.09300000000000001,-0.9740000000000001,0.24100000000000002,0.0,0.286479,-0.1718874,102.51364535999998,5.77541664,11.04090066
0.81,81,0.091,-0.973,0.24100000000000002,0.0,0.2291832000000001,-0.11459160000000004,102.51937494,5.77541664,11.04663024
0.8200000000000001,82,0.091,-0.972,0.24100000000000002,0.057295800000000015,0.3437748,-0.1718874,102.51937494,5.77541664,11.05235982
0.8300000000000001,83,0.09,-0.973,0.242,0.057295800000000015,0.4583664000000001,-0.2291832000000001,102.51937494,5.77541664,11.05235982
0.8400000000000001,84,0.08800000000000001,-0.973,0.242,0.11459160000000004,0.5156622000000001,-0.3437748,102.51937494,5.77541664,11.06381898
0.85,85,0.087,-0.973,0.242,0.057295800000000015,0.6875496,-0.40107059999999994,102.5308341,5.76395748,11.06954856
0.86,86,0.08900000000000001,-0.9740000000000001,0.242,0.11459160000000004,0.8021411999999999,-0.40107059999999994,102.53656368,5.76968706,11.07527814
0.87,87,0.091,-0.975,0.242,0.057295800000000015,0.8021411999999999,-0.40107059999999994,102.53656368,5.76968706,11.086737300000001
0.88,88,0.094,-0.975,0.24100000000000002,0.11459160000000004,0.7448454000000001,-0.3437748,102.53656368,5.76968706,11.09246688
0.89,89,0.095,-0.975,0.242,0.11459160000000004,0.5156622000000001,-0.286479,102.54229326,5.77541664,11.09819646
0.9,90,0.094,-0.975,0.243,0.057295800000000015,0.4583664000000001,-0.3437748,102.55948199999999,5.76968706,11.10392604
0.91,91,0.094,-0.977,0.244,0.0,0.5156622000000001,-0.4583664000000001,102.55948199999999,5.77541664,11.109655620000002
0.92,92,0.091,-0.976,0.244,0.0,0.5156622000000001,-0.5156622000000001,102.55948199999999,5.77541664,11.1153852
0.93,93,0.091,-0.9790000000000001,0.245,0.0,0.6302538000000001,-0.6302538000000001,102.55948199999999,5.781146219999999,11.12684436
0.9400000000000001,94,0.092,-0.98,0.244,-0.11459160000000004,0.572958,-0.4583664000000001,102.55948199999999,5.7868758,11.13257394
0.9500000000000001,95,0.09300000000000001,-0.978,0.243,-0.1718874,0.8021411999999999,-0.5156622000000001,102.56521158,5.7868758,11.13830352
0.9600000000000001,96,0.094,-0.98,0.243,-0.1718874,0.8594370000000001,-0.572958,102.56521158,5.7868758,11.149762679999998
0.97,97,0.095,-0.98,0.242,-0.11459160000000004,0.9167328000000001,-0.5156622000000001,102.56521158,5.79260538,11.16122184
0.98,98,0.095,-0.98,0.243,-0.1718874,0.6875496,-0.5156622000000001,102.56521158,5.79833496,11.16695142
0.99,99,0.09300000000000001,-0.98,0.244,-0.286479,0.6875496,-0.572958,102.55948199999999,5.79833496,11.17841058
1.0,100,0.09300000000000001,-0.977,0.24,-0.3437748,0.6302538000000001,-0.572958,102.55375242,5.79833496,11.18414016
1.01,101,0.094,-0.975,0.24100000000000002,-0.40107059999999994,0.2291832000000001,-0.5156622000000001,102.55375242,5.80406454,11.18986974
1.02,102,0.096,-0.9740000000000001,0.245,-0.4583664000000001,0.2291832000000001,-0.5156622000000001,102.54802284,5.80979412,11.18986974
1.03,103,0.096,-0.975,0.245,-0.7448454000000001,0.5156622000000001,-0.6875496,102.54229326,5.815523699999999,11.2013289
1.04,104,0.09699999999999999,-0.978,0.245,-0.7448454000000001,0.7448454000000001,-0.8021411999999999,102.5308341,5.82125328,11.20705848
1.05,105,0.099,-0.983,0.24600000000000002,-0.6302538000000001,0.8594370000000001,-0.8021411999999999,102.53656368,5.83271244,11.21278806
1.06,106,0.098,-0.982,0.24600000000000002,-0.7448454000000001,0.40107059999999994,-0.6302538000000001,102.5308341,5.83844202,11.21851764
1.07,107,0.09699999999999999,-0.981,0.245,-0.7448454000000001,0.057295800000000015,-0.5156622000000001,102.52510452,5.83844202,11.22424722
1.08,108,0.09699999999999999,-0.9790000000000001,0.24600000000000002,-0.8021411999999999,0.1718874,-0.4583664000000001,102.51364535999998,5.844171599999999,11.22424722
1.09,109,0.09699999999999999,-0.976,0.244,-0.8021411999999999,0.40107059999999994,-0.5156622000000001,102.50791578,5.849901179999999,11.229976800000001
1.1,110,0.09699999999999999,-0.9740000000000001,0.244,-0.7448454000000001,0.5156622000000001,-0.572958,102.51364535999998,5.85563076,11.23570638
1.11,111,0.09699999999999999,-0.97,0.245,-0.6302538000000001,0.572958,-0.7448454000000001,102.50791578,5.861360339999999,11.24143596
1.12,112,0.09699999999999999,-0.9690000000000001,0.243,-0.6302538000000001,0.286479,-0.7448454000000001,102.5021862,5.86708992,11.24716554
1.1300000000000001,113,0.09699999999999999,-0.971,0.24100000000000002,-0.3437748,-0.3437748,-0.4583664000000001,102.49645662,5.8728194999999985,11.24716554
1.1400000000000001,114,0.096,-0.971,0.24100000000000002,-0.1718874,-0.572958,-0.3437748,102.49645662,5.87854908,11.24143596
1.1500000000000001,115,0.096,-0.971,0.242,-0.11459160000000004,-0.572958,-0.40107059999999994,102.51364535999998,5.88427866,11.229976800000001
1.1600000000000001,116,0.095,-0.97,0.243,-0.11459160000000004,-0.572958,-0.5156622000000001,102.51364535999998,5.89000824,11.229976800000001
1.17,117,0.096,-0.971,0.243,-0.11459160000000004,-0.5156622000000001,-0.6302538000000001,102.50791578,5.895737819999999,11.22424722
1.18,118,0.098,-0.972,0.24100000000000002,-0.11459160000000004,-0.4583664000000001,-0.6302538000000001,102.50791578,5.90719698,11.21851764
1.19,119,0.098,-0.973,0.24100000000000002,-0.11459160000000004,-0.572958,-0.572958,102.50791578,5.9129265600000025,11.21851764
1.2,120,0.099,-0.975,0.24100000000000002,-0.11459160000000004,-0.7448454000000001,-0.5156622000000001,102.51364535999998,5.92438572,11.20705848
1.21,121,0.1,-0.975,0.24,-0.057295800000000015,-0.9167328000000001,-0.5156622000000001,102.51364535999998,5.930115299999999,11.2013289
1.22,122,0.099,-0.976,0.242,-0.1718874,-0.9740286,-0.6302538000000001,102.50791578,5.94157446,11.18986974
1.23,123,0.096,-0.977,0.24100000000000002,-0.1718874,-0.8594370000000001,-0.572958,102.50791578,5.9473040400000015,11.18414016
1.24,124,0.096,-0.9790000000000001,0.243,-0.1718874,-0.572958,-0.4583664000000001,102.5021862,5.9530336199999985,11.17841058
1.25,125,0.09699999999999999,-0.98,0.242,-0.1718874,-0.286479,-0.4583664000000001,102.51364535999998,5.958763200000001,11.17841058
1.26,126,0.099,-0.981,0.242,-0.1718874,-0.1718874,-0.4583664000000001,102.51364535999998,5.96449278,11.172680999999999
1.27,127,0.102,-0.982,0.243,-0.2291832000000001,-0.286479,-0.2291832000000001,102.51364535999998,5.97022236,11.172680999999999
1.28,128,0.10300000000000001,-0.982,0.24100000000000002,-0.2291832000000001,-0.6875496,-0.057295800000000015,102.50791578,5.97022236,11.16695142
1.29,129,0.10400000000000001,-0.981,0.242,-0.286479,-0.9167328000000001,0.0,102.5021862,5.97595194,11.15549226
1.3,130,0.10400000000000001,-0.98,0.243,-0.4583664000000001,-1.0886202,0.0,102.50791578,5.9874111,11.1440331
1.31,131,0.10099999999999999,-0.98,0.244,-0.4583664000000001,-0.9167328000000001,-0.057295800000000015,102.5021862,5.9874111,11.13830352
1.32,132,0.099,-0.978,0.244,-0.4583664000000001,-0.572958,-0.1718874,102.49645662,5.9931406800000016,11.13257394
1.33,133,0.09699999999999999,-0.978,0.244,-0.4583664000000001,-0.2291832000000001,-0.1718874,102.49072704,5.9931406800000016,11.12684436
1.34,134,0.098,-0.976,0.245,-0.3437748,0.0,-0.057295800000000015,102.49072704,5.99887026,11.12684436
1.35,135,0.1,-0.977,0.243,-0.3437748,0.11459160000000004,0.057295800000000015,102.50791578,6.01032942,11.12684436
1.36,136,0.10300000000000001,-0.9740000000000001,0.244,-0.2291832000000001,0.057295800000000015,0.1718874,102.50791578,6.00459984,11.12684436
1.37,137,0.106,-0.973,0.242,-0.2291832000000001,0.057295800000000015,0.1718874,102.50791578,6.00459984,11.12684436
1.3800000000000001,138,0.109,-0.972,0.24,-0.2291832000000001,0.0,0.286479,102.5021862,5.99887026,11.12684436
1.3900000000000001,139,0.11,-0.973,0.24,-0.1718874,-0.1718874,0.3437748,102.5021862,5.99887026,11.12111478
1.4000000000000001,140,0.10800000000000001,-0.973,0.24,-0.11459160000000004,-0.3437748,0.3437748,102.51364535999998,6.0275181600000005,11.1153852
1.4100000000000001,141,0.107,-0.972,0.24100000000000002,-0.11459160000000004,-0.5156622000000001,0.40107059999999994,102.51364535999998,6.02178858,11.109655620000002
1.42,142,0.107,-0.972,0.24100000000000002,0.0,-0.4583664000000001,0.3437748,102.51364535999998,6.02178858,11.10392604
1.43,143,0.10400000000000001,-0.972,0.242,0.0,-0.3437748,0.2291832000000001,102.51364535999998,6.02178858,11.09819646
1.44,144,0.10300000000000001,-0.972,0.24100000000000002,0.0,-0.057295800000000015,0.1718874,102.51364535999998,6.016058999999999,11.09819646
1.45,145,0.105,-0.972,0.242,0.0,-0.1718874,0.1718874,102.54802284,6.05043648,11.086737300000001
1.46,146,0.105,-0.973,0.242,0.11459160000000004,-0.286479,0.3437748,102.54802284,6.05043648,11.086737300000001
1.47,147,0.10800000000000001,-0.9740000000000001,0.242,0.11459160000000004,-0.2291832000000001,0.3437748,102.54802284,6.0447069,11.08100772
1.48,148,0.109,-0.9740000000000001,0.24100000000000002,0.057295800000000015,-0.3437748,0.2291832000000001,102.54802284,6.0447069,11.07527814
1.49,149,0.109,-0.975,0.24,0.2291832000000001,-0.40107059999999994,0.286479,102.55375242,6.0447069,11.06954856
1.5,150,0.10800000000000001,-0.976,0.24100000000000002,0.286479,-0.4583664000000001,0.286479,102.56521158,6.067625219999999,11.06381898
1.51,151,0.105,-0.977,0.242,0.286479,-0.4583664000000001,0.2291832000000001,102.57094116,6.06189564,11.0580894
1.52,152,0.10400000000000001,-0.978,0.24,0.2291832000000001,-0.4583664000000001,0.2291832000000001,102.57094116,6.06189564,11.05235982
1.53,153,0.10300000000000001,-0.977,0.24,0.3437748,-0.3437748,0.2291832000000001,102.57094116,6.06189564,11.05235982
1.54,154,0.106,-0.978,0.23800000000000002,0.3437748,0.1718874,0.11459160000000004,102.57667073999998,6.06189564,11.05235982
1.55,155,0.107,-0.978,0.23800000000000002,0.286479,0.286479,0.11459160000000004,102.57667073999998,6.08481396,11.05235982
1.56,156,0.107,-0.9790000000000001,0.23800000000000002,0.4583664000000001,0.2291832000000001,0.11459160000000004,102.58240032,6.0790843799999985,11.0580894
1.57,157,0.10800000000000001,-0.9790000000000001,0.239,0.3437748,0.1718874,0.1718874,102.5881299,6.0790843799999985,11.0580894
1.58,158,0.109,-0.977,0.237,0.2291832000000001,0.0,0.1718874,102.5881299,6.0790843799999985,11.0580894
1.59,159,0.113,-0.975,0.23800000000000002,0.1718874,-0.572958,0.11459160000000004,102.5881299,6.0790843799999985,11.05235982
1.6,160,0.113,-0.973,0.242,0.0,-1.5469866,0.0,102.59958906,6.09627312,11.03517108
1.61,161,0.111,-0.973,0.243,-0.286479,-1.9480572,-0.11459160000000004,102.59385948,6.1077322800000005,11.01225276
1.62,162,0.106,-0.9740000000000001,0.239,-0.5156622000000001,-1.5469866,-0.2291832000000001,102.5881299,6.113461859999999,11.0007936
1.6300000000000001,163,0.10300000000000001,-0.981,0.24,-0.40107059999999994,-0.8021411999999999,-0.2291832000000001,102.58240032,6.113461859999999,10.98933444
1.6400000000000001,164,0.099,-0.983,0.242,-0.3437748,-0.6302538000000001,-0.1718874,102.57667073999998,6.11919144,10.98360486
1.6500000000000001,165,0.098,-0.9840000000000001,0.24100000000000002,-0.2291832000000001,-0.6875496,0.057295800000000015,102.57094116,6.113461859999999,10.97787528
1.6600000000000001,166,0.102,-0.982,0.242,-0.1718874,-0.40107059999999994,0.2291832000000001,102.57094116,6.113461859999999,10.972145699999999
1.6700000000000002,167,0.10400000000000001,-0.9790000000000001,0.24,-0.286479,0.0,0.286479,102.56521158,6.1077322800000005,10.972145699999999
1.68,168,0.105,-0.975,0.239,-0.286479,0.6875496,0.286479,102.56521158,6.1077322800000005,10.98360486
1.69,169,0.10400000000000001,-0.972,0.239,-0.1718874,1.0313244000000001,0.2291832000000001,102.56521158,6.1020027,10.98933444
1.7,170,0.105,-0.971,0.23800000000000002,0.057295800000000015,1.5469866,0.057295800000000015,102.56521158,6.1077322800000005,11.00652318
1.71,171,0.106,-0.971,0.237,0.2291832000000001,1.8334656000000005,0.0,102.57094116,6.1020027,11.02371192
1.72,172,0.107,-0.971,0.235,0.286479,1.8907614,0.0,102.57667073999998,6.09627312,11.04090066
1.73,173,0.109,-0.971,0.23399999999999999,0.1718874,1.8334656000000005,-0.057295800000000015,102.57667073999998,6.09054354,11.0580894
1.74,174,0.111,-0.9690000000000001,0.23399999999999999,0.2291832000000001,1.6615782,-0.057295800000000015,102.58240032,6.09054354,11.07527814
1.75,175,0.111,-0.97,0.23399999999999999,0.40107059999999994,1.432395,-0.11459160000000004,102.5881299,6.1077322800000005,11.09246688
1.76,176,0.11199999999999999,-0.97,0.233,0.572958,1.3750992,-0.1718874,102.59385948,6.1077322800000005,11.10392604
1.77,177,0.113,-0.9690000000000001,0.23399999999999999,0.4583664000000001,1.3178034,-0.3437748,102.59958906,6.1077322800000005,11.1153852
1.78,178,0.11199999999999999,-0.972,0.235,0.7448454000000001,1.3178034,-0.286479,102.60531864,6.1077322800000005,11.13257394
1.79,179,0.113,-0.973,0.23600000000000002,0.8594370000000001,1.432395,-0.286479,102.6167778,6.1077322800000005,11.149762679999998
1.8,180,0.113,-0.973,0.23600000000000002,1.0313244000000001,1.6042823999999998,-0.286479,102.62823696,6.11919144,11.16122184
1.81,181,0.11199999999999999,-0.971,0.23800000000000002,1.0313244000000001,1.5469866,-0.3437748,102.63969612,6.11919144,11.17841058
1.82,182,0.109,-0.972,0.24,1.0886202,1.7188740000000002,-0.4583664000000001,102.65688486000002,6.11919144,11.19559932
1.83,183,0.11,-0.9740000000000001,0.24100000000000002,1.145916,2.0626488000000003,-0.5156622000000001,102.66834402,6.11919144,11.21851764
1.84,184,0.11199999999999999,-0.975,0.24100000000000002,1.0886202,2.4064236,-0.7448454000000001,102.67980318,6.11919144,11.24716554
1.85,185,0.114,-0.978,0.242,1.2032118,2.86479,-0.8021411999999999,102.69699192,6.130650600000001,11.27581344
1.86,186,0.11599999999999999,-0.98,0.242,1.0886202,3.3231564,-0.8594370000000001,102.71418065999998,6.130650600000001,11.31019092
1.87,187,0.11800000000000001,-0.981,0.239,0.9740286,3.380452200000001,-0.9740286,102.72563982,6.130650600000001,11.3445684
1.8800000000000001,188,0.121,-0.98,0.237,0.8594370000000001,2.9793816000000004,-0.9740286,102.73709898,6.13638018,11.3732163
1.8900000000000001,189,0.121,-0.98,0.23800000000000002,0.8594370000000001,2.291832,-0.9740286,102.74855814,6.13638018,11.401864199999999
1.9000000000000001,190,0.12,-0.98,0.239,0.9167328000000001,1.8334656000000005,-1.0313244000000001,102.7600173,6.1592985,11.41905294
1.9100000000000001,191,0.11900000000000001,-0.98,0.24100000000000002,0.7448454000000001,1.7188740000000002,-1.145916,102.76574688,6.165028080000001,11.43624168
1.9200000000000002,192,0.11599999999999999,-0.977,0.24100000000000002,0.7448454000000001,1.7188740000000002,-1.145916,102.77720603999998,6.17648724,11.45916
1.93,193,0.11199999999999999,-0.978,0.243,0.6875496,1.6042823999999998,-1.145916,102.7886652,6.18221682,11.47634874
1.94,194,0.11199999999999999,-0.977,0.245,0.7448454000000001,1.8334656000000005,-1.0886202,102.80012436,6.1879464,11.49926706
1.95,195,0.111,-0.976,0.25,0.6302538000000001,2.5783110000000002,-1.0886202,102.81158352,6.1994055600000015,11.52218538
1.96,196,0.11199999999999999,-0.9740000000000001,0.252,0.40107059999999994,3.7242269999999995,-1.3178034,102.82304268,6.2051351399999986,11.562292439999998
1.97,197,0.115,-0.972,0.251,0.2291832000000001,4.8701430000000006,-1.3178034,102.82877226,6.2051351399999986,11.613858660000002
1.98,198,0.11699999999999999,-0.971,0.245,0.2291832000000001,5.443101,-1.2605076000000002,102.83450184,6.2051351399999986,11.67115446
1.99,199,0.11900000000000001,-0.973,0.239,0.1718874,5.3285094000000015,-1.2032118,102.84023142,6.1994055600000015,11.722720679999998
2.0,200,0.12,-0.973,0.24100000000000002,0.286479,4.7555514,-1.3178034,102.85169058,6.210864720000001,11.774286900000002
2.01,201,0.12,-0.972,0.24100000000000002,0.286479,4.2398892,-1.4896908000000002,102.85742016000002,6.2165943,11.81439396
2.02,202,0.11599999999999999,-0.972,0.248,0.0,3.9534102,-1.7188740000000002,102.86314974,6.22232388,11.860230599999998
2.03,203,0.114,-0.972,0.253,-0.286479,4.583664,-2.0053530000000004,102.86314974,6.2337830400000005,11.90606724
2.04,204,0.113,-0.97,0.253,-0.286479,5.844171599999999,-2.3491277999999998,102.86314974,6.23951262,11.96909262
2.05,205,0.115,-0.972,0.249,-0.1718874,6.7609043999999985,-2.6929026,102.8746089,6.25670136,12.03784758
2.0599999999999996,206,0.11599999999999999,-0.973,0.24600000000000002,-0.286479,6.7609043999999985,-2.9793816000000004,102.8746089,6.26816052,12.11233212
2.07,207,0.11599999999999999,-0.972,0.244,-0.11459160000000004,6.2452422,-3.0366774,102.88033848,6.2796196800000015,12.18108708
2.0799999999999996,208,0.11699999999999999,-0.973,0.244,0.057295800000000015,5.72958,-3.2658606,102.88606806,6.29680842,12.24411246
2.09,209,0.11900000000000001,-0.975,0.245,0.0,5.2712136,-3.380452200000001,102.89179763999998,6.31972674,12.30140826
2.0999999999999996,210,0.11699999999999999,-0.9740000000000001,0.249,-0.11459160000000004,5.042030400000002,-3.5523396000000003,102.9032568,6.348374640000001,12.35870406
2.11,211,0.11699999999999999,-0.975,0.25,-0.286479,5.3285094000000015,-4.010706000000001,102.9032568,6.37129296,12.41599986
2.1199999999999997,212,0.11599999999999999,-0.975,0.247,-0.5156622000000001,5.2139178,-4.3544808,102.9032568,6.39994086,12.47902524
2.13,213,0.113,-0.978,0.25,-0.6875496,5.042030400000002,-4.6982555999999995,102.9032568,6.43431834,12.53632104
2.1399999999999997,214,0.111,-0.977,0.248,-0.6875496,5.2139178,-4.8701430000000006,102.9032568,6.4686958200000015,12.59934642
2.15,215,0.11,-0.9790000000000001,0.245,-0.7448454000000001,4.7555514,-4.9274388,102.89752722,6.5030733,12.65664222
2.1599999999999997,216,0.109,-0.978,0.24600000000000002,-0.9740286,3.4377480000000005,-4.9274388,102.89179763999998,6.543180359999999,12.70247886
2.17,217,0.10800000000000001,-0.978,0.249,-0.8021411999999999,1.8334656000000005,-4.8128472,102.88606806,6.589017,12.73112676
2.1799999999999997,218,0.105,-0.98,0.247,-0.8021411999999999,0.6875496,-5.042030400000002,102.88033848,6.63485364,12.7483155
2.19,219,0.111,-0.9790000000000001,0.245,-1.0886202,1.2032118,-5.3285094000000015,102.8746089,6.680690279999999,12.77123382
2.1999999999999997,220,0.111,-0.977,0.24600000000000002,-1.4896908000000002,1.4896908000000002,-5.6149884000000005,102.86314974,6.7322565,12.79988172
2.21,221,0.11199999999999999,-0.976,0.247,-1.5469866,1.0313244000000001,-5.9014674000000005,102.845961,6.7895523,12.82280004
2.2199999999999998,222,0.114,-0.9790000000000001,0.249,-1.7188740000000002,0.4583664000000001,-5.844171599999999,102.83450184,6.8411185199999975,12.839988780000002
2.23,223,0.11599999999999999,-0.98,0.247,-1.9480572,0.057295800000000015,-5.6722842,102.81158352,6.898414319999999,12.857177520000002
2.2399999999999998,224,0.11599999999999999,-0.981,0.243,-2.2345362,-0.2291832000000001,-5.5003968,102.79439478,6.94998054,12.8629071
2.25,225,0.115,-0.98,0.24,-2.0626488000000003,-0.9167328000000001,-5.5576926,102.77147646,7.00727634,12.86863668
2.26,226,0.12,-0.98,0.24,-2.1199446,-1.145916,-5.6722842,102.74855814,7.06457214,12.86863668
2.27,227,0.125,-0.981,0.24,-2.2345362,-1.3178034,-5.9014674000000005,102.72563982,7.12759752,12.86863668
2.28,228,0.128,-0.98,0.24100000000000002,-2.4064236,-1.3178034,-6.130650599999999,102.7027215,7.1906228999999975,12.86863668
2.29,229,0.131,-0.978,0.243,-2.5210152000000003,-1.2032118,-6.4744254,102.6740736,7.25364828,12.87436626
2.3,230,0.131,-0.975,0.243,-2.86479,-1.3178034,-6.7609043999999985,102.6454257,7.328132819999999,12.87436626
2.31,231,0.129,-0.9740000000000001,0.243,-2.86479,-1.7761698000000001,-7.161975,102.6167778,7.402617360000002,12.86863668
2.32,232,0.13,-0.973,0.243,-3.0939732,-2.1199446,-7.3911582,102.5881299,7.477101899999999,12.86863668
2.3299999999999996,233,0.128,-0.9740000000000001,0.24,-3.3231564,-2.7501984,-7.6203414,102.55375242,7.55731602,12.857177520000002
2.34,234,0.131,-0.975,0.23800000000000002,-3.6096353999999997,-3.4950437999999995,-7.734933000000002,102.51364535999998,7.64325972,12.839988780000002
2.3499999999999996,235,0.134,-0.978,0.237,-3.7815228,-3.8388186,-8.021412000000002,102.47353830000002,7.72920342,12.81707046
2.36,236,0.138,-0.9790000000000001,0.237,-4.0680017999999984,-3.8388186,-8.3651868,102.42770166,7.820876699999999,12.79988172
2.3699999999999997,237,0.141,-0.9790000000000001,0.23800000000000002,-4.297185,-4.010706000000001,-8.7089616,102.38186502,7.91254998,12.776963400000001
2.38,238,0.14,-0.9790000000000001,0.23800000000000002,-4.3544808,-4.297185,-8.9954406,102.33602838,8.00995284,12.75404508
2.3899999999999997,239,0.14300000000000002,-0.98,0.24,-4.5263682,-4.4117766,-9.167328,102.28446216,8.11308528,12.73112676
2.4,240,0.146,-0.978,0.23800000000000002,-4.583664,-4.9847346,-9.3392154,102.23289594,8.21621772,12.70247886
2.4099999999999997,241,0.141,-0.977,0.237,-4.6409598,-5.844171599999999,-9.5111028,102.18132972,8.319350159999999,12.6623718
2.42,242,0.138,-0.977,0.242,-4.7555514,-5.2139178,-9.740286,102.1297635,8.42821218,12.6337239
2.4299999999999997,243,0.14300000000000002,-0.978,0.242,-5.3285094000000015,-4.2398892,-10.1413566,102.0724677,8.5370742,12.61080558
2.44,244,0.149,-0.976,0.239,-5.6722842,-3.8961144,-10.4278356,102.0151719,8.64593622,12.59934642
2.4499999999999997,245,0.156,-0.976,0.23600000000000002,-5.9014674000000005,-4.1825934,-10.5424272,101.95214652,8.76052782,12.576428100000001
2.46,246,0.161,-0.978,0.233,-6.1879464,-4.5263682,-10.5424272,101.88339156,8.87511942,12.55350978
2.4699999999999998,247,0.165,-0.981,0.233,-6.4744254,-4.5263682,-10.7143146,101.81463659999999,8.98971102,12.53059146
2.48,248,0.16699999999999998,-0.983,0.233,-6.703608600000001,-4.5263682,-11.0580894,101.74588164,9.10430262,12.507673139999998
2.4899999999999998,249,0.165,-0.982,0.23199999999999998,-7.161975,-4.4690724,-11.45916,101.6713971,9.224623800000002,12.4904844
2.5,250,0.175,-0.983,0.22899999999999998,-7.6203414,-4.1825934,-12.0894138,101.59118298,9.35640414,12.473295660000002
2.51,251,0.182,-0.9840000000000001,0.22699999999999998,-7.7922288,-4.1252976000000015,-12.5477802,101.50523928,9.48818448,12.45610692
2.52,252,0.187,-0.986,0.22,-7.734933000000002,-4.583664,-12.776963400000001,101.42502516,9.61996482,12.4331886
2.53,253,0.19,-0.982,0.21899999999999997,-7.9641161999999985,-5.2139178,-13.0061466,101.33908146000002,9.76320432,12.41027028
2.54,254,0.192,-0.98,0.21899999999999997,-8.307891,-5.844171599999999,-13.3499214,101.25313776,9.90071424,12.3758928
2.55,255,0.192,-0.978,0.21899999999999997,-8.479778399999999,-6.417129599999999,-13.636400400000001,101.16146448,10.0554129,12.34151532
2.56,256,0.195,-0.977,0.22,-8.880849000000003,-6.4744254,-14.0947668,101.06406162,10.20438198,12.30140826
2.57,257,0.19,-0.975,0.222,-9.396511199999999,-6.0733548,-14.610429000000002,100.96092918,10.35908064,12.27276036
2.5799999999999996,258,0.19399999999999998,-0.975,0.21600000000000005,-10.084060800000001,-6.0160589999999985,-15.126091199999998,100.85779674,10.51950888,12.23838288
2.59,259,0.192,-0.973,0.214,-10.599723,-6.0733548,-15.756345,100.74320514,10.685666699999999,12.20973498
2.5999999999999996,260,0.193,-0.9740000000000001,0.214,-11.172680999999999,-5.7868758000000025,-16.1001198,100.62288396,10.8575541,12.18108708
2.61,261,0.2,-0.971,0.217,-12.2040054,-4.9274388,-16.329303,100.49683320000001,11.02371192,12.16389834
2.6199999999999997,262,0.209,-0.97,0.217,-12.776963400000001,-3.8961144,-16.673077799999998,100.36505286,11.19559932,12.15243918
2.63,263,0.218,-0.97,0.209,-12.7196676,-3.380452200000001,-16.902261,100.23327252,11.36748672,12.1467096
2.6399999999999997,264,0.223,-0.972,0.20199999999999999,-12.5477802,-3.8961144,-16.959556799999998,100.10722176,11.53937412,12.14098002
2.65,265,0.223,-0.973,0.20199999999999999,-12.6623718,-4.6409598,-17.131444199999994,99.97544142,11.722720679999998,12.12379128
2.6599999999999997,266,0.22399999999999998,-0.975,0.201,-13.0061466,-5.3285094000000015,-17.18874,99.8379315,11.90033766,12.09514338
2.67,267,0.22399999999999998,-0.9740000000000001,0.201,-13.3499214,-5.7868758000000025,-17.3606274,99.70042158,12.07795464,12.06649548
2.6799999999999997,268,0.22899999999999998,-0.9740000000000001,0.198,-13.8655836,-6.2452422,-17.589810600000003,99.5514525,12.261301200000002,12.03784758
2.69,269,0.24100000000000002,-0.9740000000000001,0.195,-14.610429000000002,-6.6463128000000005,-18.048177,99.39675384,12.45037734,11.99774052
2.6999999999999997,270,0.249,-0.975,0.196,-15.527161800000002,-7.734933000000002,-18.506543399999998,99.23059602,12.65091264,11.95190388
2.71,271,0.258,-0.976,0.195,-16.501190400000002,-8.7662574,-18.907614,99.04724946,12.85144794,11.8888785
2.7199999999999998,272,0.258,-0.975,0.192,-16.558486199999994,-9.453807,-18.8503182,98.86390290000001,13.051983240000002,11.82585312
2.73,273,0.265,-0.98,0.188,-16.8449652,-10.026765,-18.793022399999998,98.68055634,13.25251854,11.75136858
2.7399999999999998,274,0.27399999999999997,-0.982,0.192,-18.162768600000003,-10.3705398,-19.136797199999997,98.48002104,13.45878342,11.67688404
2.75,275,0.28800000000000003,-0.98,0.18899999999999997,-19.0222056,-11.45916,-19.136797199999997,98.26802658,13.67077788,11.58521076
2.76,276,0.282,-0.988,0.19399999999999998,-18.907614,-12.834259199999998,-18.6784308,98.05030254,13.871313179999998,11.48207832
2.77,277,0.29100000000000004,-0.983,0.19699999999999998,-19.652459399999998,-13.407217200000002,-17.8762896,97.82684892,14.07184848,11.3732163
2.78,278,0.3,-0.983,0.192,-20.9702628,-14.7250206,-17.131444199999994,97.58620656,14.26092462,11.24716554
2.79,279,0.317,-0.9840000000000001,0.193,-22.058882999999998,-17.131444199999994,-16.2147114,97.32264588,14.444271179999998,11.09246688
2.8,280,0.324,-0.982,0.193,-23.14750320000001,-19.2513888,-15.4125702,97.04762603999998,14.62761774,10.914849900000002
2.81,281,0.33,-0.975,0.18600000000000005,-23.9496444,-20.5118964,-14.381245800000002,96.76114704,14.799505140000004,10.72004418
2.82,282,0.322,-0.973,0.184,-24.923673,-20.7983754,-13.636400400000001,96.45747929999999,14.96566296,10.52523846
2.8299999999999996,283,0.32299999999999995,-0.9690000000000001,0.18100000000000002,-26.5279554,-20.168121600000006,-13.5791046,96.1423524,15.126091199999998,10.33043274
2.84,284,0.314,-0.97,0.182,-28.0176462,-19.194093,-14.1520626,95.81003676,15.28651944,10.14708618
2.8499999999999996,285,0.315,-0.976,0.177,-29.220858000000003,-17.7044022,-14.7823164,95.47772112,15.45840684,9.98092836
2.86,286,0.319,-0.981,0.166,-30.8251404,-17.246035799999998,-15.4125702,95.12248716,15.62456466,9.81477054
2.8699999999999997,287,0.289,-0.991,0.139,-32.7159018,-18.3919518,-15.527161800000002,94.74433488,15.796452060000002,9.63715356
2.88,288,0.29100000000000004,-0.995,0.139,-30.8251404,-18.277360199999997,-14.266654199999998,94.38337134,15.956880300000002,9.45953658
2.8899999999999997,289,0.298,-0.997,0.161,-33.002380800000005,-18.5638392,-12.834259199999998,93.99948948,16.1001198,9.27619002
2.9,290,0.318,-0.985,0.154,-34.3201842,-20.454600600000006,-11.401864199999999,93.59841887999998,16.23190014,9.06992514
2.9099999999999997,291,0.33,-0.99,0.14,-34.8358464,-21.600516600000002,-10.5424272,93.18588912,16.35222132,8.84647152
2.92,292,0.335,-0.998,0.129,-36.6120162,-20.5118964,-9.9121734,92.7619002,16.466812920000002,8.640206639999999
2.9299999999999997,293,0.331,-0.9990000000000001,0.115,-38.3308902,-18.506543399999998,-9.568398599999998,92.32072254,16.56994536,8.451130500000001
2.94,294,0.309,-1.003,0.10099999999999999,-39.4195104,-17.475219,-8.9954406,91.86808572,16.66734822,8.26778394
2.9499999999999997,295,0.28300000000000003,-1.0070000000000001,0.091,-41.0810886,-17.131444199999994,-8.250595200000001,91.40398974,16.7590215,8.09016696
2.96,296,0.262,-0.998,0.086,-42.97185,-17.589810600000003,-7.734933000000002,90.91697544,16.83923562,7.906820399999999
2.9699999999999998,297,0.237,-0.983,0.084,-43.77399120000001,-17.9335854,-7.734933000000002,90.41850198,16.919449739999994,7.717744259999999
2.98,298,0.21899999999999997,-0.9690000000000001,0.081,-43.65939960000001,-17.6471064,-8.9381448,89.9257581,17.01112302,7.528668120000002
2.9899999999999998,299,0.213,-0.961,0.085,-43.602103799999995,-15.9855282,-10.7716104,89.43301421999998,17.114255460000006,7.3567807200000015
3.0,300,0.23600000000000002,-0.951,0.07,-45.2063862,-13.2926256,-12.6623718,88.93454076,17.24030622,7.213541219999999
3.01,301,0.24,-0.9470000000000001,0.055,-46.123119,-10.2559482,-14.4958374,88.43606729999998,17.37781614,7.098949620000001
3.02,302,0.26,-0.946,0.036000000000000004,-46.2377106,-8.193299399999999,-15.9855282,87.93759384,17.5325148,7.001546759999999
3.03,303,0.26,-0.945,0.03,-48.0138804,-6.8182002000000015,-18.162768600000003,87.42766122,17.71013178,6.92133264
3.04,304,0.276,-0.941,0.019,-49.7327544,-6.875496000000001,-20.2827132,86.89481028,17.9049375,6.829659359999999
3.05,305,0.258,-0.929,0.004,-50.706783,-6.9327918,-22.91832,86.35050018,18.12266154,6.7379860800000015
3.06,306,0.27399999999999997,-0.938,-0.023,-51.2224452,-7.6203414,-25.3247436,85.8004605,18.36903348,6.63485364
3.07,307,0.3,-0.945,-0.037000000000000005,-51.7954032,-9.3392154,-27.272800800000002,85.23323208,18.62686458,6.5088028799999975
3.08,308,0.29100000000000004,-0.948,-0.045,-51.9099948,-10.599723,-28.4760126,84.66600365999999,18.90188442,6.37129296
3.09,309,0.287,-0.948,-0.052000000000000005,-53.34238979999999,-11.1153852,-29.335449600000004,84.07585692,19.17690426,6.2165943
3.0999999999999996,310,0.27899999999999997,-0.9390000000000001,-0.057999999999999996,-55.00396800000001,-11.2299768,-30.5386614,83.46852143999998,19.46338326,6.06189564
3.11,311,0.28300000000000003,-0.94,-0.068,-56.72284200000001,-12.3758928,-31.5699858,82.83253806,19.76132142,5.88427866
3.1199999999999997,312,0.27899999999999997,-0.9279999999999999,-0.07200000000000001,-58.0406454,-15.126091199999998,-33.002380800000005,82.17363636,20.06498916,5.67801378
3.13,313,0.273,-0.9159999999999999,-0.07400000000000001,-59.35844880000001,-16.042824000000003,-35.9817624,81.49181634,20.39157522,5.44883058
3.1399999999999997,314,0.282,-0.9129999999999999,-0.073,-59.93140680000001,-15.183387000000002,-39.304918799999996,80.80426674,20.75253876,5.21964738
3.15,315,0.28300000000000003,-0.905,-0.075,-62.3951262,-14.266654199999998,-43.1437374,80.09379881999998,21.14787978,4.99046418
3.1599999999999997,316,0.261,-0.903,-0.085,-62.3378304,-13.2353298,-46.123119,79.37760132,21.57759828,4.7555514
3.17,317,0.266,-0.9179999999999999,-0.08199999999999999,-61.8221682,-10.599723,-47.784697200000004,78.6671334,22.01877594,4.54355694
3.1799999999999997,318,0.244,-0.904,-0.046,-65.030733,-8.136003599999999,-48.8733174,77.93374716000002,22.47141276,4.34302164
3.19,319,0.226,-0.9,-0.053,-65.2026204,-5.3858052,-48.8733174,77.20609049999999,22.92977916,4.17113424
3.1999999999999997,320,0.175,-0.907,-0.046,-60.9627312,-0.6875496,-47.0971476,76.54145922000002,23.37095682,4.04508348
3.21,321,0.11900000000000001,-0.9309999999999999,-0.009000000000000001,-54.08723520000001,7.333862400000001,-44.175061799999995,75.9742308,23.8064049,4.00497642
3.2199999999999998,322,0.064,-0.9690000000000001,0.03,-41.4248634,22.1161788,-36.7839036,75.60753768,24.2074755,4.13675676
3.23,323,-0.064,-0.888,0.096,-26.642546999999997,38.61736920000001,-31.627281600000003,75.46429817999999,24.59135736,4.45761324
3.2399999999999998,324,0.07200000000000001,-0.7040000000000001,-0.015,-17.761698000000006,60.045998399999995,-37.7006364,75.49867565999998,25.08410124000001,4.99046418
3.25,325,0.156,-0.61,-0.22,-30.080295,63.1399716,-53.39968560000001,75.4012728,25.73727336,5.51185596
3.26,326,0.21899999999999997,-0.6,-0.179,-25.3247436,55.2331512,-64.8588456,75.3153291,26.48211876,5.92438572
3.27,327,0.281,-0.75,-0.125,-18.5638392,48.7587258,-68.1247062,75.26949246000002,27.2441529,6.25670136
3.28,328,0.33799999999999997,-0.8220000000000001,-0.136,-27.960350399999996,40.4508348,-70.07276340000001,75.09187548,28.00618704,6.497343719999999
3.29,329,0.45,-0.8440000000000001,-0.177,-43.65939960000001,30.137590799999998,-73.51051140000001,74.69653446000002,28.77395076,6.60620574
3.3,330,0.381,-0.768,-0.068,-47.555514,20.6837838,-80.44330319999997,74.20379058,29.58182154,6.589017
3.31,331,0.305,-0.816,0.002,-63.25456320000001,21.0848544,-72.479187,73.56207762,30.32093736,6.589017
3.32,332,0.305,-0.639,-0.031,-61.9367598,26.2987722,-78.4379502,72.93755340000001,31.12880814,6.6176648999999985
3.33,333,0.26,-0.654,-0.046,-53.4569814,30.7678446,-84.51130500000002,72.41616162,32.005433880000005,6.66350154
3.34,334,0.228,-0.601,-0.076,-54.43101,28.1895336,-89.49603959999996,71.85466278,32.92789626,6.65777196
3.3499999999999996,335,0.204,-0.574,-0.048,-51.279740999999994,25.84040580000001,-94.5953658,71.29889352000002,33.87900654,6.5947465800000025
3.36,336,0.191,-0.563,-0.028999999999999998,-52.139178,27.043617600000005,-98.94984659999999,70.71447636,34.887412620000006,6.51453246
3.3699999999999997,337,0.182,-0.515,-0.049,-54.3164184,28.533308399999996,-102.845961,70.10714088,35.93019618,6.4228591800000014
3.38,338,0.179,-0.47100000000000003,-0.042,-53.11320660000001,26.5279554,-105.8253426,69.47688708,36.99589806,6.2738901
3.3899999999999997,339,0.17300000000000001,-0.4370000000000001,-0.032,-52.3683612,23.663165399999997,-107.5442166,68.81798538,38.06159994,6.0733548000000015
3.4,340,0.156,-0.40399999999999997,-0.034,-52.48295279999999,20.6837838,-107.8879914,68.11897662,39.12157224,5.815523699999999
3.4099999999999997,341,0.14800000000000002,-0.36,-0.035,-52.7694318,17.131444199999994,-107.2577376,67.37986079999999,40.1643558,5.5003968
3.42,342,0.132,-0.311,-0.027000000000000003,-53.11320660000001,11.401864199999999,-106.68477959999998,66.56626044,41.17276188,5.08786704
3.4299999999999997,343,0.098,-0.247,0.004,-51.1651494,7.2765666,-106.3410048,65.72401218,42.15824964,4.60658232
3.44,344,0.095,-0.17600000000000002,0.033,-49.90464179999999,7.6776372,-107.0285544,64.87030476,43.14946698,4.0966497
3.4499999999999997,345,0.107,-0.085,0.065,-48.185767799999994,4.6409598,-107.9452872,63.98221986,44.13495474,3.51796212
3.46,346,0.057999999999999996,-0.046,0.087,-44.2323576,4.5263682,-106.6274838,63.10559412,45.09752418000001,2.91062664
3.4699999999999998,347,0.006,-0.013000000000000001,0.063,-44.8053156,11.5737516,-104.7940182,62.26907544000001,46.07155278000001,2.3777757
3.48,348,-0.037000000000000005,-0.013000000000000001,0.027000000000000003,-45.034498799999994,13.980175199999998,-103.13244,61.42682718,47.02839264,1.85638392
3.4899999999999998,349,-0.1,-0.032,-0.013000000000000001,-43.315624799999995,15.756345,-102.0438198,60.59603808000001,47.9852325,1.3349921400000002
3.5,350,-0.2,-0.051,-0.059000000000000004,-38.8465524,23.3766864,-100.49683320000001,59.86265184,48.94780193999999,0.89381448
3.51,351,-0.272,-0.128,-0.10800000000000001,-37.757932200000006,33.1742682,-98.8925508,59.22666846,49.94474886,0.56722842
3.52,352,-0.32799999999999996,-0.22899999999999998,-0.12300000000000001,-38.67466500000001,38.3308902,-96.7726062,58.62506255999999,50.95315494000001,0.30939732
3.53,353,-0.344,-0.446,-0.134,-33.6899304,48.9306132,-90.6419556,58.2125328,51.96156102,0.22345362
3.54,354,-0.233,-0.581,-0.14400000000000002,-35.4088044,60.5616606,-83.7091638,57.94324253999999,52.96423752,0.34950438
3.55,355,-0.12300000000000001,-0.59,-0.174,-37.4714532,70.0154676,-79.06820400000002,57.80000303999999,53.96118444,0.6589017
3.56,356,-0.049,-0.508,-0.247,-36.4401288,77.5785132,-77.23473840000003,57.77135514,54.99823841999999,1.0886202
3.57,357,-0.053,-0.385,-0.252,-33.6326346,82.04758559999998,-79.46927459999998,57.81719178,56.07539946000001,1.5813640800000002
3.58,358,-0.052000000000000005,-0.294,-0.23399999999999999,-32.8877892,88.35012359999996,-86.68854540000002,57.92032422,57.24423378,2.11421502
3.59,359,0.018000000000000002,-0.244,-0.32,-31.9710564,98.3195928,-94.824549,58.12085952,58.53338928,2.75592798
3.5999999999999996,360,0.179,-0.272,-0.401,-28.0176462,106.9139628,-100.2103542,58.46463432,59.89702932,3.5122325400000003
3.61,361,0.467,-0.405,-0.555,-28.533308399999996,113.3883882,-103.13244,58.94591904,61.32942432,4.4117766000000005
3.6199999999999997,362,0.667,-0.45799999999999996,-0.534,-33.9764094,116.596953,-110.17982340000002,59.42720376,62.82484469999999,5.3628868800000005
3.63,363,0.856,-0.408,-0.41600000000000004,-44.175061799999995,128.45718359999998,-123.9308154,59.95432512,64.49215248,6.48015498
3.6399999999999997,364,1.1320000000000001,-0.27,-0.518,-56.3217714,134.931609,-140.66118899999998,60.41269152,66.33134765999999,7.63180056
3.65,365,1.8319999999999999,-0.335,-0.8340000000000001,-53.11320660000001,126.16535159999998,-151.547391,60.72208884000001,68.22210906000001,8.57145168
3.6599999999999997,366,2.505,-0.293,-1.077,-30.8251404,102.1011156,-159.51150719999995,60.70490010000001,70.06703381999999,8.909496899999997
3.67,367,3.3689999999999998,0.6759999999999999,-2.736,-70.6457214,33.1742682,-214.6300668,57.63957480000001,72.05519808,6.4457775
3.6799999999999997,368,3.681,1.1420000000000001,-1.327,-142.38006299999995,-56.149884,-285.1039008,49.16552598,73.9975257,-0.90527364
3.69,369,3.9960000000000004,0.845,-0.9440000000000001,-22.91832,15.756345,-284.87471760000005,41.92333686,76.12319987999999,-8.14746276
3.6999999999999997,370,3.9960000000000004,0.083,0.034,-68.98414319999999,18.3919518,-238.69430280000003,33.67847124,77.7217527,-15.89385492
3.71,371,3.6,1.2570000000000001,0.213,-86.51665799999998,73.625103,-241.501797,24.19028676000001,79.50365208,-24.65438274
3.7199999999999998,372,2.997,0.629,-0.054000000000000006,21.600516600000002,109.2630906,-208.27023300000002,15.22922364,81.22252608,-33.9477615
3.73,373,2.792,0.46,0.051,-7.448453999999999,130.29064920000002,-169.65286379999995,5.2024586400000015,82.79243100000002,-43.98025608
3.7399999999999998,374,2.612,0.37,0.105,-18.907614,136.1348208,-147.07831860000005,-7.68336678,84.11596397999998,-56.73430116
3.75,375,2.45,-0.057,0.494,-14.8396122,130.29064920000002,-114.1905294,-22.67194806,85.08426299999998,-71.62547958
3.76,376,2.1430000000000002,-0.09699999999999999,0.266,-11.5164558,120.8368422,-74.65642740000001,-38.03295204,85.76608302,-86.89481028
3.77,377,2.1719999999999997,0.046,-0.138,-9.2819196,111.4976268,-36.6120162,-52.88975298,86.30466354,-101.67712668
3.78,378,1.56,0.353,-0.08,-4.7555514,79.354683,-3.6096353999999997,-64.02232692,86.70573413999998,-112.77532314
3.79,379,1.275,0.512,-0.081,-2.6356068,60.9627312,5.0993262,-73.83136787999999,86.98648356,-122.56144578
3.8,380,1.004,0.326,-0.052000000000000005,5.3858052,47.211739200000004,13.2353298,-82.27103922,87.19847802,-131.05841292
3.81,381,0.78,0.244,0.08800000000000001,5.844171599999999,32.658606,15.6990492,-88.76265336,87.38755416000002,-137.61305244
3.82,382,0.579,0.242,0.233,2.1199446,27.6165756,14.896907999999998,-95.03081388,87.53652324,-143.90413128
3.83,383,0.48,0.24100000000000002,0.223,-4.2398892,24.0069402,11.401864199999999,-101.02968414,87.62246694,-149.86289448
3.84,384,0.314,0.242,0.18100000000000002,-5.5003968,10.599723,12.3758928,-104.26116726,87.7198698,-153.04281138
3.8499999999999996,385,0.174,0.245,0.259,-2.1772404,4.8701430000000006,19.480572,-107.12022768,87.88029803999999,-155.87895348
3.86,386,0.17600000000000002,0.247,0.20800000000000002,-7.5057497999999985,22.0015872,24.8663772,-115.44530742,88.03499670000002,-164.12954868
3.8699999999999997,387,0.217,0.273,0.092,-13.2926256,28.0176462,27.215505,-126.97895196,88.13239956,-175.53141288
3.88,388,0.172,0.331,0.067,-14.32395,21.886995600000002,24.522602399999997,-137.32084386,88.17823620000001,174.2651757
3.8899999999999997,389,0.21100000000000002,0.405,0.08,-18.277360199999997,22.345361999999998,17.0168526,-146.01261672,88.11521081999999,165.7567494
3.9,390,0.447,0.41,0.033,-19.9389384,30.022999199999997,7.734933000000002,-152.05159404,87.8917572,159.92403696
3.9099999999999997,391,0.621,0.33799999999999997,0.032,-13.980175199999998,30.080295,4.5263682,-156.74984964,87.65111484,155.36329128
3.92,392,0.7040000000000001,0.301,0.079,-8.3651868,23.14750320000001,7.333862400000001,-160.53710202,87.46776828,151.6619826
3.9299999999999997,393,0.833,0.32799999999999996,0.114,-4.6982555999999995,17.0168526,11.2872726,-164.1811149,87.34171752,148.06380636
3.94,394,0.9990000000000001,0.302,0.139,0.2291832000000001,12.0894138,15.813640800000002,-168.10587719999995,87.26723297999996,144.13331448
3.9499999999999997,395,1.067,0.281,0.131,4.4117766,7.6776372,21.199446,-171.99626202,87.21566676,140.19709302
3.96,396,1.123,0.295,0.105,8.250595200000001,0.11459160000000004,23.204798999999998,-176.64868098,87.23858508000002,135.45300077999997
3.9699999999999998,397,1.204,0.281,0.136,13.636400400000001,-5.958763200000001,24.350715,178.48787615999996,87.30161045999998,130.44534786
3.98,398,1.178,0.228,0.155,17.589810600000003,-7.8495246,26.356068,173.01612726,87.35317668,124.7902524
3.9899999999999998,399,1.307,0.162,0.102,19.4232762,-14.381245800000002,33.518043,165.55048452,87.4333908,117.11834478
4.0,400,1.2919999999999998,0.162,0.13699999999999998,14.896907999999998,-12.7196676,37.3568616,157.20248646,87.4333908,108.60418889999998
4.01,401,1.2,0.105,0.134,26.9863218,-12.261301199999998,42.34159620000001,148.15547964,87.35317668,99.27643266
4.02,402,1.1340000000000001,0.025,0.11599999999999999,27.7311672,-10.5424272,46.123119,139.52100258000002,87.16410053999998,90.33828786
4.03,403,1.107,0.0,0.106,30.194886600000004,-7.9641161999999985,46.0658232,132.48507834,86.90626943999996,82.99296629999998
4.04,404,1.102,-0.02,0.073,30.8251404,-4.9847346,44.690723999999996,127.19094642,86.59687212,77.37224832
4.05,405,1.104,-0.019,0.049,30.194886600000004,-1.432395,43.602103799999995,123.39223488,86.25309732000002,73.25840988
4.06,406,1.093,-0.034,0.07200000000000001,27.7311672,2.3491277999999998,42.28430039999999,120.7508985,85.8864042,70.33059449999999
4.07,407,1.099,-0.013999999999999999,0.09,27.100913399999996,2.5210152000000003,38.38818600000001,118.82003004,85.54262940000002,68.11897662
4.08,408,1.091,-0.055,0.13699999999999998,26.7571386,4.1252976000000015,35.17962120000001,117.53087454,85.21604334,66.54907170000001
4.09,409,1.08,-0.07200000000000001,0.11900000000000001,22.631841,10.084060800000001,32.31483119999999,117.09542646,84.8837277,65.87871084
4.1,410,1.062,-0.11699999999999999,0.045,20.9702628,12.834259199999998,26.241476399999996,117.22147722,84.59151912,65.79849672
4.109999999999999,411,1.056,-0.098,0.017,15.527161800000002,10.599723,23.14750320000001,117.2558547,84.33368802,65.67244595999999
4.12,412,0.975,-0.131,0.018000000000000002,17.6471064,5.5003968,19.652459399999998,117.04958981999998,84.13888229999998,65.28283452000001
4.13,413,0.919,-0.163,0.031,16.615782,1.4896908000000002,19.079501399999998,116.5396572,83.96126532,64.60674408
4.14,414,0.9009999999999999,-0.165,0.026000000000000002,12.4904844,-0.5156622000000001,19.308684600000007,115.84637802,83.78937792,63.77595498000001
4.1499999999999995,415,0.91,-0.14800000000000002,0.016,8.4224826,-0.7448454000000001,19.365980399999998,115.03850724,83.61749052,62.88214050000001
4.16,416,0.9079999999999999,-0.132,0.034,4.5263682,1.3178034,19.079501399999998,114.48846756,83.43987354000002,62.2805346
4.17,417,0.938,-0.128,0.03,0.572958,4.583664,18.907614,114.17907024000002,83.25079740000002,61.95967812
4.18,418,0.9590000000000001,-0.13,0.016,-3.0366774,5.0993262,19.4232762,113.86394334000002,83.0502621,61.67892870000001
4.1899999999999995,419,0.96,-0.13699999999999998,0.013000000000000001,-3.7815228,3.7815228,19.8243468,113.45141357999998,82.85545637999998,61.30077642
4.2,420,0.956,-0.146,0.019,-3.7815228,2.5210152000000003,19.595163600000006,112.90137390000001,82.66638024,60.78511422
4.21,421,0.9590000000000001,-0.156,0.021,-4.6982555999999995,1.8334656000000005,18.8503182,112.4143596,82.48303368,60.34393656
4.22,422,0.966,-0.158,0.021,-5.1566220000000005,0.6875496,17.303331600000003,111.91588614,82.32260544,59.89702932
4.2299999999999995,423,0.968,-0.159,0.016,-4.7555514,0.4583664000000001,14.896907999999998,111.49189721999998,82.17936594,59.513147460000006
4.24,424,0.982,-0.16,0.017,-5.0993262,0.8594370000000001,11.8602306,111.1824999,82.07050392,59.25531636000001
4.25,425,0.992,-0.155,0.028999999999999998,-5.3858052,0.0,8.479778399999999,110.79861804,81.9902898,58.92300072000001
4.26,426,0.9940000000000001,-0.138,0.04,-4.9274388,-1.8334656000000005,3.8388186,110.52932778,81.96164189999998,58.699547100000004
4.27,427,1.005,-0.1,0.052000000000000005,-5.042030400000002,-2.2345362,-0.8021411999999999,110.34598122,81.97883064,58.56776676
4.28,428,1.016,-0.161,0.052000000000000005,-2.5783110000000002,-1.9480572,-2.9793816000000004,110.26576710000002,82.01320812,58.51047096
4.29,429,1.0070000000000001,-0.139,0.071,-3.6096353999999997,-0.4583664000000001,-4.9847346,110.31733332000002,82.06477434,58.60214424
4.3,430,1.024,-0.11,0.065,-5.1566220000000005,0.9740286,-6.990087599999999,110.56943484,82.13925888,58.91154156
4.31,431,1.0270000000000001,-0.09300000000000001,0.071,-4.297185,1.7188740000000002,-8.8235532,110.87310258,82.21374342,59.25531636000001
4.32,432,1.031,-0.079,0.064,-3.7815228,1.6615782,-10.3705398,111.21114779999999,82.3054167,59.64492780000001
4.33,433,1.031,-0.075,0.069,-2.8074942000000003,1.6615782,-11.172680999999999,111.60075924,82.40281956,60.06318714
4.34,434,1.031,-0.07200000000000001,0.07400000000000001,-1.4896908000000002,1.145916,-11.745639,111.99610026,82.50595200000002,60.4757169
4.35,435,1.028,-0.062,0.073,-0.4583664000000001,0.4583664000000001,-12.0894138,112.51176246,82.64346192,61.00283826
4.36,436,1.0290000000000001,-0.057999999999999996,0.075,-0.057295800000000015,0.0,-12.1467096,112.87845558,82.75232394,61.36953138
4.37,437,1.031,-0.055,0.077,0.8021411999999999,0.0,-12.032118,113.26233744,82.86118596,61.74768365999999
4.38,438,1.031,-0.053,0.08,1.0313244000000001,-0.1718874,-11.802934800000001,113.64048972,82.97004798,62.12010636
4.39,439,1.0270000000000001,-0.044000000000000004,0.078,1.5469866,-1.6615782,-11.401864199999999,113.90977998,83.08463958,62.37793746
4.3999999999999995,440,1.025,-0.039,0.081,2.3491277999999998,-2.7501984,-10.828906199999999,114.27074352,83.2221495,62.710253099999996
4.41,441,1.026,-0.033,0.079,2.6929026,-2.86479,-10.084060800000001,114.43690134,83.32528194,62.853492599999996
4.42,442,1.025,-0.03,0.069,2.9220858,-2.8074942000000003,-8.880849000000003,114.57441126,83.41695522,62.95662503999999
4.43,443,1.018,-0.026000000000000002,0.061,3.0366774,-2.9793816000000004,-7.6776372,114.65462538,83.49716934,63.00819126
4.4399999999999995,444,1.015,-0.027999999999999997,0.053,3.1512689999999997,-2.6929026,-6.417129599999999,114.71765076,83.57165388,63.03683916
4.45,445,1.015,-0.03,0.046,2.7501984,-2.1199446,-5.2139178,114.90099732,83.6805159,63.1972674
4.46,446,1.013,-0.027999999999999997,0.042,2.4637194,-2.0626488000000003,-4.0680017999999984,114.91818606,83.72635254,63.18580824000001
4.47,447,1.01,-0.027000000000000003,0.043,2.6929026,-2.9793816000000004,-2.9220858,114.8207832,83.76645959999998,63.05975748
4.4799999999999995,448,1.004,-0.027000000000000003,0.044000000000000004,3.1512689999999997,-3.7815228,-1.9480572,114.62597748,83.80083708,62.83057427999999
4.49,449,1.001,-0.032,0.049,2.5210152000000003,-3.6669312000000014,-1.145916,114.39679428,83.82375540000002,62.57274318
4.5,450,1.001,-0.033,0.045,1.432395,-2.6929026,-0.2291832000000001,114.43690134,83.95553574,62.60712066
4.51,451,1.002,-0.031,0.039,1.145916,-2.3491277999999998,0.1718874,114.2478252,83.9669949,62.39512620000001
4.52,452,1.005,-0.032,0.034,1.2032118,-1.9480572,0.6302538000000001,114.07020822,83.9669949,62.20605006
4.53,453,1.0090000000000001,-0.036000000000000004,0.034,1.0886202,-1.3178034,1.0313244000000001,113.92696872,83.9669949,62.051351399999994
4.54,454,1.011,-0.040999999999999995,0.031,0.6875496,-0.6302538000000001,1.6042823999999998,113.8181067,83.95553574,61.9367598
4.55,455,1.003,-0.04,0.027000000000000003,0.4583664000000001,-0.5156622000000001,2.0626488000000003,113.732163,84.07012734,61.8508161
4.56,456,0.996,-0.040999999999999995,0.026000000000000002,0.6302538000000001,-1.0886202,2.291832,113.55454602,84.05293859999998,61.66746954
4.57,457,0.9940000000000001,-0.040999999999999995,0.027000000000000003,0.6302538000000001,-1.432395,2.6356068,113.33682198,84.03574986,61.43828634000001
4.58,458,1.0,-0.043,0.027999999999999997,0.1718874,-0.9740286,2.9793816000000004,113.14201626,84.01283154000002,61.23775104
4.59,459,1.0,-0.046,0.027000000000000003,-0.057295800000000015,-0.40107059999999994,3.1512689999999997,112.98731759999998,83.98418364,61.08305237999999
4.6,460,1.001,-0.048,0.028999999999999998,-0.057295800000000015,0.3437748,3.0939732,112.95294012,84.05866818,61.05440448
4.61,461,1.0,-0.051,0.035,-0.057295800000000015,0.7448454000000001,3.0366774,112.90137390000001,84.03002028,61.00856784
4.62,462,0.9990000000000001,-0.049,0.039,-0.11459160000000004,0.5156622000000001,3.0939732,112.83261894,83.9956428,60.9340833
4.63,463,0.997,-0.047,0.042,-0.057295800000000015,0.0,3.1512689999999997,112.71802733999998,83.9669949,60.8194917
4.64,464,1.001,-0.049,0.046,-0.40107059999999994,0.40107059999999994,3.0366774,112.63781322,83.938347,60.74500716
4.6499999999999995,465,1.0,-0.053,0.040999999999999995,-0.9167328000000001,1.0313244000000001,2.8074942000000003,112.70656818,83.97845406,60.82522128
4.66,466,1.0,-0.054000000000000006,0.036000000000000004,-1.145916,1.432395,2.5210152000000003,112.7294865,83.94980616,60.85959876
4.67,467,0.9990000000000001,-0.055,0.031,-1.0886202,1.7761698000000001,2.2345362,112.78678229999998,83.92115826,60.92835372
4.68,468,0.9990000000000001,-0.054000000000000006,0.027999999999999997,-0.9740286,2.1199446,1.8907614,112.88418516000002,83.89251035999997,61.04294532
4.6899999999999995,469,0.998,-0.052000000000000005,0.027999999999999997,-1.145916,2.3491277999999998,1.6615782,113.01023592,83.86959204,61.17472566
4.7,470,0.9990000000000001,-0.049,0.03,-0.8021411999999999,2.0626488000000003,1.7188740000000002,113.14201626,83.938347,61.32369473999999
4.71,471,1.003,-0.049,0.033,-0.286479,1.432395,1.7761698000000001,113.19358248,83.91542868,61.38099053999999
4.72,472,1.0070000000000001,-0.049,0.039,-0.057295800000000015,0.8594370000000001,1.7761698000000001,113.20504164,83.89251035999997,61.38672012000001
4.7299999999999995,473,1.0090000000000001,-0.052000000000000005,0.043,0.11459160000000004,0.40107059999999994,1.7188740000000002,113.17639374,83.87532162,61.36380180000001
4.74,474,1.012,-0.053,0.045,0.1718874,0.8594370000000001,1.3750992,113.20504164,83.85813288,61.38672012000001
4.75,475,1.013,-0.052000000000000005,0.042,0.2291832000000001,1.432395,1.145916,113.48006148,83.96126532,61.66173996
4.76,476,1.0090000000000001,-0.053,0.037000000000000005,0.3437748,1.5469866,0.8594370000000001,113.58319392,83.94407658,61.764872399999994
4.77,477,1.005,-0.053,0.036000000000000004,0.6302538000000001,1.6615782,0.8021411999999999,113.70351509999999,83.93261742,61.87373441999999
4.78,478,1.003,-0.052000000000000005,0.038,0.8594370000000001,1.7188740000000002,0.572958,113.83529543999998,83.92115826,61.99978518
4.79,479,1.004,-0.05,0.036000000000000004,0.8021411999999999,1.9480572,0.5156622000000001,113.9899941,83.90396952,62.14875426
4.8,480,1.0070000000000001,-0.047,0.039,0.6875496,2.1772404,0.6302538000000001,114.31085058,83.9956428,62.46388115999999
4.81,481,1.01,-0.05,0.038,0.6875496,2.3491277999999998,0.6302538000000001,114.49419714,83.97845406,62.64149814
4.82,482,1.005,-0.051,0.039,0.6875496,2.3491277999999998,0.572958,114.67754369999999,83.96126532,62.819115120000006
4.83,483,1.004,-0.051,0.04,0.8594370000000001,2.3491277999999998,0.4583664000000001,114.86661984,83.94980616,63.00246168
4.84,484,1.005,-0.051,0.04,0.8021411999999999,2.5210152000000003,0.40107059999999994,115.06715514,83.93261742,63.1972674
4.85,485,1.005,-0.052000000000000005,0.04,0.572958,2.5210152000000003,0.286479,115.41665951999998,84.01856111999999,63.54104220000001
4.86,486,1.004,-0.051,0.043,0.286479,2.3491277999999998,0.3437748,115.60573566,84.00137237999998,63.73011834
4.87,487,1.005,-0.048,0.044000000000000004,0.1718874,2.4064236,0.40107059999999994,115.78908222,83.98991322,63.9134649
4.88,488,1.0070000000000001,-0.047,0.044000000000000004,0.057295800000000015,2.4637194,0.5156622000000001,115.97815836,83.97272448,64.10254104
4.89,489,1.006,-0.047,0.044000000000000004,-0.057295800000000015,2.2345362,0.572958,116.1385866,83.95553574,64.26296928
4.8999999999999995,490,1.006,-0.046,0.044000000000000004,0.0,1.9480572,0.6302538000000001,116.54538678000002,84.07012734,64.67549904
4.91,491,1.0070000000000001,-0.048,0.045,0.0,2.1199446,0.6875496,116.69435586,84.05293859999998,64.82446811999999
4.92,492,1.006,-0.048,0.044000000000000004,-0.11459160000000004,2.291832,0.7448454000000001,116.84905451999998,84.03574986,64.98489636000001
4.93,493,1.006,-0.046,0.046,-0.286479,2.1772404,0.8021411999999999,116.9980236,84.01856111999999,65.13386544
4.9399999999999995,494,1.005,-0.045,0.046,-0.11459160000000004,1.8907614,0.7448454000000001,117.11834478,84.00137237999998,65.25991619999999
4.95,495,1.0070000000000001,-0.045,0.044000000000000004,0.0,1.6615782,0.8594370000000001,117.49649706,84.11596397999998,65.64379806000001
4.96,496,1.01,-0.046,0.045,0.1718874,1.7188740000000002,0.9167328000000001,117.5996295,84.09877524000002,65.74693049999999
4.97,497,1.011,-0.046,0.045,0.286479,1.8907614,0.8594370000000001,117.71995067999998,84.0815865,65.86152209999999
4.9799999999999995,498,1.011,-0.046,0.045,0.572958,1.7761698000000001,0.9167328000000001,117.84027186,84.06439776,65.97611370000001
4.99,499,1.011,-0.046,0.046,0.8021411999999999,1.6042823999999998,0.8594370000000001,117.94340430000001,84.05293859999998,66.07351656
5.0,500,1.011,-0.046,0.047,0.9740286,1.3178034,0.9740286,118.2585312,84.12742313999998,66.37718430000001
5.01,501,1.01,-0.045,0.046,1.2032118,0.8594370000000001,1.0886202,118.29290868,84.11596397999998,66.40010262000001
5.02,502,1.01,-0.047,0.047,1.3750992,0.7448454000000001,1.2605076000000002,118.31582699999998,84.09877524000002,66.41156178
5.03,503,1.01,-0.046,0.049,1.3750992,0.6302538000000001,1.2605076000000002,118.32728616,84.08731608000002,66.40583219999999
5.04,504,1.01,-0.047,0.047,1.4896908000000002,0.8021411999999999,1.3178034,118.35020448,84.07012734,66.41156178
5.05,505,1.011,-0.047,0.049,1.3750992,0.8021411999999999,1.432395,118.59657642000002,84.13888229999998,66.65220414
5.06,506,1.011,-0.048,0.048,1.2032118,0.6302538000000001,1.5469866,118.59084684,84.12169356000003,66.63501540000001
5.07,507,1.008,-0.045,0.048,1.3178034,0.40107059999999994,1.5469866,118.56792851999998,84.10450482,66.59490833999999
5.08,508,1.006,-0.046,0.047,1.6042823999999998,0.3437748,1.6615782,118.53928062,84.08731608000002,66.54907170000001
5.09,509,1.005,-0.048,0.044000000000000004,1.7188740000000002,0.7448454000000001,1.6042823999999998,118.55073978,84.07012734,66.54334212
5.1,510,1.004,-0.05,0.040999999999999995,1.7188740000000002,0.8594370000000001,1.6042823999999998,118.65387222,84.12742313999998,66.63501540000001
5.11,511,1.003,-0.052000000000000005,0.039,1.7188740000000002,0.7448454000000001,1.6615782,118.6596018,84.11023440000002,66.62355624
5.12,512,1.003,-0.05,0.04,1.6042823999999998,0.6875496,1.4896908000000002,118.67106096,84.09304566,66.61209708
5.13,513,1.0070000000000001,-0.048,0.040999999999999995,1.4896908000000002,0.5156622000000001,1.432395,118.66533138,84.07585692,66.59490833999999
5.14,514,1.005,-0.046,0.044000000000000004,1.3178034,0.057295800000000015,1.5469866,118.61949474,84.06439776,66.53188295999999
5.1499999999999995,515,1.004,-0.047,0.046,1.2605076000000002,0.057295800000000015,1.5469866,118.76846382,84.16180062,66.66939288
5.16,516,1.003,-0.051,0.040999999999999995,1.0886202,0.572958,1.6042823999999998,118.75127508,84.14461188,66.64647456
5.17,517,1.002,-0.054000000000000006,0.039,0.7448454000000001,1.2605076000000002,1.4896908000000002,118.79711172000002,84.12169356000003,66.68085204
5.18,518,1.001,-0.055,0.038,0.5156622000000001,1.432395,1.432395,118.85440752,84.10450482,66.73241826
5.1899999999999995,519,0.998,-0.054000000000000006,0.039,0.4583664000000001,0.8594370000000001,1.3178034,118.87159626,84.08731608000002,66.74387741999999
5.2,520,1.002,-0.053,0.044000000000000004,0.286479,0.3437748,1.2605076000000002,119.18099358,84.23055558,67.05327473999999
5.21,521,1.006,-0.052000000000000005,0.048,0.0,0.572958,1.0886202,119.17526399999998,84.21909642,67.04754516
5.22,522,1.0070000000000001,-0.051,0.044000000000000004,-0.11459160000000004,1.0313244000000001,1.0313244000000001,119.21537105999998,84.20763725999998,67.08765222
5.2299999999999995,523,1.004,-0.05,0.040999999999999995,0.0,1.2032118,0.8021411999999999,119.27839644,84.19044852,67.15067760000001
5.24,524,1.001,-0.05,0.039,0.2291832000000001,1.2605076000000002,0.6875496,119.35288097999998,84.17898936,67.23089172
5.25,525,1.001,-0.05,0.037000000000000005,0.286479,1.2605076000000002,0.5156622000000001,119.48466132,84.32222886000002,67.36267206
5.26,526,1.001,-0.049,0.037000000000000005,0.3437748,1.0313244000000001,0.572958,119.5476867,84.31076970000002,67.42569744
5.27,527,1.004,-0.048,0.037000000000000005,0.4583664000000001,1.0886202,0.572958,119.61644166,84.30504012,67.48872281999999
5.28,528,1.008,-0.047,0.040999999999999995,0.4583664000000001,1.2605076000000002,0.6302538000000001,119.70238536,84.28785138,67.56893693999999
5.29,529,1.01,-0.046,0.040999999999999995,0.572958,1.2605076000000002,0.6875496,119.78259948,84.27639222,67.64342148
5.3,530,1.0090000000000001,-0.046,0.044000000000000004,0.8021411999999999,0.9740286,0.6875496,120.034701,84.37952466,67.88979342
5.31,531,1.008,-0.047,0.044000000000000004,1.0886202,1.0313244000000001,0.8594370000000001,120.09772638,84.3680655,67.94135964
5.32,532,1.0070000000000001,-0.049,0.040999999999999995,1.0886202,1.3750992,0.8594370000000001,120.18367008,84.35087675999998,68.01584418
5.33,533,1.006,-0.048,0.042,1.145916,1.2605076000000002,0.9167328000000001,120.25815462,84.3394176,68.08459914
5.34,534,1.006,-0.046,0.046,1.145916,1.0313244000000001,1.0313244000000001,120.30972084,84.32222886000002,68.11897662
5.35,535,1.003,-0.046,0.045,1.2032118,0.9740286,1.145916,120.50452656,84.39671340000002,68.30805276
5.36,536,1.003,-0.048,0.044000000000000004,1.2032118,0.9740286,1.2605076000000002,120.53890404,84.37952466,68.3252415
5.37,537,1.004,-0.047,0.047,0.9167328000000001,1.2032118,1.3178034,120.58474068,84.36233591999998,68.36534856
5.38,538,1.006,-0.048,0.046,0.9167328000000001,1.145916,1.3750992,120.62484774,84.34514718,68.39399646
5.39,539,1.0070000000000001,-0.048,0.046,0.9167328000000001,1.2605076000000002,1.4896908000000002,120.6649548,84.32222886000002,68.42264436
5.3999999999999995,540,1.0070000000000001,-0.05,0.045,0.9740286,1.3178034,1.5469866,120.8368422,84.37379508000002,68.58880218
5.41,541,1.004,-0.051,0.045,1.0886202,1.3750992,1.4896908000000002,120.88840842,84.35087675999998,68.62890924
5.42,542,1.004,-0.05,0.044000000000000004,1.0313244000000001,1.432395,1.432395,120.94570422,84.33368802,68.67474588
5.43,543,1.003,-0.05,0.044000000000000004,1.0313244000000001,1.3178034,1.432395,120.99154086,84.31649927999999,68.71485294
5.4399999999999995,544,1.006,-0.052000000000000005,0.046,0.9167328000000001,1.2605076000000002,1.3750992,121.04310708,84.29358096,68.75496000000001
5.45,545,1.0070000000000001,-0.051,0.048,0.7448454000000001,1.2032118,1.3750992,121.22072406,84.35660634000001,68.9268474
5.46,546,1.0070000000000001,-0.05,0.046,0.6875496,0.8594370000000001,1.3178034,121.2379128,84.3394176,68.93257698
5.47,547,1.006,-0.05,0.047,0.6302538000000001,0.6302538000000001,1.2605076000000002,121.23218322,84.32795844,68.92111781999999
5.4799999999999995,548,1.0070000000000001,-0.051,0.046,0.572958,0.6302538000000001,1.145916,121.23218322,84.31649927999999,68.92111781999999
5.49,549,1.0090000000000001,-0.053,0.046,0.40107059999999994,0.9167328000000001,1.0313244000000001,121.26083112,84.29931054,68.94403614
5.5,550,1.008,-0.051,0.044000000000000004,0.3437748,0.9740286,1.0313244000000001,121.467096,84.40244298,69.14457143999999
5.51,551,1.008,-0.05,0.046,0.40107059999999994,0.8594370000000001,1.0313244000000001,121.49001432,84.39098382,69.16748976
5.52,552,1.0070000000000001,-0.051,0.044000000000000004,0.4583664000000001,0.9740286,0.9167328000000001,121.53012138,84.37952466,69.20186724
5.53,553,1.005,-0.05,0.043,0.40107059999999994,1.0886202,0.8594370000000001,121.58168759999998,84.36233591999998,69.24770388
5.54,554,1.004,-0.05,0.040999999999999995,-0.057295800000000015,0.057295800000000015,0.057295800000000015,121.58168759999998,84.36233591999998,69.25343346
5.55,555,1.004,-0.049,0.043,-0.057295800000000015,-0.1718874,-0.1718874,122.22913013999998,84.79205442,69.91233516
5.56,556,1.0070000000000001,-0.049,0.044000000000000004,-0.1718874,-0.057295800000000015,-0.1718874,122.22913013999998,84.79205442,69.91806474
5.57,557,1.008,-0.05,0.046,-0.1718874,-0.1718874,-0.1718874,122.21767098,84.79778400000002,69.90660558
5.58,558,1.0070000000000001,-0.048,0.049,-0.057295800000000015,-0.5156622000000001,-0.057295800000000015,122.17183434,84.79778400000002,69.86076894
5.59,559,1.0070000000000001,-0.049,0.049,-0.1718874,-0.40107059999999994,-0.1718874,122.14318644,84.80351358,69.83212104
5.6,560,1.005,-0.048,0.046,-0.286479,-0.3437748,-0.057295800000000015,122.72187402,85.07853342,70.42226778
5.61,561,1.004,-0.048,0.042,-0.2291832000000001,-0.40107059999999994,0.0,122.67603738,85.07853342,70.38216072
5.62,562,1.004,-0.05,0.044000000000000004,-0.1718874,-0.2291832000000001,0.0,122.64738948,85.07853342,70.35351282
5.63,563,1.006,-0.049,0.047,-0.1718874,-0.2291832000000001,0.11459160000000004,122.61301199999998,85.08426299999998,70.31913534
5.64,564,1.006,-0.048,0.045,-0.2291832000000001,-0.2291832000000001,0.057295800000000015,122.57863452,85.08426299999998,70.29048744
5.6499999999999995,565,1.0070000000000001,-0.048,0.046,-0.057295800000000015,-0.2291832000000001,0.0,123.8448717,85.49679276,71.5624542
5.66,566,1.0070000000000001,-0.049,0.045,0.0,-0.1718874,0.0,123.82195338,85.49679276,71.54526546
5.67,567,1.006,-0.049,0.046,0.0,-0.286479,0.0,123.7875759,85.49679276,71.5051584
5.68,568,1.005,-0.049,0.045,0.0,-0.572958,0.057295800000000015,123.72455052,85.50252234,71.44213302
5.6899999999999995,569,1.006,-0.049,0.044000000000000004,-0.057295800000000015,-0.5156622000000001,0.0,123.66725472,85.50252234,71.38483722
5.7,570,1.0070000000000001,-0.045,0.043,-0.1718874,-0.4583664000000001,0.0,124.32042684,85.69732806,72.0494685
5.71,571,1.006,-0.046,0.046,-0.11459160000000004,-0.5156622000000001,0.11459160000000004,124.25167188,85.70305764,71.98071354
5.72,572,1.008,-0.048,0.047,-0.2291832000000001,-0.1718874,0.286479,124.20583524,85.70305764,71.93487689999998
5.7299999999999995,573,1.0070000000000001,-0.052000000000000005,0.043,-0.40107059999999994,0.3437748,0.286479,124.21156482,85.69732806,71.95206564
5.74,574,1.005,-0.054000000000000006,0.04,-0.6302538000000001,0.40107059999999994,0.286479,124.22875356,85.69159848,71.97498396
5.75,575,1.004,-0.053,0.042,-0.40107059999999994,0.1718874,0.3437748,124.58398752,85.83483798,72.3359475
5.76,576,1.004,-0.053,0.046,-0.286479,-0.286479,0.2291832000000001,124.52669172,85.83483798,72.28438128
5.77,577,1.006,-0.054000000000000006,0.048,-0.40107059999999994,-0.5156622000000001,0.1718874,124.45220718,85.83483798,72.20989674
5.78,578,1.006,-0.051,0.047,-0.6875496,-0.057295800000000015,0.0,124.43501844,85.83483798,72.19843758
5.79,579,1.003,-0.051,0.045,-0.6875496,0.3437748,-0.2291832000000001,124.48085508,85.83483798,72.25573338000002
5.8,580,1.0,-0.05,0.04,-0.6875496,0.6302538000000001,-0.40107059999999994,124.65847206,85.89786336,72.44480952
5.81,581,1.002,-0.05,0.04,-0.5156622000000001,0.5156622000000001,-0.5156622000000001,124.75587492,85.89786336,72.54794196
5.82,582,1.004,-0.05,0.042,-0.3437748,0.11459160000000004,-0.40107059999999994,124.80171156,85.90359294,72.5937786
5.83,583,1.006,-0.048,0.044000000000000004,-0.40107059999999994,-0.11459160000000004,-0.4583664000000001,124.8189003,85.90359294,72.61669692
5.84,584,1.008,-0.048,0.046,-0.4583664000000001,0.0,-0.3437748,124.84181862,85.90932252,72.63961524
5.85,585,1.008,-0.049,0.046,-0.2291832000000001,0.057295800000000015,-0.1718874,125.98773462,86.14996488,73.79699040000001
5.86,586,1.004,-0.047,0.045,-0.11459160000000004,-0.11459160000000004,-0.11459160000000004,125.98200504,86.14996488,73.79126082
5.87,587,1.002,-0.048,0.045,-0.11459160000000004,-0.3437748,-0.057295800000000015,125.94189798,86.15569446,73.75115376
5.88,588,1.003,-0.049,0.044000000000000004,-0.057295800000000015,-0.1718874,0.0,125.91325007999998,86.15569446,73.72823544
5.89,589,1.003,-0.048,0.044000000000000004,-0.11459160000000004,0.057295800000000015,0.0,125.91897966,86.15569446,73.73396502
5.8999999999999995,590,1.005,-0.048,0.044000000000000004,-0.11459160000000004,0.11459160000000004,0.11459160000000004,126.72685044,86.35622975999998,74.54756538
5.91,591,1.005,-0.048,0.046,0.0,0.0,0.057295800000000015,126.71539128,86.35622975999998,74.53610622
5.92,592,1.006,-0.05,0.043,-0.057295800000000015,0.0,0.1718874,126.69247296,86.35622975999998,74.51891748
5.93,593,1.005,-0.049,0.043,-0.1718874,0.1718874,0.2291832000000001,126.69820253999998,86.35050018,74.51891748
5.9399999999999995,594,1.006,-0.049,0.045,-0.2291832000000001,0.11459160000000004,0.3437748,126.67528422,86.35050018,74.50172874
5.95,595,1.006,-0.049,0.045,-0.1718874,-0.057295800000000015,0.3437748,126.99614070000001,86.42498472,74.82831479999999
5.96,596,1.005,-0.051,0.043,0.0,-0.1718874,0.40107059999999994,126.93311532,86.42498472,74.76528942
5.97,597,1.004,-0.053,0.044000000000000004,-0.057295800000000015,0.0,0.40107059999999994,126.89300826,86.41925513999998,74.72518235999998
5.9799999999999995,598,1.004,-0.053,0.043,-0.286479,0.286479,0.286479,126.89873784,86.41352556000002,74.73664152
5.99,599,1.003,-0.052000000000000005,0.045,-0.286479,0.1718874,0.1718874,126.90446742000002,86.41352556000002,74.74237109999999
6.0,600,1.005,-0.053,0.045,-0.2291832000000001,0.11459160000000004,0.057295800000000015,127.14510977999998,86.47655094000002,74.98874304
6.01,601,1.0070000000000001,-0.052000000000000005,0.046,-0.3437748,0.1718874,0.0,127.1680281,86.47655094000002,75.01166136
6.02,602,1.008,-0.051,0.046,-0.5156622000000001,0.1718874,-0.057295800000000015,127.196676,86.47655094000002,75.04603884000002
6.03,603,1.008,-0.052000000000000005,0.046,-0.5156622000000001,0.11459160000000004,-0.057295800000000015,127.21386474,86.47655094000002,75.07468673999998
6.04,604,1.0070000000000001,-0.052000000000000005,0.047,-0.6875496,0.057295800000000015,-0.057295800000000015,127.23105348,86.47655094000002,75.09187548
6.05,605,1.006,-0.051,0.044000000000000004,-0.572958,-0.11459160000000004,-0.2291832000000001,127.36856340000001,86.52238758000001,75.24084456
6.06,606,1.003,-0.051,0.045,-0.40107059999999994,-0.1718874,-0.3437748,127.36856340000001,86.52811716,75.24657413999998
6.07,607,1.006,-0.051,0.042,-0.286479,-0.11459160000000004,-0.40107059999999994,127.39148172,86.52811716,75.27522203999997
6.08,608,1.0090000000000001,-0.049,0.043,-0.3437748,0.0,-0.572958,127.44304794,86.53384674,75.32678826
6.09,609,1.008,-0.049,0.046,-0.1718874,-0.057295800000000015,-0.5156622000000001,127.483155,86.53957632,75.36689532
6.1,610,1.008,-0.051,0.047,-0.057295800000000015,-0.286479,-0.4583664000000001,127.75817484,86.57968338,75.64191516
6.11,611,1.008,-0.049,0.046,0.0,-0.40107059999999994,-0.5156622000000001,127.75817484,86.58541296,75.64764474
6.12,612,1.006,-0.049,0.043,0.0,-0.2291832000000001,-0.5156622000000001,127.78109316,86.59114253999998,75.66483348
6.13,613,1.006,-0.05,0.043,0.057295800000000015,-0.1718874,-0.572958,127.81547064,86.59687212,75.69921095999999
6.14,614,1.004,-0.047,0.042,0.11459160000000004,-0.286479,-0.40107059999999994,127.82120022,86.60260170000002,75.70494054
6.15,615,1.003,-0.049,0.043,0.2291832000000001,-0.2291832000000001,-0.3437748,127.93579182,86.64843834,75.81953214
6.16,616,1.004,-0.051,0.042,0.11459160000000004,0.0,-0.2291832000000001,127.9701693,86.65416791999998,75.85390962
6.17,617,1.005,-0.049,0.042,-0.057295800000000015,0.3437748,-0.286479,128.05038342,86.65416791999998,75.93412373999998
6.18,618,1.006,-0.048,0.044000000000000004,0.0,0.2291832000000001,-0.1718874,128.10767922,86.65416791999998,75.99141954000002
6.1899999999999995,619,1.0070000000000001,-0.047,0.044000000000000004,0.0,0.057295800000000015,-0.11459160000000004,128.13632712,86.65416791999998,76.02006744
6.2,620,1.005,-0.048,0.044000000000000004,0.057295800000000015,-0.057295800000000015,0.0,128.75512176,86.74011162,76.63886208
6.21,621,1.005,-0.048,0.044000000000000004,0.057295800000000015,0.0,0.1718874,128.72647386,86.73438204,76.61021418
6.22,622,1.005,-0.049,0.045,0.0,0.1718874,0.11459160000000004,128.73220343999998,86.73438204,76.61594376000002
6.2299999999999995,623,1.004,-0.05,0.044000000000000004,0.0,0.2291832000000001,0.1718874,128.74939218,86.72865246,76.6331325
6.24,624,1.003,-0.05,0.042,0.0,0.286479,0.11459160000000004,128.7723105,86.72865246,76.65605081999998
6.25,625,1.004,-0.05,0.044000000000000004,-0.057295800000000015,0.11459160000000004,0.11459160000000004,129.23640648,86.82605532,77.12014680000001
6.26,626,1.0070000000000001,-0.05,0.044000000000000004,0.0,-0.057295800000000015,0.2291832000000001,129.19629942,86.82032574,77.08003973999998
6.27,627,1.0070000000000001,-0.047,0.044000000000000004,0.057295800000000015,-0.286479,0.11459160000000004,129.1447332,86.82605532,77.02847352
6.28,628,1.0090000000000001,-0.047,0.045,0.1718874,-0.5156622000000001,0.057295800000000015,129.06451908,86.82605532,76.9482594
6.29,629,1.0070000000000001,-0.049,0.046,0.057295800000000015,-0.5156622000000001,0.2291832000000001,128.96138664,86.82605532,76.83939738000002
6.3,630,1.0070000000000001,-0.05,0.046,-0.057295800000000015,-0.057295800000000015,0.2291832000000001,129.11035571999997,86.84897364,76.99409604
6.31,631,1.006,-0.051,0.044000000000000004,-0.11459160000000004,0.40107059999999994,0.286479,129.13327404,86.84897364,77.01701435999998
6.32,632,1.004,-0.051,0.043,-0.3437748,0.8021411999999999,0.3437748,129.19629942,86.83751448000002,77.08576932000003
6.33,633,1.004,-0.052000000000000005,0.044000000000000004,-0.4583664000000001,0.6875496,0.3437748,129.24786564,86.83178489999996,77.14306512
6.34,634,1.008,-0.053,0.044000000000000004,-0.572958,0.0,0.286479,129.20775858,86.82605532,77.10868764
6.35,635,1.0070000000000001,-0.054000000000000006,0.047,-0.6875496,-0.286479,0.11459160000000004,129.1733811,86.83178489999996,77.08003973999998
6.36,636,1.008,-0.052000000000000005,0.047,-0.7448454000000001,-0.2291832000000001,0.0,129.13327404,86.83751448000002,77.04566226
6.37,637,1.005,-0.051,0.044000000000000004,-0.6302538000000001,0.0,-0.1718874,129.15046278,86.83751448000002,77.07431016000002
6.38,638,1.002,-0.048,0.042,-0.5156622000000001,0.3437748,-0.2291832000000001,129.22494732,86.83751448000002,77.15452428
6.39,639,1.001,-0.049,0.040999999999999995,-0.2291832000000001,0.11459160000000004,-0.1718874,129.26505437999998,86.83751448000002,77.19463134
6.4,640,1.003,-0.048,0.042,0.0,-0.11459160000000004,-0.11459160000000004,129.5458038,86.91199902000002,77.47538076
6.41,641,1.004,-0.047,0.043,0.0,0.0,0.0,129.5458038,86.91199902000002,77.47538076
6.42,642,1.006,-0.048,0.042,0.0,0.2291832000000001,-0.057295800000000015,129.59164044,86.91199902000002,77.52121740000003
6.43,643,1.008,-0.05,0.043,0.0,0.3437748,-0.057295800000000015,129.64893623999998,86.91199902000002,77.58424278
6.4399999999999995,644,1.0090000000000001,-0.048,0.043,0.057295800000000015,0.3437748,-0.057295800000000015,129.70623204,86.91199902000002,77.64153858
6.45,645,1.008,-0.048,0.042,0.11459160000000004,0.11459160000000004,-0.11459160000000004,129.82655322,86.94637650000001,77.75613018
6.46,646,1.008,-0.048,0.044000000000000004,0.1718874,-0.057295800000000015,0.0,129.82082364,86.94637650000001,77.74467102000001
6.47,647,1.008,-0.047,0.045,0.1718874,-0.2291832000000001,0.0,129.78644616000003,86.95210608,77.71602312
6.4799999999999995,648,1.01,-0.049,0.046,0.286479,-0.40107059999999994,0.057295800000000015,129.72342078,86.95210608,77.64726816
6.49,649,1.0090000000000001,-0.048,0.046,0.4583664000000001,-0.572958,0.11459160000000004,129.62601792,86.95210608,77.54413572000001
6.5,650,1.008,-0.05,0.047,0.4583664000000001,-0.4583664000000001,0.11459160000000004,129.6890433,86.96356524000002,77.60143152
6.51,651,1.006,-0.051,0.044000000000000004,0.4583664000000001,-0.286479,0.2291832000000001,129.62028834,86.96929482,77.52694698
6.52,652,1.003,-0.051,0.043,0.286479,-0.40107059999999994,0.11459160000000004,129.5458038,86.96929482,77.44673286
6.53,653,1.001,-0.047,0.045,0.3437748,-0.6302538000000001,0.057295800000000015,129.44840094,86.96929482,77.34933000000002
6.54,654,1.004,-0.05,0.044000000000000004,0.40107059999999994,-0.40107059999999994,0.057295800000000015,129.38537556,86.97502440000002,77.28057504
6.55,655,1.005,-0.05,0.043,0.1718874,0.0,0.11459160000000004,129.31089102,87.0036723,77.20609049999999
6.56,656,1.004,-0.051,0.040999999999999995,0.1718874,0.0,0.11459160000000004,129.29370228,87.0036723,77.18317218
6.57,657,1.002,-0.05,0.040999999999999995,0.2291832000000001,0.0,0.11459160000000004,129.28224312,87.0036723,77.17171302
6.58,658,1.001,-0.051,0.039,0.286479,0.0,0.11459160000000004,129.27078396000002,86.99794272,77.15452428
6.59,659,1.001,-0.051,0.039,0.1718874,0.0,0.11459160000000004,129.26505437999998,86.99794272,77.14879470000002
6.6,660,1.002,-0.051,0.04,0.0,0.057295800000000015,0.057295800000000015,129.06451908,87.03232019999999,76.9482594
6.61,661,1.003,-0.051,0.042,0.0,0.286479,0.057295800000000015,129.09889656,87.03232019999999,76.98263688
6.62,662,1.005,-0.051,0.04,-0.057295800000000015,0.40107059999999994,0.11459160000000004,129.1447332,87.02659062000002,77.0342031
6.63,663,1.006,-0.051,0.039,0.0,0.2291832000000001,0.0,129.17911067999998,87.02659062000002,77.062851
6.64,664,1.006,-0.051,0.042,0.11459160000000004,0.0,-0.11459160000000004,129.20202899999998,87.02659062000002,77.08576932000003
6.65,665,1.004,-0.052000000000000005,0.045,0.1718874,-0.057295800000000015,-0.1718874,129.35099808,87.02659062000002,77.23473840000003
6.66,666,1.004,-0.051,0.043,0.057295800000000015,0.0,-0.2291832000000001,129.38537556,87.02659062000002,77.26911588
6.67,667,1.0070000000000001,-0.05,0.044000000000000004,0.0,0.1718874,-0.3437748,129.46558968,87.03232019999999,77.34933000000002
6.68,668,1.0070000000000001,-0.049,0.044000000000000004,-0.057295800000000015,0.3437748,-0.3437748,129.55726295999997,87.03232019999999,77.44100327999998
6.6899999999999995,669,1.008,-0.048,0.043,-0.11459160000000004,0.40107059999999994,-0.286479,129.65466582000002,87.03232019999999,77.53840613999998
6.7,670,1.0070000000000001,-0.049,0.044000000000000004,0.0,0.40107059999999994,-0.1718874,129.87811944,87.03232019999999,77.76758934
6.71,671,1.0070000000000001,-0.049,0.044000000000000004,0.0,0.286479,-0.11459160000000004,129.94687439999998,87.03232019999999,77.83061472
6.72,672,1.006,-0.05,0.044000000000000004,0.0,0.2291832000000001,-0.11459160000000004,129.99844062,87.03232019999999,77.88218094
6.7299999999999995,673,1.006,-0.049,0.043,0.11459160000000004,0.1718874,-0.11459160000000004,130.05000683999998,87.03232019999999,77.93374716000002
6.74,674,1.006,-0.049,0.043,0.11459160000000004,0.11459160000000004,-0.1718874,130.10157306000002,87.03232019999999,77.98531338000002
6.75,675,1.006,-0.049,0.044000000000000004,0.057295800000000015,0.057295800000000015,-0.286479,130.41669996000002,87.05523852,78.30044028
6.76,676,1.0070000000000001,-0.049,0.044000000000000004,0.0,0.0,-0.2291832000000001,130.44534786,87.05523852,78.32908818
6.77,677,1.0070000000000001,-0.048,0.045,0.0,-0.11459160000000004,-0.2291832000000001,130.45680702,87.0609681,78.34054734
6.78,678,1.0070000000000001,-0.049,0.046,0.0,0.057295800000000015,-0.11459160000000004,130.48545492,87.0609681,78.36919524
6.79,679,1.0070000000000001,-0.048,0.045,0.0,0.1718874,-0.057295800000000015,130.52556198,87.0609681,78.40930230000002
6.8,680,1.0070000000000001,-0.048,0.043,0.057295800000000015,0.11459160000000004,0.0,130.67453106,87.07815683999998,78.55827138
6.81,681,1.005,-0.048,0.042,0.0,0.11459160000000004,0.057295800000000015,130.68026064,87.07815683999998,78.56400096
6.82,682,1.004,-0.05,0.043,0.0,0.0,0.1718874,130.65734232,87.07815683999998,78.53535306
6.83,683,1.005,-0.049,0.043,-0.057295800000000015,-0.1718874,0.11459160000000004,130.60577609999999,87.07815683999998,78.48378684000002
6.84,684,1.004,-0.048,0.043,0.0,-0.2291832000000001,0.057295800000000015,130.55420988,87.07815683999998,78.4379502
6.85,685,1.006,-0.049,0.046,0.057295800000000015,0.0,0.11459160000000004,130.75474518,87.08388642,78.6384855
6.86,686,1.006,-0.049,0.045,0.0,0.2291832000000001,0.0,130.79485224,87.08388642,78.67286298
6.87,687,1.006,-0.05,0.042,0.11459160000000004,0.2291832000000001,0.1718874,130.80631139999997,87.07815683999998,78.68432214
