TimeStamp(s),FrameCounter,AccX,AccY,AccZ,GyrX,GyrY,GyrZ,EulerX,EulerY,EulerZ
0.01,1,0.09,-0.972,-0.067,-14.667724800000002,-3.9534102,-2.86479,87.37609499999998,0.93392154,-3.85600734
0.02,2,0.103,-0.981,-0.061,-18.9649098,-6.3025379999999975,-1.6042823999999998,87.18701886,0.9453806999999999,-3.9247623
0.03,3,0.097,-1.005,-0.037000000000000005,-18.334656,-8.078707799999998,0.4010706,86.99794272,0.93965112,-4.00497642
0.04,4,0.076,-1.032,-0.018000000000000002,-17.475219,-8.7662574,2.1199446,86.82032574,0.9167328000000001,-4.09092012
0.05,5,0.051,-1.045,-0.004,-15.985528200000001,-8.479778399999999,3.2658606,86.66562708000002,0.8823553199999999,-4.17686382
0.060000000000000005,6,0.03,-1.056,0.002,-15.2979786,-7.6776372,3.5523396000000003,86.51092842,0.8422482600000001,-4.25134836
0.06999999999999999,7,0.023,-1.068,-0.004,-16.673077799999998,-6.2452422,3.0939732,86.33904102,0.8078707799999998,-4.31437374
0.08,8,0.022,-1.075,-0.01,-18.907614000000002,-4.4117766,2.291832,86.14996488,0.7849524600000001,-4.36021038
0.09,9,0.025,-1.074,-0.019,-20.168121600000006,-1.5469866,1.0886202,85.9437,0.76776372,-4.37739912
0.09999999999999999,10,0.024,-1.067,-0.023,-19.938938399999998,1.5469866,-0.1718874,85.7431647,0.7734933,-4.36021038
0.11,11,0.019,-1.056,-0.014,-19.6524594,4.8701430000000006,-1.2032118,85.54835898,0.7849524600000001,-4.320103319999999
0.12,12,0.02,-1.05,-0.005,-20.1108258,7.2192707999999985,-1.8907613999999997,85.3420941,0.8078707799999998,-4.25134836
0.13,13,0.024,-1.052,0.006999999999999999,-20.912967,9.3392154,-2.3491278,85.13009964,0.8307891,-4.15967508
0.14,14,0.027000000000000003,-1.063,0.022,-22.1161788,10.886202,-2.5210152000000003,84.90664602000003,0.8594370000000001,-4.05654264
0.15000000000000002,15,0.027000000000000003,-1.075,0.027000000000000003,-23.3193906,12.4331886,-2.9220857999999996,84.67746281999997,0.89954406,-3.94195104
0.16,16,0.024,-1.086,0.019,-24.8663772,15.2979786,-3.6096354,84.42536129999998,0.93965112,-3.79298196
0.17,17,0.02,-1.092,0.013,-26.5279554,18.9649098,-4.6982556,84.15607104,1.0026765,-3.61536498
0.18000000000000002,18,0.018000000000000002,-1.09,0.015,-27.903054600000004,22.6891368,-5.72958,83.87532162,1.07143146,-3.39764094
0.19,19,0.019,-1.086,0.016,-29.8511118,25.9549974,-6.8182002000000015,83.57165388,1.1573751600000002,-3.15699858
0.2,20,0.025,-1.083,0.014,-32.31483119999999,28.5906042,-8.193299399999999,83.25079740000002,1.2605076000000002,-2.88770832
0.21000000000000002,21,0.032,-1.074,-0.001,-35.2942128,30.65325300000001,-9.740286,82.89556344,1.38082878,-2.6012293200000003
0.22,22,0.044,-1.058,-0.029,-36.669312,31.8564648,-10.6570188,82.52887032,1.51260912,-2.30329116
0.23,23,0.061,-1.034,-0.056,-37.0130868,32.6013102,-10.9434978,82.15644762000002,1.6558486199999998,-1.99962342
0.24000000000000002,24,0.085,-1.006,-0.073,-36.2682414,32.372127,-10.9434978,81.7897545,1.7933585399999998,-1.70168526
0.25,25,0.11,-0.983,-0.08,-35.695283399999994,31.340802600000004,-10.886202,81.43452054,1.94232762,-1.40947668
0.26,26,0.124,-0.963,-0.078,-35.3515086,29.392745399999995,-10.7143146,81.07928658,2.07983754,-1.14018642
0.27,27,0.138,-0.953,-0.093,-34.950438,27.1009134,-10.7716104,80.7297822,2.21734746,-0.89381448
0.28,28,0.141,-0.954,-0.125,-34.7785506,24.9809688,-11.172681,80.3860074,2.35485738,-0.6703608600000001
0.29000000000000004,29,0.14,-0.948,-0.151,-33.4607472,22.5745452,-11.516455800000001,80.04796218,2.49809688,-0.47555514
0.3,30,0.14,-0.939,-0.16899999999999998,-31.741873200000004,21.6005166,-11.45916,79.73283528,2.64706596,-0.28647900000000004
0.31,31,0.138,-0.919,-0.177,-29.2781538,21.0848544,-11.0580894,79.4406267,2.78457588,-0.10313244
0.32,32,0.14400000000000002,-0.885,-0.16399999999999998,-25.4393352,20.511896399999998,-10.1413566,79.18852518,2.91062664,0.07448454
0.33,33,0.138,-0.858,-0.124,-21.027558600000006,17.6471064,-8.136003599999999,78.97653072,3.01948866,0.2291832000000001
0.34,34,0.124,-0.856,-0.076,-18.048177,12.032117999999999,-6.130650599999999,78.79891374,3.0939732,0.33231564
0.35000000000000003,35,0.093,-0.8909999999999999,-0.038,-16.8449652,5.6149884000000005,-5.2139178,78.65567424,3.1627281600000003,0.37815228
0.36000000000000004,36,0.068,-0.965,0.002,-16.4438946,0.7448454000000001,-5.5003968,78.48378684000002,3.214294380000001,0.3724227000000001
0.37,37,0.064,-1.024,0.044,-16.4438946,-4.297185,-6.417129599999999,78.31762902,3.2658606,0.31512690000000004
0.38,38,0.06,-1.053,0.086,-15.9282324,-7.5630456000000015,-7.3911582,78.1514712,3.3231564,0.22345362
0.39,39,0.061,-1.073,0.098,-15.5844576,-8.193299399999999,-8.3651868,77.98531338000002,3.3919113599999995,0.12605075999999998
0.4,40,0.07200000000000001,-1.085,0.097,-15.2979786,-7.161975,-9.453807000000001,77.86499219999997,3.47212548,0.028647900000000007
0.41000000000000003,41,0.08199999999999999,-1.106,0.091,-15.6990492,-5.2712136,-10.1986524,77.69883438,3.5580691799999995,-0.04010706
0.42000000000000004,42,0.076,-1.136,0.08,-14.610429000000002,-2.86479,-9.9121734,77.5498653,3.64974246,-0.0859437
0.43,43,0.058,-1.187,0.049,-12.834259199999998,-0.8021411999999999,-9.453807000000001,77.41808496,3.73568616,-0.12032118
0.44,44,0.038,-1.24,-0.005,-13.178034,-0.057295800000000015,-8.5370742,77.28057504,3.82162986,-0.13750992
0.45,45,0.053,-1.244,-0.039,-11.917526400000002,-2.3491278,-7.2765666,77.17171302,3.88465524,-0.17761697999999998
0.46,46,0.073,-1.228,-0.055,-7.906820400000001,-4.5263682,-7.2765666,77.0914989,3.94195104,-0.24064236
0.47000000000000003,47,0.11,-1.203,-0.06,-3.8961144,-4.5263682,-8.479778399999999,77.04566226,4.01643558,-0.30366774
0.48000000000000004,48,0.165,-1.187,-0.054000000000000006,-1.6615782,-3.724227,-10.5424272,77.02274394,4.11383844,-0.36096354
0.49,49,0.238,-1.2,-0.081,-1.0313244,-3.8388186,-12.4904844,77.01128478000003,4.22270046,-0.4297185000000001
0.5,50,0.297,-1.265,-0.13699999999999998,-1.7188740000000002,-7.448453999999999,-14.4385416,76.98836646,4.36021038,-0.53285094
0.51,51,0.348,-1.384,-0.238,-3.4950437999999995,-10.026765,-16.7876694,76.94252982,4.50344988,-0.6703608600000001
0.52,52,0.328,-1.54,-0.448,-1.0886202,-5.9014674000000005,-21.6005166,76.92534108,4.6982555999999995,-0.7734933
0.53,53,0.29,-1.665,-0.748,21.8869956,6.1879464,-33.6326346,77.14306512,5.042030400000002,-0.7849524600000001
0.54,54,0.255,-1.742,-0.6990000000000001,37.8725238,-2.291832,-41.023792799999995,77.52121740000003,5.43737142,-0.89381448
0.55,55,0.21600000000000005,-1.499,-0.331,18.3919518,-7.8495246,-33.002380800000005,77.6931048,5.746768739999999,-1.03705398
0.56,56,0.243,-1.143,-0.364,6.1879464,-17.589810600000003,-12.605076,77.73894143999998,5.83844202,-1.23758928
0.5700000000000001,57,0.364,-1.02,-0.409,9.6829902,-35.695283399999994,9.1100322,77.8076964,5.683743359999999,-1.56417534
0.5800000000000001,58,0.487,-1.026,-0.388,8.193299399999999,-44.1750618,23.6058696,77.85926262000002,5.37434604,-1.9480572000000005
0.59,59,0.504,-1.046,-0.469,9.3392154,-51.7381074,26.929026,77.92228800000002,5.02484166,-2.39496444
0.6,60,0.376,-0.992,-0.446,10.026765,-54.25912260000001,21.7151082,77.97385421999998,4.7269035000000015,-2.88197874
0.61,61,0.239,-0.867,-0.414,6.016058999999999,-52.6548402,14.896907999999998,78.00250212,4.49199072,-3.3689930400000003
0.62,62,0.15,-0.7909999999999999,-0.402,-0.9167328,-50.1911208,8.9954406,77.96812464000001,4.31437374,-3.8388186000000006
0.63,63,0.077,-0.8340000000000001,-0.371,-7.2765666,-48.70143,3.8961144,77.86499219999997,4.1883229800000015,-4.30291458
0.64,64,-0.02,-0.957,-0.307,-10.3705398,-48.3576552,1.2605076000000002,77.73321186000003,4.08519054,-4.77274014
0.65,65,-0.1,-1.053,-0.255,-11.917526400000002,-46.982556,1.6615782,77.58424278,3.9648693599999993,-5.231106540000001
0.66,66,-0.155,-1.087,-0.231,-11.229976800000001,-45.4928652,4.8701430000000006,77.44673286,3.83308902,-5.66655462
0.67,67,-0.18,-1.074,-0.213,-8.193299399999999,-44.34694920000001,9.9121734,77.33787084,3.64974246,-6.0733548000000015
0.68,68,-0.16,-1.046,-0.191,-3.380452200000001,-41.76863820000001,16.2147114,77.28630462,3.4148296799999995,-6.4457775
0.6900000000000001,69,-0.104,-1.022,-0.173,0.8594370000000001,-36.096354,21.3140376,77.28630462,3.13408026,-6.74944524
0.7000000000000001,70,-0.052000000000000005,-0.993,-0.152,3.380452200000001,-29.793816,23.4339822,77.31495251999998,2.84760126,-6.990087599999999
0.7100000000000001,71,-0.004,-0.945,-0.15,3.8961144,-24.694489800000003,23.3193906,77.34933000000002,2.57258142,-7.17916374
0.72,72,0.03,-0.887,-0.155,3.2658606,-22.1161788,21.829699800000004,77.3779779,2.3204799,-7.34532156
0.73,73,0.049,-0.8290000000000001,-0.16399999999999998,2.8074942000000003,-21.4286292,19.767051,77.40662579999999,2.08556712,-7.51147938
0.74,74,0.061,-0.7809999999999999,-0.168,2.2345362,-21.829699800000004,17.246035799999998,77.42381454,1.87930224,-7.6890963600000015
0.75,75,0.069,-0.742,-0.162,1.145916,-23.204799,14.9542038,77.43527370000002,1.6959556799999995,-7.88390208
0.76,76,0.068,-0.7170000000000001,-0.152,-0.572958,-24.5798982,13.6936962,77.42381454,1.51260912,-8.09016696
0.77,77,0.049,-0.7070000000000001,-0.139,-2.578311,-26.1841806,13.6936962,77.39516663999999,1.3349921400000002,-8.319350159999999
0.78,78,0.021,-0.7090000000000001,-0.138,-3.724227,-25.6685184,14.667724800000002,77.35505958,1.14018642,-8.5370742
0.79,79,-0.006999999999999999,-0.716,-0.145,-4.6982556,-23.376686399999997,16.2147114,77.30922294000001,0.93965112,-8.72615034
0.8,80,-0.031,-0.721,-0.168,-4.6409598,-20.9702628,18.6784308,77.25765672,0.7161975,-8.89230816
0.81,81,-0.057,-0.7290000000000001,-0.171,-4.1252976000000015,-19.1367972,21.8869956,77.21754966,0.46409598,-9.02981808
0.8200000000000001,82,-0.075,-0.737,-0.195,-4.2398892,-16.157415599999997,25.496631,77.17744259999998,0.18334656,-9.13295052
0.8300000000000001,83,-0.097,-0.741,-0.206,-4.6409598,-14.610429000000002,28.8770832,77.13160596,-0.12032118,-9.21316464
0.8400000000000001,84,-0.117,-0.7490000000000001,-0.17600000000000002,-3.8961144,-12.3758928,31.5699858,77.09722848,-0.44690724,-9.26473086
0.85,85,-0.128,-0.773,-0.155,-2.0053530000000004,-11.0007936,33.1742682,77.08003973999998,-0.8021412000000001,-9.29910834
0.86,86,-0.129,-0.821,-0.122,-1.145916,-9.453807000000001,34.60666320000001,77.06858058,-1.1573751600000002,-9.31629708
0.87,87,-0.128,-0.879,-0.08,-3.0939732,-4.583664,36.096354,77.03993267999998,-1.5183387000000002,-9.2819196
0.88,88,-0.08900000000000001,-0.914,-0.06,-5.7868758000000025,-1.0313244,37.0130868,76.97690730000002,-1.87930224,-9.20743506
0.89,89,-0.03,-0.929,-0.079,-7.448453999999999,0.0,36.8411994,76.89669318,-2.2345362,-9.12722094
0.9,90,0.003,-0.938,-0.098,-7.906820400000001,-0.4010706,35.4088044,76.82793822,-2.57258142,-9.0527364
0.91,91,-0.004,-0.956,-0.118,-6.9327918,-1.0313244,34.262888399999994,76.75345368,-2.90489706,-8.98971102
0.92,92,-0.036000000000000004,-0.988,-0.142,-1.3178034,-3.6096354,34.1482968,76.74199452,-3.24294228,-8.949603960000003
0.93,93,-0.092,-1.036,-0.112,8.8235532,-9.969469199999999,33.5753388,76.8336678,-3.58671708,-8.9667927
0.9400000000000001,94,-0.16399999999999998,-1.06,-0.091,13.6936962,-12.4331886,31.971056400000002,76.97690730000002,-3.9190327200000006,-9.01835892
0.9500000000000001,95,-0.25,-1.069,-0.063,18.907614000000002,-10.6570188,28.5333084,77.18890176,-4.23415962,-9.05846598
0.9600000000000001,96,-0.328,-1.101,-0.028,23.491278,-1.3750992,23.835052800000003,77.42381454,-4.46334282,-9.01835892
0.97,97,-0.369,-1.169,-0.051,24.5798982,15.756345000000001,18.5065434,77.65872732,-4.612311900000001,-8.823553200000003
0.98,98,-0.408,-1.254,-0.135,24.0069402,34.950438,12.891555,77.86499219999997,-4.669607699999999,-8.451130500000001
0.99,99,-0.369,-1.5119999999999998,-0.5660000000000001,11.0580894,50.47759979999999,9.6829902,77.93374716000002,-4.675337279999999,-7.94119788
1.0,100,-0.28600000000000003,-1.759,-0.937,2.9793816000000004,48.6441342,13.6364004,77.91082884,-4.72117392,-7.43699484
1.01,101,-0.079,-1.726,-0.755,21.6578124,36.5547204,22.7464326,78.09417540000003,-4.87587258,-7.030194660000001
1.02,102,0.109,-1.352,-0.434,28.1895336,37.81522800000001,22.9756158,78.34054734,-5.03057124,-6.611935319999999
1.03,103,0.112,-0.906,-0.274,20.340009,45.779344200000004,16.7876694,78.495246,-5.11078536,-6.130650600000001
1.04,104,-0.031,-0.63,-0.241,18.907614000000002,48.4722468,10.5424272,78.6384855,-5.1279740999999985,-5.63217714
1.05,105,-0.198,-0.546,-0.287,16.902261,53.8007562,3.3231564,78.74161794,-5.08213746,-5.0993262
1.06,106,-0.276,-0.64,-0.418,10.7716104,63.1972674,-3.6669312000000014,78.78745458,-4.94462754,-4.48626114
1.07,107,-0.266,-0.816,-0.468,5.0993262,69.32791800000001,-8.307891,78.77599542,-4.74409224,-3.82735944
1.08,108,-0.17,-0.982,-0.391,2.7501984,74.82831479999999,-10.8289062,78.73588836,-4.51490904,-3.11689152
1.09,109,-0.012,-1.052,-0.277,0.4010706,79.46927459999998,-14.667724800000002,78.67286298,-4.2398892,-2.36631654
1.1,110,0.116,-1.032,-0.211,-3.380452200000001,78.1514712,-17.4179232,78.57546012,-3.9247623,-1.6386598799999998
1.11,111,0.194,-0.976,-0.175,-7.0473834,73.85428619999998,-17.3606274,78.44940936,-3.63255372,-0.95111028
1.12,112,0.238,-0.947,-0.166,-9.2819196,67.66633979999999,-15.9282324,78.30616986,-3.36326346,-0.32085648
1.1300000000000001,113,0.278,-0.955,-0.142,-9.740286,59.98870260000001,-14.5531332,78.16865994000003,-3.11689152,0.22345362
1.1400000000000001,114,0.277,-0.993,-0.128,-7.161975,49.9619376,-13.8655836,78.05979792000002,-2.8934379,0.68182002
1.1500000000000001,115,0.235,-1.02,-0.117,-4.4690724,40.04976420000001,-13.120738199999998,78.00250212,-2.6699842800000004,1.04278356
1.1600000000000001,116,0.19,-1.037,-0.115,-3.2085648,32.257535399999995,-12.605076,77.9509359,-2.48663772,1.32926256
1.17,117,0.131,-1.025,-0.136,-3.3231564,26.69984280000001,-13.2353298,77.90509926,-2.30902074,1.56417534
1.18,118,0.064,-0.986,-0.16699999999999998,-4.6409598,24.637194,-13.6364004,77.84207388,-2.13713334,1.7761698
1.19,119,0.022,-0.938,-0.184,-6.130650599999999,23.8923486,-12.7196676,77.77331892,-1.97097552,1.98243468
1.2,120,-0.009000000000000001,-0.894,-0.214,-8.307891,24.8090814,-11.6310474,77.67018648,-1.81054728,2.19442914
1.21,121,-0.033,-0.8540000000000001,-0.246,-10.4278356,26.9863218,-10.599723,77.5498653,-1.6558486199999998,2.4350715000000003
1.22,122,-0.041,-0.8190000000000001,-0.261,-12.0894138,28.7051958,-9.568398599999998,77.41808496,-1.51260912,2.6929026
1.23,123,-0.042,-0.782,-0.246,-11.3445684,29.67922440000001,-8.7662574,77.2920342,-1.36936962,2.96219286
1.24,124,-0.044,-0.7709999999999999,-0.204,-10.313244,29.67922440000001,-9.5111028,77.17744259999998,-1.22040054,3.2257535399999995
1.25,125,-0.023,-0.764,-0.155,-9.797581800000001,30.4813656,-12.318597,77.06858058,-1.04278356,3.4950437999999995
1.26,126,0.014,-0.7609999999999999,-0.119,-10.1413566,31.79916900000001,-16.157415599999997,76.95398897999998,-0.8250595199999999,3.77006364
1.27,127,0.049,-0.753,-0.117,-11.0580894,33.518043,-21.3140376,76.8336678,-0.55576926,4.04508348
1.28,128,0.103,-0.757,-0.112,-10.7143146,33.804522,-25.78311,76.7190762,-0.24064236,4.31437374
1.29,129,0.138,-0.759,-0.121,-10.886202,35.4088044,-29.335449600000004,76.60448459999998,0.10886202,4.58939358
1.3,130,0.165,-0.7859999999999999,-0.149,-10.5424272,37.1849742,-31.3980984,76.48989300000002,0.4984734599999999,4.87587258
1.31,131,0.172,-0.818,-0.149,-9.6256944,34.8931422,-31.79916900000001,76.39249013999998,0.87662574,5.13943326
1.32,132,0.174,-0.8370000000000001,-0.092,-7.7349330000000025,28.7051958,-30.5386614,76.31227602,1.2318597,5.3456981400000005
1.33,133,0.171,-0.848,-0.078,-6.5317212,21.6578124,-27.8457588,76.24352106,1.5469866,5.48893764
1.34,134,0.19,-0.8640000000000001,-0.091,-4.7555514,16.386598799999998,-24.5798982,76.19768442,1.81627686,5.5863405
1.35,135,0.218,-0.904,-0.071,-0.8021411999999999,9.3965112,-20.7410796,76.22060274,2.08556712,5.62644756
1.36,136,0.253,-0.969,-0.04,3.9534102,0.572958,-17.0168526,76.2607098,2.25172494,5.59207008
1.37,137,0.276,-1.052,-0.028,8.3651868,-7.7349330000000025,-13.6936962,76.34092392,2.36631654,5.48893764
1.3800000000000001,138,0.277,-1.117,-0.013,10.6570188,-13.5791046,-10.886202,76.44405636,2.44653066,5.3285094000000015
1.3900000000000001,139,0.256,-1.16,-0.016,12.318597,-16.8449652,-9.1100322,76.56437754,2.49809688,5.14516284
1.4000000000000001,140,0.252,-1.194,-0.055,13.6936962,-17.303331600000003,-8.078707799999998,76.71334662,2.5611222600000003,4.96181628
1.4100000000000001,141,0.272,-1.225,-0.121,16.157415599999997,-16.2147114,-8.021412000000002,76.86804528,2.6069589,4.78992888
1.42,142,0.276,-1.268,-0.16399999999999998,19.938938399999998,-19.2513888,-8.59437,77.062851,2.65852512,4.5836640000000015
1.43,143,0.301,-1.317,-0.274,25.1528562,-24.4080108,-9.797581800000001,77.30922294000001,2.70436176,4.325832900000001
1.44,144,0.244,-1.442,-0.494,24.5798982,-34.091001,-11.745639,77.5498653,2.76165756,3.97059894
1.45,145,0.238,-1.605,-0.59,28.074942,-29.8511118,-17.3606274,77.81915556,2.87624916,3.64974246
1.46,146,0.264,-1.64,-0.745,27.6738714,-23.6631654,-23.7204612,78.08844581999998,3.07105488,3.3689930400000003
1.47,147,0.239,-1.401,-0.91,25.3247436,-27.1009134,-24.1215318,78.33481775999998,3.26013102,3.05959572
1.48,148,0.066,-1.087,-0.857,23.7204612,-38.67466500000001,-19.7097552,78.5525418,3.38618178,2.64706596
1.49,149,-0.08199999999999999,-0.815,-0.6659999999999999,24.4653066,-55.2331512,-13.349921400000001,78.77599542,3.42628884,2.08556712
1.5,150,-0.083,-0.643,-0.514,20.912967,-66.11935319999999,-5.6722842,78.93069408,3.3689930400000003,1.4209358399999998
1.51,151,0.016,-0.585,-0.48,11.0580894,-72.0208206,-0.2291832000000001,79.01090819999997,3.26013102,0.72192708
1.52,152,0.092,-0.674,-0.435,0.0,-72.07811640000001,1.7761698,78.98226030000002,3.1226211000000004,0.01718874
1.53,153,0.14,-0.94,-0.376,-6.589017,-65.4890994,0.1718874,78.89058702,3.0137590800000003,-0.61306506
1.54,154,0.142,-1.243,-0.301,-8.078707799999998,-54.4883058,-3.6669312000000014,78.78745458,2.96219286,-1.1573751600000002
1.55,155,0.095,-1.3969999999999998,-0.197,-7.2765666,-46.9252602,-7.2192707999999985,78.6957813,2.9507337,-1.6272007199999998
1.56,156,0.024,-1.356,-0.149,-8.880849000000003,-45.6647526,-6.760904399999999,78.59264886000003,2.93927454,-2.08556712
1.57,157,-0.014,-1.1909999999999998,-0.14,-10.313244,-44.919907200000004,-2.8074942000000003,78.46659809999998,2.88770832,-2.53247436
1.58,158,-0.034,-1.031,-0.138,-6.760904399999999,-41.0810886,1.4896908000000002,78.38638397999998,2.80176462,-2.92781538
1.59,159,-0.04,-0.921,-0.162,-2.0626488000000003,-37.4714532,5.443101,78.35200649999999,2.68717302,-3.28304934
1.6,160,-0.068,-0.8540000000000001,-0.163,1.432395,-33.9191136,8.193299399999999,78.35773608,2.53247436,-3.59817624
1.61,161,-0.061,-0.799,-0.149,2.9220857999999996,-29.67922440000001,10.3705398,78.38065440000003,2.38350528,-3.8674665
1.62,162,-0.043,-0.7509999999999999,-0.141,0.8594370000000001,-27.8457588,12.605076,78.38065440000003,2.21161788,-4.11383844
1.6300000000000001,163,-0.012,-0.7140000000000001,-0.122,-2.4064236,-27.043617600000005,15.4125702,78.35200649999999,2.01681216,-4.34875122
1.6400000000000001,164,0.022,-0.698,-0.118,-5.844171599999999,-25.1528562,18.334656,78.28898111999997,1.7933585399999998,-4.56074568
1.6500000000000001,165,0.053,-0.7040000000000001,-0.117,-9.3392154,-22.9756158,20.168121600000006,78.19157826,1.55844576,-4.74409224
1.6600000000000001,166,0.091,-0.708,-0.13699999999999998,-10.0840608,-22.0015872,21.0848544,78.08844581999998,1.31207382,-4.91597964
1.6700000000000002,167,0.12,-0.696,-0.155,-10.4851314,-24.1215318,21.4286292,77.9795838,1.0599723,-5.11078536
1.68,168,0.117,-0.6629999999999999,-0.168,-9.6829902,-28.5333084,21.829699800000004,77.88218094,0.79641162,-5.339968560000001
1.69,169,0.1,-0.615,-0.16699999999999998,-5.958763200000001,-33.116972399999995,21.829699800000004,77.82488514,0.52139178,-5.62071798
1.7,170,0.073,-0.586,-0.15,-1.2605076000000002,-35.236917,21.027558600000006,77.81342598,0.25783110000000004,-5.91865614
1.71,171,0.024,-0.5820000000000001,-0.11,1.7761698,-33.6899304,19.9962342,77.83634430000002,0.00572958,-6.205135139999999
1.72,172,-0.031,-0.585,-0.07200000000000001,4.9274388,-28.934379,18.162768600000003,77.88791051999998,-0.21772404,-6.4457775
1.73,173,-0.103,-0.618,-0.069,6.9327918,-23.6631654,17.246035799999998,77.96239505999998,-0.4297185000000001,-6.640583220000001
1.74,174,-0.171,-0.664,-0.032,8.8235532,-18.048177,16.902261,78.05979792000002,-0.62452422,-6.783822719999999
1.75,175,-0.221,-0.715,-0.022,10.0840608,-8.9954406,16.1001198,78.1801191,-0.8250595199999999,-6.8411185199999975
1.76,176,-0.238,-0.7659999999999999,0.006,10.5424272,-0.6302538000000001,14.8396122,78.28325154000002,-0.96829902,-6.8182002000000015
1.77,177,-0.214,-0.816,0.03,10.7716104,4.297185,12.7196676,78.39211356000001,-1.0886202,-6.74944524
1.78,178,-0.185,-0.882,0.039,10.5424272,5.2712136,9.9121734,78.50097558,-1.1745638999999999,-6.6749607000000015
1.79,179,-0.094,-0.945,0.016,8.8235532,6.9327918,6.760904399999999,78.58691927999998,-1.22613012,-6.5947465800000025
1.8,180,-0.014,-0.976,-0.029,6.760904399999999,7.8495246,3.3231564,78.70151088,-1.2318597,-6.51453246
1.81,181,0.005,-1.007,-0.081,4.7555514,6.5317212,0.2291832000000001,78.74734751999998,-1.22613012,-6.451507079999999
1.82,182,0.001,-1.048,-0.114,4.297185,5.3858052,-2.4637194,78.79318416,-1.19175264,-6.39994086
1.83,183,0.013,-1.095,-0.111,6.0733548,4.6409598,-5.6722842,78.85047996,-1.12872726,-6.3655633799999976
1.84,184,0.076,-1.157,-0.118,6.703608600000001,2.4637194,-9.568398599999998,78.91923492,-1.0255948199999998,-6.3598338000000005
1.85,185,0.145,-1.223,-0.166,7.5630456000000015,-3.724227,-13.407217200000002,78.99944904,-0.8880849000000001,-6.4228591800000014
1.86,186,0.171,-1.3259999999999998,-0.218,9.5111028,-14.5531332,-15.813640800000002,79.10258148,-0.75630456,-6.5947465800000025
1.87,187,0.18600000000000005,-1.501,-0.293,12.4904844,-27.7311672,-16.558486199999994,79.23436182,-0.63598338,-6.89268474
1.8800000000000001,188,0.258,-1.6669999999999998,-0.467,9.3965112,-46.352302200000004,-15.527161800000002,79.34322384000002,-0.55576926,-7.37396946
1.8900000000000001,189,0.391,-1.732,-0.595,9.453807000000001,-68.58307260000001,-13.349921400000001,79.45208586,-0.53285094,-8.067248639999999
1.9000000000000001,190,0.461,-1.616,-0.5379999999999999,13.521808800000002,-76.9482594,-11.688343199999998,79.60678451999998,-0.52712136,-8.83501236
1.9100000000000001,191,0.364,-1.374,-0.472,10.3705398,-83.4799806,-12.261301199999998,79.73283528,-0.53285094,-9.67153104
1.9200000000000002,192,0.201,-1.202,-0.479,5.042030400000002,-84.4540092,-14.7250206,79.80159024000002,-0.5156622000000001,-10.52523846
1.93,193,0.013,-1.104,-0.446,9.568398599999998,-79.0109082,-16.329303,79.91618184000002,-0.46982556,-11.32165008
1.94,194,-0.14300000000000002,-1.045,-0.358,16.8449652,-73.73969459999998,-14.4385416,80.09952840000003,-0.4297185000000001,-12.06649548
1.95,195,-0.339,-0.993,-0.354,18.2773602,-69.6716928,-10.6570188,80.28860454,-0.44690724,-12.77123382
1.96,196,-0.493,-0.918,-0.391,15.0114996,-64.22859179999999,-8.3651868,80.45476235999998,-0.4526368200000001,-13.412946780000002
1.97,197,-0.504,-0.8959999999999999,-0.422,10.313244,-57.467687399999996,-9.3392154,80.56935396,-0.44117766,-13.985904779999998
1.98,198,-0.374,-0.921,-0.401,6.1879464,-55.576926,-13.8655836,80.64383849999999,-0.37815228,-14.5531332
1.99,199,-0.126,-0.959,-0.336,3.380452200000001,-56.436363,-21.3140376,80.68967513999998,-0.24064236,-15.14327994
2.0,200,0.149,-0.986,-0.287,-0.3437748,-59.1292656,-29.1062664,80.68394556000001,-0.01718874,-15.76780416
2.01,201,0.364,-0.986,-0.253,-4.0680017999999984,-66.176649,-35.236917,80.64956808000002,0.2291832000000001,-16.4725425
2.02,202,0.498,-0.979,-0.212,-3.6096354,-78.20876700000002,-38.4454818,80.62092018,0.5042030399999999,-17.29760202
2.03,203,0.532,-0.961,-0.174,0.4010706,-91.386801,-39.7059894,80.62664975999998,0.76776372,-18.26017146
2.04,204,0.494,-0.96,-0.146,4.4117766,-103.2470316,-41.19568020000001,80.66675682,1.03705398,-19.3373325
2.05,205,0.396,-0.981,-0.117,7.906820400000001,-114.878079,-44.0031744,80.73551178,1.32926256,-20.52908514
2.0599999999999996,206,0.281,-1.014,-0.098,10.313244,-123.0140826,-46.5814854,80.82718506,1.6272007199999998,-21.80678148
2.07,207,0.168,-1.037,-0.09,11.745639,-129.0874374,-48.128471999999995,80.91885834,1.93086846,-23.1475032
2.0799999999999996,208,0.081,-1.047,-0.07200000000000001,12.032117999999999,-133.4419182,-49.274388,81.01053162,2.24599536,-24.52833198
2.09,209,0.005,-1.021,-0.057,10.7143146,-135.8483418,-50.0765292,81.07355700000002,2.56685184,-25.93780866
2.0999999999999996,210,-0.001,-0.973,-0.068,9.167328,-134.5878342,-50.47759979999999,81.11939364,2.8934379,-27.33582618
2.11,211,0.016,-0.911,-0.092,8.59437,-130.9781988,-50.706783,81.15377112,3.2257535399999995,-28.69946622
2.1199999999999997,212,0.042,-0.862,-0.098,7.1046792000000005,-126.5664222,-51.3943326,81.16523028,3.57525792,-30.01726962
2.13,213,0.065,-0.8270000000000001,-0.098,4.8128472,-124.61836499999998,-52.597544400000004,81.14231196,3.93622146,-31.31788428
2.1399999999999997,214,0.094,-0.805,-0.11,2.0053530000000004,-124.21729440000001,-53.9726436,81.08501616,4.30864416,-32.62422852
2.15,215,0.114,-0.775,-0.12,0.11459160000000004,-124.8475482,-54.889376399999996,80.99907246000002,4.69252602,-33.93630234
2.1599999999999997,216,0.123,-0.745,-0.119,-0.8021411999999999,-126.96749280000002,-54.889376399999996,80.89021044,5.0706783,-35.27129448
2.17,217,0.112,-0.72,-0.104,-0.9167328,-131.09279039999998,-53.8007562,80.77561884,5.42591226,-36.6406641
2.1799999999999997,218,0.103,-0.6920000000000001,-0.081,-0.286479,-134.931609,-52.425657,80.64956808000002,5.76395748,-38.05587036
2.19,219,0.111,-0.6629999999999999,-0.062,1.0313244,-136.077525,-51.9672906,80.5292469,6.09054354,-39.47680620000001
2.1999999999999997,220,0.121,-0.648,-0.069,2.4064236,-136.87966619999997,-51.9099948,80.42038488,6.411400019999999,-40.90920120000001
2.21,221,0.128,-0.644,-0.063,3.7815227999999994,-139.11420239999998,-52.3110654,80.30579328,6.7322565,-42.36451452
2.2199999999999998,222,0.138,-0.664,-0.034,4.9847345999999995,-140.8330764,-52.54024860000001,80.19693126,7.05311298,-43.84274616
2.23,223,0.14400000000000002,-0.72,-0.014,4.5263682,-142.66654200000005,-52.998615,80.07661008,7.36823988,-45.33816654
2.2399999999999998,224,0.16399999999999998,-0.797,-0.018000000000000002,1.8334656000000005,-145.0729656,-53.9726436,79.91045226,7.6890963600000015,-46.86223482000001
2.25,225,0.17,-0.863,-0.05,-1.145916,-147.07831860000005,-55.5196302,79.70991696000002,8.015682420000001,-48.40922142
2.26,226,0.173,-0.915,-0.058,-2.291832,-148.9117842,-56.78013780000001,79.48073375999998,8.34226848,-49.97912634000001
2.27,227,0.174,-0.955,-0.075,-1.5469866,-152.80789860000004,-56.72284200000001,79.24582097999998,8.65739538,-51.59486790000001
2.28,228,0.16399999999999998,-0.954,-0.114,-0.572958,-154.985139,-54.54560160000001,79.01090819999997,8.94387438,-53.22779820000001
2.29,229,0.155,-0.929,-0.128,2.86479,-155.04243480000005,-51.0505578,78.80464332,9.19024632,-54.85499892
2.3,230,0.155,-0.89,-0.109,9.3392154,-152.2922364,-47.7274014,78.66140382,9.40224078,-56.44782216
2.31,231,0.15,-0.885,-0.058,17.18874,-145.7605152,-46.123119,78.60410802,9.60850566,-57.97762002
2.32,232,0.126,-0.923,-0.012,24.0069402,-137.6818074,-47.0971476,78.62129675999998,9.83768886,-59.42720376
2.3299999999999996,233,0.087,-0.997,0.038,29.1635622,-131.493861,-49.847346,78.69005172,10.10697912,-60.82522128
2.34,234,0.07400000000000001,-1.065,0.096,32.6013102,-127.0247886,-52.3110654,78.79318416,10.41064686,-62.18313174
2.3499999999999996,235,0.092,-1.126,0.094,35.0077338,-122.2119414,-52.712136,78.93069408,10.72577376,-63.48947598
2.36,236,0.13,-1.151,0.07400000000000001,38.61736920000001,-116.7115446,-49.3316838,79.10258148,11.02371192,-64.73852442
2.3699999999999997,237,0.215,-1.144,0.076,41.1383844,-113.6748672,-43.3156248,79.30311678,11.27008386,-65.94746579999999
2.38,238,0.3,-1.147,0.034,39.7632852,-115.96669920000001,-37.2995658,79.48073375999998,11.45916,-67.16786634
2.3899999999999997,239,0.397,-1.175,-0.008,37.5860448,-121.6962792,-32.2002396,79.62397326,11.59094034,-68.43410352000001
2.4,240,0.478,-1.224,-0.055,36.7839036,-132.41059380000002,-27.444688199999998,79.74429444,11.67115446,-69.80347314
2.4099999999999997,241,0.52,-1.274,-0.115,36.6120162,-146.21888159999997,-22.9756158,79.83023813999998,11.68261362,-71.29889352000002
2.42,242,0.521,-1.337,-0.233,35.0650296,-160.2563526,-19.938938399999998,79.87607478,11.64823614,-72.92609424
2.4299999999999997,243,0.449,-1.398,-0.402,36.38283300000001,-176.8148388,-19.767051,79.91045226,11.58521076,-74.72518235999998
2.44,244,0.28800000000000003,-1.418,-0.449,46.1804148,-197.0402562,-22.86102420000001,80.00212554,11.52791496,-76.72480578
2.4499999999999997,245,0.18,-1.3730000000000002,-0.35600000000000004,56.149884,-211.707981,-24.923673,80.17401294,11.470619159999998,-78.87912786
2.46,246,0.187,-1.319,-0.28300000000000003,41.4821592,-212.2236432,-22.173474600000002,80.19120168,11.39040504,-81.02772036
2.4699999999999998,247,0.189,-1.259,-0.35,19.308684600000007,-206.6086548,-19.938938399999998,80.00785512,11.29300218,-83.12474663999998
2.48,248,0.154,-1.288,-0.45,5.2712136,-196.6964814,-21.0848544,79.6984578,11.21278806,-85.11864048
2.4899999999999998,249,0.076,-1.2819999999999998,-0.49,-2.9220857999999996,-185.2373214,-24.694489800000003,79.32603509999998,11.172681,-87.00940188
2.5,250,-0.063,-1.172,-0.441,-2.291832,-185.9821668,-22.9756158,78.95361240000003,11.09246688,-88.90589286
2.51,251,-0.156,-0.974,-0.309,1.7188740000000002,-194.9203116,-14.896907999999998,78.62129675999998,10.914849900000002,-90.86540922
2.52,252,-0.124,-0.8170000000000001,-0.18600000000000005,2.4064236,-200.3634126,-6.3025379999999975,78.30044028,10.63410048,-92.86503264
2.53,253,-0.025,-0.745,-0.112,-2.4637194,-196.6964814,-4.2398892,77.94520632,10.33043274,-94.81881942
2.54,254,0.043,-0.81,-0.116,-6.3025379999999975,-191.1387888,-8.250595200000001,77.56705404,10.06114248,-96.72676956
2.55,255,0.053,-0.965,-0.12,-5.958763200000001,-189.5918022,-12.261301199999998,77.20609049999999,9.81477054,-98.62326054
2.56,256,0.02,-1.117,-0.086,-2.4637194,-192.227409,-12.4904844,76.88523402000001,9.56266902,-100.53694026
2.57,257,0.006999999999999999,-1.167,-0.055,-0.8021411999999999,-196.6391856,-11.3445684,76.58156627999998,9.27619002,-102.49645662
2.5799999999999996,258,0.008,-1.112,-0.03,-1.3178034,-201.6239202,-11.1153852,76.27789854,8.97252228,-104.49608004
2.59,259,0.019,-1.01,-0.019,-0.6875496,-207.2962044,-12.032117999999999,75.98568996,8.651665800000002,-106.55299926
2.5999999999999996,260,-0.001,-0.924,-0.001,3.724227,-210.04640279999998,-13.407217200000002,75.75077718,8.325079740000001,-108.6328368
2.61,261,-0.035,-0.85,0.038,8.479778399999999,-210.4474734,-14.037471,75.56743062000002,8.00422326,-110.71840392
2.6199999999999997,262,-0.058,-0.7929999999999999,0.07400000000000001,11.0580894,-208.7858952,-15.0687954,75.42419112,7.6890963600000015,-112.78105272
2.63,263,-0.06,-0.75,0.107,12.5477802,-203.8011606,-17.18874,75.3153291,7.39688778,-114.80359446
2.6399999999999997,264,-0.058,-0.725,0.126,13.349921400000001,-197.72780580000003,-20.454600600000006,75.2293854,7.15051584,-116.77456998
2.65,265,-0.062,-0.726,0.13,14.152062599999999,-191.5398594,-24.0069402,75.17208959999998,6.94425096,-118.69397928
2.6599999999999997,266,-0.07200000000000001,-0.74,0.125,14.8396122,-185.351913,-26.5852512,75.12625296,6.783822719999999,-120.55609278
2.67,267,-0.099,-0.758,0.104,15.870936600000002,-180.2525868,-27.6738714,75.09760506,6.640583220000001,-122.36664005999998
2.6799999999999997,268,-0.133,-0.778,0.101,17.8189938,-175.038669,-27.9603504,75.09760506,6.51453246,-124.13135069999998
2.69,269,-0.155,-0.794,0.111,19.1367972,-168.8507226,-28.5906042,75.12625296,6.40567044,-125.83876554
2.6999999999999997,270,-0.156,-0.8009999999999999,0.098,19.767051,-163.23573420000002,-30.0229992,75.17208959999998,6.31972674,-127.49461416
2.71,271,-0.16,-0.8029999999999999,0.1,20.8556712,-157.849929,-31.913760600000003,75.2293854,6.26816052,-129.10462614
2.7199999999999998,272,-0.16399999999999998,-0.807,0.124,22.058883,-150.8025456,-34.1482968,75.30386994,6.26243094,-130.64588315999998
2.73,273,-0.155,-0.805,0.126,21.6578124,-143.29679579999996,-36.669312,75.38408405999998,6.29680842,-132.12411479999997
2.7399999999999998,274,-0.14400000000000002,-0.807,0.121,20.626488,-136.7650746,-39.6486936,75.45283902,6.3770225400000005,-133.54505064
2.75,275,-0.142,-0.8079999999999999,0.093,19.1367972,-131.83763580000002,-42.34159620000001,75.52159398,6.48588456,-134.931609
2.76,276,-0.151,-0.809,0.07400000000000001,18.3919518,-130.46253660000002,-43.258329,75.56743062000002,6.617664899999999,-136.30097862
2.77,277,-0.158,-0.825,0.061,18.2773602,-131.78034,-42.398892,75.61326726,6.7379860800000015,-137.6818074
2.78,278,-0.155,-0.848,0.034,17.7044022,-134.4159468,-40.737313799999995,75.64191516,6.83538894,-139.0855545
2.79,279,-0.134,-0.875,0.015,16.7303736,-137.16614520000002,-39.47680620000001,75.6591039,6.92133264,-140.51221992
2.8,280,-0.094,-0.911,0.008,15.4125702,-138.5412444,-38.67466500000001,75.67056306,6.98435802,-141.95034449999997
2.81,281,-0.073,-0.947,-0.017,12.7769634,-140.2601184,-38.2162986,75.63618558,7.0473833999999975,-143.40565782000004
2.82,282,-0.077,-0.983,-0.049,10.1986524,-141.4060344,-37.9298196,75.57888978000003,7.1046792000000005,-144.87243030000005
2.8299999999999996,283,-0.085,-1.017,-0.099,8.8235532,-140.66118899999998,-37.4714532,75.50440524000003,7.15624542,-146.32774362
2.84,284,-0.104,-1.028,-0.129,9.1100322,-138.369357,-36.669312,75.43565028,7.20208206,-147.76586819999997
2.8499999999999996,285,-0.13,-1.036,-0.16,10.026765,-134.4732426,-35.5806918,75.38408405999998,7.23645954,-149.15815614000005
2.86,286,-0.172,-1.031,-0.183,11.45916,-130.920903,-33.9764094,75.34397700000002,7.270837019999999,-150.5160666
2.8699999999999997,287,-0.206,-1.026,-0.192,14.667724800000002,-126.337239,-31.340802600000004,75.34397700000002,7.29375534,-151.81668126
2.88,288,-0.226,-1.029,-0.208,15.813640800000002,-120.8368422,-28.074942,75.36689532,7.29375534,-153.06000011999996
2.8899999999999997,289,-0.212,-1.041,-0.232,15.0687954,-114.018642,-24.064235999999998,75.38408405999998,7.2765666,-154.22883444
2.9,290,-0.151,-1.084,-0.279,14.32395,-108.575541,-18.3919518,75.40700238,7.19635248,-155.32318422
2.9099999999999997,291,-0.054000000000000006,-1.157,-0.301,14.266654199999998,-106.0545258,-12.605076,75.42992070000003,7.0874904600000015,-156.3888861
2.92,292,0.051,-1.218,-0.309,13.464512999999998,-104.3356518,-4.4690724,75.45856859999998,6.898414319999999,-157.40875134
2.9299999999999997,293,0.139,-1.235,-0.282,13.0634424,-101.9292282,2.1772404,75.4872165,6.65204238,-158.3942391
2.94,294,0.17800000000000002,-1.155,-0.214,13.8082878,-97.0017894,8.651665800000002,75.53878272,6.3598338000000005,-159.3109719
2.9499999999999997,295,0.185,-1.024,-0.118,15.126091199999998,-86.7458412,14.32395,75.62472642,6.03897732,-160.11311310000005
2.96,296,0.139,-0.913,-0.067,12.891555,-75.51586440000001,18.7357266,75.69921095999999,5.6952025200000005,-160.80066269999998
2.9699999999999998,297,0.008,-0.8320000000000001,-0.05,4.297185,-70.5311298,20.9702628,75.69348138000002,5.339968560000001,-161.43091650000005
2.98,298,-0.177,-0.787,-0.063,-4.3544808,-63.7129296,20.798375399999998,75.60753768,4.99619376,-161.99814492000004
2.9899999999999998,299,-0.334,-0.759,-0.039,-10.4278356,-54.54560160000001,18.7357266,75.46429817999999,4.6982555999999995,-162.47942964
3.0,300,-0.309,-0.799,0.002,-18.621135,-47.7274014,12.7196676,75.26949246000002,4.42896534,-162.91487772
3.01,301,-0.165,-0.949,0.0,-25.8977016,-50.8786704,7.333862400000001,74.97728388,4.2398892,-163.39043285999998
3.02,302,-0.001,-1.162,-0.043,-31.111619399999995,-57.63957480000001,4.6982556,74.63350908,4.05654264,-163.93474296
3.03,303,0.151,-1.307,-0.057,-33.2888598,-63.1399716,3.380452200000001,74.26108638000002,3.873196080000002,-164.53634886
3.04,304,0.251,-1.29,-0.056,-24.8663772,-63.59833800000001,1.145916,73.97460738,3.70130868,-165.14368434
3.05,305,0.293,-1.208,-0.087,-17.0741484,-58.8427866,-2.1772404,73.78553124,3.59244666,-165.71664234
3.06,306,0.295,-1.111,-0.097,-15.756345000000001,-54.4883058,-6.6463128000000005,73.60218468000002,3.51796212,-166.26095244
3.07,307,0.267,-1.015,-0.127,-15.9282324,-56.3217714,-9.2819196,73.41310854000002,3.46066632,-166.82818086
3.08,308,0.221,-0.967,-0.142,-20.3973048,-65.54639519999999,-8.59437,73.17246618,3.3689930400000003,-167.48135298000003
3.09,309,0.162,-0.92,-0.19,-19.308684600000007,-65.66098679999999,-6.990087599999999,72.94901256,3.2658606,-168.12879552
3.0999999999999996,310,0.067,-0.887,-0.214,-15.4125702,-61.9940556,-6.589017,72.77139558,3.15699858,-168.74186058
3.11,311,-0.003,-0.8270000000000001,-0.15,-9.969469199999999,-58.2125328,-10.1413566,72.64534482,3.0997027800000003,-169.32627774
3.1199999999999997,312,-0.029,-0.7440000000000001,-0.095,-6.703608600000001,-55.40503860000001,-16.386598799999998,72.55367154000002,3.1054323600000004,-169.90496532
3.13,313,0.005,-0.696,-0.122,-3.2085648,-57.92605379999999,-22.058883,72.49637574,3.15699858,-170.52375996
3.1399999999999997,314,0.008,-0.6940000000000001,-0.045,0.6875496,-63.82752120000001,-23.0902074,72.47345742,3.20283522,-171.1998504
3.15,315,0.0,-0.7120000000000001,0.057,1.6615782,-64.17129600000001,-18.048177,72.48491658,3.19710564,-171.86448167999995
3.1599999999999997,316,-0.002,-0.748,0.15,5.443101,-63.25456320000001,-10.599723,72.51356448,3.12835068,-172.49473548
3.17,317,0.009000000000000001,-0.8029999999999999,0.184,9.167328,-59.0719698,-6.3025379999999975,72.58231943999998,3.02521824,-173.07915264
3.1799999999999997,318,0.018000000000000002,-0.8220000000000001,0.195,13.5791046,-56.2071798,-5.042030400000002,72.69691104,2.92781538,-173.62919232
3.19,319,0.034,-0.8009999999999999,0.17600000000000002,19.4232762,-56.149884,-4.2398892,72.87452801999999,2.81895336,-174.17350242
3.1999999999999997,320,0.08199999999999999,-0.75,0.126,25.3247436,-58.2698286,-3.0939732,73.1380887,2.70436176,-174.73500126
3.21,321,0.14800000000000002,-0.69,0.083,29.621928600000004,-61.9367598,-2.0626488000000003,73.4245677,2.56685184,-175.33087758
3.2199999999999998,322,0.218,-0.632,0.038,30.1375908,-68.182002,-0.6302538000000001,73.71104670000003,2.4064236,-175.98404969999999
3.23,323,0.3,-0.5770000000000001,0.012,28.4760126,-77.75040059999998,2.0053530000000004,73.98033696,2.19442914,-176.72316552
3.2399999999999998,324,0.364,-0.55,0.016,24.7517856,-95.683986,4.9847345999999995,74.20952016,1.91367972,-177.62270958000005
3.25,325,0.407,-0.532,0.034,22.058883,-109.0339074,7.333862400000001,74.42724419999998,1.61001198,-178.65403398
3.26,326,0.406,-0.4920000000000001,0.086,22.8037284,-120.8368422,8.021412000000002,74.65069782,1.24904844,-179.78849082000005
3.27,327,0.336,-0.464,0.13,26.9863218,-127.2539718,6.130650599999999,74.91425849999997,0.89954406,178.99780878
3.28,328,0.202,-0.46,0.149,30.8251404,-127.3112676,3.2658606,75.2293854,0.5786875800000001,177.78886740000004
3.29,329,0.04,-0.499,0.139,33.6899304,-122.4411246,0.9167328,75.57888978000003,0.30366774,176.6143035
3.3,330,-0.091,-0.569,0.118,35.9244666,-113.2737966,-0.6875496,75.96850122000002,0.057295800000000015,175.51995372000005
3.31,331,-0.182,-0.65,0.106,36.669312,-101.7573408,-1.5469866,76.35811265999997,-0.13178034,174.53446595999995
3.32,332,-0.245,-0.716,0.083,38.4454818,-87.20420759999998,-1.7188740000000002,76.76491284,-0.28647900000000004,173.6922177
3.33,333,-0.28800000000000003,-0.8009999999999999,0.071,40.737313799999995,-76.8336678,-2.5210152000000003,77.18890176,-0.40680018,172.94737229999996
3.34,334,-0.313,-0.931,0.021,41.0810886,-59.30115299999999,-4.297185,77.61862026,-0.47555514,172.36295514
3.3499999999999996,335,-0.36,-1.092,-0.102,37.24227,-39.0184398,-6.2452422,78.00823170000002,-0.5042030399999999,171.97334370000004
3.36,336,-0.456,-1.218,-0.25,32.830493399999995,-26.8717302,-7.2192707999999985,78.35200649999999,-0.48128472,171.69832386
3.3699999999999997,337,-0.5660000000000001,-1.318,-0.411,33.518043,-20.1108258,-7.906820400000001,78.6957813,-0.43544808,171.49205898
3.38,338,-0.647,-1.421,-0.5479999999999999,31.3980984,-14.32395,-12.7769634,79.01663778,-0.32658606,171.33163073999995
3.3899999999999997,339,-0.733,-1.546,-0.655,24.350715,-2.86479,-26.69984280000001,79.26300972,-0.06875496,171.25714620000005
3.4,340,-0.789,-1.624,-0.5670000000000001,17.0168526,17.475219,-52.3110654,79.42916754,0.4583664000000001,171.33163073999995
3.4099999999999997,341,-0.635,-1.696,-0.534,0.3437748,32.257535399999995,-73.45321560000002,79.43489712,1.22613012,171.5149773
3.42,342,-0.125,-1.649,-0.469,-20.6837838,47.0398518,-83.93834700000002,79.22290266,2.11421502,171.82437462
3.4299999999999997,343,0.243,-1.461,-0.407,-14.32395,50.1911208,-79.641162,79.08539274,2.9736520200000003,172.16241983999996
3.44,344,0.319,-1.492,-0.028,9.8548776,50.82137460000001,-59.93140680000001,79.19998434,3.6382833,172.55203128
3.4499999999999997,345,0.405,-1.655,0.079,28.0176462,45.1490904,-27.903054600000004,79.50938166,3.98778768,172.94737229999996
3.46,346,0.597,-1.761,0.017,32.8877892,22.6891368,3.6669312000000014,79.85888604,3.99351726,173.1765555
3.4699999999999998,347,0.738,-1.686,0.01,25.8977016,-2.9793816000000004,21.772404,80.12244672,3.77579322,173.18801466
3.48,348,0.629,-1.5319999999999998,0.103,18.8503182,-31.8564648,20.168121600000006,80.3000637,3.5351508600000003,172.91299482
3.4899999999999998,349,0.398,-1.455,0.131,16.8449652,-46.123119,6.990087599999999,80.44903278000002,3.40337052,172.47181716
3.5,350,0.18600000000000005,-1.429,0.133,15.183387000000002,-54.717489,-11.8602306,80.59227228,3.4492071599999994,171.9160479
3.51,351,0.061,-1.372,0.157,13.5791046,-58.67089920000001,-27.8457588,80.69540472,3.6440128800000013,171.29725326
3.52,352,-0.016,-1.287,0.165,13.750992000000002,-58.5563076,-36.096354,80.80426674,3.9247623,170.66699946
3.53,353,-0.109,-1.2009999999999998,0.139,11.745639,-55.40503860000001,-36.4401288,80.88448086000002,4.211241299999998,170.06539356
3.54,354,-0.211,-1.096,0.094,8.7089616,-49.7900502,-30.252182399999995,80.94177666,4.44615408,169.53254262
3.55,355,-0.31,-0.971,0.067,8.193299399999999,-42.398892,-19.480572,81.02199078,4.5263682,169.0799058
3.56,356,-0.397,-0.855,0.075,13.6936962,-27.215505,-7.0473834,81.14231196,4.56647526,168.80488596
3.57,357,-0.429,-0.7809999999999999,0.086,17.246035799999998,-10.1413566,-0.5156622000000001,81.30846978000002,4.56074568,168.7074831
3.58,358,-0.428,-0.6990000000000001,0.068,15.756345000000001,11.8029348,0.3437748,81.47462759999998,4.57220484,168.8220747
3.59,359,-0.398,-0.623,0.038,11.917526400000002,34.8931422,-2.1199446,81.6178671,4.63523022,169.16584949999995
3.5999999999999996,360,-0.361,-0.5579999999999999,0.041,11.5737516,53.8007562,-5.2139178,81.78402492,4.71544434,169.68724128
3.61,361,-0.32,-0.496,0.059,13.407217200000002,67.322565,-7.0473834,81.96737148,4.858683839999999,170.34041340000005
3.6199999999999997,362,-0.274,-0.424,0.066,13.6364004,76.6617804,-6.760904399999999,82.15644762000002,5.0133825000000005,171.08525880000005
3.63,363,-0.214,-0.355,0.039,12.3758928,82.21947300000002,-5.042030400000002,82.34552376,5.15089242,171.89312958
3.6399999999999997,364,-0.153,-0.318,0.031,11.745639,86.05829159999998,-2.6356068,82.52887032,5.2654840200000015,172.74110742
3.65,365,-0.102,-0.316,0.063,13.407217200000002,86.40206640000002,-1.3750992,82.74086478000002,5.3628868800000005,173.59481483999997
3.6599999999999997,366,-0.049,-0.337,0.064,13.8655836,86.34477059999998,-0.4010706,82.95285924,5.44883058,174.44852226
3.67,367,0.0,-0.366,0.1,13.0061466,83.93834700000002,0.5156622000000001,83.15339454,5.52331512,175.27931136
3.6799999999999997,368,0.028,-0.424,0.14,13.2353298,79.354683,1.432395,83.35392984,5.58061092,176.06999340000004
3.69,369,0.056,-0.515,0.129,10.1413566,74.9429064,1.8334656000000005,83.52008766,5.62644756,176.81483880000005
3.6999999999999997,370,0.079,-0.618,0.084,4.4690724,70.6457214,1.432395,83.63467926,5.6722842,177.51384756
3.71,371,0.086,-0.733,-0.004,0.572958,66.3485364,0.1718874,83.69770464000001,5.72385042,178.17274926
3.7199999999999998,372,0.037000000000000005,-0.795,-0.031,1.0886202,59.0719698,-1.3178034,83.76073002,5.7868758,178.75716642
3.73,373,-0.009000000000000001,-0.7909999999999999,-0.005,5.844171599999999,58.613603399999995,-1.7761698,83.86959204,5.849901179999999,179.33585399999996
3.7399999999999998,374,-0.014,-0.746,0.003,8.193299399999999,61.7075766,-0.9740286,84.00710196,5.90719698,179.94891906
3.75,375,0.036000000000000004,-0.718,-0.015,6.4744254,62.2805346,1.145916,84.13315272,5.9473040400000015,-179.42752728
3.76,376,0.146,-0.787,-0.061,1.0313244,61.30650600000001,5.0993262,84.1961781,5.94157446,-178.81446222
3.77,377,0.219,-0.877,-0.171,1.7188740000000002,43.831287,10.886202,84.25920348,5.861360339999999,-178.36755498
3.78,378,0.308,-1.042,-0.095,9.740286,26.8717302,14.7250206,84.37952466,5.735309579999999,-178.08680556
3.79,379,0.465,-1.243,-0.029,5.5003968,16.157415599999997,14.037471,84.4540092,5.60925882,-177.91491816
3.8,380,0.623,-1.4880000000000002,-0.181,-10.8289062,14.495837400000001,10.8289062,84.35087675999998,5.51758554,-177.7602195
3.81,381,0.649,-1.781,-0.426,-32.2002396,11.172681,12.261301199999998,84.03574986,5.40299394,-177.63989832
3.82,382,0.5760000000000001,-2.027,-0.5429999999999999,-50.0765292,0.286479,24.064235999999998,83.53154682,5.16235158,-177.61697999999996
3.83,383,0.454,-2.03,-0.525,-56.8947294,-14.4385416,40.8519054,82.94712966,4.73836266,-177.72011244
3.84,384,0.33,-1.861,-0.388,-46.982556,-24.2934192,47.3263308,82.46011536,4.24561878,-177.903459
3.8499999999999996,385,0.193,-1.7519999999999998,-0.263,-30.65325300000001,-27.3873924,41.4821592,82.13925888,3.80444112,-178.12691261999996
3.86,386,0.06,-1.693,-0.225,-20.8556712,-28.1322378,28.2468294,81.91580526,3.4950437999999995,-178.36755498
3.8699999999999997,387,-0.125,-1.662,-0.2,-11.688343199999998,-29.1062664,16.902261,81.78402492,3.2945085,-178.63111566
3.88,388,-0.299,-1.616,-0.118,-0.8021411999999999,-24.2934192,7.6776372,81.76683618000001,3.18564648,-178.86029886
3.8899999999999997,389,-0.42,-1.55,-0.014,6.9327918,-13.2926256,1.6615782,81.82986156,3.15699858,-178.98634962
3.9,390,-0.443,-1.5319999999999998,0.035,12.0894138,0.3437748,-1.0313244,81.96164189999998,3.15699858,-178.98634962
3.9099999999999997,391,-0.369,-1.551,0.08199999999999999,14.32395,14.7823164,0.7448454000000001,82.11061098,3.1627281600000003,-178.83738054
3.92,392,-0.241,-1.539,0.119,11.9748222,27.215505,6.3598338,82.2481209,3.13408026,-178.55663112
3.9299999999999997,393,-0.1,-1.477,0.116,5.5576926,36.7266078,12.261301199999998,82.31687586000002,3.05386614,-178.17847884
3.94,394,0.0,-1.35,0.103,-0.286479,42.91455420000001,15.3552744,82.33406459999998,2.94500412,-177.73730118
3.9499999999999997,395,0.085,-1.142,0.08,-2.291832,43.544808,15.756345000000001,82.35125334,2.84187168,-177.29039394
3.96,396,0.154,-0.971,0.059,-3.6669312000000014,39.534102,12.7769634,82.32833502,2.76165756,-176.88359376
3.9699999999999998,397,0.221,-0.82,0.032,-5.3858052,33.9764094,7.9641161999999985,82.28822796,2.71582092,-176.53981896
3.98,398,0.263,-0.7170000000000001,-0.014,-7.2765666,26.642547,2.4637194,82.219473,2.7215505,-176.27625827999995
3.9899999999999998,399,0.285,-0.6459999999999999,-0.064,-9.969469199999999,15.6417534,-2.5210152000000003,82.12207014,2.76165756,-176.12155962
4.0,400,0.28,-0.583,-0.094,-11.0580894,2.1772404,-5.6149884000000005,82.00747854,2.85333084,-176.11583004
4.01,401,0.264,-0.52,-0.09,-9.453807000000001,-10.1413566,-6.2452422,81.90434609999998,2.90489706,-176.22469206
4.02,402,0.246,-0.474,-0.071,-6.3598338,-20.511896399999998,-5.3285094000000015,81.83559113999998,2.93354496,-176.43668652000005
4.03,403,0.212,-0.4270000000000001,-0.055,-3.724227,-29.9084076,-3.4377480000000005,81.78402492,2.93354496,-176.73462468
4.04,404,0.193,-0.393,-0.022,-1.8907613999999997,-38.61736920000001,-0.9740286,81.74964744,2.89916748,-177.11850654
4.05,405,0.181,-0.353,0.013,-0.572958,-44.5761324,1.5469866,81.73245870000002,2.84760126,-177.55395462
4.06,406,0.179,-0.337,0.01,0.9740286,-50.0192334,3.8388186,81.72672911999999,2.7501984,-178.04096892
4.07,407,0.179,-0.34,-0.005,1.2605076000000002,-56.149884,5.6722842,81.72099954000002,2.62987722,-178.58527902
4.08,408,0.187,-0.344,-0.001,2.1772404,-61.8221682,6.2452422,81.72672911999999,2.49809688,-179.18115533999998
4.09,409,0.193,-0.339,0.027000000000000003,3.7815227999999994,-66.4058322,4.9274388,81.74391786,2.37204612,-179.82859788
4.1,410,0.182,-0.328,0.057,5.844171599999999,-68.0674104,1.6042823999999998,81.79548408,2.2918320000000003,179.49628224
4.109999999999999,411,0.134,-0.336,0.093,8.078707799999998,-66.3485364,-1.8907613999999997,81.86423904,2.2345362,178.84311011999995
4.12,412,0.077,-0.391,0.124,10.1413566,-62.10864720000001,-3.7815227999999994,81.95018274,2.2058883,178.23004506
4.13,413,0.032,-0.493,0.151,10.599723,-57.4103916,-1.8334656000000005,82.04185602,2.16005166,177.66281664000005
4.14,414,0.01,-0.632,0.14400000000000002,8.4224826,-54.25912260000001,3.0366774,82.11634056,2.07410796,177.1299657
4.1499999999999995,415,-0.002,-0.774,0.104,5.1566220000000005,-50.993262,9.0527364,82.18509551999998,1.92513888,176.6429514
4.16,416,-0.009000000000000001,-0.892,0.067,2.86479,-46.2377106,13.9228794,82.20801384,1.73606274,176.20750332
4.17,417,-0.01,-0.965,0.041,4.010706000000001,-40.737313799999995,16.558486199999994,82.24239132,1.52979786,175.82935103999995
4.18,418,-0.029,-1.012,-0.042,7.0473834,-36.4401288,16.7303736,82.31114628,1.32926256,175.49130582
4.1899999999999995,419,-0.131,-1.0759999999999998,-0.19,4.2398892,-36.669312,14.152062599999999,82.35125334,1.15164558,175.15326059999995
4.2,420,-0.266,-1.121,-0.203,0.6302538000000001,-33.116972399999995,8.479778399999999,82.35125334,0.98548776,174.83240412
4.21,421,-0.387,-1.168,-0.251,7.5057497999999985,-20.511896399999998,0.4583664000000001,82.42573788,0.95683986,174.63186882
4.22,422,-0.536,-1.244,-0.262,9.8548776,-18.9649098,-8.479778399999999,82.52314074,1.01986524,174.43706310000005
4.2299999999999995,423,-0.58,-1.308,-0.328,3.6096354,-26.41336380000001,-21.027558600000006,82.55751822,1.2032117999999998,174.1505841
4.24,424,-0.414,-1.3969999999999998,-0.401,-11.917526400000002,-17.475219,-38.90384820000001,82.43146746,1.56990492,173.92713048000005
4.25,425,-0.083,-1.406,-0.511,-26.7571386,9.740286,-57.00932099999999,82.15071803999999,2.13713334,173.94431922
4.26,426,0.18600000000000005,-1.341,-0.482,-20.05353,26.8717302,-65.2026204,81.95018274,2.8074942000000003,174.1219362
4.27,427,0.221,-1.505,-0.29100000000000004,-8.479778399999999,26.642547,-56.8374336,81.86996862,3.3919113599999995,174.29955318
4.28,428,0.022,-1.927,-0.17,-25.2674478,27.1009134,-42.685371,81.6178671,3.84454818,174.50581806
4.29,429,-0.16899999999999998,-2.191,-0.16,-31.5699858,39.6486936,-35.0077338,81.31992894,4.22843004,174.84386328
4.3,430,-0.366,-2.206,-0.096,-13.6364004,48.6441342,-30.5959572,81.20533734,4.58939358,175.27358178
4.31,431,-0.379,-1.969,-0.023,0.8594370000000001,46.29500640000001,-18.3919518,81.2454444,4.82430636,175.70330028
4.32,432,-0.053,-1.706,0.014,8.5370742,42.34159620000001,0.286479,81.360036,4.87587258,176.12155962
4.33,433,0.289,-1.592,0.024,20.2254174,37.1849742,14.152062599999999,81.59494878,4.784199299999999,176.51117105999995
4.34,434,0.525,-1.482,0.066,22.2880662,27.215505,19.4232762,81.84132072,4.62377106,176.80910922
4.35,435,0.589,-1.393,0.073,16.042824000000003,13.750992000000002,14.037471,82.02466728,4.5206386200000015,176.96380788
4.36,436,0.449,-1.347,0.044,8.59437,-6.5317212,4.1252976000000015,82.11061098,4.4748019800000005,176.90651208000003
4.37,437,0.255,-1.306,0.04,5.6149884000000005,-22.0015872,-1.145916,82.15071803999999,4.46334282,176.68878804000005
4.38,438,0.109,-1.213,0.053,4.3544808,-31.6845774,-2.6929026,82.17936594,4.45761324,176.37366114000002
4.39,439,-0.039,-1.078,0.051,3.7815227999999994,-32.7731976,-2.0626488000000003,82.19655467999998,4.4404245000000016,176.04707507999996
4.3999999999999995,440,-0.18600000000000005,-0.929,0.018000000000000002,3.7815227999999994,-26.69984280000001,1.2032118,82.2481209,4.30864416,175.77778482
4.41,441,-0.331,-0.7929999999999999,-0.025,4.9274388,-14.610429000000002,5.7868758000000025,82.28822796,4.23415962,175.64600448
4.42,442,-0.439,-0.69,-0.055,7.1046792000000005,0.572958,9.9121734,82.3627125,4.13675676,175.66319321999995
4.43,443,-0.467,-0.594,-0.065,8.307891,15.2406828,11.1153852,82.46011536,4.04508348,175.82935103999995
4.4399999999999995,444,-0.449,-0.501,-0.04,8.9954406,30.080295,8.479778399999999,82.56897738,3.99351726,176.13874836
4.45,445,-0.4,-0.428,-0.016,8.078707799999998,40.5081306,3.724227,82.67783940000002,3.9534102,176.53408938
4.46,446,-0.343,-0.366,-0.011,6.2452422,52.0245864,-1.2605076000000002,82.76951268,4.022165159999999,177.04975158
4.47,447,-0.285,-0.314,0.001,4.8701430000000006,66.2912406,-5.6149884000000005,82.85545637999998,4.13675676,177.69719412
4.4799999999999995,448,-0.234,-0.257,0.025,6.760904399999999,79.4119788,-8.651665800000002,82.97004798,4.30291458,178.47068742000005
4.49,449,-0.191,-0.21600000000000005,0.061,10.7716104,83.93834700000002,-9.3965112,83.13047622,4.4748019800000005,179.29001736
4.5,450,-0.146,-0.21600000000000005,0.109,13.750992000000002,84.56860079999998,-8.880849000000003,83.3367411,4.62377106,-179.88016409999997
4.51,451,-0.077,-0.246,0.136,13.9228794,84.8550798,-7.8495246,83.53727640000002,4.77846972,-179.049375
4.52,452,-0.015,-0.313,0.151,13.6364004,85.7145168,-7.333862400000001,83.73208212,4.921709219999999,-178.21285632
4.53,453,0.033,-0.408,0.14,12.9488508,85.9437,-7.161975,83.92688783999998,5.05921914,-177.36487848
4.54,454,0.051,-0.514,0.145,12.605076,83.0216142,-6.875496000000001,84.11596397999998,5.19099948,-176.55127812
4.55,455,0.044,-0.626,0.146,10.4278356,79.81304940000003,-6.703608600000001,84.29931054,5.31705024,-175.76632566
4.56,456,0.037000000000000005,-0.7070000000000001,0.101,5.6149884000000005,78.60983759999998,-7.333862400000001,84.41963172,5.443101,-174.99283236000005
4.57,457,0.014,-0.7440000000000001,0.047,2.8074942000000003,76.9482594,-9.568398599999998,84.51130500000002,5.59207008,-174.2365278
4.58,458,-0.016,-0.76,-0.011,3.151269,75.05749800000002,-13.0061466,84.60870786,5.76968706,-173.50314156
4.59,459,-0.058,-0.743,-0.054000000000000006,4.6982556,73.45321560000002,-15.0114996,84.71756988,5.97022236,-172.79267364
4.6,460,-0.061,-0.7709999999999999,-0.086,3.4377480000000005,75.343977,-13.5791046,84.81497274,6.13638018,-172.05355781999995
4.61,461,0.157,-0.937,-0.232,-21.485925,96.0277608,-8.479778399999999,84.68892198,6.2796196800000015,-171.11390669999997
4.62,462,0.272,-0.999,-0.308,-26.2414764,78.2660628,0.4010706,84.49411626,6.3254563200000025,-170.33468381999995
4.63,463,0.468,-1.188,-0.335,-19.938938399999998,64.8015498,9.9121734,84.35660634000001,6.26816052,-169.68724128
4.64,464,0.606,-1.352,-0.366,-23.3193906,53.11320660000001,19.1367972,84.1675302,6.113461859999999,-169.14293118
4.6499999999999995,465,0.7979999999999999,-1.5319999999999998,-0.507,-46.4668938,57.6968706,28.8770832,83.74927086,5.87854908,-168.54705486
4.66,466,0.816,-1.6469999999999998,-0.6759999999999999,-65.7182826,32.7159018,44.977203,83.11328748,5.45456016,-168.18036174000005
4.67,467,0.6409999999999999,-1.713,-0.669,-70.07276340000001,-8.9381448,64.97343719999999,82.40281956,4.79565846,-168.19755048000005
4.68,468,0.504,-1.824,-0.499,-50.0765292,-29.5646328,73.96887779999999,81.88715736,4.03362432,-168.3923562
4.6899999999999995,469,0.5760000000000001,-2.03,-0.317,-35.9244666,-37.24227,70.30194660000001,81.50900508000002,3.2945085,-168.66737604
4.7,470,0.511,-1.886,-0.193,-22.173474600000002,-51.852699,50.1911208,81.27409229999998,2.74446882,-169.10282411999995
4.71,471,0.279,-1.644,-0.085,7.906820400000001,-53.9726436,26.0122932,81.33711767999998,2.42361234,-169.595568
4.72,472,-0.07400000000000001,-1.575,0.043,36.2109456,-57.2958,7.7922288,81.69235164,2.28037284,-170.14560768
4.7299999999999995,473,-0.405,-1.598,0.17800000000000002,44.117766,-52.54024860000001,-6.2452422,82.12779972,2.28610242,-170.66699946
4.74,474,-0.607,-1.651,0.3,42.4561878,-38.67466500000001,-14.667724800000002,82.54605906,2.39496444,-171.06234048000005
4.75,475,-0.633,-1.735,0.36,33.518043,-19.0222056,-13.5791046,82.88410428,2.50382646,-171.26287578
4.76,476,-0.45,-1.7619999999999998,0.35,22.459953600000002,11.172681,-2.7501984,83.11901706,2.54393352,-171.15401376
4.77,477,-0.192,-1.666,0.278,8.651665800000002,36.898495200000006,7.9641161999999985,83.21641991999998,2.49809688,-170.77586148
4.78,478,-0.038,-1.4780000000000002,0.182,3.9534102,56.72284200000001,15.5844576,83.27371572000001,2.39496444,-170.1971739
4.79,479,-0.009000000000000001,-1.294,0.104,10.026765,68.41118519999999,18.9649098,83.39976648,2.26891368,-169.50389472
4.8,480,0.006999999999999999,-1.1,0.048,16.272007199999994,73.1667366,15.756345000000001,83.5945722,2.1772404,-168.76477889999995
4.81,481,0.056,-0.8909999999999999,0.01,19.2513888,73.51051140000001,8.136003599999999,83.80656666,2.16005166,-168.02566308000004
4.82,482,0.099,-0.708,-0.012,22.6891368,70.0154676,-0.8594370000000001,84.05293859999998,2.22307704,-167.33238390000002
4.83,483,0.159,-0.575,-0.029,24.1788276,63.5410422,-9.5111028,84.31649927999999,2.36631654,-166.71358926
4.84,484,0.224,-0.494,-0.036000000000000004,23.491278,52.48295279999999,-14.2093584,84.56860079999998,2.54393352,-166.20365664
4.85,485,0.28800000000000003,-0.455,-0.032,22.058883,43.20103320000001,-14.32395,84.80351358,2.74446882,-165.79112688
4.86,486,0.344,-0.442,-0.036000000000000004,19.7097552,34.66395900000001,-11.172681,85.01550804,2.88197874,-165.45881124
4.87,487,0.386,-0.429,-0.038,16.902261,27.444688199999998,-6.3025379999999975,85.19885459999998,2.96219286,-165.18952098
4.88,488,0.409,-0.412,-0.016,14.7250206,20.168121600000006,-0.6302538000000001,85.35928284,2.9793816000000004,-164.98898567999996
4.89,489,0.381,-0.393,0.006999999999999999,14.4385416,12.6623718,4.8128472,85.50825191999998,2.93927454,-164.85720534
4.8999999999999995,490,0.325,-0.383,0.012,15.126091199999998,6.3025379999999975,9.6256944,85.66868016,2.87624916,-164.79417996
4.91,491,0.256,-0.385,0.012,15.527161800000002,2.2345362,13.178034,85.82910840000002,2.7501984,-164.75980248000005
4.92,492,0.17,-0.405,0.018000000000000002,15.5844576,0.4583664000000001,15.870936600000002,85.98953664,2.59549974,-164.74261374
4.93,493,0.092,-0.4270000000000001,0.034,15.813640800000002,1.0313244,16.8449652,86.14996488,2.42934192,-164.71969542
4.9399999999999995,494,0.012,-0.454,0.066,16.902261,1.8907613999999997,17.4179232,86.32185228,2.25745452,-164.68531793999998
4.95,495,-0.046,-0.495,0.094,17.246035799999998,3.5523396000000003,17.0168526,86.51092842,2.08556712,-164.6394813
4.96,496,-0.094,-0.539,0.102,16.272007199999994,5.6722842,16.2147114,86.67708624000002,1.92513888,-164.57072634
4.97,497,-0.138,-0.5720000000000001,0.122,15.469866,10.0840608,16.1001198,86.83751448000002,1.77044022,-164.46186432
4.9799999999999995,498,-0.162,-0.598,0.155,17.0741484,18.5638392,17.0168526,87.01513145999998,1.6042824000000002,-164.26705859999996
4.99,499,-0.162,-0.625,0.16,19.480572,29.9084076,19.0222056,87.22139634,1.42666542,-163.96339086
5.0,500,-0.138,-0.647,0.142,20.454600600000006,44.0031744,21.8869956,87.44484996,1.2032117999999998,-163.51648362
5.01,501,-0.107,-0.6629999999999999,0.115,20.2827132,54.029939399999996,24.4080108,87.65684442,0.9740286,-162.96644394
5.02,502,-0.098,-0.679,0.116,21.5432208,61.5356892,26.9863218,87.87456846,0.7104679199999999,-162.3476493
5.03,503,-0.099,-0.688,0.13699999999999998,24.637194,68.35388940000001,29.9084076,88.12666998,0.42398892,-161.6600997
5.04,504,-0.115,-0.695,0.14,28.0176462,77.2920342,32.4294228,88.40168982,0.10313244,-160.88087682
5.05,505,-0.151,-0.725,0.13,28.1895336,87.7198698,33.9191136,88.68816882,-0.24064236,-160.00425108
5.06,506,-0.239,-0.815,0.112,25.0955604,97.2882684,34.2055926,88.9230816,-0.5844171599999999,-159.03595206
5.07,507,-0.345,-1.013,0.078,19.194093,113.21650079999999,31.22621100000001,89.08923942,-0.90527364,-157.90722480000005
5.08,508,-0.474,-1.331,0.009000000000000001,4.8701430000000006,148.2815304,22.1161788,89.08923942,-1.14018642,-156.44045232
5.09,509,-0.599,-1.683,-0.162,-14.896907999999998,164.43894600000004,8.5370742,88.88297453999998,-1.24331886,-154.81325159999997
5.1,510,-0.688,-1.873,-0.28300000000000003,-39.6486936,155.21432219999997,-7.448453999999999,88.42460814,-1.18602306,-153.28345374
5.11,511,-0.544,-1.758,-0.266,-51.279741,147.3647976,-26.356068,87.85737972,-0.92246238,-151.83959958
5.12,512,-0.146,-1.5490000000000002,-0.336,-40.737313799999995,148.5680094,-35.9244666,87.4047429,-0.5443101,-150.39001584
5.13,513,0.233,-1.591,-0.391,-18.907614000000002,131.0354946,-41.8832298,87.18701886,-0.10886202,-149.11804908
5.14,514,0.298,-1.982,-0.242,-9.3392154,116.5396572,-53.0559108,87.07815683999998,0.44117766,-147.98932182
5.1499999999999995,515,0.104,-2.382,-0.152,-26.069589,141.1768512,-73.6823988,86.81459616,1.2032117999999998,-146.63714094
5.16,516,-0.362,-2.385,-0.042,-52.82672760000001,185.1800256,-87.4333908,86.29893396,2.12567418,-144.86097114
5.17,517,-0.329,-2.083,-0.011,-29.507337,194.7484242,-75.68775179999999,86.05829159999998,2.94500412,-142.98739848
5.18,518,0.259,-1.7719999999999998,-0.035,-5.5003968,188.27399880000002,-45.9512316,86.08120991999998,3.47785506,-141.15393288
5.1899999999999995,519,0.626,-1.633,-0.07400000000000001,12.261301199999998,179.33585399999996,-6.8182002000000015,86.28747480000001,3.61536498,-139.38349266
5.2,520,0.779,-1.483,-0.044,21.5432208,172.2884706,23.491278,86.59114253999998,3.45493674,-137.66461866
5.21,521,0.695,-1.412,0.039,24.9809688,164.78272080000005,34.37748,86.92345818,3.1627281600000003,-136.00877004
5.22,522,0.414,-1.421,0.149,25.0955604,153.55274400000005,32.4294228,87.23858508000002,2.87624916,-134.4732426
5.2299999999999995,523,0.097,-1.433,0.217,19.8816426,139.6871604,28.5906042,87.49068659999998,2.61841806,-133.07522508
5.24,524,-0.102,-1.37,0.212,8.59437,132.23870639999998,27.8457588,87.61673736,2.36631654,-131.75742168
5.25,525,-0.202,-1.231,0.171,1.7761698,136.9942578,26.9863218,87.67976274,2.10275586,-130.38805206
5.26,526,-0.257,-1.079,0.133,1.7761698,149.5993338,25.210152,87.73132896,1.86784308,-128.89836126
5.27,527,-0.299,-0.954,0.107,4.9274388,164.84001659999996,24.064235999999998,87.8058135,1.65011904,-127.25970138
5.28,528,-0.32299999999999995,-0.853,0.1,6.3598338,180.13799519999995,25.0382646,87.89748678,1.4209358399999998,-125.47207242
5.29,529,-0.337,-0.773,0.115,4.9274388,196.524594,27.1009134,87.96624174,1.1688343199999998,-123.51828564
5.3,530,-0.335,-0.705,0.162,1.4896908000000002,215.71868700000002,27.903054600000004,88.00061922,0.8880849000000001,-121.37542272
5.31,531,-0.315,-0.652,0.205,-4.9274388,238.86619019999998,25.3820394,87.94905299999998,0.65317212,-119.00910618
5.32,532,-0.274,-0.623,0.229,-12.834259199999998,262.5866514,21.027558600000006,87.81154308,0.46409598,-116.40787686000002
5.33,533,-0.223,-0.615,0.229,-17.7044022,276.5095308,16.673077799999998,87.61100778,0.33231564,-113.66913762
5.34,534,-0.171,-0.638,0.21600000000000005,-20.912967,284.4163512,13.750992000000002,87.37609499999998,0.24064236,-110.85591384
5.35,535,-0.107,-0.695,0.188,-22.9756158,287.16654960000005,12.261301199999998,87.12399348,0.16615782,-108.01404216
5.36,536,-0.043,-0.769,0.16899999999999998,-25.0955604,285.046605,11.917526400000002,86.83751448000002,0.12032118,-105.19508880000001
5.37,537,0.013,-0.866,0.183,-26.8717302,278.91595440000003,11.5737516,86.53384674,0.0859437,-102.43343124
5.38,538,0.07,-0.972,0.23,-27.7311672,273.4728534,10.0840608,86.21871984,0.07448454,-99.72906948
5.39,539,0.114,-1.046,0.246,-27.9603504,270.2069928,6.703608600000001,85.90359294,0.11459160000000004,-97.0590852
5.3999999999999995,540,0.147,-1.061,0.204,-27.444688199999998,266.3681742,2.1772404,85.60565478000002,0.21772404,-94.43493756
5.41,541,0.15,-1.027,0.13,-24.4653066,260.8104816,-2.1772404,85.33636451999998,0.3724227000000001,-91.86235614
5.42,542,0.147,-0.979,0.07400000000000001,-17.9335854,254.22146459999996,-5.2712136,85.13582922,0.56149884,-89.35852968
5.43,543,0.16399999999999998,-0.946,0.043,-11.6310474,247.86163080000003,-6.9327918,85.01550804,0.7734933,-86.91772859999998
5.4399999999999995,544,0.161,-0.927,0.047,-8.651665800000002,243.220671,-7.5630456000000015,84.92956434,0.9912173399999998,-84.52849374
5.45,545,0.149,-0.922,0.068,-6.990087599999999,238.4078238,-6.3025379999999975,84.87799812,1.2032117999999998,-82.17936594
5.46,546,0.129,-0.951,0.076,-4.3544808,232.21987740000003,-4.5263682,84.8550798,1.39228794,-79.89326352
5.47,547,0.106,-0.997,0.059,-1.9480572,226.43300159999998,-3.8388186,84.86080938,1.56417534,-77.66445689999998
5.4799999999999995,548,0.096,-1.018,0.049,0.11459160000000004,219.0418434,-4.0680017999999984,84.89518686,1.74179232,-75.50440524000003
5.49,549,0.07200000000000001,-1.029,0.045,1.8907613999999997,210.1036986,-4.583664,84.95821224,1.91367972,-73.43602686
5.5,550,0.053,-1.03,0.032,0.8594370000000001,202.7698362,-4.6409598,85.00977845999998,2.07983754,-71.43640344
5.51,551,0.021,-1.02,0.006,-1.7188740000000002,198.1288764,-3.6669312000000014,85.03842636,2.22880662,-69.48261666
5.52,552,-0.026,-1.031,-0.004,-7.161975,198.1861722,-1.6042823999999998,85.02123762,2.36058696,-67.52882988
5.53,553,-0.076,-1.061,-0.01,-10.255948199999999,201.2228496,1.8907613999999997,84.97540097999997,2.45798982,-65.54066562
5.54,554,-0.064,-1.067,0.028,-12.834259199999998,211.4787978,4.8701430000000006,84.90664602000003,2.53820394,-63.44936892
5.55,555,-0.013,-1.079,0.034,-13.750992000000002,223.740099,6.3025379999999975,84.83789106,2.6069589,-61.23202146
5.56,556,0.038,-1.077,0.023,-15.527161800000002,227.8081008,5.6722842,84.75767694,2.6929026,-58.98029652
5.57,557,0.068,-1.062,0.019,-17.7044022,227.1205512,5.0993262,84.6545445,2.78457588,-56.73430116
5.58,558,0.102,-1.051,-0.006,-22.2307704,223.8546906,6.589017,84.50557542,2.86479,-54.5169537
5.59,559,0.172,-1.0590000000000002,-0.034,-29.793816,217.4948568,10.1413566,84.2821218,2.91062664,-52.3683612
5.6,560,0.278,-1.096,-0.084,-39.0757356,211.7652768,15.0687954,83.9669949,2.92781538,-50.26560533999999
5.61,561,0.394,-1.15,-0.128,-48.2430636,203.686569,21.3140376,83.55446514,2.87051958,-48.23733402000001
5.62,562,0.499,-1.2009999999999998,-0.142,-53.1705024,188.789661,28.4187168,83.07891,2.75592798,-46.3523022
5.63,563,0.522,-1.171,-0.16899999999999998,-50.9359662,168.79342680000005,35.9817624,82.62054359999998,2.55539268,-44.650616940000006
5.64,564,0.455,-1.078,-0.208,-39.877876799999996,146.7918396,40.4508348,82.25958005999998,2.30329116,-43.15519656
5.6499999999999995,565,0.33,-0.96,-0.192,-26.5852512,130.061466,40.8519054,82.0189377,2.05691922,-41.825934000000004
5.66,566,0.218,-0.866,-0.129,-16.329303,117.6282774,36.32553720000001,81.88142778,1.82773602,-40.6227222
5.67,567,0.114,-0.83,-0.085,-10.1986524,109.89334440000002,28.8770832,81.79548408,1.6673077799999998,-39.5054541
5.68,568,0.035,-0.84,-0.065,-5.0993262,105.4815678,20.7410796,81.76110659999998,1.5813640800000002,-38.43975222
5.6899999999999995,569,-0.021,-0.884,-0.024,-0.8594370000000001,104.2210602,13.2926256,81.76683618000001,1.56990492,-37.39696866
5.7,570,-0.055,-0.937,0.029,1.9480572,106.3983006,7.3911582,81.81840240000002,1.61001198,-36.34272594
5.71,571,-0.067,-0.976,0.073,4.1252976000000015,111.72681,3.0939732,81.8756982,1.7074148399999998,-35.236917
5.72,572,-0.052000000000000005,-0.995,0.106,4.4690724,119.1179682,1.2032118,81.94445316,1.82773602,-34.06808268
5.7299999999999995,573,-0.023,-0.996,0.141,4.8128472,125.3059146,2.0053530000000004,82.01320812,1.9480572000000005,-32.8304934
5.74,574,0.001,-0.99,0.17800000000000002,5.2712136,129.66039540000003,5.3858052,82.09915182,2.0340008999999997,-31.54706748000001
5.75,575,0.021,-0.983,0.189,4.583664,133.72839720000002,10.3705398,82.19655467999998,2.07983754,-30.21780492
5.76,576,0.052000000000000005,-0.98,0.181,3.5523396000000003,137.6818074,15.0114996,82.26530964,2.07983754,-28.84270572
5.77,577,0.104,-0.975,0.171,2.291832,140.4320058,17.3606274,82.32260544,2.05691922,-27.43895862
5.78,578,0.171,-0.977,0.159,1.8334656000000005,141.5779218,17.246035799999998,82.37417166,2.0340008999999997,-26.02375236
5.79,579,0.255,-0.98,0.133,0.0,140.8330764,15.527161800000002,82.40281956,2.02254174,-24.62000526
5.8,580,0.318,-0.979,0.09,-1.5469866,136.7650746,13.9228794,82.43146746,2.05118964,-23.25636522
5.81,581,0.363,-0.975,0.054000000000000006,-1.7761698,129.94687439999998,12.834259199999998,82.44292662,2.05691922,-21.96148014
5.82,582,0.386,-0.974,0.022,-0.4583664000000001,121.753575,11.9748222,82.46584494,2.0626488000000003,-20.75253876
5.83,583,0.398,-0.988,-0.012,1.2032118,113.445684,11.4018642,82.50022242,2.06837838,-19.61808192
5.84,584,0.401,-1.002,-0.042,3.4950437999999995,104.2210602,11.688343199999998,82.5632478,2.05691922,-18.57529836
5.85,585,0.39,-1.007,-0.056,5.6722842,93.5640414,12.4904844,82.6491915,2.0626488000000003,-17.64137682
5.86,586,0.36,-1.006,-0.05,8.250595200000001,83.3080932,13.464512999999998,82.75232394,2.01108258,-16.80485814
5.87,587,0.318,-1.0,-0.049,12.0894138,73.052145,14.381245800000002,82.88983386,1.94232762,-16.06574232
5.88,588,0.261,-0.996,-0.051,14.667724800000002,63.1399716,15.0114996,83.0502621,1.85638392,-15.42402936
5.89,589,0.214,-0.99,-0.041,16.1001198,57.86875799999999,15.756345000000001,83.22787908000002,1.75325148,-14.83388262
5.8999999999999995,590,0.18600000000000005,-0.989,-0.055,16.157415599999997,56.3217714,16.501190400000002,83.40549606,1.6615782,-14.26092462
5.91,591,0.159,-0.999,-0.08800000000000001,13.980175199999998,55.2331512,17.18874,83.55446514,1.5412570200000002,-13.6936962
5.92,592,0.118,-1.03,-0.14400000000000002,10.886202,53.628868800000006,17.246035799999998,83.66905674,1.41520626,-13.14365652
5.93,593,0.068,-1.082,-0.201,8.7662574,51.7954032,16.386598799999998,83.76645959999998,1.29488508,-12.61653516
5.9399999999999995,594,0.029,-1.136,-0.223,10.1413566,51.5089242,14.2093584,83.87532162,1.19748222,-12.09514338
5.95,595,0.025,-1.15,-0.224,14.32395,50.5921914,10.886202,84.00710196,1.12872726,-11.58521076
5.96,596,0.056,-1.095,-0.223,18.334656,44.51883660000001,7.906820400000001,84.1961781,1.0886202,-11.13257394
5.97,597,0.1,-0.991,-0.199,21.4286292,35.52339600000001,7.2765666,84.41963172,1.04278356,-10.771610399999998
5.9799999999999995,598,0.133,-0.883,-0.16699999999999998,24.2361234,25.2674478,8.136003599999999,84.66600365999999,0.97975818,-10.5137793
5.99,599,0.14400000000000002,-0.813,-0.14400000000000002,24.5226024,14.9542038,9.6256944,84.91810518,0.89381448,-10.35335106
6.0,600,0.135,-0.7979999999999999,-0.096,21.1421502,8.651665800000002,10.255948199999999,85.12437006,0.8307891,-10.26167778
6.01,601,0.123,-0.8440000000000001,-0.048,13.8082878,8.250595200000001,9.224623800000002,85.26187998,0.7448454000000001,-10.1700045
6.02,602,0.114,-0.938,-0.039,5.844171599999999,11.0580894,6.0733548,85.32490535999997,0.69327918,-10.0554129
6.03,603,0.113,-1.015,-0.057,-0.6875496,14.0947668,1.6615782,85.31917578,0.68182002,-9.9121734
6.04,604,0.104,-1.067,-0.081,-4.8128472,15.0114996,-1.9480572,85.26760956,0.7104679199999999,-9.7689339
6.05,605,0.08,-1.088,-0.111,-5.9014674000000005,13.8082878,-2.6356068,85.18739544,0.76776372,-9.63142398
6.06,606,0.037000000000000005,-1.098,-0.12,-5.3858052,13.2353298,-1.432395,85.13009964,0.7906820400000001,-9.50537322
6.07,607,-0.009000000000000001,-1.095,-0.114,-3.8961144,14.2093584,0.5156622000000001,85.08999258,0.7906820400000001,-9.36213372
6.08,608,-0.044,-1.077,-0.111,-2.0053530000000004,15.813640800000002,2.4064236,85.06707426,0.7792228800000001,-9.20743506
6.09,609,-0.059,-1.053,-0.11,-0.11459160000000004,17.246035799999998,3.724227,85.06707426,0.75057498,-9.02981808
6.1,610,-0.059,-1.03,-0.091,1.6615782,18.2200644,4.6982556,85.07853342,0.6875496,-8.84647152
6.11,611,-0.049,-1.021,-0.066,2.7501984,19.767051,5.2139178,85.10718132,0.64171296,-8.64593622
6.12,612,-0.029,-1.026,-0.055,2.86479,21.2567418,5.5576926,85.13582922,0.6016058999999999,-8.43394176
6.13,613,-0.006,-1.038,-0.066,2.2345362,21.1421502,5.958763200000001,85.15874754000002,0.55576926,-8.2219473
6.14,614,0.012,-1.05,-0.08,1.3750992,19.3659804,6.9327918,85.17020670000002,0.4984734599999999,-8.021412
6.15,615,0.024,-1.061,-0.08800000000000001,0.6875496,17.9908812,7.906820400000001,85.17020670000002,0.43544808,-7.838065440000001
6.16,616,0.022,-1.065,-0.091,0.3437748,17.7044022,8.7089616,85.17020670000002,0.36096354,-7.65471888
6.17,617,0.011,-1.062,-0.091,0.6302538000000001,18.048177,8.9381448,85.17593628,0.28074942,-7.47137232
6.18,618,-0.005,-1.047,-0.086,1.432395,18.9649098,8.8235532,85.19312502,0.20626488,-7.2765666
6.1899999999999995,619,-0.018000000000000002,-1.024,-0.076,2.5210152000000003,20.168121600000006,8.9381448,85.21604334,0.12605075999999998,-7.0703017200000025
6.2,620,-0.025,-0.994,-0.077,3.6096354,21.4286292,9.2819196,85.23896166,0.04010706,-6.8468481
6.21,621,-0.027000000000000003,-0.972,-0.081,4.4117766,21.1421502,9.568398599999998,85.2847983,-0.03437748,-6.63485364
6.22,622,-0.026,-0.963,-0.085,5.3858052,20.5691922,9.9121734,85.33636451999998,-0.12605075999999998,-6.4228591800000014
6.2299999999999995,623,-0.027000000000000003,-0.963,-0.083,6.3025379999999975,19.4232762,9.969469199999999,85.39938989999997,-0.21199446,-6.22232388
6.24,624,-0.024,-0.967,-0.07400000000000001,7.2765666,18.6784308,9.6256944,85.46814486,-0.29793816,-6.0275181600000005
6.25,625,-0.025,-0.967,-0.059,8.307891,18.3919518,8.880849000000003,85.54835898,-0.38388186,-5.83844202
6.26,626,-0.031,-0.965,-0.057,9.167328,17.9908812,7.6203414,85.63430267999998,-0.44690724,-5.65509546
6.27,627,-0.053,-0.95,-0.054000000000000006,11.3445684,15.813640800000002,6.6463128000000005,85.74889427999999,-0.5042030399999999,-5.4946672199999975
6.28,628,-0.085,-0.939,-0.041,13.750992000000002,13.521808800000002,6.2452422,85.8864042,-0.56149884,-5.35142772
6.29,629,-0.105,-0.932,-0.018000000000000002,14.9542038,13.6364004,5.3858052,86.03537328,-0.6073354799999999,-5.2139178
6.3,630,-0.094,-0.927,-0.002,15.0687954,17.18874,3.4377480000000005,86.19580152,-0.6589017,-5.042030400000002
6.31,631,-0.07,-0.93,-0.003,14.610429000000002,21.7151082,0.4010706,86.33904102,-0.65317212,-4.82430636
6.32,632,-0.036000000000000004,-0.96,-0.03,13.2926256,24.4653066,-2.4064236,86.47082136,-0.61879464,-4.57793442
6.33,633,0.015,-1.018,-0.077,10.026765,24.694489800000003,-4.2398892,86.56249464,-0.56722842,-4.33729206
6.34,634,0.043,-1.057,-0.075,10.886202,21.485925,-4.5263682,86.67135666,-0.5156622000000001,-4.1252976000000015
6.35,635,0.059,-1.041,-0.062,14.037471,19.308684600000007,-4.297185,86.80313699999998,-0.44117766,-3.93622146
6.36,636,0.07400000000000001,-0.996,-0.055,14.2093584,19.0222056,-5.443101,86.94064691999998,-0.37815228,-3.74714532
6.37,637,0.08800000000000001,-0.972,-0.068,13.0634424,19.0795014,-7.161975,87.07242726,-0.30366774,-3.56379876
6.38,638,0.076,-0.98,-0.059,14.152062599999999,18.2200644,-7.5057497999999985,87.20993718,-0.22345362,-3.38618178
6.39,639,0.046,-1.022,-0.055,14.8396122,17.589810600000003,-5.5003968,87.35890626,-0.16042824,-3.2085648000000004
6.4,640,0.018000000000000002,-1.06,-0.073,13.980175199999998,15.870936600000002,-2.5210152000000003,87.47922744,-0.12605075999999998,-3.05386614
6.41,641,0.003,-1.071,-0.098,12.834259199999998,12.4331886,-0.1718874,87.6052782,-0.12032118,-2.92781538
6.42,642,0.015,-1.065,-0.12,12.4904844,9.1100322,1.0886202,87.73132896,-0.13178034,-2.8361421
6.43,643,0.04,-1.047,-0.116,12.5477802,6.703608600000001,1.3178034,87.85737972,-0.14323950000000002,-2.76738714
6.4399999999999995,644,0.064,-1.022,-0.093,12.5477802,4.8128472,1.0313244,87.98343048000002,-0.15469866,-2.7215505
6.45,645,0.07,-0.994,-0.07400000000000001,12.2040054,4.0680017999999984,0.3437748,88.0636446,-0.09740286,-2.67571386
6.46,646,0.068,-0.978,-0.06,11.0007936,4.9847345999999995,-0.572958,88.17823620000001,-0.09167328,-2.62414764
6.47,647,0.052000000000000005,-0.974,-0.046,9.3965112,7.333862400000001,-1.4896908000000002,88.26990948,-0.07448454,-2.55539268
6.4799999999999995,648,0.037000000000000005,-0.982,-0.039,8.307891,10.0840608,-1.8907613999999997,88.35585318,-0.05156622,-2.45226024
6.49,649,0.025,-0.998,-0.04,7.333862400000001,12.4331886,-1.6615782,88.43033772,-0.03437748,-2.33193906
6.5,650,0.019,-1.008,-0.035,6.589017,13.8655836,-0.8594370000000001,88.47617436,-0.01145916,-2.19442914
6.51,651,0.014,-1.01,-0.034,6.4744254,14.8396122,0.11459160000000004,88.53919973999999,-0.01718874,-2.04546006
6.52,652,0.012,-1.015,-0.035,6.2452422,15.9282324,1.0886202,88.60222512,-0.028647900000000007,-1.88503182
6.53,653,0.013,-1.021,-0.039,5.9014674000000005,16.959556799999998,1.8334656000000005,88.65952092,-0.04583664,-1.7188740000000002
6.54,654,0.017,-1.024,-0.044,6.1879464,17.246035799999998,2.2345362,88.71681672,-0.06875496,-1.5469866
6.55,655,0.029,-1.023,-0.044,6.3025379999999975,17.3606274,2.4064236,88.75692378,-0.07448454,-1.36936962
6.56,656,0.041,-1.016,-0.044,6.4744254,16.902261,2.4064236,88.82567874,-0.09740286,-1.2032117999999998
6.57,657,0.051,-1.007,-0.043,6.589017,16.042824000000003,2.291832,88.88870412,-0.12032118,-1.04278356
6.58,658,0.057,-1.0,-0.046,6.3598338,15.183387000000002,1.9480572,88.9517295,-0.14323950000000002,-0.89381448
6.59,659,0.064,-0.994,-0.05,5.72958,13.9228794,1.4896908000000002,89.00902529999998,-0.16042824,-0.75057498
6.6,660,0.068,-0.988,-0.047,5.2139178,12.2040054,0.8021411999999999,89.02048446,-0.11459160000000004,-0.6302538000000001
6.61,661,0.067,-0.985,-0.046,4.8701430000000006,10.5424272,0.4010706,89.07205067999998,-0.12032118,-0.52712136
6.62,662,0.065,-0.983,-0.047,4.2398892,8.9381448,-0.1718874,89.11215774000001,-0.12032118,-0.43544808
6.63,663,0.06,-0.984,-0.05,3.380452200000001,7.5630456000000015,-0.572958,89.14653522,-0.11459160000000004,-0.36096354
6.64,664,0.057,-0.989,-0.05,2.9220857999999996,6.4744254,-0.8021411999999999,89.17518312,-0.10886202,-0.29793816
6.65,665,0.056,-0.992,-0.052000000000000005,2.578311,5.2712136,-0.9167328,89.11215774000001,-0.00572958,-0.24637194
6.66,666,0.056,-0.996,-0.051,2.6356068,3.9534102,-0.9740286,89.13507606,0.0,-0.20626488
6.67,667,0.058,-0.994,-0.051,2.9220857999999996,2.1772404,-0.9740286,89.16945354,0.00572958,-0.18334656
6.68,668,0.059,-0.992,-0.051,3.3231564,0.057295800000000015,-0.8594370000000001,89.20383102000002,0.01718874,-0.18334656
6.6899999999999995,669,0.059,-0.989,-0.051,3.4377480000000005,-1.7188740000000002,-0.8594370000000001,89.2382085,0.02291832,-0.20053530000000008
6.7,670,0.062,-0.989,-0.046,3.8961144,-3.5523396000000003,-0.8594370000000001,89.20956059999996,0.12032118,-0.23491278
6.71,671,0.06,-0.992,-0.039,4.3544808,-5.443101,-1.0313244,89.25539724,0.13178034,-0.28647900000000004
6.72,672,0.053,-0.997,-0.03,4.9274388,-7.3911582,-1.0886202,89.30696345999998,0.14323950000000002,-0.36096354
6.7299999999999995,673,0.043,-1.003,-0.02,5.2712136,-8.880849000000003,-1.0886202,89.35852968,0.15469866,-0.44690724
6.74,674,0.034,-1.012,-0.011,5.3285094000000015,-9.740286,-1.0886202,89.41582548,0.16615782,-0.5443101
6.75,675,0.029,-1.018,-0.006999999999999999,5.2139178,-10.0840608,-1.0313244,89.45593253999998,0.20053530000000008,-0.64744254
6.76,676,0.025,-1.021,-0.008,5.042030400000002,-10.1986524,-0.9167328,89.50749876,0.21199446,-0.7448454000000001
6.77,677,0.023,-1.023,-0.012,4.8701430000000006,-10.313244,-0.8021411999999999,89.55906498,0.22345362,-0.8479778399999999
6.78,678,0.022,-1.02,-0.015,4.5263682,-10.7716104,-0.6875496,89.60490161999998,0.23491278,-0.95683986
6.79,679,0.021,-1.015,-0.017,3.9534102,-11.2872726,-0.6302538000000001,89.64500868,0.24637194,-1.06570188
6.8,680,0.019,-1.01,-0.019,3.6096354,-12.032117999999999,-0.572958,89.65646783999998,0.26356068,-1.18602306
6.81,681,0.019,-1.008,-0.019,3.0939732,-12.3758928,-0.6875496,89.69084532,0.27501984,-1.30634424
6.82,682,0.018000000000000002,-1.008,-0.017,2.6929026,-12.4331886,-0.9167328,89.71949322,0.28647900000000004,-1.42666542
6.83,683,0.017,-1.009,-0.017,2.4637194,-12.4331886,-1.0886202,89.74241154,0.30366774,-1.5527161800000002
6.84,684,0.018000000000000002,-1.009,-0.017,2.291832,-12.605076,-1.145916,89.77105944,0.31512690000000004,-1.6787669399999998
6.85,685,0.016,-1.009,-0.015,2.291832,-12.7769634,-1.0886202,89.77105944,0.3437748,-1.8048176999999999
6.86,686,0.015,-1.01,-0.011,2.1199446,-12.5477802,-1.145916,89.79397776,0.35523396,-1.92513888
6.87,687,0.016,-1.014,-0.006,2.0626488000000003,-12.0894138,-1.3178034,89.81689608,0.3724227000000001,-2.04546006
6.88,688,0.018000000000000002,-1.023,-0.005,1.8907613999999997,-11.5737516,-1.432395,89.83981440000002,0.38961144,-2.16005166
6.89,689,0.019,-1.03,-0.004,1.7188740000000002,-11.45916,-1.3750992,89.85700313999996,0.40680018,-2.2746432600000004
6.9,690,0.014,-1.031,-0.002,1.6042823999999998,-11.5737516,-1.0886202,89.85700313999996,0.4297185000000001,-2.38923486
6.91,691,0.008,-1.028,-0.003,1.3178034,-11.516455800000001,-0.8594370000000001,89.8684623,0.44117766,-2.50382646
6.92,692,0.002,-1.025,-0.006,0.9740286,-11.0007936,-0.7448454000000001,89.87992145999998,0.4526368200000001,-2.61268848
6.93,693,0.001,-1.021,-0.004,0.6875496,-9.8548776,-0.6875496,89.88565104,0.4583664000000001,-2.71009134
6.9399999999999995,694,0.0,-1.021,-0.008,0.1718874,-8.250595200000001,-0.5156622000000001,89.89138061999998,0.46982556,-2.79030546
6.95,695,0.002,-1.02,-0.008,0.0,-6.589017,-0.4010706,89.83981440000002,0.46982556,-2.85906042
6.96,696,0.002,-1.021,-0.006999999999999999,-0.057295800000000015,-5.6722842,-0.11459160000000004,89.83408482,0.47555514,-2.91635622
6.97,697,0.003,-1.019,-0.008,0.1718874,-5.6722842,-0.1718874,89.83981440000002,0.48128472,-2.96792244
6.9799999999999995,698,0.008,-1.012,-0.003,0.4010706,-5.6722842,-0.11459160000000004,89.84554397999999,0.48128472,-3.02521824
6.99,699,0.014,-1.005,-0.005,-0.1718874,-4.6982556,-0.1718874,89.83981440000002,0.4870143000000001,-3.07105488
7.0,700,0.02,-1.001,-0.005,-0.286479,-3.6669312000000014,-0.2291832000000001,89.77105944,0.5443101,-3.11116194
7.01,701,0.022,-1.004,-0.006,-0.2291832000000001,-2.8074942000000003,-0.286479,89.76532986,0.55003968,-3.1398098400000003
7.02,702,0.019,-1.013,-0.009000000000000001,-0.11459160000000004,-2.1199446,-0.2291832000000001,89.76532986,0.55003968,-3.15699858
7.03,703,0.015,-1.018,-0.01,-0.4010706,-1.6615782,-0.057295800000000015,89.75960028,0.55003968,-3.1741873200000006
7.04,704,0.006999999999999999,-1.02,-0.013,-0.8021411999999999,-1.0313244,0.0,89.75387070000002,0.55003968,-3.18564648
7.05,705,0.0,-1.021,-0.017,-1.3178034,0.11459160000000004,-0.057295800000000015,89.5819833,0.52712136,-3.1913760600000005
7.06,706,-0.005,-1.018,-0.018000000000000002,-1.6042823999999998,1.4896908000000002,-0.1718874,89.56479456,0.52712136,-3.1741873200000006
7.07,707,-0.006,-1.014,-0.016,-1.6042823999999998,3.2658606,0.0,89.54760582,0.52712136,-3.14553942
7.08,708,0.0,-1.009,-0.017,-1.9480572,4.8128472,0.4010706,89.5246875,0.52139178,-3.0939732
7.09,709,0.015,-1.006,-0.014,-2.2345362,5.9014674000000005,0.7448454000000001,89.50176918,0.5099326200000001,-3.0366774000000003
7.1,710,0.032,-1.01,-0.011,-2.578311,6.5317212,0.8594370000000001,89.45020296,0.53858052,-2.9736520200000003
7.11,711,0.043,-1.012,-0.012,-2.578311,6.589017,0.6875496,89.42155505999996,0.52712136,-2.91062664
7.12,712,0.047,-1.013,-0.013,-2.291832,6.3025379999999975,0.4583664000000001,89.39863674,0.52139178,-2.84760126
7.13,713,0.046,-1.014,-0.012,-1.6042823999999998,5.6149884000000005,0.1718874,89.38144799999998,0.5156622000000001,-2.79030546
7.14,714,0.036000000000000004,-1.01,-0.012,-1.3750992,5.3858052,-0.057295800000000015,89.36998884,0.5156622000000001,-2.73873924
7.15,715,0.03,-1.004,-0.01,-1.3750992,5.5576926,-0.2291832000000001,89.31842262,0.55576926,-2.68144344
7.16,716,0.024,-1.0,-0.012,-1.432395,6.130650599999999,-0.2291832000000001,89.30696345999998,0.55576926,-2.61841806
7.17,717,0.017,-1.0,-0.014,-1.6615782,7.2192707999999985,-0.1718874,89.28404514,0.55576926,-2.5496631
7.18,718,0.015,-1.0,-0.018000000000000002,-1.8907613999999997,8.136003599999999,-0.11459160000000004,89.2668564,0.55576926,-2.46944898
7.1899999999999995,719,0.015,-1.0,-0.021,-1.9480572,8.880849000000003,-0.1718874,89.24393807999998,0.55576926,-2.38350528
7.2,720,0.018000000000000002,-0.998,-0.025,-2.0626488000000003,9.5111028,-0.286479,89.19237186000002,0.5729580000000001,-2.28610242
7.21,721,0.024,-0.998,-0.027000000000000003,-1.8907613999999997,10.026765,-0.4583664000000001,89.16945354,0.5786875800000001,-2.18869956
7.22,722,0.031,-1.0,-0.024,-1.7761698,10.1413566,-0.5156622000000001,89.1522648,0.5786875800000001,-2.0912967
7.2299999999999995,723,0.036000000000000004,-1.001,-0.024,-1.7188740000000002,9.9121734,-0.5156622000000001,89.13507606,0.5844171599999999,-1.99389384
7.24,724,0.037000000000000005,-1.002,-0.021,-1.7188740000000002,9.568398599999998,-0.572958,89.11788732,0.59014674,-1.89649098
7.25,725,0.036000000000000004,-1.002,-0.017,-1.4896908000000002,9.2819196,-0.6875496,89.07778026000004,0.62452422,-1.8048176999999999
7.26,726,0.035,-1.003,-0.016,-1.2032118,9.167328,-0.6875496,89.06632110000002,0.6302538000000001,-1.71314442
7.27,727,0.036000000000000004,-1.004,-0.015,-0.9740286,9.167328,-0.8021411999999999,89.05486194,0.63598338,-1.62147114
7.28,728,0.038,-1.007,-0.013,-0.9740286,9.224623800000002,-0.8594370000000001,89.04340278,0.64744254,-1.52979786
7.29,729,0.039,-1.008,-0.012,-0.9740286,8.9954406,-0.8021411999999999,89.03767320000001,0.65317212,-1.44385416
7.3,730,0.041,-1.01,-0.013,-0.9740286,8.59437,-0.7448454000000001,89.00329572000004,0.69327918,-1.3579104599999998
7.31,731,0.045,-1.01,-0.014,-1.0313244,7.8495246,-0.572958,88.99183656,0.69900876,-1.27769634
7.32,732,0.049,-1.01,-0.016,-0.9167328,6.990087599999999,-0.4583664000000001,88.98610698,0.70473834,-1.20894138
7.33,733,0.052000000000000005,-1.011,-0.017,-0.8021411999999999,5.9014674000000005,-0.286479,88.97464782,0.70473834,-1.15164558
7.34,734,0.052000000000000005,-1.008,-0.017,-0.8021411999999999,4.8128472,-0.1718874,88.96891824000002,0.70473834,-1.10580894
7.35,735,0.049,-1.004,-0.019,-0.9740286,3.724227,0.0,88.90016328,0.8021412000000001,-1.06570188
7.36,736,0.044,-1.002,-0.02,-1.2032118,2.86479,0.0,88.88870412,0.8021412000000001,-1.03705398
7.37,737,0.041,-1.001,-0.022,-1.2032118,1.8907613999999997,-0.1718874,88.87724496000001,0.8021412000000001,-1.01986524
7.38,738,0.039,-1.003,-0.021,-1.2032118,1.0313244,-0.4010706,88.8657858,0.8078707799999998,-1.00840608
7.39,739,0.035,-1.003,-0.02,-0.9740286,0.057295800000000015,-0.6302538000000001,88.85432664,0.8136003599999999,-1.00840608
7.4,740,0.031,-1.005,-0.021,-0.5156622000000001,-0.3437748,-0.8594370000000001,88.71681672,0.93965112,-1.01413566
7.41,741,0.028,-1.006,-0.019,-0.1718874,-0.6302538000000001,-1.0886202,88.71108714,0.95111028,-1.01986524
7.42,742,0.026,-1.008,-0.02,0.3437748,-0.572958,-1.2032118,88.71681672,0.96256944,-1.0255948199999998
7.43,743,0.027000000000000003,-1.009,-0.019,0.6875496,-0.286479,-1.2032118,88.7225463,0.9740286,-1.0313244
7.4399999999999995,744,0.027000000000000003,-1.01,-0.018000000000000002,1.0886202,-0.1718874,-1.0886202,88.73400546,0.98548776,-1.0313244
7.45,745,0.025,-1.012,-0.018000000000000002,1.145916,-0.1718874,-0.8594370000000001,88.64806175999998,1.04278356,-1.03705398
7.46,746,0.025,-1.009,-0.02,1.0886202,-0.286479,-0.6302538000000001,88.65952092,1.04851314,-1.03705398
7.47,747,0.023,-1.009,-0.023,0.572958,-0.2291832000000001,-0.3437748,88.6652505,1.05424272,-1.04278356
7.4799999999999995,748,0.025,-1.009,-0.026,0.11459160000000004,0.0,-0.2291832000000001,88.67098008,1.05424272,-1.04278356
7.49,749,0.027000000000000003,-1.011,-0.024,0.0,0.1718874,-0.1718874,88.67098008,1.0599723,-1.04278356
7.5,750,0.027000000000000003,-1.012,-0.022,0.0,0.0,-0.2291832000000001,88.40168982,1.22040054,-1.04851314
7.51,751,0.026,-1.011,-0.02,-0.11459160000000004,-0.6875496,-0.286479,88.40168982,1.22613012,-1.05424272
7.52,752,0.027000000000000003,-1.008,-0.021,-0.1718874,-1.3750992,-0.286479,88.40168982,1.2318597,-1.06570188
7.53,753,0.029,-1.006,-0.018000000000000002,-0.3437748,-1.7188740000000002,-0.2291832000000001,88.39596024,1.2318597,-1.08289062
7.54,754,0.03,-1.004,-0.014,-0.1718874,-2.0053530000000004,-0.4010706,88.39596024,1.23758928,-1.10580894
7.55,755,0.031,-1.007,-0.013,0.0,-2.291832,-0.4583664000000001,88.36731234,1.27769634,-1.12872726
7.56,756,0.031,-1.011,-0.015,0.1718874,-2.5210152000000003,-0.5156622000000001,88.36731234,1.28342592,-1.15164558
7.57,757,0.028,-1.011,-0.017,0.286479,-2.9220857999999996,-0.4010706,88.37304191999998,1.2891555000000001,-1.18029348
7.58,758,0.024,-1.009,-0.015,0.3437748,-3.0366774,-0.286479,88.37304191999998,1.29488508,-1.21467096
7.59,759,0.02,-1.007,-0.016,0.286479,-2.9793816000000004,-0.1718874,88.3787715,1.29488508,-1.24331886
7.6,760,0.018000000000000002,-1.005,-0.019,0.286479,-2.8074942000000003,-0.11459160000000004,88.34439402000002,1.29488508,-1.27196676
7.61,761,0.017,-1.005,-0.021,0.2291832000000001,-2.7501984,-0.1718874,88.34439402000002,1.30061466,-1.30061466
7.62,762,0.014,-1.007,-0.023,0.11459160000000004,-2.7501984,-0.057295800000000015,88.35012359999996,1.30061466,-1.32926256
7.63,763,0.018000000000000002,-1.006,-0.024,0.057295800000000015,-2.5210152000000003,-0.057295800000000015,88.35012359999996,1.30061466,-1.35218088
7.64,764,0.021,-1.005,-0.023,0.2291832000000001,-2.291832,0.0,88.35012359999996,1.30061466,-1.3750992
7.65,765,0.024,-1.003,-0.019,0.6302538000000001,-2.3491278,0.0,88.32720528,1.31207382,-1.4037471
7.66,766,0.025,-1.0,-0.016,0.9740286,-2.4064236,0.057295800000000015,88.33293486,1.31207382,-1.42666542
7.67,767,0.022,-1.0,-0.013,1.2605076000000002,-2.4637194,-0.057295800000000015,88.35012359999996,1.3178034,-1.44958374
7.68,768,0.019,-1.0,-0.012,1.432395,-2.291832,-0.11459160000000004,88.36158276,1.3178034,-1.47250206
7.6899999999999995,769,0.014,-1.004,-0.011,1.432395,-2.0626488000000003,-0.2291832000000001,88.3787715,1.3178034,-1.49542038
7.7,770,0.009000000000000001,-1.008,-0.01,1.3750992,-1.8334656000000005,-0.2291832000000001,88.3787715,1.30061466,-1.51260912
7.71,771,0.01,-1.01,-0.009000000000000001,1.2605076000000002,-1.3750992,-0.286479,88.39596024,1.30061466,-1.52406828
