TimeStamp(s),FrameCounter,AccX,AccY,AccZ,GyrX,GyrY,GyrZ,EulerX,EulerY,EulerZ
0.01,1,0.016,-1.003,-0.063,-0.8021411999999999,0.4583664000000001,-0.11459160000000004,86.06402118000004,1.0026765,-56.18999106
0.02,2,0.018000000000000002,-1.002,-0.066,-0.9167328000000001,0.1718874,-0.2291832000000001,86.05829159999998,1.0026765,-56.18999106
0.03,3,0.019,-1.001,-0.069,-0.9167328000000001,0.057295800000000015,-0.2291832000000001,86.04683244,1.00840608,-56.18999106
0.04,4,0.015,-1.001,-0.069,-0.7448454000000001,0.2291832000000001,-0.1718874,86.04110286,1.00840608,-56.18426148
0.05,5,0.012,-1.0,-0.068,-0.6302538000000001,0.11459160000000004,-0.057295800000000015,85.9723479,1.00840608,-56.18999106
0.060000000000000005,6,0.01,-1.0,-0.07,-0.8021411999999999,0.11459160000000004,-0.057295800000000015,85.96661832,1.00840608,-56.18999106
0.06999999999999999,7,0.009000000000000001,-1.0,-0.071,-0.5156622000000001,0.057295800000000015,-0.1718874,85.96088874,1.00840608,-56.18999106
0.08,8,0.01,-1.003,-0.069,-0.3437748,-0.286479,-0.40107059999999994,85.95515916000002,1.01413566,-56.18999106
0.09,9,0.012,-1.004,-0.069,-0.5156622000000001,-0.286479,-0.4583664000000001,85.94942957999999,1.01986524,-56.19572064000001
0.09999999999999999,10,0.013999999999999999,-1.002,-0.07200000000000001,-0.40107059999999994,-0.40107059999999994,-0.5156622000000001,85.90932252,1.0255948199999998,-56.20145021999999
0.11,11,0.013999999999999999,-1.001,-0.071,-0.2291832000000001,-0.6302538000000001,-0.572958,85.90932252,1.0313244000000001,-56.20717980000001
0.12,12,0.013999999999999999,-1.002,-0.07,-0.2291832000000001,-0.6302538000000001,-0.5156622000000001,85.90359294,1.03705398,-56.21290938
0.13,13,0.013999999999999999,-1.002,-0.068,-0.057295800000000015,-0.7448454000000001,-0.4583664000000001,85.90359294,1.04278356,-56.22436854
0.14,14,0.012,-1.003,-0.065,0.057295800000000015,-0.572958,-0.572958,85.90359294,1.04851314,-56.23009812
0.15000000000000002,15,0.011000000000000001,-1.003,-0.064,0.057295800000000015,-0.3437748,-0.5156622000000001,85.87494504,1.04851314,-56.2358277
0.16,16,0.011000000000000001,-1.004,-0.064,0.0,-0.286479,-0.5156622000000001,85.87494504,1.04851314,-56.24155728000001
0.17,17,0.01,-1.006,-0.064,0.057295800000000015,-0.11459160000000004,-0.4583664000000001,85.87494504,1.05424272,-56.24155728000001
0.18000000000000002,18,0.01,-1.005,-0.064,0.1718874,-0.057295800000000015,-0.1718874,85.87494504,1.0599723,-56.24155728000001
0.19,19,0.011000000000000001,-1.004,-0.066,0.2291832000000001,0.0,-0.1718874,85.88067462000002,1.0599723,-56.24155728000001
0.2,20,0.012,-1.004,-0.068,0.11459160000000004,0.2291832000000001,-0.11459160000000004,85.78900134,1.05424272,-56.24728686
0.21000000000000002,21,0.013000000000000001,-1.005,-0.067,0.11459160000000004,0.2291832000000001,-0.1718874,85.78900134,1.05424272,-56.24155728000001
0.22,22,0.015,-1.004,-0.067,0.057295800000000015,0.0,-0.2291832000000001,85.79473092,1.0599723,-56.24155728000001
0.23,23,0.016,-1.003,-0.069,0.11459160000000004,-0.40107059999999994,-0.2291832000000001,85.79473092,1.0599723,-56.24728686
0.24000000000000002,24,0.016,-1.003,-0.068,0.286479,-0.8594370000000001,-0.1718874,85.79473092,1.0599723,-56.25874602
0.25,25,0.013999999999999999,-1.004,-0.066,0.40107059999999994,-1.0313244000000001,-0.057295800000000015,85.77181259999998,1.06570188,-56.27020517999999
0.26,26,0.013000000000000001,-1.004,-0.066,0.5156622000000001,-0.9740286,0.0,85.77754218,1.06570188,-56.27593476
0.27,27,0.011000000000000001,-1.003,-0.065,0.6302538000000001,-0.8021411999999999,0.0,85.78327176,1.06570188,-56.28739392
0.28,28,0.011000000000000001,-1.004,-0.066,0.6875496,-0.7448454000000001,0.0,85.78900134,1.06570188,-56.29312349999999
0.29000000000000004,29,0.01,-1.004,-0.065,0.572958,-0.7448454000000001,0.0,85.79473092,1.0599723,-56.29885308
0.3,30,0.01,-1.002,-0.067,0.4583664000000001,-0.6875496,0.057295800000000015,85.77181259999998,1.05424272,-56.31031224
0.31,31,0.011000000000000001,-1.001,-0.068,0.6302538000000001,-0.8021411999999999,0.057295800000000015,85.77754218,1.05424272,-56.3217714
0.32,32,0.011000000000000001,-1.001,-0.067,0.9167328000000001,-0.6875496,0.057295800000000015,85.78900134,1.05424272,-56.32750098
0.33,33,0.011000000000000001,-1.003,-0.064,1.3178034,-0.6875496,0.0,85.8004605,1.05424272,-56.33323056
0.34,34,0.009000000000000001,-1.003,-0.063,1.3178034,-0.572958,0.0,85.81764924000002,1.05424272,-56.33896014000001
0.35000000000000003,35,0.01,-1.003,-0.062,1.3178034,-0.4583664000000001,0.0,85.81191966,1.04851314,-56.34468972
0.36000000000000004,36,0.01,-1.005,-0.062,1.3178034,-0.3437748,0.057295800000000015,85.82910840000002,1.04851314,-56.35041930000001
0.37,37,0.011000000000000001,-1.005,-0.062,1.145916,-0.1718874,0.11459160000000004,85.84056756,1.04851314,-56.35041930000001
0.38,38,0.013000000000000001,-1.006,-0.064,0.9740286,-0.11459160000000004,0.11459160000000004,85.84629714,1.04851314,-56.35041930000001
0.39,39,0.013000000000000001,-1.005,-0.066,0.8594370000000001,-0.057295800000000015,0.1718874,85.85775629999998,1.04278356,-56.35041930000001
0.4,40,0.013000000000000001,-1.004,-0.068,0.6875496,0.0,0.11459160000000004,85.81764924000002,1.04278356,-56.35614888
0.41000000000000003,41,0.012,-1.003,-0.066,0.7448454000000001,-0.1718874,0.057295800000000015,85.82910840000002,1.04278356,-56.35614888
0.42000000000000004,42,0.012,-1.004,-0.066,0.6302538000000001,-0.057295800000000015,0.057295800000000015,85.83483798,1.03705398,-56.35614888
0.43,43,0.013000000000000001,-1.004,-0.068,0.6875496,0.1718874,0.11459160000000004,85.84056756,1.03705398,-56.35614888
0.44,44,0.016,-1.004,-0.07,0.8021411999999999,0.1718874,0.2291832000000001,85.85202672,1.03705398,-56.35041930000001
0.45,45,0.016,-1.006,-0.068,0.8021411999999999,0.057295800000000015,0.2291832000000001,85.82910840000002,1.03705398,-56.35041930000001
0.46,46,0.015,-1.005,-0.063,0.8594370000000001,0.0,0.2291832000000001,85.84056756,1.03705398,-56.35041930000001
0.47000000000000003,47,0.013000000000000001,-1.004,-0.061,0.7448454000000001,-0.057295800000000015,0.286479,85.84629714,1.0313244000000001,-56.35041930000001
0.48000000000000004,48,0.011000000000000001,-1.006,-0.061,0.4583664000000001,-0.057295800000000015,0.2291832000000001,85.85202672,1.0313244000000001,-56.35041930000001
0.49,49,0.013000000000000001,-1.0070000000000001,-0.063,0.1718874,0.057295800000000015,0.2291832000000001,85.85202672,1.0255948199999998,-56.35041930000001
0.5,50,0.012,-1.0090000000000001,-0.065,0.0,0.3437748,0.3437748,85.81191966,1.0255948199999998,-56.35041930000001
0.51,51,0.013000000000000001,-1.008,-0.067,-0.057295800000000015,0.6875496,0.40107059999999994,85.81191966,1.01986524,-56.34468972
0.52,52,0.015,-1.006,-0.066,0.057295800000000015,0.5156622000000001,0.4583664000000001,85.81191966,1.01413566,-56.33323056
0.53,53,0.016,-1.003,-0.064,0.11459160000000004,-0.057295800000000015,0.40107059999999994,85.81764924000002,1.00840608,-56.33896014000001
0.54,54,0.017,-0.998,-0.065,0.057295800000000015,-0.5156622000000001,0.2291832000000001,85.81764924000002,1.00840608,-56.33896014000001
0.55,55,0.016,-0.9990000000000001,-0.063,0.1718874,-0.6875496,0.057295800000000015,85.78900134,1.00840608,-56.35041930000001
0.56,56,0.012,-1.003,-0.063,0.2291832000000001,-0.572958,0.057295800000000015,85.79473092,1.00840608,-56.35614888
0.5700000000000001,57,0.01,-1.005,-0.066,0.057295800000000015,-0.057295800000000015,0.1718874,85.79473092,1.00840608,-56.35614888
0.5800000000000001,58,0.01,-1.003,-0.068,0.057295800000000015,0.0,0.286479,85.79473092,1.0026765,-56.35614888
0.59,59,0.01,-1.001,-0.07,0.40107059999999994,-0.057295800000000015,0.286479,85.8004605,1.0026765,-56.35614888
0.6,60,0.012,-1.001,-0.07,0.7448454000000001,-0.286479,0.1718874,85.77181259999998,0.9969469199999998,-56.36187846
0.61,61,0.012,-0.998,-0.066,1.0313244000000001,-0.7448454000000001,0.11459160000000004,85.78327176,0.9969469199999998,-56.36760803999999
0.62,62,0.012,-0.998,-0.063,1.0886202,-0.9167328000000001,-0.057295800000000015,85.79473092,0.9969469199999998,-56.37333762000001
0.63,63,0.01,-0.997,-0.06,1.2032118,-0.8594370000000001,-0.11459160000000004,85.80619008000002,0.9969469199999998,-56.38479678
0.64,64,0.008,-1.0,-0.06,1.0886202,-0.8021411999999999,-0.1718874,85.81764924000002,0.9969469199999998,-56.39052636
0.65,65,0.005,-1.002,-0.06,1.0886202,-0.9167328000000001,-0.11459160000000004,85.82337881999999,0.9912173399999998,-56.4077151
0.66,66,0.002,-1.002,-0.057,1.2032118,-1.0313244000000001,-0.1718874,85.83483798,0.9912173399999998,-56.41344468
0.67,67,0.0,-1.0,-0.055,1.145916,-1.0886202,-0.2291832000000001,85.84629714,0.9912173399999998,-56.42490384
0.68,68,0.0,-0.998,-0.051,1.145916,-1.3178034,-0.3437748,85.85775629999998,0.9969469199999998,-56.44209258000001
0.6900000000000001,69,0.005,-0.995,-0.052000000000000005,0.8594370000000001,-1.5469866,-0.5156622000000001,85.86348588000001,1.0026765,-56.45355174
0.7000000000000001,70,0.006,-0.996,-0.054000000000000006,0.4583664000000001,-1.9480572,-0.7448454000000001,85.86921545999998,1.0026765,-56.47647006
0.7100000000000001,71,0.0,-1.001,-0.053,0.0,-2.3491277999999998,-1.0313244000000001,85.86921545999998,1.01413566,-56.499388380000006
0.72,72,0.0,-1.004,-0.055,-0.40107059999999994,-2.5210152000000003,-1.432395,85.86348588000001,1.0255948199999998,-56.52803628
0.73,73,0.0,-1.001,-0.061,-1.145916,-2.9220858,-1.6615782,85.85202672,1.04278356,-56.55668418000001
0.74,74,-0.008,-0.997,-0.061,-1.3750992,-3.4377480000000005,-1.8334656000000005,85.83483798,1.05424272,-56.59106166
0.75,75,-0.019,-0.9940000000000001,-0.055,-1.4896908000000002,-3.8961144,-2.2345362,85.81764924000002,1.06570188,-56.6368983
0.76,76,-0.023,-0.993,-0.051,-1.8334656000000005,-3.8961144,-2.9220858,85.8004605,1.09434978,-56.67700536
0.77,77,-0.024,-0.9990000000000001,-0.054000000000000006,-2.5783110000000002,-3.3231564,-3.4950437999999995,85.77181259999998,1.12299768,-56.71711241999999
0.78,78,-0.027000000000000003,-1.003,-0.057999999999999996,-3.0939732,-2.5783110000000002,-3.4377480000000005,85.7431647,1.1573751600000002,-56.74003074
0.79,79,-0.025,-1.001,-0.057999999999999996,-2.9220858,-1.8907614,-2.3491277999999998,85.70878722,1.18029348,-56.76294906
0.8,80,-0.019,-1.0,-0.046,-2.1199446,-1.7188740000000002,-1.0313244000000001,85.69732806,1.16310474,-56.78586738
0.81,81,-0.008,-1.002,-0.038,-1.145916,-2.2345362,0.286479,85.6858689,1.16310474,-56.80878570000001
0.8200000000000001,82,-0.006999999999999999,-1.0070000000000001,-0.025,-0.11459160000000004,-3.380452200000001,1.3750992,85.68013932,1.1459160000000002,-56.84316318
0.8300000000000001,83,-0.013000000000000001,-1.015,-0.013000000000000001,0.1718874,-3.9534102,1.7188740000000002,85.6858689,1.12299768,-56.87754066
0.8400000000000001,84,-0.017,-1.016,-0.006999999999999999,-0.11459160000000004,-4.297185,1.432395,85.6858689,1.11153852,-56.92337730000001
0.85,85,-0.024,-1.013,-0.003,-0.057295800000000015,-5.042030400000002,0.7448454000000001,85.70878722,1.07143146,-56.97494352
0.86,86,-0.031,-1.015,0.0,-0.11459160000000004,-6.0733548,-0.1718874,85.70878722,1.07143146,-57.0379689
0.87,87,-0.03,-1.0190000000000001,-0.002,-1.2032118,-6.9327918,-1.2032118,85.69732806,1.08289062,-57.10672386
0.88,88,-0.031,-1.02,-0.012,-2.6356068,-7.2192707999999985,-2.1199446,85.66868016,1.10007936,-57.1812084
0.89,89,-0.032,-1.0170000000000001,-0.025,-3.4950437999999995,-7.161975,-2.6929026,85.63430267999998,1.12299768,-57.24996336
0.9,90,-0.037000000000000005,-1.015,-0.032,-3.8961144,-6.990087599999999,-2.9793816000000004,85.59419562000002,1.13445684,-57.32444790000001
0.91,91,-0.038,-1.015,-0.035,-4.4690724,-6.3025379999999975,-3.0366774,85.54835898,1.16310474,-57.39320286
0.92,92,-0.038,-1.014,-0.037000000000000005,-5.1566220000000005,-5.5576926,-2.6929026,85.49679276,1.18602306,-57.45049866
0.93,93,-0.034,-1.014,-0.04,-5.6722842,-5.042030400000002,-2.291832,85.43949696000001,1.2032117999999998,-57.50206488
0.9400000000000001,94,-0.031,-1.014,-0.043,-6.130650599999999,-4.6982555999999995,-2.0053530000000004,85.37647158,1.22613012,-57.54790152
0.9500000000000001,95,-0.026000000000000002,-1.011,-0.044000000000000004,-6.3598338,-4.297185,-2.1199446,85.3134462,1.2318597,-57.59946774
0.9600000000000001,96,-0.026000000000000002,-1.01,-0.045,-6.2452422,-3.8961144,-2.4064236,85.25042082,1.25477802,-57.63957480000001
0.97,97,-0.027000000000000003,-1.011,-0.044000000000000004,-6.5317212,-3.7242269999999995,-2.7501984,85.18166586000002,1.27769634,-57.67968186
0.98,98,-0.031,-1.011,-0.040999999999999995,-6.6463128000000005,-3.6669312000000014,-2.9793816000000004,85.1129109,1.30634424,-57.71978892
0.99,99,-0.035,-1.013,-0.039,-6.8182002000000015,-3.380452200000001,-3.2085647999999996,85.04415594,1.3349921400000002,-57.7541664
1.0,100,-0.039,-1.0170000000000001,-0.039,-7.2192707999999985,-3.2085647999999996,-3.2085647999999996,84.97540097999997,1.3464512999999998,-57.79427346
1.01,101,-0.043,-1.02,-0.037000000000000005,-7.734933000000002,-2.6929026,-2.9220858,84.89518686,1.3750992,-57.82292136
1.02,102,-0.045,-1.024,-0.038,-8.3651868,-1.6042823999999998,-2.6356068,84.80924316,1.39801752,-57.84583968000001
1.03,103,-0.048,-1.025,-0.04,-9.396511199999999,-0.286479,-2.291832,84.71756988,1.4209358399999998,-57.85156926
1.04,104,-0.047,-1.025,-0.04,-10.313244000000001,1.145916,-2.0053530000000004,84.60870786,1.44385416,-57.8401101
1.05,105,-0.040999999999999995,-1.022,-0.047,-11.1153852,2.1199446,-1.5469866,84.50557542,1.44385416,-57.82292136
1.06,106,-0.035,-1.0190000000000001,-0.049,-11.5164558,2.1772404,-0.9740286,84.38525424,1.45531332,-57.80573262
1.07,107,-0.031,-1.015,-0.053,-12.032118,2.4637194,-0.3437748,84.26493306,1.4610428999999998,-57.78281430000001
1.08,108,-0.031,-1.01,-0.055999999999999994,-12.2040054,3.1512689999999997,0.40107059999999994,84.13888229999998,1.45531332,-57.7541664
1.09,109,-0.034,-1.005,-0.062,-12.1467096,4.583664,1.4896908000000002,84.01856111999999,1.44385416,-57.70832975999999
1.1,110,-0.031,-0.995,-0.069,-12.032118,6.417129599999999,2.9793816000000004,83.89823994000002,1.40947668,-57.63957480000001
1.11,111,-0.027999999999999997,-0.988,-0.07400000000000001,-11.2872726,8.880849000000003,5.2712136,83.78364833999998,1.36364004,-57.54790152
1.12,112,-0.023,-0.98,-0.077,-10.313244000000001,9.740286,7.2192707999999985,83.6805159,1.30061466,-57.44476908
1.1300000000000001,113,-0.024,-0.976,-0.065,-9.167328,10.3705398,8.9954406,83.58884262000002,1.22040054,-57.33590706
1.1400000000000001,114,-0.028999999999999998,-0.977,-0.049,-9.1100322,11.5737516,10.084060800000001,83.49716934,1.12872726,-57.2098563
1.1500000000000001,115,-0.025,-0.986,-0.047,-10.4851314,13.2353298,10.599723,83.3940369,1.0313244000000001,-57.07234638
1.1600000000000001,116,-0.015,-0.986,-0.068,-12.7196676,15.527161800000002,11.0580894,83.26798613999998,0.93392154,-56.90618856
1.17,117,-0.006,-0.987,-0.096,-15.183387000000002,18.277360199999997,11.688343199999998,83.11328748,0.8307891,-56.71711241999999
1.18,118,0.0,-0.986,-0.115,-17.7044022,20.912967000000002,13.0634424,82.9356705,0.72192708,-56.49365879999999
1.19,119,0.012,-0.975,-0.128,-19.136797199999997,23.0902074,16.157415599999997,82.74086478000002,0.5844171599999999,-56.24728686
1.2,120,0.018000000000000002,-0.961,-0.11599999999999999,-19.767051000000002,23.491278,18.6784308,82.5345999,0.41825934,-55.99518534
1.21,121,0.013000000000000001,-0.953,-0.096,-19.9389384,22.1734746,20.3973048,82.33406459999998,0.24064236,-55.75454298
1.22,122,-0.004,-0.977,-0.085,-19.308684600000007,19.9389384,21.027558600000006,82.13352929999998,0.05156622,-55.53108936
1.23,123,-0.037000000000000005,-1.022,-0.068,-19.136797199999997,18.793022399999998,19.480572,81.93872358,-0.11459160000000003,-55.32482448
1.24,124,-0.066,-1.058,-0.057,-19.9962342,20.5118964,15.5844576,81.73245870000002,-0.24637194,-55.10137086000001
1.25,125,-0.087,-1.074,-0.059000000000000004,-21.829699800000004,24.0069402,10.026765,81.50900508000002,-0.32658606,-54.85499892
1.26,126,-0.085,-1.075,-0.057999999999999996,-23.491278,28.361421000000004,5.2712136,81.26263314,-0.3437748,-54.57424949999999
1.27,127,-0.05,-1.064,-0.044000000000000004,-24.064236,32.0283522,1.8907614,81.0162612,-0.32658606,-54.25912260000001
1.28,128,-0.01,-1.057,-0.013000000000000001,-23.14750320000001,32.658606,1.432395,80.77561884,-0.29793816,-53.93826612
1.29,129,0.027999999999999997,-1.045,0.018000000000000002,-22.4599536,32.6013102,2.0053530000000004,80.54070606,-0.28074942,-53.61740964000001
1.3,130,0.057,-1.034,0.033,-22.86102420000001,33.116972399999995,2.5783110000000002,80.31152286,-0.25783110000000004,-53.29082358000001
1.31,131,0.07400000000000001,-1.028,0.027999999999999997,-23.7204612,33.1742682,3.0366774,80.06515092,-0.24064236,-52.96423752
1.32,132,0.076,-1.021,0.026000000000000002,-24.1788276,31.51269000000001,3.380452200000001,79.81304940000003,-0.22918320000000006,-52.64911062
1.33,133,0.07,-1.0190000000000001,0.027000000000000003,-23.4339822,27.6738714,3.2085647999999996,79.57240704,-0.22345362,-52.37409078
1.34,134,0.066,-1.0190000000000001,0.027999999999999997,-22.6891368,22.6891368,2.1199446,79.33749426,-0.21199446,-52.15063716
1.35,135,0.06,-1.023,0.011000000000000001,-22.517249399999997,16.959556799999998,-0.286479,79.11977021999998,-0.17761697999999998,-51.99020892
1.36,136,0.051,-1.026,-0.01,-22.86102420000001,14.266654199999998,-3.0366774,78.88485744,-0.12605075999999998,-51.85842858
1.37,137,0.042,-1.028,-0.039,-23.491278,14.209358400000001,-6.3598338,78.64421508000002,-0.04583664,-51.73237782
1.3800000000000001,138,0.038,-1.012,-0.062,-24.5798982,15.126091199999998,-9.167328,78.39211356000001,0.06302537999999999,-51.60632706
1.3900000000000001,139,0.033,-0.985,-0.079,-25.210151999999997,15.756345,-11.0580894,78.13428246,0.19480572,-51.47454672
1.4000000000000001,140,0.027000000000000003,-0.953,-0.092,-25.210151999999997,15.527161800000002,-11.6310474,77.88218094,0.33804522,-51.34849596
1.4100000000000001,141,0.023,-0.914,-0.091,-24.522602399999997,15.3552744,-11.3445684,77.63580900000002,0.46982556,-51.22817478
1.42,142,0.027999999999999997,-0.893,-0.087,-23.0902074,15.2406828,-11.0580894,77.40089622,0.6073354799999999,-51.10212402000001
1.43,143,0.044000000000000004,-0.894,-0.08,-21.0848544,15.183387000000002,-11.172680999999999,77.18317218,0.7391158200000001,-50.98180284
1.44,144,0.065,-0.9,-0.066,-18.907614,14.209358400000001,-11.6310474,76.98836646,0.8823553199999999,-50.87294082
1.45,145,0.084,-0.907,-0.054000000000000006,-15.9855282,12.3758928,-12.032118,76.83939738000002,1.0255948199999998,-50.78126754
1.46,146,0.09699999999999999,-0.909,-0.042,-13.2353298,10.5424272,-12.261301199999998,76.70761704,1.16310474,-50.706783
1.47,147,0.10300000000000001,-0.91,-0.027000000000000003,-11.1153852,8.479778399999999,-12.4904844,76.59302543999998,1.30061466,-50.6494872
1.48,148,0.11199999999999999,-0.919,-0.012,-9.167328,6.2452422,-12.2040054,76.50135216,1.432395,-50.62083930000001
1.49,149,0.11599999999999999,-0.9309999999999999,-0.002,-8.7089616,3.9534102,-11.45916,76.40967888,1.5527161800000002,-50.60938014
1.5,150,0.124,-0.9470000000000001,0.006,-8.021412000000002,1.5469866,-10.5424272,76.36957182,1.6787669399999998,-50.61510972
1.51,151,0.139,-0.965,0.015,-7.3911582,-1.9480572,-8.9954406,76.29508728,1.75898106,-50.65521678
1.52,152,0.14800000000000002,-0.975,0.022000000000000002,-6.990087599999999,-4.9274388,-7.734933000000002,76.22060274,1.82200644,-50.71824216
1.53,153,0.162,-0.982,0.023,-7.5630456000000015,-7.906820400000001,-6.2452422,76.14038862,1.86784308,-50.80991544000001
1.54,154,0.17,-0.983,0.019,-8.250595200000001,-11.401864199999999,-4.4117766,76.05444492,1.88503182,-50.9359662
1.55,155,0.17600000000000002,-0.991,0.011000000000000001,-9.224623800000002,-15.011499599999999,-2.2345362,75.99141954000002,1.89649098,-51.0792057
1.56,156,0.177,-1.005,0.004,-10.657018800000001,-18.793022399999998,0.1718874,75.87682794,1.85065434,-51.26255225999999
1.57,157,0.172,-1.036,-0.013999999999999999,-12.6623718,-23.14750320000001,2.6356068,75.74504759999998,1.7761698000000001,-51.48027629999999
1.58,158,0.174,-1.071,-0.031,-14.8396122,-27.8457588,5.042030400000002,75.59034894,1.6615782,-51.7381074
1.59,159,0.183,-1.1079999999999999,-0.061,-16.558486199999994,-34.262888399999994,7.906820400000001,75.41846154,1.51260912,-52.05323430000001
1.6,160,0.18899999999999997,-1.131,-0.086,-17.246035799999998,-38.67466500000001,9.568398599999998,75.24657413999998,1.3349921400000002,-52.40273868000001
1.61,161,0.187,-1.1320000000000001,-0.11,-15.9855282,-42.28430039999999,10.5424272,75.08041632,1.14018642,-52.78089096
1.62,162,0.16,-1.1179999999999999,-0.122,-12.261301199999998,-45.83664,10.7143146,74.96009513999998,0.92819196,-53.1991503
1.6300000000000001,163,0.109,-1.107,-0.10800000000000001,-5.443101,-48.8733174,9.7975818,74.90279934,0.72192708,-53.64032796
1.6400000000000001,164,0.059000000000000004,-1.101,-0.086,1.2605076000000002,-49.6754586,8.3651868,74.91425849999997,0.52712136,-54.09869436
1.6500000000000001,165,0.018000000000000002,-1.097,-0.061,6.9327918,-48.3003594,6.3598338,75.0002022,0.35523396,-54.54560160000001
1.6600000000000001,166,-0.015,-1.1059999999999999,-0.038,11.9748222,-45.4355694,4.0680017999999984,75.12625296,0.21199446,-54.96959052
1.6700000000000002,167,-0.043,-1.137,-0.054000000000000006,15.527161800000002,-42.2270046,1.2032118,75.29241078,0.10886202,-55.37066112
1.68,168,-0.195,-1.3219999999999998,-0.34,11.0007936,-46.1804148,-4.010706000000001,75.40700238,0.04583664,-55.82902752
1.69,169,-0.395,-1.528,-0.20199999999999999,15.3552744,-10.3705398,-20.912967000000002,75.56743062000002,0.22345362,-55.977996600000004
1.7,170,-0.278,-1.348,-0.35,13.8655836,4.3544808,-23.319390600000002,75.70494054,0.4526368200000001,-55.98945576
1.71,171,-0.122,-1.2919999999999998,-0.26899999999999996,25.3247436,2.3491277999999998,-26.5852512,75.95704206,0.7161975,-56.02956282
1.72,172,0.017,-1.2329999999999999,-0.299,23.663165399999997,1.2605076000000002,-24.1788276,76.19768442,0.95683986,-56.07539946000001
1.73,173,0.24100000000000002,-1.109,-0.3,23.777757,-8.4224826,-12.318597,76.43832678,1.0599723,-56.1785319
1.74,174,0.327,-1.07,-0.312,22.7464326,-17.131444199999994,-4.6409598,76.66750998,1.07143146,-56.35614888
1.75,175,0.27699999999999997,-1.051,-0.337,20.8556712,-24.5798982,-3.1512689999999997,76.87377486,1.07143146,-56.59679124
1.76,176,0.161,-1.001,-0.39299999999999996,19.4232762,-29.1062664,-6.9327918,77.06858058,1.08289062,-56.8947294
1.77,177,0.025,-0.934,-0.423,18.793022399999998,-33.403451399999994,-12.0894138,77.25765672,1.14018642,-57.24423378
1.78,178,-0.061,-0.856,-0.42100000000000004,16.501190400000002,-36.1536498,-15.3552744,77.41808496,1.22040054,-57.62238606
1.79,179,-0.028999999999999998,-0.773,-0.35700000000000004,14.037471,-37.1849742,-16.7303736,77.56132446000002,1.3178034,-58.01772708
1.8,180,0.062,-0.782,-0.319,10.1986524,-35.5806918,-17.0168526,77.64726816,1.4209358399999998,-58.40160894
1.81,181,0.055,-0.878,-0.341,4.297185,-34.8931422,-16.8449652,77.68737522,1.5183387000000002,-58.77403164
1.82,182,-0.003,-0.973,-0.335,1.7188740000000002,-33.4607472,-15.011499599999999,77.69883438,1.6042824000000002,-59.1292656
1.83,183,-0.075,-1.0390000000000001,-0.31,2.2345362,-27.272800800000002,-9.6256944,77.71602312,1.65011904,-59.4157446
1.84,184,-0.107,-1.056,-0.287,3.5523396000000003,-19.480572,-3.2085647999999996,77.75040059999998,1.64438946,-59.61055032
1.85,185,-0.10800000000000001,-1.0170000000000001,-0.27399999999999997,4.9847346,-12.1467096,3.2085647999999996,77.78477808,1.56417534,-59.72514192
1.86,186,-0.091,-0.946,-0.261,6.0160589999999985,-6.0160589999999985,8.9381448,77.84207388,1.46677248,-59.76524897999999
1.87,187,-0.076,-0.9,-0.242,5.958763200000001,-1.0313244000000001,13.120738199999998,77.90509926,1.34072172,-59.74806024000001
1.8800000000000001,188,-0.055999999999999994,-0.894,-0.23,5.5003968,2.7501984,15.6417534,77.96239505999998,1.19175264,-59.69076444
1.8900000000000001,189,-0.034,-0.888,-0.226,5.1566220000000005,4.8128472,17.303331600000003,78.01396128,1.0313244000000001,-59.60482074
1.9000000000000001,190,-0.017,-0.873,-0.217,4.9847346,4.9847346,17.9335854,78.05979792000002,0.86516658,-59.51887703999999
1.9100000000000001,191,-0.003,-0.856,-0.20800000000000002,4.6409598,3.4377480000000005,17.4179232,78.10563456,0.69900876,-59.45012207999999
1.9200000000000002,192,-0.006,-0.852,-0.182,4.583664,1.6042823999999998,16.157415599999997,78.15720078000003,0.5443101,-59.40428544
1.93,193,-0.01,-0.8640000000000001,-0.154,3.6096353999999997,0.40107059999999994,14.5531332,78.19157826,0.40680018,-59.36990796
1.94,194,-0.035,-0.8809999999999999,-0.163,1.6615782,0.0,13.0061466,78.20876700000002,0.28074942,-59.34126005999999
1.95,195,-0.068,-0.907,-0.156,0.8021411999999999,1.145916,11.745639,78.22595574,0.14323950000000002,-59.31261216
1.96,196,-0.098,-0.93,-0.142,-1.3750992,3.5523396000000003,11.745639,78.20876700000002,0.03437748,-59.25531636000001
1.97,197,-0.11599999999999999,-0.948,-0.14400000000000002,-2.6356068,6.875496000000001,12.4904844,78.18584868,-0.06875496,-59.15791349999999
1.98,198,-0.11900000000000001,-0.96,-0.13699999999999998,-4.1825934,10.4851314,13.6936962,78.14001204,-0.18334656,-59.03186274000001
1.99,199,-0.107,-0.971,-0.136,-6.3025379999999975,14.209358400000001,14.8396122,78.07125708,-0.30366774,-58.86570492
2.0,200,-0.09300000000000001,-0.961,-0.131,-7.1046792000000005,16.329303,15.756345,78.00250212,-0.44117766,-58.67662878
2.01,201,-0.073,-0.9540000000000001,-0.11800000000000001,-7.8495246,17.8762896,16.2147114,77.91655842,-0.56722842,-58.4703639
2.02,202,-0.044000000000000004,-0.9440000000000001,-0.11800000000000001,-8.9381448,18.9649098,16.2147114,77.82488514,-0.69327918,-58.25263986
2.03,203,-0.017,-0.9329999999999999,-0.102,-8.9954406,18.907614,15.813640800000002,77.72748228,-0.8136003599999999,-58.03491582
2.04,204,-0.001,-0.9329999999999999,-0.085,-9.682990199999999,18.5638392,15.183387000000002,77.62434984000002,-0.92819196,-57.82292136
2.05,205,-0.002,-0.929,-0.081,-10.943497800000001,17.761698000000006,14.266654199999998,77.51548782,-1.0313244000000001,-57.62238606
2.0599999999999996,206,-0.015,-0.917,-0.076,-11.688343199999998,16.959556799999998,13.0634424,77.38943706,-1.12872726,-57.42758034
2.07,207,-0.034,-0.903,-0.073,-13.120738199999998,16.329303,11.5737516,77.25192713999998,-1.20894138,-57.24996336
2.0799999999999996,208,-0.044000000000000004,-0.89,-0.083,-13.6936962,16.2147114,10.1413566,77.10868764,-1.27769634,-57.06661680000001
2.09,209,-0.049,-0.8809999999999999,-0.083,-13.178034,16.042824000000003,9.1100322,76.96544814,-1.34072172,-56.8947294
2.0999999999999996,210,-0.048,-0.8759999999999999,-0.081,-12.5477802,16.2147114,8.4224826,76.84512696,-1.39228794,-56.71711241999999
2.11,211,-0.046,-0.867,-0.071,-11.0007936,16.673077799999998,7.9641161999999985,76.72480578,-1.43812458,-56.53949544
2.1199999999999997,212,-0.049,-0.855,-0.053,-8.7089616,16.272007199999994,7.5630456000000015,76.6331325,-1.4782316400000002,-56.36760803999999
2.13,213,-0.059000000000000004,-0.848,-0.045,-7.0473834,16.386598799999998,7.1046792000000005,76.55291838000002,-1.51260912,-56.18999106
2.1399999999999997,214,-0.081,-0.8440000000000001,-0.031,-5.3285094000000015,16.902261,6.417129599999999,76.48989300000002,-1.5412570200000002,-56.01237408
2.15,215,-0.10099999999999999,-0.85,-0.013999999999999999,-3.7242269999999995,17.4179232,6.0733548,76.46697467999998,-1.5756344999999998,-55.83475709999999
2.1599999999999997,216,-0.11699999999999999,-0.86,-0.008,-2.5783110000000002,17.9335854,6.1879464,76.4325972,-1.6042824000000002,-55.64568095999999
2.17,217,-0.122,-0.866,-0.008,-2.2345362,18.506543399999998,6.4744254,76.40394930000002,-1.6272007199999998,-55.45087524
2.1799999999999997,218,-0.124,-0.8640000000000001,-0.004,-1.7761698000000001,19.767051000000002,6.9327918,76.37530140000001,-1.65011904,-55.24461036
2.19,219,-0.11800000000000001,-0.861,0.002,-0.8594370000000001,21.772404,7.333862400000001,76.35811265999997,-1.6787669399999998,-55.01542716
2.1999999999999997,220,-0.10800000000000001,-0.8740000000000001,0.023,0.2291832000000001,23.892348600000002,7.333862400000001,76.38103097999998,-1.71314442,-54.76905522
2.21,221,-0.099,-0.903,0.034,0.286479,26.7571386,6.8182002000000015,76.36957182,-1.7246035799999997,-54.49403537999999
2.2199999999999998,222,-0.092,-0.94,0.031,-0.4583664000000001,28.934378999999996,5.6722842,76.35238308000002,-1.7188740000000002,-54.201826800000006
2.23,223,-0.098,-0.9890000000000001,0.031,-1.4896908000000002,29.9084076,4.4690724,76.32373518,-1.70168526,-53.90388864000001
2.2399999999999998,224,-0.114,-1.05,0.027000000000000003,-4.0680017999999984,30.194886600000004,3.1512689999999997,76.27216896,-1.6673077799999998,-53.60595048
2.25,225,-0.146,-1.124,0.011000000000000001,-7.9641161999999985,30.595957199999997,1.8334656000000005,76.19768442,-1.6329303,-53.30228274000001
2.26,226,-0.168,-1.199,-0.025,-11.172680999999999,31.22621100000001,0.7448454000000001,76.06590408,-1.5756344999999998,-53.00434458
2.27,227,-0.193,-1.264,-0.057999999999999996,-12.261301199999998,31.2835068,-0.2291832000000001,75.93412373999998,-1.50687954,-52.70067684000001
2.28,228,-0.215,-1.32,-0.063,-13.750992000000002,31.3980984,-1.6042823999999998,75.77942508000002,-1.42666542,-52.40273868000001
2.29,229,-0.203,-1.3630000000000002,-0.069,-14.438541599999999,32.372127,-3.380452200000001,75.61899684,-1.32353298,-52.09907094
2.3,230,-0.149,-1.386,-0.10400000000000001,-15.5844576,33.804522,-4.9274388,75.45856859999998,-1.2032117999999998,-51.78967362
2.31,231,-0.08199999999999999,-1.421,-0.179,-18.907614,32.945085,-4.8701430000000006,75.25230372,-1.0886202,-51.48600588000001
2.32,232,0.005,-1.445,-0.266,-22.1734746,27.7311672,-3.2085647999999996,75.01739094,-0.9969469199999998,-51.22817478
2.3299999999999996,233,0.107,-1.4769999999999999,-0.335,-21.657812399999997,19.308684600000007,0.572958,74.79393732,-0.95683986,-51.03909864
2.34,234,0.193,-1.463,-0.32299999999999995,-19.136797199999997,11.802934800000001,5.2712136,74.59340202,-0.98548776,-50.91304787999999
2.3499999999999996,235,0.213,-1.4069999999999998,-0.275,-16.8449652,4.9274388,8.7662574,74.42724419999998,-1.04851314,-50.84429292
2.36,236,0.139,-1.305,-0.23399999999999999,-18.277360199999997,-0.8021411999999999,10.2559482,74.23816806,-1.15164558,-50.827104180000006
2.3699999999999997,237,0.013000000000000001,-1.245,-0.247,-18.162768600000003,-0.057295800000000015,10.1413566,74.0548215,-1.25477802,-50.80418586
2.38,238,-0.13,-1.216,-0.282,-16.1001198,4.3544808,8.021412000000002,73.88866368000002,-1.32353298,-50.74116048
2.3899999999999997,239,-0.22699999999999998,-1.158,-0.295,-11.45916,12.0894138,6.130650599999999,73.76834249999997,-1.35218088,-50.60938014
2.4,240,-0.21,-1.058,-0.309,-7.734933000000002,20.2827132,4.0680017999999984,73.67666922,-1.3579104599999998,-50.40884484
2.4099999999999997,241,-0.16,-0.924,-0.34700000000000003,-5.5576926,27.100913399999996,2.4064236,73.60791426,-1.3178034,-50.13955458
2.42,242,-0.132,-0.797,-0.39,-2.7501984,33.0596766,2.86479,73.5678072,-1.2605076000000002,-49.81869810000001
2.4299999999999997,243,-0.142,-0.688,-0.436,-0.4583664000000001,36.2682414,5.6149884000000005,73.55061846,-1.22040054,-49.45200498000001
2.44,244,-0.18,-0.618,-0.467,1.145916,35.7525792,8.078707799999998,73.55061846,-1.20894138,-49.09104144
2.4499999999999997,245,-0.14400000000000002,-0.595,-0.502,0.7448454000000001,35.122325399999994,8.250595200000001,73.51624097999998,-1.20894138,-48.73007790000001
2.46,246,-0.036000000000000004,-0.628,-0.517,-0.6302538000000001,34.7785506,6.0733548,73.49905224,-1.1745639,-48.38057352000001
2.4699999999999998,247,0.084,-0.6729999999999999,-0.528,-2.1199446,33.518043,2.86479,73.46467476,-1.1172681,-48.05398746
2.48,248,0.16899999999999998,-0.7140000000000001,-0.551,-2.8074942000000003,30.022999199999997,-0.3437748,73.4245677,-1.03705398,-47.76750846
2.4899999999999998,249,0.209,-0.736,-0.563,-3.0366774,24.350715,-3.2085647999999996,73.39019022,-0.9453807,-47.54405484
2.5,250,0.223,-0.767,-0.578,-2.9793816000000004,18.048177,-5.3858052,73.27559862,-0.79641162,-47.3836266
2.51,251,0.225,-0.81,-0.593,-3.0939732,11.5737516,-6.875496000000001,73.24122114,-0.70473834,-47.29195332
2.52,252,0.213,-0.863,-0.606,-3.6096353999999997,6.6463128000000005,-7.2765666,73.20111408,-0.61306506,-47.24611668
2.53,253,0.192,-0.905,-0.605,-3.2085647999999996,2.8074942000000003,-7.2192707999999985,73.17246618,-0.53858052,-47.24038710000001
2.54,254,0.163,-0.929,-0.597,-1.7188740000000002,0.572958,-6.990087599999999,73.15527744,-0.46982556,-47.25757584
2.55,255,0.128,-0.94,-0.581,1.0886202,-0.9740286,-6.9327918,73.08652248,-0.3724227000000001,-47.28622374
2.56,256,0.08900000000000001,-0.95,-0.5589999999999999,4.8701430000000006,-1.6615782,-6.990087599999999,73.13235912,-0.30939732,-47.32060122
2.57,257,0.062,-0.956,-0.524,7.5057497999999985,-1.7188740000000002,-7.333862400000001,73.21257324000003,-0.24637194,-47.3549787
2.5799999999999996,258,0.039,-0.958,-0.49,10.084060800000001,-1.7761698000000001,-7.3911582,73.31570568,-0.17761697999999998,-47.39508576
2.59,259,0.017,-0.9690000000000001,-0.456,12.4904844,-1.7761698000000001,-7.2765666,73.44175643999998,-0.10886202,-47.42946324
2.5999999999999996,260,0.003,-0.975,-0.41600000000000004,13.3499214,-0.6875496,-7.2192707999999985,73.55061846,-0.04010706,-47.45811113999999
2.61,261,0.03,-1.004,-0.375,13.6936962,0.9167328000000001,-7.0473834,73.68812838,0.028647900000000007,-47.46384072
2.6199999999999997,262,0.04,-1.0270000000000001,-0.348,13.636400400000001,3.0366774,-7.734933000000002,73.82563830000002,0.10886202,-47.45811113999999
2.63,263,0.054000000000000006,-1.051,-0.33299999999999996,12.4331886,5.5003968,-7.6776372,73.95168906,0.20053530000000008,-47.42373366
2.6399999999999997,264,0.07200000000000001,-1.062,-0.32799999999999996,10.7143146,7.9641161999999985,-7.1046792000000005,74.06055108000002,0.28647900000000004,-47.36643786
2.65,265,0.083,-1.062,-0.309,9.2819196,9.568398599999998,-6.4744254,74.14649478,0.38388186,-47.29195332
2.6599999999999997,266,0.08800000000000001,-1.056,-0.295,7.5630456000000015,10.1986524,-6.3025379999999975,74.2267089,0.47555514,-47.20600962
2.67,267,0.091,-1.044,-0.285,5.2712136,10.7143146,-6.130650599999999,74.27827512,0.55576926,-47.12006592
2.6799999999999997,268,0.09,-1.035,-0.28800000000000003,2.7501984,11.0580894,-6.3598338,74.30692302,0.64744254,-47.02839264
2.69,269,0.091,-1.022,-0.312,-0.1718874,11.745639,-6.990087599999999,74.30119343999998,0.7391158200000001,-46.93671936
2.6999999999999997,270,0.09300000000000001,-1.003,-0.317,-2.1199446,11.0580894,-7.6203414,74.26681596,0.8594370000000001,-46.85077566
2.71,271,0.095,-0.9790000000000001,-0.303,-3.4377480000000005,7.9641161999999985,-8.3651868,74.23243848,0.96256944,-46.79347986
2.7199999999999998,272,0.102,-0.9570000000000001,-0.309,-4.8128472,5.5003968,-9.167328,74.18087225999999,1.0599723,-46.76483196
2.73,273,0.11800000000000001,-0.929,-0.319,-6.8182002000000015,4.010706000000001,-10.1413566,74.1121173,1.1688343199999998,-46.753372799999994
2.7399999999999998,274,0.14300000000000002,-0.91,-0.305,-8.250595200000001,0.9740286,-11.1153852,74.02617359999998,1.27769634,-46.77629112
2.75,275,0.155,-0.912,-0.3,-10.3705398,-3.4377480000000005,-11.688343199999998,73.90585242,1.4037471000000001,-46.83931650000001
2.76,276,0.16399999999999998,-0.919,-0.312,-12.891555,-8.4224826,-11.2299768,73.77407208,1.4896908000000002,-46.9539081
2.77,277,0.175,-0.9109999999999999,-0.312,-14.7250206,-13.2926256,-10.599723,73.61937342,1.55844576,-47.10860676
2.78,278,0.18100000000000002,-0.9079999999999999,-0.301,-16.042824000000003,-17.6471064,-10.886202,73.4532156,1.6157415599999996,-47.31487163999999
2.79,279,0.16899999999999998,-0.9009999999999999,-0.254,-16.157415599999997,-25.4393352,-11.802934800000001,73.28705778,1.6558486199999998,-47.58989147999999
2.8,280,0.147,-0.873,-0.187,-13.6936962,-33.74722620000001,-12.3758928,73.14954786,1.6959556799999995,-47.94512544000001
2.81,281,0.127,-0.855,-0.109,-11.2299768,-40.8519054,-12.834259199999998,73.02349709999999,1.71314442,-48.37484394
2.82,282,0.105,-0.861,-0.04,-10.886202,-44.51883660000001,-14.0947668,72.9089055,1.73033316,-48.83893992
2.8299999999999996,283,0.086,-0.887,-0.027999999999999997,-13.750992000000002,-44.117765999999996,-15.297978599999999,72.75993642,1.75325148,-49.30876548
2.84,284,0.069,-0.9329999999999999,-0.031,-16.7303736,-41.3675676,-14.9542038,72.58231943999998,1.78189938,-49.74994314
2.8499999999999996,285,0.057999999999999996,-0.945,-0.043,-19.595163600000006,-37.9871154,-14.8396122,72.38751372,1.82200644,-50.15101374
2.86,286,0.048,-0.93,-0.062,-20.7983754,-34.7212548,-15.068795399999999,72.16978968,1.86784308,-50.52916602000001
2.8699999999999997,287,0.044000000000000004,-0.897,-0.083,-21.4286292,-32.945085,-14.610429000000002,71.94633606,1.91367972,-50.89012956
2.88,288,0.063,-0.848,-0.084,-20.9702628,-34.2055926,-13.120738199999998,71.72288244,1.93659804,-51.25682267999999
2.8899999999999997,289,0.09699999999999999,-0.805,-0.09699999999999999,-18.621135,-38.0444112,-10.4851314,71.52234714,1.92513888,-51.6521637
2.9,290,0.127,-0.7809999999999999,-0.091,-13.6936962,-44.117765999999996,-7.5630456000000015,71.39056679999999,1.87357266,-52.09334136
2.9099999999999997,291,0.149,-0.7659999999999999,-0.055,-7.2765666,-50.0192334,-5.2139178,71.30462309999999,1.78189938,-52.58035566
2.92,292,0.168,-0.752,-0.006999999999999999,-0.6302538000000001,-56.66554620000001,-4.0680017999999984,71.28743435999998,1.6558486199999998,-53.13039533999999
2.9299999999999997,293,0.172,-0.7440000000000001,0.024,4.8701430000000006,-61.1346186,-3.8961144,71.333271,1.51260912,-53.72054208
2.94,294,0.16899999999999998,-0.7390000000000001,0.052000000000000005,9.9694692,-65.317212,-4.297185,71.42494428,1.36364004,-54.35079588
2.9499999999999997,295,0.152,-0.7559999999999999,0.086,15.183387000000002,-69.8435802,-4.8128472,71.5911021,1.22040054,-55.02688632
2.96,296,0.11699999999999999,-0.792,0.10300000000000001,17.475219,-72.93755340000001,-5.5003968,71.7629895,1.06570188,-55.73162466
2.9699999999999998,297,0.096,-0.841,0.099,17.6471064,-74.59913159999998,-5.958763200000001,71.94060648,0.9167328,-56.45355174
2.98,298,0.091,-0.8809999999999999,0.092,17.3606274,-75.916935,-5.958763200000001,72.11822346,0.76203414,-57.19266756
2.9899999999999998,299,0.076,-0.938,0.07200000000000001,17.589810600000003,-78.2660628,-5.9014674000000005,72.29584044,0.6016058999999999,-57.94897212000001
3.0,300,0.040999999999999995,-1.01,0.028999999999999998,16.615782,-74.7137232,-7.161975,72.48491658,0.46982556,-58.68235836
3.01,301,-0.009000000000000001,-1.08,-0.09300000000000001,14.438541599999999,-68.35388940000001,-9.3392154,72.63388566,0.37815228,-59.3584488
3.02,302,-0.087,-1.129,-0.253,14.7823164,-58.5563076,-13.9228794,72.78858432000001,0.35523396,-59.95432512
3.03,303,-0.157,-1.129,-0.39399999999999996,20.454600600000006,-45.9512316,-18.6784308,73.00057878,0.41252976,-60.44706899999999
3.04,304,-0.22,-1.092,-0.455,31.111619399999995,-40.4508348,-21.2567418,73.31570568,0.5156622000000001,-60.88824666000001
3.05,305,-0.201,-1.0090000000000001,-0.462,41.19568020000001,-41.539455,-20.454600600000006,73.72823544,0.59587632,-61.34088348
3.06,306,-0.107,-0.956,-0.446,43.65939960000001,-43.544808,-16.673077799999998,74.17514268,0.65317212,-61.79924988000001
3.07,307,-0.027000000000000003,-0.971,-0.4920000000000001,38.61736920000001,-40.8519054,-14.32395,74.56475412,0.69900876,-62.22323879999999
3.08,308,0.025,-0.972,-0.523,36.7266078,-37.7006364,-14.8396122,74.93717682,0.75630456,-62.6243094
3.09,309,0.012,-0.995,-0.505,36.1536498,-33.6899304,-17.761698000000006,75.30386994,0.8537074199999999,-62.99100252
3.0999999999999996,310,-0.03,-0.981,-0.55,28.6479,-28.81978740000001,-22.0015872,75.57316019999998,1.0026765,-63.317588580000006
3.11,311,-0.063,-0.945,-0.607,21.142150199999996,-23.663165399999997,-23.777757,75.78515466,1.18029348,-63.60406758000001
3.1199999999999997,312,-0.092,-0.9259999999999999,-0.65,18.5638392,-21.485925,-21.5432208,75.96850122000002,1.3464512999999998,-63.86189868
3.13,313,-0.091,-0.8959999999999999,-0.604,17.5325148,-19.136797199999997,-17.6471064,76.14611819999998,1.4782316400000002,-64.0853523
3.1399999999999997,314,-0.08,-0.897,-0.5529999999999999,16.1001198,-14.381245800000002,-14.896907999999998,76.30654644,1.59282324,-64.2572397
3.15,315,-0.11,-0.953,-0.561,12.834259199999998,-9.2819196,-13.464512999999998,76.39249013999998,1.6844965200000002,-64.38329046
3.1599999999999997,316,-0.155,-1.023,-0.544,9.224623800000002,-4.4690724,-10.886202,76.48416342,1.78189938,-64.45204542
3.17,317,-0.18,-1.12,-0.516,7.9641161999999985,1.7761698000000001,-6.875496000000001,76.56437754,1.85638392,-64.44631584
3.1799999999999997,318,-0.191,-1.205,-0.511,7.2765666,9.5111028,-0.9167328000000001,76.63886208,1.88503182,-64.36037214000001
3.19,319,-0.184,-1.236,-0.509,6.990087599999999,18.449247600000003,4.6409598,76.71334662,1.87930224,-64.16556641999999
3.1999999999999997,320,-0.165,-1.2209999999999999,-0.526,6.5317212,25.382039399999996,9.3392154,76.77637200000002,1.82773602,-63.90200574000001
3.21,321,-0.145,-1.215,-0.528,6.130650599999999,31.856464799999998,12.7196676,76.84512696,1.77044022,-63.56396052
3.2199999999999998,322,-0.127,-1.207,-0.512,4.9274388,36.03905820000001,16.673077799999998,76.90242276000002,1.6787669399999998,-63.17434908
3.23,323,-0.073,-1.182,-0.49,5.72958,37.24227,19.9962342,76.96544814,1.55844576,-62.7675489
3.2399999999999998,324,-0.008,-1.151,-0.469,6.0160589999999985,36.03905820000001,22.4026578,77.0342031,1.41520626,-62.37220788
3.25,325,0.047,-1.1159999999999999,-0.431,6.3598338,32.4294228,24.1788276,77.0914989,1.24904844,-61.99978518
3.26,326,0.11,-1.083,-0.389,6.417129599999999,27.100913399999996,25.4393352,77.16025386,1.05424272,-61.68465828
3.27,327,0.147,-1.06,-0.34299999999999997,5.958763200000001,20.6837838,26.356068,77.22327924,0.83651868,-61.42109760000001
3.28,328,0.139,-1.02,-0.332,4.6409598,15.068795399999999,26.5852512,77.27484546000002,0.61306506,-61.22056230000001
3.29,329,0.077,-0.9740000000000001,-0.301,4.1252976000000015,10.3705398,25.84040580000001,77.31495251999998,0.37815228,-61.06013406
3.3,330,-0.004,-0.943,-0.3,2.5210152000000003,7.5057497999999985,24.2934192,77.3206821,0.15469866,-60.9340833
3.31,331,-0.069,-0.924,-0.28300000000000003,1.5469866,7.734933000000002,21.886995600000002,77.33787084,-0.04010706,-60.81376212
3.32,332,-0.10800000000000001,-0.91,-0.263,0.8594370000000001,10.084060800000001,19.595163600000006,77.34360042,-0.21199446,-60.6762522
3.33,333,-0.12300000000000001,-0.8909999999999999,-0.23399999999999999,-0.2291832000000001,12.834259199999998,18.506543399999998,77.33787084,-0.36669312,-60.51009438
3.34,334,-0.128,-0.8759999999999999,-0.217,-1.145916,15.6990492,19.2513888,77.32641168,-0.52139178,-60.31528866
3.3499999999999996,335,-0.121,-0.873,-0.218,-2.0626488000000003,18.449247600000003,20.6837838,77.2920342,-0.70473834,-60.09183504
3.36,336,-0.10099999999999999,-0.86,-0.19899999999999998,-1.0886202,19.9389384,22.1734746,77.27484546000002,-0.8823553199999999,-59.85119268
3.3699999999999997,337,-0.07200000000000001,-0.8640000000000001,-0.174,-0.286479,21.2567418,23.319390600000002,77.26338630000002,-1.06570188,-59.59336158
3.38,338,-0.044000000000000004,-0.857,-0.174,-0.40107059999999994,22.2307704,23.9496444,77.25192713999998,-1.25477802,-59.3298009
3.3899999999999997,339,-0.025,-0.8420000000000001,-0.174,-0.7448454000000001,23.0329116,23.491278,77.23473840000003,-1.43812458,-59.05478106
3.4,340,-0.027000000000000003,-0.828,-0.174,0.5156622000000001,22.6891368,22.4026578,77.23473840000003,-1.6157415599999996,-58.78549080000001
3.4099999999999997,341,-0.035,-0.83,-0.14300000000000002,1.432395,21.657812399999997,20.3973048,77.23473840000003,-1.77044022,-58.52765970000001
3.42,342,-0.073,-0.851,-0.149,-0.1718874,20.454600600000006,16.615782,77.22327924,-1.8907614,-58.29274692
3.4299999999999997,343,-0.095,-0.8740000000000001,-0.161,-0.9740286,19.767051000000002,12.605075999999999,77.20609049999999,-1.9767051,-58.07502287999999
3.44,344,-0.107,-0.895,-0.147,-0.2291832000000001,19.0222056,9.0527364,77.19463134,-2.02827132,-57.86875799999999
3.4499999999999997,345,-0.115,-0.915,-0.127,0.2291832000000001,17.761698000000006,6.589017,77.20036092000002,-2.07983754,-57.68541144
3.46,346,-0.11599999999999999,-0.934,-0.12300000000000001,0.8594370000000001,16.042824000000003,5.042030400000002,77.20609049999999,-2.09702628,-57.51925361999999
3.4699999999999998,347,-0.11900000000000001,-0.9520000000000001,-0.126,1.2032118,13.750992000000002,4.2398892,77.20609049999999,-2.10848544,-57.37601412
3.48,348,-0.10800000000000001,-0.9670000000000001,-0.11900000000000001,1.6042823999999998,12.2040054,3.7242269999999995,77.21754966,-2.12567418,-57.24996336
3.4899999999999998,349,-0.098,-0.98,-0.106,1.7188740000000002,11.688343199999998,3.2085647999999996,77.22900881999998,-2.13140376,-57.12964218
3.5,350,-0.09699999999999999,-0.9790000000000001,-0.10400000000000001,1.6615782,11.802934800000001,2.1772404,77.28057504,-2.15432208,-57.00932099999999
3.51,351,-0.11,-0.991,-0.09300000000000001,1.5469866,11.917526400000002,0.9167328000000001,77.28630462,-2.14286292,-56.8947294
3.52,352,-0.12300000000000001,-0.991,-0.083,0.5156622000000001,12.6623718,-0.1718874,77.28630462,-2.11421502,-56.76867864
3.53,353,-0.126,-0.9940000000000001,-0.083,0.40107059999999994,13.980175199999998,-1.5469866,77.28630462,-2.07410796,-56.6368983
3.54,354,-0.131,-0.99,-0.07400000000000001,1.0313244000000001,15.297978599999999,-2.9220858,77.28630462,-2.01681216,-56.49365879999999
3.55,355,-0.132,-0.987,-0.061,1.0886202,16.7303736,-4.297185,77.33214126,-1.96524594,-56.34468972
3.56,356,-0.132,-0.982,-0.061,1.145916,18.7357266,-5.72958,77.33214126,-1.87357266,-56.1785319
3.57,357,-0.122,-0.975,-0.045,1.8907614,20.9702628,-6.875496000000001,77.34360042,-1.77044022,-55.98945576
3.58,358,-0.115,-0.973,-0.027000000000000003,3.7815228,22.4599536,-6.875496000000001,77.37224832,-1.6615782,-55.78319088000001
3.59,359,-0.11699999999999999,-0.975,-0.008,4.7555514,23.14750320000001,-6.0733548,77.41235538,-1.5527161800000002,-55.57119642
3.5999999999999996,360,-0.11599999999999999,-0.976,0.004,5.5576926,23.4339822,-5.042030400000002,77.49829908000002,-1.4782316400000002,-55.35347237999999
3.61,361,-0.11199999999999999,-0.978,0.025,6.7609043999999985,23.4339822,-4.1825934,77.56132446000002,-1.39228794,-55.13574834
3.6199999999999997,362,-0.113,-0.985,0.040999999999999995,7.2765666,24.4653066,-4.0680017999999984,77.62434984000002,-1.30634424,-54.90656514
3.63,363,-0.11699999999999999,-0.988,0.054000000000000006,8.193299399999999,26.069589,-4.1825934,77.69883438,-1.21467096,-54.6601932
3.6399999999999997,364,-0.124,-0.997,0.07,9.167328,27.6165756,-4.4690724,77.78477808,-1.12299768,-54.40236209999999
3.65,365,-0.142,-1.023,0.068,8.651665800000002,30.4813656,-4.8128472,77.89936967999998,-1.03705398,-54.1158831
3.6599999999999997,366,-0.157,-1.057,0.046,7.9641161999999985,34.4920716,-4.9847346,77.96812464000001,-0.92246238,-53.78929704
3.67,367,-0.155,-1.124,-0.027000000000000003,5.1566220000000005,39.9351726,-4.4117766,78.00823170000002,-0.8078707799999998,-53.41114475999999
3.6799999999999997,368,-0.10800000000000001,-1.2009999999999998,-0.16899999999999998,1.432395,42.8572584,-2.2345362,78.01396128,-0.7104679199999999,-52.998615
3.69,369,-0.011000000000000001,-1.2890000000000001,-0.342,-1.7761698000000001,42.5134836,2.4064236,77.98531338000002,-0.6589017,-52.58035566
3.6999999999999997,370,0.129,-1.344,-0.4970000000000001,-1.6615782,37.9298196,9.453807,77.9509359,-0.67609044,-52.19074422
3.71,371,0.273,-1.318,-0.542,3.6096353999999997,29.2781538,16.1001198,77.9795838,-0.7792228800000001,-51.86988774
3.7199999999999998,372,0.342,-1.207,-0.525,6.703608600000001,19.079501399999998,18.793022399999998,78.04260918,-0.92819196,-51.64643412
3.73,373,0.27,-1.083,-0.528,4.297185,10.3705398,17.8762896,78.08271624,-1.08289062,-51.5089242
3.7399999999999998,374,0.079,-1.051,-0.519,5.042030400000002,5.6722842,15.126091199999998,78.13428246,-1.22040054,-51.4229805
3.75,375,-0.111,-1.074,-0.461,10.3705398,5.7868758000000025,13.120738199999998,78.20876700000002,-1.35218088,-51.34276638
3.76,376,-0.245,-1.111,-0.3720000000000001,17.131444199999994,7.448453999999999,11.2872726,78.38065440000003,-1.44958374,-51.24536352
3.77,377,-0.327,-1.123,-0.309,20.7410796,10.886202,10.026765,78.58691927999998,-1.52406828,-51.11358317999999
3.78,378,-0.315,-1.105,-0.3,19.8816426,17.8189938,10.4851314,78.781725,-1.59855282,-50.91877746
3.79,379,-0.242,-1.05,-0.315,17.4179232,25.382039399999996,11.5164558,78.94788281999998,-1.6673077799999998,-50.6494872
3.8,380,-0.139,-0.9890000000000001,-0.35,13.2353298,33.116972399999995,11.917526400000002,79.04528567999998,-1.73606274,-50.29998282
3.81,381,-0.008,-0.92,-0.4,10.5424272,37.7006364,12.0894138,79.13695895999999,-1.7933585399999998,-49.91037138
3.82,382,0.1,-0.845,-0.409,8.7662574,37.41415739999999,13.120738199999998,79.20571392,-1.8621134999999998,-49.52075994000001
3.83,383,0.175,-0.8009999999999999,-0.40700000000000003,6.0160589999999985,33.1742682,13.9228794,79.25155056000001,-1.94232762,-49.17125556000001
3.84,384,0.215,-0.787,-0.41200000000000003,4.0680017999999984,25.496631,13.6936962,79.28019846,-2.0340009,-48.89623572000001
3.8499999999999996,385,0.23399999999999999,-0.8009999999999999,-0.42100000000000004,2.5783110000000002,17.303331600000003,12.1467096,79.22863224,-2.0626488000000003,-48.69570042
3.86,386,0.24,-0.84,-0.423,1.8334656000000005,9.0527364,9.5111028,79.24582097999998,-2.14286292,-48.59256798
3.8699999999999997,387,0.218,-0.892,-0.40399999999999997,1.6615782,1.4896908000000002,5.6722842,79.26300972,-2.19442914,-48.56392008
3.88,388,0.174,-0.9470000000000001,-0.384,1.7761698000000001,-4.4690724,1.0313244000000001,79.28019846,-2.21161788,-48.60402714000001
3.8899999999999997,389,0.131,-0.977,-0.371,3.2658606,-9.8548776,-3.0366774,79.32030552,-2.19442914,-48.70715958
3.9,390,0.08900000000000001,-0.9940000000000001,-0.355,5.1566220000000005,-14.610429000000002,-6.6463128000000005,79.34322384000002,-2.13140376,-48.86185824
3.9099999999999997,391,0.067,-0.9990000000000001,-0.325,7.161975,-19.767051000000002,-8.250595200000001,79.42916754,-2.07983754,-49.06812312
3.92,392,0.061,-1.014,-0.309,8.193299399999999,-23.204798999999998,-8.8235532,79.5265704,-2.02827132,-49.30876548
3.9299999999999997,393,0.057999999999999996,-1.028,-0.295,9.3392154,-25.4393352,-8.651665800000002,79.62970284,-1.9767051,-49.57232616
3.94,394,0.042,-1.033,-0.278,10.026765,-26.5279554,-7.7922288,79.74429444,-1.94232762,-49.847346
3.9499999999999997,395,0.019,-1.032,-0.258,11.0580894,-26.929026,-7.2192707999999985,79.85888604,-1.90222056,-50.11663626
3.96,396,0.013999999999999999,-1.028,-0.239,11.0580894,-26.5279554,-6.875496000000001,79.9849368,-1.87357266,-50.3916561
3.9699999999999998,397,0.001,-1.012,-0.228,10.4278356,-25.210151999999997,-6.990087599999999,80.10525798,-1.83919518,-50.6494872
3.98,398,-0.001,-0.997,-0.213,9.568398599999998,-23.4339822,-7.448453999999999,80.20839042,-1.79908812,-50.89012956
3.9899999999999998,399,0.016,-0.987,-0.19899999999999998,8.136003599999999,-21.142150199999996,-8.136003599999999,80.3000637,-1.7475218999999995,-51.10785360000001
4.0,400,0.037000000000000005,-0.97,-0.198,7.2765666,-18.449247600000003,-9.453807,80.37454824,-1.6615782,-51.30265932
4.01,401,0.045,-0.956,-0.201,6.6463128000000005,-15.126091199999998,-10.7143146,80.44903278000002,-1.5813640800000002,-51.46881714
4.02,402,0.044000000000000004,-0.9359999999999999,-0.18899999999999997,6.7609043999999985,-12.318597,-11.401864199999999,80.52351732,-1.48396122,-51.60632706
4.03,403,0.036000000000000004,-0.914,-0.174,6.875496000000001,-10.1413566,-11.2872726,80.59227228,-1.38655836,-51.72091866
4.04,404,0.027999999999999997,-0.8959999999999999,-0.16,6.7609043999999985,-8.078707799999998,-11.0007936,80.66675682,-1.2891555,-51.81832152000001
4.05,405,0.019,-0.8859999999999999,-0.142,6.130650599999999,-6.2452422,-10.657018800000001,80.7297822,-1.18029348,-51.89853564
4.06,406,0.021,-0.88,-0.126,4.5263682,-4.6982555999999995,-9.682990199999999,80.77561884,-1.0886202,-51.95583144
4.07,407,0.032,-0.87,-0.10800000000000001,3.1512689999999997,-3.8388186,-8.5370742,80.80999632,-1.01413566,-52.00739766
4.08,408,0.044000000000000004,-0.8690000000000001,-0.1,2.1199446,-3.0366774,-7.7922288,80.83291464,-0.93965112,-52.04750471999999
4.09,409,0.053,-0.867,-0.09300000000000001,1.0313244000000001,-2.4064236,-7.5057497999999985,80.8443738,-0.86516658,-52.08761178
4.1,410,0.06,-0.867,-0.087,0.11459160000000004,-2.1199446,-7.161975,80.86156254,-0.76776372,-52.11625968
4.109999999999999,411,0.062,-0.863,-0.086,-0.8021411999999999,-2.4637194,-6.6463128000000005,80.85010338000002,-0.70473834,-52.15063716
4.12,412,0.057999999999999996,-0.8590000000000001,-0.08,-1.7761698000000001,-2.7501984,-5.5576926,80.83291464,-0.65317212,-52.18501464000001
4.13,413,0.062,-0.857,-0.07,-2.86479,-2.5783110000000002,-4.297185,80.80426674,-0.61306506,-52.21939212000001
4.14,414,0.066,-0.855,-0.07200000000000001,-3.0939732,-3.0366774,-2.6929026,80.77561884,-0.59587632,-52.2537696
4.1499999999999995,415,0.07,-0.862,-0.08900000000000001,-3.7242269999999995,-2.9793816000000004,-1.3178034,80.74697094,-0.55003968,-52.2824175
4.16,416,0.071,-0.8640000000000001,-0.078,-3.380452200000001,-3.380452200000001,0.0,80.71259346,-0.55576926,-52.31679498
4.17,417,0.068,-0.8690000000000001,-0.052000000000000005,-2.0626488000000003,-5.3858052,1.0313244000000001,80.69540472,-0.5729580000000001,-52.3683612
4.18,418,0.071,-0.8690000000000001,-0.03,-1.6042823999999998,-8.021412000000002,1.5469866,80.67821597999998,-0.6016058999999999,-52.44284574000001
4.1899999999999995,419,0.086,-0.863,-0.028999999999999998,-1.3178034,-10.599723,1.7188740000000002,80.66675682,-0.6302538000000001,-52.54597818
4.2,420,0.10400000000000001,-0.858,-0.044000000000000004,-0.2291832000000001,-12.891555,1.7188740000000002,80.68967513999998,-0.62452422,-52.66629936
4.21,421,0.125,-0.8540000000000001,-0.049,1.9480572,-15.527161800000002,2.291832,80.71259346,-0.6703608600000001,-52.81526844
4.22,422,0.135,-0.8370000000000001,-0.040999999999999995,6.9327918,-19.365980399999998,4.297185,80.79280758000002,-0.7391158200000001,-52.998615
4.2299999999999995,423,0.133,-0.7979999999999999,-0.022000000000000002,14.896907999999998,-24.923673,6.589017,80.94750624,-0.8307891,-53.22779820000001
4.24,424,0.11900000000000001,-0.754,0.017,23.777757,-31.856464799999998,9.0527364,81.19960776,-0.95683986,-53.52573636000001
4.25,425,0.085,-0.725,0.095,32.257535399999995,-40.8519054,11.1153852,81.55484172,-1.10580894,-53.90961822000001
4.26,426,0.039,-0.736,0.177,38.731960799999996,-50.420303999999994,11.745639,81.96737148,-1.27769634,-54.37944378
4.27,427,0.006999999999999999,-0.792,0.22399999999999998,40.2216516,-56.8947294,10.4278356,82.39708998,-1.43812458,-54.92375388000001
4.28,428,-0.003,-0.863,0.20600000000000002,36.955791,-56.436363,8.3651868,82.79243100000002,-1.5756344999999998,-55.4623344
4.29,429,0.0,-0.935,0.17600000000000002,33.8618178,-52.82672760000001,6.589017,83.15912412,-1.6844965200000002,-55.97226702
4.3,430,0.006999999999999999,-1.012,0.14300000000000002,30.7678446,-46.466893799999994,4.9274388,83.5086285,-1.77044022,-56.42490384
4.31,431,-0.013999999999999999,-1.054,0.127,27.559279800000002,-39.47680620000001,3.380452200000001,83.80656666,-1.8334656000000005,-56.80878570000001
4.32,432,-0.048,-1.055,0.106,24.2934192,-34.7785506,1.9480572,84.07012734,-1.87357266,-57.14683092
4.33,433,-0.091,-1.053,0.036000000000000004,20.3973048,-29.2781538,0.3437748,84.29358096,-1.89649098,-57.43330992
4.34,434,-0.11800000000000001,-1.052,-0.038,16.7876694,-23.663165399999997,-0.9167328000000001,84.47119794,-1.90222056,-57.66249312
4.35,435,-0.098,-1.042,-0.11,16.615782,-18.7357266,-2.8074942000000003,84.63735576,-1.89649098,-57.85156926
4.36,436,-0.048,-1.0390000000000001,-0.19,20.9702628,-17.7044022,-6.130650599999999,84.86080938,-1.84492476,-58.02918624
4.37,437,0.017,-1.042,-0.237,26.5279554,-19.652459399999998,-10.5424272,85.13582922,-1.7475218999999995,-58.22972154
4.38,438,0.091,-1.043,-0.28800000000000003,32.4294228,-24.350715,-15.3552744,85.47960402,-1.6042824000000002,-58.47609348
4.39,439,0.142,-1.062,-0.324,33.5753388,-29.1062664,-19.5378678,85.82910840000002,-1.4209358399999998,-58.77403164
4.3999999999999995,440,0.14300000000000002,-1.069,-0.365,30.4240698,-30.252182399999995,-21.5432208,86.12704656,-1.20894138,-59.08342895999999
4.41,441,0.111,-1.052,-0.42,26.4706596,-33.231564,-20.340009,86.40779597999996,-1.01413566,-59.42147418
4.42,442,0.064,-1.03,-0.47100000000000003,22.7464326,-39.1330314,-17.475219,86.64843834,-0.8537074199999999,-59.81681519999999
4.43,443,0.026000000000000002,-1.01,-0.522,19.2513888,-45.263682,-16.2147114,86.85470322,-0.70473834,-60.26945202
4.4399999999999995,444,-0.008,-1.003,-0.569,17.4179232,-49.3316838,-17.5325148,87.04377936,-0.53858052,-60.76792548
4.45,445,-0.055,-0.997,-0.574,16.329303,-51.5089242,-20.3973048,87.18701886,-0.35523396,-61.28358768
4.46,446,-0.111,-0.98,-0.545,16.386598799999998,-52.0245864,-24.5798982,87.36463583999998,-0.11459160000000003,-61.80497946000001
4.47,447,-0.151,-0.96,-0.465,17.303331600000003,-52.712136,-28.5906042,87.54798240000002,0.15469866,-62.33783040000001
4.4799999999999995,448,-0.159,-0.992,-0.369,15.3552744,-50.8786704,-32.31483119999999,87.70268106,0.46982556,-62.853492599999996
4.49,449,-0.165,-1.069,-0.33299999999999996,9.453807,-43.315624799999995,-34.8358464,87.80008391999998,0.8136003599999999,-63.29467026
4.5,450,-0.184,-1.178,-0.318,4.4690724,-33.6326346,-35.0077338,87.82873182,1.1459160000000002,-63.63844506
4.51,451,-0.192,-1.314,-0.307,1.9480572,-23.9496444,-32.945085,87.84592056,1.47250206,-63.88481700000001
4.52,452,-0.191,-1.413,-0.29100000000000004,0.7448454000000001,-15.068795399999999,-29.220858000000003,87.85165014,1.75898106,-64.04524524000001
4.53,453,-0.153,-1.4509999999999998,-0.29100000000000004,-0.2291832000000001,-5.2712136,-24.1788276,87.84592056,1.99962342,-64.10827062
4.54,454,-0.09300000000000001,-1.425,-0.278,-0.9740286,4.1825934,-17.7044022,87.84019098,2.1772404,-64.06816356
4.55,455,-0.065,-1.376,-0.26,-0.8594370000000001,11.1153852,-12.605075999999999,87.81727266,2.29756158,-63.965031120000006
4.56,456,-0.054000000000000006,-1.3159999999999998,-0.24,-0.40107059999999994,13.0634424,-7.8495246,87.81727266,2.37204612,-63.83898036
4.57,457,-0.028999999999999998,-1.266,-0.214,0.0,14.32395,-5.2139178,87.82300224,2.42934192,-63.70147044
4.58,458,0.009000000000000001,-1.217,-0.18100000000000002,0.4583664000000001,14.381245800000002,-3.7815228,87.82873182,2.46944898,-63.55823094
4.59,459,0.042,-1.181,-0.17,0.6302538000000001,13.0061466,-2.6356068,87.84019098,2.4923672999999997,-63.43218018
4.6,460,0.08199999999999999,-1.147,-0.157,0.286479,11.917526400000002,-2.0053530000000004,87.81154308,2.53247436,-63.31185900000001
4.61,461,0.10099999999999999,-1.109,-0.153,0.0,10.313244000000001,-0.8021411999999999,87.81154308,2.53820394,-63.20872656
4.62,462,0.091,-1.054,-0.139,0.8594370000000001,8.307891,1.7761698000000001,87.82873182,2.5210152000000003,-63.12851244000001
4.63,463,0.05,-1.002,-0.113,1.8907614,7.2192707999999985,4.583664,87.84592056,2.47517856,-63.05402790000001
4.64,464,-0.006,-0.955,-0.098,3.2085647999999996,7.906820400000001,6.6463128000000005,87.88029803999999,2.41215318,-62.97381378
4.6499999999999995,465,-0.06,-0.9079999999999999,-0.075,5.0993262,9.453807,8.021412000000002,87.92040510000002,2.30329116,-62.88214050000001
4.66,466,-0.096,-0.8640000000000001,-0.063,6.703608600000001,11.917526400000002,8.59437,87.99488964000004,2.21734746,-62.75608973999999
4.67,467,-0.109,-0.835,-0.052000000000000005,7.6203414,14.0947668,8.4224826,88.07510376,2.13713334,-62.61285024
4.68,468,-0.11199999999999999,-0.8240000000000001,-0.043,8.250595200000001,16.1001198,7.6776372,88.16677704,2.0626488000000003,-62.452422
4.6899999999999995,469,-0.099,-0.809,-0.033,9.8548776,17.9335854,6.2452422,88.26990948,1.99962342,-62.26907544000001
4.7,470,-0.08199999999999999,-0.799,-0.032,12.5477802,18.621135,4.583664,88.39596024,1.94232762,-62.08572888
4.71,471,-0.068,-0.784,-0.042,14.9542038,19.767051000000002,2.8074942000000003,88.5506589,1.91367972,-61.88519358
4.72,472,-0.062,-0.768,-0.02,18.277360199999997,21.772404,0.6875496,88.73973504,1.90795014,-61.66746954
4.7299999999999995,473,-0.057,-0.7559999999999999,-0.019,20.2827132,25.0955604,-1.3750992,88.9517295,1.9194093000000003,-61.42109760000001
4.74,474,-0.046,-0.746,-0.032,23.0329116,28.361421000000004,-2.9220858,89.19237186000002,1.9480572000000005,-61.1346186
4.75,475,-0.045,-0.747,-0.021,26.7571386,30.997027799999998,-3.9534102,89.46739170000002,1.9767051,-60.82522128
4.76,476,-0.043,-0.754,-0.008,30.7105488,32.4867186,-4.4690724,89.78824818,2.01681216,-60.50436480000001
4.77,477,-0.044000000000000004,-0.762,0.02,34.262888399999994,32.257535399999995,-4.583664,90.13775256,2.05691922,-60.17777874
4.78,478,-0.053,-0.7829999999999999,0.023,35.3515086,31.2835068,-5.1566220000000005,90.50444568,2.10275586,-59.86838142000001
4.79,479,-0.055999999999999994,-0.813,-0.022000000000000002,33.8618178,29.736520199999998,-5.958763200000001,90.85967964,2.15432208,-59.56471368
4.8,480,-0.039,-0.841,-0.059000000000000004,32.4294228,27.501984000000004,-6.130650599999999,91.18053612,2.20015872,-59.28969384000001
4.81,481,-0.001,-0.861,-0.086,30.997027799999998,25.3247436,-5.5576926,91.5013926,2.24026578,-59.03759232
4.82,482,0.054000000000000006,-0.883,-0.146,26.69984280000001,23.5485738,-4.5263682,91.77641244,2.2746432600000004,-58.796949960000006
4.83,483,0.11699999999999999,-0.889,-0.22399999999999998,22.5745452,20.626488000000002,-2.7501984,92.01132522,2.2918320000000003,-58.59068508
4.84,484,0.152,-0.85,-0.231,24.4653066,15.813640800000002,-0.572958,92.26915632,2.2918320000000003,-58.43025684000001
4.85,485,0.141,-0.7879999999999999,-0.187,26.814434400000003,12.9488508,1.7761698000000001,92.50979868,2.28037284,-58.29847650000001
4.86,486,0.131,-0.743,-0.168,26.2987722,10.599723,5.042030400000002,92.77908894,2.22307704,-58.19534406
4.87,487,0.154,-0.7340000000000001,-0.149,26.5279554,2.4064236,8.078707799999998,93.0483792,2.14286292,-58.17242574000001
4.88,488,0.165,-0.7929999999999999,-0.057,28.934378999999996,-9.682990199999999,10.084060800000001,93.34058778,2.05691922,-58.2698286
4.89,489,0.149,-0.903,0.012,29.9084076,-18.506543399999998,8.8235532,93.64425552,1.98816426,-58.45317516
4.8999999999999995,490,0.098,-0.993,0.049,31.054323600000004,-26.7571386,4.9847346,93.94792326,1.97097552,-58.71673584
4.91,491,0.047,-1.044,0.066,33.74722620000001,-33.3461556,-0.1718874,94.28596848,2.005353,-59.0433219
4.92,492,0.004,-1.055,0.048,33.74722620000001,-33.9764094,-5.2712136,94.61828412,2.09702628,-59.36990796
4.93,493,-0.026000000000000002,-1.054,-0.011000000000000001,30.4240698,-29.5646328,-8.651665800000002,94.92195186,2.21734746,-59.65065738
4.9399999999999995,494,-0.038,-1.06,-0.125,25.0955604,-24.2361234,-11.0580894,95.1683238,2.35485738,-59.87411099999999
4.95,495,-0.023,-1.026,-0.204,24.2934192,-21.314037600000002,-9.9694692,95.3688591,2.47517856,-60.0746463
4.96,496,0.023,-0.9940000000000001,-0.151,29.9657034,-23.835052800000003,-6.4744254,95.66679726,2.57258142,-60.29809991999999
4.97,497,0.067,-1.0170000000000001,-0.132,33.3461556,-26.929026,-3.8961144,95.9991129,2.64706596,-60.55593102
4.9799999999999995,498,0.07,-1.011,-0.127,35.0650296,-30.595957199999997,-3.9534102,96.34288769999999,2.72728008,-60.84241002
4.99,499,0.019,-1.002,-0.048,38.445481799999996,-31.741873200000004,-6.0733548,96.72676956,2.8361421,-61.14607776
5.0,500,-0.026000000000000002,-1.058,0.016,40.393539000000004,-27.3300966,-8.7089616,97.11065142,2.9564632800000004,-61.39817928
5.01,501,-0.076,-1.136,0.037000000000000005,39.8778768,-20.5118964,-10.084060800000001,97.51172202,3.08824362,-61.58152584
5.02,502,-0.16899999999999998,-1.1540000000000001,0.08800000000000001,43.3729206,-11.745639,-9.167328,97.9471701,3.20283522,-61.67892870000001
5.03,503,-0.264,-1.151,0.065,46.123119,4.010706000000001,-5.958763200000001,98.41699566,3.26013102,-61.62163290000001
5.04,504,-0.33299999999999996,-1.085,-0.02,46.8106686,19.9962342,-0.8021411999999999,98.90400996,3.2314831199999987,-61.42109760000001
5.05,505,-0.358,-0.945,-0.039,48.529542600000006,35.0650296,6.5317212,99.39102426,3.07105488,-61.08878196000001
5.06,506,-0.31,-0.8,-0.048,44.9199072,50.6494872,14.8396122,99.8665794,2.8361421,-60.61322682
5.07,507,-0.18,-0.6970000000000001,-0.12,38.0444112,61.4210976,21.2567418,100.27337958,2.50382646,-60.05172798
5.08,508,-0.033,-0.642,-0.18100000000000002,32.830493399999995,65.2599162,25.496631,100.62288396,2.12567418,-59.46158124
5.09,509,0.174,-0.58,-0.22399999999999998,29.621928600000004,62.5097178,28.877083199999998,100.93228128,1.71314442,-58.91154156
5.1,510,0.325,-0.526,-0.23199999999999998,29.9657034,47.0398518,31.741873200000004,101.21876028,1.32926256,-58.51047096
5.11,511,0.361,-0.496,-0.184,26.69984280000001,22.4599536,30.8251404,101.48805054,0.97975818,-58.3557723
5.12,512,0.32899999999999996,-0.474,-0.147,20.2827132,6.130650599999999,25.0382646,101.69431542,0.72192708,-58.34431314
5.13,513,0.281,-0.52,-0.114,15.928232399999999,-3.8388186,15.4125702,101.85474366,0.5844171599999999,-58.40733852000001
5.14,514,0.19699999999999998,-0.608,-0.145,11.917526400000002,-9.0527364,5.042030400000002,101.97506484,0.55576926,-58.50474138000001
5.1499999999999995,515,0.11699999999999999,-0.631,-0.191,9.568398599999998,-9.2819196,-1.7761698000000001,102.03236064,0.6073354799999999,-58.59068508
5.16,516,0.109,-0.5529999999999999,-0.175,14.209358400000001,-10.5424272,-3.0939732,102.17560014,0.66463128,-58.68235836
5.17,517,0.125,-0.426,-0.081,19.365980399999998,-15.928232399999999,-3.3231564,102.37040586,0.73338624,-58.82559786
5.18,518,0.134,-0.29600000000000004,-0.055,15.756345,-21.4286292,-5.844171599999999,102.5308341,0.8422482600000001,-59.014674
5.1899999999999995,519,0.11800000000000001,-0.185,-0.027999999999999997,15.183387000000002,-25.78311,-10.2559482,102.68553276,1.00840608,-59.23812762
5.2,520,0.057,-0.159,0.055999999999999994,19.8816426,-26.1841806,-12.032118,102.89179763999998,1.19175264,-59.46158124
5.21,521,0.027000000000000003,-0.152,0.064,23.5485738,-24.923673,-11.1153852,103.12671042,1.36364004,-59.6735757
5.22,522,0.019,-0.083,0.162,32.372127,-25.0955604,-8.078707799999998,103.45329648,1.50687954,-59.89129974
5.2299999999999995,523,0.054000000000000006,-0.002,0.21100000000000002,45.0917946,-24.8663772,-6.990087599999999,103.91166288,1.64438946,-60.10329420000001
5.24,524,0.087,0.048,0.203,53.34238979999999,-27.788463,-8.3651868,104.44451382,1.79908812,-60.33820698000001
5.25,525,0.094,0.040999999999999995,0.22,55.80610920000001,-29.9657034,-9.9121734,105.0232014,1.98816426,-60.59030849999999
5.26,526,0.045,-0.002,0.214,57.35309579999999,-29.621928600000004,-7.6776372,105.60188898,2.1485925000000003,-60.84241002
5.27,527,-0.003,-0.038,0.174,57.754166399999995,-27.8457588,-1.2605076000000002,106.18630614,2.24599536,-61.09451154
5.28,528,-0.008,-0.021,0.121,56.8947294,-27.3873924,3.5523396000000003,106.75353456,2.29756158,-61.35807222
5.29,529,0.023,0.009000000000000001,0.10400000000000001,58.15523699999999,-27.272800800000002,5.3858052,107.33795172,2.3376686399999995,-61.62163290000001
5.3,530,0.062,0.022000000000000002,0.087,60.8481396,-25.496631,4.9847346,107.96247594,2.38350528,-61.86227526
5.31,531,0.067,-0.021,0.084,63.9421128,-21.4286292,3.9534102,108.60418889999998,2.42361234,-62.06854014
5.32,532,0.021,-0.096,0.086,65.4890994,-17.246035799999998,3.7815228,109.2630906,2.45226024,-62.23469796000001
5.33,533,-0.09300000000000001,-0.24,0.039,66.463128,-13.6936962,5.5576926,109.93345146,2.44653066,-62.3664783
5.34,534,-0.19399999999999998,-0.401,0.022000000000000002,67.43715660000001,-6.990087599999999,6.6463128000000005,110.61527148,2.41788276,-62.44669242
5.35,535,-0.24600000000000002,-0.527,0.017,65.54639519999999,2.5210152000000003,6.3025379999999975,111.2684436,2.32620948,-62.44096284
5.36,536,-0.264,-0.509,0.062,71.8489332,3.6096353999999997,7.5630456000000015,111.99610026,2.24599536,-62.4237741
5.37,537,-0.22399999999999998,-0.413,0.08800000000000001,81.53192340000003,-0.7448454000000001,10.313244000000001,112.82115978,2.15432208,-62.458151580000006
5.38,538,-0.11,-0.342,0.122,96.6007188,-8.4224826,14.037471,113.80091796,2.0626488000000003,-62.57847276
5.39,539,0.032,-0.319,0.19,113.159205,-16.2147114,16.501190400000002,114.94683396,1.98816426,-62.77327848
5.3999999999999995,540,0.136,-0.282,0.25,124.8475482,-20.5118964,13.8655836,116.21307114,1.97097552,-62.9967321
5.41,541,0.154,-0.258,0.327,139.17149819999997,-21.0848544,7.0473834,117.62254782,2.005353,-63.19153781999999
5.42,542,0.09,-0.301,0.401,155.0997306,-17.303331600000003,-0.11459160000000004,119.19245274,2.09702628,-63.317588580000006
5.43,543,-0.027999999999999997,-0.41700000000000004,0.466,168.9653142,-12.3758928,-5.042030400000002,120.91132674,2.2058883,-63.37488438000001
5.4399999999999995,544,-0.14,-0.47200000000000003,0.505,173.7208656,-10.084060800000001,-5.3858052,122.6703078,2.30902074,-63.40353228
5.45,545,-0.184,-0.457,0.52,180.48177,-9.3392154,-2.4637194,124.50950298,2.37204612,-63.44363934
5.46,546,-0.17600000000000002,-0.42100000000000004,0.489,189.8782812,-9.6256944,1.8907614,126.43464186,2.41215318,-63.50666471999999
5.47,547,-0.17300000000000001,-0.391,0.531,197.956989,-9.8548776,7.333862400000001,128.44572444,2.41788276,-63.598338
5.4799999999999995,548,-0.14800000000000002,-0.42,0.551,209.0150784,-6.990087599999999,11.0580894,130.55993945999998,2.3777757,-63.69001128
5.49,549,-0.10300000000000001,-0.605,0.5870000000000001,218.5261812,-2.4064236,12.605075999999999,132.77728692,2.29756158,-63.76449582
5.5,550,0.01,-0.894,0.594,217.2656736,2.6929026,8.9381448,134.97171606,2.21161788,-63.77595498000001
5.51,551,0.28800000000000003,-1.464,0.6920000000000001,216.2343492,1.2032118,9.3392154,137.16614520000002,2.13140376,-63.80460287999999
5.52,552,0.507,-1.933,0.8370000000000001,208.9004868,-13.9228794,18.6784308,139.28036022,2.10848544,-64.00513817999999
5.53,553,0.44299999999999995,-2.517,1.012,210.848544,-34.5493674,35.5806918,141.4060344,2.14286292,-64.457775
5.54,554,0.308,-3.4010000000000002,1.07,194.5765368,-47.8992888,48.9306132,143.36555076,2.22307704,-65.09948796
5.55,555,1.091,-1.082,2.181,819.7883063999999,-67.43715660000001,5.2139178,151.68490092,2.7215505,-65.3745078
5.56,556,-0.27,-0.401,2.481,338.3889948000001,-20.7983754,2.0053530000000004,155.11691934,2.87624916,-65.43753317999999
5.57,557,0.209,-1.5430000000000001,3.035,-11.401864199999999,1.8907614,-3.4377480000000005,155.00232774,2.87051958,-65.40315569999999
5.58,558,0.019,-1.341,3.975,102.55948199999999,15.469866,-12.834259199999998,156.05084088,2.7788463,-65.21407955999999
5.59,559,0.201,-1.256,3.9530000000000003,199.102905,-0.3437748,-17.589810600000003,158.0791122,2.8361421,-65.030733
5.6,560,0.322,-1.767,3.992,213.426855,-18.621135,-14.7823164,160.2563526,3.04240698,-64.92760056
5.61,561,0.165,-1.56,3.68,199.389384,-6.3025379999999975,-12.5477802,162.28462392,3.12835068,-64.80727938
5.62,562,0.226,-1.382,3.42,196.238115,-15.6990492,-11.401864199999999,164.28424733999995,3.28877892,-64.7156061
5.63,563,0.204,-0.804,2.8960000000000004,190.79501399999998,-27.6165756,-5.5003968,166.22657496,3.5523396000000003,-64.70414694
5.64,564,0.139,-0.29600000000000004,2.358,169.82475119999995,-44.6334282,3.5523396000000003,167.94544896,3.9648693599999993,-64.80727938
5.6499999999999995,565,0.0,-0.175,1.768,149.9431086,-49.7327544,3.9534102,169.46951724000004,4.42896534,-64.91041182000001
5.66,566,0.20800000000000002,-0.013999999999999999,1.464,136.364004,-41.0810886,4.4690724,170.85034602,4.80711762,-65.0020851
5.67,567,0.237,-0.002,1.3330000000000002,142.5519504,-29.736520199999998,6.703608600000001,172.29420018000005,5.07640788,-65.08802879999999
5.68,568,0.08800000000000001,0.028999999999999998,1.196,142.49465460000005,-21.0848544,7.6203414,173.73805434000005,5.25975444,-65.17397249999999
5.6899999999999995,569,0.138,0.07400000000000001,1.13,117.8001648,-16.8449652,10.026765,174.92407740000004,5.40299394,-65.27137536000001
5.7,570,-0.003,0.062,1.058,102.1011156,-9.2819196,3.2085647999999996,175.96686096000005,5.46028974,-65.30002326
5.71,571,0.132,0.075,1.0659999999999998,90.1835892,-3.7815228,-1.3750992,176.88359376,5.48893764,-65.28283452000001
5.72,572,0.10099999999999999,0.23399999999999999,1.04,88.4074194,-0.6875496,0.6875496,177.78313782,5.48320806,-65.28283452000001
5.7299999999999995,573,0.121,0.124,1.109,81.360036,-5.958763200000001,-3.7815228,178.61392691999995,5.53477428,-65.23699787999999
5.74,574,0.10400000000000001,0.371,0.907,80.04223259999998,-11.917526400000002,-1.7761698000000001,179.43325686,5.6436363,-65.20834998000001
5.75,575,0.094,0.42100000000000004,0.907,51.2224452,-11.5737516,-0.9740286,179.98329654,5.7582279000000005,-65.19116124
5.76,576,-0.023,-0.39,1.165,64.8015498,-15.928232399999999,-2.8074942000000003,-179.34731316,5.90719698,-65.15105418
5.77,577,0.138,0.381,0.6779999999999999,56.2071798,-8.9954406,-3.0366774,-178.76862558,5.9874111,-65.11094712
5.78,578,0.099,-0.068,0.7879999999999999,47.67010560000001,-10.026765,-5.0993262,-178.2758817,6.0790843799999985,-65.05365132
5.79,579,0.0,-0.34,0.828,41.4248634,-10.084060800000001,-7.5630456000000015,-177.8461632,6.17648724,-64.96770762
5.8,580,0.095,0.16399999999999998,0.5670000000000001,44.51883660000001,-7.5057497999999985,-8.479778399999999,-177.37633764,6.23951262,-64.87603434
5.81,581,0.032,-0.177,0.66,34.8358464,-3.2085647999999996,-4.9274388,-177.0153741,6.26816052,-64.81873854
5.82,582,0.10099999999999999,0.115,0.5589999999999999,30.022999199999997,0.3437748,-2.2345362,-176.71170636,6.25670136,-64.79582022
5.83,583,0.115,0.018000000000000002,0.614,19.8243468,0.057295800000000015,-3.7242269999999995,-176.50544148,6.25097178,-64.75571316
5.84,584,0.127,0.18899999999999997,0.575,14.8396122,-0.11459160000000004,0.2291832000000001,-176.35074282,6.25097178,-64.75571316
5.85,585,0.062,-0.002,0.679,4.583664,-0.1718874,0.6875496,-176.31636534,6.25670136,-64.76717232
5.86,586,0.071,-0.013999999999999999,0.672,-7.2192707999999985,2.8074942000000003,1.432395,-176.39657946,6.22805346,-64.78436106000001
5.87,587,0.07,-0.003,0.6779999999999999,-15.4125702,4.9274388,2.0053530000000004,-176.55700769999999,6.18221682,-64.80727938
5.88,588,0.067,0.024,0.703,-23.0902074,6.4744254,1.9480572,-176.79192048,6.12492102,-64.83592727999999
5.89,589,0.059000000000000004,0.066,0.718,-31.6845774,7.0473834,2.1199446,-177.11850654,6.05616606,-64.86457518
5.8999999999999995,590,0.067,0.059000000000000004,0.7390000000000001,-39.820581,7.0473834,2.6356068,-177.52530672,5.9931406800000016,-64.89895265999999
5.91,591,0.081,0.032,0.782,-48.7587258,6.990087599999999,2.9220858,-178.02378018000005,5.930115299999999,-64.93905972
5.92,592,0.08800000000000001,-0.001,0.8240000000000001,-55.5196302,7.0473834,2.9220858,-178.59100859999995,5.8728194999999985,-64.97343719999999
5.93,593,0.071,-0.023,0.8490000000000001,-60.8481396,6.990087599999999,2.9793816000000004,-179.21553282,5.80979412,-65.01354425999999
5.9399999999999995,594,0.075,-0.023,0.877,-63.9421128,6.8182002000000015,3.0939732,-179.86870494,5.7467687399999985,-65.05365132
5.95,595,0.086,-0.034,0.948,-64.744254,6.4744254,2.9793816000000004,179.45617518,5.68947294,-65.08802879999999
5.96,596,0.095,-0.055999999999999994,1.023,-65.603691,5.2139178,3.0366774,178.78581432,5.64936588,-65.12813586000001
5.97,597,0.084,-0.07,1.093,-66.5777196,4.010706000000001,2.9793816000000004,178.10972388,5.6149884000000005,-65.16251334
5.9799999999999995,598,0.10400000000000001,-0.085,1.129,-66.5204238,3.3231564,2.7501984,177.42790386,5.5863404999999995,-65.19689082
5.99,599,0.094,-0.10300000000000001,1.175,-64.744254,1.8334656000000005,2.9220858,176.76900216,5.574881339999999,-65.2312683
6.0,600,0.09300000000000001,-0.129,1.19,-63.311859,-0.572958,3.1512689999999997,176.11583004,5.5863404999999995,-65.26564578
6.01,601,0.10800000000000001,-0.14800000000000002,1.214,-60.733548000000006,-4.4690724,3.380452200000001,175.49703540000004,5.63217714,-65.30575284
6.02,602,0.106,-0.06,1.251,-57.52498320000001,-7.9641161999999985,2.1772404,174.90688866,5.71812084,-65.34013032
6.03,603,0.14300000000000002,0.012,1.2209999999999999,-54.3164184,-10.1986524,0.572958,174.35684898,5.82125328,-65.35731906
6.04,604,0.185,0.066,1.17,-49.04520479999999,-11.0580894,-1.432395,173.85837552,5.93584488,-65.35731906
6.05,605,0.092,-0.226,1.203,-42.97185,-12.7196676,-2.4064236,173.41719786,6.067625219999999,-65.3458599
6.06,606,0.06,-0.321,1.275,-28.9916748,-8.9381448,-2.3491277999999998,173.12498928,6.1592985,-65.33440074
6.07,607,0.027999999999999997,-0.281,1.225,-12.032118,-2.86479,-2.86479,173.00466809999998,6.19367598,-65.31148241999999
6.08,608,0.09,-0.282,1.083,-1.9480572,-1.7761698000000001,-1.145916,172.98174978,6.210864720000001,-65.30002326
6.09,609,0.223,-0.27699999999999997,1.085,6.875496000000001,-2.86479,0.057295800000000015,173.05623432,6.23951262,-65.30575284
6.1,610,0.19899999999999998,-0.261,1.122,14.7250206,-8.193299399999999,0.7448454000000001,173.18228508,6.31399716,-65.31721200000001
6.11,611,0.077,-0.10800000000000001,1.136,19.767051000000002,-13.120738199999998,1.3178034,173.38282038,6.4400479200000005,-65.34013032
6.12,612,0.14300000000000002,0.147,1.153,18.449247600000003,-12.2040054,-0.286479,173.57189652,6.560369099999999,-65.3458599
6.13,613,0.29600000000000004,-0.07,1.198,11.745639,-8.59437,0.0,173.6922177,6.6463128,-65.35731906
6.14,614,0.129,-0.14800000000000002,1.189,8.9381448,-1.0886202,2.7501984,173.77816140000004,6.65204238,-65.38023738
6.15,615,0.045,-0.109,1.1079999999999999,7.2192707999999985,5.5576926,5.3858052,173.81826845999996,6.5546395199999985,-65.43753317999999
6.16,616,0.053,-0.258,0.9390000000000001,5.6722842,13.5791046,6.4744254,173.86983468,6.4114000199999985,-65.4890994
6.17,617,0.055,-0.402,0.8590000000000001,4.6982555999999995,15.183387000000002,5.844171599999999,173.90994174,6.25670136,-65.53493604
6.18,618,-0.001,-0.505,0.789,1.2605076000000002,13.636400400000001,4.010706000000001,173.9214009,6.11919144,-65.56358394
6.1899999999999995,619,0.009000000000000001,-0.36,0.7020000000000001,2.86479,10.5424272,4.4117766,173.94431922,6.01032942,-65.59796142
6.2,620,0.09699999999999999,-0.037000000000000005,0.732,10.4851314,-0.40107059999999994,5.844171599999999,174.07036998,6.01032942,-65.65525722
6.21,621,0.099,-0.028999999999999998,0.85,10.599723,-10.7143146,5.6722842,174.17350242,6.1077322800000005,-65.71828260000001
6.22,622,0.091,-0.09,0.946,10.1413566,-19.194093,2.9220858,174.27663486,6.29107884,-65.75838966
6.2299999999999995,623,0.127,-0.19399999999999998,1.01,12.7196676,-24.8663772,0.286479,174.40268562,6.53745078,-65.78130798
6.24,624,0.12300000000000001,-0.217,1.05,14.5531332,-25.55392680000001,0.0,174.55738428,6.7895523,-65.79849672
6.25,625,0.107,-0.147,1.023,13.750992000000002,-24.522602399999997,-0.8021411999999999,174.68916462,7.0244650800000015,-65.8042263
6.26,626,0.10099999999999999,-0.11699999999999999,0.995,10.657018800000001,-23.9496444,-1.7761698000000001,174.79802664,7.265107439999999,-65.79849672
6.27,627,0.11599999999999999,-0.131,0.978,6.130650599999999,-23.835052800000003,-2.0626488000000003,174.8667816,7.500020219999999,-65.79276714
6.28,628,0.12300000000000001,-0.151,0.9540000000000001,2.1199446,-24.2934192,-1.8334656000000005,174.88969992,7.74066258,-65.79276714
6.29,629,0.10800000000000001,-0.163,0.925,-0.8021411999999999,-24.1788276,-1.6615782,174.88969992,7.9813049399999985,-65.78703756
6.3,630,0.11,-0.151,0.9109999999999999,-2.8074942000000003,-24.522602399999997,-1.6042823999999998,174.84959286,8.21621772,-65.79276714
6.31,631,0.11599999999999999,-0.09699999999999999,0.907,-4.3544808,-24.809081399999997,-2.0053530000000004,174.8094858,8.46258966,-65.78703756
6.32,632,0.16,-0.087,0.9179999999999999,-5.958763200000001,-25.6112226,-2.4064236,174.75218999999996,8.72042076,-65.78130798
6.33,633,0.177,-0.121,0.924,-8.136003599999999,-24.8663772,-2.2345362,174.67197588000005,8.9667927,-65.76984881999999
6.34,634,0.147,-0.121,0.9279999999999999,-9.396511199999999,-23.0902074,-1.7188740000000002,174.58030259999995,9.20170548,-65.76984881999999
6.35,635,0.18899999999999997,-0.09300000000000001,0.915,-9.396511199999999,-21.371333399999997,-1.3750992,174.48289974,9.43088868,-65.7755784
6.36,636,0.18899999999999997,-0.12300000000000001,0.9229999999999999,-10.084060800000001,-20.7983754,-0.7448454000000001,174.37976730000003,9.63715356,-65.78130798
6.37,637,0.155,-0.145,0.935,-10.599723,-18.907614,-0.40107059999999994,174.27090528000005,9.826229699999999,-65.79276714
6.38,638,0.149,-0.18100000000000002,0.9490000000000001,-10.3705398,-16.2147114,-0.057295800000000015,174.16777284,9.98665794,-65.8042263
6.39,639,0.159,-0.179,0.9670000000000001,-8.880849000000003,-14.5531332,0.057295800000000015,174.07609956000005,10.12989744,-65.81568546
6.4,640,0.162,-0.183,0.986,-7.3911582,-14.5531332,0.1718874,173.96150796,10.26740736,-65.83860378
6.41,641,0.163,-0.183,1.0090000000000001,-5.042030400000002,-15.756345,0.286479,173.90994174,10.4278356,-65.85006294
6.42,642,0.184,-0.16699999999999998,1.051,-2.4064236,-16.272007199999994,0.2291832000000001,173.88129383999996,10.58826384,-65.86725168000001
6.43,643,0.19399999999999998,-0.153,1.074,-0.5156622000000001,-15.870936600000002,0.40107059999999994,173.87556426,10.7429625,-65.88444042
6.4399999999999995,644,0.20600000000000002,-0.139,1.083,0.6875496,-15.011499599999999,0.6302538000000001,173.88129383999996,10.89193158,-65.90162916
6.45,645,0.213,-0.128,1.084,2.1772404,-14.7250206,0.6875496,173.89848258,11.03517108,-65.92454748
6.46,646,0.214,-0.11900000000000001,1.088,4.0680017999999984,-13.636400400000001,0.8594370000000001,173.93858964,11.172680999999999,-65.94173622000001
6.47,647,0.21,-0.125,1.08,5.443101,-11.6310474,0.6875496,173.99015586000004,11.28154302,-65.95892496
6.4799999999999995,648,0.20600000000000002,-0.134,1.065,6.3025379999999975,-9.682990199999999,0.5156622000000001,174.05318124,11.37894588,-65.97038411999999
6.49,649,0.20800000000000002,-0.134,1.047,6.875496000000001,-7.8495246,0.40107059999999994,174.1219362,11.45343042,-65.98184327999999
6.5,650,0.20600000000000002,-0.131,1.03,7.161975,-6.130650599999999,0.1718874,174.17350242,11.516455800000001,-65.99330244000001
6.51,651,0.204,-0.132,1.0070000000000001,6.7609043999999985,-4.583664,0.057295800000000015,174.24225738,11.562292439999998,-65.99330244000001
6.52,652,0.201,-0.134,0.978,6.0733548,-3.2085647999999996,0.11459160000000004,174.30528276,11.59094034,-65.99903202
6.53,653,0.196,-0.134,0.9570000000000001,5.2712136,-2.3491277999999998,0.057295800000000015,174.35684898,11.613858660000002,-65.99903202
6.54,654,0.193,-0.13699999999999998,0.941,4.3544808,-0.6875496,0.0,174.40268562,11.61958824,-65.99903202
6.55,655,0.193,-0.139,0.929,3.0366774,0.9167328000000001,-0.057295800000000015,174.35111940000004,11.62531782,-66.01622076
6.56,656,0.193,-0.138,0.924,2.0053530000000004,2.3491277999999998,0.0,174.36830814,11.59666992,-66.01049118
6.57,657,0.18100000000000002,-0.142,0.9259999999999999,0.9167328000000001,3.8388186,0.11459160000000004,174.37976730000003,11.562292439999998,-66.01049118
6.58,658,0.19,-0.146,0.934,-0.1718874,5.2712136,0.2291832000000001,174.37403772,11.51072622,-66.01049118
6.59,659,0.193,-0.141,0.9470000000000001,-1.0886202,6.6463128000000005,0.3437748,174.36257856,11.44197126,-66.00476160000001
6.6,660,0.191,-0.146,0.9590000000000001,-1.8907614,8.078707799999998,0.286479,174.29955318,11.36175714,-66.01622076
6.61,661,0.19,-0.149,0.9740000000000001,-2.291832,9.2819196,0.40107059999999994,174.27090528000005,11.27008386,-66.01049118
6.62,662,0.18899999999999997,-0.147,0.987,-2.5783110000000002,9.9694692,0.40107059999999994,174.24798696,11.172680999999999,-66.01049118
6.63,663,0.184,-0.147,0.997,-2.5210152000000003,10.5424272,0.40107059999999994,174.21933905999995,11.06381898,-66.00476160000001
6.64,664,0.18600000000000005,-0.146,1.013,-2.1772404,10.943497800000001,0.286479,174.19642073999995,10.96068654,-65.99903202
6.65,665,0.193,-0.15,1.022,-1.7761698000000001,10.886202,0.1718874,174.13912494000004,10.85182452,-66.00476160000001
6.66,666,0.191,-0.15,1.024,-1.2032118,10.599723,0.11459160000000004,174.12766577999997,10.74869208,-65.99330244000001
6.67,667,0.185,-0.149,1.0290000000000001,-0.6875496,10.2559482,0.0,174.1219362,10.64555964,-65.98757286
6.68,668,0.182,-0.15,1.028,-0.286479,10.026765,0.0,174.11620662,10.54815678,-65.98184327999999
6.6899999999999995,669,0.18,-0.154,1.016,0.0,9.682990199999999,-0.057295800000000015,174.11620662,10.45075392,-65.97038411999999
6.7,670,0.175,-0.152,1.0090000000000001,0.057295800000000015,9.396511199999999,-0.057295800000000015,174.06464039999997,10.34762148,-65.97611370000001
6.71,671,0.17,-0.15,1.003,0.0,8.651665800000002,0.0,174.06464039999997,10.26167778,-65.96465454
6.72,672,0.16899999999999998,-0.149,0.993,-0.4583664000000001,8.250595200000001,0.0,174.05891082,10.18146366,-65.95892496
6.7299999999999995,673,0.16699999999999998,-0.15,0.983,-0.6875496,7.906820400000001,0.0,174.05318124,10.10697912,-65.95319538
6.74,674,0.16399999999999998,-0.149,0.976,-0.9167328000000001,7.5630456000000015,0.0,174.04172208,10.03249458,-65.94746579999999
6.75,675,0.163,-0.149,0.9690000000000001,-1.0886202,7.333862400000001,0.0,173.97296712,9.95228046,-65.95319538
6.76,676,0.162,-0.14800000000000002,0.9670000000000001,-1.145916,7.1046792000000005,0.0,173.96150796,9.8835255,-65.94746579999999
6.77,677,0.161,-0.147,0.976,-1.3178034,6.5317212,0.0,173.95004880000005,9.82050012,-65.94173622000001
6.78,678,0.16,-0.147,0.981,-1.7761698000000001,5.6722842,0.0,173.93286006,9.76320432,-65.94173622000001
6.79,679,0.161,-0.147,0.98,-2.1772404,4.8128472,-0.057295800000000015,173.90994174,9.71736768,-65.93600663999999
6.8,680,0.161,-0.146,0.985,-2.291832,4.3544808,-0.1718874,173.81826845999996,9.67153104,-65.94173622000001
6.81,681,0.162,-0.147,0.991,-2.5210152000000003,4.4117766,-0.11459160000000004,173.79535013999995,9.6256944,-65.93600663999999
6.82,682,0.162,-0.149,0.992,-2.5210152000000003,4.583664,-0.11459160000000004,173.76670224,9.57985776,-65.93027706000001
6.83,683,0.161,-0.149,0.993,-2.5210152000000003,4.5263682,-0.1718874,173.74378392,9.53402112,-65.92454748
6.84,684,0.161,-0.149,0.997,-2.4637194,4.4117766,-0.1718874,173.71513602,9.49391406,-65.9188179
6.85,685,0.161,-0.15,1.002,-2.4637194,4.1825934,-0.11459160000000004,173.62919232,9.44807742,-65.92454748
6.86,686,0.16,-0.15,1.004,-2.1772404,4.010706000000001,-0.11459160000000004,173.60627399999996,9.407970359999998,-65.92454748
6.87,687,0.16,-0.152,1.0070000000000001,-1.9480572,3.9534102,-0.057295800000000015,173.58908526,9.3678633,-65.9188179
6.88,688,0.159,-0.152,1.0070000000000001,-1.5469866,3.8388186,0.0,173.57189652,9.33348582,-65.91308832
6.89,689,0.158,-0.152,1.0090000000000001,-1.145916,3.6669312000000014,0.0,173.56043736,9.29337876,-65.91308832
6.9,690,0.158,-0.152,1.01,-0.7448454000000001,3.5523396000000003,0.057295800000000015,173.4630345,9.253271699999999,-65.92454748
6.91,691,0.156,-0.152,1.008,-0.3437748,3.3231564,0.0,173.4630345,9.21889422,-65.9188179
6.92,692,0.154,-0.151,1.004,-0.11459160000000004,3.3231564,0.057295800000000015,173.45730492,9.19024632,-65.9188179
6.93,693,0.154,-0.15,1.003,0.286479,3.0939732,0.057295800000000015,173.4630345,9.15586884,-65.9188179
6.9399999999999995,694,0.154,-0.151,1.002,0.572958,2.9220858,0.11459160000000004,173.46876408,9.12722094,-65.91308832
6.95,695,0.153,-0.151,0.9990000000000001,0.9740286,2.6356068,0.11459160000000004,173.37709080000005,9.09284346,-65.93027706000001
6.96,696,0.152,-0.15,0.998,1.2605076000000002,2.291832,0.11459160000000004,173.38854996,9.06992514,-65.93027706000001
6.97,697,0.153,-0.151,0.998,1.2032118,2.1199446,0.1718874,173.40000912,9.04700682,-65.93027706000001
6.9799999999999995,698,0.152,-0.15,0.996,1.3178034,1.9480572,0.11459160000000004,173.41146827999995,9.02981808,-65.93027706000001
6.99,699,0.152,-0.15,0.995,1.2605076000000002,1.8334656000000005,0.11459160000000004,173.42865702,9.01262934,-65.93027706000001
7.0,700,0.151,-0.151,0.992,1.3178034,1.6615782,0.11459160000000004,173.31406542,8.98398144,-65.94746579999999
7.01,701,0.15,-0.151,0.992,1.3178034,1.432395,0.1718874,173.33125416,8.97252228,-65.94746579999999
7.02,702,0.15,-0.151,0.992,1.145916,1.2605076000000002,0.1718874,173.34271332,8.95533354,-65.94746579999999
7.03,703,0.15,-0.152,0.996,1.0313244000000001,0.9740286,0.2291832000000001,173.35417248000005,8.949603960000003,-65.95319538
7.04,704,0.15,-0.152,0.995,0.8021411999999999,0.9167328000000001,0.1718874,173.35990206000002,8.9381448,-65.95319538
7.05,705,0.14800000000000002,-0.152,0.995,0.40107059999999994,0.8594370000000001,0.1718874,173.08488222,8.89230816,-65.99903202
7.06,706,0.14800000000000002,-0.153,0.992,0.2291832000000001,0.5156622000000001,0.2291832000000001,173.0906118,8.88657858,-65.99903202
7.07,707,0.14800000000000002,-0.152,0.993,0.1718874,0.1718874,0.2291832000000001,173.0906118,8.88657858,-65.99903202
7.08,708,0.149,-0.153,0.9940000000000001,0.286479,0.0,0.1718874,173.0906118,8.88657858,-66.00476160000001
7.09,709,0.14800000000000002,-0.153,0.996,0.4583664000000001,-0.1718874,0.1718874,173.09634137999996,8.88657858,-66.00476160000001
7.1,710,0.15,-0.153,0.9990000000000001,0.6302538000000001,-0.286479,0.11459160000000004,172.87288776,8.86938984,-66.04486865999999
7.11,711,0.15,-0.154,0.9990000000000001,0.7448454000000001,-0.40107059999999994,0.11459160000000004,172.88434692,8.87511942,-66.04486865999999
7.12,712,0.151,-0.155,0.9990000000000001,0.8594370000000001,-0.572958,0.2291832000000001,172.89007650000005,8.880849000000003,-66.04486865999999
7.13,713,0.151,-0.154,1.0,0.7448454000000001,-0.6302538000000001,0.11459160000000004,172.90153565999995,8.88657858,-66.05059824
7.14,714,0.152,-0.154,1.002,0.7448454000000001,-0.9167328000000001,0.11459160000000004,172.90726524000004,8.89230816,-66.05059824
7.15,715,0.149,-0.153,1.001,0.8594370000000001,-1.0313244000000001,0.11459160000000004,172.76402574,8.89230816,-66.07924614
7.16,716,0.151,-0.154,0.998,0.8594370000000001,-1.2032118,0.11459160000000004,172.7754849,8.90376732,-66.07924614
7.17,717,0.15,-0.152,0.997,0.8021411999999999,-1.3750992,0.2291832000000001,172.78121448,8.91522648,-66.08497572
7.18,718,0.151,-0.152,0.998,0.6875496,-1.432395,0.11459160000000004,172.79267364,8.92668564,-66.08497572
7.1899999999999995,719,0.151,-0.151,0.997,0.6875496,-1.6042823999999998,0.1718874,172.79840322,8.94387438,-66.0907053
7.2,720,0.15,-0.151,0.9940000000000001,0.572958,-1.7188740000000002,0.11459160000000004,172.70672994,8.95533354,-66.10789403999999
7.21,721,0.15,-0.15,0.993,0.6875496,-2.0053530000000004,0.11459160000000004,172.71245951999995,8.97252228,-66.11362362
7.22,722,0.152,-0.151,0.992,0.6302538000000001,-1.9480572,0.057295800000000015,172.7181891,8.98971102,-66.11362362
7.2299999999999995,723,0.151,-0.15,0.991,0.6875496,-2.0053530000000004,0.057295800000000015,172.72391868,9.01262934,-66.1193532
7.24,724,0.151,-0.149,0.998,0.4583664000000001,-2.1772404,0.11459160000000004,172.72964826,9.03554766,-66.1193532
7.25,725,0.154,-0.149,0.996,0.057295800000000015,-2.0626488000000003,0.1718874,172.63797498,9.04700682,-66.13654194
7.26,726,0.153,-0.149,0.997,-0.11459160000000004,-2.0626488000000003,0.2291832000000001,172.63224540000004,9.06992514,-66.14227152
7.27,727,0.153,-0.149,0.995,-0.11459160000000004,-2.1772404,0.11459160000000004,172.63224540000004,9.09284346,-66.1480011
7.28,728,0.154,-0.15,0.9940000000000001,0.057295800000000015,-1.8907614,0.11459160000000004,172.63224540000004,9.1100322,-66.1480011
7.29,729,0.155,-0.15,0.9940000000000001,0.40107059999999994,-1.7761698000000001,0.11459160000000004,172.63797498,9.12722094,-66.15373068
7.3,730,0.155,-0.151,1.001,0.4583664000000001,-1.9480572,0.1718874,172.55776086,9.138680099999998,-66.17091941999999
7.31,731,0.156,-0.152,1.004,0.286479,-2.4637194,0.1718874,172.56349043999995,9.16159842,-66.17664900000001
7.32,732,0.156,-0.151,0.9990000000000001,0.057295800000000015,-2.4064236,0.11459160000000004,172.56349043999995,9.18451674,-66.17664900000001
7.33,733,0.157,-0.15,0.997,0.3437748,-2.1772404,0.11459160000000004,172.56349043999995,9.20743506,-66.18237858
7.34,734,0.157,-0.15,0.997,0.6302538000000001,-2.0053530000000004,0.11459160000000004,172.56922002,9.224623800000002,-66.18810816
7.35,735,0.157,-0.15,0.996,0.7448454000000001,-1.8334656000000005,0.11459160000000004,172.50619464000005,9.24181254,-66.19956732
7.36,736,0.158,-0.15,0.9940000000000001,0.8021411999999999,-1.6042823999999998,0.1718874,172.51192422000003,9.253271699999999,-66.20529690000001
7.37,737,0.159,-0.15,0.9940000000000001,0.9167328000000001,-1.4896908000000002,0.11459160000000004,172.52338337999996,9.27046044,-66.21102648
7.38,738,0.158,-0.15,0.995,1.145916,-1.3178034,0.11459160000000004,172.53484254,9.2819196,-66.21102648
7.39,739,0.157,-0.149,0.998,1.3178034,-1.0313244000000001,0.1718874,172.5463017,9.29337876,-66.21102648
7.4,740,0.158,-0.14800000000000002,0.997,1.432395,-0.9167328000000001,0.11459160000000004,172.49473548,9.29910834,-66.22821522
7.41,741,0.159,-0.149,0.998,1.5469866,-0.8021411999999999,0.11459160000000004,172.51192422000003,9.3105675,-66.22821522
7.42,742,0.16,-0.15,0.9990000000000001,1.6042823999999998,-0.572958,0.11459160000000004,172.52338337999996,9.31629708,-66.22821522
7.43,743,0.158,-0.151,1.0,1.5469866,-0.5156622000000001,0.2291832000000001,172.54057212,9.31629708,-66.2339448
7.4399999999999995,744,0.157,-0.151,0.998,1.3178034,-0.2291832000000001,0.11459160000000004,172.55776086,9.32202666,-66.2339448
7.45,745,0.157,-0.149,0.997,1.0313244000000001,0.0,0.2291832000000001,172.42598052,9.29910834,-66.2625927
7.46,746,0.158,-0.149,0.9940000000000001,0.7448454000000001,0.057295800000000015,0.286479,172.43171009999998,9.29910834,-66.2625927
7.47,747,0.157,-0.149,0.993,0.572958,0.11459160000000004,0.286479,172.43743968,9.29910834,-66.26832228
7.4799999999999995,748,0.158,-0.14800000000000002,0.9940000000000001,0.3437748,0.286479,0.286479,172.44316926000005,9.29337876,-66.26832228
7.49,749,0.157,-0.14800000000000002,0.9940000000000001,0.286479,0.11459160000000004,0.286479,172.44316926000005,9.29337876,-66.27405186
7.5,750,0.157,-0.14800000000000002,0.995,0.0,0.057295800000000015,0.2291832000000001,172.19679732,9.27619002,-66.31415892
7.51,751,0.158,-0.15,0.996,-0.11459160000000004,-0.057295800000000015,0.2291832000000001,172.19679732,9.2819196,-66.31988849999999
7.52,752,0.158,-0.15,0.993,-0.057295800000000015,-0.057295800000000015,0.2291832000000001,172.19679732,9.2819196,-66.31988849999999
7.53,753,0.157,-0.151,0.991,-0.057295800000000015,-0.2291832000000001,0.2291832000000001,172.19679732,9.2819196,-66.31988849999999
7.54,754,0.158,-0.15,0.9940000000000001,-0.057295800000000015,-0.4583664000000001,0.1718874,172.19679732,9.28764918,-66.32561808
7.55,755,0.158,-0.152,0.997,-0.11459160000000004,-0.5156622000000001,0.1718874,172.04209866000005,9.27619002,-66.35426598000001
7.56,756,0.159,-0.152,0.9990000000000001,-0.286479,-0.4583664000000001,0.1718874,172.04209866000005,9.2819196,-66.35426598000001
7.57,757,0.158,-0.152,0.998,-0.40107059999999994,-0.40107059999999994,0.1718874,172.03636908,9.28764918,-66.35426598000001
7.58,758,0.159,-0.153,0.9990000000000001,-0.40107059999999994,-0.286479,0.1718874,172.03063949999995,9.28764918,-66.35999556
7.59,759,0.159,-0.152,0.998,-0.40107059999999994,-0.11459160000000004,0.1718874,172.02490992,9.28764918,-66.35999556
7.6,760,0.158,-0.152,0.997,-0.3437748,-0.057295800000000015,0.11459160000000004,171.8587521,9.27619002,-66.38864346
7.61,761,0.157,-0.152,0.996,-0.286479,0.0,0.11459160000000004,171.85302252,9.27619002,-66.38864346
7.62,762,0.158,-0.152,0.996,-0.1718874,0.0,0.11459160000000004,171.85302252,9.27619002,-66.39437303999999
7.63,763,0.157,-0.151,0.996,-0.2291832000000001,0.0,0.11459160000000004,171.84729294,9.27619002,-66.39437303999999
7.64,764,0.158,-0.152,0.995,-0.286479,-0.057295800000000015,0.1718874,171.84729294,9.27619002,-66.39437303999999
7.65,765,0.156,-0.151,0.993,-0.4583664000000001,-0.1718874,0.11459160000000004,171.74989008,9.26473086,-66.41156178
7.66,766,0.156,-0.151,0.992,-0.5156622000000001,-0.1718874,0.11459160000000004,171.7441605,9.26473086,-66.41156178
7.67,767,0.157,-0.151,0.993,-0.3437748,-0.1718874,0.1718874,171.73843091999996,9.26473086,-66.41729136000001
7.68,768,0.158,-0.151,0.993,-0.40107059999999994,-0.1718874,0.1718874,171.73270134,9.27046044,-66.41729136000001
7.6899999999999995,769,0.157,-0.151,0.992,-0.40107059999999994,-0.286479,0.1718874,171.73270134,9.27046044,-66.42302094
7.7,770,0.157,-0.152,0.9940000000000001,-0.2291832000000001,-0.2291832000000001,0.11459160000000004,171.62383932,9.25900128,-66.44020968
7.71,771,0.158,-0.152,0.996,-0.2291832000000001,-0.1718874,0.1718874,171.62383932,9.26473086,-66.44020968
7.72,772,0.158,-0.152,0.996,-0.286479,-0.3437748,0.1718874,171.61810974,9.26473086,-66.44593926
7.7299999999999995,773,0.159,-0.151,0.997,-0.2291832000000001,-0.3437748,0.11459160000000004,171.61238016,9.27046044,-66.44593926
7.74,774,0.159,-0.151,0.9990000000000001,-0.1718874,-0.286479,0.11459160000000004,171.61238016,9.27046044,-66.44593926
7.75,775,0.158,-0.152,0.996,-0.057295800000000015,-0.40107059999999994,0.1718874,171.53789562,9.26473086,-66.463128
7.76,776,0.158,-0.152,0.993,0.1718874,-0.286479,0.1718874,171.54362519999995,9.26473086,-66.463128
7.77,777,0.157,-0.152,0.996,0.286479,-0.3437748,0.2291832000000001,171.54362519999995,9.27046044,-66.46885758
7.78,778,0.159,-0.151,0.9990000000000001,0.1718874,-0.4583664000000001,0.1718874,171.54362519999995,9.27619002,-66.46885758
7.79,779,0.16,-0.152,0.9990000000000001,0.0,-0.4583664000000001,0.1718874,171.54362519999995,9.27619002,-66.47458716
7.8,780,0.159,-0.152,0.998,0.057295800000000015,-0.3437748,0.2291832000000001,171.4863294,9.27046044,-66.48604631999999
7.81,781,0.158,-0.152,0.998,0.057295800000000015,-0.1718874,0.1718874,171.4863294,9.27619002,-66.48604631999999
7.82,782,0.16,-0.152,0.996,0.286479,0.057295800000000015,0.1718874,171.4863294,9.27046044,-66.49177590000001
7.83,783,0.16,-0.153,0.995,0.3437748,0.3437748,0.11459160000000004,171.49205898,9.27046044,-66.49177590000001
7.84,784,0.159,-0.153,0.996,0.286479,0.057295800000000015,0.1718874,171.49205898,9.27046044,-66.49177590000001
7.85,785,0.157,-0.153,0.995,0.286479,-0.1718874,0.11459160000000004,171.4290336,9.253271699999999,-66.50323506
7.86,786,0.158,-0.153,0.996,0.3437748,0.1718874,0.0,171.43476318,9.253271699999999,-66.50323506
7.87,787,0.158,-0.153,0.9940000000000001,0.3437748,0.3437748,0.0,171.44049276,9.24754212,-66.50323506
7.88,788,0.158,-0.153,0.995,0.3437748,0.4583664000000001,0.0,171.44049276,9.24181254,-66.50323506
7.89,789,0.158,-0.153,0.993,0.40107059999999994,0.40107059999999994,0.0,171.44622234,9.24181254,-66.50323506
7.9,790,0.158,-0.154,0.993,0.40107059999999994,0.1718874,0.0,171.36027864,9.23608296,-66.51469422
7.91,791,0.158,-0.153,0.993,0.40107059999999994,0.11459160000000004,0.0,171.36600822,9.23608296,-66.51469422
7.92,792,0.158,-0.153,0.995,0.3437748,0.11459160000000004,-0.057295800000000015,171.3717378,9.23608296,-66.51469422
7.93,793,0.159,-0.153,0.995,0.40107059999999994,0.2291832000000001,0.0,171.37746738,9.23608296,-66.51469422
7.94,794,0.158,-0.154,0.995,0.40107059999999994,0.2291832000000001,0.0,171.37746738,9.23035338,-66.51469422
7.95,795,0.157,-0.154,0.996,0.3437748,0.1718874,0.0,171.32590116,9.224623800000002,-66.52042379999999
7.96,796,0.158,-0.153,0.996,0.1718874,0.2291832000000001,0.0,171.32590116,9.224623800000002,-66.52042379999999
7.97,797,0.158,-0.153,0.996,0.2291832000000001,0.0,0.0,171.33163073999995,9.224623800000002,-66.52042379999999
7.9799999999999995,798,0.157,-0.152,0.996,0.286479,0.0,0.0,171.33163073999995,9.224623800000002,-66.52042379999999
7.99,799,0.157,-0.153,0.996,0.286479,0.057295800000000015,0.0,171.33736032,9.224623800000002,-66.52042379999999
8.0,800,0.157,-0.153,0.995,0.2291832000000001,0.057295800000000015,0.0,171.24568704,9.21316464,-66.53761254
8.01,801,0.158,-0.153,0.995,0.1718874,0.11459160000000004,0.0,171.25141662,9.20743506,-66.53761254
8.02,802,0.159,-0.154,0.995,0.2291832000000001,0.0,-0.057295800000000015,171.25141662,9.20743506,-66.53188295999999
8.03,803,0.158,-0.153,0.995,0.1718874,0.0,0.0,171.25141662,9.20743506,-66.53188295999999
8.04,804,0.158,-0.154,0.9940000000000001,0.1718874,-0.057295800000000015,0.0,171.25714620000005,9.21316464,-66.53188295999999
8.05,805,0.158,-0.153,0.9940000000000001,0.11459160000000004,0.0,0.0,171.17693208,9.20170548,-66.54334212
8.06,806,0.157,-0.154,0.995,0.0,0.0,0.0,171.17693208,9.20170548,-66.54334212
8.07,807,0.158,-0.153,0.993,-0.11459160000000004,0.0,0.057295800000000015,171.17693208,9.20743506,-66.54907170000001
8.08,808,0.158,-0.154,0.9940000000000001,-0.11459160000000004,-0.057295800000000015,0.0,171.17693208,9.20743506,-66.54907170000001
8.09,809,0.157,-0.153,0.996,-0.11459160000000004,0.0,0.0,171.17693208,9.20743506,-66.54907170000001
8.1,810,0.158,-0.153,0.996,-0.1718874,0.0,0.0,171.11963628,9.1959759,-66.55480127999999
8.11,811,0.157,-0.153,0.995,-0.2291832000000001,-0.057295800000000015,0.0,171.11963628,9.1959759,-66.55480127999999
8.12,812,0.157,-0.153,0.9940000000000001,-0.2291832000000001,-0.2291832000000001,0.0,171.11390669999997,9.20170548,-66.55480127999999
8.13,813,0.158,-0.154,0.9940000000000001,-0.1718874,-0.2291832000000001,0.0,171.11390669999997,9.20170548,-66.55480127999999
8.14,814,0.158,-0.154,0.995,-0.057295800000000015,-0.286479,0.0,171.11390669999997,9.20743506,-66.56053086
8.15,815,0.158,-0.154,0.996,0.0,-0.2291832000000001,0.0,171.06234048000005,9.1959759,-66.56626044
8.16,816,0.158,-0.154,0.996,0.0,-0.1718874,0.0,171.06234048000005,9.1959759,-66.56626044
8.17,817,0.158,-0.154,0.998,0.0,-0.2291832000000001,0.0,171.06234048000005,9.1959759,-66.56626044
8.18,818,0.157,-0.155,0.996,0.0,-0.1718874,0.0,171.06234048000005,9.20170548,-66.56626044
8.19,819,0.159,-0.155,0.997,0.11459160000000004,-0.11459160000000004,0.0,171.06234048000005,9.20170548,-66.56626044
8.2,820,0.158,-0.155,0.996,0.11459160000000004,0.0,0.0,171.027963,9.1959759,-66.57199002
8.209999999999999,821,0.157,-0.155,0.995,0.286479,0.057295800000000015,0.0,171.03369258,9.1959759,-66.57199002
8.22,822,0.157,-0.154,0.995,0.286479,-0.057295800000000015,0.0,171.03369258,9.1959759,-66.57199002
8.23,823,0.158,-0.153,0.995,0.2291832000000001,-0.2291832000000001,-0.11459160000000004,171.03942216000004,9.1959759,-66.57199002
8.24,824,0.158,-0.155,0.995,0.1718874,-0.2291832000000001,-0.057295800000000015,171.03942216000004,9.20170548,-66.57199002
8.25,825,0.159,-0.154,0.995,0.057295800000000015,-0.40107059999999994,0.0,171.01650383999996,9.20170548,-66.57199002
8.26,826,0.159,-0.154,0.997,-0.057295800000000015,-0.4583664000000001,-0.057295800000000015,171.01650383999996,9.20743506,-66.57199002
8.27,827,0.158,-0.155,0.997,-0.11459160000000004,-0.40107059999999994,0.0,171.01077426,9.21316464,-66.57199002
8.28,828,0.157,-0.154,0.997,-0.057295800000000015,-0.4583664000000001,0.0,171.01077426,9.21889422,-66.57199002
8.29,829,0.158,-0.154,0.993,-0.057295800000000015,-0.5156622000000001,0.0,171.01077426,9.224623800000002,-66.57199002
8.3,830,0.158,-0.154,0.991,0.11459160000000004,-0.572958,0.0,170.9993151,9.224623800000002,-66.5777196
8.31,831,0.158,-0.154,0.991,0.286479,-0.6302538000000001,0.0,170.9993151,9.23035338,-66.5777196
8.32,832,0.159,-0.154,0.996,0.1718874,-0.8021411999999999,0.0,170.9993151,9.24181254,-66.5777196
8.33,833,0.158,-0.154,0.997,0.11459160000000004,-0.9167328000000001,0.0,171.00504468,9.24754212,-66.58344918
8.34,834,0.159,-0.154,0.996,0.11459160000000004,-0.9167328000000001,0.0,171.00504468,9.25900128,-66.58344918
8.35,835,0.159,-0.153,0.9940000000000001,0.11459160000000004,-0.8594370000000001,0.0,170.9993151,9.27046044,-66.58344918
8.36,836,0.16,-0.154,0.9940000000000001,0.2291832000000001,-0.6875496,0.0,170.9993151,9.27619002,-66.58344918
8.37,837,0.161,-0.154,0.9940000000000001,0.3437748,-0.3437748,0.0,171.00504468,9.27619002,-66.58917876000001
8.38,838,0.161,-0.155,0.997,0.286479,-0.3437748,0.0,171.00504468,9.2819196,-66.58917876000001
8.39,839,0.16,-0.154,0.996,0.11459160000000004,-0.6302538000000001,0.0,171.01077426,9.28764918,-66.58917876000001
8.4,840,0.161,-0.154,0.995,0.0,-0.6302538000000001,0.0,170.98785594,9.29910834,-66.58917876000001
8.41,841,0.161,-0.155,0.996,0.0,-0.40107059999999994,0.0,170.98785594,9.30483792,-66.59490833999999
8.42,842,0.161,-0.153,0.995,0.11459160000000004,-0.286479,0.0,170.98785594,9.30483792,-66.59490833999999
8.43,843,0.161,-0.154,0.995,0.057295800000000015,-0.2291832000000001,0.0,170.99358552,9.3105675,-66.59490833999999
8.44,844,0.161,-0.154,0.993,0.057295800000000015,-0.3437748,0.0,170.99358552,9.3105675,-66.59490833999999
8.45,845,0.161,-0.154,0.9940000000000001,0.11459160000000004,-0.286479,0.0,170.97066719999995,9.3105675,-66.60063792000001
8.459999999999999,846,0.16,-0.154,0.9940000000000001,0.057295800000000015,-0.3437748,0.0,170.97066719999995,9.3105675,-66.60063792000001
8.47,847,0.161,-0.153,0.9940000000000001,0.11459160000000004,-0.40107059999999994,-0.057295800000000015,170.97639678000004,9.31629708,-66.60063792000001
8.48,848,0.161,-0.153,0.9940000000000001,0.057295800000000015,-0.4583664000000001,-0.057295800000000015,170.97639678000004,9.32202666,-66.60063792000001
8.49,849,0.161,-0.153,0.996,0.11459160000000004,-0.6302538000000001,-0.057295800000000015,170.97639678000004,9.32775624,-66.60063792000001
8.5,850,0.162,-0.153,0.9940000000000001,0.0,-0.4583664000000001,-0.11459160000000004,170.96493762,9.34494498,-66.60063792000001
8.51,851,0.162,-0.154,0.995,0.0,-0.3437748,-0.11459160000000004,170.96493762,9.34494498,-66.59490833999999
8.52,852,0.162,-0.155,0.997,0.057295800000000015,-0.286479,-0.057295800000000015,170.97066719999995,9.350674559999998,-66.59490833999999
8.53,853,0.162,-0.154,0.996,0.0,-0.1718874,-0.057295800000000015,170.96493762,9.350674559999998,-66.59490833999999
8.54,854,0.162,-0.154,0.9940000000000001,0.0,-0.286479,-0.057295800000000015,170.97066719999995,9.35640414,-66.59490833999999
8.55,855,0.162,-0.154,0.993,0.057295800000000015,-0.2291832000000001,-0.057295800000000015,170.94201930000003,9.36213372,-66.60063792000001
8.56,856,0.163,-0.153,0.992,0.057295800000000015,-0.11459160000000004,0.0,170.94201930000003,9.3678633,-66.60063792000001
8.57,857,0.162,-0.154,0.993,0.11459160000000004,0.0,0.0,170.94201930000003,9.36213372,-66.60063792000001
8.58,858,0.163,-0.153,0.995,0.11459160000000004,0.3437748,0.0,170.94774888,9.36213372,-66.59490833999999
8.59,859,0.163,-0.154,0.9940000000000001,0.0,0.40107059999999994,0.0,170.94774888,9.35640414,-66.59490833999999
8.6,860,0.163,-0.154,0.993,-0.057295800000000015,0.5156622000000001,0.0,170.93628972,9.35640414,-66.59490833999999
8.61,861,0.162,-0.154,0.993,-0.11459160000000004,0.5156622000000001,0.0,170.93628972,9.350674559999998,-66.59490833999999
8.62,862,0.161,-0.153,0.992,-0.057295800000000015,0.572958,0.0,170.93628972,9.34494498,-66.59490833999999
8.63,863,0.162,-0.154,0.993,0.0,0.572958,0.0,170.93628972,9.3392154,-66.59490833999999
8.64,864,0.162,-0.153,0.992,0.0,0.6302538000000001,0.0,170.93628972,9.33348582,-66.59490833999999
8.65,865,0.162,-0.155,0.993,0.0,0.6302538000000001,0.057295800000000015,170.92483056,9.33348582,-66.59490833999999
8.66,866,0.162,-0.153,0.993,0.057295800000000015,0.6302538000000001,0.0,170.92483056,9.32775624,-66.59490833999999
8.67,867,0.162,-0.154,0.996,0.057295800000000015,0.6302538000000001,0.0,170.92483056,9.32202666,-66.59490833999999
8.68,868,0.16399999999999998,-0.154,0.995,0.0,0.40107059999999994,0.057295800000000015,170.92483056,9.31629708,-66.59490833999999
8.69,869,0.163,-0.154,0.995,0.0,0.5156622000000001,0.0,170.92483056,9.3105675,-66.59490833999999
8.7,870,0.163,-0.154,0.9940000000000001,0.057295800000000015,0.6302538000000001,0.057295800000000015,170.91910098,9.31629708,-66.59490833999999
8.71,871,0.163,-0.155,0.993,0.0,0.572958,0.0,170.91910098,9.3105675,-66.59490833999999
8.72,872,0.163,-0.154,0.996,0.057295800000000015,0.6875496,0.0,170.91910098,9.30483792,-66.59490833999999
8.73,873,0.163,-0.154,0.9940000000000001,0.057295800000000015,0.8021411999999999,0.0,170.91910098,9.29337876,-66.59490833999999
8.74,874,0.16399999999999998,-0.155,0.9940000000000001,0.0,0.8021411999999999,0.0,170.91910098,9.28764918,-66.59490833999999
8.75,875,0.163,-0.154,0.9940000000000001,0.0,0.8021411999999999,0.0,170.91910098,9.28764918,-66.58917876000001
8.76,876,0.163,-0.153,0.9940000000000001,0.0,0.7448454000000001,0.0,170.91910098,9.27619002,-66.58917876000001
8.77,877,0.162,-0.155,0.9940000000000001,0.0,0.6875496,0.0,170.91910098,9.27046044,-66.58917876000001
8.78,878,0.162,-0.154,0.995,-0.11459160000000004,0.4583664000000001,0.0,170.91337140000005,9.26473086,-66.58917876000001
8.79,879,0.162,-0.154,0.997,-0.286479,0.3437748,0.0,170.91337140000005,9.26473086,-66.58917876000001
8.8,880,0.163,-0.153,0.9940000000000001,-0.2291832000000001,0.3437748,0.0,170.90764182,9.27619002,-66.58917876000001
8.81,881,0.162,-0.155,0.9940000000000001,-0.1718874,0.40107059999999994,0.0,170.90764182,9.27046044,-66.58917876000001
8.82,882,0.163,-0.154,0.993,-0.057295800000000015,0.40107059999999994,0.0,170.90764182,9.26473086,-66.58917876000001
8.83,883,0.163,-0.153,0.993,0.0,0.4583664000000001,0.057295800000000015,170.90764182,9.26473086,-66.58917876000001
8.84,884,0.163,-0.154,0.993,0.057295800000000015,0.572958,0.0,170.90764182,9.25900128,-66.58917876000001
8.85,885,0.163,-0.153,0.992,0.286479,0.572958,0.057295800000000015,170.90191224,9.25900128,-66.58917876000001
8.86,886,0.162,-0.154,0.991,0.4583664000000001,0.6302538000000001,0.0,170.90764182,9.253271699999999,-66.58344918
8.87,887,0.162,-0.154,0.9940000000000001,0.572958,0.6875496,0.0,170.91337140000005,9.24754212,-66.58344918
8.88,888,0.162,-0.154,0.9940000000000001,0.286479,0.4583664000000001,0.0,170.91910098,9.24181254,-66.58344918
8.89,889,0.163,-0.152,0.998,0.1718874,0.11459160000000004,0.0,170.91910098,9.23608296,-66.58344918
8.9,890,0.162,-0.154,0.996,0.057295800000000015,0.057295800000000015,0.0,170.90191224,9.253271699999999,-66.58917876000001
8.91,891,0.162,-0.154,0.9940000000000001,0.057295800000000015,0.057295800000000015,0.0,170.90191224,9.253271699999999,-66.58917876000001
8.92,892,0.162,-0.153,0.993,0.2291832000000001,0.11459160000000004,0.0,170.90764182,9.24754212,-66.58917876000001
8.93,893,0.163,-0.154,0.9940000000000001,0.286479,0.1718874,0.0,170.90764182,9.24754212,-66.58917876000001
8.94,894,0.16399999999999998,-0.154,0.997,0.11459160000000004,0.057295800000000015,0.11459160000000004,170.91337140000005,9.24754212,-66.58917876000001
8.95,895,0.163,-0.154,0.997,0.0,-0.1718874,0.0,170.90191224,9.26473086,-66.58917876000001
8.96,896,0.162,-0.154,0.998,-0.11459160000000004,-0.057295800000000015,0.0,170.90191224,9.26473086,-66.58917876000001
8.97,897,0.163,-0.153,0.995,-0.057295800000000015,0.0,0.057295800000000015,170.90191224,9.26473086,-66.58917876000001
8.98,898,0.162,-0.154,0.997,0.0,0.057295800000000015,0.057295800000000015,170.90191224,9.26473086,-66.58917876000001
8.99,899,0.163,-0.153,0.995,0.0,0.0,0.0,170.90191224,9.26473086,-66.58917876000001
9.0,900,0.162,-0.155,0.9940000000000001,0.11459160000000004,-0.057295800000000015,0.0,170.89045308,9.27619002,-66.59490833999999
9.01,901,0.162,-0.154,0.993,0.1718874,-0.11459160000000004,0.0,170.89618266,9.27619002,-66.59490833999999
9.02,902,0.162,-0.154,0.993,0.1718874,-0.1718874,0.0,170.89618266,9.27619002,-66.59490833999999
9.03,903,0.163,-0.154,0.9940000000000001,0.1718874,-0.1718874,0.0,170.89618266,9.2819196,-66.59490833999999
9.04,904,0.162,-0.154,0.995,0.11459160000000004,-0.2291832000000001,0.0,170.90191224,9.2819196,-66.59490833999999
9.05,905,0.162,-0.153,0.9940000000000001,0.11459160000000004,-0.3437748,0.0,170.8847235,9.30483792,-66.59490833999999
9.06,906,0.163,-0.152,0.9940000000000001,0.11459160000000004,-0.286479,-0.057295800000000015,170.89045308,9.30483792,-66.59490833999999
9.07,907,0.162,-0.153,0.995,0.057295800000000015,-0.1718874,0.057295800000000015,170.89045308,9.3105675,-66.59490833999999
9.08,908,0.163,-0.152,0.9940000000000001,0.1718874,-0.2291832000000001,0.0,170.89045308,9.3105675,-66.59490833999999
9.09,909,0.163,-0.152,0.993,0.057295800000000015,-0.11459160000000004,0.0,170.89045308,9.3105675,-66.59490833999999
9.1,910,0.163,-0.153,0.9940000000000001,0.2291832000000001,-0.057295800000000015,0.0,170.8847235,9.33348582,-66.60063792000001
9.11,911,0.163,-0.153,0.9940000000000001,0.3437748,-0.057295800000000015,0.0,170.89045308,9.33348582,-66.59490833999999
9.12,912,0.16399999999999998,-0.153,0.9940000000000001,0.3437748,0.0,0.0,170.89045308,9.33348582,-66.59490833999999
9.13,913,0.163,-0.154,0.995,0.3437748,-0.057295800000000015,0.0,170.89618266,9.33348582,-66.59490833999999
9.14,914,0.163,-0.153,0.995,0.2291832000000001,0.0,0.0,170.90191224,9.33348582,-66.59490833999999
9.15,915,0.163,-0.153,0.9940000000000001,0.2291832000000001,0.0,0.0,170.89618266,9.34494498,-66.59490833999999
9.16,916,0.162,-0.153,0.995,0.1718874,0.0,0.0,170.90191224,9.34494498,-66.59490833999999
9.17,917,0.16399999999999998,-0.153,0.992,0.057295800000000015,0.11459160000000004,0.0,170.90191224,9.3392154,-66.59490833999999
9.18,918,0.162,-0.153,0.993,0.11459160000000004,0.057295800000000015,0.0,170.90191224,9.3392154,-66.59490833999999
9.19,919,0.163,-0.153,0.995,0.0,0.11459160000000004,0.0,170.90191224,9.3392154,-66.59490833999999
9.2,920,0.163,-0.153,0.9940000000000001,0.0,0.057295800000000015,0.0,170.8847235,9.35640414,-66.60063792000001
9.21,921,0.163,-0.152,0.9940000000000001,0.0,0.0,0.0,170.8847235,9.35640414,-66.60063792000001
9.22,922,0.162,-0.153,0.996,-0.1718874,0.057295800000000015,0.0,170.87899392000003,9.35640414,-66.60063792000001
9.23,923,0.162,-0.152,0.995,-0.11459160000000004,0.0,0.0,170.87899392000003,9.35640414,-66.60063792000001
9.24,924,0.163,-0.153,0.995,-0.11459160000000004,0.0,0.0,170.87899392000003,9.35640414,-66.60063792000001
9.25,925,0.162,-0.153,0.9940000000000001,-0.11459160000000004,0.0,0.0,170.87326434,9.350674559999998,-66.60063792000001
9.26,926,0.162,-0.152,0.995,-0.11459160000000004,-0.057295800000000015,0.0,170.87326434,9.35640414,-66.60063792000001
9.27,927,0.162,-0.151,0.9940000000000001,-0.1718874,-0.11459160000000004,0.0,170.86753475999996,9.35640414,-66.60063792000001
9.28,928,0.162,-0.151,0.993,-0.2291832000000001,-0.3437748,0.0,170.86753475999996,9.35640414,-66.60063792000001
9.29,929,0.162,-0.153,0.991,-0.3437748,-0.4583664000000001,0.0,170.86180518,9.36213372,-66.60063792000001
9.3,930,0.162,-0.152,0.992,-0.572958,-0.8021411999999999,0.057295800000000015,170.8560756,9.37359288,-66.60063792000001
9.31,931,0.162,-0.152,0.9940000000000001,-0.6302538000000001,-1.3750992,0.057295800000000015,170.85034602,9.38505204,-66.6063675
9.32,932,0.163,-0.152,0.995,-0.6875496,-1.4896908000000002,0.057295800000000015,170.84461644,9.40224078,-66.6063675
9.33,933,0.16399999999999998,-0.151,0.986,-0.6302538000000001,-1.7761698000000001,0.11459160000000004,170.83315728,9.41942952,-66.61209708
9.34,934,0.16699999999999998,-0.152,0.958,-0.6302538000000001,-2.9793816000000004,0.286479,170.8274277,9.44807742,-66.61782666
9.35,935,0.165,-0.15,0.9890000000000001,0.2291832000000001,-4.6409598,0.3437748,170.83315728,9.49391406,-66.62928581999999
9.36,936,0.16899999999999998,-0.154,1.004,1.0313244000000001,-4.010706000000001,0.1718874,170.83888686,9.53402112,-66.63501540000001
9.37,937,0.16899999999999998,-0.156,1.0,1.2032118,-3.6669312000000014,0.1718874,170.85034602,9.568398599999998,-66.64074498
9.38,938,0.17,-0.153,1.0170000000000001,1.5469866,-3.8388186,0.0,170.86753475999996,9.60850566,-66.64647456
9.39,939,0.174,-0.152,1.015,2.1199446,-3.4377480000000005,0.0,170.89045308,9.64288314,-66.65220414
9.4,940,0.17,-0.149,1.006,2.4637194,-2.8074942000000003,0.0,170.91910098,9.67153104,-66.65220414
9.41,941,0.17,-0.147,1.008,3.3231564,-2.3491277999999998,-0.1718874,170.95347846,9.69444936,-66.65793372
9.42,942,0.174,-0.145,1.04,4.9847346,-1.7188740000000002,-0.3437748,171.00504468,9.7116381,-66.65220414
9.43,943,0.177,-0.15,1.0659999999999998,6.9327918,-0.5156622000000001,-0.3437748,171.07379964,9.7116381,-66.65220414
9.44,944,0.17300000000000001,-0.152,1.042,7.6776372,0.40107059999999994,-0.3437748,171.15401376,9.7116381,-66.64647456
9.45,945,0.17300000000000001,-0.142,1.013,8.5370742,0.8594370000000001,-0.5156622000000001,171.24568704,9.70017894,-66.63501540000001
9.46,946,0.174,-0.14,0.996,9.5111028,0.8594370000000001,-0.6302538000000001,171.3430899,9.69444936,-66.62928581999999
9.47,947,0.175,-0.13699999999999998,0.997,10.657018800000001,1.0313244000000001,-0.7448454000000001,171.45195192,9.6829902,-66.61782666
9.48,948,0.17300000000000001,-0.135,1.011,11.802934800000001,0.5156622000000001,-0.8594370000000001,171.57227310000005,9.67726062,-66.6063675
9.49,949,0.17300000000000001,-0.134,1.024,12.834259199999998,0.0,-1.0886202,171.70405344,9.67726062,-66.59490833999999
9.5,950,0.17300000000000001,-0.141,1.033,13.5791046,-0.4583664000000001,-1.2032118,171.84729294,9.6829902,-66.58344918
9.51,951,0.174,-0.141,1.026,13.2353298,-0.8594370000000001,-1.2605076000000002,171.98480286,9.68871978,-66.57199002
9.52,952,0.174,-0.138,1.013,12.605075999999999,-0.9167328000000001,-1.145916,172.11085362,9.70017894,-66.55480127999999
9.53,953,0.16699999999999998,-0.132,1.003,12.2040054,-1.8907614,-1.0886202,172.23690438,9.72309726,-66.54907170000001
9.54,954,0.16699999999999998,-0.136,0.978,11.2299768,-2.6929026,-0.9740286,172.35722556000005,9.746015580000002,-66.53761254
9.55,955,0.168,-0.132,0.973,11.0580894,-2.9220858,-1.0313244000000001,172.46608758,9.77466348,-66.53188295999999
9.56,956,0.163,-0.13,0.981,11.6310474,-4.1252976000000015,-1.0886202,172.58640875999996,9.82050012,-66.52042379999999
9.57,957,0.165,-0.132,0.9840000000000001,11.917526400000002,-5.844171599999999,-1.2032118,172.71245951999995,9.87779592,-66.51469422
9.58,958,0.16899999999999998,-0.125,0.981,12.4331886,-7.8495246,-1.2605076000000002,172.83851027999995,9.95228046,-66.50896464
9.59,959,0.179,-0.129,0.982,11.745639,-9.740286,-1.2032118,172.96456103999995,10.04968332,-66.50323506
9.6,960,0.172,-0.115,0.982,11.688343199999998,-10.943497800000001,-1.3750992,173.08488222,10.15854534,-66.49750548
9.61,961,0.17,-0.107,0.9940000000000001,12.3758928,-12.2040054,-1.2032118,173.21093298,10.27886652,-66.49750548
9.62,962,0.17600000000000002,-0.115,1.005,12.318597,-13.8082878,-0.9740286,173.33698374,10.41637644,-66.49750548
9.63,963,0.185,-0.111,1.002,12.2040054,-15.6417534,-0.7448454000000001,173.4630345,10.571075099999998,-66.50323506
9.64,964,0.185,-0.105,1.002,11.2872726,-17.9335854,-0.4583664000000001,173.57762610000003,10.74869208,-66.51469422
9.65,965,0.18100000000000002,-0.095,1.006,10.7716104,-20.168121600000006,-0.1718874,173.6922177,10.943497800000001,-66.52615338000001
9.66,966,0.18899999999999997,-0.102,1.023,11.401864199999999,-24.0069402,0.1718874,173.8068093,11.17841058,-66.54907170000001
